"success","timeout","failed_images","failed_audio","failed_video","trial_type","trial_index","time_elapsed","internal_node_id","run_id","condition","recorded_at","source_code_version","ip","user_agent","device","browser","browser_version","platform","platform_version","rt","stimulus","response","question_order"
"true","false","[]","[]","[]","preload","0","589","0.0-0.0","12","1","2023-06-04 15:31:15","a806436d73fb3c2fb9db1ebeb6e0a607","149.46.193.242","Mozilla/5.0 (Windows NT 10.0; Win64; x64) AppleWebKit/537.36 (KHTML, like Gecko) Chrome/115.0.0.0 Safari/537.36","WebKit","Chrome","115.0.0.0","Windows","10.0","","","",""
"true","","","","","fullscreen","1","18502","0.0-1.0","12","1","2023-06-04 15:31:15","a806436d73fb3c2fb9db1ebeb6e0a607","149.46.193.242","Mozilla/5.0 (Windows NT 10.0; Win64; x64) AppleWebKit/537.36 (KHTML, like Gecko) Chrome/115.0.0.0 Safari/537.36","WebKit","Chrome","115.0.0.0","Windows","10.0","","","",""
"","","","","","html-button-response","2","31108","0.0-2.0","12","1","2023-06-04 15:31:15","a806436d73fb3c2fb9db1ebeb6e0a607","149.46.193.242","Mozilla/5.0 (Windows NT 10.0; Win64; x64) AppleWebKit/537.36 (KHTML, like Gecko) Chrome/115.0.0.0 Safari/537.36","WebKit","Chrome","115.0.0.0","Windows","10.0","12605","<p ><strong>Welcome to the experiment!</strong></p><p ><strong>In the first task, please imagine:</strong></p><p>Your country is involved in a military conflict with another country.</p><p>You are the commander of your army and must make decisions in the conflict.</p><p>Specifically, as the military commander, you must decide whether to launch a missile to strike enemy.</p><p>You will face a series of scenarios. Please read each scenario carefully and make a decision.</p><p>The task will take around 10 minutes to complete.</p><p><strong>Please pay your attention during the experiment.</strong></p>","0",""
"","","","","","html-keyboard-response","3","32110","0.0-3.0-0.0","12","1","2023-06-04 15:31:15","a806436d73fb3c2fb9db1ebeb6e0a607","149.46.193.242","Mozilla/5.0 (Windows NT 10.0; Win64; x64) AppleWebKit/537.36 (KHTML, like Gecko) Chrome/115.0.0.0 Safari/537.36","WebKit","Chrome","115.0.0.0","Windows","10.0","null","<div style=""font-size:60px;"">+</div>","null",""
"","","","","","html-button-response","4","34202","0.0-3.0-1.0","12","1","2023-06-04 15:31:15","a806436d73fb3c2fb9db1ebeb6e0a607","149.46.193.242","Mozilla/5.0 (Windows NT 10.0; Win64; x64) AppleWebKit/537.36 (KHTML, like Gecko) Chrome/115.0.0.0 Safari/537.36","WebKit","Chrome","115.0.0.0","Windows","10.0","2090","<p>As the military commander, you could choose to launch a missile to kill <strong>9 enemy soldiers</strong> , but would accidentally kill <strong>1 enemy civilian</strong> nearby.</p> <p>The photo of the <strong>enemy civilian</strong> is shown below.</p> <p></p> <img src='stimuli/faces/NFF5.jpg', style='max-width: 30%;'> </img> <p><strong>Would you launch the weapon?</strong></p>","0",""
"","","","","","html-keyboard-response","5","35203","0.0-3.0-0.1","12","1","2023-06-04 15:31:15","a806436d73fb3c2fb9db1ebeb6e0a607","149.46.193.242","Mozilla/5.0 (Windows NT 10.0; Win64; x64) AppleWebKit/537.36 (KHTML, like Gecko) Chrome/115.0.0.0 Safari/537.36","WebKit","Chrome","115.0.0.0","Windows","10.0","null","<div style=""font-size:60px;"">+</div>","null",""
"","","","","","html-button-response","6","36578","0.0-3.0-1.1","12","1","2023-06-04 15:31:15","a806436d73fb3c2fb9db1ebeb6e0a607","149.46.193.242","Mozilla/5.0 (Windows NT 10.0; Win64; x64) AppleWebKit/537.36 (KHTML, like Gecko) Chrome/115.0.0.0 Safari/537.36","WebKit","Chrome","115.0.0.0","Windows","10.0","1374","<p>As the military commander, you could choose to launch a missile to kill <strong>4 enemy soldiers</strong> , but would accidentally kill <strong>1 enemy civilian</strong> nearby.</p> <p>The photo of the <strong>enemy civilian</strong> is shown below.</p> <p></p> <img src='stimuli/faces/NFF2.jpg', style='max-width: 30%;'> </img> <p><strong>Would you launch the weapon?</strong></p>","1",""
"","","","","","html-keyboard-response","7","37580","0.0-3.0-0.2","12","1","2023-06-04 15:31:15","a806436d73fb3c2fb9db1ebeb6e0a607","149.46.193.242","Mozilla/5.0 (Windows NT 10.0; Win64; x64) AppleWebKit/537.36 (KHTML, like Gecko) Chrome/115.0.0.0 Safari/537.36","WebKit","Chrome","115.0.0.0","Windows","10.0","null","<div style=""font-size:60px;"">+</div>","null",""
"","","","","","html-button-response","8","39060","0.0-3.0-1.2","12","1","2023-06-04 15:31:15","a806436d73fb3c2fb9db1ebeb6e0a607","149.46.193.242","Mozilla/5.0 (Windows NT 10.0; Win64; x64) AppleWebKit/537.36 (KHTML, like Gecko) Chrome/115.0.0.0 Safari/537.36","WebKit","Chrome","115.0.0.0","Windows","10.0","1478","<p>As the military commander, you could choose to launch a missile to kill <strong>4 enemy soldiers</strong> , but would accidentally kill <strong>1 enemy tree</strong> nearby.</p> <p>The photo of the <strong>enemy tree</strong> is shown below.</p> <p></p> <img src='stimuli/tree/1.png', style='max-width: 30%;'> </img> <p><strong>Would you launch the weapon?</strong></p>","0",""
"","","","","","html-keyboard-response","9","40062","0.0-3.0-0.3","12","1","2023-06-04 15:31:15","a806436d73fb3c2fb9db1ebeb6e0a607","149.46.193.242","Mozilla/5.0 (Windows NT 10.0; Win64; x64) AppleWebKit/537.36 (KHTML, like Gecko) Chrome/115.0.0.0 Safari/537.36","WebKit","Chrome","115.0.0.0","Windows","10.0","null","<div style=""font-size:60px;"">+</div>","null",""
"","","","","","html-button-response","10","41564","0.0-3.0-1.3","12","1","2023-06-04 15:31:15","a806436d73fb3c2fb9db1ebeb6e0a607","149.46.193.242","Mozilla/5.0 (Windows NT 10.0; Win64; x64) AppleWebKit/537.36 (KHTML, like Gecko) Chrome/115.0.0.0 Safari/537.36","WebKit","Chrome","115.0.0.0","Windows","10.0","1497","<p>As the military commander, you could choose to launch a missile to kill <strong>3 enemy soldiers</strong> , but would accidentally kill <strong>1 enemy civilian</strong> nearby.</p> <p>The photo of the <strong>enemy civilian</strong> is shown below.</p> <p></p> <img src='stimuli/faces/NFM6.jpg', style='max-width: 30%;'> </img> <p><strong>Would you launch the weapon?</strong></p>","0",""
"","","","","","html-keyboard-response","11","42566","0.0-3.0-0.4","12","1","2023-06-04 15:31:15","a806436d73fb3c2fb9db1ebeb6e0a607","149.46.193.242","Mozilla/5.0 (Windows NT 10.0; Win64; x64) AppleWebKit/537.36 (KHTML, like Gecko) Chrome/115.0.0.0 Safari/537.36","WebKit","Chrome","115.0.0.0","Windows","10.0","null","<div style=""font-size:60px;"">+</div>","null",""
"","","","","","html-button-response","12","43659","0.0-3.0-1.4","12","1","2023-06-04 15:31:15","a806436d73fb3c2fb9db1ebeb6e0a607","149.46.193.242","Mozilla/5.0 (Windows NT 10.0; Win64; x64) AppleWebKit/537.36 (KHTML, like Gecko) Chrome/115.0.0.0 Safari/537.36","WebKit","Chrome","115.0.0.0","Windows","10.0","1088","<p>As the military commander, you could choose to launch a missile to kill <strong>9 enemy soldiers</strong> , but would accidentally kill <strong>1 enemy tree</strong> nearby.</p> <p>The photo of the <strong>enemy tree</strong> is shown below.</p> <p></p> <img src='stimuli/tree/15.png', style='max-width: 30%;'> </img> <p><strong>Would you launch the weapon?</strong></p>","0",""
"","","","","","html-keyboard-response","13","44660","0.0-3.0-0.5","12","1","2023-06-04 15:31:15","a806436d73fb3c2fb9db1ebeb6e0a607","149.46.193.242","Mozilla/5.0 (Windows NT 10.0; Win64; x64) AppleWebKit/537.36 (KHTML, like Gecko) Chrome/115.0.0.0 Safari/537.36","WebKit","Chrome","115.0.0.0","Windows","10.0","null","<div style=""font-size:60px;"">+</div>","null",""
"","","","","","html-button-response","14","48090","0.0-3.0-1.5","12","1","2023-06-04 15:31:15","a806436d73fb3c2fb9db1ebeb6e0a607","149.46.193.242","Mozilla/5.0 (Windows NT 10.0; Win64; x64) AppleWebKit/537.36 (KHTML, like Gecko) Chrome/115.0.0.0 Safari/537.36","WebKit","Chrome","115.0.0.0","Windows","10.0","3426","<p>As the military commander, you could choose to launch a missile to kill <strong>2 enemy soldiers</strong> , but would accidentally kill <strong>1 enemy civilian</strong> nearby.</p> <p>The photo of the <strong>enemy civilian</strong> is shown below.</p> <p></p> <img src='stimuli/faces/NFM1.jpg', style='max-width: 30%;'> </img> <p><strong>Would you launch the weapon?</strong></p>","1",""
"","","","","","html-keyboard-response","15","49092","0.0-3.0-0.6","12","1","2023-06-04 15:31:15","a806436d73fb3c2fb9db1ebeb6e0a607","149.46.193.242","Mozilla/5.0 (Windows NT 10.0; Win64; x64) AppleWebKit/537.36 (KHTML, like Gecko) Chrome/115.0.0.0 Safari/537.36","WebKit","Chrome","115.0.0.0","Windows","10.0","null","<div style=""font-size:60px;"">+</div>","null",""
"","","","","","html-button-response","16","50247","0.0-3.0-1.6","12","1","2023-06-04 15:31:15","a806436d73fb3c2fb9db1ebeb6e0a607","149.46.193.242","Mozilla/5.0 (Windows NT 10.0; Win64; x64) AppleWebKit/537.36 (KHTML, like Gecko) Chrome/115.0.0.0 Safari/537.36","WebKit","Chrome","115.0.0.0","Windows","10.0","1153","<p>As the military commander, you could choose to launch a missile to kill <strong>6 enemy soldiers</strong> , but would accidentally kill <strong>1 enemy civilian</strong> nearby.</p> <p>The photo of the <strong>enemy civilian</strong> is shown below.</p> <p></p> <img src='stimuli/faces/NFF4.jpg', style='max-width: 30%;'> </img> <p><strong>Would you launch the weapon?</strong></p>","0",""
"","","","","","html-keyboard-response","17","51250","0.0-3.0-0.7","12","1","2023-06-04 15:31:15","a806436d73fb3c2fb9db1ebeb6e0a607","149.46.193.242","Mozilla/5.0 (Windows NT 10.0; Win64; x64) AppleWebKit/537.36 (KHTML, like Gecko) Chrome/115.0.0.0 Safari/537.36","WebKit","Chrome","115.0.0.0","Windows","10.0","null","<div style=""font-size:60px;"">+</div>","null",""
"","","","","","html-button-response","18","52516","0.0-3.0-1.7","12","1","2023-06-04 15:31:15","a806436d73fb3c2fb9db1ebeb6e0a607","149.46.193.242","Mozilla/5.0 (Windows NT 10.0; Win64; x64) AppleWebKit/537.36 (KHTML, like Gecko) Chrome/115.0.0.0 Safari/537.36","WebKit","Chrome","115.0.0.0","Windows","10.0","1261","<p>As the military commander, you could choose to launch a missile to kill <strong>10 enemy soldiers</strong> , but would accidentally kill <strong>1 enemy civilian</strong> nearby.</p> <p>The photo of the <strong>enemy civilian</strong> is shown below.</p> <p></p> <img src='stimuli/faces/NFM3.jpg', style='max-width: 30%;'> </img> <p><strong>Would you launch the weapon?</strong></p>","0",""
"","","","","","html-keyboard-response","19","53520","0.0-3.0-0.8","12","1","2023-06-04 15:31:15","a806436d73fb3c2fb9db1ebeb6e0a607","149.46.193.242","Mozilla/5.0 (Windows NT 10.0; Win64; x64) AppleWebKit/537.36 (KHTML, like Gecko) Chrome/115.0.0.0 Safari/537.36","WebKit","Chrome","115.0.0.0","Windows","10.0","null","<div style=""font-size:60px;"">+</div>","null",""
"","","","","","html-button-response","20","54843","0.0-3.0-1.8","12","1","2023-06-04 15:31:15","a806436d73fb3c2fb9db1ebeb6e0a607","149.46.193.242","Mozilla/5.0 (Windows NT 10.0; Win64; x64) AppleWebKit/537.36 (KHTML, like Gecko) Chrome/115.0.0.0 Safari/537.36","WebKit","Chrome","115.0.0.0","Windows","10.0","1318","<p>As the military commander, you could choose to launch a missile to kill <strong>10 enemy soldiers</strong> , but would accidentally kill <strong>1 enemy tree</strong> nearby.</p> <p>The photo of the <strong>enemy tree</strong> is shown below.</p> <p></p> <img src='stimuli/tree/4.png', style='max-width: 30%;'> </img> <p><strong>Would you launch the weapon?</strong></p>","0",""
"","","","","","html-keyboard-response","21","55845","0.0-3.0-0.9","12","1","2023-06-04 15:31:15","a806436d73fb3c2fb9db1ebeb6e0a607","149.46.193.242","Mozilla/5.0 (Windows NT 10.0; Win64; x64) AppleWebKit/537.36 (KHTML, like Gecko) Chrome/115.0.0.0 Safari/537.36","WebKit","Chrome","115.0.0.0","Windows","10.0","null","<div style=""font-size:60px;"">+</div>","null",""
"","","","","","html-button-response","22","56865","0.0-3.0-1.9","12","1","2023-06-04 15:31:15","a806436d73fb3c2fb9db1ebeb6e0a607","149.46.193.242","Mozilla/5.0 (Windows NT 10.0; Win64; x64) AppleWebKit/537.36 (KHTML, like Gecko) Chrome/115.0.0.0 Safari/537.36","WebKit","Chrome","115.0.0.0","Windows","10.0","1018","<p>As the military commander, you could choose to launch a missile to kill <strong>9 enemy soldiers</strong> , but would accidentally kill <strong>1 enemy tree</strong> nearby.</p> <p>The photo of the <strong>enemy tree</strong> is shown below.</p> <p></p> <img src='stimuli/tree/11.png', style='max-width: 30%;'> </img> <p><strong>Would you launch the weapon?</strong></p>","0",""
"","","","","","html-keyboard-response","23","57868","0.0-3.0-0.10","12","1","2023-06-04 15:31:15","a806436d73fb3c2fb9db1ebeb6e0a607","149.46.193.242","Mozilla/5.0 (Windows NT 10.0; Win64; x64) AppleWebKit/537.36 (KHTML, like Gecko) Chrome/115.0.0.0 Safari/537.36","WebKit","Chrome","115.0.0.0","Windows","10.0","null","<div style=""font-size:60px;"">+</div>","null",""
"","","","","","html-button-response","24","59659","0.0-3.0-1.10","12","1","2023-06-04 15:31:15","a806436d73fb3c2fb9db1ebeb6e0a607","149.46.193.242","Mozilla/5.0 (Windows NT 10.0; Win64; x64) AppleWebKit/537.36 (KHTML, like Gecko) Chrome/115.0.0.0 Safari/537.36","WebKit","Chrome","115.0.0.0","Windows","10.0","1788","<p>As the military commander, you could choose to launch a missile to kill <strong>6 enemy soldiers</strong> , but would accidentally kill <strong>1 enemy tree</strong> nearby.</p> <p>The photo of the <strong>enemy tree</strong> is shown below.</p> <p></p> <img src='stimuli/tree/12.png', style='max-width: 30%;'> </img> <p><strong>Would you launch the weapon?</strong></p>","0",""
"","","","","","html-keyboard-response","25","60661","0.0-3.0-0.11","12","1","2023-06-04 15:31:15","a806436d73fb3c2fb9db1ebeb6e0a607","149.46.193.242","Mozilla/5.0 (Windows NT 10.0; Win64; x64) AppleWebKit/537.36 (KHTML, like Gecko) Chrome/115.0.0.0 Safari/537.36","WebKit","Chrome","115.0.0.0","Windows","10.0","null","<div style=""font-size:60px;"">+</div>","null",""
"","","","","","html-button-response","26","74298","0.0-3.0-1.11","12","1","2023-06-04 15:31:15","a806436d73fb3c2fb9db1ebeb6e0a607","149.46.193.242","Mozilla/5.0 (Windows NT 10.0; Win64; x64) AppleWebKit/537.36 (KHTML, like Gecko) Chrome/115.0.0.0 Safari/537.36","WebKit","Chrome","115.0.0.0","Windows","10.0","13636","<p>As the military commander, you could choose to launch a missile to kill <strong>9 enemy soldiers</strong> , but would accidentally kill <strong>1 enemy civilian</strong> nearby.</p> <p>The photo of the <strong>enemy civilian</strong> is shown below.</p> <p></p> <img src='stimuli/faces/NFM7.jpg', style='max-width: 30%;'> </img> <p><strong>Would you launch the weapon?</strong></p>","0",""
"","","","","","html-keyboard-response","27","75301","0.0-3.0-0.12","12","1","2023-06-04 15:31:15","a806436d73fb3c2fb9db1ebeb6e0a607","149.46.193.242","Mozilla/5.0 (Windows NT 10.0; Win64; x64) AppleWebKit/537.36 (KHTML, like Gecko) Chrome/115.0.0.0 Safari/537.36","WebKit","Chrome","115.0.0.0","Windows","10.0","null","<div style=""font-size:60px;"">+</div>","null",""
"","","","","","html-button-response","28","77674","0.0-3.0-1.12","12","1","2023-06-04 15:31:15","a806436d73fb3c2fb9db1ebeb6e0a607","149.46.193.242","Mozilla/5.0 (Windows NT 10.0; Win64; x64) AppleWebKit/537.36 (KHTML, like Gecko) Chrome/115.0.0.0 Safari/537.36","WebKit","Chrome","115.0.0.0","Windows","10.0","2369","<p>As the military commander, you could choose to launch a missile to kill <strong>4 enemy soldiers</strong> , but would accidentally kill <strong>1 enemy civilian</strong> nearby.</p> <p>The photo of the <strong>enemy civilian</strong> is shown below.</p> <p></p> <img src='stimuli/faces/NFF8.jpg', style='max-width: 30%;'> </img> <p><strong>Would you launch the weapon?</strong></p>","1",""
"","","","","","html-keyboard-response","29","78678","0.0-3.0-0.13","12","1","2023-06-04 15:31:15","a806436d73fb3c2fb9db1ebeb6e0a607","149.46.193.242","Mozilla/5.0 (Windows NT 10.0; Win64; x64) AppleWebKit/537.36 (KHTML, like Gecko) Chrome/115.0.0.0 Safari/537.36","WebKit","Chrome","115.0.0.0","Windows","10.0","null","<div style=""font-size:60px;"">+</div>","null",""
"","","","","","html-button-response","30","80346","0.0-3.0-1.13","12","1","2023-06-04 15:31:15","a806436d73fb3c2fb9db1ebeb6e0a607","149.46.193.242","Mozilla/5.0 (Windows NT 10.0; Win64; x64) AppleWebKit/537.36 (KHTML, like Gecko) Chrome/115.0.0.0 Safari/537.36","WebKit","Chrome","115.0.0.0","Windows","10.0","1665","<p>As the military commander, you could choose to launch a missile to kill <strong>9 enemy soldiers</strong> , but would accidentally kill <strong>1 enemy tree</strong> nearby.</p> <p>The photo of the <strong>enemy tree</strong> is shown below.</p> <p></p> <img src='stimuli/tree/5.png', style='max-width: 30%;'> </img> <p><strong>Would you launch the weapon?</strong></p>","0",""
"","","","","","html-keyboard-response","31","81348","0.0-3.0-0.14","12","1","2023-06-04 15:31:15","a806436d73fb3c2fb9db1ebeb6e0a607","149.46.193.242","Mozilla/5.0 (Windows NT 10.0; Win64; x64) AppleWebKit/537.36 (KHTML, like Gecko) Chrome/115.0.0.0 Safari/537.36","WebKit","Chrome","115.0.0.0","Windows","10.0","null","<div style=""font-size:60px;"">+</div>","null",""
"","","","","","html-button-response","32","85602","0.0-3.0-1.14","12","1","2023-06-04 15:31:15","a806436d73fb3c2fb9db1ebeb6e0a607","149.46.193.242","Mozilla/5.0 (Windows NT 10.0; Win64; x64) AppleWebKit/537.36 (KHTML, like Gecko) Chrome/115.0.0.0 Safari/537.36","WebKit","Chrome","115.0.0.0","Windows","10.0","4249","<p>As the military commander, you could choose to launch a missile to kill <strong>3 enemy soldiers</strong> , but would accidentally kill <strong>1 enemy civilian</strong> nearby.</p> <p>The photo of the <strong>enemy civilian</strong> is shown below.</p> <p></p> <img src='stimuli/faces/NFM4.jpg', style='max-width: 30%;'> </img> <p><strong>Would you launch the weapon?</strong></p>","1",""
"","","","","","html-keyboard-response","33","86603","0.0-3.0-0.15","12","1","2023-06-04 15:31:15","a806436d73fb3c2fb9db1ebeb6e0a607","149.46.193.242","Mozilla/5.0 (Windows NT 10.0; Win64; x64) AppleWebKit/537.36 (KHTML, like Gecko) Chrome/115.0.0.0 Safari/537.36","WebKit","Chrome","115.0.0.0","Windows","10.0","null","<div style=""font-size:60px;"">+</div>","null",""
"","","","","","html-button-response","34","89083","0.0-3.0-1.15","12","1","2023-06-04 15:31:15","a806436d73fb3c2fb9db1ebeb6e0a607","149.46.193.242","Mozilla/5.0 (Windows NT 10.0; Win64; x64) AppleWebKit/537.36 (KHTML, like Gecko) Chrome/115.0.0.0 Safari/537.36","WebKit","Chrome","115.0.0.0","Windows","10.0","2468","<p>As the military commander, you could choose to launch a missile to kill <strong>3 enemy soldiers</strong> , but would accidentally kill <strong>1 enemy civilian</strong> nearby.</p> <p>The photo of the <strong>enemy civilian</strong> is shown below.</p> <p></p> <img src='stimuli/faces/NFF7.jpg', style='max-width: 30%;'> </img> <p><strong>Would you launch the weapon?</strong></p>","1",""
"","","","","","html-keyboard-response","35","90085","0.0-3.0-0.16","12","1","2023-06-04 15:31:15","a806436d73fb3c2fb9db1ebeb6e0a607","149.46.193.242","Mozilla/5.0 (Windows NT 10.0; Win64; x64) AppleWebKit/537.36 (KHTML, like Gecko) Chrome/115.0.0.0 Safari/537.36","WebKit","Chrome","115.0.0.0","Windows","10.0","null","<div style=""font-size:60px;"">+</div>","null",""
"","","","","","html-button-response","36","91372","0.0-3.0-1.16","12","1","2023-06-04 15:31:15","a806436d73fb3c2fb9db1ebeb6e0a607","149.46.193.242","Mozilla/5.0 (Windows NT 10.0; Win64; x64) AppleWebKit/537.36 (KHTML, like Gecko) Chrome/115.0.0.0 Safari/537.36","WebKit","Chrome","115.0.0.0","Windows","10.0","1282","<p>As the military commander, you could choose to launch a missile to kill <strong>7 enemy soldiers</strong> , but would accidentally kill <strong>1 enemy tree</strong> nearby.</p> <p>The photo of the <strong>enemy tree</strong> is shown below.</p> <p></p> <img src='stimuli/tree/14.png', style='max-width: 30%;'> </img> <p><strong>Would you launch the weapon?</strong></p>","0",""
"","","","","","html-keyboard-response","37","92374","0.0-3.0-0.17","12","1","2023-06-04 15:31:15","a806436d73fb3c2fb9db1ebeb6e0a607","149.46.193.242","Mozilla/5.0 (Windows NT 10.0; Win64; x64) AppleWebKit/537.36 (KHTML, like Gecko) Chrome/115.0.0.0 Safari/537.36","WebKit","Chrome","115.0.0.0","Windows","10.0","null","<div style=""font-size:60px;"">+</div>","null",""
"","","","","","html-button-response","38","93618","0.0-3.0-1.17","12","1","2023-06-04 15:31:15","a806436d73fb3c2fb9db1ebeb6e0a607","149.46.193.242","Mozilla/5.0 (Windows NT 10.0; Win64; x64) AppleWebKit/537.36 (KHTML, like Gecko) Chrome/115.0.0.0 Safari/537.36","WebKit","Chrome","115.0.0.0","Windows","10.0","1241","<p>As the military commander, you could choose to launch a missile to kill <strong>1 enemy soldier</strong> , but would accidentally kill <strong>1 enemy tree</strong> nearby.</p> <p>The photo of the <strong>enemy tree</strong> is shown below.</p> <p></p> <img src='stimuli/tree/5.png', style='max-width: 30%;'> </img> <p><strong>Would you launch the weapon?</strong></p>","0",""
"","","","","","html-keyboard-response","39","94621","0.0-3.0-0.18","12","1","2023-06-04 15:31:15","a806436d73fb3c2fb9db1ebeb6e0a607","149.46.193.242","Mozilla/5.0 (Windows NT 10.0; Win64; x64) AppleWebKit/537.36 (KHTML, like Gecko) Chrome/115.0.0.0 Safari/537.36","WebKit","Chrome","115.0.0.0","Windows","10.0","null","<div style=""font-size:60px;"">+</div>","null",""
"","","","","","html-button-response","40","95883","0.0-3.0-1.18","12","1","2023-06-04 15:31:15","a806436d73fb3c2fb9db1ebeb6e0a607","149.46.193.242","Mozilla/5.0 (Windows NT 10.0; Win64; x64) AppleWebKit/537.36 (KHTML, like Gecko) Chrome/115.0.0.0 Safari/537.36","WebKit","Chrome","115.0.0.0","Windows","10.0","1259","<p>As the military commander, you could choose to launch a missile to kill <strong>10 enemy soldiers</strong> , but would accidentally kill <strong>1 enemy civilian</strong> nearby.</p> <p>The photo of the <strong>enemy civilian</strong> is shown below.</p> <p></p> <img src='stimuli/faces/NFM8.jpg', style='max-width: 30%;'> </img> <p><strong>Would you launch the weapon?</strong></p>","0",""
"","","","","","html-keyboard-response","41","96885","0.0-3.0-0.19","12","1","2023-06-04 15:31:15","a806436d73fb3c2fb9db1ebeb6e0a607","149.46.193.242","Mozilla/5.0 (Windows NT 10.0; Win64; x64) AppleWebKit/537.36 (KHTML, like Gecko) Chrome/115.0.0.0 Safari/537.36","WebKit","Chrome","115.0.0.0","Windows","10.0","null","<div style=""font-size:60px;"">+</div>","null",""
"","","","","","html-button-response","42","97899","0.0-3.0-1.19","12","1","2023-06-04 15:31:15","a806436d73fb3c2fb9db1ebeb6e0a607","149.46.193.242","Mozilla/5.0 (Windows NT 10.0; Win64; x64) AppleWebKit/537.36 (KHTML, like Gecko) Chrome/115.0.0.0 Safari/537.36","WebKit","Chrome","115.0.0.0","Windows","10.0","1006","<p>As the military commander, you could choose to launch a missile to kill <strong>10 enemy soldiers</strong> , but would accidentally kill <strong>1 enemy tree</strong> nearby.</p> <p>The photo of the <strong>enemy tree</strong> is shown below.</p> <p></p> <img src='stimuli/tree/1.png', style='max-width: 30%;'> </img> <p><strong>Would you launch the weapon?</strong></p>","0",""
"","","","","","html-keyboard-response","43","98903","0.0-3.0-0.20","12","1","2023-06-04 15:31:15","a806436d73fb3c2fb9db1ebeb6e0a607","149.46.193.242","Mozilla/5.0 (Windows NT 10.0; Win64; x64) AppleWebKit/537.36 (KHTML, like Gecko) Chrome/115.0.0.0 Safari/537.36","WebKit","Chrome","115.0.0.0","Windows","10.0","null","<div style=""font-size:60px;"">+</div>","null",""
"","","","","","html-button-response","44","99994","0.0-3.0-1.20","12","1","2023-06-04 15:31:15","a806436d73fb3c2fb9db1ebeb6e0a607","149.46.193.242","Mozilla/5.0 (Windows NT 10.0; Win64; x64) AppleWebKit/537.36 (KHTML, like Gecko) Chrome/115.0.0.0 Safari/537.36","WebKit","Chrome","115.0.0.0","Windows","10.0","1089","<p>As the military commander, you could choose to launch a missile to kill <strong>3 enemy soldiers</strong> , but would accidentally kill <strong>1 enemy tree</strong> nearby.</p> <p>The photo of the <strong>enemy tree</strong> is shown below.</p> <p></p> <img src='stimuli/tree/11.png', style='max-width: 30%;'> </img> <p><strong>Would you launch the weapon?</strong></p>","0",""
"","","","","","html-keyboard-response","45","101000","0.0-3.0-0.21","12","1","2023-06-04 15:31:15","a806436d73fb3c2fb9db1ebeb6e0a607","149.46.193.242","Mozilla/5.0 (Windows NT 10.0; Win64; x64) AppleWebKit/537.36 (KHTML, like Gecko) Chrome/115.0.0.0 Safari/537.36","WebKit","Chrome","115.0.0.0","Windows","10.0","null","<div style=""font-size:60px;"">+</div>","null",""
"","","","","","html-button-response","46","111852","0.0-3.0-1.21","12","1","2023-06-04 15:31:15","a806436d73fb3c2fb9db1ebeb6e0a607","149.46.193.242","Mozilla/5.0 (Windows NT 10.0; Win64; x64) AppleWebKit/537.36 (KHTML, like Gecko) Chrome/115.0.0.0 Safari/537.36","WebKit","Chrome","115.0.0.0","Windows","10.0","10845","<p>As the military commander, you could choose to launch a missile to kill <strong>5 enemy soldiers</strong> , but would accidentally kill <strong>1 enemy tree</strong> nearby.</p> <p>The photo of the <strong>enemy tree</strong> is shown below.</p> <p></p> <img src='stimuli/tree/4.png', style='max-width: 30%;'> </img> <p><strong>Would you launch the weapon?</strong></p>","0",""
"","","","","","html-keyboard-response","47","112854","0.0-3.0-0.22","12","1","2023-06-04 15:31:15","a806436d73fb3c2fb9db1ebeb6e0a607","149.46.193.242","Mozilla/5.0 (Windows NT 10.0; Win64; x64) AppleWebKit/537.36 (KHTML, like Gecko) Chrome/115.0.0.0 Safari/537.36","WebKit","Chrome","115.0.0.0","Windows","10.0","null","<div style=""font-size:60px;"">+</div>","null",""
"","","","","","html-button-response","48","115772","0.0-3.0-1.22","12","1","2023-06-04 15:31:15","a806436d73fb3c2fb9db1ebeb6e0a607","149.46.193.242","Mozilla/5.0 (Windows NT 10.0; Win64; x64) AppleWebKit/537.36 (KHTML, like Gecko) Chrome/115.0.0.0 Safari/537.36","WebKit","Chrome","115.0.0.0","Windows","10.0","2913","<p>As the military commander, you could choose to launch a missile to kill <strong>9 enemy soldiers</strong> , but would accidentally kill <strong>1 enemy civilian</strong> nearby.</p> <p>The photo of the <strong>enemy civilian</strong> is shown below.</p> <p></p> <img src='stimuli/faces/NFM5.jpg', style='max-width: 30%;'> </img> <p><strong>Would you launch the weapon?</strong></p>","0",""
"","","","","","html-keyboard-response","49","116773","0.0-3.0-0.23","12","1","2023-06-04 15:31:15","a806436d73fb3c2fb9db1ebeb6e0a607","149.46.193.242","Mozilla/5.0 (Windows NT 10.0; Win64; x64) AppleWebKit/537.36 (KHTML, like Gecko) Chrome/115.0.0.0 Safari/537.36","WebKit","Chrome","115.0.0.0","Windows","10.0","null","<div style=""font-size:60px;"">+</div>","null",""
"","","","","","html-button-response","50","118092","0.0-3.0-1.23","12","1","2023-06-04 15:31:15","a806436d73fb3c2fb9db1ebeb6e0a607","149.46.193.242","Mozilla/5.0 (Windows NT 10.0; Win64; x64) AppleWebKit/537.36 (KHTML, like Gecko) Chrome/115.0.0.0 Safari/537.36","WebKit","Chrome","115.0.0.0","Windows","10.0","1316","<p>As the military commander, you could choose to launch a missile to kill <strong>5 enemy soldiers</strong> , but would accidentally kill <strong>1 enemy tree</strong> nearby.</p> <p>The photo of the <strong>enemy tree</strong> is shown below.</p> <p></p> <img src='stimuli/tree/9.png', style='max-width: 30%;'> </img> <p><strong>Would you launch the weapon?</strong></p>","0",""
"","","","","","html-keyboard-response","51","119093","0.0-3.0-0.24","12","1","2023-06-04 15:31:15","a806436d73fb3c2fb9db1ebeb6e0a607","149.46.193.242","Mozilla/5.0 (Windows NT 10.0; Win64; x64) AppleWebKit/537.36 (KHTML, like Gecko) Chrome/115.0.0.0 Safari/537.36","WebKit","Chrome","115.0.0.0","Windows","10.0","null","<div style=""font-size:60px;"">+</div>","null",""
"","","","","","html-button-response","52","120180","0.0-3.0-1.24","12","1","2023-06-04 15:31:15","a806436d73fb3c2fb9db1ebeb6e0a607","149.46.193.242","Mozilla/5.0 (Windows NT 10.0; Win64; x64) AppleWebKit/537.36 (KHTML, like Gecko) Chrome/115.0.0.0 Safari/537.36","WebKit","Chrome","115.0.0.0","Windows","10.0","1084","<p>As the military commander, you could choose to launch a missile to kill <strong>6 enemy soldiers</strong> , but would accidentally kill <strong>1 enemy tree</strong> nearby.</p> <p>The photo of the <strong>enemy tree</strong> is shown below.</p> <p></p> <img src='stimuli/tree/16.png', style='max-width: 30%;'> </img> <p><strong>Would you launch the weapon?</strong></p>","0",""
"","","","","","html-keyboard-response","53","121185","0.0-3.0-0.25","12","1","2023-06-04 15:31:15","a806436d73fb3c2fb9db1ebeb6e0a607","149.46.193.242","Mozilla/5.0 (Windows NT 10.0; Win64; x64) AppleWebKit/537.36 (KHTML, like Gecko) Chrome/115.0.0.0 Safari/537.36","WebKit","Chrome","115.0.0.0","Windows","10.0","null","<div style=""font-size:60px;"">+</div>","null",""
"","","","","","html-button-response","54","122308","0.0-3.0-1.25","12","1","2023-06-04 15:31:15","a806436d73fb3c2fb9db1ebeb6e0a607","149.46.193.242","Mozilla/5.0 (Windows NT 10.0; Win64; x64) AppleWebKit/537.36 (KHTML, like Gecko) Chrome/115.0.0.0 Safari/537.36","WebKit","Chrome","115.0.0.0","Windows","10.0","1119","<p>As the military commander, you could choose to launch a missile to kill <strong>4 enemy soldiers</strong> , but would accidentally kill <strong>1 enemy tree</strong> nearby.</p> <p>The photo of the <strong>enemy tree</strong> is shown below.</p> <p></p> <img src='stimuli/tree/12.png', style='max-width: 30%;'> </img> <p><strong>Would you launch the weapon?</strong></p>","0",""
"","","","","","html-keyboard-response","55","123310","0.0-3.0-0.26","12","1","2023-06-04 15:31:15","a806436d73fb3c2fb9db1ebeb6e0a607","149.46.193.242","Mozilla/5.0 (Windows NT 10.0; Win64; x64) AppleWebKit/537.36 (KHTML, like Gecko) Chrome/115.0.0.0 Safari/537.36","WebKit","Chrome","115.0.0.0","Windows","10.0","null","<div style=""font-size:60px;"">+</div>","null",""
"","","","","","html-button-response","56","125067","0.0-3.0-1.26","12","1","2023-06-04 15:31:15","a806436d73fb3c2fb9db1ebeb6e0a607","149.46.193.242","Mozilla/5.0 (Windows NT 10.0; Win64; x64) AppleWebKit/537.36 (KHTML, like Gecko) Chrome/115.0.0.0 Safari/537.36","WebKit","Chrome","115.0.0.0","Windows","10.0","1752","<p>As the military commander, you could choose to launch a missile to kill <strong>4 enemy soldiers</strong> , but would accidentally kill <strong>1 enemy civilian</strong> nearby.</p> <p>The photo of the <strong>enemy civilian</strong> is shown below.</p> <p></p> <img src='stimuli/faces/NFF6.jpg', style='max-width: 30%;'> </img> <p><strong>Would you launch the weapon?</strong></p>","1",""
"","","","","","html-keyboard-response","57","126069","0.0-3.0-0.27","12","1","2023-06-04 15:31:15","a806436d73fb3c2fb9db1ebeb6e0a607","149.46.193.242","Mozilla/5.0 (Windows NT 10.0; Win64; x64) AppleWebKit/537.36 (KHTML, like Gecko) Chrome/115.0.0.0 Safari/537.36","WebKit","Chrome","115.0.0.0","Windows","10.0","null","<div style=""font-size:60px;"">+</div>","null",""
"","","","","","html-button-response","58","127203","0.0-3.0-1.27","12","1","2023-06-04 15:31:15","a806436d73fb3c2fb9db1ebeb6e0a607","149.46.193.242","Mozilla/5.0 (Windows NT 10.0; Win64; x64) AppleWebKit/537.36 (KHTML, like Gecko) Chrome/115.0.0.0 Safari/537.36","WebKit","Chrome","115.0.0.0","Windows","10.0","1131","<p>As the military commander, you could choose to launch a missile to kill <strong>1 enemy soldier</strong> , but would accidentally kill <strong>1 enemy tree</strong> nearby.</p> <p>The photo of the <strong>enemy tree</strong> is shown below.</p> <p></p> <img src='stimuli/tree/7.png', style='max-width: 30%;'> </img> <p><strong>Would you launch the weapon?</strong></p>","0",""
"","","","","","html-keyboard-response","59","128206","0.0-3.0-0.28","12","1","2023-06-04 15:31:15","a806436d73fb3c2fb9db1ebeb6e0a607","149.46.193.242","Mozilla/5.0 (Windows NT 10.0; Win64; x64) AppleWebKit/537.36 (KHTML, like Gecko) Chrome/115.0.0.0 Safari/537.36","WebKit","Chrome","115.0.0.0","Windows","10.0","null","<div style=""font-size:60px;"">+</div>","null",""
"","","","","","html-button-response","60","129619","0.0-3.0-1.28","12","1","2023-06-04 15:31:15","a806436d73fb3c2fb9db1ebeb6e0a607","149.46.193.242","Mozilla/5.0 (Windows NT 10.0; Win64; x64) AppleWebKit/537.36 (KHTML, like Gecko) Chrome/115.0.0.0 Safari/537.36","WebKit","Chrome","115.0.0.0","Windows","10.0","1408","<p>As the military commander, you could choose to launch a missile to kill <strong>10 enemy soldiers</strong> , but would accidentally kill <strong>1 enemy civilian</strong> nearby.</p> <p>The photo of the <strong>enemy civilian</strong> is shown below.</p> <p></p> <img src='stimuli/faces/NFF2.jpg', style='max-width: 30%;'> </img> <p><strong>Would you launch the weapon?</strong></p>","0",""
"","","","","","html-keyboard-response","61","130623","0.0-3.0-0.29","12","1","2023-06-04 15:31:15","a806436d73fb3c2fb9db1ebeb6e0a607","149.46.193.242","Mozilla/5.0 (Windows NT 10.0; Win64; x64) AppleWebKit/537.36 (KHTML, like Gecko) Chrome/115.0.0.0 Safari/537.36","WebKit","Chrome","115.0.0.0","Windows","10.0","null","<div style=""font-size:60px;"">+</div>","null",""
"","","","","","html-button-response","62","132467","0.0-3.0-1.29","12","1","2023-06-04 15:31:15","a806436d73fb3c2fb9db1ebeb6e0a607","149.46.193.242","Mozilla/5.0 (Windows NT 10.0; Win64; x64) AppleWebKit/537.36 (KHTML, like Gecko) Chrome/115.0.0.0 Safari/537.36","WebKit","Chrome","115.0.0.0","Windows","10.0","1839","<p>As the military commander, you could choose to launch a missile to kill <strong>6 enemy soldiers</strong> , but would accidentally kill <strong>1 enemy civilian</strong> nearby.</p> <p>The photo of the <strong>enemy civilian</strong> is shown below.</p> <p></p> <img src='stimuli/faces/NFM2.jpg', style='max-width: 30%;'> </img> <p><strong>Would you launch the weapon?</strong></p>","0",""
"","","","","","html-keyboard-response","63","133470","0.0-3.0-0.30","12","1","2023-06-04 15:31:15","a806436d73fb3c2fb9db1ebeb6e0a607","149.46.193.242","Mozilla/5.0 (Windows NT 10.0; Win64; x64) AppleWebKit/537.36 (KHTML, like Gecko) Chrome/115.0.0.0 Safari/537.36","WebKit","Chrome","115.0.0.0","Windows","10.0","null","<div style=""font-size:60px;"">+</div>","null",""
"","","","","","html-button-response","64","134628","0.0-3.0-1.30","12","1","2023-06-04 15:31:15","a806436d73fb3c2fb9db1ebeb6e0a607","149.46.193.242","Mozilla/5.0 (Windows NT 10.0; Win64; x64) AppleWebKit/537.36 (KHTML, like Gecko) Chrome/115.0.0.0 Safari/537.36","WebKit","Chrome","115.0.0.0","Windows","10.0","1152","<p>As the military commander, you could choose to launch a missile to kill <strong>6 enemy soldiers</strong> , but would accidentally kill <strong>1 enemy tree</strong> nearby.</p> <p>The photo of the <strong>enemy tree</strong> is shown below.</p> <p></p> <img src='stimuli/tree/10.png', style='max-width: 30%;'> </img> <p><strong>Would you launch the weapon?</strong></p>","0",""
"","","","","","html-keyboard-response","65","135631","0.0-3.0-0.31","12","1","2023-06-04 15:31:15","a806436d73fb3c2fb9db1ebeb6e0a607","149.46.193.242","Mozilla/5.0 (Windows NT 10.0; Win64; x64) AppleWebKit/537.36 (KHTML, like Gecko) Chrome/115.0.0.0 Safari/537.36","WebKit","Chrome","115.0.0.0","Windows","10.0","null","<div style=""font-size:60px;"">+</div>","null",""
"","","","","","html-button-response","66","136691","0.0-3.0-1.31","12","1","2023-06-04 15:31:15","a806436d73fb3c2fb9db1ebeb6e0a607","149.46.193.242","Mozilla/5.0 (Windows NT 10.0; Win64; x64) AppleWebKit/537.36 (KHTML, like Gecko) Chrome/115.0.0.0 Safari/537.36","WebKit","Chrome","115.0.0.0","Windows","10.0","1056","<p>As the military commander, you could choose to launch a missile to kill <strong>6 enemy soldiers</strong> , but would accidentally kill <strong>1 enemy tree</strong> nearby.</p> <p>The photo of the <strong>enemy tree</strong> is shown below.</p> <p></p> <img src='stimuli/tree/8.png', style='max-width: 30%;'> </img> <p><strong>Would you launch the weapon?</strong></p>","0",""
"","","","","","html-keyboard-response","67","137694","0.0-3.0-0.32","12","1","2023-06-04 15:31:15","a806436d73fb3c2fb9db1ebeb6e0a607","149.46.193.242","Mozilla/5.0 (Windows NT 10.0; Win64; x64) AppleWebKit/537.36 (KHTML, like Gecko) Chrome/115.0.0.0 Safari/537.36","WebKit","Chrome","115.0.0.0","Windows","10.0","null","<div style=""font-size:60px;"">+</div>","null",""
"","","","","","html-button-response","68","138771","0.0-3.0-1.32","12","1","2023-06-04 15:31:15","a806436d73fb3c2fb9db1ebeb6e0a607","149.46.193.242","Mozilla/5.0 (Windows NT 10.0; Win64; x64) AppleWebKit/537.36 (KHTML, like Gecko) Chrome/115.0.0.0 Safari/537.36","WebKit","Chrome","115.0.0.0","Windows","10.0","1072","<p>As the military commander, you could choose to launch a missile to kill <strong>10 enemy soldiers</strong> , but would accidentally kill <strong>1 enemy tree</strong> nearby.</p> <p>The photo of the <strong>enemy tree</strong> is shown below.</p> <p></p> <img src='stimuli/tree/9.png', style='max-width: 30%;'> </img> <p><strong>Would you launch the weapon?</strong></p>","0",""
"","","","","","html-keyboard-response","69","139774","0.0-3.0-0.33","12","1","2023-06-04 15:31:15","a806436d73fb3c2fb9db1ebeb6e0a607","149.46.193.242","Mozilla/5.0 (Windows NT 10.0; Win64; x64) AppleWebKit/537.36 (KHTML, like Gecko) Chrome/115.0.0.0 Safari/537.36","WebKit","Chrome","115.0.0.0","Windows","10.0","null","<div style=""font-size:60px;"">+</div>","null",""
"","","","","","html-button-response","70","140754","0.0-3.0-1.33","12","1","2023-06-04 15:31:15","a806436d73fb3c2fb9db1ebeb6e0a607","149.46.193.242","Mozilla/5.0 (Windows NT 10.0; Win64; x64) AppleWebKit/537.36 (KHTML, like Gecko) Chrome/115.0.0.0 Safari/537.36","WebKit","Chrome","115.0.0.0","Windows","10.0","975","<p>As the military commander, you could choose to launch a missile to kill <strong>5 enemy soldiers</strong> , but would accidentally kill <strong>1 enemy tree</strong> nearby.</p> <p>The photo of the <strong>enemy tree</strong> is shown below.</p> <p></p> <img src='stimuli/tree/15.png', style='max-width: 30%;'> </img> <p><strong>Would you launch the weapon?</strong></p>","0",""
"","","","","","html-keyboard-response","71","141758","0.0-3.0-0.34","12","1","2023-06-04 15:31:15","a806436d73fb3c2fb9db1ebeb6e0a607","149.46.193.242","Mozilla/5.0 (Windows NT 10.0; Win64; x64) AppleWebKit/537.36 (KHTML, like Gecko) Chrome/115.0.0.0 Safari/537.36","WebKit","Chrome","115.0.0.0","Windows","10.0","null","<div style=""font-size:60px;"">+</div>","null",""
"","","","","","html-button-response","72","143363","0.0-3.0-1.34","12","1","2023-06-04 15:31:15","a806436d73fb3c2fb9db1ebeb6e0a607","149.46.193.242","Mozilla/5.0 (Windows NT 10.0; Win64; x64) AppleWebKit/537.36 (KHTML, like Gecko) Chrome/115.0.0.0 Safari/537.36","WebKit","Chrome","115.0.0.0","Windows","10.0","1600","<p>As the military commander, you could choose to launch a missile to kill <strong>1 enemy soldier</strong> , but would accidentally kill <strong>1 enemy civilian</strong> nearby.</p> <p>The photo of the <strong>enemy civilian</strong> is shown below.</p> <p></p> <img src='stimuli/faces/NFM2.jpg', style='max-width: 30%;'> </img> <p><strong>Would you launch the weapon?</strong></p>","1",""
"","","","","","html-keyboard-response","73","144366","0.0-3.0-0.35","12","1","2023-06-04 15:31:15","a806436d73fb3c2fb9db1ebeb6e0a607","149.46.193.242","Mozilla/5.0 (Windows NT 10.0; Win64; x64) AppleWebKit/537.36 (KHTML, like Gecko) Chrome/115.0.0.0 Safari/537.36","WebKit","Chrome","115.0.0.0","Windows","10.0","null","<div style=""font-size:60px;"">+</div>","null",""
"","","","","","html-button-response","74","145667","0.0-3.0-1.35","12","1","2023-06-04 15:31:15","a806436d73fb3c2fb9db1ebeb6e0a607","149.46.193.242","Mozilla/5.0 (Windows NT 10.0; Win64; x64) AppleWebKit/537.36 (KHTML, like Gecko) Chrome/115.0.0.0 Safari/537.36","WebKit","Chrome","115.0.0.0","Windows","10.0","1297","<p>As the military commander, you could choose to launch a missile to kill <strong>7 enemy soldiers</strong> , but would accidentally kill <strong>1 enemy tree</strong> nearby.</p> <p>The photo of the <strong>enemy tree</strong> is shown below.</p> <p></p> <img src='stimuli/tree/13.png', style='max-width: 30%;'> </img> <p><strong>Would you launch the weapon?</strong></p>","0",""
"","","","","","html-keyboard-response","75","146669","0.0-3.0-0.36","12","1","2023-06-04 15:31:15","a806436d73fb3c2fb9db1ebeb6e0a607","149.46.193.242","Mozilla/5.0 (Windows NT 10.0; Win64; x64) AppleWebKit/537.36 (KHTML, like Gecko) Chrome/115.0.0.0 Safari/537.36","WebKit","Chrome","115.0.0.0","Windows","10.0","null","<div style=""font-size:60px;"">+</div>","null",""
"","","","","","html-button-response","76","148011","0.0-3.0-1.36","12","1","2023-06-04 15:31:15","a806436d73fb3c2fb9db1ebeb6e0a607","149.46.193.242","Mozilla/5.0 (Windows NT 10.0; Win64; x64) AppleWebKit/537.36 (KHTML, like Gecko) Chrome/115.0.0.0 Safari/537.36","WebKit","Chrome","115.0.0.0","Windows","10.0","1336","<p>As the military commander, you could choose to launch a missile to kill <strong>10 enemy soldiers</strong> , but would accidentally kill <strong>1 enemy civilian</strong> nearby.</p> <p>The photo of the <strong>enemy civilian</strong> is shown below.</p> <p></p> <img src='stimuli/faces/NFM6.jpg', style='max-width: 30%;'> </img> <p><strong>Would you launch the weapon?</strong></p>","0",""
"","","","","","html-keyboard-response","77","149014","0.0-3.0-0.37","12","1","2023-06-04 15:31:15","a806436d73fb3c2fb9db1ebeb6e0a607","149.46.193.242","Mozilla/5.0 (Windows NT 10.0; Win64; x64) AppleWebKit/537.36 (KHTML, like Gecko) Chrome/115.0.0.0 Safari/537.36","WebKit","Chrome","115.0.0.0","Windows","10.0","null","<div style=""font-size:60px;"">+</div>","null",""
"","","","","","html-button-response","78","151732","0.0-3.0-1.37","12","1","2023-06-04 15:31:15","a806436d73fb3c2fb9db1ebeb6e0a607","149.46.193.242","Mozilla/5.0 (Windows NT 10.0; Win64; x64) AppleWebKit/537.36 (KHTML, like Gecko) Chrome/115.0.0.0 Safari/537.36","WebKit","Chrome","115.0.0.0","Windows","10.0","2714","<p>As the military commander, you could choose to launch a missile to kill <strong>7 enemy soldiers</strong> , but would accidentally kill <strong>1 enemy civilian</strong> nearby.</p> <p>The photo of the <strong>enemy civilian</strong> is shown below.</p> <p></p> <img src='stimuli/faces/NFF7.jpg', style='max-width: 30%;'> </img> <p><strong>Would you launch the weapon?</strong></p>","0",""
"","","","","","html-keyboard-response","79","152735","0.0-3.0-0.38","12","1","2023-06-04 15:31:15","a806436d73fb3c2fb9db1ebeb6e0a607","149.46.193.242","Mozilla/5.0 (Windows NT 10.0; Win64; x64) AppleWebKit/537.36 (KHTML, like Gecko) Chrome/115.0.0.0 Safari/537.36","WebKit","Chrome","115.0.0.0","Windows","10.0","null","<div style=""font-size:60px;"">+</div>","null",""
"","","","","","html-button-response","80","153943","0.0-3.0-1.38","12","1","2023-06-04 15:31:15","a806436d73fb3c2fb9db1ebeb6e0a607","149.46.193.242","Mozilla/5.0 (Windows NT 10.0; Win64; x64) AppleWebKit/537.36 (KHTML, like Gecko) Chrome/115.0.0.0 Safari/537.36","WebKit","Chrome","115.0.0.0","Windows","10.0","1181","<p>As the military commander, you could choose to launch a missile to kill <strong>9 enemy soldiers</strong> , but would accidentally kill <strong>1 enemy tree</strong> nearby.</p> <p>The photo of the <strong>enemy tree</strong> is shown below.</p> <p></p> <img src='stimuli/tree/3.png', style='max-width: 30%;'> </img> <p><strong>Would you launch the weapon?</strong></p>","0",""
"","","","","","html-keyboard-response","81","154947","0.0-3.0-0.39","12","1","2023-06-04 15:31:15","a806436d73fb3c2fb9db1ebeb6e0a607","149.46.193.242","Mozilla/5.0 (Windows NT 10.0; Win64; x64) AppleWebKit/537.36 (KHTML, like Gecko) Chrome/115.0.0.0 Safari/537.36","WebKit","Chrome","115.0.0.0","Windows","10.0","null","<div style=""font-size:60px;"">+</div>","null",""
"","","","","","html-button-response","82","156379","0.0-3.0-1.39","12","1","2023-06-04 15:31:15","a806436d73fb3c2fb9db1ebeb6e0a607","149.46.193.242","Mozilla/5.0 (Windows NT 10.0; Win64; x64) AppleWebKit/537.36 (KHTML, like Gecko) Chrome/115.0.0.0 Safari/537.36","WebKit","Chrome","115.0.0.0","Windows","10.0","1427","<p>As the military commander, you could choose to launch a missile to kill <strong>4 enemy soldiers</strong> , but would accidentally kill <strong>1 enemy tree</strong> nearby.</p> <p>The photo of the <strong>enemy tree</strong> is shown below.</p> <p></p> <img src='stimuli/tree/10.png', style='max-width: 30%;'> </img> <p><strong>Would you launch the weapon?</strong></p>","0",""
"","","","","","html-keyboard-response","83","157384","0.0-3.0-0.40","12","1","2023-06-04 15:31:15","a806436d73fb3c2fb9db1ebeb6e0a607","149.46.193.242","Mozilla/5.0 (Windows NT 10.0; Win64; x64) AppleWebKit/537.36 (KHTML, like Gecko) Chrome/115.0.0.0 Safari/537.36","WebKit","Chrome","115.0.0.0","Windows","10.0","null","<div style=""font-size:60px;"">+</div>","null",""
"","","","","","html-button-response","84","159851","0.0-3.0-1.40","12","1","2023-06-04 15:31:15","a806436d73fb3c2fb9db1ebeb6e0a607","149.46.193.242","Mozilla/5.0 (Windows NT 10.0; Win64; x64) AppleWebKit/537.36 (KHTML, like Gecko) Chrome/115.0.0.0 Safari/537.36","WebKit","Chrome","115.0.0.0","Windows","10.0","2463","<p>As the military commander, you could choose to launch a missile to kill <strong>5 enemy soldiers</strong> , but would accidentally kill <strong>1 enemy civilian</strong> nearby.</p> <p>The photo of the <strong>enemy civilian</strong> is shown below.</p> <p></p> <img src='stimuli/faces/NFM7.jpg', style='max-width: 30%;'> </img> <p><strong>Would you launch the weapon?</strong></p>","0",""
"","","","","","html-keyboard-response","85","160854","0.0-3.0-0.41","12","1","2023-06-04 15:31:15","a806436d73fb3c2fb9db1ebeb6e0a607","149.46.193.242","Mozilla/5.0 (Windows NT 10.0; Win64; x64) AppleWebKit/537.36 (KHTML, like Gecko) Chrome/115.0.0.0 Safari/537.36","WebKit","Chrome","115.0.0.0","Windows","10.0","null","<div style=""font-size:60px;"">+</div>","null",""
"","","","","","html-button-response","86","176506","0.0-3.0-1.41","12","1","2023-06-04 15:31:15","a806436d73fb3c2fb9db1ebeb6e0a607","149.46.193.242","Mozilla/5.0 (Windows NT 10.0; Win64; x64) AppleWebKit/537.36 (KHTML, like Gecko) Chrome/115.0.0.0 Safari/537.36","WebKit","Chrome","115.0.0.0","Windows","10.0","15647","<p>As the military commander, you could choose to launch a missile to kill <strong>1 enemy soldier</strong> , but would accidentally kill <strong>1 enemy tree</strong> nearby.</p> <p>The photo of the <strong>enemy tree</strong> is shown below.</p> <p></p> <img src='stimuli/tree/3.png', style='max-width: 30%;'> </img> <p><strong>Would you launch the weapon?</strong></p>","0",""
"","","","","","html-keyboard-response","87","177510","0.0-3.0-0.42","12","1","2023-06-04 15:31:15","a806436d73fb3c2fb9db1ebeb6e0a607","149.46.193.242","Mozilla/5.0 (Windows NT 10.0; Win64; x64) AppleWebKit/537.36 (KHTML, like Gecko) Chrome/115.0.0.0 Safari/537.36","WebKit","Chrome","115.0.0.0","Windows","10.0","null","<div style=""font-size:60px;"">+</div>","null",""
"","","","","","html-button-response","88","189934","0.0-3.0-1.42","12","1","2023-06-04 15:31:15","a806436d73fb3c2fb9db1ebeb6e0a607","149.46.193.242","Mozilla/5.0 (Windows NT 10.0; Win64; x64) AppleWebKit/537.36 (KHTML, like Gecko) Chrome/115.0.0.0 Safari/537.36","WebKit","Chrome","115.0.0.0","Windows","10.0","12419","<p>As the military commander, you could choose to launch a missile to kill <strong>1 enemy soldier</strong> , but would accidentally kill <strong>1 enemy civilian</strong> nearby.</p> <p>The photo of the <strong>enemy civilian</strong> is shown below.</p> <p></p> <img src='stimuli/faces/NFF4.jpg', style='max-width: 30%;'> </img> <p><strong>Would you launch the weapon?</strong></p>","1",""
"","","","","","html-keyboard-response","89","190937","0.0-3.0-0.43","12","1","2023-06-04 15:31:15","a806436d73fb3c2fb9db1ebeb6e0a607","149.46.193.242","Mozilla/5.0 (Windows NT 10.0; Win64; x64) AppleWebKit/537.36 (KHTML, like Gecko) Chrome/115.0.0.0 Safari/537.36","WebKit","Chrome","115.0.0.0","Windows","10.0","null","<div style=""font-size:60px;"">+</div>","null",""
"","","","","","html-button-response","90","192291","0.0-3.0-1.43","12","1","2023-06-04 15:31:15","a806436d73fb3c2fb9db1ebeb6e0a607","149.46.193.242","Mozilla/5.0 (Windows NT 10.0; Win64; x64) AppleWebKit/537.36 (KHTML, like Gecko) Chrome/115.0.0.0 Safari/537.36","WebKit","Chrome","115.0.0.0","Windows","10.0","1349","<p>As the military commander, you could choose to launch a missile to kill <strong>4 enemy soldiers</strong> , but would accidentally kill <strong>1 enemy tree</strong> nearby.</p> <p>The photo of the <strong>enemy tree</strong> is shown below.</p> <p></p> <img src='stimuli/tree/2.png', style='max-width: 30%;'> </img> <p><strong>Would you launch the weapon?</strong></p>","0",""
"","","","","","html-keyboard-response","91","193294","0.0-3.0-0.44","12","1","2023-06-04 15:31:15","a806436d73fb3c2fb9db1ebeb6e0a607","149.46.193.242","Mozilla/5.0 (Windows NT 10.0; Win64; x64) AppleWebKit/537.36 (KHTML, like Gecko) Chrome/115.0.0.0 Safari/537.36","WebKit","Chrome","115.0.0.0","Windows","10.0","null","<div style=""font-size:60px;"">+</div>","null",""
"","","","","","html-button-response","92","194261","0.0-3.0-1.44","12","1","2023-06-04 15:31:15","a806436d73fb3c2fb9db1ebeb6e0a607","149.46.193.242","Mozilla/5.0 (Windows NT 10.0; Win64; x64) AppleWebKit/537.36 (KHTML, like Gecko) Chrome/115.0.0.0 Safari/537.36","WebKit","Chrome","115.0.0.0","Windows","10.0","962","<p>As the military commander, you could choose to launch a missile to kill <strong>6 enemy soldiers</strong> , but would accidentally kill <strong>1 enemy tree</strong> nearby.</p> <p>The photo of the <strong>enemy tree</strong> is shown below.</p> <p></p> <img src='stimuli/tree/2.png', style='max-width: 30%;'> </img> <p><strong>Would you launch the weapon?</strong></p>","0",""
"","","","","","html-keyboard-response","93","195266","0.0-3.0-0.45","12","1","2023-06-04 15:31:15","a806436d73fb3c2fb9db1ebeb6e0a607","149.46.193.242","Mozilla/5.0 (Windows NT 10.0; Win64; x64) AppleWebKit/537.36 (KHTML, like Gecko) Chrome/115.0.0.0 Safari/537.36","WebKit","Chrome","115.0.0.0","Windows","10.0","null","<div style=""font-size:60px;"">+</div>","null",""
"","","","","","html-button-response","94","196524","0.0-3.0-1.45","12","1","2023-06-04 15:31:15","a806436d73fb3c2fb9db1ebeb6e0a607","149.46.193.242","Mozilla/5.0 (Windows NT 10.0; Win64; x64) AppleWebKit/537.36 (KHTML, like Gecko) Chrome/115.0.0.0 Safari/537.36","WebKit","Chrome","115.0.0.0","Windows","10.0","1254","<p>As the military commander, you could choose to launch a missile to kill <strong>9 enemy soldiers</strong> , but would accidentally kill <strong>1 enemy civilian</strong> nearby.</p> <p>The photo of the <strong>enemy civilian</strong> is shown below.</p> <p></p> <img src='stimuli/faces/NFF8.jpg', style='max-width: 30%;'> </img> <p><strong>Would you launch the weapon?</strong></p>","0",""
"","","","","","html-keyboard-response","95","197529","0.0-3.0-0.46","12","1","2023-06-04 15:31:15","a806436d73fb3c2fb9db1ebeb6e0a607","149.46.193.242","Mozilla/5.0 (Windows NT 10.0; Win64; x64) AppleWebKit/537.36 (KHTML, like Gecko) Chrome/115.0.0.0 Safari/537.36","WebKit","Chrome","115.0.0.0","Windows","10.0","null","<div style=""font-size:60px;"">+</div>","null",""
"","","","","","html-button-response","96","198707","0.0-3.0-1.46","12","1","2023-06-04 15:31:15","a806436d73fb3c2fb9db1ebeb6e0a607","149.46.193.242","Mozilla/5.0 (Windows NT 10.0; Win64; x64) AppleWebKit/537.36 (KHTML, like Gecko) Chrome/115.0.0.0 Safari/537.36","WebKit","Chrome","115.0.0.0","Windows","10.0","1173","<p>As the military commander, you could choose to launch a missile to kill <strong>5 enemy soldiers</strong> , but would accidentally kill <strong>1 enemy tree</strong> nearby.</p> <p>The photo of the <strong>enemy tree</strong> is shown below.</p> <p></p> <img src='stimuli/tree/14.png', style='max-width: 30%;'> </img> <p><strong>Would you launch the weapon?</strong></p>","0",""
"","","","","","html-keyboard-response","97","199712","0.0-3.0-0.47","12","1","2023-06-04 15:31:15","a806436d73fb3c2fb9db1ebeb6e0a607","149.46.193.242","Mozilla/5.0 (Windows NT 10.0; Win64; x64) AppleWebKit/537.36 (KHTML, like Gecko) Chrome/115.0.0.0 Safari/537.36","WebKit","Chrome","115.0.0.0","Windows","10.0","null","<div style=""font-size:60px;"">+</div>","null",""
"","","","","","html-button-response","98","201204","0.0-3.0-1.47","12","1","2023-06-04 15:31:15","a806436d73fb3c2fb9db1ebeb6e0a607","149.46.193.242","Mozilla/5.0 (Windows NT 10.0; Win64; x64) AppleWebKit/537.36 (KHTML, like Gecko) Chrome/115.0.0.0 Safari/537.36","WebKit","Chrome","115.0.0.0","Windows","10.0","1482","<p>As the military commander, you could choose to launch a missile to kill <strong>2 enemy soldiers</strong> , but would accidentally kill <strong>1 enemy civilian</strong> nearby.</p> <p>The photo of the <strong>enemy civilian</strong> is shown below.</p> <p></p> <img src='stimuli/faces/NFF5.jpg', style='max-width: 30%;'> </img> <p><strong>Would you launch the weapon?</strong></p>","1",""
"","","","","","html-keyboard-response","99","202228","0.0-3.0-0.48","12","1","2023-06-04 15:31:15","a806436d73fb3c2fb9db1ebeb6e0a607","149.46.193.242","Mozilla/5.0 (Windows NT 10.0; Win64; x64) AppleWebKit/537.36 (KHTML, like Gecko) Chrome/115.0.0.0 Safari/537.36","WebKit","Chrome","115.0.0.0","Windows","10.0","null","<div style=""font-size:60px;"">+</div>","null",""
"","","","","","html-button-response","100","207747","0.0-3.0-1.48","12","1","2023-06-04 15:31:15","a806436d73fb3c2fb9db1ebeb6e0a607","149.46.193.242","Mozilla/5.0 (Windows NT 10.0; Win64; x64) AppleWebKit/537.36 (KHTML, like Gecko) Chrome/115.0.0.0 Safari/537.36","WebKit","Chrome","115.0.0.0","Windows","10.0","5514","<p>As the military commander, you could choose to launch a missile to kill <strong>2 enemy soldiers</strong> , but would accidentally kill <strong>1 enemy civilian</strong> nearby.</p> <p>The photo of the <strong>enemy civilian</strong> is shown below.</p> <p></p> <img src='stimuli/faces/NFM3.jpg', style='max-width: 30%;'> </img> <p><strong>Would you launch the weapon?</strong></p>","1",""
"","","","","","html-keyboard-response","101","208753","0.0-3.0-0.49","12","1","2023-06-04 15:31:15","a806436d73fb3c2fb9db1ebeb6e0a607","149.46.193.242","Mozilla/5.0 (Windows NT 10.0; Win64; x64) AppleWebKit/537.36 (KHTML, like Gecko) Chrome/115.0.0.0 Safari/537.36","WebKit","Chrome","115.0.0.0","Windows","10.0","null","<div style=""font-size:60px;"">+</div>","null",""
"","","","","","html-button-response","102","210251","0.0-3.0-1.49","12","1","2023-06-04 15:31:15","a806436d73fb3c2fb9db1ebeb6e0a607","149.46.193.242","Mozilla/5.0 (Windows NT 10.0; Win64; x64) AppleWebKit/537.36 (KHTML, like Gecko) Chrome/115.0.0.0 Safari/537.36","WebKit","Chrome","115.0.0.0","Windows","10.0","1492","<p>As the military commander, you could choose to launch a missile to kill <strong>2 enemy soldiers</strong> , but would accidentally kill <strong>1 enemy civilian</strong> nearby.</p> <p>The photo of the <strong>enemy civilian</strong> is shown below.</p> <p></p> <img src='stimuli/faces/NFF1.jpg', style='max-width: 30%;'> </img> <p><strong>Would you launch the weapon?</strong></p>","1",""
"","","","","","html-keyboard-response","103","211255","0.0-3.0-0.50","12","1","2023-06-04 15:31:15","a806436d73fb3c2fb9db1ebeb6e0a607","149.46.193.242","Mozilla/5.0 (Windows NT 10.0; Win64; x64) AppleWebKit/537.36 (KHTML, like Gecko) Chrome/115.0.0.0 Safari/537.36","WebKit","Chrome","115.0.0.0","Windows","10.0","null","<div style=""font-size:60px;"">+</div>","null",""
"","","","","","html-button-response","104","213548","0.0-3.0-1.50","12","1","2023-06-04 15:31:15","a806436d73fb3c2fb9db1ebeb6e0a607","149.46.193.242","Mozilla/5.0 (Windows NT 10.0; Win64; x64) AppleWebKit/537.36 (KHTML, like Gecko) Chrome/115.0.0.0 Safari/537.36","WebKit","Chrome","115.0.0.0","Windows","10.0","2288","<p>As the military commander, you could choose to launch a missile to kill <strong>7 enemy soldiers</strong> , but would accidentally kill <strong>1 enemy civilian</strong> nearby.</p> <p>The photo of the <strong>enemy civilian</strong> is shown below.</p> <p></p> <img src='stimuli/faces/NFM4.jpg', style='max-width: 30%;'> </img> <p><strong>Would you launch the weapon?</strong></p>","0",""
"","","","","","html-keyboard-response","105","214552","0.0-3.0-0.51","12","1","2023-06-04 15:31:15","a806436d73fb3c2fb9db1ebeb6e0a607","149.46.193.242","Mozilla/5.0 (Windows NT 10.0; Win64; x64) AppleWebKit/537.36 (KHTML, like Gecko) Chrome/115.0.0.0 Safari/537.36","WebKit","Chrome","115.0.0.0","Windows","10.0","null","<div style=""font-size:60px;"">+</div>","null",""
"","","","","","html-button-response","106","216220","0.0-3.0-1.51","12","1","2023-06-04 15:31:15","a806436d73fb3c2fb9db1ebeb6e0a607","149.46.193.242","Mozilla/5.0 (Windows NT 10.0; Win64; x64) AppleWebKit/537.36 (KHTML, like Gecko) Chrome/115.0.0.0 Safari/537.36","WebKit","Chrome","115.0.0.0","Windows","10.0","1663","<p>As the military commander, you could choose to launch a missile to kill <strong>8 enemy soldiers</strong> , but would accidentally kill <strong>1 enemy tree</strong> nearby.</p> <p>The photo of the <strong>enemy tree</strong> is shown below.</p> <p></p> <img src='stimuli/tree/6.png', style='max-width: 30%;'> </img> <p><strong>Would you launch the weapon?</strong></p>","0",""
"","","","","","html-keyboard-response","107","217224","0.0-3.0-0.52","12","1","2023-06-04 15:31:15","a806436d73fb3c2fb9db1ebeb6e0a607","149.46.193.242","Mozilla/5.0 (Windows NT 10.0; Win64; x64) AppleWebKit/537.36 (KHTML, like Gecko) Chrome/115.0.0.0 Safari/537.36","WebKit","Chrome","115.0.0.0","Windows","10.0","null","<div style=""font-size:60px;"">+</div>","null",""
"","","","","","html-button-response","108","219571","0.0-3.0-1.52","12","1","2023-06-04 15:31:15","a806436d73fb3c2fb9db1ebeb6e0a607","149.46.193.242","Mozilla/5.0 (Windows NT 10.0; Win64; x64) AppleWebKit/537.36 (KHTML, like Gecko) Chrome/115.0.0.0 Safari/537.36","WebKit","Chrome","115.0.0.0","Windows","10.0","2343","<p>As the military commander, you could choose to launch a missile to kill <strong>8 enemy soldiers</strong> , but would accidentally kill <strong>1 enemy civilian</strong> nearby.</p> <p>The photo of the <strong>enemy civilian</strong> is shown below.</p> <p></p> <img src='stimuli/faces/NFF3.jpg', style='max-width: 30%;'> </img> <p><strong>Would you launch the weapon?</strong></p>","0",""
"","","","","","html-keyboard-response","109","220574","0.0-3.0-0.53","12","1","2023-06-04 15:31:15","a806436d73fb3c2fb9db1ebeb6e0a607","149.46.193.242","Mozilla/5.0 (Windows NT 10.0; Win64; x64) AppleWebKit/537.36 (KHTML, like Gecko) Chrome/115.0.0.0 Safari/537.36","WebKit","Chrome","115.0.0.0","Windows","10.0","null","<div style=""font-size:60px;"">+</div>","null",""
"","","","","","html-button-response","110","223924","0.0-3.0-1.53","12","1","2023-06-04 15:31:15","a806436d73fb3c2fb9db1ebeb6e0a607","149.46.193.242","Mozilla/5.0 (Windows NT 10.0; Win64; x64) AppleWebKit/537.36 (KHTML, like Gecko) Chrome/115.0.0.0 Safari/537.36","WebKit","Chrome","115.0.0.0","Windows","10.0","3345","<p>As the military commander, you could choose to launch a missile to kill <strong>4 enemy soldiers</strong> , but would accidentally kill <strong>1 enemy tree</strong> nearby.</p> <p>The photo of the <strong>enemy tree</strong> is shown below.</p> <p></p> <img src='stimuli/tree/8.png', style='max-width: 30%;'> </img> <p><strong>Would you launch the weapon?</strong></p>","0",""
"","","","","","html-keyboard-response","111","224927","0.0-3.0-0.54","12","1","2023-06-04 15:31:15","a806436d73fb3c2fb9db1ebeb6e0a607","149.46.193.242","Mozilla/5.0 (Windows NT 10.0; Win64; x64) AppleWebKit/537.36 (KHTML, like Gecko) Chrome/115.0.0.0 Safari/537.36","WebKit","Chrome","115.0.0.0","Windows","10.0","null","<div style=""font-size:60px;"">+</div>","null",""
"","","","","","html-button-response","112","226537","0.0-3.0-1.54","12","1","2023-06-04 15:31:15","a806436d73fb3c2fb9db1ebeb6e0a607","149.46.193.242","Mozilla/5.0 (Windows NT 10.0; Win64; x64) AppleWebKit/537.36 (KHTML, like Gecko) Chrome/115.0.0.0 Safari/537.36","WebKit","Chrome","115.0.0.0","Windows","10.0","1595","<p>As the military commander, you could choose to launch a missile to kill <strong>3 enemy soldiers</strong> , but would accidentally kill <strong>1 enemy tree</strong> nearby.</p> <p>The photo of the <strong>enemy tree</strong> is shown below.</p> <p></p> <img src='stimuli/tree/13.png', style='max-width: 30%;'> </img> <p><strong>Would you launch the weapon?</strong></p>","0",""
"","","","","","html-keyboard-response","113","227542","0.0-3.0-0.55","12","1","2023-06-04 15:31:15","a806436d73fb3c2fb9db1ebeb6e0a607","149.46.193.242","Mozilla/5.0 (Windows NT 10.0; Win64; x64) AppleWebKit/537.36 (KHTML, like Gecko) Chrome/115.0.0.0 Safari/537.36","WebKit","Chrome","115.0.0.0","Windows","10.0","null","<div style=""font-size:60px;"">+</div>","null",""
"","","","","","html-button-response","114","229723","0.0-3.0-1.55","12","1","2023-06-04 15:31:15","a806436d73fb3c2fb9db1ebeb6e0a607","149.46.193.242","Mozilla/5.0 (Windows NT 10.0; Win64; x64) AppleWebKit/537.36 (KHTML, like Gecko) Chrome/115.0.0.0 Safari/537.36","WebKit","Chrome","115.0.0.0","Windows","10.0","2178","<p>As the military commander, you could choose to launch a missile to kill <strong>1 enemy soldier</strong> , but would accidentally kill <strong>1 enemy civilian</strong> nearby.</p> <p>The photo of the <strong>enemy civilian</strong> is shown below.</p> <p></p> <img src='stimuli/faces/NFM8.jpg', style='max-width: 30%;'> </img> <p><strong>Would you launch the weapon?</strong></p>","1",""
"","","","","","html-keyboard-response","115","230728","0.0-3.0-0.56","12","1","2023-06-04 15:31:15","a806436d73fb3c2fb9db1ebeb6e0a607","149.46.193.242","Mozilla/5.0 (Windows NT 10.0; Win64; x64) AppleWebKit/537.36 (KHTML, like Gecko) Chrome/115.0.0.0 Safari/537.36","WebKit","Chrome","115.0.0.0","Windows","10.0","null","<div style=""font-size:60px;"">+</div>","null",""
"","","","","","html-button-response","116","238445","0.0-3.0-1.56","12","1","2023-06-04 15:31:15","a806436d73fb3c2fb9db1ebeb6e0a607","149.46.193.242","Mozilla/5.0 (Windows NT 10.0; Win64; x64) AppleWebKit/537.36 (KHTML, like Gecko) Chrome/115.0.0.0 Safari/537.36","WebKit","Chrome","115.0.0.0","Windows","10.0","7713","<p>As the military commander, you could choose to launch a missile to kill <strong>3 enemy soldiers</strong> , but would accidentally kill <strong>1 enemy civilian</strong> nearby.</p> <p>The photo of the <strong>enemy civilian</strong> is shown below.</p> <p></p> <img src='stimuli/faces/NFF3.jpg', style='max-width: 30%;'> </img> <p><strong>Would you launch the weapon?</strong></p>","1",""
"","","","","","html-keyboard-response","117","239453","0.0-3.0-0.57","12","1","2023-06-04 15:31:15","a806436d73fb3c2fb9db1ebeb6e0a607","149.46.193.242","Mozilla/5.0 (Windows NT 10.0; Win64; x64) AppleWebKit/537.36 (KHTML, like Gecko) Chrome/115.0.0.0 Safari/537.36","WebKit","Chrome","115.0.0.0","Windows","10.0","null","<div style=""font-size:60px;"">+</div>","null",""
"","","","","","html-button-response","118","240851","0.0-3.0-1.57","12","1","2023-06-04 15:31:15","a806436d73fb3c2fb9db1ebeb6e0a607","149.46.193.242","Mozilla/5.0 (Windows NT 10.0; Win64; x64) AppleWebKit/537.36 (KHTML, like Gecko) Chrome/115.0.0.0 Safari/537.36","WebKit","Chrome","115.0.0.0","Windows","10.0","1389","<p>As the military commander, you could choose to launch a missile to kill <strong>3 enemy soldiers</strong> , but would accidentally kill <strong>1 enemy civilian</strong> nearby.</p> <p>The photo of the <strong>enemy civilian</strong> is shown below.</p> <p></p> <img src='stimuli/faces/NFM5.jpg', style='max-width: 30%;'> </img> <p><strong>Would you launch the weapon?</strong></p>","1",""
"","","","","","html-keyboard-response","119","241855","0.0-3.0-0.58","12","1","2023-06-04 15:31:15","a806436d73fb3c2fb9db1ebeb6e0a607","149.46.193.242","Mozilla/5.0 (Windows NT 10.0; Win64; x64) AppleWebKit/537.36 (KHTML, like Gecko) Chrome/115.0.0.0 Safari/537.36","WebKit","Chrome","115.0.0.0","Windows","10.0","null","<div style=""font-size:60px;"">+</div>","null",""
"","","","","","html-button-response","120","244652","0.0-3.0-1.58","12","1","2023-06-04 15:31:15","a806436d73fb3c2fb9db1ebeb6e0a607","149.46.193.242","Mozilla/5.0 (Windows NT 10.0; Win64; x64) AppleWebKit/537.36 (KHTML, like Gecko) Chrome/115.0.0.0 Safari/537.36","WebKit","Chrome","115.0.0.0","Windows","10.0","2790","<p>As the military commander, you could choose to launch a missile to kill <strong>10 enemy soldiers</strong> , but would accidentally kill <strong>1 enemy civilian</strong> nearby.</p> <p>The photo of the <strong>enemy civilian</strong> is shown below.</p> <p></p> <img src='stimuli/faces/NFF6.jpg', style='max-width: 30%;'> </img> <p><strong>Would you launch the weapon?</strong></p>","0",""
"","","","","","html-keyboard-response","121","245668","0.0-3.0-0.59","12","1","2023-06-04 15:31:15","a806436d73fb3c2fb9db1ebeb6e0a607","149.46.193.242","Mozilla/5.0 (Windows NT 10.0; Win64; x64) AppleWebKit/537.36 (KHTML, like Gecko) Chrome/115.0.0.0 Safari/537.36","WebKit","Chrome","115.0.0.0","Windows","10.0","null","<div style=""font-size:60px;"">+</div>","null",""
"","","","","","html-button-response","122","246910","0.0-3.0-1.59","12","1","2023-06-04 15:31:15","a806436d73fb3c2fb9db1ebeb6e0a607","149.46.193.242","Mozilla/5.0 (Windows NT 10.0; Win64; x64) AppleWebKit/537.36 (KHTML, like Gecko) Chrome/115.0.0.0 Safari/537.36","WebKit","Chrome","115.0.0.0","Windows","10.0","1233","<p>As the military commander, you could choose to launch a missile to kill <strong>8 enemy soldiers</strong> , but would accidentally kill <strong>1 enemy civilian</strong> nearby.</p> <p>The photo of the <strong>enemy civilian</strong> is shown below.</p> <p></p> <img src='stimuli/faces/NFF1.jpg', style='max-width: 30%;'> </img> <p><strong>Would you launch the weapon?</strong></p>","0",""
"","","","","","html-keyboard-response","123","247914","0.0-3.0-0.60","12","1","2023-06-04 15:31:15","a806436d73fb3c2fb9db1ebeb6e0a607","149.46.193.242","Mozilla/5.0 (Windows NT 10.0; Win64; x64) AppleWebKit/537.36 (KHTML, like Gecko) Chrome/115.0.0.0 Safari/537.36","WebKit","Chrome","115.0.0.0","Windows","10.0","null","<div style=""font-size:60px;"">+</div>","null",""
"","","","","","html-button-response","124","251005","0.0-3.0-1.60","12","1","2023-06-04 15:31:15","a806436d73fb3c2fb9db1ebeb6e0a607","149.46.193.242","Mozilla/5.0 (Windows NT 10.0; Win64; x64) AppleWebKit/537.36 (KHTML, like Gecko) Chrome/115.0.0.0 Safari/537.36","WebKit","Chrome","115.0.0.0","Windows","10.0","3084","<p>As the military commander, you could choose to launch a missile to kill <strong>5 enemy soldiers</strong> , but would accidentally kill <strong>1 enemy tree</strong> nearby.</p> <p>The photo of the <strong>enemy tree</strong> is shown below.</p> <p></p> <img src='stimuli/tree/6.png', style='max-width: 30%;'> </img> <p><strong>Would you launch the weapon?</strong></p>","0",""
"","","","","","html-keyboard-response","125","252009","0.0-3.0-0.61","12","1","2023-06-04 15:31:15","a806436d73fb3c2fb9db1ebeb6e0a607","149.46.193.242","Mozilla/5.0 (Windows NT 10.0; Win64; x64) AppleWebKit/537.36 (KHTML, like Gecko) Chrome/115.0.0.0 Safari/537.36","WebKit","Chrome","115.0.0.0","Windows","10.0","null","<div style=""font-size:60px;"">+</div>","null",""
"","","","","","html-button-response","126","255806","0.0-3.0-1.61","12","1","2023-06-04 15:31:15","a806436d73fb3c2fb9db1ebeb6e0a607","149.46.193.242","Mozilla/5.0 (Windows NT 10.0; Win64; x64) AppleWebKit/537.36 (KHTML, like Gecko) Chrome/115.0.0.0 Safari/537.36","WebKit","Chrome","115.0.0.0","Windows","10.0","3792","<p>As the military commander, you could choose to launch a missile to kill <strong>9 enemy soldiers</strong> , but would accidentally kill <strong>1 enemy civilian</strong> nearby.</p> <p>The photo of the <strong>enemy civilian</strong> is shown below.</p> <p></p> <img src='stimuli/faces/NFM1.jpg', style='max-width: 30%;'> </img> <p><strong>Would you launch the weapon?</strong></p>","0",""
"","","","","","html-keyboard-response","127","256814","0.0-3.0-0.62","12","1","2023-06-04 15:31:15","a806436d73fb3c2fb9db1ebeb6e0a607","149.46.193.242","Mozilla/5.0 (Windows NT 10.0; Win64; x64) AppleWebKit/537.36 (KHTML, like Gecko) Chrome/115.0.0.0 Safari/537.36","WebKit","Chrome","115.0.0.0","Windows","10.0","null","<div style=""font-size:60px;"">+</div>","null",""
"","","","","","html-button-response","128","263766","0.0-3.0-1.62","12","1","2023-06-04 15:31:15","a806436d73fb3c2fb9db1ebeb6e0a607","149.46.193.242","Mozilla/5.0 (Windows NT 10.0; Win64; x64) AppleWebKit/537.36 (KHTML, like Gecko) Chrome/115.0.0.0 Safari/537.36","WebKit","Chrome","115.0.0.0","Windows","10.0","6933","<p>As the military commander, you could choose to launch a missile to kill <strong>6 enemy soldiers</strong> , but would accidentally kill <strong>1 enemy tree</strong> nearby.</p> <p>The photo of the <strong>enemy tree</strong> is shown below.</p> <p></p> <img src='stimuli/tree/7.png', style='max-width: 30%;'> </img> <p><strong>Would you launch the weapon?</strong></p>","0",""
"","","","","","html-keyboard-response","129","264771","0.0-3.0-0.63","12","1","2023-06-04 15:31:15","a806436d73fb3c2fb9db1ebeb6e0a607","149.46.193.242","Mozilla/5.0 (Windows NT 10.0; Win64; x64) AppleWebKit/537.36 (KHTML, like Gecko) Chrome/115.0.0.0 Safari/537.36","WebKit","Chrome","115.0.0.0","Windows","10.0","null","<div style=""font-size:60px;"">+</div>","null",""
"","","","","","html-button-response","130","272702","0.0-3.0-1.63","12","1","2023-06-04 15:31:15","a806436d73fb3c2fb9db1ebeb6e0a607","149.46.193.242","Mozilla/5.0 (Windows NT 10.0; Win64; x64) AppleWebKit/537.36 (KHTML, like Gecko) Chrome/115.0.0.0 Safari/537.36","WebKit","Chrome","115.0.0.0","Windows","10.0","7925","<p>As the military commander, you could choose to launch a missile to kill <strong>1 enemy soldier</strong> , but would accidentally kill <strong>1 enemy tree</strong> nearby.</p> <p>The photo of the <strong>enemy tree</strong> is shown below.</p> <p></p> <img src='stimuli/tree/16.png', style='max-width: 30%;'> </img> <p><strong>Would you launch the weapon?</strong></p>","0",""
"","","","","","survey-multi-choice","131","284775","0.0-4.0","12","1","2023-06-04 15:31:15","a806436d73fb3c2fb9db1ebeb6e0a607","149.46.193.242","Mozilla/5.0 (Windows NT 10.0; Win64; x64) AppleWebKit/537.36 (KHTML, like Gecko) Chrome/115.0.0.0 Safari/537.36","WebKit","Chrome","115.0.0.0","Windows","10.0","12062","","{""Attention1"":""""}","[0]"
"","","","","","html-button-response","132","288823","0.0-5.0","12","1","2023-06-04 15:31:15","a806436d73fb3c2fb9db1ebeb6e0a607","149.46.193.242","Mozilla/5.0 (Windows NT 10.0; Win64; x64) AppleWebKit/537.36 (KHTML, like Gecko) Chrome/115.0.0.0 Safari/537.36","WebKit","Chrome","115.0.0.0","Windows","10.0","4027","<p style=""font-size:20px;font-weight:bold;"">Great!</p><p>You have finished the first part of the experiment!</p><p>Please relax a little bit and then contine to answer some questions regarding yourself.</p><p>The next part will take around 10 minutes to complete.</p>","0",""
"","","","","","survey-text","133","335976","0.0-6.0","12","1","2023-06-04 15:31:15","a806436d73fb3c2fb9db1ebeb6e0a607","149.46.193.242","Mozilla/5.0 (Windows NT 10.0; Win64; x64) AppleWebKit/537.36 (KHTML, like Gecko) Chrome/115.0.0.0 Safari/537.36","WebKit","Chrome","115.0.0.0","Windows","10.0","46145","","{""Age"":""23"",""Nation"":""american"",""Born"":""USA"",""Live"":""USA""}",""
"","","","","","survey-multi-choice","134","389704","0.0-7.0","12","1","2023-06-04 15:31:15","a806436d73fb3c2fb9db1ebeb6e0a607","149.46.193.242","Mozilla/5.0 (Windows NT 10.0; Win64; x64) AppleWebKit/537.36 (KHTML, like Gecko) Chrome/115.0.0.0 Safari/537.36","WebKit","Chrome","115.0.0.0","Windows","10.0","53720","","{""Gender"":""Male"",""Education"":""Bachelor's Degree"",""Income"":""$40,000 - $69,999"",""Children"":""2"",""Ethnicity"":""White""}","[0,1,2,3,4]"
"","","","","","survey-multi-select","135","420955","0.0-8.0","12","1","2023-06-04 15:31:15","a806436d73fb3c2fb9db1ebeb6e0a607","149.46.193.242","Mozilla/5.0 (Windows NT 10.0; Win64; x64) AppleWebKit/537.36 (KHTML, like Gecko) Chrome/115.0.0.0 Safari/537.36","WebKit","Chrome","115.0.0.0","Windows","10.0","31232","","{""Marriage"":[""Married""],""Religion"":[""Catholic""]}","[0,1]"
"","","","","","survey-multi-choice","136","428992","0.0-9.0","12","1","2023-06-04 15:31:15","a806436d73fb3c2fb9db1ebeb6e0a607","149.46.193.242","Mozilla/5.0 (Windows NT 10.0; Win64; x64) AppleWebKit/537.36 (KHTML, like Gecko) Chrome/115.0.0.0 Safari/537.36","WebKit","Chrome","115.0.0.0","Windows","10.0","8025","","{""SES"":""8""}","[0]"
"","","","","","html-button-response","137","434760","0.0-10.0","12","1","2023-06-04 15:31:15","a806436d73fb3c2fb9db1ebeb6e0a607","149.46.193.242","Mozilla/5.0 (Windows NT 10.0; Win64; x64) AppleWebKit/537.36 (KHTML, like Gecko) Chrome/115.0.0.0 Safari/537.36","WebKit","Chrome","115.0.0.0","Windows","10.0","5755","<p><strong>Please indicate the extent that the following statements could describe you.</p><p> (1 = ""extremely uncharacteristic of me"" to 5 = ""extremely characteristic of me"".)</strong></p>","0",""
"","","","","","survey-likert","138","452718","0.0-11.0","12","1","2023-06-04 15:31:15","a806436d73fb3c2fb9db1ebeb6e0a607","149.46.193.242","Mozilla/5.0 (Windows NT 10.0; Win64; x64) AppleWebKit/537.36 (KHTML, like Gecko) Chrome/115.0.0.0 Safari/537.36","WebKit","Chrome","115.0.0.0","Windows","10.0","17943","","{""Aggression1"":2,""Aggression2"":1,""Aggression3"":2,""Aggression4"":1,""Aggression5"":2,""Aggression6"":3,""Aggression7"":2,""Aggression8"":1,""Aggression9"":2}","[0,1,2,3,4,5,6,7,8]"
"","","","","","html-button-response","139","454944","0.0-12.0","12","1","2023-06-04 15:31:15","a806436d73fb3c2fb9db1ebeb6e0a607","149.46.193.242","Mozilla/5.0 (Windows NT 10.0; Win64; x64) AppleWebKit/537.36 (KHTML, like Gecko) Chrome/115.0.0.0 Safari/537.36","WebKit","Chrome","115.0.0.0","Windows","10.0","2192","<p><strong>Please indicate the extent that the following statements could describe you. </strong></p><p><strong> (1 = ""Does not describe me well"" to 5 = ""Does decribe me well"".)</strong></p>","0",""
"","","","","","survey-likert","140","552387","0.0-13.0","12","1","2023-06-04 15:31:15","a806436d73fb3c2fb9db1ebeb6e0a607","149.46.193.242","Mozilla/5.0 (Windows NT 10.0; Win64; x64) AppleWebKit/537.36 (KHTML, like Gecko) Chrome/115.0.0.0 Safari/537.36","WebKit","Chrome","115.0.0.0","Windows","10.0","97436","","{""ecs1"":3,""pds5"":1,""pts3"":2,""pds6"":3,""fs6"":2,""ecs4"":1,""ecs3"":2,""fs2"":3,""ecs2"":2,""fs3"":1,""pds1"":2,""pds7"":3,""pds3"":2,""pds4"":3,""pts2"":2,""pds2"":3,""pts5"":2,""pts1"":3,""fs5"":1,""ecs6"":2,""ecs7"":3,""fs1"":2,""ecs5"":1,""pts7"":2,""fs7"":3,""pts4"":2,""pts6"":1,""fs4"":2}","[1,18,10,23,22,13,8,4,3,6,5,26,12,16,7,9,20,2,15,19,21,0,17,27,25,14,24,11]"
"","","","","","html-button-response","141","553752","0.0-14.0","12","1","2023-06-04 15:31:15","a806436d73fb3c2fb9db1ebeb6e0a607","149.46.193.242","Mozilla/5.0 (Windows NT 10.0; Win64; x64) AppleWebKit/537.36 (KHTML, like Gecko) Chrome/115.0.0.0 Safari/537.36","WebKit","Chrome","115.0.0.0","Windows","10.0","1356","<p><strong>Which of the following objects or statements do you have a positive or negative feeling towards? </strong></p><p><strong> (1 = ""Very negative"" to 7 = ""Very positive"") </strong></p>","0",""
"","","","","","survey-likert","142","576916","0.0-15.0","12","1","2023-06-04 15:31:15","a806436d73fb3c2fb9db1ebeb6e0a607","149.46.193.242","Mozilla/5.0 (Windows NT 10.0; Win64; x64) AppleWebKit/537.36 (KHTML, like Gecko) Chrome/115.0.0.0 Safari/537.36","WebKit","Chrome","115.0.0.0","Windows","10.0","23156","","{""sdo13"":4,""sdo11"":3,""sdo7"":5,""sdo15"":3,""sdo3"":2,""sdo6"":4,""sdo1"":3,""sdo10"":5,""sdo9"":2,""sdo5"":4,""sdo2"":3,""sdo4"":2,""sdo14"":4,""sdo8"":4,""sdo16"":3,""sdo12"":4}","[12,10,6,14,2,5,0,9,8,4,1,3,13,7,15,11]"
"","","","","","html-button-response","143","600249","0.0-16.0","12","1","2023-06-04 15:31:15","a806436d73fb3c2fb9db1ebeb6e0a607","149.46.193.242","Mozilla/5.0 (Windows NT 10.0; Win64; x64) AppleWebKit/537.36 (KHTML, like Gecko) Chrome/115.0.0.0 Safari/537.36","WebKit","Chrome","115.0.0.0","Windows","10.0","23291","<p><strong>Please indicate the extent you agree with the following statements.</strong></p><strong><p> (1 = ""Strongly Disagree"" to 5 = ""Srongly Agree"") </strong></p>","0",""
"","","","","","survey-likert","144","660364","0.0-17.0","12","1","2023-06-04 15:31:15","a806436d73fb3c2fb9db1ebeb6e0a607","149.46.193.242","Mozilla/5.0 (Windows NT 10.0; Win64; x64) AppleWebKit/537.36 (KHTML, like Gecko) Chrome/115.0.0.0 Safari/537.36","WebKit","Chrome","115.0.0.0","Windows","10.0","60107","","{""caring1"":2,""liking1"":1,""caring2"":3,""protection1"":2,""liking2"":1,""caring3"":2,""protection2"":1,""liking3"":2,""protection3"":1,""caring4"":3,""liking4"":1,""protection4"":2,""caring5"":4,""liking5"":3,""protection5"":2}","[0,1,2,3,4,5,6,7,8,9,10,11,12,13,14]"
"","","","","","html-button-response","145","672890","0.0-18.0","12","1","2023-06-04 15:31:15","a806436d73fb3c2fb9db1ebeb6e0a607","149.46.193.242","Mozilla/5.0 (Windows NT 10.0; Win64; x64) AppleWebKit/537.36 (KHTML, like Gecko) Chrome/115.0.0.0 Safari/537.36","WebKit","Chrome","115.0.0.0","Windows","10.0","12515","<p><strong>Please imagine spercific situations involving children below, and rate the amount of tenderness you would feel in each situation. </strong></p><p><strong> (Ternderness is ""a warm, gentle feeling of sympathetic affection."") </strong></p><strong><p> (1 = ""No tenderness at all"" to 5 = ""A lot of tenderness"") </strong></p>","0",""
"","","","","","survey-likert","146","717980","0.0-19.0","12","1","2023-06-04 15:31:15","a806436d73fb3c2fb9db1ebeb6e0a607","149.46.193.242","Mozilla/5.0 (Windows NT 10.0; Win64; x64) AppleWebKit/537.36 (KHTML, like Gecko) Chrome/115.0.0.0 Safari/537.36","WebKit","Chrome","115.0.0.0","Windows","10.0","45084","","{""tenderness-positive1"":3,""tenderness-negative1"":1,""tenderness-negative2"":2,""tenderness-positive2"":3,""tenderness-positive3"":2,""tenderness-negative3"":1,""tenderness-positive4"":3,""tendereness-negative4"":1,""tendernness-negative5"":2,""tenderness-positive5"":3}","[0,1,2,3,4,5,6,7,8,9]"
"","","","","","survey-multi-choice","147","741458","0.0-20.0","12","1","2023-06-04 15:31:15","a806436d73fb3c2fb9db1ebeb6e0a607","149.46.193.242","Mozilla/5.0 (Windows NT 10.0; Win64; x64) AppleWebKit/537.36 (KHTML, like Gecko) Chrome/115.0.0.0 Safari/537.36","WebKit","Chrome","115.0.0.0","Windows","10.0","23470","","{""Attention2"":""Other""}","[0]"
"","","","","","html-button-response","148","750187","0.0-21.0","12","1","2023-06-04 15:31:15","a806436d73fb3c2fb9db1ebeb6e0a607","149.46.193.242","Mozilla/5.0 (Windows NT 10.0; Win64; x64) AppleWebKit/537.36 (KHTML, like Gecko) Chrome/115.0.0.0 Safari/537.36","WebKit","Chrome","115.0.0.0","Windows","10.0","8718","<p><strong>Please indicate the extent you agree with the following statements.</strong></p>","0",""
"","","","","","survey-likert","149","789381","0.0-22.0","12","1","2023-06-04 15:31:15","a806436d73fb3c2fb9db1ebeb6e0a607","149.46.193.242","Mozilla/5.0 (Windows NT 10.0; Win64; x64) AppleWebKit/537.36 (KHTML, like Gecko) Chrome/115.0.0.0 Safari/537.36","WebKit","Chrome","115.0.0.0","Windows","10.0","39188","","{""Nation2"":3,""Nation6"":2,""Patri2"":4,""Nation3"":1,""Patri4"":2,""Nation1"":3,""Nation5"":2,""Patri1"":4,""Patri7"":2,""Patri12"":1,""Patri8"":2,""Nation8"":3,""Patri10"":2,""Patri3"":3,""Nation4"":2,""Patri11"":1,""Patri5"":3,""Nation7"":2,""Patri6"":1,""Patri9"":3}","[13,17,1,14,3,12,16,0,6,11,7,19,9,2,15,10,4,18,5,8]"
"","","","","","html-button-response","150","790972","0.0-23.0","12","1","2023-06-04 15:31:15","a806436d73fb3c2fb9db1ebeb6e0a607","149.46.193.242","Mozilla/5.0 (Windows NT 10.0; Win64; x64) AppleWebKit/537.36 (KHTML, like Gecko) Chrome/115.0.0.0 Safari/537.36","WebKit","Chrome","115.0.0.0","Windows","10.0","1581","<p><strong>Please indicate the extent you agree with the following statements. </p><p>(1 = ""never or definitely no"" and 9 = ""always or definitely yes"".)</strong></p>","0",""
"","","","","","survey-likert","151","857315","0.0-24.0","12","1","2023-06-04 15:31:15","a806436d73fb3c2fb9db1ebeb6e0a607","149.46.193.242","Mozilla/5.0 (Windows NT 10.0; Win64; x64) AppleWebKit/537.36 (KHTML, like Gecko) Chrome/115.0.0.0 Safari/537.36","WebKit","Chrome","115.0.0.0","Windows","10.0","66335","","{""vc3"":6,""hi3"":6,""vc1"":3,""vi1"":4,""hi1"":6,""vi2"":8,""Robot2"":6,""vi3"":4,""vi4"":6,""hc2"":4,""hc4"":6,""hi2"":4,""vc2"":6,""hc3"":4,""hi4"":4,""hc1"":6,""vc4"":4}","[15,2,13,4,0,5,7,6,8,10,12,1,14,11,3,9,16]"
"","","","","","survey-text","152","881671","0.0-25.0","12","1","2023-06-04 15:31:15","a806436d73fb3c2fb9db1ebeb6e0a607","149.46.193.242","Mozilla/5.0 (Windows NT 10.0; Win64; x64) AppleWebKit/537.36 (KHTML, like Gecko) Chrome/115.0.0.0 Safari/537.36","WebKit","Chrome","115.0.0.0","Windows","10.0","24309","","{""ID"":""A1R033FHHMVPXN"",""Comments"":""Good experiment""}",""
"","","","","","html-button-response","153","900559","0.0-26.0","12","1","2023-06-04 15:31:15","a806436d73fb3c2fb9db1ebeb6e0a607","149.46.193.242","Mozilla/5.0 (Windows NT 10.0; Win64; x64) AppleWebKit/537.36 (KHTML, like Gecko) Chrome/115.0.0.0 Safari/537.36","WebKit","Chrome","115.0.0.0","Windows","10.0","18884","<p><strong>Congratulations! </strong> Your have finished all the survey. Thank you for your participation!</p><p><strong>Here is your complete token:</strong></p>25aa0h0vs65hxcci7mv4taxsg<p></p><p><strong>Please copy it to the mTurk page.</strong></p>","0",""
