"success","timeout","failed_images","failed_audio","failed_video","trial_type","trial_index","time_elapsed","internal_node_id","run_id","condition","recorded_at","source_code_version","ip","user_agent","device","browser","browser_version","platform","platform_version","rt","stimulus","response","question_order"
"true","false","[]","[]","[]","preload","0","2966","0.0-0.0","12","1","2023-06-05 15:06:28","a806436d73fb3c2fb9db1ebeb6e0a607","205.149.43.238","Mozilla/5.0 (Windows NT 10.0; Win64; x64) AppleWebKit/537.36 (KHTML, like Gecko) Chrome/111.0.0.0 Safari/537.36","WebKit","Chrome","111.0.0.0","Windows","10.0","","","",""
"true","","","","","fullscreen","1","32235","0.0-1.0","12","1","2023-06-05 15:06:28","a806436d73fb3c2fb9db1ebeb6e0a607","205.149.43.238","Mozilla/5.0 (Windows NT 10.0; Win64; x64) AppleWebKit/537.36 (KHTML, like Gecko) Chrome/111.0.0.0 Safari/537.36","WebKit","Chrome","111.0.0.0","Windows","10.0","","","",""
"","","","","","html-button-response","2","37941","0.0-2.0","12","1","2023-06-05 15:06:28","a806436d73fb3c2fb9db1ebeb6e0a607","205.149.43.238","Mozilla/5.0 (Windows NT 10.0; Win64; x64) AppleWebKit/537.36 (KHTML, like Gecko) Chrome/111.0.0.0 Safari/537.36","WebKit","Chrome","111.0.0.0","Windows","10.0","5697","<p ><strong>Welcome to the experiment!</strong></p><p ><strong>In the first task, please imagine:</strong></p><p>Your country is involved in a military conflict with another country.</p><p>You are the commander of your army and must make decisions in the conflict.</p><p>Specifically, as the military commander, you must decide whether to launch a missile to strike enemy.</p><p>You will face a series of scenarios. Please read each scenario carefully and make a decision.</p><p>The task will take around 10 minutes to complete.</p><p><strong>Please pay your attention during the experiment.</strong></p>","0",""
"","","","","","html-keyboard-response","3","38945","0.0-3.0-0.0","12","1","2023-06-05 15:06:28","a806436d73fb3c2fb9db1ebeb6e0a607","205.149.43.238","Mozilla/5.0 (Windows NT 10.0; Win64; x64) AppleWebKit/537.36 (KHTML, like Gecko) Chrome/111.0.0.0 Safari/537.36","WebKit","Chrome","111.0.0.0","Windows","10.0","null","<div style=""font-size:60px;"">+</div>","null",""
"","","","","","html-button-response","4","40468","0.0-3.0-1.0","12","1","2023-06-05 15:06:28","a806436d73fb3c2fb9db1ebeb6e0a607","205.149.43.238","Mozilla/5.0 (Windows NT 10.0; Win64; x64) AppleWebKit/537.36 (KHTML, like Gecko) Chrome/111.0.0.0 Safari/537.36","WebKit","Chrome","111.0.0.0","Windows","10.0","1516","<p>As the military commander, you could choose to launch a missile to kill <strong>5 enemy soldiers</strong> , but would accidentally kill <strong>1 enemy tree</strong> nearby.</p> <p>The photo of the <strong>enemy tree</strong> is shown below.</p> <p></p> <img src='stimuli/tree/11.png', style='max-width: 30%;'> </img> <p><strong>Would you launch the weapon?</strong></p>","0",""
"","","","","","html-keyboard-response","5","41474","0.0-3.0-0.1","12","1","2023-06-05 15:06:28","a806436d73fb3c2fb9db1ebeb6e0a607","205.149.43.238","Mozilla/5.0 (Windows NT 10.0; Win64; x64) AppleWebKit/537.36 (KHTML, like Gecko) Chrome/111.0.0.0 Safari/537.36","WebKit","Chrome","111.0.0.0","Windows","10.0","null","<div style=""font-size:60px;"">+</div>","null",""
"","","","","","html-button-response","6","41677","0.0-3.0-1.1","12","1","2023-06-05 15:06:28","a806436d73fb3c2fb9db1ebeb6e0a607","205.149.43.238","Mozilla/5.0 (Windows NT 10.0; Win64; x64) AppleWebKit/537.36 (KHTML, like Gecko) Chrome/111.0.0.0 Safari/537.36","WebKit","Chrome","111.0.0.0","Windows","10.0","196","<p>As the military commander, you could choose to launch a missile to kill <strong>2 enemy soldiers</strong> , but would accidentally kill <strong>1 enemy tree</strong> nearby.</p> <p>The photo of the <strong>enemy tree</strong> is shown below.</p> <p></p> <img src='stimuli/tree/3.png', style='max-width: 30%;'> </img> <p><strong>Would you launch the weapon?</strong></p>","0",""
"","","","","","html-keyboard-response","7","42696","0.0-3.0-0.2","12","1","2023-06-05 15:06:28","a806436d73fb3c2fb9db1ebeb6e0a607","205.149.43.238","Mozilla/5.0 (Windows NT 10.0; Win64; x64) AppleWebKit/537.36 (KHTML, like Gecko) Chrome/111.0.0.0 Safari/537.36","WebKit","Chrome","111.0.0.0","Windows","10.0","null","<div style=""font-size:60px;"">+</div>","null",""
"","","","","","html-button-response","8","42816","0.0-3.0-1.2","12","1","2023-06-05 15:06:28","a806436d73fb3c2fb9db1ebeb6e0a607","205.149.43.238","Mozilla/5.0 (Windows NT 10.0; Win64; x64) AppleWebKit/537.36 (KHTML, like Gecko) Chrome/111.0.0.0 Safari/537.36","WebKit","Chrome","111.0.0.0","Windows","10.0","116","<p>As the military commander, you could choose to launch a missile to kill <strong>1 enemy soldier</strong> , but would accidentally kill <strong>1 enemy civilian</strong> nearby.</p> <p>The photo of the <strong>enemy civilian</strong> is shown below.</p> <p></p> <img src='stimuli/faces/NFF4.jpg', style='max-width: 30%;'> </img> <p><strong>Would you launch the weapon?</strong></p>","0",""
"","","","","","html-keyboard-response","9","43826","0.0-3.0-0.3","12","1","2023-06-05 15:06:28","a806436d73fb3c2fb9db1ebeb6e0a607","205.149.43.238","Mozilla/5.0 (Windows NT 10.0; Win64; x64) AppleWebKit/537.36 (KHTML, like Gecko) Chrome/111.0.0.0 Safari/537.36","WebKit","Chrome","111.0.0.0","Windows","10.0","null","<div style=""font-size:60px;"">+</div>","null",""
"","","","","","html-button-response","10","44301","0.0-3.0-1.3","12","1","2023-06-05 15:06:28","a806436d73fb3c2fb9db1ebeb6e0a607","205.149.43.238","Mozilla/5.0 (Windows NT 10.0; Win64; x64) AppleWebKit/537.36 (KHTML, like Gecko) Chrome/111.0.0.0 Safari/537.36","WebKit","Chrome","111.0.0.0","Windows","10.0","473","<p>As the military commander, you could choose to launch a missile to kill <strong>7 enemy soldiers</strong> , but would accidentally kill <strong>1 enemy civilian</strong> nearby.</p> <p>The photo of the <strong>enemy civilian</strong> is shown below.</p> <p></p> <img src='stimuli/faces/NFF5.jpg', style='max-width: 30%;'> </img> <p><strong>Would you launch the weapon?</strong></p>","0",""
"","","","","","html-keyboard-response","11","45328","0.0-3.0-0.4","12","1","2023-06-05 15:06:28","a806436d73fb3c2fb9db1ebeb6e0a607","205.149.43.238","Mozilla/5.0 (Windows NT 10.0; Win64; x64) AppleWebKit/537.36 (KHTML, like Gecko) Chrome/111.0.0.0 Safari/537.36","WebKit","Chrome","111.0.0.0","Windows","10.0","null","<div style=""font-size:60px;"">+</div>","null",""
"","","","","","html-button-response","12","45974","0.0-3.0-1.4","12","1","2023-06-05 15:06:28","a806436d73fb3c2fb9db1ebeb6e0a607","205.149.43.238","Mozilla/5.0 (Windows NT 10.0; Win64; x64) AppleWebKit/537.36 (KHTML, like Gecko) Chrome/111.0.0.0 Safari/537.36","WebKit","Chrome","111.0.0.0","Windows","10.0","643","<p>As the military commander, you could choose to launch a missile to kill <strong>7 enemy soldiers</strong> , but would accidentally kill <strong>1 enemy civilian</strong> nearby.</p> <p>The photo of the <strong>enemy civilian</strong> is shown below.</p> <p></p> <img src='stimuli/faces/NFF1.jpg', style='max-width: 30%;'> </img> <p><strong>Would you launch the weapon?</strong></p>","0",""
"","","","","","html-keyboard-response","13","47003","0.0-3.0-0.5","12","1","2023-06-05 15:06:28","a806436d73fb3c2fb9db1ebeb6e0a607","205.149.43.238","Mozilla/5.0 (Windows NT 10.0; Win64; x64) AppleWebKit/537.36 (KHTML, like Gecko) Chrome/111.0.0.0 Safari/537.36","WebKit","Chrome","111.0.0.0","Windows","10.0","null","<div style=""font-size:60px;"">+</div>","null",""
"","","","","","html-button-response","14","47175","0.0-3.0-1.5","12","1","2023-06-05 15:06:28","a806436d73fb3c2fb9db1ebeb6e0a607","205.149.43.238","Mozilla/5.0 (Windows NT 10.0; Win64; x64) AppleWebKit/537.36 (KHTML, like Gecko) Chrome/111.0.0.0 Safari/537.36","WebKit","Chrome","111.0.0.0","Windows","10.0","168","<p>As the military commander, you could choose to launch a missile to kill <strong>5 enemy soldiers</strong> , but would accidentally kill <strong>1 enemy civilian</strong> nearby.</p> <p>The photo of the <strong>enemy civilian</strong> is shown below.</p> <p></p> <img src='stimuli/faces/NFM1.jpg', style='max-width: 30%;'> </img> <p><strong>Would you launch the weapon?</strong></p>","0",""
"","","","","","html-keyboard-response","15","48197","0.0-3.0-0.6","12","1","2023-06-05 15:06:28","a806436d73fb3c2fb9db1ebeb6e0a607","205.149.43.238","Mozilla/5.0 (Windows NT 10.0; Win64; x64) AppleWebKit/537.36 (KHTML, like Gecko) Chrome/111.0.0.0 Safari/537.36","WebKit","Chrome","111.0.0.0","Windows","10.0","null","<div style=""font-size:60px;"">+</div>","null",""
"","","","","","html-button-response","16","48747","0.0-3.0-1.6","12","1","2023-06-05 15:06:28","a806436d73fb3c2fb9db1ebeb6e0a607","205.149.43.238","Mozilla/5.0 (Windows NT 10.0; Win64; x64) AppleWebKit/537.36 (KHTML, like Gecko) Chrome/111.0.0.0 Safari/537.36","WebKit","Chrome","111.0.0.0","Windows","10.0","545","<p>As the military commander, you could choose to launch a missile to kill <strong>5 enemy soldiers</strong> , but would accidentally kill <strong>1 enemy civilian</strong> nearby.</p> <p>The photo of the <strong>enemy civilian</strong> is shown below.</p> <p></p> <img src='stimuli/faces/NFM6.jpg', style='max-width: 30%;'> </img> <p><strong>Would you launch the weapon?</strong></p>","0",""
"","","","","","html-keyboard-response","17","49762","0.0-3.0-0.7","12","1","2023-06-05 15:06:28","a806436d73fb3c2fb9db1ebeb6e0a607","205.149.43.238","Mozilla/5.0 (Windows NT 10.0; Win64; x64) AppleWebKit/537.36 (KHTML, like Gecko) Chrome/111.0.0.0 Safari/537.36","WebKit","Chrome","111.0.0.0","Windows","10.0","null","<div style=""font-size:60px;"">+</div>","null",""
"","","","","","html-button-response","18","49786","0.0-3.0-1.7","12","1","2023-06-05 15:06:28","a806436d73fb3c2fb9db1ebeb6e0a607","205.149.43.238","Mozilla/5.0 (Windows NT 10.0; Win64; x64) AppleWebKit/537.36 (KHTML, like Gecko) Chrome/111.0.0.0 Safari/537.36","WebKit","Chrome","111.0.0.0","Windows","10.0","21","<p>As the military commander, you could choose to launch a missile to kill <strong>9 enemy soldiers</strong> , but would accidentally kill <strong>1 enemy civilian</strong> nearby.</p> <p>The photo of the <strong>enemy civilian</strong> is shown below.</p> <p></p> <img src='stimuli/faces/NFF6.jpg', style='max-width: 30%;'> </img> <p><strong>Would you launch the weapon?</strong></p>","0",""
"","","","","","html-keyboard-response","19","50795","0.0-3.0-0.8","12","1","2023-06-05 15:06:28","a806436d73fb3c2fb9db1ebeb6e0a607","205.149.43.238","Mozilla/5.0 (Windows NT 10.0; Win64; x64) AppleWebKit/537.36 (KHTML, like Gecko) Chrome/111.0.0.0 Safari/537.36","WebKit","Chrome","111.0.0.0","Windows","10.0","null","<div style=""font-size:60px;"">+</div>","null",""
"","","","","","html-button-response","20","50916","0.0-3.0-1.8","12","1","2023-06-05 15:06:28","a806436d73fb3c2fb9db1ebeb6e0a607","205.149.43.238","Mozilla/5.0 (Windows NT 10.0; Win64; x64) AppleWebKit/537.36 (KHTML, like Gecko) Chrome/111.0.0.0 Safari/537.36","WebKit","Chrome","111.0.0.0","Windows","10.0","117","<p>As the military commander, you could choose to launch a missile to kill <strong>10 enemy soldiers</strong> , but would accidentally kill <strong>1 enemy tree</strong> nearby.</p> <p>The photo of the <strong>enemy tree</strong> is shown below.</p> <p></p> <img src='stimuli/tree/15.png', style='max-width: 30%;'> </img> <p><strong>Would you launch the weapon?</strong></p>","0",""
"","","","","","html-keyboard-response","21","51933","0.0-3.0-0.9","12","1","2023-06-05 15:06:28","a806436d73fb3c2fb9db1ebeb6e0a607","205.149.43.238","Mozilla/5.0 (Windows NT 10.0; Win64; x64) AppleWebKit/537.36 (KHTML, like Gecko) Chrome/111.0.0.0 Safari/537.36","WebKit","Chrome","111.0.0.0","Windows","10.0","null","<div style=""font-size:60px;"">+</div>","null",""
"","","","","","html-button-response","22","52093","0.0-3.0-1.9","12","1","2023-06-05 15:06:28","a806436d73fb3c2fb9db1ebeb6e0a607","205.149.43.238","Mozilla/5.0 (Windows NT 10.0; Win64; x64) AppleWebKit/537.36 (KHTML, like Gecko) Chrome/111.0.0.0 Safari/537.36","WebKit","Chrome","111.0.0.0","Windows","10.0","157","<p>As the military commander, you could choose to launch a missile to kill <strong>4 enemy soldiers</strong> , but would accidentally kill <strong>1 enemy civilian</strong> nearby.</p> <p>The photo of the <strong>enemy civilian</strong> is shown below.</p> <p></p> <img src='stimuli/faces/NFF3.jpg', style='max-width: 30%;'> </img> <p><strong>Would you launch the weapon?</strong></p>","0",""
"","","","","","html-keyboard-response","23","53098","0.0-3.0-0.10","12","1","2023-06-05 15:06:28","a806436d73fb3c2fb9db1ebeb6e0a607","205.149.43.238","Mozilla/5.0 (Windows NT 10.0; Win64; x64) AppleWebKit/537.36 (KHTML, like Gecko) Chrome/111.0.0.0 Safari/537.36","WebKit","Chrome","111.0.0.0","Windows","10.0","null","<div style=""font-size:60px;"">+</div>","null",""
"","","","","","html-button-response","24","53231","0.0-3.0-1.10","12","1","2023-06-05 15:06:28","a806436d73fb3c2fb9db1ebeb6e0a607","205.149.43.238","Mozilla/5.0 (Windows NT 10.0; Win64; x64) AppleWebKit/537.36 (KHTML, like Gecko) Chrome/111.0.0.0 Safari/537.36","WebKit","Chrome","111.0.0.0","Windows","10.0","129","<p>As the military commander, you could choose to launch a missile to kill <strong>10 enemy soldiers</strong> , but would accidentally kill <strong>1 enemy civilian</strong> nearby.</p> <p>The photo of the <strong>enemy civilian</strong> is shown below.</p> <p></p> <img src='stimuli/faces/NFF4.jpg', style='max-width: 30%;'> </img> <p><strong>Would you launch the weapon?</strong></p>","0",""
"","","","","","html-keyboard-response","25","54236","0.0-3.0-0.11","12","1","2023-06-05 15:06:28","a806436d73fb3c2fb9db1ebeb6e0a607","205.149.43.238","Mozilla/5.0 (Windows NT 10.0; Win64; x64) AppleWebKit/537.36 (KHTML, like Gecko) Chrome/111.0.0.0 Safari/537.36","WebKit","Chrome","111.0.0.0","Windows","10.0","null","<div style=""font-size:60px;"">+</div>","null",""
"","","","","","html-button-response","26","54438","0.0-3.0-1.11","12","1","2023-06-05 15:06:28","a806436d73fb3c2fb9db1ebeb6e0a607","205.149.43.238","Mozilla/5.0 (Windows NT 10.0; Win64; x64) AppleWebKit/537.36 (KHTML, like Gecko) Chrome/111.0.0.0 Safari/537.36","WebKit","Chrome","111.0.0.0","Windows","10.0","197","<p>As the military commander, you could choose to launch a missile to kill <strong>8 enemy soldiers</strong> , but would accidentally kill <strong>1 enemy tree</strong> nearby.</p> <p>The photo of the <strong>enemy tree</strong> is shown below.</p> <p></p> <img src='stimuli/tree/8.png', style='max-width: 30%;'> </img> <p><strong>Would you launch the weapon?</strong></p>","0",""
"","","","","","html-keyboard-response","27","55463","0.0-3.0-0.12","12","1","2023-06-05 15:06:28","a806436d73fb3c2fb9db1ebeb6e0a607","205.149.43.238","Mozilla/5.0 (Windows NT 10.0; Win64; x64) AppleWebKit/537.36 (KHTML, like Gecko) Chrome/111.0.0.0 Safari/537.36","WebKit","Chrome","111.0.0.0","Windows","10.0","null","<div style=""font-size:60px;"">+</div>","null",""
"","","","","","html-button-response","28","55759","0.0-3.0-1.12","12","1","2023-06-05 15:06:28","a806436d73fb3c2fb9db1ebeb6e0a607","205.149.43.238","Mozilla/5.0 (Windows NT 10.0; Win64; x64) AppleWebKit/537.36 (KHTML, like Gecko) Chrome/111.0.0.0 Safari/537.36","WebKit","Chrome","111.0.0.0","Windows","10.0","290","<p>As the military commander, you could choose to launch a missile to kill <strong>2 enemy soldiers</strong> , but would accidentally kill <strong>1 enemy tree</strong> nearby.</p> <p>The photo of the <strong>enemy tree</strong> is shown below.</p> <p></p> <img src='stimuli/tree/1.png', style='max-width: 30%;'> </img> <p><strong>Would you launch the weapon?</strong></p>","0",""
"","","","","","html-keyboard-response","29","56770","0.0-3.0-0.13","12","1","2023-06-05 15:06:28","a806436d73fb3c2fb9db1ebeb6e0a607","205.149.43.238","Mozilla/5.0 (Windows NT 10.0; Win64; x64) AppleWebKit/537.36 (KHTML, like Gecko) Chrome/111.0.0.0 Safari/537.36","WebKit","Chrome","111.0.0.0","Windows","10.0","null","<div style=""font-size:60px;"">+</div>","null",""
"","","","","","html-button-response","30","56865","0.0-3.0-1.13","12","1","2023-06-05 15:06:28","a806436d73fb3c2fb9db1ebeb6e0a607","205.149.43.238","Mozilla/5.0 (Windows NT 10.0; Win64; x64) AppleWebKit/537.36 (KHTML, like Gecko) Chrome/111.0.0.0 Safari/537.36","WebKit","Chrome","111.0.0.0","Windows","10.0","89","<p>As the military commander, you could choose to launch a missile to kill <strong>1 enemy soldier</strong> , but would accidentally kill <strong>1 enemy tree</strong> nearby.</p> <p>The photo of the <strong>enemy tree</strong> is shown below.</p> <p></p> <img src='stimuli/tree/10.png', style='max-width: 30%;'> </img> <p><strong>Would you launch the weapon?</strong></p>","0",""
"","","","","","html-keyboard-response","31","57894","0.0-3.0-0.14","12","1","2023-06-05 15:06:28","a806436d73fb3c2fb9db1ebeb6e0a607","205.149.43.238","Mozilla/5.0 (Windows NT 10.0; Win64; x64) AppleWebKit/537.36 (KHTML, like Gecko) Chrome/111.0.0.0 Safari/537.36","WebKit","Chrome","111.0.0.0","Windows","10.0","null","<div style=""font-size:60px;"">+</div>","null",""
"","","","","","html-button-response","32","58100","0.0-3.0-1.14","12","1","2023-06-05 15:06:28","a806436d73fb3c2fb9db1ebeb6e0a607","205.149.43.238","Mozilla/5.0 (Windows NT 10.0; Win64; x64) AppleWebKit/537.36 (KHTML, like Gecko) Chrome/111.0.0.0 Safari/537.36","WebKit","Chrome","111.0.0.0","Windows","10.0","202","<p>As the military commander, you could choose to launch a missile to kill <strong>5 enemy soldiers</strong> , but would accidentally kill <strong>1 enemy civilian</strong> nearby.</p> <p>The photo of the <strong>enemy civilian</strong> is shown below.</p> <p></p> <img src='stimuli/faces/NFF8.jpg', style='max-width: 30%;'> </img> <p><strong>Would you launch the weapon?</strong></p>","0",""
"","","","","","html-keyboard-response","33","59114","0.0-3.0-0.15","12","1","2023-06-05 15:06:28","a806436d73fb3c2fb9db1ebeb6e0a607","205.149.43.238","Mozilla/5.0 (Windows NT 10.0; Win64; x64) AppleWebKit/537.36 (KHTML, like Gecko) Chrome/111.0.0.0 Safari/537.36","WebKit","Chrome","111.0.0.0","Windows","10.0","null","<div style=""font-size:60px;"">+</div>","null",""
"","","","","","html-button-response","34","59427","0.0-3.0-1.15","12","1","2023-06-05 15:06:28","a806436d73fb3c2fb9db1ebeb6e0a607","205.149.43.238","Mozilla/5.0 (Windows NT 10.0; Win64; x64) AppleWebKit/537.36 (KHTML, like Gecko) Chrome/111.0.0.0 Safari/537.36","WebKit","Chrome","111.0.0.0","Windows","10.0","306","<p>As the military commander, you could choose to launch a missile to kill <strong>10 enemy soldiers</strong> , but would accidentally kill <strong>1 enemy civilian</strong> nearby.</p> <p>The photo of the <strong>enemy civilian</strong> is shown below.</p> <p></p> <img src='stimuli/faces/NFM8.jpg', style='max-width: 30%;'> </img> <p><strong>Would you launch the weapon?</strong></p>","0",""
"","","","","","html-keyboard-response","35","60443","0.0-3.0-0.16","12","1","2023-06-05 15:06:28","a806436d73fb3c2fb9db1ebeb6e0a607","205.149.43.238","Mozilla/5.0 (Windows NT 10.0; Win64; x64) AppleWebKit/537.36 (KHTML, like Gecko) Chrome/111.0.0.0 Safari/537.36","WebKit","Chrome","111.0.0.0","Windows","10.0","null","<div style=""font-size:60px;"">+</div>","null",""
"","","","","","html-button-response","36","60575","0.0-3.0-1.16","12","1","2023-06-05 15:06:28","a806436d73fb3c2fb9db1ebeb6e0a607","205.149.43.238","Mozilla/5.0 (Windows NT 10.0; Win64; x64) AppleWebKit/537.36 (KHTML, like Gecko) Chrome/111.0.0.0 Safari/537.36","WebKit","Chrome","111.0.0.0","Windows","10.0","110","<p>As the military commander, you could choose to launch a missile to kill <strong>9 enemy soldiers</strong> , but would accidentally kill <strong>1 enemy civilian</strong> nearby.</p> <p>The photo of the <strong>enemy civilian</strong> is shown below.</p> <p></p> <img src='stimuli/faces/NFF8.jpg', style='max-width: 30%;'> </img> <p><strong>Would you launch the weapon?</strong></p>","0",""
"","","","","","html-keyboard-response","37","61580","0.0-3.0-0.17","12","1","2023-06-05 15:06:28","a806436d73fb3c2fb9db1ebeb6e0a607","205.149.43.238","Mozilla/5.0 (Windows NT 10.0; Win64; x64) AppleWebKit/537.36 (KHTML, like Gecko) Chrome/111.0.0.0 Safari/537.36","WebKit","Chrome","111.0.0.0","Windows","10.0","null","<div style=""font-size:60px;"">+</div>","null",""
"","","","","","html-button-response","38","61696","0.0-3.0-1.17","12","1","2023-06-05 15:06:28","a806436d73fb3c2fb9db1ebeb6e0a607","205.149.43.238","Mozilla/5.0 (Windows NT 10.0; Win64; x64) AppleWebKit/537.36 (KHTML, like Gecko) Chrome/111.0.0.0 Safari/537.36","WebKit","Chrome","111.0.0.0","Windows","10.0","106","<p>As the military commander, you could choose to launch a missile to kill <strong>4 enemy soldiers</strong> , but would accidentally kill <strong>1 enemy tree</strong> nearby.</p> <p>The photo of the <strong>enemy tree</strong> is shown below.</p> <p></p> <img src='stimuli/tree/8.png', style='max-width: 30%;'> </img> <p><strong>Would you launch the weapon?</strong></p>","0",""
"","","","","","html-keyboard-response","39","62713","0.0-3.0-0.18","12","1","2023-06-05 15:06:28","a806436d73fb3c2fb9db1ebeb6e0a607","205.149.43.238","Mozilla/5.0 (Windows NT 10.0; Win64; x64) AppleWebKit/537.36 (KHTML, like Gecko) Chrome/111.0.0.0 Safari/537.36","WebKit","Chrome","111.0.0.0","Windows","10.0","null","<div style=""font-size:60px;"">+</div>","null",""
"","","","","","html-button-response","40","62974","0.0-3.0-1.18","12","1","2023-06-05 15:06:28","a806436d73fb3c2fb9db1ebeb6e0a607","205.149.43.238","Mozilla/5.0 (Windows NT 10.0; Win64; x64) AppleWebKit/537.36 (KHTML, like Gecko) Chrome/111.0.0.0 Safari/537.36","WebKit","Chrome","111.0.0.0","Windows","10.0","250","<p>As the military commander, you could choose to launch a missile to kill <strong>10 enemy soldiers</strong> , but would accidentally kill <strong>1 enemy civilian</strong> nearby.</p> <p>The photo of the <strong>enemy civilian</strong> is shown below.</p> <p></p> <img src='stimuli/faces/NFF7.jpg', style='max-width: 30%;'> </img> <p><strong>Would you launch the weapon?</strong></p>","0",""
"","","","","","html-keyboard-response","41","63976","0.0-3.0-0.19","12","1","2023-06-05 15:06:28","a806436d73fb3c2fb9db1ebeb6e0a607","205.149.43.238","Mozilla/5.0 (Windows NT 10.0; Win64; x64) AppleWebKit/537.36 (KHTML, like Gecko) Chrome/111.0.0.0 Safari/537.36","WebKit","Chrome","111.0.0.0","Windows","10.0","null","<div style=""font-size:60px;"">+</div>","null",""
"","","","","","html-button-response","42","64054","0.0-3.0-1.19","12","1","2023-06-05 15:06:28","a806436d73fb3c2fb9db1ebeb6e0a607","205.149.43.238","Mozilla/5.0 (Windows NT 10.0; Win64; x64) AppleWebKit/537.36 (KHTML, like Gecko) Chrome/111.0.0.0 Safari/537.36","WebKit","Chrome","111.0.0.0","Windows","10.0","72","<p>As the military commander, you could choose to launch a missile to kill <strong>9 enemy soldiers</strong> , but would accidentally kill <strong>1 enemy civilian</strong> nearby.</p> <p>The photo of the <strong>enemy civilian</strong> is shown below.</p> <p></p> <img src='stimuli/faces/NFM4.jpg', style='max-width: 30%;'> </img> <p><strong>Would you launch the weapon?</strong></p>","0",""
"","","","","","html-keyboard-response","43","65068","0.0-3.0-0.20","12","1","2023-06-05 15:06:28","a806436d73fb3c2fb9db1ebeb6e0a607","205.149.43.238","Mozilla/5.0 (Windows NT 10.0; Win64; x64) AppleWebKit/537.36 (KHTML, like Gecko) Chrome/111.0.0.0 Safari/537.36","WebKit","Chrome","111.0.0.0","Windows","10.0","null","<div style=""font-size:60px;"">+</div>","null",""
"","","","","","html-button-response","44","65100","0.0-3.0-1.20","12","1","2023-06-05 15:06:28","a806436d73fb3c2fb9db1ebeb6e0a607","205.149.43.238","Mozilla/5.0 (Windows NT 10.0; Win64; x64) AppleWebKit/537.36 (KHTML, like Gecko) Chrome/111.0.0.0 Safari/537.36","WebKit","Chrome","111.0.0.0","Windows","10.0","27","<p>As the military commander, you could choose to launch a missile to kill <strong>10 enemy soldiers</strong> , but would accidentally kill <strong>1 enemy tree</strong> nearby.</p> <p>The photo of the <strong>enemy tree</strong> is shown below.</p> <p></p> <img src='stimuli/tree/16.png', style='max-width: 30%;'> </img> <p><strong>Would you launch the weapon?</strong></p>","0",""
"","","","","","html-keyboard-response","45","66113","0.0-3.0-0.21","12","1","2023-06-05 15:06:28","a806436d73fb3c2fb9db1ebeb6e0a607","205.149.43.238","Mozilla/5.0 (Windows NT 10.0; Win64; x64) AppleWebKit/537.36 (KHTML, like Gecko) Chrome/111.0.0.0 Safari/537.36","WebKit","Chrome","111.0.0.0","Windows","10.0","null","<div style=""font-size:60px;"">+</div>","null",""
"","","","","","html-button-response","46","66826","0.0-3.0-1.21","12","1","2023-06-05 15:06:28","a806436d73fb3c2fb9db1ebeb6e0a607","205.149.43.238","Mozilla/5.0 (Windows NT 10.0; Win64; x64) AppleWebKit/537.36 (KHTML, like Gecko) Chrome/111.0.0.0 Safari/537.36","WebKit","Chrome","111.0.0.0","Windows","10.0","706","<p>As the military commander, you could choose to launch a missile to kill <strong>3 enemy soldiers</strong> , but would accidentally kill <strong>1 enemy tree</strong> nearby.</p> <p>The photo of the <strong>enemy tree</strong> is shown below.</p> <p></p> <img src='stimuli/tree/16.png', style='max-width: 30%;'> </img> <p><strong>Would you launch the weapon?</strong></p>","0",""
"","","","","","html-keyboard-response","47","67835","0.0-3.0-0.22","12","1","2023-06-05 15:06:28","a806436d73fb3c2fb9db1ebeb6e0a607","205.149.43.238","Mozilla/5.0 (Windows NT 10.0; Win64; x64) AppleWebKit/537.36 (KHTML, like Gecko) Chrome/111.0.0.0 Safari/537.36","WebKit","Chrome","111.0.0.0","Windows","10.0","null","<div style=""font-size:60px;"">+</div>","null",""
"","","","","","html-button-response","48","68052","0.0-3.0-1.22","12","1","2023-06-05 15:06:28","a806436d73fb3c2fb9db1ebeb6e0a607","205.149.43.238","Mozilla/5.0 (Windows NT 10.0; Win64; x64) AppleWebKit/537.36 (KHTML, like Gecko) Chrome/111.0.0.0 Safari/537.36","WebKit","Chrome","111.0.0.0","Windows","10.0","212","<p>As the military commander, you could choose to launch a missile to kill <strong>2 enemy soldiers</strong> , but would accidentally kill <strong>1 enemy tree</strong> nearby.</p> <p>The photo of the <strong>enemy tree</strong> is shown below.</p> <p></p> <img src='stimuli/tree/2.png', style='max-width: 30%;'> </img> <p><strong>Would you launch the weapon?</strong></p>","0",""
"","","","","","html-keyboard-response","49","69054","0.0-3.0-0.23","12","1","2023-06-05 15:06:28","a806436d73fb3c2fb9db1ebeb6e0a607","205.149.43.238","Mozilla/5.0 (Windows NT 10.0; Win64; x64) AppleWebKit/537.36 (KHTML, like Gecko) Chrome/111.0.0.0 Safari/537.36","WebKit","Chrome","111.0.0.0","Windows","10.0","null","<div style=""font-size:60px;"">+</div>","null",""
"","","","","","html-button-response","50","69260","0.0-3.0-1.23","12","1","2023-06-05 15:06:28","a806436d73fb3c2fb9db1ebeb6e0a607","205.149.43.238","Mozilla/5.0 (Windows NT 10.0; Win64; x64) AppleWebKit/537.36 (KHTML, like Gecko) Chrome/111.0.0.0 Safari/537.36","WebKit","Chrome","111.0.0.0","Windows","10.0","198","<p>As the military commander, you could choose to launch a missile to kill <strong>6 enemy soldiers</strong> , but would accidentally kill <strong>1 enemy tree</strong> nearby.</p> <p>The photo of the <strong>enemy tree</strong> is shown below.</p> <p></p> <img src='stimuli/tree/10.png', style='max-width: 30%;'> </img> <p><strong>Would you launch the weapon?</strong></p>","0",""
"","","","","","html-keyboard-response","51","70265","0.0-3.0-0.24","12","1","2023-06-05 15:06:28","a806436d73fb3c2fb9db1ebeb6e0a607","205.149.43.238","Mozilla/5.0 (Windows NT 10.0; Win64; x64) AppleWebKit/537.36 (KHTML, like Gecko) Chrome/111.0.0.0 Safari/537.36","WebKit","Chrome","111.0.0.0","Windows","10.0","null","<div style=""font-size:60px;"">+</div>","null",""
"","","","","","html-button-response","52","70364","0.0-3.0-1.24","12","1","2023-06-05 15:06:28","a806436d73fb3c2fb9db1ebeb6e0a607","205.149.43.238","Mozilla/5.0 (Windows NT 10.0; Win64; x64) AppleWebKit/537.36 (KHTML, like Gecko) Chrome/111.0.0.0 Safari/537.36","WebKit","Chrome","111.0.0.0","Windows","10.0","94","<p>As the military commander, you could choose to launch a missile to kill <strong>5 enemy soldiers</strong> , but would accidentally kill <strong>1 enemy tree</strong> nearby.</p> <p>The photo of the <strong>enemy tree</strong> is shown below.</p> <p></p> <img src='stimuli/tree/14.png', style='max-width: 30%;'> </img> <p><strong>Would you launch the weapon?</strong></p>","0",""
"","","","","","html-keyboard-response","53","71391","0.0-3.0-0.25","12","1","2023-06-05 15:06:28","a806436d73fb3c2fb9db1ebeb6e0a607","205.149.43.238","Mozilla/5.0 (Windows NT 10.0; Win64; x64) AppleWebKit/537.36 (KHTML, like Gecko) Chrome/111.0.0.0 Safari/537.36","WebKit","Chrome","111.0.0.0","Windows","10.0","null","<div style=""font-size:60px;"">+</div>","null",""
"","","","","","html-button-response","54","72076","0.0-3.0-1.25","12","1","2023-06-05 15:06:28","a806436d73fb3c2fb9db1ebeb6e0a607","205.149.43.238","Mozilla/5.0 (Windows NT 10.0; Win64; x64) AppleWebKit/537.36 (KHTML, like Gecko) Chrome/111.0.0.0 Safari/537.36","WebKit","Chrome","111.0.0.0","Windows","10.0","681","<p>As the military commander, you could choose to launch a missile to kill <strong>4 enemy soldiers</strong> , but would accidentally kill <strong>1 enemy civilian</strong> nearby.</p> <p>The photo of the <strong>enemy civilian</strong> is shown below.</p> <p></p> <img src='stimuli/faces/NFM7.jpg', style='max-width: 30%;'> </img> <p><strong>Would you launch the weapon?</strong></p>","0",""
"","","","","","html-keyboard-response","55","73089","0.0-3.0-0.26","12","1","2023-06-05 15:06:28","a806436d73fb3c2fb9db1ebeb6e0a607","205.149.43.238","Mozilla/5.0 (Windows NT 10.0; Win64; x64) AppleWebKit/537.36 (KHTML, like Gecko) Chrome/111.0.0.0 Safari/537.36","WebKit","Chrome","111.0.0.0","Windows","10.0","null","<div style=""font-size:60px;"">+</div>","null",""
"","","","","","html-button-response","56","73926","0.0-3.0-1.26","12","1","2023-06-05 15:06:28","a806436d73fb3c2fb9db1ebeb6e0a607","205.149.43.238","Mozilla/5.0 (Windows NT 10.0; Win64; x64) AppleWebKit/537.36 (KHTML, like Gecko) Chrome/111.0.0.0 Safari/537.36","WebKit","Chrome","111.0.0.0","Windows","10.0","827","<p>As the military commander, you could choose to launch a missile to kill <strong>4 enemy soldiers</strong> , but would accidentally kill <strong>1 enemy tree</strong> nearby.</p> <p>The photo of the <strong>enemy tree</strong> is shown below.</p> <p></p> <img src='stimuli/tree/6.png', style='max-width: 30%;'> </img> <p><strong>Would you launch the weapon?</strong></p>","0",""
"","","","","","html-keyboard-response","57","74947","0.0-3.0-0.27","12","1","2023-06-05 15:06:28","a806436d73fb3c2fb9db1ebeb6e0a607","205.149.43.238","Mozilla/5.0 (Windows NT 10.0; Win64; x64) AppleWebKit/537.36 (KHTML, like Gecko) Chrome/111.0.0.0 Safari/537.36","WebKit","Chrome","111.0.0.0","Windows","10.0","null","<div style=""font-size:60px;"">+</div>","null",""
"","","","","","html-button-response","58","75379","0.0-3.0-1.27","12","1","2023-06-05 15:06:28","a806436d73fb3c2fb9db1ebeb6e0a607","205.149.43.238","Mozilla/5.0 (Windows NT 10.0; Win64; x64) AppleWebKit/537.36 (KHTML, like Gecko) Chrome/111.0.0.0 Safari/537.36","WebKit","Chrome","111.0.0.0","Windows","10.0","414","<p>As the military commander, you could choose to launch a missile to kill <strong>4 enemy soldiers</strong> , but would accidentally kill <strong>1 enemy civilian</strong> nearby.</p> <p>The photo of the <strong>enemy civilian</strong> is shown below.</p> <p></p> <img src='stimuli/faces/NFF5.jpg', style='max-width: 30%;'> </img> <p><strong>Would you launch the weapon?</strong></p>","0",""
"","","","","","html-keyboard-response","59","76385","0.0-3.0-0.28","12","1","2023-06-05 15:06:28","a806436d73fb3c2fb9db1ebeb6e0a607","205.149.43.238","Mozilla/5.0 (Windows NT 10.0; Win64; x64) AppleWebKit/537.36 (KHTML, like Gecko) Chrome/111.0.0.0 Safari/537.36","WebKit","Chrome","111.0.0.0","Windows","10.0","null","<div style=""font-size:60px;"">+</div>","null",""
"","","","","","html-button-response","60","76564","0.0-3.0-1.28","12","1","2023-06-05 15:06:28","a806436d73fb3c2fb9db1ebeb6e0a607","205.149.43.238","Mozilla/5.0 (Windows NT 10.0; Win64; x64) AppleWebKit/537.36 (KHTML, like Gecko) Chrome/111.0.0.0 Safari/537.36","WebKit","Chrome","111.0.0.0","Windows","10.0","165","<p>As the military commander, you could choose to launch a missile to kill <strong>5 enemy soldiers</strong> , but would accidentally kill <strong>1 enemy civilian</strong> nearby.</p> <p>The photo of the <strong>enemy civilian</strong> is shown below.</p> <p></p> <img src='stimuli/faces/NFM4.jpg', style='max-width: 30%;'> </img> <p><strong>Would you launch the weapon?</strong></p>","0",""
"","","","","","html-keyboard-response","61","77584","0.0-3.0-0.29","12","1","2023-06-05 15:06:28","a806436d73fb3c2fb9db1ebeb6e0a607","205.149.43.238","Mozilla/5.0 (Windows NT 10.0; Win64; x64) AppleWebKit/537.36 (KHTML, like Gecko) Chrome/111.0.0.0 Safari/537.36","WebKit","Chrome","111.0.0.0","Windows","10.0","null","<div style=""font-size:60px;"">+</div>","null",""
"","","","","","html-button-response","62","78045","0.0-3.0-1.29","12","1","2023-06-05 15:06:28","a806436d73fb3c2fb9db1ebeb6e0a607","205.149.43.238","Mozilla/5.0 (Windows NT 10.0; Win64; x64) AppleWebKit/537.36 (KHTML, like Gecko) Chrome/111.0.0.0 Safari/537.36","WebKit","Chrome","111.0.0.0","Windows","10.0","458","<p>As the military commander, you could choose to launch a missile to kill <strong>2 enemy soldiers</strong> , but would accidentally kill <strong>1 enemy tree</strong> nearby.</p> <p>The photo of the <strong>enemy tree</strong> is shown below.</p> <p></p> <img src='stimuli/tree/5.png', style='max-width: 30%;'> </img> <p><strong>Would you launch the weapon?</strong></p>","0",""
"","","","","","html-keyboard-response","63","79064","0.0-3.0-0.30","12","1","2023-06-05 15:06:28","a806436d73fb3c2fb9db1ebeb6e0a607","205.149.43.238","Mozilla/5.0 (Windows NT 10.0; Win64; x64) AppleWebKit/537.36 (KHTML, like Gecko) Chrome/111.0.0.0 Safari/537.36","WebKit","Chrome","111.0.0.0","Windows","10.0","null","<div style=""font-size:60px;"">+</div>","null",""
"","","","","","html-button-response","64","79815","0.0-3.0-1.30","12","1","2023-06-05 15:06:28","a806436d73fb3c2fb9db1ebeb6e0a607","205.149.43.238","Mozilla/5.0 (Windows NT 10.0; Win64; x64) AppleWebKit/537.36 (KHTML, like Gecko) Chrome/111.0.0.0 Safari/537.36","WebKit","Chrome","111.0.0.0","Windows","10.0","745","<p>As the military commander, you could choose to launch a missile to kill <strong>7 enemy soldiers</strong> , but would accidentally kill <strong>1 enemy tree</strong> nearby.</p> <p>The photo of the <strong>enemy tree</strong> is shown below.</p> <p></p> <img src='stimuli/tree/12.png', style='max-width: 30%;'> </img> <p><strong>Would you launch the weapon?</strong></p>","0",""
"","","","","","html-keyboard-response","65","80838","0.0-3.0-0.31","12","1","2023-06-05 15:06:28","a806436d73fb3c2fb9db1ebeb6e0a607","205.149.43.238","Mozilla/5.0 (Windows NT 10.0; Win64; x64) AppleWebKit/537.36 (KHTML, like Gecko) Chrome/111.0.0.0 Safari/537.36","WebKit","Chrome","111.0.0.0","Windows","10.0","null","<div style=""font-size:60px;"">+</div>","null",""
"","","","","","html-button-response","66","81099","0.0-3.0-1.31","12","1","2023-06-05 15:06:28","a806436d73fb3c2fb9db1ebeb6e0a607","205.149.43.238","Mozilla/5.0 (Windows NT 10.0; Win64; x64) AppleWebKit/537.36 (KHTML, like Gecko) Chrome/111.0.0.0 Safari/537.36","WebKit","Chrome","111.0.0.0","Windows","10.0","249","<p>As the military commander, you could choose to launch a missile to kill <strong>3 enemy soldiers</strong> , but would accidentally kill <strong>1 enemy civilian</strong> nearby.</p> <p>The photo of the <strong>enemy civilian</strong> is shown below.</p> <p></p> <img src='stimuli/faces/NFM3.jpg', style='max-width: 30%;'> </img> <p><strong>Would you launch the weapon?</strong></p>","0",""
"","","","","","html-keyboard-response","67","82119","0.0-3.0-0.32","12","1","2023-06-05 15:06:28","a806436d73fb3c2fb9db1ebeb6e0a607","205.149.43.238","Mozilla/5.0 (Windows NT 10.0; Win64; x64) AppleWebKit/537.36 (KHTML, like Gecko) Chrome/111.0.0.0 Safari/537.36","WebKit","Chrome","111.0.0.0","Windows","10.0","null","<div style=""font-size:60px;"">+</div>","null",""
"","","","","","html-button-response","68","82293","0.0-3.0-1.32","12","1","2023-06-05 15:06:28","a806436d73fb3c2fb9db1ebeb6e0a607","205.149.43.238","Mozilla/5.0 (Windows NT 10.0; Win64; x64) AppleWebKit/537.36 (KHTML, like Gecko) Chrome/111.0.0.0 Safari/537.36","WebKit","Chrome","111.0.0.0","Windows","10.0","170","<p>As the military commander, you could choose to launch a missile to kill <strong>5 enemy soldiers</strong> , but would accidentally kill <strong>1 enemy tree</strong> nearby.</p> <p>The photo of the <strong>enemy tree</strong> is shown below.</p> <p></p> <img src='stimuli/tree/13.png', style='max-width: 30%;'> </img> <p><strong>Would you launch the weapon?</strong></p>","0",""
"","","","","","html-keyboard-response","69","83324","0.0-3.0-0.33","12","1","2023-06-05 15:06:28","a806436d73fb3c2fb9db1ebeb6e0a607","205.149.43.238","Mozilla/5.0 (Windows NT 10.0; Win64; x64) AppleWebKit/537.36 (KHTML, like Gecko) Chrome/111.0.0.0 Safari/537.36","WebKit","Chrome","111.0.0.0","Windows","10.0","null","<div style=""font-size:60px;"">+</div>","null",""
"","","","","","html-button-response","70","83708","0.0-3.0-1.33","12","1","2023-06-05 15:06:28","a806436d73fb3c2fb9db1ebeb6e0a607","205.149.43.238","Mozilla/5.0 (Windows NT 10.0; Win64; x64) AppleWebKit/537.36 (KHTML, like Gecko) Chrome/111.0.0.0 Safari/537.36","WebKit","Chrome","111.0.0.0","Windows","10.0","371","<p>As the military commander, you could choose to launch a missile to kill <strong>8 enemy soldiers</strong> , but would accidentally kill <strong>1 enemy tree</strong> nearby.</p> <p>The photo of the <strong>enemy tree</strong> is shown below.</p> <p></p> <img src='stimuli/tree/1.png', style='max-width: 30%;'> </img> <p><strong>Would you launch the weapon?</strong></p>","0",""
"","","","","","html-keyboard-response","71","84714","0.0-3.0-0.34","12","1","2023-06-05 15:06:28","a806436d73fb3c2fb9db1ebeb6e0a607","205.149.43.238","Mozilla/5.0 (Windows NT 10.0; Win64; x64) AppleWebKit/537.36 (KHTML, like Gecko) Chrome/111.0.0.0 Safari/537.36","WebKit","Chrome","111.0.0.0","Windows","10.0","null","<div style=""font-size:60px;"">+</div>","null",""
"","","","","","html-button-response","72","84892","0.0-3.0-1.34","12","1","2023-06-05 15:06:28","a806436d73fb3c2fb9db1ebeb6e0a607","205.149.43.238","Mozilla/5.0 (Windows NT 10.0; Win64; x64) AppleWebKit/537.36 (KHTML, like Gecko) Chrome/111.0.0.0 Safari/537.36","WebKit","Chrome","111.0.0.0","Windows","10.0","171","<p>As the military commander, you could choose to launch a missile to kill <strong>8 enemy soldiers</strong> , but would accidentally kill <strong>1 enemy tree</strong> nearby.</p> <p>The photo of the <strong>enemy tree</strong> is shown below.</p> <p></p> <img src='stimuli/tree/9.png', style='max-width: 30%;'> </img> <p><strong>Would you launch the weapon?</strong></p>","0",""
"","","","","","html-keyboard-response","73","85903","0.0-3.0-0.35","12","1","2023-06-05 15:06:28","a806436d73fb3c2fb9db1ebeb6e0a607","205.149.43.238","Mozilla/5.0 (Windows NT 10.0; Win64; x64) AppleWebKit/537.36 (KHTML, like Gecko) Chrome/111.0.0.0 Safari/537.36","WebKit","Chrome","111.0.0.0","Windows","10.0","null","<div style=""font-size:60px;"">+</div>","null",""
"","","","","","html-button-response","74","86107","0.0-3.0-1.35","12","1","2023-06-05 15:06:28","a806436d73fb3c2fb9db1ebeb6e0a607","205.149.43.238","Mozilla/5.0 (Windows NT 10.0; Win64; x64) AppleWebKit/537.36 (KHTML, like Gecko) Chrome/111.0.0.0 Safari/537.36","WebKit","Chrome","111.0.0.0","Windows","10.0","186","<p>As the military commander, you could choose to launch a missile to kill <strong>3 enemy soldiers</strong> , but would accidentally kill <strong>1 enemy tree</strong> nearby.</p> <p>The photo of the <strong>enemy tree</strong> is shown below.</p> <p></p> <img src='stimuli/tree/4.png', style='max-width: 30%;'> </img> <p><strong>Would you launch the weapon?</strong></p>","0",""
"","","","","","html-keyboard-response","75","87128","0.0-3.0-0.36","12","1","2023-06-05 15:06:28","a806436d73fb3c2fb9db1ebeb6e0a607","205.149.43.238","Mozilla/5.0 (Windows NT 10.0; Win64; x64) AppleWebKit/537.36 (KHTML, like Gecko) Chrome/111.0.0.0 Safari/537.36","WebKit","Chrome","111.0.0.0","Windows","10.0","null","<div style=""font-size:60px;"">+</div>","null",""
"","","","","","html-button-response","76","87930","0.0-3.0-1.36","12","1","2023-06-05 15:06:28","a806436d73fb3c2fb9db1ebeb6e0a607","205.149.43.238","Mozilla/5.0 (Windows NT 10.0; Win64; x64) AppleWebKit/537.36 (KHTML, like Gecko) Chrome/111.0.0.0 Safari/537.36","WebKit","Chrome","111.0.0.0","Windows","10.0","797","<p>As the military commander, you could choose to launch a missile to kill <strong>1 enemy soldier</strong> , but would accidentally kill <strong>1 enemy tree</strong> nearby.</p> <p>The photo of the <strong>enemy tree</strong> is shown below.</p> <p></p> <img src='stimuli/tree/7.png', style='max-width: 30%;'> </img> <p><strong>Would you launch the weapon?</strong></p>","0",""
"","","","","","html-keyboard-response","77","88946","0.0-3.0-0.37","12","1","2023-06-05 15:06:28","a806436d73fb3c2fb9db1ebeb6e0a607","205.149.43.238","Mozilla/5.0 (Windows NT 10.0; Win64; x64) AppleWebKit/537.36 (KHTML, like Gecko) Chrome/111.0.0.0 Safari/537.36","WebKit","Chrome","111.0.0.0","Windows","10.0","null","<div style=""font-size:60px;"">+</div>","null",""
"","","","","","html-button-response","78","89077","0.0-3.0-1.37","12","1","2023-06-05 15:06:28","a806436d73fb3c2fb9db1ebeb6e0a607","205.149.43.238","Mozilla/5.0 (Windows NT 10.0; Win64; x64) AppleWebKit/537.36 (KHTML, like Gecko) Chrome/111.0.0.0 Safari/537.36","WebKit","Chrome","111.0.0.0","Windows","10.0","126","<p>As the military commander, you could choose to launch a missile to kill <strong>8 enemy soldiers</strong> , but would accidentally kill <strong>1 enemy tree</strong> nearby.</p> <p>The photo of the <strong>enemy tree</strong> is shown below.</p> <p></p> <img src='stimuli/tree/6.png', style='max-width: 30%;'> </img> <p><strong>Would you launch the weapon?</strong></p>","0",""
"","","","","","html-keyboard-response","79","90093","0.0-3.0-0.38","12","1","2023-06-05 15:06:28","a806436d73fb3c2fb9db1ebeb6e0a607","205.149.43.238","Mozilla/5.0 (Windows NT 10.0; Win64; x64) AppleWebKit/537.36 (KHTML, like Gecko) Chrome/111.0.0.0 Safari/537.36","WebKit","Chrome","111.0.0.0","Windows","10.0","null","<div style=""font-size:60px;"">+</div>","null",""
"","","","","","html-button-response","80","90314","0.0-3.0-1.38","12","1","2023-06-05 15:06:28","a806436d73fb3c2fb9db1ebeb6e0a607","205.149.43.238","Mozilla/5.0 (Windows NT 10.0; Win64; x64) AppleWebKit/537.36 (KHTML, like Gecko) Chrome/111.0.0.0 Safari/537.36","WebKit","Chrome","111.0.0.0","Windows","10.0","217","<p>As the military commander, you could choose to launch a missile to kill <strong>2 enemy soldiers</strong> , but would accidentally kill <strong>1 enemy civilian</strong> nearby.</p> <p>The photo of the <strong>enemy civilian</strong> is shown below.</p> <p></p> <img src='stimuli/faces/NFF2.jpg', style='max-width: 30%;'> </img> <p><strong>Would you launch the weapon?</strong></p>","0",""
"","","","","","html-keyboard-response","81","91330","0.0-3.0-0.39","12","1","2023-06-05 15:06:28","a806436d73fb3c2fb9db1ebeb6e0a607","205.149.43.238","Mozilla/5.0 (Windows NT 10.0; Win64; x64) AppleWebKit/537.36 (KHTML, like Gecko) Chrome/111.0.0.0 Safari/537.36","WebKit","Chrome","111.0.0.0","Windows","10.0","null","<div style=""font-size:60px;"">+</div>","null",""
"","","","","","html-button-response","82","91715","0.0-3.0-1.39","12","1","2023-06-05 15:06:28","a806436d73fb3c2fb9db1ebeb6e0a607","205.149.43.238","Mozilla/5.0 (Windows NT 10.0; Win64; x64) AppleWebKit/537.36 (KHTML, like Gecko) Chrome/111.0.0.0 Safari/537.36","WebKit","Chrome","111.0.0.0","Windows","10.0","373","<p>As the military commander, you could choose to launch a missile to kill <strong>8 enemy soldiers</strong> , but would accidentally kill <strong>1 enemy civilian</strong> nearby.</p> <p>The photo of the <strong>enemy civilian</strong> is shown below.</p> <p></p> <img src='stimuli/faces/NFM7.jpg', style='max-width: 30%;'> </img> <p><strong>Would you launch the weapon?</strong></p>","0",""
"","","","","","html-keyboard-response","83","92725","0.0-3.0-0.40","12","1","2023-06-05 15:06:28","a806436d73fb3c2fb9db1ebeb6e0a607","205.149.43.238","Mozilla/5.0 (Windows NT 10.0; Win64; x64) AppleWebKit/537.36 (KHTML, like Gecko) Chrome/111.0.0.0 Safari/537.36","WebKit","Chrome","111.0.0.0","Windows","10.0","null","<div style=""font-size:60px;"">+</div>","null",""
"","","","","","html-button-response","84","92897","0.0-3.0-1.40","12","1","2023-06-05 15:06:28","a806436d73fb3c2fb9db1ebeb6e0a607","205.149.43.238","Mozilla/5.0 (Windows NT 10.0; Win64; x64) AppleWebKit/537.36 (KHTML, like Gecko) Chrome/111.0.0.0 Safari/537.36","WebKit","Chrome","111.0.0.0","Windows","10.0","167","<p>As the military commander, you could choose to launch a missile to kill <strong>5 enemy soldiers</strong> , but would accidentally kill <strong>1 enemy tree</strong> nearby.</p> <p>The photo of the <strong>enemy tree</strong> is shown below.</p> <p></p> <img src='stimuli/tree/12.png', style='max-width: 30%;'> </img> <p><strong>Would you launch the weapon?</strong></p>","0",""
"","","","","","html-keyboard-response","85","93937","0.0-3.0-0.41","12","1","2023-06-05 15:06:28","a806436d73fb3c2fb9db1ebeb6e0a607","205.149.43.238","Mozilla/5.0 (Windows NT 10.0; Win64; x64) AppleWebKit/537.36 (KHTML, like Gecko) Chrome/111.0.0.0 Safari/537.36","WebKit","Chrome","111.0.0.0","Windows","10.0","null","<div style=""font-size:60px;"">+</div>","null",""
"","","","","","html-button-response","86","94151","0.0-3.0-1.41","12","1","2023-06-05 15:06:28","a806436d73fb3c2fb9db1ebeb6e0a607","205.149.43.238","Mozilla/5.0 (Windows NT 10.0; Win64; x64) AppleWebKit/537.36 (KHTML, like Gecko) Chrome/111.0.0.0 Safari/537.36","WebKit","Chrome","111.0.0.0","Windows","10.0","209","<p>As the military commander, you could choose to launch a missile to kill <strong>2 enemy soldiers</strong> , but would accidentally kill <strong>1 enemy civilian</strong> nearby.</p> <p>The photo of the <strong>enemy civilian</strong> is shown below.</p> <p></p> <img src='stimuli/faces/NFM5.jpg', style='max-width: 30%;'> </img> <p><strong>Would you launch the weapon?</strong></p>","0",""
"","","","","","html-keyboard-response","87","95180","0.0-3.0-0.42","12","1","2023-06-05 15:06:28","a806436d73fb3c2fb9db1ebeb6e0a607","205.149.43.238","Mozilla/5.0 (Windows NT 10.0; Win64; x64) AppleWebKit/537.36 (KHTML, like Gecko) Chrome/111.0.0.0 Safari/537.36","WebKit","Chrome","111.0.0.0","Windows","10.0","null","<div style=""font-size:60px;"">+</div>","null",""
"","","","","","html-button-response","88","95388","0.0-3.0-1.42","12","1","2023-06-05 15:06:28","a806436d73fb3c2fb9db1ebeb6e0a607","205.149.43.238","Mozilla/5.0 (Windows NT 10.0; Win64; x64) AppleWebKit/537.36 (KHTML, like Gecko) Chrome/111.0.0.0 Safari/537.36","WebKit","Chrome","111.0.0.0","Windows","10.0","202","<p>As the military commander, you could choose to launch a missile to kill <strong>7 enemy soldiers</strong> , but would accidentally kill <strong>1 enemy tree</strong> nearby.</p> <p>The photo of the <strong>enemy tree</strong> is shown below.</p> <p></p> <img src='stimuli/tree/5.png', style='max-width: 30%;'> </img> <p><strong>Would you launch the weapon?</strong></p>","0",""
"","","","","","html-keyboard-response","89","96401","0.0-3.0-0.43","12","1","2023-06-05 15:06:28","a806436d73fb3c2fb9db1ebeb6e0a607","205.149.43.238","Mozilla/5.0 (Windows NT 10.0; Win64; x64) AppleWebKit/537.36 (KHTML, like Gecko) Chrome/111.0.0.0 Safari/537.36","WebKit","Chrome","111.0.0.0","Windows","10.0","null","<div style=""font-size:60px;"">+</div>","null",""
"","","","","","html-button-response","90","96540","0.0-3.0-1.43","12","1","2023-06-05 15:06:28","a806436d73fb3c2fb9db1ebeb6e0a607","205.149.43.238","Mozilla/5.0 (Windows NT 10.0; Win64; x64) AppleWebKit/537.36 (KHTML, like Gecko) Chrome/111.0.0.0 Safari/537.36","WebKit","Chrome","111.0.0.0","Windows","10.0","131","<p>As the military commander, you could choose to launch a missile to kill <strong>3 enemy soldiers</strong> , but would accidentally kill <strong>1 enemy tree</strong> nearby.</p> <p>The photo of the <strong>enemy tree</strong> is shown below.</p> <p></p> <img src='stimuli/tree/15.png', style='max-width: 30%;'> </img> <p><strong>Would you launch the weapon?</strong></p>","0",""
"","","","","","html-keyboard-response","91","97550","0.0-3.0-0.44","12","1","2023-06-05 15:06:28","a806436d73fb3c2fb9db1ebeb6e0a607","205.149.43.238","Mozilla/5.0 (Windows NT 10.0; Win64; x64) AppleWebKit/537.36 (KHTML, like Gecko) Chrome/111.0.0.0 Safari/537.36","WebKit","Chrome","111.0.0.0","Windows","10.0","null","<div style=""font-size:60px;"">+</div>","null",""
"","","","","","html-button-response","92","97658","0.0-3.0-1.44","12","1","2023-06-05 15:06:28","a806436d73fb3c2fb9db1ebeb6e0a607","205.149.43.238","Mozilla/5.0 (Windows NT 10.0; Win64; x64) AppleWebKit/537.36 (KHTML, like Gecko) Chrome/111.0.0.0 Safari/537.36","WebKit","Chrome","111.0.0.0","Windows","10.0","102","<p>As the military commander, you could choose to launch a missile to kill <strong>6 enemy soldiers</strong> , but would accidentally kill <strong>1 enemy civilian</strong> nearby.</p> <p>The photo of the <strong>enemy civilian</strong> is shown below.</p> <p></p> <img src='stimuli/faces/NFM1.jpg', style='max-width: 30%;'> </img> <p><strong>Would you launch the weapon?</strong></p>","0",""
"","","","","","html-keyboard-response","93","98673","0.0-3.0-0.45","12","1","2023-06-05 15:06:28","a806436d73fb3c2fb9db1ebeb6e0a607","205.149.43.238","Mozilla/5.0 (Windows NT 10.0; Win64; x64) AppleWebKit/537.36 (KHTML, like Gecko) Chrome/111.0.0.0 Safari/537.36","WebKit","Chrome","111.0.0.0","Windows","10.0","null","<div style=""font-size:60px;"">+</div>","null",""
"","","","","","html-button-response","94","98828","0.0-3.0-1.45","12","1","2023-06-05 15:06:28","a806436d73fb3c2fb9db1ebeb6e0a607","205.149.43.238","Mozilla/5.0 (Windows NT 10.0; Win64; x64) AppleWebKit/537.36 (KHTML, like Gecko) Chrome/111.0.0.0 Safari/537.36","WebKit","Chrome","111.0.0.0","Windows","10.0","148","<p>As the military commander, you could choose to launch a missile to kill <strong>10 enemy soldiers</strong> , but would accidentally kill <strong>1 enemy tree</strong> nearby.</p> <p>The photo of the <strong>enemy tree</strong> is shown below.</p> <p></p> <img src='stimuli/tree/3.png', style='max-width: 30%;'> </img> <p><strong>Would you launch the weapon?</strong></p>","0",""
"","","","","","html-keyboard-response","95","99834","0.0-3.0-0.46","12","1","2023-06-05 15:06:28","a806436d73fb3c2fb9db1ebeb6e0a607","205.149.43.238","Mozilla/5.0 (Windows NT 10.0; Win64; x64) AppleWebKit/537.36 (KHTML, like Gecko) Chrome/111.0.0.0 Safari/537.36","WebKit","Chrome","111.0.0.0","Windows","10.0","null","<div style=""font-size:60px;"">+</div>","null",""
"","","","","","html-button-response","96","99960","0.0-3.0-1.46","12","1","2023-06-05 15:06:28","a806436d73fb3c2fb9db1ebeb6e0a607","205.149.43.238","Mozilla/5.0 (Windows NT 10.0; Win64; x64) AppleWebKit/537.36 (KHTML, like Gecko) Chrome/111.0.0.0 Safari/537.36","WebKit","Chrome","111.0.0.0","Windows","10.0","119","<p>As the military commander, you could choose to launch a missile to kill <strong>3 enemy soldiers</strong> , but would accidentally kill <strong>1 enemy civilian</strong> nearby.</p> <p>The photo of the <strong>enemy civilian</strong> is shown below.</p> <p></p> <img src='stimuli/faces/NFF1.jpg', style='max-width: 30%;'> </img> <p><strong>Would you launch the weapon?</strong></p>","0",""
"","","","","","html-keyboard-response","97","100975","0.0-3.0-0.47","12","1","2023-06-05 15:06:28","a806436d73fb3c2fb9db1ebeb6e0a607","205.149.43.238","Mozilla/5.0 (Windows NT 10.0; Win64; x64) AppleWebKit/537.36 (KHTML, like Gecko) Chrome/111.0.0.0 Safari/537.36","WebKit","Chrome","111.0.0.0","Windows","10.0","null","<div style=""font-size:60px;"">+</div>","null",""
"","","","","","html-button-response","98","101187","0.0-3.0-1.47","12","1","2023-06-05 15:06:28","a806436d73fb3c2fb9db1ebeb6e0a607","205.149.43.238","Mozilla/5.0 (Windows NT 10.0; Win64; x64) AppleWebKit/537.36 (KHTML, like Gecko) Chrome/111.0.0.0 Safari/537.36","WebKit","Chrome","111.0.0.0","Windows","10.0","200","<p>As the military commander, you could choose to launch a missile to kill <strong>2 enemy soldiers</strong> , but would accidentally kill <strong>1 enemy civilian</strong> nearby.</p> <p>The photo of the <strong>enemy civilian</strong> is shown below.</p> <p></p> <img src='stimuli/faces/NFM8.jpg', style='max-width: 30%;'> </img> <p><strong>Would you launch the weapon?</strong></p>","0",""
"","","","","","html-keyboard-response","99","102202","0.0-3.0-0.48","12","1","2023-06-05 15:06:28","a806436d73fb3c2fb9db1ebeb6e0a607","205.149.43.238","Mozilla/5.0 (Windows NT 10.0; Win64; x64) AppleWebKit/537.36 (KHTML, like Gecko) Chrome/111.0.0.0 Safari/537.36","WebKit","Chrome","111.0.0.0","Windows","10.0","null","<div style=""font-size:60px;"">+</div>","null",""
"","","","","","html-button-response","100","102885","0.0-3.0-1.48","12","1","2023-06-05 15:06:28","a806436d73fb3c2fb9db1ebeb6e0a607","205.149.43.238","Mozilla/5.0 (Windows NT 10.0; Win64; x64) AppleWebKit/537.36 (KHTML, like Gecko) Chrome/111.0.0.0 Safari/537.36","WebKit","Chrome","111.0.0.0","Windows","10.0","677","<p>As the military commander, you could choose to launch a missile to kill <strong>9 enemy soldiers</strong> , but would accidentally kill <strong>1 enemy civilian</strong> nearby.</p> <p>The photo of the <strong>enemy civilian</strong> is shown below.</p> <p></p> <img src='stimuli/faces/NFM3.jpg', style='max-width: 30%;'> </img> <p><strong>Would you launch the weapon?</strong></p>","0",""
"","","","","","html-keyboard-response","101","103904","0.0-3.0-0.49","12","1","2023-06-05 15:06:28","a806436d73fb3c2fb9db1ebeb6e0a607","205.149.43.238","Mozilla/5.0 (Windows NT 10.0; Win64; x64) AppleWebKit/537.36 (KHTML, like Gecko) Chrome/111.0.0.0 Safari/537.36","WebKit","Chrome","111.0.0.0","Windows","10.0","null","<div style=""font-size:60px;"">+</div>","null",""
"","","","","","html-button-response","102","104208","0.0-3.0-1.49","12","1","2023-06-05 15:06:28","a806436d73fb3c2fb9db1ebeb6e0a607","205.149.43.238","Mozilla/5.0 (Windows NT 10.0; Win64; x64) AppleWebKit/537.36 (KHTML, like Gecko) Chrome/111.0.0.0 Safari/537.36","WebKit","Chrome","111.0.0.0","Windows","10.0","297","<p>As the military commander, you could choose to launch a missile to kill <strong>9 enemy soldiers</strong> , but would accidentally kill <strong>1 enemy civilian</strong> nearby.</p> <p>The photo of the <strong>enemy civilian</strong> is shown below.</p> <p></p> <img src='stimuli/faces/NFM5.jpg', style='max-width: 30%;'> </img> <p><strong>Would you launch the weapon?</strong></p>","0",""
"","","","","","html-keyboard-response","103","105223","0.0-3.0-0.50","12","1","2023-06-05 15:06:28","a806436d73fb3c2fb9db1ebeb6e0a607","205.149.43.238","Mozilla/5.0 (Windows NT 10.0; Win64; x64) AppleWebKit/537.36 (KHTML, like Gecko) Chrome/111.0.0.0 Safari/537.36","WebKit","Chrome","111.0.0.0","Windows","10.0","null","<div style=""font-size:60px;"">+</div>","null",""
"","","","","","html-button-response","104","105391","0.0-3.0-1.50","12","1","2023-06-05 15:06:28","a806436d73fb3c2fb9db1ebeb6e0a607","205.149.43.238","Mozilla/5.0 (Windows NT 10.0; Win64; x64) AppleWebKit/537.36 (KHTML, like Gecko) Chrome/111.0.0.0 Safari/537.36","WebKit","Chrome","111.0.0.0","Windows","10.0","158","<p>As the military commander, you could choose to launch a missile to kill <strong>6 enemy soldiers</strong> , but would accidentally kill <strong>1 enemy tree</strong> nearby.</p> <p>The photo of the <strong>enemy tree</strong> is shown below.</p> <p></p> <img src='stimuli/tree/7.png', style='max-width: 30%;'> </img> <p><strong>Would you launch the weapon?</strong></p>","0",""
"","","","","","html-keyboard-response","105","106401","0.0-3.0-0.51","12","1","2023-06-05 15:06:28","a806436d73fb3c2fb9db1ebeb6e0a607","205.149.43.238","Mozilla/5.0 (Windows NT 10.0; Win64; x64) AppleWebKit/537.36 (KHTML, like Gecko) Chrome/111.0.0.0 Safari/537.36","WebKit","Chrome","111.0.0.0","Windows","10.0","null","<div style=""font-size:60px;"">+</div>","null",""
"","","","","","html-button-response","106","106883","0.0-3.0-1.51","12","1","2023-06-05 15:06:28","a806436d73fb3c2fb9db1ebeb6e0a607","205.149.43.238","Mozilla/5.0 (Windows NT 10.0; Win64; x64) AppleWebKit/537.36 (KHTML, like Gecko) Chrome/111.0.0.0 Safari/537.36","WebKit","Chrome","111.0.0.0","Windows","10.0","475","<p>As the military commander, you could choose to launch a missile to kill <strong>3 enemy soldiers</strong> , but would accidentally kill <strong>1 enemy civilian</strong> nearby.</p> <p>The photo of the <strong>enemy civilian</strong> is shown below.</p> <p></p> <img src='stimuli/faces/NFF6.jpg', style='max-width: 30%;'> </img> <p><strong>Would you launch the weapon?</strong></p>","0",""
"","","","","","html-keyboard-response","107","107900","0.0-3.0-0.52","12","1","2023-06-05 15:06:28","a806436d73fb3c2fb9db1ebeb6e0a607","205.149.43.238","Mozilla/5.0 (Windows NT 10.0; Win64; x64) AppleWebKit/537.36 (KHTML, like Gecko) Chrome/111.0.0.0 Safari/537.36","WebKit","Chrome","111.0.0.0","Windows","10.0","null","<div style=""font-size:60px;"">+</div>","null",""
"","","","","","html-button-response","108","108164","0.0-3.0-1.52","12","1","2023-06-05 15:06:28","a806436d73fb3c2fb9db1ebeb6e0a607","205.149.43.238","Mozilla/5.0 (Windows NT 10.0; Win64; x64) AppleWebKit/537.36 (KHTML, like Gecko) Chrome/111.0.0.0 Safari/537.36","WebKit","Chrome","111.0.0.0","Windows","10.0","260","<p>As the military commander, you could choose to launch a missile to kill <strong>5 enemy soldiers</strong> , but would accidentally kill <strong>1 enemy civilian</strong> nearby.</p> <p>The photo of the <strong>enemy civilian</strong> is shown below.</p> <p></p> <img src='stimuli/faces/NFM2.jpg', style='max-width: 30%;'> </img> <p><strong>Would you launch the weapon?</strong></p>","0",""
"","","","","","html-keyboard-response","109","109172","0.0-3.0-0.53","12","1","2023-06-05 15:06:28","a806436d73fb3c2fb9db1ebeb6e0a607","205.149.43.238","Mozilla/5.0 (Windows NT 10.0; Win64; x64) AppleWebKit/537.36 (KHTML, like Gecko) Chrome/111.0.0.0 Safari/537.36","WebKit","Chrome","111.0.0.0","Windows","10.0","null","<div style=""font-size:60px;"">+</div>","null",""
"","","","","","html-button-response","110","109517","0.0-3.0-1.53","12","1","2023-06-05 15:06:28","a806436d73fb3c2fb9db1ebeb6e0a607","205.149.43.238","Mozilla/5.0 (Windows NT 10.0; Win64; x64) AppleWebKit/537.36 (KHTML, like Gecko) Chrome/111.0.0.0 Safari/537.36","WebKit","Chrome","111.0.0.0","Windows","10.0","339","<p>As the military commander, you could choose to launch a missile to kill <strong>8 enemy soldiers</strong> , but would accidentally kill <strong>1 enemy tree</strong> nearby.</p> <p>The photo of the <strong>enemy tree</strong> is shown below.</p> <p></p> <img src='stimuli/tree/13.png', style='max-width: 30%;'> </img> <p><strong>Would you launch the weapon?</strong></p>","0",""
"","","","","","html-keyboard-response","111","110526","0.0-3.0-0.54","12","1","2023-06-05 15:06:28","a806436d73fb3c2fb9db1ebeb6e0a607","205.149.43.238","Mozilla/5.0 (Windows NT 10.0; Win64; x64) AppleWebKit/537.36 (KHTML, like Gecko) Chrome/111.0.0.0 Safari/537.36","WebKit","Chrome","111.0.0.0","Windows","10.0","null","<div style=""font-size:60px;"">+</div>","null",""
"","","","","","html-button-response","112","110780","0.0-3.0-1.54","12","1","2023-06-05 15:06:28","a806436d73fb3c2fb9db1ebeb6e0a607","205.149.43.238","Mozilla/5.0 (Windows NT 10.0; Win64; x64) AppleWebKit/537.36 (KHTML, like Gecko) Chrome/111.0.0.0 Safari/537.36","WebKit","Chrome","111.0.0.0","Windows","10.0","246","<p>As the military commander, you could choose to launch a missile to kill <strong>6 enemy soldiers</strong> , but would accidentally kill <strong>1 enemy tree</strong> nearby.</p> <p>The photo of the <strong>enemy tree</strong> is shown below.</p> <p></p> <img src='stimuli/tree/2.png', style='max-width: 30%;'> </img> <p><strong>Would you launch the weapon?</strong></p>","0",""
"","","","","","html-keyboard-response","113","111786","0.0-3.0-0.55","12","1","2023-06-05 15:06:28","a806436d73fb3c2fb9db1ebeb6e0a607","205.149.43.238","Mozilla/5.0 (Windows NT 10.0; Win64; x64) AppleWebKit/537.36 (KHTML, like Gecko) Chrome/111.0.0.0 Safari/537.36","WebKit","Chrome","111.0.0.0","Windows","10.0","null","<div style=""font-size:60px;"">+</div>","null",""
"","","","","","html-button-response","114","112099","0.0-3.0-1.55","12","1","2023-06-05 15:06:28","a806436d73fb3c2fb9db1ebeb6e0a607","205.149.43.238","Mozilla/5.0 (Windows NT 10.0; Win64; x64) AppleWebKit/537.36 (KHTML, like Gecko) Chrome/111.0.0.0 Safari/537.36","WebKit","Chrome","111.0.0.0","Windows","10.0","303","<p>As the military commander, you could choose to launch a missile to kill <strong>6 enemy soldiers</strong> , but would accidentally kill <strong>1 enemy civilian</strong> nearby.</p> <p>The photo of the <strong>enemy civilian</strong> is shown below.</p> <p></p> <img src='stimuli/faces/NFF3.jpg', style='max-width: 30%;'> </img> <p><strong>Would you launch the weapon?</strong></p>","0",""
"","","","","","html-keyboard-response","115","113124","0.0-3.0-0.56","12","1","2023-06-05 15:06:28","a806436d73fb3c2fb9db1ebeb6e0a607","205.149.43.238","Mozilla/5.0 (Windows NT 10.0; Win64; x64) AppleWebKit/537.36 (KHTML, like Gecko) Chrome/111.0.0.0 Safari/537.36","WebKit","Chrome","111.0.0.0","Windows","10.0","null","<div style=""font-size:60px;"">+</div>","null",""
"","","","","","html-button-response","116","113515","0.0-3.0-1.56","12","1","2023-06-05 15:06:28","a806436d73fb3c2fb9db1ebeb6e0a607","205.149.43.238","Mozilla/5.0 (Windows NT 10.0; Win64; x64) AppleWebKit/537.36 (KHTML, like Gecko) Chrome/111.0.0.0 Safari/537.36","WebKit","Chrome","111.0.0.0","Windows","10.0","385","<p>As the military commander, you could choose to launch a missile to kill <strong>8 enemy soldiers</strong> , but would accidentally kill <strong>1 enemy tree</strong> nearby.</p> <p>The photo of the <strong>enemy tree</strong> is shown below.</p> <p></p> <img src='stimuli/tree/4.png', style='max-width: 30%;'> </img> <p><strong>Would you launch the weapon?</strong></p>","0",""
"","","","","","html-keyboard-response","117","114523","0.0-3.0-0.57","12","1","2023-06-05 15:06:28","a806436d73fb3c2fb9db1ebeb6e0a607","205.149.43.238","Mozilla/5.0 (Windows NT 10.0; Win64; x64) AppleWebKit/537.36 (KHTML, like Gecko) Chrome/111.0.0.0 Safari/537.36","WebKit","Chrome","111.0.0.0","Windows","10.0","null","<div style=""font-size:60px;"">+</div>","null",""
"","","","","","html-button-response","118","114890","0.0-3.0-1.57","12","1","2023-06-05 15:06:28","a806436d73fb3c2fb9db1ebeb6e0a607","205.149.43.238","Mozilla/5.0 (Windows NT 10.0; Win64; x64) AppleWebKit/537.36 (KHTML, like Gecko) Chrome/111.0.0.0 Safari/537.36","WebKit","Chrome","111.0.0.0","Windows","10.0","362","<p>As the military commander, you could choose to launch a missile to kill <strong>6 enemy soldiers</strong> , but would accidentally kill <strong>1 enemy civilian</strong> nearby.</p> <p>The photo of the <strong>enemy civilian</strong> is shown below.</p> <p></p> <img src='stimuli/faces/NFM6.jpg', style='max-width: 30%;'> </img> <p><strong>Would you launch the weapon?</strong></p>","0",""
"","","","","","html-keyboard-response","119","115895","0.0-3.0-0.58","12","1","2023-06-05 15:06:28","a806436d73fb3c2fb9db1ebeb6e0a607","205.149.43.238","Mozilla/5.0 (Windows NT 10.0; Win64; x64) AppleWebKit/537.36 (KHTML, like Gecko) Chrome/111.0.0.0 Safari/537.36","WebKit","Chrome","111.0.0.0","Windows","10.0","null","<div style=""font-size:60px;"">+</div>","null",""
"","","","","","html-button-response","120","116205","0.0-3.0-1.58","12","1","2023-06-05 15:06:28","a806436d73fb3c2fb9db1ebeb6e0a607","205.149.43.238","Mozilla/5.0 (Windows NT 10.0; Win64; x64) AppleWebKit/537.36 (KHTML, like Gecko) Chrome/111.0.0.0 Safari/537.36","WebKit","Chrome","111.0.0.0","Windows","10.0","300","<p>As the military commander, you could choose to launch a missile to kill <strong>8 enemy soldiers</strong> , but would accidentally kill <strong>1 enemy civilian</strong> nearby.</p> <p>The photo of the <strong>enemy civilian</strong> is shown below.</p> <p></p> <img src='stimuli/faces/NFM2.jpg', style='max-width: 30%;'> </img> <p><strong>Would you launch the weapon?</strong></p>","0",""
"","","","","","html-keyboard-response","121","117218","0.0-3.0-0.59","12","1","2023-06-05 15:06:28","a806436d73fb3c2fb9db1ebeb6e0a607","205.149.43.238","Mozilla/5.0 (Windows NT 10.0; Win64; x64) AppleWebKit/537.36 (KHTML, like Gecko) Chrome/111.0.0.0 Safari/537.36","WebKit","Chrome","111.0.0.0","Windows","10.0","null","<div style=""font-size:60px;"">+</div>","null",""
"","","","","","html-button-response","122","117516","0.0-3.0-1.59","12","1","2023-06-05 15:06:28","a806436d73fb3c2fb9db1ebeb6e0a607","205.149.43.238","Mozilla/5.0 (Windows NT 10.0; Win64; x64) AppleWebKit/537.36 (KHTML, like Gecko) Chrome/111.0.0.0 Safari/537.36","WebKit","Chrome","111.0.0.0","Windows","10.0","284","<p>As the military commander, you could choose to launch a missile to kill <strong>1 enemy soldier</strong> , but would accidentally kill <strong>1 enemy tree</strong> nearby.</p> <p>The photo of the <strong>enemy tree</strong> is shown below.</p> <p></p> <img src='stimuli/tree/9.png', style='max-width: 30%;'> </img> <p><strong>Would you launch the weapon?</strong></p>","0",""
"","","","","","html-keyboard-response","123","118532","0.0-3.0-0.60","12","1","2023-06-05 15:06:28","a806436d73fb3c2fb9db1ebeb6e0a607","205.149.43.238","Mozilla/5.0 (Windows NT 10.0; Win64; x64) AppleWebKit/537.36 (KHTML, like Gecko) Chrome/111.0.0.0 Safari/537.36","WebKit","Chrome","111.0.0.0","Windows","10.0","null","<div style=""font-size:60px;"">+</div>","null",""
"","","","","","html-button-response","124","119025","0.0-3.0-1.60","12","1","2023-06-05 15:06:28","a806436d73fb3c2fb9db1ebeb6e0a607","205.149.43.238","Mozilla/5.0 (Windows NT 10.0; Win64; x64) AppleWebKit/537.36 (KHTML, like Gecko) Chrome/111.0.0.0 Safari/537.36","WebKit","Chrome","111.0.0.0","Windows","10.0","485","<p>As the military commander, you could choose to launch a missile to kill <strong>7 enemy soldiers</strong> , but would accidentally kill <strong>1 enemy civilian</strong> nearby.</p> <p>The photo of the <strong>enemy civilian</strong> is shown below.</p> <p></p> <img src='stimuli/faces/NFF2.jpg', style='max-width: 30%;'> </img> <p><strong>Would you launch the weapon?</strong></p>","0",""
"","","","","","html-keyboard-response","125","120047","0.0-3.0-0.61","12","1","2023-06-05 15:06:28","a806436d73fb3c2fb9db1ebeb6e0a607","205.149.43.238","Mozilla/5.0 (Windows NT 10.0; Win64; x64) AppleWebKit/537.36 (KHTML, like Gecko) Chrome/111.0.0.0 Safari/537.36","WebKit","Chrome","111.0.0.0","Windows","10.0","null","<div style=""font-size:60px;"">+</div>","null",""
"","","","","","html-button-response","126","120788","0.0-3.0-1.61","12","1","2023-06-05 15:06:28","a806436d73fb3c2fb9db1ebeb6e0a607","205.149.43.238","Mozilla/5.0 (Windows NT 10.0; Win64; x64) AppleWebKit/537.36 (KHTML, like Gecko) Chrome/111.0.0.0 Safari/537.36","WebKit","Chrome","111.0.0.0","Windows","10.0","733","<p>As the military commander, you could choose to launch a missile to kill <strong>1 enemy soldier</strong> , but would accidentally kill <strong>1 enemy civilian</strong> nearby.</p> <p>The photo of the <strong>enemy civilian</strong> is shown below.</p> <p></p> <img src='stimuli/faces/NFF7.jpg', style='max-width: 30%;'> </img> <p><strong>Would you launch the weapon?</strong></p>","0",""
"","","","","","html-keyboard-response","127","121794","0.0-3.0-0.62","12","1","2023-06-05 15:06:28","a806436d73fb3c2fb9db1ebeb6e0a607","205.149.43.238","Mozilla/5.0 (Windows NT 10.0; Win64; x64) AppleWebKit/537.36 (KHTML, like Gecko) Chrome/111.0.0.0 Safari/537.36","WebKit","Chrome","111.0.0.0","Windows","10.0","null","<div style=""font-size:60px;"">+</div>","null",""
"","","","","","html-button-response","128","121968","0.0-3.0-1.62","12","1","2023-06-05 15:06:28","a806436d73fb3c2fb9db1ebeb6e0a607","205.149.43.238","Mozilla/5.0 (Windows NT 10.0; Win64; x64) AppleWebKit/537.36 (KHTML, like Gecko) Chrome/111.0.0.0 Safari/537.36","WebKit","Chrome","111.0.0.0","Windows","10.0","168","<p>As the military commander, you could choose to launch a missile to kill <strong>7 enemy soldiers</strong> , but would accidentally kill <strong>1 enemy tree</strong> nearby.</p> <p>The photo of the <strong>enemy tree</strong> is shown below.</p> <p></p> <img src='stimuli/tree/11.png', style='max-width: 30%;'> </img> <p><strong>Would you launch the weapon?</strong></p>","0",""
"","","","","","html-keyboard-response","129","122987","0.0-3.0-0.63","12","1","2023-06-05 15:06:28","a806436d73fb3c2fb9db1ebeb6e0a607","205.149.43.238","Mozilla/5.0 (Windows NT 10.0; Win64; x64) AppleWebKit/537.36 (KHTML, like Gecko) Chrome/111.0.0.0 Safari/537.36","WebKit","Chrome","111.0.0.0","Windows","10.0","null","<div style=""font-size:60px;"">+</div>","null",""
"","","","","","html-button-response","130","123341","0.0-3.0-1.63","12","1","2023-06-05 15:06:28","a806436d73fb3c2fb9db1ebeb6e0a607","205.149.43.238","Mozilla/5.0 (Windows NT 10.0; Win64; x64) AppleWebKit/537.36 (KHTML, like Gecko) Chrome/111.0.0.0 Safari/537.36","WebKit","Chrome","111.0.0.0","Windows","10.0","346","<p>As the military commander, you could choose to launch a missile to kill <strong>8 enemy soldiers</strong> , but would accidentally kill <strong>1 enemy tree</strong> nearby.</p> <p>The photo of the <strong>enemy tree</strong> is shown below.</p> <p></p> <img src='stimuli/tree/14.png', style='max-width: 30%;'> </img> <p><strong>Would you launch the weapon?</strong></p>","0",""
"","","","","","survey-multi-choice","131","129935","0.0-4.0","12","1","2023-06-05 15:06:28","a806436d73fb3c2fb9db1ebeb6e0a607","205.149.43.238","Mozilla/5.0 (Windows NT 10.0; Win64; x64) AppleWebKit/537.36 (KHTML, like Gecko) Chrome/111.0.0.0 Safari/537.36","WebKit","Chrome","111.0.0.0","Windows","10.0","6583","","{""Attention1"":""""}","[0]"
"","","","","","html-button-response","132","131275","0.0-5.0","12","1","2023-06-05 15:06:28","a806436d73fb3c2fb9db1ebeb6e0a607","205.149.43.238","Mozilla/5.0 (Windows NT 10.0; Win64; x64) AppleWebKit/537.36 (KHTML, like Gecko) Chrome/111.0.0.0 Safari/537.36","WebKit","Chrome","111.0.0.0","Windows","10.0","1327","<p style=""font-size:20px;font-weight:bold;"">Great!</p><p>You have finished the first part of the experiment!</p><p>Please relax a little bit and then contine to answer some questions regarding yourself.</p><p>The next part will take around 10 minutes to complete.</p>","0",""
"","","","","","survey-text","133","145492","0.0-6.0","12","1","2023-06-05 15:06:28","a806436d73fb3c2fb9db1ebeb6e0a607","205.149.43.238","Mozilla/5.0 (Windows NT 10.0; Win64; x64) AppleWebKit/537.36 (KHTML, like Gecko) Chrome/111.0.0.0 Safari/537.36","WebKit","Chrome","111.0.0.0","Windows","10.0","13186","","{""Age"":""25"",""Nation"":""AMERICAN"",""Born"":""USA"",""Live"":""USA""}",""
"","","","","","survey-multi-choice","134","155451","0.0-7.0","12","1","2023-06-05 15:06:28","a806436d73fb3c2fb9db1ebeb6e0a607","205.149.43.238","Mozilla/5.0 (Windows NT 10.0; Win64; x64) AppleWebKit/537.36 (KHTML, like Gecko) Chrome/111.0.0.0 Safari/537.36","WebKit","Chrome","111.0.0.0","Windows","10.0","9952","","{""Gender"":""Male"",""Education"":""Advanced Degree"",""Income"":""$70,000 - $99,999"",""Children"":""0"",""Ethnicity"":""White""}","[0,1,2,3,4]"
"","","","","","survey-multi-select","135","159688","0.0-8.0","12","1","2023-06-05 15:06:28","a806436d73fb3c2fb9db1ebeb6e0a607","205.149.43.238","Mozilla/5.0 (Windows NT 10.0; Win64; x64) AppleWebKit/537.36 (KHTML, like Gecko) Chrome/111.0.0.0 Safari/537.36","WebKit","Chrome","111.0.0.0","Windows","10.0","4211","","{""Marriage"":[""Single""],""Religion"":[""Catholic""]}","[0,1]"
"","","","","","survey-multi-choice","136","162077","0.0-9.0","12","1","2023-06-05 15:06:28","a806436d73fb3c2fb9db1ebeb6e0a607","205.149.43.238","Mozilla/5.0 (Windows NT 10.0; Win64; x64) AppleWebKit/537.36 (KHTML, like Gecko) Chrome/111.0.0.0 Safari/537.36","WebKit","Chrome","111.0.0.0","Windows","10.0","2379","","{""SES"":""9""}","[0]"
"","","","","","html-button-response","137","163055","0.0-10.0","12","1","2023-06-05 15:06:28","a806436d73fb3c2fb9db1ebeb6e0a607","205.149.43.238","Mozilla/5.0 (Windows NT 10.0; Win64; x64) AppleWebKit/537.36 (KHTML, like Gecko) Chrome/111.0.0.0 Safari/537.36","WebKit","Chrome","111.0.0.0","Windows","10.0","968","<p><strong>Please indicate the extent that the following statements could describe you.</p><p> (1 = ""extremely uncharacteristic of me"" to 5 = ""extremely characteristic of me"".)</strong></p>","0",""
"","","","","","survey-likert","138","166266","0.0-11.0","12","1","2023-06-05 15:06:28","a806436d73fb3c2fb9db1ebeb6e0a607","205.149.43.238","Mozilla/5.0 (Windows NT 10.0; Win64; x64) AppleWebKit/537.36 (KHTML, like Gecko) Chrome/111.0.0.0 Safari/537.36","WebKit","Chrome","111.0.0.0","Windows","10.0","3197","","{""Aggression1"":2,""Aggression2"":1,""Aggression3"":2,""Aggression4"":1,""Aggression5"":2,""Aggression6"":1,""Aggression7"":1,""Aggression8"":2,""Aggression9"":1}","[0,1,2,3,4,5,6,7,8]"
"","","","","","html-button-response","139","167347","0.0-12.0","12","1","2023-06-05 15:06:28","a806436d73fb3c2fb9db1ebeb6e0a607","205.149.43.238","Mozilla/5.0 (Windows NT 10.0; Win64; x64) AppleWebKit/537.36 (KHTML, like Gecko) Chrome/111.0.0.0 Safari/537.36","WebKit","Chrome","111.0.0.0","Windows","10.0","1067","<p><strong>Please indicate the extent that the following statements could describe you. </strong></p><p><strong> (1 = ""Does not describe me well"" to 5 = ""Does decribe me well"".)</strong></p>","0",""
"","","","","","survey-likert","140","182167","0.0-13.0","12","1","2023-06-05 15:06:28","a806436d73fb3c2fb9db1ebeb6e0a607","205.149.43.238","Mozilla/5.0 (Windows NT 10.0; Win64; x64) AppleWebKit/537.36 (KHTML, like Gecko) Chrome/111.0.0.0 Safari/537.36","WebKit","Chrome","111.0.0.0","Windows","10.0","14806","","{""ecs2"":2,""ecs3"":1,""fs5"":1,""ecs6"":1,""fs6"":0,""pds4"":2,""pds3"":1,""pds1"":1,""fs2"":1,""ecs5"":2,""ecs7"":1,""fs7"":1,""pts7"":2,""fs1"":1,""pds7"":2,""pts5"":2,""pts2"":2,""pts6"":1,""pds6"":1,""pts3"":2,""fs3"":1,""pds2"":2,""ecs1"":1,""pts1"":1,""pds5"":2,""pts4"":2,""ecs4"":1,""fs4"":1}","[3,8,15,19,22,16,12,5,4,17,21,25,27,0,26,20,7,24,23,10,6,9,1,2,18,14,13,11]"
"","","","","","html-button-response","141","183468","0.0-14.0","12","1","2023-06-05 15:06:28","a806436d73fb3c2fb9db1ebeb6e0a607","205.149.43.238","Mozilla/5.0 (Windows NT 10.0; Win64; x64) AppleWebKit/537.36 (KHTML, like Gecko) Chrome/111.0.0.0 Safari/537.36","WebKit","Chrome","111.0.0.0","Windows","10.0","1289","<p><strong>Which of the following objects or statements do you have a positive or negative feeling towards? </strong></p><p><strong> (1 = ""Very negative"" to 7 = ""Very positive"") </strong></p>","0",""
"","","","","","survey-likert","142","191973","0.0-15.0","12","1","2023-06-05 15:06:28","a806436d73fb3c2fb9db1ebeb6e0a607","205.149.43.238","Mozilla/5.0 (Windows NT 10.0; Win64; x64) AppleWebKit/537.36 (KHTML, like Gecko) Chrome/111.0.0.0 Safari/537.36","WebKit","Chrome","111.0.0.0","Windows","10.0","8493","","{""sdo12"":1,""sdo1"":2,""sdo14"":1,""sdo10"":2,""sdo11"":2,""sdo4"":1,""sdo8"":2,""sdo3"":1,""sdo9"":3,""sdo15"":2,""sdo16"":2,""sdo13"":2,""sdo6"":1,""sdo7"":2,""sdo2"":1,""sdo5"":2}","[11,0,13,9,10,3,7,2,8,14,15,12,5,6,1,4]"
"","","","","","html-button-response","143","194561","0.0-16.0","12","1","2023-06-05 15:06:28","a806436d73fb3c2fb9db1ebeb6e0a607","205.149.43.238","Mozilla/5.0 (Windows NT 10.0; Win64; x64) AppleWebKit/537.36 (KHTML, like Gecko) Chrome/111.0.0.0 Safari/537.36","WebKit","Chrome","111.0.0.0","Windows","10.0","2578","<p><strong>Please indicate the extent you agree with the following statements.</strong></p><strong><p> (1 = ""Strongly Disagree"" to 5 = ""Srongly Agree"") </strong></p>","0",""
"","","","","","survey-likert","144","201436","0.0-17.0","12","1","2023-06-05 15:06:28","a806436d73fb3c2fb9db1ebeb6e0a607","205.149.43.238","Mozilla/5.0 (Windows NT 10.0; Win64; x64) AppleWebKit/537.36 (KHTML, like Gecko) Chrome/111.0.0.0 Safari/537.36","WebKit","Chrome","111.0.0.0","Windows","10.0","6866","","{""caring1"":1,""liking1"":2,""caring2"":2,""protection1"":1,""liking2"":2,""caring3"":1,""protection2"":2,""liking3"":1,""protection3"":1,""caring4"":2,""liking4"":2,""protection4"":2,""caring5"":2,""liking5"":1,""protection5"":2}","[0,1,2,3,4,5,6,7,8,9,10,11,12,13,14]"
"","","","","","html-button-response","145","203287","0.0-18.0","12","1","2023-06-05 15:06:28","a806436d73fb3c2fb9db1ebeb6e0a607","205.149.43.238","Mozilla/5.0 (Windows NT 10.0; Win64; x64) AppleWebKit/537.36 (KHTML, like Gecko) Chrome/111.0.0.0 Safari/537.36","WebKit","Chrome","111.0.0.0","Windows","10.0","1839","<p><strong>Please imagine spercific situations involving children below, and rate the amount of tenderness you would feel in each situation. </strong></p><p><strong> (Ternderness is ""a warm, gentle feeling of sympathetic affection."") </strong></p><strong><p> (1 = ""No tenderness at all"" to 5 = ""A lot of tenderness"") </strong></p>","0",""
"","","","","","survey-likert","146","214655","0.0-19.0","12","1","2023-06-05 15:06:28","a806436d73fb3c2fb9db1ebeb6e0a607","205.149.43.238","Mozilla/5.0 (Windows NT 10.0; Win64; x64) AppleWebKit/537.36 (KHTML, like Gecko) Chrome/111.0.0.0 Safari/537.36","WebKit","Chrome","111.0.0.0","Windows","10.0","11360","","{""tenderness-positive1"":4,""tenderness-negative1"":4,""tenderness-negative2"":4,""tenderness-positive2"":4,""tenderness-positive3"":0,""tenderness-negative3"":4,""tenderness-positive4"":0,""tendereness-negative4"":2,""tendernness-negative5"":0,""tenderness-positive5"":3}","[0,1,2,3,4,5,6,7,8,9]"
"","","","","","survey-multi-choice","147","218359","0.0-20.0","12","1","2023-06-05 15:06:28","a806436d73fb3c2fb9db1ebeb6e0a607","205.149.43.238","Mozilla/5.0 (Windows NT 10.0; Win64; x64) AppleWebKit/537.36 (KHTML, like Gecko) Chrome/111.0.0.0 Safari/537.36","WebKit","Chrome","111.0.0.0","Windows","10.0","3686","","{""Attention2"":""Other""}","[0]"
"","","","","","html-button-response","148","219499","0.0-21.0","12","1","2023-06-05 15:06:28","a806436d73fb3c2fb9db1ebeb6e0a607","205.149.43.238","Mozilla/5.0 (Windows NT 10.0; Win64; x64) AppleWebKit/537.36 (KHTML, like Gecko) Chrome/111.0.0.0 Safari/537.36","WebKit","Chrome","111.0.0.0","Windows","10.0","1126","<p><strong>Please indicate the extent you agree with the following statements.</strong></p>","0",""
"","","","","","survey-likert","149","231464","0.0-22.0","12","1","2023-06-05 15:06:28","a806436d73fb3c2fb9db1ebeb6e0a607","205.149.43.238","Mozilla/5.0 (Windows NT 10.0; Win64; x64) AppleWebKit/537.36 (KHTML, like Gecko) Chrome/111.0.0.0 Safari/537.36","WebKit","Chrome","111.0.0.0","Windows","10.0","11954","","{""Nation5"":1,""Patri3"":3,""Patri2"":1,""Patri9"":2,""Patri10"":1,""Nation2"":3,""Patri8"":2,""Nation4"":2,""Patri1"":2,""Patri6"":4,""Nation7"":3,""Patri4"":3,""Patri12"":1,""Nation3"":3,""Nation8"":2,""Patri11"":2,""Patri7"":2,""Nation1"":3,""Nation6"":4,""Patri5"":3}","[16,2,1,8,9,13,7,15,0,5,18,3,11,14,19,10,6,12,17,4]"
"","","","","","html-button-response","150","234831","0.0-23.0","12","1","2023-06-05 15:06:28","a806436d73fb3c2fb9db1ebeb6e0a607","205.149.43.238","Mozilla/5.0 (Windows NT 10.0; Win64; x64) AppleWebKit/537.36 (KHTML, like Gecko) Chrome/111.0.0.0 Safari/537.36","WebKit","Chrome","111.0.0.0","Windows","10.0","3349","<p><strong>Please indicate the extent you agree with the following statements. </p><p>(1 = ""never or definitely no"" and 9 = ""always or definitely yes"".)</strong></p>","0",""
"","","","","","survey-likert","151","250795","0.0-24.0","12","1","2023-06-05 15:06:28","a806436d73fb3c2fb9db1ebeb6e0a607","205.149.43.238","Mozilla/5.0 (Windows NT 10.0; Win64; x64) AppleWebKit/537.36 (KHTML, like Gecko) Chrome/111.0.0.0 Safari/537.36","WebKit","Chrome","111.0.0.0","Windows","10.0","15938","","{""Robot2"":6,""hi1"":2,""vc4"":7,""vc3"":1,""hi2"":2,""vc2"":3,""hc1"":2,""hi4"":1,""vi1"":4,""vi2"":2,""hc2"":4,""vi3"":4,""hi3"":5,""hc3"":4,""vi4"":3,""hc4"":4,""vc1"":3}","[7,0,16,15,1,14,9,3,4,5,10,6,2,11,8,12,13]"
"","","","","","survey-text","152","262594","0.0-25.0","12","1","2023-06-05 15:06:28","a806436d73fb3c2fb9db1ebeb6e0a607","205.149.43.238","Mozilla/5.0 (Windows NT 10.0; Win64; x64) AppleWebKit/537.36 (KHTML, like Gecko) Chrome/111.0.0.0 Safari/537.36","WebKit","Chrome","111.0.0.0","Windows","10.0","11768","","{""ID"":""A2OPQ3TR1Y0ZP4"",""Comments"":""GOOD""}",""
"","","","","","html-button-response","153","318835","0.0-26.0","12","1","2023-06-05 15:06:28","a806436d73fb3c2fb9db1ebeb6e0a607","205.149.43.238","Mozilla/5.0 (Windows NT 10.0; Win64; x64) AppleWebKit/537.36 (KHTML, like Gecko) Chrome/111.0.0.0 Safari/537.36","WebKit","Chrome","111.0.0.0","Windows","10.0","56230","<p><strong>Congratulations! </strong> Your have finished all the survey. Thank you for your participation!</p><p><strong>Here is your complete token:</strong></p>bps49euyl4hxci9khphmocgl<p></p><p><strong>Please copy it to the mTurk page.</strong></p>","0",""
