"success","timeout","failed_images","failed_audio","failed_video","trial_type","trial_index","time_elapsed","internal_node_id","run_id","condition","recorded_at","source_code_version","ip","user_agent","device","browser","browser_version","platform","platform_version","rt","stimulus","response","question_order"
"true","false","[]","[]","[]","preload","0","18","0.0-0.0","28","1","2023-06-02 16:29:11","a806436d73fb3c2fb9db1ebeb6e0a607","208.194.214.235","Mozilla/5.0 (Windows NT 10.0; Win64; x64) AppleWebKit/537.36 (KHTML, like Gecko) Chrome/113.0.0.0 Safari/537.36","WebKit","Chrome","113.0.0.0","Windows","10.0","","","",""
"true","","","","","fullscreen","1","2484","0.0-1.0","28","1","2023-06-02 16:29:11","a806436d73fb3c2fb9db1ebeb6e0a607","208.194.214.235","Mozilla/5.0 (Windows NT 10.0; Win64; x64) AppleWebKit/537.36 (KHTML, like Gecko) Chrome/113.0.0.0 Safari/537.36","WebKit","Chrome","113.0.0.0","Windows","10.0","","","",""
"","","","","","html-button-response","2","3690","0.0-2.0","28","1","2023-06-02 16:29:11","a806436d73fb3c2fb9db1ebeb6e0a607","208.194.214.235","Mozilla/5.0 (Windows NT 10.0; Win64; x64) AppleWebKit/537.36 (KHTML, like Gecko) Chrome/113.0.0.0 Safari/537.36","WebKit","Chrome","113.0.0.0","Windows","10.0","1205","<p ><strong>Welcome to the experiment!</strong></p><p ><strong>In the first task, please imagine:</strong></p><p>Your country is involved in a military conflict with another country.</p><p>You are the commander of your army and must make decisions in the conflict.</p><p>Specifically, as the military commander, you must decide whether to launch a missile to strike enemy.</p><p>You will face a series of scenarios. Please read each scenario carefully and make a decision.</p><p>The task will take around 10 minutes to complete.</p><p><strong>Please pay your attention during the experiment.</strong></p>","0",""
"","","","","","html-keyboard-response","3","4692","0.0-3.0-0.0","28","1","2023-06-02 16:29:11","a806436d73fb3c2fb9db1ebeb6e0a607","208.194.214.235","Mozilla/5.0 (Windows NT 10.0; Win64; x64) AppleWebKit/537.36 (KHTML, like Gecko) Chrome/113.0.0.0 Safari/537.36","WebKit","Chrome","113.0.0.0","Windows","10.0","null","<div style=""font-size:60px;"">+</div>","null",""
"","","","","","html-button-response","4","5810","0.0-3.0-1.0","28","1","2023-06-02 16:29:11","a806436d73fb3c2fb9db1ebeb6e0a607","208.194.214.235","Mozilla/5.0 (Windows NT 10.0; Win64; x64) AppleWebKit/537.36 (KHTML, like Gecko) Chrome/113.0.0.0 Safari/537.36","WebKit","Chrome","113.0.0.0","Windows","10.0","1116","<p>As the military commander, you could choose to launch a missile to kill <strong>3 enemy soldiers</strong> , but would accidentally kill <strong>1 enemy tree</strong> nearby.</p> <p>The photo of the <strong>enemy tree</strong> is shown below.</p> <p></p> <img src='stimuli/tree/3.png', style='max-width: 30%;'> </img> <p><strong>Would you launch the weapon?</strong></p>","0",""
"","","","","","html-keyboard-response","5","6812","0.0-3.0-0.1","28","1","2023-06-02 16:29:11","a806436d73fb3c2fb9db1ebeb6e0a607","208.194.214.235","Mozilla/5.0 (Windows NT 10.0; Win64; x64) AppleWebKit/537.36 (KHTML, like Gecko) Chrome/113.0.0.0 Safari/537.36","WebKit","Chrome","113.0.0.0","Windows","10.0","null","<div style=""font-size:60px;"">+</div>","null",""
"","","","","","html-button-response","6","9100","0.0-3.0-1.1","28","1","2023-06-02 16:29:11","a806436d73fb3c2fb9db1ebeb6e0a607","208.194.214.235","Mozilla/5.0 (Windows NT 10.0; Win64; x64) AppleWebKit/537.36 (KHTML, like Gecko) Chrome/113.0.0.0 Safari/537.36","WebKit","Chrome","113.0.0.0","Windows","10.0","2286","<p>As the military commander, you could choose to launch a missile to kill <strong>3 enemy soldiers</strong> , but would accidentally kill <strong>1 enemy tree</strong> nearby.</p> <p>The photo of the <strong>enemy tree</strong> is shown below.</p> <p></p> <img src='stimuli/tree/10.png', style='max-width: 30%;'> </img> <p><strong>Would you launch the weapon?</strong></p>","0",""
"","","","","","html-keyboard-response","7","10103","0.0-3.0-0.2","28","1","2023-06-02 16:29:11","a806436d73fb3c2fb9db1ebeb6e0a607","208.194.214.235","Mozilla/5.0 (Windows NT 10.0; Win64; x64) AppleWebKit/537.36 (KHTML, like Gecko) Chrome/113.0.0.0 Safari/537.36","WebKit","Chrome","113.0.0.0","Windows","10.0","null","<div style=""font-size:60px;"">+</div>","null",""
"","","","","","html-button-response","8","11363","0.0-3.0-1.2","28","1","2023-06-02 16:29:11","a806436d73fb3c2fb9db1ebeb6e0a607","208.194.214.235","Mozilla/5.0 (Windows NT 10.0; Win64; x64) AppleWebKit/537.36 (KHTML, like Gecko) Chrome/113.0.0.0 Safari/537.36","WebKit","Chrome","113.0.0.0","Windows","10.0","1258","<p>As the military commander, you could choose to launch a missile to kill <strong>9 enemy soldiers</strong> , but would accidentally kill <strong>1 enemy tree</strong> nearby.</p> <p>The photo of the <strong>enemy tree</strong> is shown below.</p> <p></p> <img src='stimuli/tree/5.png', style='max-width: 30%;'> </img> <p><strong>Would you launch the weapon?</strong></p>","0",""
"","","","","","html-keyboard-response","9","12365","0.0-3.0-0.3","28","1","2023-06-02 16:29:11","a806436d73fb3c2fb9db1ebeb6e0a607","208.194.214.235","Mozilla/5.0 (Windows NT 10.0; Win64; x64) AppleWebKit/537.36 (KHTML, like Gecko) Chrome/113.0.0.0 Safari/537.36","WebKit","Chrome","113.0.0.0","Windows","10.0","null","<div style=""font-size:60px;"">+</div>","null",""
"","","","","","html-button-response","10","12938","0.0-3.0-1.3","28","1","2023-06-02 16:29:11","a806436d73fb3c2fb9db1ebeb6e0a607","208.194.214.235","Mozilla/5.0 (Windows NT 10.0; Win64; x64) AppleWebKit/537.36 (KHTML, like Gecko) Chrome/113.0.0.0 Safari/537.36","WebKit","Chrome","113.0.0.0","Windows","10.0","571","<p>As the military commander, you could choose to launch a missile to kill <strong>10 enemy soldiers</strong> , but would accidentally kill <strong>1 enemy civilian</strong> nearby.</p> <p>The photo of the <strong>enemy civilian</strong> is shown below.</p> <p></p> <img src='stimuli/faces/NFF5.jpg', style='max-width: 30%;'> </img> <p><strong>Would you launch the weapon?</strong></p>","0",""
"","","","","","html-keyboard-response","11","13941","0.0-3.0-0.4","28","1","2023-06-02 16:29:11","a806436d73fb3c2fb9db1ebeb6e0a607","208.194.214.235","Mozilla/5.0 (Windows NT 10.0; Win64; x64) AppleWebKit/537.36 (KHTML, like Gecko) Chrome/113.0.0.0 Safari/537.36","WebKit","Chrome","113.0.0.0","Windows","10.0","null","<div style=""font-size:60px;"">+</div>","null",""
"","","","","","html-button-response","12","14803","0.0-3.0-1.4","28","1","2023-06-02 16:29:11","a806436d73fb3c2fb9db1ebeb6e0a607","208.194.214.235","Mozilla/5.0 (Windows NT 10.0; Win64; x64) AppleWebKit/537.36 (KHTML, like Gecko) Chrome/113.0.0.0 Safari/537.36","WebKit","Chrome","113.0.0.0","Windows","10.0","860","<p>As the military commander, you could choose to launch a missile to kill <strong>2 enemy soldiers</strong> , but would accidentally kill <strong>1 enemy tree</strong> nearby.</p> <p>The photo of the <strong>enemy tree</strong> is shown below.</p> <p></p> <img src='stimuli/tree/9.png', style='max-width: 30%;'> </img> <p><strong>Would you launch the weapon?</strong></p>","0",""
"","","","","","html-keyboard-response","13","15805","0.0-3.0-0.5","28","1","2023-06-02 16:29:11","a806436d73fb3c2fb9db1ebeb6e0a607","208.194.214.235","Mozilla/5.0 (Windows NT 10.0; Win64; x64) AppleWebKit/537.36 (KHTML, like Gecko) Chrome/113.0.0.0 Safari/537.36","WebKit","Chrome","113.0.0.0","Windows","10.0","null","<div style=""font-size:60px;"">+</div>","null",""
"","","","","","html-button-response","14","16316","0.0-3.0-1.5","28","1","2023-06-02 16:29:11","a806436d73fb3c2fb9db1ebeb6e0a607","208.194.214.235","Mozilla/5.0 (Windows NT 10.0; Win64; x64) AppleWebKit/537.36 (KHTML, like Gecko) Chrome/113.0.0.0 Safari/537.36","WebKit","Chrome","113.0.0.0","Windows","10.0","509","<p>As the military commander, you could choose to launch a missile to kill <strong>6 enemy soldiers</strong> , but would accidentally kill <strong>1 enemy tree</strong> nearby.</p> <p>The photo of the <strong>enemy tree</strong> is shown below.</p> <p></p> <img src='stimuli/tree/4.png', style='max-width: 30%;'> </img> <p><strong>Would you launch the weapon?</strong></p>","0",""
"","","","","","html-keyboard-response","15","17319","0.0-3.0-0.6","28","1","2023-06-02 16:29:11","a806436d73fb3c2fb9db1ebeb6e0a607","208.194.214.235","Mozilla/5.0 (Windows NT 10.0; Win64; x64) AppleWebKit/537.36 (KHTML, like Gecko) Chrome/113.0.0.0 Safari/537.36","WebKit","Chrome","113.0.0.0","Windows","10.0","null","<div style=""font-size:60px;"">+</div>","null",""
"","","","","","html-button-response","16","17858","0.0-3.0-1.6","28","1","2023-06-02 16:29:11","a806436d73fb3c2fb9db1ebeb6e0a607","208.194.214.235","Mozilla/5.0 (Windows NT 10.0; Win64; x64) AppleWebKit/537.36 (KHTML, like Gecko) Chrome/113.0.0.0 Safari/537.36","WebKit","Chrome","113.0.0.0","Windows","10.0","537","<p>As the military commander, you could choose to launch a missile to kill <strong>7 enemy soldiers</strong> , but would accidentally kill <strong>1 enemy civilian</strong> nearby.</p> <p>The photo of the <strong>enemy civilian</strong> is shown below.</p> <p></p> <img src='stimuli/faces/NFM5.jpg', style='max-width: 30%;'> </img> <p><strong>Would you launch the weapon?</strong></p>","0",""
"","","","","","html-keyboard-response","17","18860","0.0-3.0-0.7","28","1","2023-06-02 16:29:11","a806436d73fb3c2fb9db1ebeb6e0a607","208.194.214.235","Mozilla/5.0 (Windows NT 10.0; Win64; x64) AppleWebKit/537.36 (KHTML, like Gecko) Chrome/113.0.0.0 Safari/537.36","WebKit","Chrome","113.0.0.0","Windows","10.0","null","<div style=""font-size:60px;"">+</div>","null",""
"","","","","","html-button-response","18","19570","0.0-3.0-1.7","28","1","2023-06-02 16:29:11","a806436d73fb3c2fb9db1ebeb6e0a607","208.194.214.235","Mozilla/5.0 (Windows NT 10.0; Win64; x64) AppleWebKit/537.36 (KHTML, like Gecko) Chrome/113.0.0.0 Safari/537.36","WebKit","Chrome","113.0.0.0","Windows","10.0","708","<p>As the military commander, you could choose to launch a missile to kill <strong>2 enemy soldiers</strong> , but would accidentally kill <strong>1 enemy tree</strong> nearby.</p> <p>The photo of the <strong>enemy tree</strong> is shown below.</p> <p></p> <img src='stimuli/tree/1.png', style='max-width: 30%;'> </img> <p><strong>Would you launch the weapon?</strong></p>","0",""
"","","","","","html-keyboard-response","19","20572","0.0-3.0-0.8","28","1","2023-06-02 16:29:11","a806436d73fb3c2fb9db1ebeb6e0a607","208.194.214.235","Mozilla/5.0 (Windows NT 10.0; Win64; x64) AppleWebKit/537.36 (KHTML, like Gecko) Chrome/113.0.0.0 Safari/537.36","WebKit","Chrome","113.0.0.0","Windows","10.0","null","<div style=""font-size:60px;"">+</div>","null",""
"","","","","","html-button-response","20","21105","0.0-3.0-1.8","28","1","2023-06-02 16:29:11","a806436d73fb3c2fb9db1ebeb6e0a607","208.194.214.235","Mozilla/5.0 (Windows NT 10.0; Win64; x64) AppleWebKit/537.36 (KHTML, like Gecko) Chrome/113.0.0.0 Safari/537.36","WebKit","Chrome","113.0.0.0","Windows","10.0","531","<p>As the military commander, you could choose to launch a missile to kill <strong>9 enemy soldiers</strong> , but would accidentally kill <strong>1 enemy tree</strong> nearby.</p> <p>The photo of the <strong>enemy tree</strong> is shown below.</p> <p></p> <img src='stimuli/tree/3.png', style='max-width: 30%;'> </img> <p><strong>Would you launch the weapon?</strong></p>","0",""
"","","","","","html-keyboard-response","21","22108","0.0-3.0-0.9","28","1","2023-06-02 16:29:11","a806436d73fb3c2fb9db1ebeb6e0a607","208.194.214.235","Mozilla/5.0 (Windows NT 10.0; Win64; x64) AppleWebKit/537.36 (KHTML, like Gecko) Chrome/113.0.0.0 Safari/537.36","WebKit","Chrome","113.0.0.0","Windows","10.0","null","<div style=""font-size:60px;"">+</div>","null",""
"","","","","","html-button-response","22","23163","0.0-3.0-1.9","28","1","2023-06-02 16:29:11","a806436d73fb3c2fb9db1ebeb6e0a607","208.194.214.235","Mozilla/5.0 (Windows NT 10.0; Win64; x64) AppleWebKit/537.36 (KHTML, like Gecko) Chrome/113.0.0.0 Safari/537.36","WebKit","Chrome","113.0.0.0","Windows","10.0","1053","<p>As the military commander, you could choose to launch a missile to kill <strong>5 enemy soldiers</strong> , but would accidentally kill <strong>1 enemy civilian</strong> nearby.</p> <p>The photo of the <strong>enemy civilian</strong> is shown below.</p> <p></p> <img src='stimuli/faces/NFM4.jpg', style='max-width: 30%;'> </img> <p><strong>Would you launch the weapon?</strong></p>","0",""
"","","","","","html-keyboard-response","23","24166","0.0-3.0-0.10","28","1","2023-06-02 16:29:11","a806436d73fb3c2fb9db1ebeb6e0a607","208.194.214.235","Mozilla/5.0 (Windows NT 10.0; Win64; x64) AppleWebKit/537.36 (KHTML, like Gecko) Chrome/113.0.0.0 Safari/537.36","WebKit","Chrome","113.0.0.0","Windows","10.0","null","<div style=""font-size:60px;"">+</div>","null",""
"","","","","","html-button-response","24","25162","0.0-3.0-1.10","28","1","2023-06-02 16:29:11","a806436d73fb3c2fb9db1ebeb6e0a607","208.194.214.235","Mozilla/5.0 (Windows NT 10.0; Win64; x64) AppleWebKit/537.36 (KHTML, like Gecko) Chrome/113.0.0.0 Safari/537.36","WebKit","Chrome","113.0.0.0","Windows","10.0","994","<p>As the military commander, you could choose to launch a missile to kill <strong>5 enemy soldiers</strong> , but would accidentally kill <strong>1 enemy civilian</strong> nearby.</p> <p>The photo of the <strong>enemy civilian</strong> is shown below.</p> <p></p> <img src='stimuli/faces/NFF7.jpg', style='max-width: 30%;'> </img> <p><strong>Would you launch the weapon?</strong></p>","0",""
"","","","","","html-keyboard-response","25","26164","0.0-3.0-0.11","28","1","2023-06-02 16:29:11","a806436d73fb3c2fb9db1ebeb6e0a607","208.194.214.235","Mozilla/5.0 (Windows NT 10.0; Win64; x64) AppleWebKit/537.36 (KHTML, like Gecko) Chrome/113.0.0.0 Safari/537.36","WebKit","Chrome","113.0.0.0","Windows","10.0","null","<div style=""font-size:60px;"">+</div>","null",""
"","","","","","html-button-response","26","26914","0.0-3.0-1.11","28","1","2023-06-02 16:29:11","a806436d73fb3c2fb9db1ebeb6e0a607","208.194.214.235","Mozilla/5.0 (Windows NT 10.0; Win64; x64) AppleWebKit/537.36 (KHTML, like Gecko) Chrome/113.0.0.0 Safari/537.36","WebKit","Chrome","113.0.0.0","Windows","10.0","748","<p>As the military commander, you could choose to launch a missile to kill <strong>5 enemy soldiers</strong> , but would accidentally kill <strong>1 enemy civilian</strong> nearby.</p> <p>The photo of the <strong>enemy civilian</strong> is shown below.</p> <p></p> <img src='stimuli/faces/NFM3.jpg', style='max-width: 30%;'> </img> <p><strong>Would you launch the weapon?</strong></p>","0",""
"","","","","","html-keyboard-response","27","27916","0.0-3.0-0.12","28","1","2023-06-02 16:29:11","a806436d73fb3c2fb9db1ebeb6e0a607","208.194.214.235","Mozilla/5.0 (Windows NT 10.0; Win64; x64) AppleWebKit/537.36 (KHTML, like Gecko) Chrome/113.0.0.0 Safari/537.36","WebKit","Chrome","113.0.0.0","Windows","10.0","null","<div style=""font-size:60px;"">+</div>","null",""
"","","","","","html-button-response","28","28673","0.0-3.0-1.12","28","1","2023-06-02 16:29:11","a806436d73fb3c2fb9db1ebeb6e0a607","208.194.214.235","Mozilla/5.0 (Windows NT 10.0; Win64; x64) AppleWebKit/537.36 (KHTML, like Gecko) Chrome/113.0.0.0 Safari/537.36","WebKit","Chrome","113.0.0.0","Windows","10.0","755","<p>As the military commander, you could choose to launch a missile to kill <strong>10 enemy soldiers</strong> , but would accidentally kill <strong>1 enemy civilian</strong> nearby.</p> <p>The photo of the <strong>enemy civilian</strong> is shown below.</p> <p></p> <img src='stimuli/faces/NFM7.jpg', style='max-width: 30%;'> </img> <p><strong>Would you launch the weapon?</strong></p>","0",""
"","","","","","html-keyboard-response","29","29675","0.0-3.0-0.13","28","1","2023-06-02 16:29:11","a806436d73fb3c2fb9db1ebeb6e0a607","208.194.214.235","Mozilla/5.0 (Windows NT 10.0; Win64; x64) AppleWebKit/537.36 (KHTML, like Gecko) Chrome/113.0.0.0 Safari/537.36","WebKit","Chrome","113.0.0.0","Windows","10.0","null","<div style=""font-size:60px;"">+</div>","null",""
"","","","","","html-button-response","30","30705","0.0-3.0-1.13","28","1","2023-06-02 16:29:11","a806436d73fb3c2fb9db1ebeb6e0a607","208.194.214.235","Mozilla/5.0 (Windows NT 10.0; Win64; x64) AppleWebKit/537.36 (KHTML, like Gecko) Chrome/113.0.0.0 Safari/537.36","WebKit","Chrome","113.0.0.0","Windows","10.0","1028","<p>As the military commander, you could choose to launch a missile to kill <strong>9 enemy soldiers</strong> , but would accidentally kill <strong>1 enemy tree</strong> nearby.</p> <p>The photo of the <strong>enemy tree</strong> is shown below.</p> <p></p> <img src='stimuli/tree/7.png', style='max-width: 30%;'> </img> <p><strong>Would you launch the weapon?</strong></p>","0",""
"","","","","","html-keyboard-response","31","31708","0.0-3.0-0.14","28","1","2023-06-02 16:29:11","a806436d73fb3c2fb9db1ebeb6e0a607","208.194.214.235","Mozilla/5.0 (Windows NT 10.0; Win64; x64) AppleWebKit/537.36 (KHTML, like Gecko) Chrome/113.0.0.0 Safari/537.36","WebKit","Chrome","113.0.0.0","Windows","10.0","null","<div style=""font-size:60px;"">+</div>","null",""
"","","","","","html-button-response","32","32523","0.0-3.0-1.14","28","1","2023-06-02 16:29:11","a806436d73fb3c2fb9db1ebeb6e0a607","208.194.214.235","Mozilla/5.0 (Windows NT 10.0; Win64; x64) AppleWebKit/537.36 (KHTML, like Gecko) Chrome/113.0.0.0 Safari/537.36","WebKit","Chrome","113.0.0.0","Windows","10.0","813","<p>As the military commander, you could choose to launch a missile to kill <strong>10 enemy soldiers</strong> , but would accidentally kill <strong>1 enemy civilian</strong> nearby.</p> <p>The photo of the <strong>enemy civilian</strong> is shown below.</p> <p></p> <img src='stimuli/faces/NFM3.jpg', style='max-width: 30%;'> </img> <p><strong>Would you launch the weapon?</strong></p>","0",""
"","","","","","html-keyboard-response","33","33525","0.0-3.0-0.15","28","1","2023-06-02 16:29:11","a806436d73fb3c2fb9db1ebeb6e0a607","208.194.214.235","Mozilla/5.0 (Windows NT 10.0; Win64; x64) AppleWebKit/537.36 (KHTML, like Gecko) Chrome/113.0.0.0 Safari/537.36","WebKit","Chrome","113.0.0.0","Windows","10.0","null","<div style=""font-size:60px;"">+</div>","null",""
"","","","","","html-button-response","34","34283","0.0-3.0-1.15","28","1","2023-06-02 16:29:11","a806436d73fb3c2fb9db1ebeb6e0a607","208.194.214.235","Mozilla/5.0 (Windows NT 10.0; Win64; x64) AppleWebKit/537.36 (KHTML, like Gecko) Chrome/113.0.0.0 Safari/537.36","WebKit","Chrome","113.0.0.0","Windows","10.0","755","<p>As the military commander, you could choose to launch a missile to kill <strong>6 enemy soldiers</strong> , but would accidentally kill <strong>1 enemy civilian</strong> nearby.</p> <p>The photo of the <strong>enemy civilian</strong> is shown below.</p> <p></p> <img src='stimuli/faces/NFM1.jpg', style='max-width: 30%;'> </img> <p><strong>Would you launch the weapon?</strong></p>","0",""
"","","","","","html-keyboard-response","35","35286","0.0-3.0-0.16","28","1","2023-06-02 16:29:11","a806436d73fb3c2fb9db1ebeb6e0a607","208.194.214.235","Mozilla/5.0 (Windows NT 10.0; Win64; x64) AppleWebKit/537.36 (KHTML, like Gecko) Chrome/113.0.0.0 Safari/537.36","WebKit","Chrome","113.0.0.0","Windows","10.0","null","<div style=""font-size:60px;"">+</div>","null",""
"","","","","","html-button-response","36","36282","0.0-3.0-1.16","28","1","2023-06-02 16:29:11","a806436d73fb3c2fb9db1ebeb6e0a607","208.194.214.235","Mozilla/5.0 (Windows NT 10.0; Win64; x64) AppleWebKit/537.36 (KHTML, like Gecko) Chrome/113.0.0.0 Safari/537.36","WebKit","Chrome","113.0.0.0","Windows","10.0","994","<p>As the military commander, you could choose to launch a missile to kill <strong>10 enemy soldiers</strong> , but would accidentally kill <strong>1 enemy tree</strong> nearby.</p> <p>The photo of the <strong>enemy tree</strong> is shown below.</p> <p></p> <img src='stimuli/tree/16.png', style='max-width: 30%;'> </img> <p><strong>Would you launch the weapon?</strong></p>","0",""
"","","","","","html-keyboard-response","37","37285","0.0-3.0-0.17","28","1","2023-06-02 16:29:11","a806436d73fb3c2fb9db1ebeb6e0a607","208.194.214.235","Mozilla/5.0 (Windows NT 10.0; Win64; x64) AppleWebKit/537.36 (KHTML, like Gecko) Chrome/113.0.0.0 Safari/537.36","WebKit","Chrome","113.0.0.0","Windows","10.0","null","<div style=""font-size:60px;"">+</div>","null",""
"","","","","","html-button-response","38","38273","0.0-3.0-1.17","28","1","2023-06-02 16:29:11","a806436d73fb3c2fb9db1ebeb6e0a607","208.194.214.235","Mozilla/5.0 (Windows NT 10.0; Win64; x64) AppleWebKit/537.36 (KHTML, like Gecko) Chrome/113.0.0.0 Safari/537.36","WebKit","Chrome","113.0.0.0","Windows","10.0","986","<p>As the military commander, you could choose to launch a missile to kill <strong>1 enemy soldier</strong> , but would accidentally kill <strong>1 enemy civilian</strong> nearby.</p> <p>The photo of the <strong>enemy civilian</strong> is shown below.</p> <p></p> <img src='stimuli/faces/NFF5.jpg', style='max-width: 30%;'> </img> <p><strong>Would you launch the weapon?</strong></p>","0",""
"","","","","","html-keyboard-response","39","39274","0.0-3.0-0.18","28","1","2023-06-02 16:29:11","a806436d73fb3c2fb9db1ebeb6e0a607","208.194.214.235","Mozilla/5.0 (Windows NT 10.0; Win64; x64) AppleWebKit/537.36 (KHTML, like Gecko) Chrome/113.0.0.0 Safari/537.36","WebKit","Chrome","113.0.0.0","Windows","10.0","null","<div style=""font-size:60px;"">+</div>","null",""
"","","","","","html-button-response","40","40289","0.0-3.0-1.18","28","1","2023-06-02 16:29:11","a806436d73fb3c2fb9db1ebeb6e0a607","208.194.214.235","Mozilla/5.0 (Windows NT 10.0; Win64; x64) AppleWebKit/537.36 (KHTML, like Gecko) Chrome/113.0.0.0 Safari/537.36","WebKit","Chrome","113.0.0.0","Windows","10.0","1013","<p>As the military commander, you could choose to launch a missile to kill <strong>5 enemy soldiers</strong> , but would accidentally kill <strong>1 enemy tree</strong> nearby.</p> <p>The photo of the <strong>enemy tree</strong> is shown below.</p> <p></p> <img src='stimuli/tree/16.png', style='max-width: 30%;'> </img> <p><strong>Would you launch the weapon?</strong></p>","0",""
"","","","","","html-keyboard-response","41","41293","0.0-3.0-0.19","28","1","2023-06-02 16:29:11","a806436d73fb3c2fb9db1ebeb6e0a607","208.194.214.235","Mozilla/5.0 (Windows NT 10.0; Win64; x64) AppleWebKit/537.36 (KHTML, like Gecko) Chrome/113.0.0.0 Safari/537.36","WebKit","Chrome","113.0.0.0","Windows","10.0","null","<div style=""font-size:60px;"">+</div>","null",""
"","","","","","html-button-response","42","42459","0.0-3.0-1.19","28","1","2023-06-02 16:29:11","a806436d73fb3c2fb9db1ebeb6e0a607","208.194.214.235","Mozilla/5.0 (Windows NT 10.0; Win64; x64) AppleWebKit/537.36 (KHTML, like Gecko) Chrome/113.0.0.0 Safari/537.36","WebKit","Chrome","113.0.0.0","Windows","10.0","1163","<p>As the military commander, you could choose to launch a missile to kill <strong>1 enemy soldier</strong> , but would accidentally kill <strong>1 enemy tree</strong> nearby.</p> <p>The photo of the <strong>enemy tree</strong> is shown below.</p> <p></p> <img src='stimuli/tree/5.png', style='max-width: 30%;'> </img> <p><strong>Would you launch the weapon?</strong></p>","1",""
"","","","","","html-keyboard-response","43","43462","0.0-3.0-0.20","28","1","2023-06-02 16:29:11","a806436d73fb3c2fb9db1ebeb6e0a607","208.194.214.235","Mozilla/5.0 (Windows NT 10.0; Win64; x64) AppleWebKit/537.36 (KHTML, like Gecko) Chrome/113.0.0.0 Safari/537.36","WebKit","Chrome","113.0.0.0","Windows","10.0","null","<div style=""font-size:60px;"">+</div>","null",""
"","","","","","html-button-response","44","44361","0.0-3.0-1.20","28","1","2023-06-02 16:29:11","a806436d73fb3c2fb9db1ebeb6e0a607","208.194.214.235","Mozilla/5.0 (Windows NT 10.0; Win64; x64) AppleWebKit/537.36 (KHTML, like Gecko) Chrome/113.0.0.0 Safari/537.36","WebKit","Chrome","113.0.0.0","Windows","10.0","897","<p>As the military commander, you could choose to launch a missile to kill <strong>2 enemy soldiers</strong> , but would accidentally kill <strong>1 enemy tree</strong> nearby.</p> <p>The photo of the <strong>enemy tree</strong> is shown below.</p> <p></p> <img src='stimuli/tree/7.png', style='max-width: 30%;'> </img> <p><strong>Would you launch the weapon?</strong></p>","0",""
"","","","","","html-keyboard-response","45","45365","0.0-3.0-0.21","28","1","2023-06-02 16:29:11","a806436d73fb3c2fb9db1ebeb6e0a607","208.194.214.235","Mozilla/5.0 (Windows NT 10.0; Win64; x64) AppleWebKit/537.36 (KHTML, like Gecko) Chrome/113.0.0.0 Safari/537.36","WebKit","Chrome","113.0.0.0","Windows","10.0","null","<div style=""font-size:60px;"">+</div>","null",""
"","","","","","html-button-response","46","45993","0.0-3.0-1.21","28","1","2023-06-02 16:29:11","a806436d73fb3c2fb9db1ebeb6e0a607","208.194.214.235","Mozilla/5.0 (Windows NT 10.0; Win64; x64) AppleWebKit/537.36 (KHTML, like Gecko) Chrome/113.0.0.0 Safari/537.36","WebKit","Chrome","113.0.0.0","Windows","10.0","626","<p>As the military commander, you could choose to launch a missile to kill <strong>5 enemy soldiers</strong> , but would accidentally kill <strong>1 enemy civilian</strong> nearby.</p> <p>The photo of the <strong>enemy civilian</strong> is shown below.</p> <p></p> <img src='stimuli/faces/NFM6.jpg', style='max-width: 30%;'> </img> <p><strong>Would you launch the weapon?</strong></p>","0",""
"","","","","","html-keyboard-response","47","46996","0.0-3.0-0.22","28","1","2023-06-02 16:29:11","a806436d73fb3c2fb9db1ebeb6e0a607","208.194.214.235","Mozilla/5.0 (Windows NT 10.0; Win64; x64) AppleWebKit/537.36 (KHTML, like Gecko) Chrome/113.0.0.0 Safari/537.36","WebKit","Chrome","113.0.0.0","Windows","10.0","null","<div style=""font-size:60px;"">+</div>","null",""
"","","","","","html-button-response","48","47952","0.0-3.0-1.22","28","1","2023-06-02 16:29:11","a806436d73fb3c2fb9db1ebeb6e0a607","208.194.214.235","Mozilla/5.0 (Windows NT 10.0; Win64; x64) AppleWebKit/537.36 (KHTML, like Gecko) Chrome/113.0.0.0 Safari/537.36","WebKit","Chrome","113.0.0.0","Windows","10.0","954","<p>As the military commander, you could choose to launch a missile to kill <strong>6 enemy soldiers</strong> , but would accidentally kill <strong>1 enemy civilian</strong> nearby.</p> <p>The photo of the <strong>enemy civilian</strong> is shown below.</p> <p></p> <img src='stimuli/faces/NFM8.jpg', style='max-width: 30%;'> </img> <p><strong>Would you launch the weapon?</strong></p>","0",""
"","","","","","html-keyboard-response","49","48955","0.0-3.0-0.23","28","1","2023-06-02 16:29:11","a806436d73fb3c2fb9db1ebeb6e0a607","208.194.214.235","Mozilla/5.0 (Windows NT 10.0; Win64; x64) AppleWebKit/537.36 (KHTML, like Gecko) Chrome/113.0.0.0 Safari/537.36","WebKit","Chrome","113.0.0.0","Windows","10.0","null","<div style=""font-size:60px;"">+</div>","null",""
"","","","","","html-button-response","50","49883","0.0-3.0-1.23","28","1","2023-06-02 16:29:11","a806436d73fb3c2fb9db1ebeb6e0a607","208.194.214.235","Mozilla/5.0 (Windows NT 10.0; Win64; x64) AppleWebKit/537.36 (KHTML, like Gecko) Chrome/113.0.0.0 Safari/537.36","WebKit","Chrome","113.0.0.0","Windows","10.0","925","<p>As the military commander, you could choose to launch a missile to kill <strong>4 enemy soldiers</strong> , but would accidentally kill <strong>1 enemy civilian</strong> nearby.</p> <p>The photo of the <strong>enemy civilian</strong> is shown below.</p> <p></p> <img src='stimuli/faces/NFF6.jpg', style='max-width: 30%;'> </img> <p><strong>Would you launch the weapon?</strong></p>","0",""
"","","","","","html-keyboard-response","51","50886","0.0-3.0-0.24","28","1","2023-06-02 16:29:11","a806436d73fb3c2fb9db1ebeb6e0a607","208.194.214.235","Mozilla/5.0 (Windows NT 10.0; Win64; x64) AppleWebKit/537.36 (KHTML, like Gecko) Chrome/113.0.0.0 Safari/537.36","WebKit","Chrome","113.0.0.0","Windows","10.0","null","<div style=""font-size:60px;"">+</div>","null",""
"","","","","","html-button-response","52","52120","0.0-3.0-1.24","28","1","2023-06-02 16:29:11","a806436d73fb3c2fb9db1ebeb6e0a607","208.194.214.235","Mozilla/5.0 (Windows NT 10.0; Win64; x64) AppleWebKit/537.36 (KHTML, like Gecko) Chrome/113.0.0.0 Safari/537.36","WebKit","Chrome","113.0.0.0","Windows","10.0","1232","<p>As the military commander, you could choose to launch a missile to kill <strong>3 enemy soldiers</strong> , but would accidentally kill <strong>1 enemy civilian</strong> nearby.</p> <p>The photo of the <strong>enemy civilian</strong> is shown below.</p> <p></p> <img src='stimuli/faces/NFM8.jpg', style='max-width: 30%;'> </img> <p><strong>Would you launch the weapon?</strong></p>","1",""
"","","","","","html-keyboard-response","53","53123","0.0-3.0-0.25","28","1","2023-06-02 16:29:11","a806436d73fb3c2fb9db1ebeb6e0a607","208.194.214.235","Mozilla/5.0 (Windows NT 10.0; Win64; x64) AppleWebKit/537.36 (KHTML, like Gecko) Chrome/113.0.0.0 Safari/537.36","WebKit","Chrome","113.0.0.0","Windows","10.0","null","<div style=""font-size:60px;"">+</div>","null",""
"","","","","","html-button-response","54","54361","0.0-3.0-1.25","28","1","2023-06-02 16:29:11","a806436d73fb3c2fb9db1ebeb6e0a607","208.194.214.235","Mozilla/5.0 (Windows NT 10.0; Win64; x64) AppleWebKit/537.36 (KHTML, like Gecko) Chrome/113.0.0.0 Safari/537.36","WebKit","Chrome","113.0.0.0","Windows","10.0","1235","<p>As the military commander, you could choose to launch a missile to kill <strong>1 enemy soldier</strong> , but would accidentally kill <strong>1 enemy civilian</strong> nearby.</p> <p>The photo of the <strong>enemy civilian</strong> is shown below.</p> <p></p> <img src='stimuli/faces/NFM5.jpg', style='max-width: 30%;'> </img> <p><strong>Would you launch the weapon?</strong></p>","0",""
"","","","","","html-keyboard-response","55","55364","0.0-3.0-0.26","28","1","2023-06-02 16:29:11","a806436d73fb3c2fb9db1ebeb6e0a607","208.194.214.235","Mozilla/5.0 (Windows NT 10.0; Win64; x64) AppleWebKit/537.36 (KHTML, like Gecko) Chrome/113.0.0.0 Safari/537.36","WebKit","Chrome","113.0.0.0","Windows","10.0","null","<div style=""font-size:60px;"">+</div>","null",""
"","","","","","html-button-response","56","55968","0.0-3.0-1.26","28","1","2023-06-02 16:29:11","a806436d73fb3c2fb9db1ebeb6e0a607","208.194.214.235","Mozilla/5.0 (Windows NT 10.0; Win64; x64) AppleWebKit/537.36 (KHTML, like Gecko) Chrome/113.0.0.0 Safari/537.36","WebKit","Chrome","113.0.0.0","Windows","10.0","601","<p>As the military commander, you could choose to launch a missile to kill <strong>6 enemy soldiers</strong> , but would accidentally kill <strong>1 enemy civilian</strong> nearby.</p> <p>The photo of the <strong>enemy civilian</strong> is shown below.</p> <p></p> <img src='stimuli/faces/NFM2.jpg', style='max-width: 30%;'> </img> <p><strong>Would you launch the weapon?</strong></p>","0",""
"","","","","","html-keyboard-response","57","56971","0.0-3.0-0.27","28","1","2023-06-02 16:29:11","a806436d73fb3c2fb9db1ebeb6e0a607","208.194.214.235","Mozilla/5.0 (Windows NT 10.0; Win64; x64) AppleWebKit/537.36 (KHTML, like Gecko) Chrome/113.0.0.0 Safari/537.36","WebKit","Chrome","113.0.0.0","Windows","10.0","null","<div style=""font-size:60px;"">+</div>","null",""
"","","","","","html-button-response","58","57427","0.0-3.0-1.27","28","1","2023-06-02 16:29:11","a806436d73fb3c2fb9db1ebeb6e0a607","208.194.214.235","Mozilla/5.0 (Windows NT 10.0; Win64; x64) AppleWebKit/537.36 (KHTML, like Gecko) Chrome/113.0.0.0 Safari/537.36","WebKit","Chrome","113.0.0.0","Windows","10.0","454","<p>As the military commander, you could choose to launch a missile to kill <strong>10 enemy soldiers</strong> , but would accidentally kill <strong>1 enemy civilian</strong> nearby.</p> <p>The photo of the <strong>enemy civilian</strong> is shown below.</p> <p></p> <img src='stimuli/faces/NFF7.jpg', style='max-width: 30%;'> </img> <p><strong>Would you launch the weapon?</strong></p>","0",""
"","","","","","html-keyboard-response","59","58430","0.0-3.0-0.28","28","1","2023-06-02 16:29:11","a806436d73fb3c2fb9db1ebeb6e0a607","208.194.214.235","Mozilla/5.0 (Windows NT 10.0; Win64; x64) AppleWebKit/537.36 (KHTML, like Gecko) Chrome/113.0.0.0 Safari/537.36","WebKit","Chrome","113.0.0.0","Windows","10.0","null","<div style=""font-size:60px;"">+</div>","null",""
"","","","","","html-button-response","60","58865","0.0-3.0-1.28","28","1","2023-06-02 16:29:11","a806436d73fb3c2fb9db1ebeb6e0a607","208.194.214.235","Mozilla/5.0 (Windows NT 10.0; Win64; x64) AppleWebKit/537.36 (KHTML, like Gecko) Chrome/113.0.0.0 Safari/537.36","WebKit","Chrome","113.0.0.0","Windows","10.0","432","<p>As the military commander, you could choose to launch a missile to kill <strong>8 enemy soldiers</strong> , but would accidentally kill <strong>1 enemy tree</strong> nearby.</p> <p>The photo of the <strong>enemy tree</strong> is shown below.</p> <p></p> <img src='stimuli/tree/14.png', style='max-width: 30%;'> </img> <p><strong>Would you launch the weapon?</strong></p>","0",""
"","","","","","html-keyboard-response","61","59869","0.0-3.0-0.29","28","1","2023-06-02 16:29:11","a806436d73fb3c2fb9db1ebeb6e0a607","208.194.214.235","Mozilla/5.0 (Windows NT 10.0; Win64; x64) AppleWebKit/537.36 (KHTML, like Gecko) Chrome/113.0.0.0 Safari/537.36","WebKit","Chrome","113.0.0.0","Windows","10.0","null","<div style=""font-size:60px;"">+</div>","null",""
"","","","","","html-button-response","62","60602","0.0-3.0-1.29","28","1","2023-06-02 16:29:11","a806436d73fb3c2fb9db1ebeb6e0a607","208.194.214.235","Mozilla/5.0 (Windows NT 10.0; Win64; x64) AppleWebKit/537.36 (KHTML, like Gecko) Chrome/113.0.0.0 Safari/537.36","WebKit","Chrome","113.0.0.0","Windows","10.0","730","<p>As the military commander, you could choose to launch a missile to kill <strong>3 enemy soldiers</strong> , but would accidentally kill <strong>1 enemy tree</strong> nearby.</p> <p>The photo of the <strong>enemy tree</strong> is shown below.</p> <p></p> <img src='stimuli/tree/6.png', style='max-width: 30%;'> </img> <p><strong>Would you launch the weapon?</strong></p>","0",""
"","","","","","html-keyboard-response","63","61605","0.0-3.0-0.30","28","1","2023-06-02 16:29:11","a806436d73fb3c2fb9db1ebeb6e0a607","208.194.214.235","Mozilla/5.0 (Windows NT 10.0; Win64; x64) AppleWebKit/537.36 (KHTML, like Gecko) Chrome/113.0.0.0 Safari/537.36","WebKit","Chrome","113.0.0.0","Windows","10.0","null","<div style=""font-size:60px;"">+</div>","null",""
"","","","","","html-button-response","64","62075","0.0-3.0-1.30","28","1","2023-06-02 16:29:11","a806436d73fb3c2fb9db1ebeb6e0a607","208.194.214.235","Mozilla/5.0 (Windows NT 10.0; Win64; x64) AppleWebKit/537.36 (KHTML, like Gecko) Chrome/113.0.0.0 Safari/537.36","WebKit","Chrome","113.0.0.0","Windows","10.0","466","<p>As the military commander, you could choose to launch a missile to kill <strong>9 enemy soldiers</strong> , but would accidentally kill <strong>1 enemy tree</strong> nearby.</p> <p>The photo of the <strong>enemy tree</strong> is shown below.</p> <p></p> <img src='stimuli/tree/13.png', style='max-width: 30%;'> </img> <p><strong>Would you launch the weapon?</strong></p>","0",""
"","","","","","html-keyboard-response","65","63078","0.0-3.0-0.31","28","1","2023-06-02 16:29:11","a806436d73fb3c2fb9db1ebeb6e0a607","208.194.214.235","Mozilla/5.0 (Windows NT 10.0; Win64; x64) AppleWebKit/537.36 (KHTML, like Gecko) Chrome/113.0.0.0 Safari/537.36","WebKit","Chrome","113.0.0.0","Windows","10.0","null","<div style=""font-size:60px;"">+</div>","null",""
"","","","","","html-button-response","66","63778","0.0-3.0-1.31","28","1","2023-06-02 16:29:11","a806436d73fb3c2fb9db1ebeb6e0a607","208.194.214.235","Mozilla/5.0 (Windows NT 10.0; Win64; x64) AppleWebKit/537.36 (KHTML, like Gecko) Chrome/113.0.0.0 Safari/537.36","WebKit","Chrome","113.0.0.0","Windows","10.0","697","<p>As the military commander, you could choose to launch a missile to kill <strong>9 enemy soldiers</strong> , but would accidentally kill <strong>1 enemy tree</strong> nearby.</p> <p>The photo of the <strong>enemy tree</strong> is shown below.</p> <p></p> <img src='stimuli/tree/10.png', style='max-width: 30%;'> </img> <p><strong>Would you launch the weapon?</strong></p>","0",""
"","","","","","html-keyboard-response","67","64781","0.0-3.0-0.32","28","1","2023-06-02 16:29:11","a806436d73fb3c2fb9db1ebeb6e0a607","208.194.214.235","Mozilla/5.0 (Windows NT 10.0; Win64; x64) AppleWebKit/537.36 (KHTML, like Gecko) Chrome/113.0.0.0 Safari/537.36","WebKit","Chrome","113.0.0.0","Windows","10.0","null","<div style=""font-size:60px;"">+</div>","null",""
"","","","","","html-button-response","68","106896","0.0-3.0-1.32","28","1","2023-06-02 16:29:11","a806436d73fb3c2fb9db1ebeb6e0a607","208.194.214.235","Mozilla/5.0 (Windows NT 10.0; Win64; x64) AppleWebKit/537.36 (KHTML, like Gecko) Chrome/113.0.0.0 Safari/537.36","WebKit","Chrome","113.0.0.0","Windows","10.0","42112","<p>As the military commander, you could choose to launch a missile to kill <strong>1 enemy soldier</strong> , but would accidentally kill <strong>1 enemy civilian</strong> nearby.</p> <p>The photo of the <strong>enemy civilian</strong> is shown below.</p> <p></p> <img src='stimuli/faces/NFM7.jpg', style='max-width: 30%;'> </img> <p><strong>Would you launch the weapon?</strong></p>","0",""
"","","","","","html-keyboard-response","69","107900","0.0-3.0-0.33","28","1","2023-06-02 16:29:11","a806436d73fb3c2fb9db1ebeb6e0a607","208.194.214.235","Mozilla/5.0 (Windows NT 10.0; Win64; x64) AppleWebKit/537.36 (KHTML, like Gecko) Chrome/113.0.0.0 Safari/537.36","WebKit","Chrome","113.0.0.0","Windows","10.0","null","<div style=""font-size:60px;"">+</div>","null",""
"","","","","","html-button-response","70","109185","0.0-3.0-1.33","28","1","2023-06-02 16:29:11","a806436d73fb3c2fb9db1ebeb6e0a607","208.194.214.235","Mozilla/5.0 (Windows NT 10.0; Win64; x64) AppleWebKit/537.36 (KHTML, like Gecko) Chrome/113.0.0.0 Safari/537.36","WebKit","Chrome","113.0.0.0","Windows","10.0","1282","<p>As the military commander, you could choose to launch a missile to kill <strong>8 enemy soldiers</strong> , but would accidentally kill <strong>1 enemy civilian</strong> nearby.</p> <p>The photo of the <strong>enemy civilian</strong> is shown below.</p> <p></p> <img src='stimuli/faces/NFF1.jpg', style='max-width: 30%;'> </img> <p><strong>Would you launch the weapon?</strong></p>","0",""
"","","","","","html-keyboard-response","71","110188","0.0-3.0-0.34","28","1","2023-06-02 16:29:11","a806436d73fb3c2fb9db1ebeb6e0a607","208.194.214.235","Mozilla/5.0 (Windows NT 10.0; Win64; x64) AppleWebKit/537.36 (KHTML, like Gecko) Chrome/113.0.0.0 Safari/537.36","WebKit","Chrome","113.0.0.0","Windows","10.0","null","<div style=""font-size:60px;"">+</div>","null",""
"","","","","","html-button-response","72","111080","0.0-3.0-1.34","28","1","2023-06-02 16:29:11","a806436d73fb3c2fb9db1ebeb6e0a607","208.194.214.235","Mozilla/5.0 (Windows NT 10.0; Win64; x64) AppleWebKit/537.36 (KHTML, like Gecko) Chrome/113.0.0.0 Safari/537.36","WebKit","Chrome","113.0.0.0","Windows","10.0","888","<p>As the military commander, you could choose to launch a missile to kill <strong>2 enemy soldiers</strong> , but would accidentally kill <strong>1 enemy civilian</strong> nearby.</p> <p>The photo of the <strong>enemy civilian</strong> is shown below.</p> <p></p> <img src='stimuli/faces/NFF3.jpg', style='max-width: 30%;'> </img> <p><strong>Would you launch the weapon?</strong></p>","0",""
"","","","","","html-keyboard-response","73","112084","0.0-3.0-0.35","28","1","2023-06-02 16:29:11","a806436d73fb3c2fb9db1ebeb6e0a607","208.194.214.235","Mozilla/5.0 (Windows NT 10.0; Win64; x64) AppleWebKit/537.36 (KHTML, like Gecko) Chrome/113.0.0.0 Safari/537.36","WebKit","Chrome","113.0.0.0","Windows","10.0","null","<div style=""font-size:60px;"">+</div>","null",""
"","","","","","html-button-response","74","113696","0.0-3.0-1.35","28","1","2023-06-02 16:29:11","a806436d73fb3c2fb9db1ebeb6e0a607","208.194.214.235","Mozilla/5.0 (Windows NT 10.0; Win64; x64) AppleWebKit/537.36 (KHTML, like Gecko) Chrome/113.0.0.0 Safari/537.36","WebKit","Chrome","113.0.0.0","Windows","10.0","1610","<p>As the military commander, you could choose to launch a missile to kill <strong>3 enemy soldiers</strong> , but would accidentally kill <strong>1 enemy tree</strong> nearby.</p> <p>The photo of the <strong>enemy tree</strong> is shown below.</p> <p></p> <img src='stimuli/tree/14.png', style='max-width: 30%;'> </img> <p><strong>Would you launch the weapon?</strong></p>","0",""
"","","","","","html-keyboard-response","75","114700","0.0-3.0-0.36","28","1","2023-06-02 16:29:11","a806436d73fb3c2fb9db1ebeb6e0a607","208.194.214.235","Mozilla/5.0 (Windows NT 10.0; Win64; x64) AppleWebKit/537.36 (KHTML, like Gecko) Chrome/113.0.0.0 Safari/537.36","WebKit","Chrome","113.0.0.0","Windows","10.0","null","<div style=""font-size:60px;"">+</div>","null",""
"","","","","","html-button-response","76","164127","0.0-3.0-1.36","28","1","2023-06-02 16:29:11","a806436d73fb3c2fb9db1ebeb6e0a607","208.194.214.235","Mozilla/5.0 (Windows NT 10.0; Win64; x64) AppleWebKit/537.36 (KHTML, like Gecko) Chrome/113.0.0.0 Safari/537.36","WebKit","Chrome","113.0.0.0","Windows","10.0","49424","<p>As the military commander, you could choose to launch a missile to kill <strong>2 enemy soldiers</strong> , but would accidentally kill <strong>1 enemy civilian</strong> nearby.</p> <p>The photo of the <strong>enemy civilian</strong> is shown below.</p> <p></p> <img src='stimuli/faces/NFF1.jpg', style='max-width: 30%;'> </img> <p><strong>Would you launch the weapon?</strong></p>","0",""
"","","","","","html-keyboard-response","77","165131","0.0-3.0-0.37","28","1","2023-06-02 16:29:11","a806436d73fb3c2fb9db1ebeb6e0a607","208.194.214.235","Mozilla/5.0 (Windows NT 10.0; Win64; x64) AppleWebKit/537.36 (KHTML, like Gecko) Chrome/113.0.0.0 Safari/537.36","WebKit","Chrome","113.0.0.0","Windows","10.0","null","<div style=""font-size:60px;"">+</div>","null",""
"","","","","","html-button-response","78","181653","0.0-3.0-1.37","28","1","2023-06-02 16:29:11","a806436d73fb3c2fb9db1ebeb6e0a607","208.194.214.235","Mozilla/5.0 (Windows NT 10.0; Win64; x64) AppleWebKit/537.36 (KHTML, like Gecko) Chrome/113.0.0.0 Safari/537.36","WebKit","Chrome","113.0.0.0","Windows","10.0","16520","<p>As the military commander, you could choose to launch a missile to kill <strong>4 enemy soldiers</strong> , but would accidentally kill <strong>1 enemy tree</strong> nearby.</p> <p>The photo of the <strong>enemy tree</strong> is shown below.</p> <p></p> <img src='stimuli/tree/13.png', style='max-width: 30%;'> </img> <p><strong>Would you launch the weapon?</strong></p>","0",""
"","","","","","html-keyboard-response","79","182657","0.0-3.0-0.38","28","1","2023-06-02 16:29:11","a806436d73fb3c2fb9db1ebeb6e0a607","208.194.214.235","Mozilla/5.0 (Windows NT 10.0; Win64; x64) AppleWebKit/537.36 (KHTML, like Gecko) Chrome/113.0.0.0 Safari/537.36","WebKit","Chrome","113.0.0.0","Windows","10.0","null","<div style=""font-size:60px;"">+</div>","null",""
"","","","","","html-button-response","80","185757","0.0-3.0-1.38","28","1","2023-06-02 16:29:11","a806436d73fb3c2fb9db1ebeb6e0a607","208.194.214.235","Mozilla/5.0 (Windows NT 10.0; Win64; x64) AppleWebKit/537.36 (KHTML, like Gecko) Chrome/113.0.0.0 Safari/537.36","WebKit","Chrome","113.0.0.0","Windows","10.0","3097","<p>As the military commander, you could choose to launch a missile to kill <strong>2 enemy soldiers</strong> , but would accidentally kill <strong>1 enemy civilian</strong> nearby.</p> <p>The photo of the <strong>enemy civilian</strong> is shown below.</p> <p></p> <img src='stimuli/faces/NFF2.jpg', style='max-width: 30%;'> </img> <p><strong>Would you launch the weapon?</strong></p>","0",""
"","","","","","html-keyboard-response","81","186761","0.0-3.0-0.39","28","1","2023-06-02 16:29:11","a806436d73fb3c2fb9db1ebeb6e0a607","208.194.214.235","Mozilla/5.0 (Windows NT 10.0; Win64; x64) AppleWebKit/537.36 (KHTML, like Gecko) Chrome/113.0.0.0 Safari/537.36","WebKit","Chrome","113.0.0.0","Windows","10.0","null","<div style=""font-size:60px;"">+</div>","null",""
"","","","","","html-button-response","82","191653","0.0-3.0-1.39","28","1","2023-06-02 16:29:11","a806436d73fb3c2fb9db1ebeb6e0a607","208.194.214.235","Mozilla/5.0 (Windows NT 10.0; Win64; x64) AppleWebKit/537.36 (KHTML, like Gecko) Chrome/113.0.0.0 Safari/537.36","WebKit","Chrome","113.0.0.0","Windows","10.0","4890","<p>As the military commander, you could choose to launch a missile to kill <strong>10 enemy soldiers</strong> , but would accidentally kill <strong>1 enemy civilian</strong> nearby.</p> <p>The photo of the <strong>enemy civilian</strong> is shown below.</p> <p></p> <img src='stimuli/faces/NFF2.jpg', style='max-width: 30%;'> </img> <p><strong>Would you launch the weapon?</strong></p>","1",""
"","","","","","html-keyboard-response","83","192657","0.0-3.0-0.40","28","1","2023-06-02 16:29:11","a806436d73fb3c2fb9db1ebeb6e0a607","208.194.214.235","Mozilla/5.0 (Windows NT 10.0; Win64; x64) AppleWebKit/537.36 (KHTML, like Gecko) Chrome/113.0.0.0 Safari/537.36","WebKit","Chrome","113.0.0.0","Windows","10.0","null","<div style=""font-size:60px;"">+</div>","null",""
"","","","","","html-button-response","84","199964","0.0-3.0-1.40","28","1","2023-06-02 16:29:11","a806436d73fb3c2fb9db1ebeb6e0a607","208.194.214.235","Mozilla/5.0 (Windows NT 10.0; Win64; x64) AppleWebKit/537.36 (KHTML, like Gecko) Chrome/113.0.0.0 Safari/537.36","WebKit","Chrome","113.0.0.0","Windows","10.0","7304","<p>As the military commander, you could choose to launch a missile to kill <strong>1 enemy soldier</strong> , but would accidentally kill <strong>1 enemy civilian</strong> nearby.</p> <p>The photo of the <strong>enemy civilian</strong> is shown below.</p> <p></p> <img src='stimuli/faces/NFF4.jpg', style='max-width: 30%;'> </img> <p><strong>Would you launch the weapon?</strong></p>","0",""
"","","","","","html-keyboard-response","85","200968","0.0-3.0-0.41","28","1","2023-06-02 16:29:11","a806436d73fb3c2fb9db1ebeb6e0a607","208.194.214.235","Mozilla/5.0 (Windows NT 10.0; Win64; x64) AppleWebKit/537.36 (KHTML, like Gecko) Chrome/113.0.0.0 Safari/537.36","WebKit","Chrome","113.0.0.0","Windows","10.0","null","<div style=""font-size:60px;"">+</div>","null",""
"","","","","","html-button-response","86","203332","0.0-3.0-1.41","28","1","2023-06-02 16:29:11","a806436d73fb3c2fb9db1ebeb6e0a607","208.194.214.235","Mozilla/5.0 (Windows NT 10.0; Win64; x64) AppleWebKit/537.36 (KHTML, like Gecko) Chrome/113.0.0.0 Safari/537.36","WebKit","Chrome","113.0.0.0","Windows","10.0","2362","<p>As the military commander, you could choose to launch a missile to kill <strong>3 enemy soldiers</strong> , but would accidentally kill <strong>1 enemy civilian</strong> nearby.</p> <p>The photo of the <strong>enemy civilian</strong> is shown below.</p> <p></p> <img src='stimuli/faces/NFF8.jpg', style='max-width: 30%;'> </img> <p><strong>Would you launch the weapon?</strong></p>","0",""
"","","","","","html-keyboard-response","87","204335","0.0-3.0-0.42","28","1","2023-06-02 16:29:11","a806436d73fb3c2fb9db1ebeb6e0a607","208.194.214.235","Mozilla/5.0 (Windows NT 10.0; Win64; x64) AppleWebKit/537.36 (KHTML, like Gecko) Chrome/113.0.0.0 Safari/537.36","WebKit","Chrome","113.0.0.0","Windows","10.0","null","<div style=""font-size:60px;"">+</div>","null",""
"","","","","","html-button-response","88","207909","0.0-3.0-1.42","28","1","2023-06-02 16:29:11","a806436d73fb3c2fb9db1ebeb6e0a607","208.194.214.235","Mozilla/5.0 (Windows NT 10.0; Win64; x64) AppleWebKit/537.36 (KHTML, like Gecko) Chrome/113.0.0.0 Safari/537.36","WebKit","Chrome","113.0.0.0","Windows","10.0","3571","<p>As the military commander, you could choose to launch a missile to kill <strong>4 enemy soldiers</strong> , but would accidentally kill <strong>1 enemy civilian</strong> nearby.</p> <p>The photo of the <strong>enemy civilian</strong> is shown below.</p> <p></p> <img src='stimuli/faces/NFM2.jpg', style='max-width: 30%;'> </img> <p><strong>Would you launch the weapon?</strong></p>","0",""
"","","","","","html-keyboard-response","89","208920","0.0-3.0-0.43","28","1","2023-06-02 16:29:11","a806436d73fb3c2fb9db1ebeb6e0a607","208.194.214.235","Mozilla/5.0 (Windows NT 10.0; Win64; x64) AppleWebKit/537.36 (KHTML, like Gecko) Chrome/113.0.0.0 Safari/537.36","WebKit","Chrome","113.0.0.0","Windows","10.0","null","<div style=""font-size:60px;"">+</div>","null",""
"","","","","","html-button-response","90","209924","0.0-3.0-1.43","28","1","2023-06-02 16:29:11","a806436d73fb3c2fb9db1ebeb6e0a607","208.194.214.235","Mozilla/5.0 (Windows NT 10.0; Win64; x64) AppleWebKit/537.36 (KHTML, like Gecko) Chrome/113.0.0.0 Safari/537.36","WebKit","Chrome","113.0.0.0","Windows","10.0","999","<p>As the military commander, you could choose to launch a missile to kill <strong>8 enemy soldiers</strong> , but would accidentally kill <strong>1 enemy civilian</strong> nearby.</p> <p>The photo of the <strong>enemy civilian</strong> is shown below.</p> <p></p> <img src='stimuli/faces/NFF8.jpg', style='max-width: 30%;'> </img> <p><strong>Would you launch the weapon?</strong></p>","0",""
"","","","","","html-keyboard-response","91","210927","0.0-3.0-0.44","28","1","2023-06-02 16:29:11","a806436d73fb3c2fb9db1ebeb6e0a607","208.194.214.235","Mozilla/5.0 (Windows NT 10.0; Win64; x64) AppleWebKit/537.36 (KHTML, like Gecko) Chrome/113.0.0.0 Safari/537.36","WebKit","Chrome","113.0.0.0","Windows","10.0","null","<div style=""font-size:60px;"">+</div>","null",""
"","","","","","html-button-response","92","213212","0.0-3.0-1.44","28","1","2023-06-02 16:29:11","a806436d73fb3c2fb9db1ebeb6e0a607","208.194.214.235","Mozilla/5.0 (Windows NT 10.0; Win64; x64) AppleWebKit/537.36 (KHTML, like Gecko) Chrome/113.0.0.0 Safari/537.36","WebKit","Chrome","113.0.0.0","Windows","10.0","2282","<p>As the military commander, you could choose to launch a missile to kill <strong>3 enemy soldiers</strong> , but would accidentally kill <strong>1 enemy tree</strong> nearby.</p> <p>The photo of the <strong>enemy tree</strong> is shown below.</p> <p></p> <img src='stimuli/tree/2.png', style='max-width: 30%;'> </img> <p><strong>Would you launch the weapon?</strong></p>","0",""
"","","","","","html-keyboard-response","93","214215","0.0-3.0-0.45","28","1","2023-06-02 16:29:11","a806436d73fb3c2fb9db1ebeb6e0a607","208.194.214.235","Mozilla/5.0 (Windows NT 10.0; Win64; x64) AppleWebKit/537.36 (KHTML, like Gecko) Chrome/113.0.0.0 Safari/537.36","WebKit","Chrome","113.0.0.0","Windows","10.0","null","<div style=""font-size:60px;"">+</div>","null",""
"","","","","","html-button-response","94","219941","0.0-3.0-1.45","28","1","2023-06-02 16:29:11","a806436d73fb3c2fb9db1ebeb6e0a607","208.194.214.235","Mozilla/5.0 (Windows NT 10.0; Win64; x64) AppleWebKit/537.36 (KHTML, like Gecko) Chrome/113.0.0.0 Safari/537.36","WebKit","Chrome","113.0.0.0","Windows","10.0","5723","<p>As the military commander, you could choose to launch a missile to kill <strong>7 enemy soldiers</strong> , but would accidentally kill <strong>1 enemy tree</strong> nearby.</p> <p>The photo of the <strong>enemy tree</strong> is shown below.</p> <p></p> <img src='stimuli/tree/12.png', style='max-width: 30%;'> </img> <p><strong>Would you launch the weapon?</strong></p>","0",""
"","","","","","html-keyboard-response","95","220945","0.0-3.0-0.46","28","1","2023-06-02 16:29:11","a806436d73fb3c2fb9db1ebeb6e0a607","208.194.214.235","Mozilla/5.0 (Windows NT 10.0; Win64; x64) AppleWebKit/537.36 (KHTML, like Gecko) Chrome/113.0.0.0 Safari/537.36","WebKit","Chrome","113.0.0.0","Windows","10.0","null","<div style=""font-size:60px;"">+</div>","null",""
"","","","","","html-button-response","96","221357","0.0-3.0-1.46","28","1","2023-06-02 16:29:11","a806436d73fb3c2fb9db1ebeb6e0a607","208.194.214.235","Mozilla/5.0 (Windows NT 10.0; Win64; x64) AppleWebKit/537.36 (KHTML, like Gecko) Chrome/113.0.0.0 Safari/537.36","WebKit","Chrome","113.0.0.0","Windows","10.0","408","<p>As the military commander, you could choose to launch a missile to kill <strong>3 enemy soldiers</strong> , but would accidentally kill <strong>1 enemy tree</strong> nearby.</p> <p>The photo of the <strong>enemy tree</strong> is shown below.</p> <p></p> <img src='stimuli/tree/15.png', style='max-width: 30%;'> </img> <p><strong>Would you launch the weapon?</strong></p>","0",""
"","","","","","html-keyboard-response","97","222360","0.0-3.0-0.47","28","1","2023-06-02 16:29:11","a806436d73fb3c2fb9db1ebeb6e0a607","208.194.214.235","Mozilla/5.0 (Windows NT 10.0; Win64; x64) AppleWebKit/537.36 (KHTML, like Gecko) Chrome/113.0.0.0 Safari/537.36","WebKit","Chrome","113.0.0.0","Windows","10.0","null","<div style=""font-size:60px;"">+</div>","null",""
"","","","","","html-button-response","98","223732","0.0-3.0-1.47","28","1","2023-06-02 16:29:11","a806436d73fb3c2fb9db1ebeb6e0a607","208.194.214.235","Mozilla/5.0 (Windows NT 10.0; Win64; x64) AppleWebKit/537.36 (KHTML, like Gecko) Chrome/113.0.0.0 Safari/537.36","WebKit","Chrome","113.0.0.0","Windows","10.0","1368","<p>As the military commander, you could choose to launch a missile to kill <strong>8 enemy soldiers</strong> , but would accidentally kill <strong>1 enemy civilian</strong> nearby.</p> <p>The photo of the <strong>enemy civilian</strong> is shown below.</p> <p></p> <img src='stimuli/faces/NFM6.jpg', style='max-width: 30%;'> </img> <p><strong>Would you launch the weapon?</strong></p>","0",""
"","","","","","html-keyboard-response","99","224735","0.0-3.0-0.48","28","1","2023-06-02 16:29:11","a806436d73fb3c2fb9db1ebeb6e0a607","208.194.214.235","Mozilla/5.0 (Windows NT 10.0; Win64; x64) AppleWebKit/537.36 (KHTML, like Gecko) Chrome/113.0.0.0 Safari/537.36","WebKit","Chrome","113.0.0.0","Windows","10.0","null","<div style=""font-size:60px;"">+</div>","null",""
"","","","","","html-button-response","100","225629","0.0-3.0-1.48","28","1","2023-06-02 16:29:11","a806436d73fb3c2fb9db1ebeb6e0a607","208.194.214.235","Mozilla/5.0 (Windows NT 10.0; Win64; x64) AppleWebKit/537.36 (KHTML, like Gecko) Chrome/113.0.0.0 Safari/537.36","WebKit","Chrome","113.0.0.0","Windows","10.0","890","<p>As the military commander, you could choose to launch a missile to kill <strong>7 enemy soldiers</strong> , but would accidentally kill <strong>1 enemy tree</strong> nearby.</p> <p>The photo of the <strong>enemy tree</strong> is shown below.</p> <p></p> <img src='stimuli/tree/9.png', style='max-width: 30%;'> </img> <p><strong>Would you launch the weapon?</strong></p>","0",""
"","","","","","html-keyboard-response","101","226633","0.0-3.0-0.49","28","1","2023-06-02 16:29:11","a806436d73fb3c2fb9db1ebeb6e0a607","208.194.214.235","Mozilla/5.0 (Windows NT 10.0; Win64; x64) AppleWebKit/537.36 (KHTML, like Gecko) Chrome/113.0.0.0 Safari/537.36","WebKit","Chrome","113.0.0.0","Windows","10.0","null","<div style=""font-size:60px;"">+</div>","null",""
"","","","","","html-button-response","102","226973","0.0-3.0-1.49","28","1","2023-06-02 16:29:11","a806436d73fb3c2fb9db1ebeb6e0a607","208.194.214.235","Mozilla/5.0 (Windows NT 10.0; Win64; x64) AppleWebKit/537.36 (KHTML, like Gecko) Chrome/113.0.0.0 Safari/537.36","WebKit","Chrome","113.0.0.0","Windows","10.0","337","<p>As the military commander, you could choose to launch a missile to kill <strong>6 enemy soldiers</strong> , but would accidentally kill <strong>1 enemy tree</strong> nearby.</p> <p>The photo of the <strong>enemy tree</strong> is shown below.</p> <p></p> <img src='stimuli/tree/1.png', style='max-width: 30%;'> </img> <p><strong>Would you launch the weapon?</strong></p>","0",""
"","","","","","html-keyboard-response","103","227976","0.0-3.0-0.50","28","1","2023-06-02 16:29:11","a806436d73fb3c2fb9db1ebeb6e0a607","208.194.214.235","Mozilla/5.0 (Windows NT 10.0; Win64; x64) AppleWebKit/537.36 (KHTML, like Gecko) Chrome/113.0.0.0 Safari/537.36","WebKit","Chrome","113.0.0.0","Windows","10.0","null","<div style=""font-size:60px;"">+</div>","null",""
"","","","","","html-button-response","104","228612","0.0-3.0-1.50","28","1","2023-06-02 16:29:11","a806436d73fb3c2fb9db1ebeb6e0a607","208.194.214.235","Mozilla/5.0 (Windows NT 10.0; Win64; x64) AppleWebKit/537.36 (KHTML, like Gecko) Chrome/113.0.0.0 Safari/537.36","WebKit","Chrome","113.0.0.0","Windows","10.0","633","<p>As the military commander, you could choose to launch a missile to kill <strong>7 enemy soldiers</strong> , but would accidentally kill <strong>1 enemy tree</strong> nearby.</p> <p>The photo of the <strong>enemy tree</strong> is shown below.</p> <p></p> <img src='stimuli/tree/2.png', style='max-width: 30%;'> </img> <p><strong>Would you launch the weapon?</strong></p>","0",""
"","","","","","html-keyboard-response","105","229616","0.0-3.0-0.51","28","1","2023-06-02 16:29:11","a806436d73fb3c2fb9db1ebeb6e0a607","208.194.214.235","Mozilla/5.0 (Windows NT 10.0; Win64; x64) AppleWebKit/537.36 (KHTML, like Gecko) Chrome/113.0.0.0 Safari/537.36","WebKit","Chrome","113.0.0.0","Windows","10.0","null","<div style=""font-size:60px;"">+</div>","null",""
"","","","","","html-button-response","106","230092","0.0-3.0-1.51","28","1","2023-06-02 16:29:11","a806436d73fb3c2fb9db1ebeb6e0a607","208.194.214.235","Mozilla/5.0 (Windows NT 10.0; Win64; x64) AppleWebKit/537.36 (KHTML, like Gecko) Chrome/113.0.0.0 Safari/537.36","WebKit","Chrome","113.0.0.0","Windows","10.0","474","<p>As the military commander, you could choose to launch a missile to kill <strong>3 enemy soldiers</strong> , but would accidentally kill <strong>1 enemy tree</strong> nearby.</p> <p>The photo of the <strong>enemy tree</strong> is shown below.</p> <p></p> <img src='stimuli/tree/8.png', style='max-width: 30%;'> </img> <p><strong>Would you launch the weapon?</strong></p>","0",""
"","","","","","html-keyboard-response","107","231095","0.0-3.0-0.52","28","1","2023-06-02 16:29:11","a806436d73fb3c2fb9db1ebeb6e0a607","208.194.214.235","Mozilla/5.0 (Windows NT 10.0; Win64; x64) AppleWebKit/537.36 (KHTML, like Gecko) Chrome/113.0.0.0 Safari/537.36","WebKit","Chrome","113.0.0.0","Windows","10.0","null","<div style=""font-size:60px;"">+</div>","null",""
"","","","","","html-button-response","108","231605","0.0-3.0-1.52","28","1","2023-06-02 16:29:11","a806436d73fb3c2fb9db1ebeb6e0a607","208.194.214.235","Mozilla/5.0 (Windows NT 10.0; Win64; x64) AppleWebKit/537.36 (KHTML, like Gecko) Chrome/113.0.0.0 Safari/537.36","WebKit","Chrome","113.0.0.0","Windows","10.0","507","<p>As the military commander, you could choose to launch a missile to kill <strong>3 enemy soldiers</strong> , but would accidentally kill <strong>1 enemy tree</strong> nearby.</p> <p>The photo of the <strong>enemy tree</strong> is shown below.</p> <p></p> <img src='stimuli/tree/12.png', style='max-width: 30%;'> </img> <p><strong>Would you launch the weapon?</strong></p>","0",""
"","","","","","html-keyboard-response","109","232609","0.0-3.0-0.53","28","1","2023-06-02 16:29:11","a806436d73fb3c2fb9db1ebeb6e0a607","208.194.214.235","Mozilla/5.0 (Windows NT 10.0; Win64; x64) AppleWebKit/537.36 (KHTML, like Gecko) Chrome/113.0.0.0 Safari/537.36","WebKit","Chrome","113.0.0.0","Windows","10.0","null","<div style=""font-size:60px;"">+</div>","null",""
"","","","","","html-button-response","110","233005","0.0-3.0-1.53","28","1","2023-06-02 16:29:11","a806436d73fb3c2fb9db1ebeb6e0a607","208.194.214.235","Mozilla/5.0 (Windows NT 10.0; Win64; x64) AppleWebKit/537.36 (KHTML, like Gecko) Chrome/113.0.0.0 Safari/537.36","WebKit","Chrome","113.0.0.0","Windows","10.0","392","<p>As the military commander, you could choose to launch a missile to kill <strong>9 enemy soldiers</strong> , but would accidentally kill <strong>1 enemy tree</strong> nearby.</p> <p>The photo of the <strong>enemy tree</strong> is shown below.</p> <p></p> <img src='stimuli/tree/6.png', style='max-width: 30%;'> </img> <p><strong>Would you launch the weapon?</strong></p>","0",""
"","","","","","html-keyboard-response","111","234009","0.0-3.0-0.54","28","1","2023-06-02 16:29:11","a806436d73fb3c2fb9db1ebeb6e0a607","208.194.214.235","Mozilla/5.0 (Windows NT 10.0; Win64; x64) AppleWebKit/537.36 (KHTML, like Gecko) Chrome/113.0.0.0 Safari/537.36","WebKit","Chrome","113.0.0.0","Windows","10.0","null","<div style=""font-size:60px;"">+</div>","null",""
"","","","","","html-button-response","112","234422","0.0-3.0-1.54","28","1","2023-06-02 16:29:11","a806436d73fb3c2fb9db1ebeb6e0a607","208.194.214.235","Mozilla/5.0 (Windows NT 10.0; Win64; x64) AppleWebKit/537.36 (KHTML, like Gecko) Chrome/113.0.0.0 Safari/537.36","WebKit","Chrome","113.0.0.0","Windows","10.0","409","<p>As the military commander, you could choose to launch a missile to kill <strong>6 enemy soldiers</strong> , but would accidentally kill <strong>1 enemy civilian</strong> nearby.</p> <p>The photo of the <strong>enemy civilian</strong> is shown below.</p> <p></p> <img src='stimuli/faces/NFF3.jpg', style='max-width: 30%;'> </img> <p><strong>Would you launch the weapon?</strong></p>","0",""
"","","","","","html-keyboard-response","113","235426","0.0-3.0-0.55","28","1","2023-06-02 16:29:11","a806436d73fb3c2fb9db1ebeb6e0a607","208.194.214.235","Mozilla/5.0 (Windows NT 10.0; Win64; x64) AppleWebKit/537.36 (KHTML, like Gecko) Chrome/113.0.0.0 Safari/537.36","WebKit","Chrome","113.0.0.0","Windows","10.0","null","<div style=""font-size:60px;"">+</div>","null",""
"","","","","","html-button-response","114","235972","0.0-3.0-1.55","28","1","2023-06-02 16:29:11","a806436d73fb3c2fb9db1ebeb6e0a607","208.194.214.235","Mozilla/5.0 (Windows NT 10.0; Win64; x64) AppleWebKit/537.36 (KHTML, like Gecko) Chrome/113.0.0.0 Safari/537.36","WebKit","Chrome","113.0.0.0","Windows","10.0","542","<p>As the military commander, you could choose to launch a missile to kill <strong>1 enemy soldier</strong> , but would accidentally kill <strong>1 enemy civilian</strong> nearby.</p> <p>The photo of the <strong>enemy civilian</strong> is shown below.</p> <p></p> <img src='stimuli/faces/NFM1.jpg', style='max-width: 30%;'> </img> <p><strong>Would you launch the weapon?</strong></p>","0",""
"","","","","","html-keyboard-response","115","236976","0.0-3.0-0.56","28","1","2023-06-02 16:29:11","a806436d73fb3c2fb9db1ebeb6e0a607","208.194.214.235","Mozilla/5.0 (Windows NT 10.0; Win64; x64) AppleWebKit/537.36 (KHTML, like Gecko) Chrome/113.0.0.0 Safari/537.36","WebKit","Chrome","113.0.0.0","Windows","10.0","null","<div style=""font-size:60px;"">+</div>","null",""
"","","","","","html-button-response","116","237461","0.0-3.0-1.56","28","1","2023-06-02 16:29:11","a806436d73fb3c2fb9db1ebeb6e0a607","208.194.214.235","Mozilla/5.0 (Windows NT 10.0; Win64; x64) AppleWebKit/537.36 (KHTML, like Gecko) Chrome/113.0.0.0 Safari/537.36","WebKit","Chrome","113.0.0.0","Windows","10.0","482","<p>As the military commander, you could choose to launch a missile to kill <strong>7 enemy soldiers</strong> , but would accidentally kill <strong>1 enemy tree</strong> nearby.</p> <p>The photo of the <strong>enemy tree</strong> is shown below.</p> <p></p> <img src='stimuli/tree/15.png', style='max-width: 30%;'> </img> <p><strong>Would you launch the weapon?</strong></p>","0",""
"","","","","","html-keyboard-response","117","238465","0.0-3.0-0.57","28","1","2023-06-02 16:29:11","a806436d73fb3c2fb9db1ebeb6e0a607","208.194.214.235","Mozilla/5.0 (Windows NT 10.0; Win64; x64) AppleWebKit/537.36 (KHTML, like Gecko) Chrome/113.0.0.0 Safari/537.36","WebKit","Chrome","113.0.0.0","Windows","10.0","null","<div style=""font-size:60px;"">+</div>","null",""
"","","","","","html-button-response","118","239235","0.0-3.0-1.57","28","1","2023-06-02 16:29:11","a806436d73fb3c2fb9db1ebeb6e0a607","208.194.214.235","Mozilla/5.0 (Windows NT 10.0; Win64; x64) AppleWebKit/537.36 (KHTML, like Gecko) Chrome/113.0.0.0 Safari/537.36","WebKit","Chrome","113.0.0.0","Windows","10.0","766","<p>As the military commander, you could choose to launch a missile to kill <strong>10 enemy soldiers</strong> , but would accidentally kill <strong>1 enemy civilian</strong> nearby.</p> <p>The photo of the <strong>enemy civilian</strong> is shown below.</p> <p></p> <img src='stimuli/faces/NFM4.jpg', style='max-width: 30%;'> </img> <p><strong>Would you launch the weapon?</strong></p>","0",""
"","","","","","html-keyboard-response","119","240239","0.0-3.0-0.58","28","1","2023-06-02 16:29:11","a806436d73fb3c2fb9db1ebeb6e0a607","208.194.214.235","Mozilla/5.0 (Windows NT 10.0; Win64; x64) AppleWebKit/537.36 (KHTML, like Gecko) Chrome/113.0.0.0 Safari/537.36","WebKit","Chrome","113.0.0.0","Windows","10.0","null","<div style=""font-size:60px;"">+</div>","null",""
"","","","","","html-button-response","120","240779","0.0-3.0-1.58","28","1","2023-06-02 16:29:11","a806436d73fb3c2fb9db1ebeb6e0a607","208.194.214.235","Mozilla/5.0 (Windows NT 10.0; Win64; x64) AppleWebKit/537.36 (KHTML, like Gecko) Chrome/113.0.0.0 Safari/537.36","WebKit","Chrome","113.0.0.0","Windows","10.0","536","<p>As the military commander, you could choose to launch a missile to kill <strong>9 enemy soldiers</strong> , but would accidentally kill <strong>1 enemy tree</strong> nearby.</p> <p>The photo of the <strong>enemy tree</strong> is shown below.</p> <p></p> <img src='stimuli/tree/11.png', style='max-width: 30%;'> </img> <p><strong>Would you launch the weapon?</strong></p>","0",""
"","","","","","html-keyboard-response","121","241782","0.0-3.0-0.59","28","1","2023-06-02 16:29:11","a806436d73fb3c2fb9db1ebeb6e0a607","208.194.214.235","Mozilla/5.0 (Windows NT 10.0; Win64; x64) AppleWebKit/537.36 (KHTML, like Gecko) Chrome/113.0.0.0 Safari/537.36","WebKit","Chrome","113.0.0.0","Windows","10.0","null","<div style=""font-size:60px;"">+</div>","null",""
"","","","","","html-button-response","122","242252","0.0-3.0-1.59","28","1","2023-06-02 16:29:11","a806436d73fb3c2fb9db1ebeb6e0a607","208.194.214.235","Mozilla/5.0 (Windows NT 10.0; Win64; x64) AppleWebKit/537.36 (KHTML, like Gecko) Chrome/113.0.0.0 Safari/537.36","WebKit","Chrome","113.0.0.0","Windows","10.0","466","<p>As the military commander, you could choose to launch a missile to kill <strong>2 enemy soldiers</strong> , but would accidentally kill <strong>1 enemy tree</strong> nearby.</p> <p>The photo of the <strong>enemy tree</strong> is shown below.</p> <p></p> <img src='stimuli/tree/11.png', style='max-width: 30%;'> </img> <p><strong>Would you launch the weapon?</strong></p>","0",""
"","","","","","html-keyboard-response","123","243256","0.0-3.0-0.60","28","1","2023-06-02 16:29:11","a806436d73fb3c2fb9db1ebeb6e0a607","208.194.214.235","Mozilla/5.0 (Windows NT 10.0; Win64; x64) AppleWebKit/537.36 (KHTML, like Gecko) Chrome/113.0.0.0 Safari/537.36","WebKit","Chrome","113.0.0.0","Windows","10.0","null","<div style=""font-size:60px;"">+</div>","null",""
"","","","","","html-button-response","124","243796","0.0-3.0-1.60","28","1","2023-06-02 16:29:11","a806436d73fb3c2fb9db1ebeb6e0a607","208.194.214.235","Mozilla/5.0 (Windows NT 10.0; Win64; x64) AppleWebKit/537.36 (KHTML, like Gecko) Chrome/113.0.0.0 Safari/537.36","WebKit","Chrome","113.0.0.0","Windows","10.0","537","<p>As the military commander, you could choose to launch a missile to kill <strong>7 enemy soldiers</strong> , but would accidentally kill <strong>1 enemy tree</strong> nearby.</p> <p>The photo of the <strong>enemy tree</strong> is shown below.</p> <p></p> <img src='stimuli/tree/8.png', style='max-width: 30%;'> </img> <p><strong>Would you launch the weapon?</strong></p>","0",""
"","","","","","html-keyboard-response","125","244801","0.0-3.0-0.61","28","1","2023-06-02 16:29:11","a806436d73fb3c2fb9db1ebeb6e0a607","208.194.214.235","Mozilla/5.0 (Windows NT 10.0; Win64; x64) AppleWebKit/537.36 (KHTML, like Gecko) Chrome/113.0.0.0 Safari/537.36","WebKit","Chrome","113.0.0.0","Windows","10.0","null","<div style=""font-size:60px;"">+</div>","null",""
"","","","","","html-button-response","126","245653","0.0-3.0-1.61","28","1","2023-06-02 16:29:11","a806436d73fb3c2fb9db1ebeb6e0a607","208.194.214.235","Mozilla/5.0 (Windows NT 10.0; Win64; x64) AppleWebKit/537.36 (KHTML, like Gecko) Chrome/113.0.0.0 Safari/537.36","WebKit","Chrome","113.0.0.0","Windows","10.0","848","<p>As the military commander, you could choose to launch a missile to kill <strong>3 enemy soldiers</strong> , but would accidentally kill <strong>1 enemy tree</strong> nearby.</p> <p>The photo of the <strong>enemy tree</strong> is shown below.</p> <p></p> <img src='stimuli/tree/4.png', style='max-width: 30%;'> </img> <p><strong>Would you launch the weapon?</strong></p>","0",""
"","","","","","html-keyboard-response","127","246657","0.0-3.0-0.62","28","1","2023-06-02 16:29:11","a806436d73fb3c2fb9db1ebeb6e0a607","208.194.214.235","Mozilla/5.0 (Windows NT 10.0; Win64; x64) AppleWebKit/537.36 (KHTML, like Gecko) Chrome/113.0.0.0 Safari/537.36","WebKit","Chrome","113.0.0.0","Windows","10.0","null","<div style=""font-size:60px;"">+</div>","null",""
"","","","","","html-button-response","128","246972","0.0-3.0-1.62","28","1","2023-06-02 16:29:11","a806436d73fb3c2fb9db1ebeb6e0a607","208.194.214.235","Mozilla/5.0 (Windows NT 10.0; Win64; x64) AppleWebKit/537.36 (KHTML, like Gecko) Chrome/113.0.0.0 Safari/537.36","WebKit","Chrome","113.0.0.0","Windows","10.0","311","<p>As the military commander, you could choose to launch a missile to kill <strong>6 enemy soldiers</strong> , but would accidentally kill <strong>1 enemy civilian</strong> nearby.</p> <p>The photo of the <strong>enemy civilian</strong> is shown below.</p> <p></p> <img src='stimuli/faces/NFF4.jpg', style='max-width: 30%;'> </img> <p><strong>Would you launch the weapon?</strong></p>","0",""
"","","","","","html-keyboard-response","129","247976","0.0-3.0-0.63","28","1","2023-06-02 16:29:11","a806436d73fb3c2fb9db1ebeb6e0a607","208.194.214.235","Mozilla/5.0 (Windows NT 10.0; Win64; x64) AppleWebKit/537.36 (KHTML, like Gecko) Chrome/113.0.0.0 Safari/537.36","WebKit","Chrome","113.0.0.0","Windows","10.0","null","<div style=""font-size:60px;"">+</div>","null",""
"","","","","","html-button-response","130","248340","0.0-3.0-1.63","28","1","2023-06-02 16:29:11","a806436d73fb3c2fb9db1ebeb6e0a607","208.194.214.235","Mozilla/5.0 (Windows NT 10.0; Win64; x64) AppleWebKit/537.36 (KHTML, like Gecko) Chrome/113.0.0.0 Safari/537.36","WebKit","Chrome","113.0.0.0","Windows","10.0","361","<p>As the military commander, you could choose to launch a missile to kill <strong>6 enemy soldiers</strong> , but would accidentally kill <strong>1 enemy civilian</strong> nearby.</p> <p>The photo of the <strong>enemy civilian</strong> is shown below.</p> <p></p> <img src='stimuli/faces/NFF6.jpg', style='max-width: 30%;'> </img> <p><strong>Would you launch the weapon?</strong></p>","0",""
"","","","","","survey-multi-choice","131","253869","0.0-4.0","28","1","2023-06-02 16:29:11","a806436d73fb3c2fb9db1ebeb6e0a607","208.194.214.235","Mozilla/5.0 (Windows NT 10.0; Win64; x64) AppleWebKit/537.36 (KHTML, like Gecko) Chrome/113.0.0.0 Safari/537.36","WebKit","Chrome","113.0.0.0","Windows","10.0","5525","","{""Attention1"":""""}","[0]"
"","","","","","html-button-response","132","255068","0.0-5.0","28","1","2023-06-02 16:29:11","a806436d73fb3c2fb9db1ebeb6e0a607","208.194.214.235","Mozilla/5.0 (Windows NT 10.0; Win64; x64) AppleWebKit/537.36 (KHTML, like Gecko) Chrome/113.0.0.0 Safari/537.36","WebKit","Chrome","113.0.0.0","Windows","10.0","1193","<p style=""font-size:20px;font-weight:bold;"">Great!</p><p>You have finished the first part of the experiment!</p><p>Please relax a little bit and then contine to answer some questions regarding yourself.</p><p>The next part will take around 10 minutes to complete.</p>","0",""
"","","","","","survey-text","133","274531","0.0-6.0","28","1","2023-06-02 16:29:11","a806436d73fb3c2fb9db1ebeb6e0a607","208.194.214.235","Mozilla/5.0 (Windows NT 10.0; Win64; x64) AppleWebKit/537.36 (KHTML, like Gecko) Chrome/113.0.0.0 Safari/537.36","WebKit","Chrome","113.0.0.0","Windows","10.0","18454","","{""Age"":""25"",""Nation"":""USA"",""Born"":""USA"",""Live"":""USA""}",""
"","","","","","survey-multi-choice","134","326074","0.0-7.0","28","1","2023-06-02 16:29:11","a806436d73fb3c2fb9db1ebeb6e0a607","208.194.214.235","Mozilla/5.0 (Windows NT 10.0; Win64; x64) AppleWebKit/537.36 (KHTML, like Gecko) Chrome/113.0.0.0 Safari/537.36","WebKit","Chrome","113.0.0.0","Windows","10.0","51538","","{""Gender"":""Male"",""Education"":""Advanced Degree"",""Income"":""$20,000 - $39,999"",""Children"":""1"",""Ethnicity"":""White""}","[0,1,2,3,4]"
"","","","","","survey-multi-select","135","332890","0.0-8.0","28","1","2023-06-02 16:29:11","a806436d73fb3c2fb9db1ebeb6e0a607","208.194.214.235","Mozilla/5.0 (Windows NT 10.0; Win64; x64) AppleWebKit/537.36 (KHTML, like Gecko) Chrome/113.0.0.0 Safari/537.36","WebKit","Chrome","113.0.0.0","Windows","10.0","6804","","{""Marriage"":[""Married""],""Religion"":[""Christian"",""Islam""]}","[0,1]"
"","","","","","survey-multi-choice","136","335331","0.0-9.0","28","1","2023-06-02 16:29:11","a806436d73fb3c2fb9db1ebeb6e0a607","208.194.214.235","Mozilla/5.0 (Windows NT 10.0; Win64; x64) AppleWebKit/537.36 (KHTML, like Gecko) Chrome/113.0.0.0 Safari/537.36","WebKit","Chrome","113.0.0.0","Windows","10.0","2432","","{""SES"":""10""}","[0]"
"","","","","","html-button-response","137","336418","0.0-10.0","28","1","2023-06-02 16:29:11","a806436d73fb3c2fb9db1ebeb6e0a607","208.194.214.235","Mozilla/5.0 (Windows NT 10.0; Win64; x64) AppleWebKit/537.36 (KHTML, like Gecko) Chrome/113.0.0.0 Safari/537.36","WebKit","Chrome","113.0.0.0","Windows","10.0","1081","<p><strong>Please indicate the extent that the following statements could describe you.</p><p> (1 = ""extremely uncharacteristic of me"" to 5 = ""extremely characteristic of me"".)</strong></p>","0",""
"","","","","","survey-likert","138","340801","0.0-11.0","28","1","2023-06-02 16:29:11","a806436d73fb3c2fb9db1ebeb6e0a607","208.194.214.235","Mozilla/5.0 (Windows NT 10.0; Win64; x64) AppleWebKit/537.36 (KHTML, like Gecko) Chrome/113.0.0.0 Safari/537.36","WebKit","Chrome","113.0.0.0","Windows","10.0","4377","","{""Aggression1"":4,""Aggression2"":4,""Aggression3"":3,""Aggression4"":4,""Aggression5"":4,""Aggression6"":4,""Aggression7"":4,""Aggression8"":4,""Aggression9"":4}","[0,1,2,3,4,5,6,7,8]"
"","","","","","html-button-response","139","342809","0.0-12.0","28","1","2023-06-02 16:29:11","a806436d73fb3c2fb9db1ebeb6e0a607","208.194.214.235","Mozilla/5.0 (Windows NT 10.0; Win64; x64) AppleWebKit/537.36 (KHTML, like Gecko) Chrome/113.0.0.0 Safari/537.36","WebKit","Chrome","113.0.0.0","Windows","10.0","2001","<p><strong>Please indicate the extent that the following statements could describe you. </strong></p><p><strong> (1 = ""Does not describe me well"" to 5 = ""Does decribe me well"".)</strong></p>","0",""
"","","","","","survey-likert","140","386506","0.0-13.0","28","1","2023-06-02 16:29:11","a806436d73fb3c2fb9db1ebeb6e0a607","208.194.214.235","Mozilla/5.0 (Windows NT 10.0; Win64; x64) AppleWebKit/537.36 (KHTML, like Gecko) Chrome/113.0.0.0 Safari/537.36","WebKit","Chrome","113.0.0.0","Windows","10.0","43688","","{""pts1"":0,""pds4"":4,""pts7"":2,""ecs2"":2,""pds1"":3,""fs3"":3,""fs5"":3,""ecs6"":3,""pds5"":3,""pds7"":3,""ecs7"":4,""pts6"":3,""ecs3"":3,""fs2"":4,""fs7"":3,""pts3"":4,""pds6"":4,""fs1"":2,""pts5"":3,""pts2"":3,""ecs4"":4,""fs6"":3,""pds3"":4,""ecs1"":3,""ecs5"":1,""fs4"":4,""pds2"":3,""pts4"":2}","[2,16,27,3,5,6,15,19,18,26,21,24,8,4,25,10,23,0,20,7,13,22,12,1,17,11,9,14]"
"","","","","","html-button-response","141","387713","0.0-14.0","28","1","2023-06-02 16:29:11","a806436d73fb3c2fb9db1ebeb6e0a607","208.194.214.235","Mozilla/5.0 (Windows NT 10.0; Win64; x64) AppleWebKit/537.36 (KHTML, like Gecko) Chrome/113.0.0.0 Safari/537.36","WebKit","Chrome","113.0.0.0","Windows","10.0","1200","<p><strong>Which of the following objects or statements do you have a positive or negative feeling towards? </strong></p><p><strong> (1 = ""Very negative"" to 7 = ""Very positive"") </strong></p>","0",""
"","","","","","survey-likert","142","394586","0.0-15.0","28","1","2023-06-02 16:29:11","a806436d73fb3c2fb9db1ebeb6e0a607","208.194.214.235","Mozilla/5.0 (Windows NT 10.0; Win64; x64) AppleWebKit/537.36 (KHTML, like Gecko) Chrome/113.0.0.0 Safari/537.36","WebKit","Chrome","113.0.0.0","Windows","10.0","6866","","{""sdo11"":6,""sdo9"":6,""sdo6"":6,""sdo10"":6,""sdo5"":6,""sdo8"":6,""sdo15"":6,""sdo2"":6,""sdo12"":6,""sdo1"":6,""sdo4"":6,""sdo7"":6,""sdo16"":5,""sdo14"":4,""sdo13"":5,""sdo3"":4}","[10,8,5,9,4,7,14,1,11,0,3,6,15,13,12,2]"
"","","","","","html-button-response","143","395688","0.0-16.0","28","1","2023-06-02 16:29:11","a806436d73fb3c2fb9db1ebeb6e0a607","208.194.214.235","Mozilla/5.0 (Windows NT 10.0; Win64; x64) AppleWebKit/537.36 (KHTML, like Gecko) Chrome/113.0.0.0 Safari/537.36","WebKit","Chrome","113.0.0.0","Windows","10.0","1095","<p><strong>Please indicate the extent you agree with the following statements.</strong></p><strong><p> (1 = ""Strongly Disagree"" to 5 = ""Srongly Agree"") </strong></p>","0",""
"","","","","","survey-likert","144","402642","0.0-17.0","28","1","2023-06-02 16:29:11","a806436d73fb3c2fb9db1ebeb6e0a607","208.194.214.235","Mozilla/5.0 (Windows NT 10.0; Win64; x64) AppleWebKit/537.36 (KHTML, like Gecko) Chrome/113.0.0.0 Safari/537.36","WebKit","Chrome","113.0.0.0","Windows","10.0","6948","","{""caring1"":4,""liking1"":4,""caring2"":4,""protection1"":4,""liking2"":4,""caring3"":4,""protection2"":4,""liking3"":4,""protection3"":4,""caring4"":4,""liking4"":3,""protection4"":4,""caring5"":3,""liking5"":3,""protection5"":3}","[0,1,2,3,4,5,6,7,8,9,10,11,12,13,14]"
"","","","","","html-button-response","145","403767","0.0-18.0","28","1","2023-06-02 16:29:11","a806436d73fb3c2fb9db1ebeb6e0a607","208.194.214.235","Mozilla/5.0 (Windows NT 10.0; Win64; x64) AppleWebKit/537.36 (KHTML, like Gecko) Chrome/113.0.0.0 Safari/537.36","WebKit","Chrome","113.0.0.0","Windows","10.0","1118","<p><strong>Please imagine spercific situations involving children below, and rate the amount of tenderness you would feel in each situation. </strong></p><p><strong> (Ternderness is ""a warm, gentle feeling of sympathetic affection."") </strong></p><strong><p> (1 = ""No tenderness at all"" to 5 = ""A lot of tenderness"") </strong></p>","0",""
"","","","","","survey-likert","146","407968","0.0-19.0","28","1","2023-06-02 16:29:11","a806436d73fb3c2fb9db1ebeb6e0a607","208.194.214.235","Mozilla/5.0 (Windows NT 10.0; Win64; x64) AppleWebKit/537.36 (KHTML, like Gecko) Chrome/113.0.0.0 Safari/537.36","WebKit","Chrome","113.0.0.0","Windows","10.0","4196","","{""tenderness-positive1"":4,""tenderness-negative1"":4,""tenderness-negative2"":4,""tenderness-positive2"":4,""tenderness-positive3"":4,""tenderness-negative3"":4,""tenderness-positive4"":4,""tendereness-negative4"":4,""tendernness-negative5"":3,""tenderness-positive5"":2}","[0,1,2,3,4,5,6,7,8,9]"
"","","","","","survey-multi-choice","147","419728","0.0-20.0","28","1","2023-06-02 16:29:11","a806436d73fb3c2fb9db1ebeb6e0a607","208.194.214.235","Mozilla/5.0 (Windows NT 10.0; Win64; x64) AppleWebKit/537.36 (KHTML, like Gecko) Chrome/113.0.0.0 Safari/537.36","WebKit","Chrome","113.0.0.0","Windows","10.0","11753","","{""Attention2"":""Other""}","[0]"
"","","","","","html-button-response","148","422702","0.0-21.0","28","1","2023-06-02 16:29:11","a806436d73fb3c2fb9db1ebeb6e0a607","208.194.214.235","Mozilla/5.0 (Windows NT 10.0; Win64; x64) AppleWebKit/537.36 (KHTML, like Gecko) Chrome/113.0.0.0 Safari/537.36","WebKit","Chrome","113.0.0.0","Windows","10.0","2967","<p><strong>Please indicate the extent you agree with the following statements.</strong></p>","0",""
"","","","","","survey-likert","149","438680","0.0-22.0","28","1","2023-06-02 16:29:11","a806436d73fb3c2fb9db1ebeb6e0a607","208.194.214.235","Mozilla/5.0 (Windows NT 10.0; Win64; x64) AppleWebKit/537.36 (KHTML, like Gecko) Chrome/113.0.0.0 Safari/537.36","WebKit","Chrome","113.0.0.0","Windows","10.0","15972","","{""Nation3"":3,""Nation6"":3,""Patri11"":3,""Patri12"":3,""Patri1"":3,""Nation2"":3,""Patri10"":3,""Nation7"":3,""Nation8"":4,""Patri8"":4,""Patri6"":4,""Patri9"":4,""Nation5"":4,""Patri4"":4,""Patri2"":4,""Patri7"":4,""Patri5"":4,""Patri3"":4,""Nation4"":4,""Nation1"":4}","[14,17,10,11,0,13,9,18,19,7,5,8,16,3,1,6,4,2,15,12]"
"","","","","","html-button-response","150","439878","0.0-23.0","28","1","2023-06-02 16:29:11","a806436d73fb3c2fb9db1ebeb6e0a607","208.194.214.235","Mozilla/5.0 (Windows NT 10.0; Win64; x64) AppleWebKit/537.36 (KHTML, like Gecko) Chrome/113.0.0.0 Safari/537.36","WebKit","Chrome","113.0.0.0","Windows","10.0","1191","<p><strong>Please indicate the extent you agree with the following statements. </p><p>(1 = ""never or definitely no"" and 9 = ""always or definitely yes"".)</strong></p>","0",""
"","","","","","survey-likert","151","455074","0.0-24.0","28","1","2023-06-02 16:29:11","a806436d73fb3c2fb9db1ebeb6e0a607","208.194.214.235","Mozilla/5.0 (Windows NT 10.0; Win64; x64) AppleWebKit/537.36 (KHTML, like Gecko) Chrome/113.0.0.0 Safari/537.36","WebKit","Chrome","113.0.0.0","Windows","10.0","15188","","{""vc2"":7,""hc4"":7,""hc3"":7,""hi2"":7,""hi1"":7,""vi2"":7,""hc1"":7,""hi4"":6,""vc1"":7,""vc4"":7,""vc3"":7,""vi3"":7,""Robot2"":6,""hc2"":7,""hi3"":7,""vi1"":7,""vi4"":7}","[14,12,11,1,0,5,9,3,13,16,15,6,7,10,2,4,8]"
"","","","","","survey-text","152","466181","0.0-25.0","28","1","2023-06-02 16:29:11","a806436d73fb3c2fb9db1ebeb6e0a607","208.194.214.235","Mozilla/5.0 (Windows NT 10.0; Win64; x64) AppleWebKit/537.36 (KHTML, like Gecko) Chrome/113.0.0.0 Safari/537.36","WebKit","Chrome","113.0.0.0","Windows","10.0","11096","","{""ID"":""A2WSNXVA7LQYSG"",""Comments"":""GOOD""}",""
"","","","","","html-button-response","153","470148","0.0-26.0","28","1","2023-06-02 16:29:11","a806436d73fb3c2fb9db1ebeb6e0a607","208.194.214.235","Mozilla/5.0 (Windows NT 10.0; Win64; x64) AppleWebKit/537.36 (KHTML, like Gecko) Chrome/113.0.0.0 Safari/537.36","WebKit","Chrome","113.0.0.0","Windows","10.0","3962","<p><strong>Congratulations! </strong> Your have finished all the survey. Thank you for your participation!</p><p><strong>Here is your complete token:</strong></p>idtlj4c3v1hxcmsu8ola5w8e<p></p><p><strong>Please copy it to the mTurk page.</strong></p>","0",""
