"success","timeout","failed_images","failed_audio","failed_video","trial_type","trial_index","time_elapsed","internal_node_id","run_id","condition","recorded_at","source_code_version","ip","user_agent","device","browser","browser_version","platform","platform_version","rt","stimulus","response","question_order"
"true","false","[]","[]","[]","preload","0","26","0.0-0.0","34","1","2023-06-02 16:43:24","a806436d73fb3c2fb9db1ebeb6e0a607","155.193.141.105","Mozilla/5.0 (Windows NT 6.3; Win64; x64) AppleWebKit/537.36 (KHTML, like Gecko) Chrome/109.0.0.0 Safari/537.36","WebKit","Chrome","109.0.0.0","Windows","6.3","","","",""
"true","","","","","fullscreen","1","10428","0.0-1.0","34","1","2023-06-02 16:43:24","a806436d73fb3c2fb9db1ebeb6e0a607","155.193.141.105","Mozilla/5.0 (Windows NT 6.3; Win64; x64) AppleWebKit/537.36 (KHTML, like Gecko) Chrome/109.0.0.0 Safari/537.36","WebKit","Chrome","109.0.0.0","Windows","6.3","","","",""
"","","","","","html-button-response","2","14115","0.0-2.0","34","1","2023-06-02 16:43:24","a806436d73fb3c2fb9db1ebeb6e0a607","155.193.141.105","Mozilla/5.0 (Windows NT 6.3; Win64; x64) AppleWebKit/537.36 (KHTML, like Gecko) Chrome/109.0.0.0 Safari/537.36","WebKit","Chrome","109.0.0.0","Windows","6.3","3685","<p ><strong>Welcome to the experiment!</strong></p><p ><strong>In the first task, please imagine:</strong></p><p>Your country is involved in a military conflict with another country.</p><p>You are the commander of your army and must make decisions in the conflict.</p><p>Specifically, as the military commander, you must decide whether to launch a missile to strike enemy.</p><p>You will face a series of scenarios. Please read each scenario carefully and make a decision.</p><p>The task will take around 10 minutes to complete.</p><p><strong>Please pay your attention during the experiment.</strong></p>","0",""
"","","","","","html-keyboard-response","3","15125","0.0-3.0-0.0","34","1","2023-06-02 16:43:24","a806436d73fb3c2fb9db1ebeb6e0a607","155.193.141.105","Mozilla/5.0 (Windows NT 6.3; Win64; x64) AppleWebKit/537.36 (KHTML, like Gecko) Chrome/109.0.0.0 Safari/537.36","WebKit","Chrome","109.0.0.0","Windows","6.3","null","<div style=""font-size:60px;"">+</div>","null",""
"","","","","","html-button-response","4","17801","0.0-3.0-1.0","34","1","2023-06-02 16:43:24","a806436d73fb3c2fb9db1ebeb6e0a607","155.193.141.105","Mozilla/5.0 (Windows NT 6.3; Win64; x64) AppleWebKit/537.36 (KHTML, like Gecko) Chrome/109.0.0.0 Safari/537.36","WebKit","Chrome","109.0.0.0","Windows","6.3","2673","<p>As the military commander, you could choose to launch a missile to kill <strong>6 enemy soldiers</strong> , but would accidentally kill <strong>1 enemy tree</strong> nearby.</p> <p>The photo of the <strong>enemy tree</strong> is shown below.</p> <p></p> <img src='stimuli/tree/10.png', style='max-width: 30%;'> </img> <p><strong>Would you launch the weapon?</strong></p>","1",""
"","","","","","html-keyboard-response","5","18808","0.0-3.0-0.1","34","1","2023-06-02 16:43:24","a806436d73fb3c2fb9db1ebeb6e0a607","155.193.141.105","Mozilla/5.0 (Windows NT 6.3; Win64; x64) AppleWebKit/537.36 (KHTML, like Gecko) Chrome/109.0.0.0 Safari/537.36","WebKit","Chrome","109.0.0.0","Windows","6.3","null","<div style=""font-size:60px;"">+</div>","null",""
"","","","","","html-button-response","6","21846","0.0-3.0-1.1","34","1","2023-06-02 16:43:24","a806436d73fb3c2fb9db1ebeb6e0a607","155.193.141.105","Mozilla/5.0 (Windows NT 6.3; Win64; x64) AppleWebKit/537.36 (KHTML, like Gecko) Chrome/109.0.0.0 Safari/537.36","WebKit","Chrome","109.0.0.0","Windows","6.3","3035","<p>As the military commander, you could choose to launch a missile to kill <strong>8 enemy soldiers</strong> , but would accidentally kill <strong>1 enemy civilian</strong> nearby.</p> <p>The photo of the <strong>enemy civilian</strong> is shown below.</p> <p></p> <img src='stimuli/faces/NFF5.jpg', style='max-width: 30%;'> </img> <p><strong>Would you launch the weapon?</strong></p>","0",""
"","","","","","html-keyboard-response","7","22848","0.0-3.0-0.2","34","1","2023-06-02 16:43:24","a806436d73fb3c2fb9db1ebeb6e0a607","155.193.141.105","Mozilla/5.0 (Windows NT 6.3; Win64; x64) AppleWebKit/537.36 (KHTML, like Gecko) Chrome/109.0.0.0 Safari/537.36","WebKit","Chrome","109.0.0.0","Windows","6.3","null","<div style=""font-size:60px;"">+</div>","null",""
"","","","","","html-button-response","8","25053","0.0-3.0-1.2","34","1","2023-06-02 16:43:24","a806436d73fb3c2fb9db1ebeb6e0a607","155.193.141.105","Mozilla/5.0 (Windows NT 6.3; Win64; x64) AppleWebKit/537.36 (KHTML, like Gecko) Chrome/109.0.0.0 Safari/537.36","WebKit","Chrome","109.0.0.0","Windows","6.3","2203","<p>As the military commander, you could choose to launch a missile to kill <strong>10 enemy soldiers</strong> , but would accidentally kill <strong>1 enemy civilian</strong> nearby.</p> <p>The photo of the <strong>enemy civilian</strong> is shown below.</p> <p></p> <img src='stimuli/faces/NFM4.jpg', style='max-width: 30%;'> </img> <p><strong>Would you launch the weapon?</strong></p>","0",""
"","","","","","html-keyboard-response","9","26058","0.0-3.0-0.3","34","1","2023-06-02 16:43:24","a806436d73fb3c2fb9db1ebeb6e0a607","155.193.141.105","Mozilla/5.0 (Windows NT 6.3; Win64; x64) AppleWebKit/537.36 (KHTML, like Gecko) Chrome/109.0.0.0 Safari/537.36","WebKit","Chrome","109.0.0.0","Windows","6.3","null","<div style=""font-size:60px;"">+</div>","null",""
"","","","","","html-button-response","10","27666","0.0-3.0-1.3","34","1","2023-06-02 16:43:24","a806436d73fb3c2fb9db1ebeb6e0a607","155.193.141.105","Mozilla/5.0 (Windows NT 6.3; Win64; x64) AppleWebKit/537.36 (KHTML, like Gecko) Chrome/109.0.0.0 Safari/537.36","WebKit","Chrome","109.0.0.0","Windows","6.3","1604","<p>As the military commander, you could choose to launch a missile to kill <strong>1 enemy soldier</strong> , but would accidentally kill <strong>1 enemy tree</strong> nearby.</p> <p>The photo of the <strong>enemy tree</strong> is shown below.</p> <p></p> <img src='stimuli/tree/4.png', style='max-width: 30%;'> </img> <p><strong>Would you launch the weapon?</strong></p>","1",""
"","","","","","html-keyboard-response","11","28674","0.0-3.0-0.4","34","1","2023-06-02 16:43:24","a806436d73fb3c2fb9db1ebeb6e0a607","155.193.141.105","Mozilla/5.0 (Windows NT 6.3; Win64; x64) AppleWebKit/537.36 (KHTML, like Gecko) Chrome/109.0.0.0 Safari/537.36","WebKit","Chrome","109.0.0.0","Windows","6.3","null","<div style=""font-size:60px;"">+</div>","null",""
"","","","","","html-button-response","12","30068","0.0-3.0-1.4","34","1","2023-06-02 16:43:24","a806436d73fb3c2fb9db1ebeb6e0a607","155.193.141.105","Mozilla/5.0 (Windows NT 6.3; Win64; x64) AppleWebKit/537.36 (KHTML, like Gecko) Chrome/109.0.0.0 Safari/537.36","WebKit","Chrome","109.0.0.0","Windows","6.3","1391","<p>As the military commander, you could choose to launch a missile to kill <strong>7 enemy soldiers</strong> , but would accidentally kill <strong>1 enemy civilian</strong> nearby.</p> <p>The photo of the <strong>enemy civilian</strong> is shown below.</p> <p></p> <img src='stimuli/faces/NFM3.jpg', style='max-width: 30%;'> </img> <p><strong>Would you launch the weapon?</strong></p>","0",""
"","","","","","html-keyboard-response","13","31073","0.0-3.0-0.5","34","1","2023-06-02 16:43:24","a806436d73fb3c2fb9db1ebeb6e0a607","155.193.141.105","Mozilla/5.0 (Windows NT 6.3; Win64; x64) AppleWebKit/537.36 (KHTML, like Gecko) Chrome/109.0.0.0 Safari/537.36","WebKit","Chrome","109.0.0.0","Windows","6.3","null","<div style=""font-size:60px;"">+</div>","null",""
"","","","","","html-button-response","14","31901","0.0-3.0-1.5","34","1","2023-06-02 16:43:24","a806436d73fb3c2fb9db1ebeb6e0a607","155.193.141.105","Mozilla/5.0 (Windows NT 6.3; Win64; x64) AppleWebKit/537.36 (KHTML, like Gecko) Chrome/109.0.0.0 Safari/537.36","WebKit","Chrome","109.0.0.0","Windows","6.3","826","<p>As the military commander, you could choose to launch a missile to kill <strong>1 enemy soldier</strong> , but would accidentally kill <strong>1 enemy tree</strong> nearby.</p> <p>The photo of the <strong>enemy tree</strong> is shown below.</p> <p></p> <img src='stimuli/tree/3.png', style='max-width: 30%;'> </img> <p><strong>Would you launch the weapon?</strong></p>","1",""
"","","","","","html-keyboard-response","15","32905","0.0-3.0-0.6","34","1","2023-06-02 16:43:24","a806436d73fb3c2fb9db1ebeb6e0a607","155.193.141.105","Mozilla/5.0 (Windows NT 6.3; Win64; x64) AppleWebKit/537.36 (KHTML, like Gecko) Chrome/109.0.0.0 Safari/537.36","WebKit","Chrome","109.0.0.0","Windows","6.3","null","<div style=""font-size:60px;"">+</div>","null",""
"","","","","","html-button-response","16","34879","0.0-3.0-1.6","34","1","2023-06-02 16:43:24","a806436d73fb3c2fb9db1ebeb6e0a607","155.193.141.105","Mozilla/5.0 (Windows NT 6.3; Win64; x64) AppleWebKit/537.36 (KHTML, like Gecko) Chrome/109.0.0.0 Safari/537.36","WebKit","Chrome","109.0.0.0","Windows","6.3","1973","<p>As the military commander, you could choose to launch a missile to kill <strong>4 enemy soldiers</strong> , but would accidentally kill <strong>1 enemy civilian</strong> nearby.</p> <p>The photo of the <strong>enemy civilian</strong> is shown below.</p> <p></p> <img src='stimuli/faces/NFF4.jpg', style='max-width: 30%;'> </img> <p><strong>Would you launch the weapon?</strong></p>","0",""
"","","","","","html-keyboard-response","17","35881","0.0-3.0-0.7","34","1","2023-06-02 16:43:24","a806436d73fb3c2fb9db1ebeb6e0a607","155.193.141.105","Mozilla/5.0 (Windows NT 6.3; Win64; x64) AppleWebKit/537.36 (KHTML, like Gecko) Chrome/109.0.0.0 Safari/537.36","WebKit","Chrome","109.0.0.0","Windows","6.3","null","<div style=""font-size:60px;"">+</div>","null",""
"","","","","","html-button-response","18","37612","0.0-3.0-1.7","34","1","2023-06-02 16:43:24","a806436d73fb3c2fb9db1ebeb6e0a607","155.193.141.105","Mozilla/5.0 (Windows NT 6.3; Win64; x64) AppleWebKit/537.36 (KHTML, like Gecko) Chrome/109.0.0.0 Safari/537.36","WebKit","Chrome","109.0.0.0","Windows","6.3","1729","<p>As the military commander, you could choose to launch a missile to kill <strong>1 enemy soldier</strong> , but would accidentally kill <strong>1 enemy civilian</strong> nearby.</p> <p>The photo of the <strong>enemy civilian</strong> is shown below.</p> <p></p> <img src='stimuli/faces/NFF5.jpg', style='max-width: 30%;'> </img> <p><strong>Would you launch the weapon?</strong></p>","0",""
"","","","","","html-keyboard-response","19","38616","0.0-3.0-0.8","34","1","2023-06-02 16:43:24","a806436d73fb3c2fb9db1ebeb6e0a607","155.193.141.105","Mozilla/5.0 (Windows NT 6.3; Win64; x64) AppleWebKit/537.36 (KHTML, like Gecko) Chrome/109.0.0.0 Safari/537.36","WebKit","Chrome","109.0.0.0","Windows","6.3","null","<div style=""font-size:60px;"">+</div>","null",""
"","","","","","html-button-response","20","39815","0.0-3.0-1.8","34","1","2023-06-02 16:43:24","a806436d73fb3c2fb9db1ebeb6e0a607","155.193.141.105","Mozilla/5.0 (Windows NT 6.3; Win64; x64) AppleWebKit/537.36 (KHTML, like Gecko) Chrome/109.0.0.0 Safari/537.36","WebKit","Chrome","109.0.0.0","Windows","6.3","1195","<p>As the military commander, you could choose to launch a missile to kill <strong>4 enemy soldiers</strong> , but would accidentally kill <strong>1 enemy civilian</strong> nearby.</p> <p>The photo of the <strong>enemy civilian</strong> is shown below.</p> <p></p> <img src='stimuli/faces/NFF8.jpg', style='max-width: 30%;'> </img> <p><strong>Would you launch the weapon?</strong></p>","0",""
"","","","","","html-keyboard-response","21","40825","0.0-3.0-0.9","34","1","2023-06-02 16:43:24","a806436d73fb3c2fb9db1ebeb6e0a607","155.193.141.105","Mozilla/5.0 (Windows NT 6.3; Win64; x64) AppleWebKit/537.36 (KHTML, like Gecko) Chrome/109.0.0.0 Safari/537.36","WebKit","Chrome","109.0.0.0","Windows","6.3","null","<div style=""font-size:60px;"">+</div>","null",""
"","","","","","html-button-response","22","41948","0.0-3.0-1.9","34","1","2023-06-02 16:43:24","a806436d73fb3c2fb9db1ebeb6e0a607","155.193.141.105","Mozilla/5.0 (Windows NT 6.3; Win64; x64) AppleWebKit/537.36 (KHTML, like Gecko) Chrome/109.0.0.0 Safari/537.36","WebKit","Chrome","109.0.0.0","Windows","6.3","1121","<p>As the military commander, you could choose to launch a missile to kill <strong>6 enemy soldiers</strong> , but would accidentally kill <strong>1 enemy civilian</strong> nearby.</p> <p>The photo of the <strong>enemy civilian</strong> is shown below.</p> <p></p> <img src='stimuli/faces/NFM1.jpg', style='max-width: 30%;'> </img> <p><strong>Would you launch the weapon?</strong></p>","0",""
"","","","","","html-keyboard-response","23","42960","0.0-3.0-0.10","34","1","2023-06-02 16:43:24","a806436d73fb3c2fb9db1ebeb6e0a607","155.193.141.105","Mozilla/5.0 (Windows NT 6.3; Win64; x64) AppleWebKit/537.36 (KHTML, like Gecko) Chrome/109.0.0.0 Safari/537.36","WebKit","Chrome","109.0.0.0","Windows","6.3","null","<div style=""font-size:60px;"">+</div>","null",""
"","","","","","html-button-response","24","44141","0.0-3.0-1.10","34","1","2023-06-02 16:43:24","a806436d73fb3c2fb9db1ebeb6e0a607","155.193.141.105","Mozilla/5.0 (Windows NT 6.3; Win64; x64) AppleWebKit/537.36 (KHTML, like Gecko) Chrome/109.0.0.0 Safari/537.36","WebKit","Chrome","109.0.0.0","Windows","6.3","1178","<p>As the military commander, you could choose to launch a missile to kill <strong>5 enemy soldiers</strong> , but would accidentally kill <strong>1 enemy civilian</strong> nearby.</p> <p>The photo of the <strong>enemy civilian</strong> is shown below.</p> <p></p> <img src='stimuli/faces/NFF2.jpg', style='max-width: 30%;'> </img> <p><strong>Would you launch the weapon?</strong></p>","0",""
"","","","","","html-keyboard-response","25","45144","0.0-3.0-0.11","34","1","2023-06-02 16:43:24","a806436d73fb3c2fb9db1ebeb6e0a607","155.193.141.105","Mozilla/5.0 (Windows NT 6.3; Win64; x64) AppleWebKit/537.36 (KHTML, like Gecko) Chrome/109.0.0.0 Safari/537.36","WebKit","Chrome","109.0.0.0","Windows","6.3","null","<div style=""font-size:60px;"">+</div>","null",""
"","","","","","html-button-response","26","45810","0.0-3.0-1.11","34","1","2023-06-02 16:43:24","a806436d73fb3c2fb9db1ebeb6e0a607","155.193.141.105","Mozilla/5.0 (Windows NT 6.3; Win64; x64) AppleWebKit/537.36 (KHTML, like Gecko) Chrome/109.0.0.0 Safari/537.36","WebKit","Chrome","109.0.0.0","Windows","6.3","661","<p>As the military commander, you could choose to launch a missile to kill <strong>7 enemy soldiers</strong> , but would accidentally kill <strong>1 enemy civilian</strong> nearby.</p> <p>The photo of the <strong>enemy civilian</strong> is shown below.</p> <p></p> <img src='stimuli/faces/NFF2.jpg', style='max-width: 30%;'> </img> <p><strong>Would you launch the weapon?</strong></p>","0",""
"","","","","","html-keyboard-response","27","46816","0.0-3.0-0.12","34","1","2023-06-02 16:43:24","a806436d73fb3c2fb9db1ebeb6e0a607","155.193.141.105","Mozilla/5.0 (Windows NT 6.3; Win64; x64) AppleWebKit/537.36 (KHTML, like Gecko) Chrome/109.0.0.0 Safari/537.36","WebKit","Chrome","109.0.0.0","Windows","6.3","null","<div style=""font-size:60px;"">+</div>","null",""
"","","","","","html-button-response","28","47971","0.0-3.0-1.12","34","1","2023-06-02 16:43:24","a806436d73fb3c2fb9db1ebeb6e0a607","155.193.141.105","Mozilla/5.0 (Windows NT 6.3; Win64; x64) AppleWebKit/537.36 (KHTML, like Gecko) Chrome/109.0.0.0 Safari/537.36","WebKit","Chrome","109.0.0.0","Windows","6.3","1155","<p>As the military commander, you could choose to launch a missile to kill <strong>5 enemy soldiers</strong> , but would accidentally kill <strong>1 enemy civilian</strong> nearby.</p> <p>The photo of the <strong>enemy civilian</strong> is shown below.</p> <p></p> <img src='stimuli/faces/NFF7.jpg', style='max-width: 30%;'> </img> <p><strong>Would you launch the weapon?</strong></p>","0",""
"","","","","","html-keyboard-response","29","48977","0.0-3.0-0.13","34","1","2023-06-02 16:43:24","a806436d73fb3c2fb9db1ebeb6e0a607","155.193.141.105","Mozilla/5.0 (Windows NT 6.3; Win64; x64) AppleWebKit/537.36 (KHTML, like Gecko) Chrome/109.0.0.0 Safari/537.36","WebKit","Chrome","109.0.0.0","Windows","6.3","null","<div style=""font-size:60px;"">+</div>","null",""
"","","","","","html-button-response","30","49964","0.0-3.0-1.13","34","1","2023-06-02 16:43:24","a806436d73fb3c2fb9db1ebeb6e0a607","155.193.141.105","Mozilla/5.0 (Windows NT 6.3; Win64; x64) AppleWebKit/537.36 (KHTML, like Gecko) Chrome/109.0.0.0 Safari/537.36","WebKit","Chrome","109.0.0.0","Windows","6.3","986","<p>As the military commander, you could choose to launch a missile to kill <strong>10 enemy soldiers</strong> , but would accidentally kill <strong>1 enemy civilian</strong> nearby.</p> <p>The photo of the <strong>enemy civilian</strong> is shown below.</p> <p></p> <img src='stimuli/faces/NFM2.jpg', style='max-width: 30%;'> </img> <p><strong>Would you launch the weapon?</strong></p>","0",""
"","","","","","html-keyboard-response","31","50969","0.0-3.0-0.14","34","1","2023-06-02 16:43:24","a806436d73fb3c2fb9db1ebeb6e0a607","155.193.141.105","Mozilla/5.0 (Windows NT 6.3; Win64; x64) AppleWebKit/537.36 (KHTML, like Gecko) Chrome/109.0.0.0 Safari/537.36","WebKit","Chrome","109.0.0.0","Windows","6.3","null","<div style=""font-size:60px;"">+</div>","null",""
"","","","","","html-button-response","32","52374","0.0-3.0-1.14","34","1","2023-06-02 16:43:24","a806436d73fb3c2fb9db1ebeb6e0a607","155.193.141.105","Mozilla/5.0 (Windows NT 6.3; Win64; x64) AppleWebKit/537.36 (KHTML, like Gecko) Chrome/109.0.0.0 Safari/537.36","WebKit","Chrome","109.0.0.0","Windows","6.3","1401","<p>As the military commander, you could choose to launch a missile to kill <strong>10 enemy soldiers</strong> , but would accidentally kill <strong>1 enemy civilian</strong> nearby.</p> <p>The photo of the <strong>enemy civilian</strong> is shown below.</p> <p></p> <img src='stimuli/faces/NFM7.jpg', style='max-width: 30%;'> </img> <p><strong>Would you launch the weapon?</strong></p>","0",""
"","","","","","html-keyboard-response","33","53385","0.0-3.0-0.15","34","1","2023-06-02 16:43:24","a806436d73fb3c2fb9db1ebeb6e0a607","155.193.141.105","Mozilla/5.0 (Windows NT 6.3; Win64; x64) AppleWebKit/537.36 (KHTML, like Gecko) Chrome/109.0.0.0 Safari/537.36","WebKit","Chrome","109.0.0.0","Windows","6.3","null","<div style=""font-size:60px;"">+</div>","null",""
"","","","","","html-button-response","34","54808","0.0-3.0-1.15","34","1","2023-06-02 16:43:24","a806436d73fb3c2fb9db1ebeb6e0a607","155.193.141.105","Mozilla/5.0 (Windows NT 6.3; Win64; x64) AppleWebKit/537.36 (KHTML, like Gecko) Chrome/109.0.0.0 Safari/537.36","WebKit","Chrome","109.0.0.0","Windows","6.3","1421","<p>As the military commander, you could choose to launch a missile to kill <strong>10 enemy soldiers</strong> , but would accidentally kill <strong>1 enemy tree</strong> nearby.</p> <p>The photo of the <strong>enemy tree</strong> is shown below.</p> <p></p> <img src='stimuli/tree/4.png', style='max-width: 30%;'> </img> <p><strong>Would you launch the weapon?</strong></p>","1",""
"","","","","","html-keyboard-response","35","55817","0.0-3.0-0.16","34","1","2023-06-02 16:43:24","a806436d73fb3c2fb9db1ebeb6e0a607","155.193.141.105","Mozilla/5.0 (Windows NT 6.3; Win64; x64) AppleWebKit/537.36 (KHTML, like Gecko) Chrome/109.0.0.0 Safari/537.36","WebKit","Chrome","109.0.0.0","Windows","6.3","null","<div style=""font-size:60px;"">+</div>","null",""
"","","","","","html-button-response","36","57807","0.0-3.0-1.16","34","1","2023-06-02 16:43:24","a806436d73fb3c2fb9db1ebeb6e0a607","155.193.141.105","Mozilla/5.0 (Windows NT 6.3; Win64; x64) AppleWebKit/537.36 (KHTML, like Gecko) Chrome/109.0.0.0 Safari/537.36","WebKit","Chrome","109.0.0.0","Windows","6.3","1987","<p>As the military commander, you could choose to launch a missile to kill <strong>1 enemy soldier</strong> , but would accidentally kill <strong>1 enemy civilian</strong> nearby.</p> <p>The photo of the <strong>enemy civilian</strong> is shown below.</p> <p></p> <img src='stimuli/faces/NFF1.jpg', style='max-width: 30%;'> </img> <p><strong>Would you launch the weapon?</strong></p>","0",""
"","","","","","html-keyboard-response","37","58808","0.0-3.0-0.17","34","1","2023-06-02 16:43:24","a806436d73fb3c2fb9db1ebeb6e0a607","155.193.141.105","Mozilla/5.0 (Windows NT 6.3; Win64; x64) AppleWebKit/537.36 (KHTML, like Gecko) Chrome/109.0.0.0 Safari/537.36","WebKit","Chrome","109.0.0.0","Windows","6.3","null","<div style=""font-size:60px;"">+</div>","null",""
"","","","","","html-button-response","38","60075","0.0-3.0-1.17","34","1","2023-06-02 16:43:24","a806436d73fb3c2fb9db1ebeb6e0a607","155.193.141.105","Mozilla/5.0 (Windows NT 6.3; Win64; x64) AppleWebKit/537.36 (KHTML, like Gecko) Chrome/109.0.0.0 Safari/537.36","WebKit","Chrome","109.0.0.0","Windows","6.3","1263","<p>As the military commander, you could choose to launch a missile to kill <strong>3 enemy soldiers</strong> , but would accidentally kill <strong>1 enemy civilian</strong> nearby.</p> <p>The photo of the <strong>enemy civilian</strong> is shown below.</p> <p></p> <img src='stimuli/faces/NFM4.jpg', style='max-width: 30%;'> </img> <p><strong>Would you launch the weapon?</strong></p>","0",""
"","","","","","html-keyboard-response","39","61081","0.0-3.0-0.18","34","1","2023-06-02 16:43:24","a806436d73fb3c2fb9db1ebeb6e0a607","155.193.141.105","Mozilla/5.0 (Windows NT 6.3; Win64; x64) AppleWebKit/537.36 (KHTML, like Gecko) Chrome/109.0.0.0 Safari/537.36","WebKit","Chrome","109.0.0.0","Windows","6.3","null","<div style=""font-size:60px;"">+</div>","null",""
"","","","","","html-button-response","40","62227","0.0-3.0-1.18","34","1","2023-06-02 16:43:24","a806436d73fb3c2fb9db1ebeb6e0a607","155.193.141.105","Mozilla/5.0 (Windows NT 6.3; Win64; x64) AppleWebKit/537.36 (KHTML, like Gecko) Chrome/109.0.0.0 Safari/537.36","WebKit","Chrome","109.0.0.0","Windows","6.3","1143","<p>As the military commander, you could choose to launch a missile to kill <strong>10 enemy soldiers</strong> , but would accidentally kill <strong>1 enemy civilian</strong> nearby.</p> <p>The photo of the <strong>enemy civilian</strong> is shown below.</p> <p></p> <img src='stimuli/faces/NFM6.jpg', style='max-width: 30%;'> </img> <p><strong>Would you launch the weapon?</strong></p>","0",""
"","","","","","html-keyboard-response","41","63233","0.0-3.0-0.19","34","1","2023-06-02 16:43:24","a806436d73fb3c2fb9db1ebeb6e0a607","155.193.141.105","Mozilla/5.0 (Windows NT 6.3; Win64; x64) AppleWebKit/537.36 (KHTML, like Gecko) Chrome/109.0.0.0 Safari/537.36","WebKit","Chrome","109.0.0.0","Windows","6.3","null","<div style=""font-size:60px;"">+</div>","null",""
"","","","","","html-button-response","42","66684","0.0-3.0-1.19","34","1","2023-06-02 16:43:24","a806436d73fb3c2fb9db1ebeb6e0a607","155.193.141.105","Mozilla/5.0 (Windows NT 6.3; Win64; x64) AppleWebKit/537.36 (KHTML, like Gecko) Chrome/109.0.0.0 Safari/537.36","WebKit","Chrome","109.0.0.0","Windows","6.3","3450","<p>As the military commander, you could choose to launch a missile to kill <strong>4 enemy soldiers</strong> , but would accidentally kill <strong>1 enemy tree</strong> nearby.</p> <p>The photo of the <strong>enemy tree</strong> is shown below.</p> <p></p> <img src='stimuli/tree/2.png', style='max-width: 30%;'> </img> <p><strong>Would you launch the weapon?</strong></p>","1",""
"","","","","","html-keyboard-response","43","67689","0.0-3.0-0.20","34","1","2023-06-02 16:43:24","a806436d73fb3c2fb9db1ebeb6e0a607","155.193.141.105","Mozilla/5.0 (Windows NT 6.3; Win64; x64) AppleWebKit/537.36 (KHTML, like Gecko) Chrome/109.0.0.0 Safari/537.36","WebKit","Chrome","109.0.0.0","Windows","6.3","null","<div style=""font-size:60px;"">+</div>","null",""
"","","","","","html-button-response","44","70152","0.0-3.0-1.20","34","1","2023-06-02 16:43:24","a806436d73fb3c2fb9db1ebeb6e0a607","155.193.141.105","Mozilla/5.0 (Windows NT 6.3; Win64; x64) AppleWebKit/537.36 (KHTML, like Gecko) Chrome/109.0.0.0 Safari/537.36","WebKit","Chrome","109.0.0.0","Windows","6.3","2461","<p>As the military commander, you could choose to launch a missile to kill <strong>4 enemy soldiers</strong> , but would accidentally kill <strong>1 enemy tree</strong> nearby.</p> <p>The photo of the <strong>enemy tree</strong> is shown below.</p> <p></p> <img src='stimuli/tree/1.png', style='max-width: 30%;'> </img> <p><strong>Would you launch the weapon?</strong></p>","1",""
"","","","","","html-keyboard-response","45","71161","0.0-3.0-0.21","34","1","2023-06-02 16:43:24","a806436d73fb3c2fb9db1ebeb6e0a607","155.193.141.105","Mozilla/5.0 (Windows NT 6.3; Win64; x64) AppleWebKit/537.36 (KHTML, like Gecko) Chrome/109.0.0.0 Safari/537.36","WebKit","Chrome","109.0.0.0","Windows","6.3","null","<div style=""font-size:60px;"">+</div>","null",""
"","","","","","html-button-response","46","73013","0.0-3.0-1.21","34","1","2023-06-02 16:43:24","a806436d73fb3c2fb9db1ebeb6e0a607","155.193.141.105","Mozilla/5.0 (Windows NT 6.3; Win64; x64) AppleWebKit/537.36 (KHTML, like Gecko) Chrome/109.0.0.0 Safari/537.36","WebKit","Chrome","109.0.0.0","Windows","6.3","1847","<p>As the military commander, you could choose to launch a missile to kill <strong>1 enemy soldier</strong> , but would accidentally kill <strong>1 enemy tree</strong> nearby.</p> <p>The photo of the <strong>enemy tree</strong> is shown below.</p> <p></p> <img src='stimuli/tree/6.png', style='max-width: 30%;'> </img> <p><strong>Would you launch the weapon?</strong></p>","1",""
"","","","","","html-keyboard-response","47","74017","0.0-3.0-0.22","34","1","2023-06-02 16:43:24","a806436d73fb3c2fb9db1ebeb6e0a607","155.193.141.105","Mozilla/5.0 (Windows NT 6.3; Win64; x64) AppleWebKit/537.36 (KHTML, like Gecko) Chrome/109.0.0.0 Safari/537.36","WebKit","Chrome","109.0.0.0","Windows","6.3","null","<div style=""font-size:60px;"">+</div>","null",""
"","","","","","html-button-response","48","75035","0.0-3.0-1.22","34","1","2023-06-02 16:43:24","a806436d73fb3c2fb9db1ebeb6e0a607","155.193.141.105","Mozilla/5.0 (Windows NT 6.3; Win64; x64) AppleWebKit/537.36 (KHTML, like Gecko) Chrome/109.0.0.0 Safari/537.36","WebKit","Chrome","109.0.0.0","Windows","6.3","1014","<p>As the military commander, you could choose to launch a missile to kill <strong>3 enemy soldiers</strong> , but would accidentally kill <strong>1 enemy tree</strong> nearby.</p> <p>The photo of the <strong>enemy tree</strong> is shown below.</p> <p></p> <img src='stimuli/tree/13.png', style='max-width: 30%;'> </img> <p><strong>Would you launch the weapon?</strong></p>","1",""
"","","","","","html-keyboard-response","49","76043","0.0-3.0-0.23","34","1","2023-06-02 16:43:24","a806436d73fb3c2fb9db1ebeb6e0a607","155.193.141.105","Mozilla/5.0 (Windows NT 6.3; Win64; x64) AppleWebKit/537.36 (KHTML, like Gecko) Chrome/109.0.0.0 Safari/537.36","WebKit","Chrome","109.0.0.0","Windows","6.3","null","<div style=""font-size:60px;"">+</div>","null",""
"","","","","","html-button-response","50","76926","0.0-3.0-1.23","34","1","2023-06-02 16:43:24","a806436d73fb3c2fb9db1ebeb6e0a607","155.193.141.105","Mozilla/5.0 (Windows NT 6.3; Win64; x64) AppleWebKit/537.36 (KHTML, like Gecko) Chrome/109.0.0.0 Safari/537.36","WebKit","Chrome","109.0.0.0","Windows","6.3","879","<p>As the military commander, you could choose to launch a missile to kill <strong>8 enemy soldiers</strong> , but would accidentally kill <strong>1 enemy tree</strong> nearby.</p> <p>The photo of the <strong>enemy tree</strong> is shown below.</p> <p></p> <img src='stimuli/tree/1.png', style='max-width: 30%;'> </img> <p><strong>Would you launch the weapon?</strong></p>","1",""
"","","","","","html-keyboard-response","51","77929","0.0-3.0-0.24","34","1","2023-06-02 16:43:24","a806436d73fb3c2fb9db1ebeb6e0a607","155.193.141.105","Mozilla/5.0 (Windows NT 6.3; Win64; x64) AppleWebKit/537.36 (KHTML, like Gecko) Chrome/109.0.0.0 Safari/537.36","WebKit","Chrome","109.0.0.0","Windows","6.3","null","<div style=""font-size:60px;"">+</div>","null",""
"","","","","","html-button-response","52","79229","0.0-3.0-1.24","34","1","2023-06-02 16:43:24","a806436d73fb3c2fb9db1ebeb6e0a607","155.193.141.105","Mozilla/5.0 (Windows NT 6.3; Win64; x64) AppleWebKit/537.36 (KHTML, like Gecko) Chrome/109.0.0.0 Safari/537.36","WebKit","Chrome","109.0.0.0","Windows","6.3","1300","<p>As the military commander, you could choose to launch a missile to kill <strong>4 enemy soldiers</strong> , but would accidentally kill <strong>1 enemy tree</strong> nearby.</p> <p>The photo of the <strong>enemy tree</strong> is shown below.</p> <p></p> <img src='stimuli/tree/16.png', style='max-width: 30%;'> </img> <p><strong>Would you launch the weapon?</strong></p>","1",""
"","","","","","html-keyboard-response","53","80233","0.0-3.0-0.25","34","1","2023-06-02 16:43:24","a806436d73fb3c2fb9db1ebeb6e0a607","155.193.141.105","Mozilla/5.0 (Windows NT 6.3; Win64; x64) AppleWebKit/537.36 (KHTML, like Gecko) Chrome/109.0.0.0 Safari/537.36","WebKit","Chrome","109.0.0.0","Windows","6.3","null","<div style=""font-size:60px;"">+</div>","null",""
"","","","","","html-button-response","54","81271","0.0-3.0-1.25","34","1","2023-06-02 16:43:24","a806436d73fb3c2fb9db1ebeb6e0a607","155.193.141.105","Mozilla/5.0 (Windows NT 6.3; Win64; x64) AppleWebKit/537.36 (KHTML, like Gecko) Chrome/109.0.0.0 Safari/537.36","WebKit","Chrome","109.0.0.0","Windows","6.3","1033","<p>As the military commander, you could choose to launch a missile to kill <strong>9 enemy soldiers</strong> , but would accidentally kill <strong>1 enemy tree</strong> nearby.</p> <p>The photo of the <strong>enemy tree</strong> is shown below.</p> <p></p> <img src='stimuli/tree/11.png', style='max-width: 30%;'> </img> <p><strong>Would you launch the weapon?</strong></p>","1",""
"","","","","","html-keyboard-response","55","82280","0.0-3.0-0.26","34","1","2023-06-02 16:43:24","a806436d73fb3c2fb9db1ebeb6e0a607","155.193.141.105","Mozilla/5.0 (Windows NT 6.3; Win64; x64) AppleWebKit/537.36 (KHTML, like Gecko) Chrome/109.0.0.0 Safari/537.36","WebKit","Chrome","109.0.0.0","Windows","6.3","null","<div style=""font-size:60px;"">+</div>","null",""
"","","","","","html-button-response","56","83284","0.0-3.0-1.26","34","1","2023-06-02 16:43:24","a806436d73fb3c2fb9db1ebeb6e0a607","155.193.141.105","Mozilla/5.0 (Windows NT 6.3; Win64; x64) AppleWebKit/537.36 (KHTML, like Gecko) Chrome/109.0.0.0 Safari/537.36","WebKit","Chrome","109.0.0.0","Windows","6.3","999","<p>As the military commander, you could choose to launch a missile to kill <strong>10 enemy soldiers</strong> , but would accidentally kill <strong>1 enemy tree</strong> nearby.</p> <p>The photo of the <strong>enemy tree</strong> is shown below.</p> <p></p> <img src='stimuli/tree/15.png', style='max-width: 30%;'> </img> <p><strong>Would you launch the weapon?</strong></p>","1",""
"","","","","","html-keyboard-response","57","84288","0.0-3.0-0.27","34","1","2023-06-02 16:43:24","a806436d73fb3c2fb9db1ebeb6e0a607","155.193.141.105","Mozilla/5.0 (Windows NT 6.3; Win64; x64) AppleWebKit/537.36 (KHTML, like Gecko) Chrome/109.0.0.0 Safari/537.36","WebKit","Chrome","109.0.0.0","Windows","6.3","null","<div style=""font-size:60px;"">+</div>","null",""
"","","","","","html-button-response","58","86573","0.0-3.0-1.27","34","1","2023-06-02 16:43:24","a806436d73fb3c2fb9db1ebeb6e0a607","155.193.141.105","Mozilla/5.0 (Windows NT 6.3; Win64; x64) AppleWebKit/537.36 (KHTML, like Gecko) Chrome/109.0.0.0 Safari/537.36","WebKit","Chrome","109.0.0.0","Windows","6.3","2281","<p>As the military commander, you could choose to launch a missile to kill <strong>1 enemy soldier</strong> , but would accidentally kill <strong>1 enemy civilian</strong> nearby.</p> <p>The photo of the <strong>enemy civilian</strong> is shown below.</p> <p></p> <img src='stimuli/faces/NFM1.jpg', style='max-width: 30%;'> </img> <p><strong>Would you launch the weapon?</strong></p>","0",""
"","","","","","html-keyboard-response","59","87585","0.0-3.0-0.28","34","1","2023-06-02 16:43:24","a806436d73fb3c2fb9db1ebeb6e0a607","155.193.141.105","Mozilla/5.0 (Windows NT 6.3; Win64; x64) AppleWebKit/537.36 (KHTML, like Gecko) Chrome/109.0.0.0 Safari/537.36","WebKit","Chrome","109.0.0.0","Windows","6.3","null","<div style=""font-size:60px;"">+</div>","null",""
"","","","","","html-button-response","60","89283","0.0-3.0-1.28","34","1","2023-06-02 16:43:24","a806436d73fb3c2fb9db1ebeb6e0a607","155.193.141.105","Mozilla/5.0 (Windows NT 6.3; Win64; x64) AppleWebKit/537.36 (KHTML, like Gecko) Chrome/109.0.0.0 Safari/537.36","WebKit","Chrome","109.0.0.0","Windows","6.3","1696","<p>As the military commander, you could choose to launch a missile to kill <strong>9 enemy soldiers</strong> , but would accidentally kill <strong>1 enemy tree</strong> nearby.</p> <p>The photo of the <strong>enemy tree</strong> is shown below.</p> <p></p> <img src='stimuli/tree/14.png', style='max-width: 30%;'> </img> <p><strong>Would you launch the weapon?</strong></p>","1",""
"","","","","","html-keyboard-response","61","90289","0.0-3.0-0.29","34","1","2023-06-02 16:43:24","a806436d73fb3c2fb9db1ebeb6e0a607","155.193.141.105","Mozilla/5.0 (Windows NT 6.3; Win64; x64) AppleWebKit/537.36 (KHTML, like Gecko) Chrome/109.0.0.0 Safari/537.36","WebKit","Chrome","109.0.0.0","Windows","6.3","null","<div style=""font-size:60px;"">+</div>","null",""
"","","","","","html-button-response","62","91348","0.0-3.0-1.29","34","1","2023-06-02 16:43:24","a806436d73fb3c2fb9db1ebeb6e0a607","155.193.141.105","Mozilla/5.0 (Windows NT 6.3; Win64; x64) AppleWebKit/537.36 (KHTML, like Gecko) Chrome/109.0.0.0 Safari/537.36","WebKit","Chrome","109.0.0.0","Windows","6.3","1057","<p>As the military commander, you could choose to launch a missile to kill <strong>3 enemy soldiers</strong> , but would accidentally kill <strong>1 enemy tree</strong> nearby.</p> <p>The photo of the <strong>enemy tree</strong> is shown below.</p> <p></p> <img src='stimuli/tree/5.png', style='max-width: 30%;'> </img> <p><strong>Would you launch the weapon?</strong></p>","1",""
"","","","","","html-keyboard-response","63","92353","0.0-3.0-0.30","34","1","2023-06-02 16:43:24","a806436d73fb3c2fb9db1ebeb6e0a607","155.193.141.105","Mozilla/5.0 (Windows NT 6.3; Win64; x64) AppleWebKit/537.36 (KHTML, like Gecko) Chrome/109.0.0.0 Safari/537.36","WebKit","Chrome","109.0.0.0","Windows","6.3","null","<div style=""font-size:60px;"">+</div>","null",""
"","","","","","html-button-response","64","93419","0.0-3.0-1.30","34","1","2023-06-02 16:43:24","a806436d73fb3c2fb9db1ebeb6e0a607","155.193.141.105","Mozilla/5.0 (Windows NT 6.3; Win64; x64) AppleWebKit/537.36 (KHTML, like Gecko) Chrome/109.0.0.0 Safari/537.36","WebKit","Chrome","109.0.0.0","Windows","6.3","1061","<p>As the military commander, you could choose to launch a missile to kill <strong>4 enemy soldiers</strong> , but would accidentally kill <strong>1 enemy tree</strong> nearby.</p> <p>The photo of the <strong>enemy tree</strong> is shown below.</p> <p></p> <img src='stimuli/tree/12.png', style='max-width: 30%;'> </img> <p><strong>Would you launch the weapon?</strong></p>","1",""
"","","","","","html-keyboard-response","65","94424","0.0-3.0-0.31","34","1","2023-06-02 16:43:24","a806436d73fb3c2fb9db1ebeb6e0a607","155.193.141.105","Mozilla/5.0 (Windows NT 6.3; Win64; x64) AppleWebKit/537.36 (KHTML, like Gecko) Chrome/109.0.0.0 Safari/537.36","WebKit","Chrome","109.0.0.0","Windows","6.3","null","<div style=""font-size:60px;"">+</div>","null",""
"","","","","","html-button-response","66","96442","0.0-3.0-1.31","34","1","2023-06-02 16:43:24","a806436d73fb3c2fb9db1ebeb6e0a607","155.193.141.105","Mozilla/5.0 (Windows NT 6.3; Win64; x64) AppleWebKit/537.36 (KHTML, like Gecko) Chrome/109.0.0.0 Safari/537.36","WebKit","Chrome","109.0.0.0","Windows","6.3","2012","<p>As the military commander, you could choose to launch a missile to kill <strong>1 enemy soldier</strong> , but would accidentally kill <strong>1 enemy civilian</strong> nearby.</p> <p>The photo of the <strong>enemy civilian</strong> is shown below.</p> <p></p> <img src='stimuli/faces/NFM5.jpg', style='max-width: 30%;'> </img> <p><strong>Would you launch the weapon?</strong></p>","0",""
"","","","","","html-keyboard-response","67","97459","0.0-3.0-0.32","34","1","2023-06-02 16:43:24","a806436d73fb3c2fb9db1ebeb6e0a607","155.193.141.105","Mozilla/5.0 (Windows NT 6.3; Win64; x64) AppleWebKit/537.36 (KHTML, like Gecko) Chrome/109.0.0.0 Safari/537.36","WebKit","Chrome","109.0.0.0","Windows","6.3","null","<div style=""font-size:60px;"">+</div>","null",""
"","","","","","html-button-response","68","99332","0.0-3.0-1.32","34","1","2023-06-02 16:43:24","a806436d73fb3c2fb9db1ebeb6e0a607","155.193.141.105","Mozilla/5.0 (Windows NT 6.3; Win64; x64) AppleWebKit/537.36 (KHTML, like Gecko) Chrome/109.0.0.0 Safari/537.36","WebKit","Chrome","109.0.0.0","Windows","6.3","1868","<p>As the military commander, you could choose to launch a missile to kill <strong>9 enemy soldiers</strong> , but would accidentally kill <strong>1 enemy tree</strong> nearby.</p> <p>The photo of the <strong>enemy tree</strong> is shown below.</p> <p></p> <img src='stimuli/tree/7.png', style='max-width: 30%;'> </img> <p><strong>Would you launch the weapon?</strong></p>","1",""
"","","","","","html-keyboard-response","69","100349","0.0-3.0-0.33","34","1","2023-06-02 16:43:24","a806436d73fb3c2fb9db1ebeb6e0a607","155.193.141.105","Mozilla/5.0 (Windows NT 6.3; Win64; x64) AppleWebKit/537.36 (KHTML, like Gecko) Chrome/109.0.0.0 Safari/537.36","WebKit","Chrome","109.0.0.0","Windows","6.3","null","<div style=""font-size:60px;"">+</div>","null",""
"","","","","","html-button-response","70","102720","0.0-3.0-1.33","34","1","2023-06-02 16:43:24","a806436d73fb3c2fb9db1ebeb6e0a607","155.193.141.105","Mozilla/5.0 (Windows NT 6.3; Win64; x64) AppleWebKit/537.36 (KHTML, like Gecko) Chrome/109.0.0.0 Safari/537.36","WebKit","Chrome","109.0.0.0","Windows","6.3","2354","<p>As the military commander, you could choose to launch a missile to kill <strong>3 enemy soldiers</strong> , but would accidentally kill <strong>1 enemy civilian</strong> nearby.</p> <p>The photo of the <strong>enemy civilian</strong> is shown below.</p> <p></p> <img src='stimuli/faces/NFF3.jpg', style='max-width: 30%;'> </img> <p><strong>Would you launch the weapon?</strong></p>","0",""
"","","","","","html-keyboard-response","71","103729","0.0-3.0-0.34","34","1","2023-06-02 16:43:24","a806436d73fb3c2fb9db1ebeb6e0a607","155.193.141.105","Mozilla/5.0 (Windows NT 6.3; Win64; x64) AppleWebKit/537.36 (KHTML, like Gecko) Chrome/109.0.0.0 Safari/537.36","WebKit","Chrome","109.0.0.0","Windows","6.3","null","<div style=""font-size:60px;"">+</div>","null",""
"","","","","","html-button-response","72","105492","0.0-3.0-1.34","34","1","2023-06-02 16:43:24","a806436d73fb3c2fb9db1ebeb6e0a607","155.193.141.105","Mozilla/5.0 (Windows NT 6.3; Win64; x64) AppleWebKit/537.36 (KHTML, like Gecko) Chrome/109.0.0.0 Safari/537.36","WebKit","Chrome","109.0.0.0","Windows","6.3","1758","<p>As the military commander, you could choose to launch a missile to kill <strong>3 enemy soldiers</strong> , but would accidentally kill <strong>1 enemy civilian</strong> nearby.</p> <p>The photo of the <strong>enemy civilian</strong> is shown below.</p> <p></p> <img src='stimuli/faces/NFM8.jpg', style='max-width: 30%;'> </img> <p><strong>Would you launch the weapon?</strong></p>","0",""
"","","","","","html-keyboard-response","73","106496","0.0-3.0-0.35","34","1","2023-06-02 16:43:24","a806436d73fb3c2fb9db1ebeb6e0a607","155.193.141.105","Mozilla/5.0 (Windows NT 6.3; Win64; x64) AppleWebKit/537.36 (KHTML, like Gecko) Chrome/109.0.0.0 Safari/537.36","WebKit","Chrome","109.0.0.0","Windows","6.3","null","<div style=""font-size:60px;"">+</div>","null",""
"","","","","","html-button-response","74","108015","0.0-3.0-1.35","34","1","2023-06-02 16:43:24","a806436d73fb3c2fb9db1ebeb6e0a607","155.193.141.105","Mozilla/5.0 (Windows NT 6.3; Win64; x64) AppleWebKit/537.36 (KHTML, like Gecko) Chrome/109.0.0.0 Safari/537.36","WebKit","Chrome","109.0.0.0","Windows","6.3","1513","<p>As the military commander, you could choose to launch a missile to kill <strong>5 enemy soldiers</strong> , but would accidentally kill <strong>1 enemy tree</strong> nearby.</p> <p>The photo of the <strong>enemy tree</strong> is shown below.</p> <p></p> <img src='stimuli/tree/8.png', style='max-width: 30%;'> </img> <p><strong>Would you launch the weapon?</strong></p>","1",""
"","","","","","html-keyboard-response","75","109025","0.0-3.0-0.36","34","1","2023-06-02 16:43:24","a806436d73fb3c2fb9db1ebeb6e0a607","155.193.141.105","Mozilla/5.0 (Windows NT 6.3; Win64; x64) AppleWebKit/537.36 (KHTML, like Gecko) Chrome/109.0.0.0 Safari/537.36","WebKit","Chrome","109.0.0.0","Windows","6.3","null","<div style=""font-size:60px;"">+</div>","null",""
"","","","","","html-button-response","76","119133","0.0-3.0-1.36","34","1","2023-06-02 16:43:24","a806436d73fb3c2fb9db1ebeb6e0a607","155.193.141.105","Mozilla/5.0 (Windows NT 6.3; Win64; x64) AppleWebKit/537.36 (KHTML, like Gecko) Chrome/109.0.0.0 Safari/537.36","WebKit","Chrome","109.0.0.0","Windows","6.3","10102","<p>As the military commander, you could choose to launch a missile to kill <strong>10 enemy soldiers</strong> , but would accidentally kill <strong>1 enemy tree</strong> nearby.</p> <p>The photo of the <strong>enemy tree</strong> is shown below.</p> <p></p> <img src='stimuli/tree/13.png', style='max-width: 30%;'> </img> <p><strong>Would you launch the weapon?</strong></p>","1",""
"","","","","","html-keyboard-response","77","120136","0.0-3.0-0.37","34","1","2023-06-02 16:43:24","a806436d73fb3c2fb9db1ebeb6e0a607","155.193.141.105","Mozilla/5.0 (Windows NT 6.3; Win64; x64) AppleWebKit/537.36 (KHTML, like Gecko) Chrome/109.0.0.0 Safari/537.36","WebKit","Chrome","109.0.0.0","Windows","6.3","null","<div style=""font-size:60px;"">+</div>","null",""
"","","","","","html-button-response","78","121660","0.0-3.0-1.37","34","1","2023-06-02 16:43:24","a806436d73fb3c2fb9db1ebeb6e0a607","155.193.141.105","Mozilla/5.0 (Windows NT 6.3; Win64; x64) AppleWebKit/537.36 (KHTML, like Gecko) Chrome/109.0.0.0 Safari/537.36","WebKit","Chrome","109.0.0.0","Windows","6.3","1521","<p>As the military commander, you could choose to launch a missile to kill <strong>10 enemy soldiers</strong> , but would accidentally kill <strong>1 enemy tree</strong> nearby.</p> <p>The photo of the <strong>enemy tree</strong> is shown below.</p> <p></p> <img src='stimuli/tree/16.png', style='max-width: 30%;'> </img> <p><strong>Would you launch the weapon?</strong></p>","1",""
"","","","","","html-keyboard-response","79","122673","0.0-3.0-0.38","34","1","2023-06-02 16:43:24","a806436d73fb3c2fb9db1ebeb6e0a607","155.193.141.105","Mozilla/5.0 (Windows NT 6.3; Win64; x64) AppleWebKit/537.36 (KHTML, like Gecko) Chrome/109.0.0.0 Safari/537.36","WebKit","Chrome","109.0.0.0","Windows","6.3","null","<div style=""font-size:60px;"">+</div>","null",""
"","","","","","html-button-response","80","124772","0.0-3.0-1.38","34","1","2023-06-02 16:43:24","a806436d73fb3c2fb9db1ebeb6e0a607","155.193.141.105","Mozilla/5.0 (Windows NT 6.3; Win64; x64) AppleWebKit/537.36 (KHTML, like Gecko) Chrome/109.0.0.0 Safari/537.36","WebKit","Chrome","109.0.0.0","Windows","6.3","2096","<p>As the military commander, you could choose to launch a missile to kill <strong>5 enemy soldiers</strong> , but would accidentally kill <strong>1 enemy civilian</strong> nearby.</p> <p>The photo of the <strong>enemy civilian</strong> is shown below.</p> <p></p> <img src='stimuli/faces/NFM6.jpg', style='max-width: 30%;'> </img> <p><strong>Would you launch the weapon?</strong></p>","0",""
"","","","","","html-keyboard-response","81","125784","0.0-3.0-0.39","34","1","2023-06-02 16:43:24","a806436d73fb3c2fb9db1ebeb6e0a607","155.193.141.105","Mozilla/5.0 (Windows NT 6.3; Win64; x64) AppleWebKit/537.36 (KHTML, like Gecko) Chrome/109.0.0.0 Safari/537.36","WebKit","Chrome","109.0.0.0","Windows","6.3","null","<div style=""font-size:60px;"">+</div>","null",""
"","","","","","html-button-response","82","127374","0.0-3.0-1.39","34","1","2023-06-02 16:43:24","a806436d73fb3c2fb9db1ebeb6e0a607","155.193.141.105","Mozilla/5.0 (Windows NT 6.3; Win64; x64) AppleWebKit/537.36 (KHTML, like Gecko) Chrome/109.0.0.0 Safari/537.36","WebKit","Chrome","109.0.0.0","Windows","6.3","1560","<p>As the military commander, you could choose to launch a missile to kill <strong>10 enemy soldiers</strong> , but would accidentally kill <strong>1 enemy tree</strong> nearby.</p> <p>The photo of the <strong>enemy tree</strong> is shown below.</p> <p></p> <img src='stimuli/tree/5.png', style='max-width: 30%;'> </img> <p><strong>Would you launch the weapon?</strong></p>","1",""
"","","","","","html-keyboard-response","83","128384","0.0-3.0-0.40","34","1","2023-06-02 16:43:24","a806436d73fb3c2fb9db1ebeb6e0a607","155.193.141.105","Mozilla/5.0 (Windows NT 6.3; Win64; x64) AppleWebKit/537.36 (KHTML, like Gecko) Chrome/109.0.0.0 Safari/537.36","WebKit","Chrome","109.0.0.0","Windows","6.3","null","<div style=""font-size:60px;"">+</div>","null",""
"","","","","","html-button-response","84","130831","0.0-3.0-1.40","34","1","2023-06-02 16:43:24","a806436d73fb3c2fb9db1ebeb6e0a607","155.193.141.105","Mozilla/5.0 (Windows NT 6.3; Win64; x64) AppleWebKit/537.36 (KHTML, like Gecko) Chrome/109.0.0.0 Safari/537.36","WebKit","Chrome","109.0.0.0","Windows","6.3","2442","<p>As the military commander, you could choose to launch a missile to kill <strong>10 enemy soldiers</strong> , but would accidentally kill <strong>1 enemy tree</strong> nearby.</p> <p>The photo of the <strong>enemy tree</strong> is shown below.</p> <p></p> <img src='stimuli/tree/9.png', style='max-width: 30%;'> </img> <p><strong>Would you launch the weapon?</strong></p>","1",""
"","","","","","html-keyboard-response","85","131833","0.0-3.0-0.41","34","1","2023-06-02 16:43:24","a806436d73fb3c2fb9db1ebeb6e0a607","155.193.141.105","Mozilla/5.0 (Windows NT 6.3; Win64; x64) AppleWebKit/537.36 (KHTML, like Gecko) Chrome/109.0.0.0 Safari/537.36","WebKit","Chrome","109.0.0.0","Windows","6.3","null","<div style=""font-size:60px;"">+</div>","null",""
"","","","","","html-button-response","86","133445","0.0-3.0-1.41","34","1","2023-06-02 16:43:24","a806436d73fb3c2fb9db1ebeb6e0a607","155.193.141.105","Mozilla/5.0 (Windows NT 6.3; Win64; x64) AppleWebKit/537.36 (KHTML, like Gecko) Chrome/109.0.0.0 Safari/537.36","WebKit","Chrome","109.0.0.0","Windows","6.3","1609","<p>As the military commander, you could choose to launch a missile to kill <strong>2 enemy soldiers</strong> , but would accidentally kill <strong>1 enemy civilian</strong> nearby.</p> <p>The photo of the <strong>enemy civilian</strong> is shown below.</p> <p></p> <img src='stimuli/faces/NFM7.jpg', style='max-width: 30%;'> </img> <p><strong>Would you launch the weapon?</strong></p>","0",""
"","","","","","html-keyboard-response","87","134464","0.0-3.0-0.42","34","1","2023-06-02 16:43:24","a806436d73fb3c2fb9db1ebeb6e0a607","155.193.141.105","Mozilla/5.0 (Windows NT 6.3; Win64; x64) AppleWebKit/537.36 (KHTML, like Gecko) Chrome/109.0.0.0 Safari/537.36","WebKit","Chrome","109.0.0.0","Windows","6.3","null","<div style=""font-size:60px;"">+</div>","null",""
"","","","","","html-button-response","88","136063","0.0-3.0-1.42","34","1","2023-06-02 16:43:24","a806436d73fb3c2fb9db1ebeb6e0a607","155.193.141.105","Mozilla/5.0 (Windows NT 6.3; Win64; x64) AppleWebKit/537.36 (KHTML, like Gecko) Chrome/109.0.0.0 Safari/537.36","WebKit","Chrome","109.0.0.0","Windows","6.3","1598","<p>As the military commander, you could choose to launch a missile to kill <strong>9 enemy soldiers</strong> , but would accidentally kill <strong>1 enemy tree</strong> nearby.</p> <p>The photo of the <strong>enemy tree</strong> is shown below.</p> <p></p> <img src='stimuli/tree/3.png', style='max-width: 30%;'> </img> <p><strong>Would you launch the weapon?</strong></p>","1",""
"","","","","","html-keyboard-response","89","137072","0.0-3.0-0.43","34","1","2023-06-02 16:43:24","a806436d73fb3c2fb9db1ebeb6e0a607","155.193.141.105","Mozilla/5.0 (Windows NT 6.3; Win64; x64) AppleWebKit/537.36 (KHTML, like Gecko) Chrome/109.0.0.0 Safari/537.36","WebKit","Chrome","109.0.0.0","Windows","6.3","null","<div style=""font-size:60px;"">+</div>","null",""
"","","","","","html-button-response","90","138214","0.0-3.0-1.43","34","1","2023-06-02 16:43:24","a806436d73fb3c2fb9db1ebeb6e0a607","155.193.141.105","Mozilla/5.0 (Windows NT 6.3; Win64; x64) AppleWebKit/537.36 (KHTML, like Gecko) Chrome/109.0.0.0 Safari/537.36","WebKit","Chrome","109.0.0.0","Windows","6.3","1136","<p>As the military commander, you could choose to launch a missile to kill <strong>10 enemy soldiers</strong> , but would accidentally kill <strong>1 enemy tree</strong> nearby.</p> <p>The photo of the <strong>enemy tree</strong> is shown below.</p> <p></p> <img src='stimuli/tree/6.png', style='max-width: 30%;'> </img> <p><strong>Would you launch the weapon?</strong></p>","1",""
"","","","","","html-keyboard-response","91","139224","0.0-3.0-0.44","34","1","2023-06-02 16:43:24","a806436d73fb3c2fb9db1ebeb6e0a607","155.193.141.105","Mozilla/5.0 (Windows NT 6.3; Win64; x64) AppleWebKit/537.36 (KHTML, like Gecko) Chrome/109.0.0.0 Safari/537.36","WebKit","Chrome","109.0.0.0","Windows","6.3","null","<div style=""font-size:60px;"">+</div>","null",""
"","","","","","html-button-response","92","140876","0.0-3.0-1.44","34","1","2023-06-02 16:43:24","a806436d73fb3c2fb9db1ebeb6e0a607","155.193.141.105","Mozilla/5.0 (Windows NT 6.3; Win64; x64) AppleWebKit/537.36 (KHTML, like Gecko) Chrome/109.0.0.0 Safari/537.36","WebKit","Chrome","109.0.0.0","Windows","6.3","1645","<p>As the military commander, you could choose to launch a missile to kill <strong>10 enemy soldiers</strong> , but would accidentally kill <strong>1 enemy civilian</strong> nearby.</p> <p>The photo of the <strong>enemy civilian</strong> is shown below.</p> <p></p> <img src='stimuli/faces/NFF1.jpg', style='max-width: 30%;'> </img> <p><strong>Would you launch the weapon?</strong></p>","0",""
"","","","","","html-keyboard-response","93","141889","0.0-3.0-0.45","34","1","2023-06-02 16:43:24","a806436d73fb3c2fb9db1ebeb6e0a607","155.193.141.105","Mozilla/5.0 (Windows NT 6.3; Win64; x64) AppleWebKit/537.36 (KHTML, like Gecko) Chrome/109.0.0.0 Safari/537.36","WebKit","Chrome","109.0.0.0","Windows","6.3","null","<div style=""font-size:60px;"">+</div>","null",""
"","","","","","html-button-response","94","143511","0.0-3.0-1.45","34","1","2023-06-02 16:43:24","a806436d73fb3c2fb9db1ebeb6e0a607","155.193.141.105","Mozilla/5.0 (Windows NT 6.3; Win64; x64) AppleWebKit/537.36 (KHTML, like Gecko) Chrome/109.0.0.0 Safari/537.36","WebKit","Chrome","109.0.0.0","Windows","6.3","1618","<p>As the military commander, you could choose to launch a missile to kill <strong>1 enemy soldier</strong> , but would accidentally kill <strong>1 enemy tree</strong> nearby.</p> <p>The photo of the <strong>enemy tree</strong> is shown below.</p> <p></p> <img src='stimuli/tree/7.png', style='max-width: 30%;'> </img> <p><strong>Would you launch the weapon?</strong></p>","0",""
"","","","","","html-keyboard-response","95","144521","0.0-3.0-0.46","34","1","2023-06-02 16:43:24","a806436d73fb3c2fb9db1ebeb6e0a607","155.193.141.105","Mozilla/5.0 (Windows NT 6.3; Win64; x64) AppleWebKit/537.36 (KHTML, like Gecko) Chrome/109.0.0.0 Safari/537.36","WebKit","Chrome","109.0.0.0","Windows","6.3","null","<div style=""font-size:60px;"">+</div>","null",""
"","","","","","html-button-response","96","146175","0.0-3.0-1.46","34","1","2023-06-02 16:43:24","a806436d73fb3c2fb9db1ebeb6e0a607","155.193.141.105","Mozilla/5.0 (Windows NT 6.3; Win64; x64) AppleWebKit/537.36 (KHTML, like Gecko) Chrome/109.0.0.0 Safari/537.36","WebKit","Chrome","109.0.0.0","Windows","6.3","1651","<p>As the military commander, you could choose to launch a missile to kill <strong>4 enemy soldiers</strong> , but would accidentally kill <strong>1 enemy tree</strong> nearby.</p> <p>The photo of the <strong>enemy tree</strong> is shown below.</p> <p></p> <img src='stimuli/tree/11.png', style='max-width: 30%;'> </img> <p><strong>Would you launch the weapon?</strong></p>","1",""
"","","","","","html-keyboard-response","97","147184","0.0-3.0-0.47","34","1","2023-06-02 16:43:24","a806436d73fb3c2fb9db1ebeb6e0a607","155.193.141.105","Mozilla/5.0 (Windows NT 6.3; Win64; x64) AppleWebKit/537.36 (KHTML, like Gecko) Chrome/109.0.0.0 Safari/537.36","WebKit","Chrome","109.0.0.0","Windows","6.3","null","<div style=""font-size:60px;"">+</div>","null",""
"","","","","","html-button-response","98","148805","0.0-3.0-1.47","34","1","2023-06-02 16:43:24","a806436d73fb3c2fb9db1ebeb6e0a607","155.193.141.105","Mozilla/5.0 (Windows NT 6.3; Win64; x64) AppleWebKit/537.36 (KHTML, like Gecko) Chrome/109.0.0.0 Safari/537.36","WebKit","Chrome","109.0.0.0","Windows","6.3","1616","<p>As the military commander, you could choose to launch a missile to kill <strong>7 enemy soldiers</strong> , but would accidentally kill <strong>1 enemy civilian</strong> nearby.</p> <p>The photo of the <strong>enemy civilian</strong> is shown below.</p> <p></p> <img src='stimuli/faces/NFF3.jpg', style='max-width: 30%;'> </img> <p><strong>Would you launch the weapon?</strong></p>","0",""
"","","","","","html-keyboard-response","99","149817","0.0-3.0-0.48","34","1","2023-06-02 16:43:24","a806436d73fb3c2fb9db1ebeb6e0a607","155.193.141.105","Mozilla/5.0 (Windows NT 6.3; Win64; x64) AppleWebKit/537.36 (KHTML, like Gecko) Chrome/109.0.0.0 Safari/537.36","WebKit","Chrome","109.0.0.0","Windows","6.3","null","<div style=""font-size:60px;"">+</div>","null",""
"","","","","","html-button-response","100","151139","0.0-3.0-1.48","34","1","2023-06-02 16:43:24","a806436d73fb3c2fb9db1ebeb6e0a607","155.193.141.105","Mozilla/5.0 (Windows NT 6.3; Win64; x64) AppleWebKit/537.36 (KHTML, like Gecko) Chrome/109.0.0.0 Safari/537.36","WebKit","Chrome","109.0.0.0","Windows","6.3","1321","<p>As the military commander, you could choose to launch a missile to kill <strong>9 enemy soldiers</strong> , but would accidentally kill <strong>1 enemy civilian</strong> nearby.</p> <p>The photo of the <strong>enemy civilian</strong> is shown below.</p> <p></p> <img src='stimuli/faces/NFF6.jpg', style='max-width: 30%;'> </img> <p><strong>Would you launch the weapon?</strong></p>","0",""
"","","","","","html-keyboard-response","101","152154","0.0-3.0-0.49","34","1","2023-06-02 16:43:24","a806436d73fb3c2fb9db1ebeb6e0a607","155.193.141.105","Mozilla/5.0 (Windows NT 6.3; Win64; x64) AppleWebKit/537.36 (KHTML, like Gecko) Chrome/109.0.0.0 Safari/537.36","WebKit","Chrome","109.0.0.0","Windows","6.3","null","<div style=""font-size:60px;"">+</div>","null",""
"","","","","","html-button-response","102","153648","0.0-3.0-1.49","34","1","2023-06-02 16:43:24","a806436d73fb3c2fb9db1ebeb6e0a607","155.193.141.105","Mozilla/5.0 (Windows NT 6.3; Win64; x64) AppleWebKit/537.36 (KHTML, like Gecko) Chrome/109.0.0.0 Safari/537.36","WebKit","Chrome","109.0.0.0","Windows","6.3","1485","<p>As the military commander, you could choose to launch a missile to kill <strong>6 enemy soldiers</strong> , but would accidentally kill <strong>1 enemy civilian</strong> nearby.</p> <p>The photo of the <strong>enemy civilian</strong> is shown below.</p> <p></p> <img src='stimuli/faces/NFM5.jpg', style='max-width: 30%;'> </img> <p><strong>Would you launch the weapon?</strong></p>","0",""
"","","","","","html-keyboard-response","103","154660","0.0-3.0-0.50","34","1","2023-06-02 16:43:24","a806436d73fb3c2fb9db1ebeb6e0a607","155.193.141.105","Mozilla/5.0 (Windows NT 6.3; Win64; x64) AppleWebKit/537.36 (KHTML, like Gecko) Chrome/109.0.0.0 Safari/537.36","WebKit","Chrome","109.0.0.0","Windows","6.3","null","<div style=""font-size:60px;"">+</div>","null",""
"","","","","","html-button-response","104","155967","0.0-3.0-1.50","34","1","2023-06-02 16:43:24","a806436d73fb3c2fb9db1ebeb6e0a607","155.193.141.105","Mozilla/5.0 (Windows NT 6.3; Win64; x64) AppleWebKit/537.36 (KHTML, like Gecko) Chrome/109.0.0.0 Safari/537.36","WebKit","Chrome","109.0.0.0","Windows","6.3","1301","<p>As the military commander, you could choose to launch a missile to kill <strong>7 enemy soldiers</strong> , but would accidentally kill <strong>1 enemy civilian</strong> nearby.</p> <p>The photo of the <strong>enemy civilian</strong> is shown below.</p> <p></p> <img src='stimuli/faces/NFF8.jpg', style='max-width: 30%;'> </img> <p><strong>Would you launch the weapon?</strong></p>","0",""
"","","","","","html-keyboard-response","105","156977","0.0-3.0-0.51","34","1","2023-06-02 16:43:24","a806436d73fb3c2fb9db1ebeb6e0a607","155.193.141.105","Mozilla/5.0 (Windows NT 6.3; Win64; x64) AppleWebKit/537.36 (KHTML, like Gecko) Chrome/109.0.0.0 Safari/537.36","WebKit","Chrome","109.0.0.0","Windows","6.3","null","<div style=""font-size:60px;"">+</div>","null",""
"","","","","","html-button-response","106","158190","0.0-3.0-1.51","34","1","2023-06-02 16:43:24","a806436d73fb3c2fb9db1ebeb6e0a607","155.193.141.105","Mozilla/5.0 (Windows NT 6.3; Win64; x64) AppleWebKit/537.36 (KHTML, like Gecko) Chrome/109.0.0.0 Safari/537.36","WebKit","Chrome","109.0.0.0","Windows","6.3","1209","<p>As the military commander, you could choose to launch a missile to kill <strong>1 enemy soldier</strong> , but would accidentally kill <strong>1 enemy civilian</strong> nearby.</p> <p>The photo of the <strong>enemy civilian</strong> is shown below.</p> <p></p> <img src='stimuli/faces/NFM3.jpg', style='max-width: 30%;'> </img> <p><strong>Would you launch the weapon?</strong></p>","0",""
"","","","","","html-keyboard-response","107","159200","0.0-3.0-0.52","34","1","2023-06-02 16:43:24","a806436d73fb3c2fb9db1ebeb6e0a607","155.193.141.105","Mozilla/5.0 (Windows NT 6.3; Win64; x64) AppleWebKit/537.36 (KHTML, like Gecko) Chrome/109.0.0.0 Safari/537.36","WebKit","Chrome","109.0.0.0","Windows","6.3","null","<div style=""font-size:60px;"">+</div>","null",""
"","","","","","html-button-response","108","160096","0.0-3.0-1.52","34","1","2023-06-02 16:43:24","a806436d73fb3c2fb9db1ebeb6e0a607","155.193.141.105","Mozilla/5.0 (Windows NT 6.3; Win64; x64) AppleWebKit/537.36 (KHTML, like Gecko) Chrome/109.0.0.0 Safari/537.36","WebKit","Chrome","109.0.0.0","Windows","6.3","871","<p>As the military commander, you could choose to launch a missile to kill <strong>7 enemy soldiers</strong> , but would accidentally kill <strong>1 enemy civilian</strong> nearby.</p> <p>The photo of the <strong>enemy civilian</strong> is shown below.</p> <p></p> <img src='stimuli/faces/NFM8.jpg', style='max-width: 30%;'> </img> <p><strong>Would you launch the weapon?</strong></p>","0",""
"","","","","","html-keyboard-response","109","161105","0.0-3.0-0.53","34","1","2023-06-02 16:43:24","a806436d73fb3c2fb9db1ebeb6e0a607","155.193.141.105","Mozilla/5.0 (Windows NT 6.3; Win64; x64) AppleWebKit/537.36 (KHTML, like Gecko) Chrome/109.0.0.0 Safari/537.36","WebKit","Chrome","109.0.0.0","Windows","6.3","null","<div style=""font-size:60px;"">+</div>","null",""
"","","","","","html-button-response","110","162333","0.0-3.0-1.53","34","1","2023-06-02 16:43:24","a806436d73fb3c2fb9db1ebeb6e0a607","155.193.141.105","Mozilla/5.0 (Windows NT 6.3; Win64; x64) AppleWebKit/537.36 (KHTML, like Gecko) Chrome/109.0.0.0 Safari/537.36","WebKit","Chrome","109.0.0.0","Windows","6.3","1220","<p>As the military commander, you could choose to launch a missile to kill <strong>2 enemy soldiers</strong> , but would accidentally kill <strong>1 enemy civilian</strong> nearby.</p> <p>The photo of the <strong>enemy civilian</strong> is shown below.</p> <p></p> <img src='stimuli/faces/NFM2.jpg', style='max-width: 30%;'> </img> <p><strong>Would you launch the weapon?</strong></p>","0",""
"","","","","","html-keyboard-response","111","163345","0.0-3.0-0.54","34","1","2023-06-02 16:43:24","a806436d73fb3c2fb9db1ebeb6e0a607","155.193.141.105","Mozilla/5.0 (Windows NT 6.3; Win64; x64) AppleWebKit/537.36 (KHTML, like Gecko) Chrome/109.0.0.0 Safari/537.36","WebKit","Chrome","109.0.0.0","Windows","6.3","null","<div style=""font-size:60px;"">+</div>","null",""
"","","","","","html-button-response","112","165103","0.0-3.0-1.54","34","1","2023-06-02 16:43:24","a806436d73fb3c2fb9db1ebeb6e0a607","155.193.141.105","Mozilla/5.0 (Windows NT 6.3; Win64; x64) AppleWebKit/537.36 (KHTML, like Gecko) Chrome/109.0.0.0 Safari/537.36","WebKit","Chrome","109.0.0.0","Windows","6.3","1754","<p>As the military commander, you could choose to launch a missile to kill <strong>8 enemy soldiers</strong> , but would accidentally kill <strong>1 enemy tree</strong> nearby.</p> <p>The photo of the <strong>enemy tree</strong> is shown below.</p> <p></p> <img src='stimuli/tree/2.png', style='max-width: 30%;'> </img> <p><strong>Would you launch the weapon?</strong></p>","1",""
"","","","","","html-keyboard-response","113","166112","0.0-3.0-0.55","34","1","2023-06-02 16:43:24","a806436d73fb3c2fb9db1ebeb6e0a607","155.193.141.105","Mozilla/5.0 (Windows NT 6.3; Win64; x64) AppleWebKit/537.36 (KHTML, like Gecko) Chrome/109.0.0.0 Safari/537.36","WebKit","Chrome","109.0.0.0","Windows","6.3","null","<div style=""font-size:60px;"">+</div>","null",""
"","","","","","html-button-response","114","167584","0.0-3.0-1.55","34","1","2023-06-02 16:43:24","a806436d73fb3c2fb9db1ebeb6e0a607","155.193.141.105","Mozilla/5.0 (Windows NT 6.3; Win64; x64) AppleWebKit/537.36 (KHTML, like Gecko) Chrome/109.0.0.0 Safari/537.36","WebKit","Chrome","109.0.0.0","Windows","6.3","1466","<p>As the military commander, you could choose to launch a missile to kill <strong>2 enemy soldiers</strong> , but would accidentally kill <strong>1 enemy tree</strong> nearby.</p> <p>The photo of the <strong>enemy tree</strong> is shown below.</p> <p></p> <img src='stimuli/tree/9.png', style='max-width: 30%;'> </img> <p><strong>Would you launch the weapon?</strong></p>","1",""
"","","","","","html-keyboard-response","115","168593","0.0-3.0-0.56","34","1","2023-06-02 16:43:24","a806436d73fb3c2fb9db1ebeb6e0a607","155.193.141.105","Mozilla/5.0 (Windows NT 6.3; Win64; x64) AppleWebKit/537.36 (KHTML, like Gecko) Chrome/109.0.0.0 Safari/537.36","WebKit","Chrome","109.0.0.0","Windows","6.3","null","<div style=""font-size:60px;"">+</div>","null",""
"","","","","","html-button-response","116","170106","0.0-3.0-1.56","34","1","2023-06-02 16:43:24","a806436d73fb3c2fb9db1ebeb6e0a607","155.193.141.105","Mozilla/5.0 (Windows NT 6.3; Win64; x64) AppleWebKit/537.36 (KHTML, like Gecko) Chrome/109.0.0.0 Safari/537.36","WebKit","Chrome","109.0.0.0","Windows","6.3","1505","<p>As the military commander, you could choose to launch a missile to kill <strong>10 enemy soldiers</strong> , but would accidentally kill <strong>1 enemy civilian</strong> nearby.</p> <p>The photo of the <strong>enemy civilian</strong> is shown below.</p> <p></p> <img src='stimuli/faces/NFF7.jpg', style='max-width: 30%;'> </img> <p><strong>Would you launch the weapon?</strong></p>","1",""
"","","","","","html-keyboard-response","117","171112","0.0-3.0-0.57","34","1","2023-06-02 16:43:24","a806436d73fb3c2fb9db1ebeb6e0a607","155.193.141.105","Mozilla/5.0 (Windows NT 6.3; Win64; x64) AppleWebKit/537.36 (KHTML, like Gecko) Chrome/109.0.0.0 Safari/537.36","WebKit","Chrome","109.0.0.0","Windows","6.3","null","<div style=""font-size:60px;"">+</div>","null",""
"","","","","","html-button-response","118","173600","0.0-3.0-1.57","34","1","2023-06-02 16:43:24","a806436d73fb3c2fb9db1ebeb6e0a607","155.193.141.105","Mozilla/5.0 (Windows NT 6.3; Win64; x64) AppleWebKit/537.36 (KHTML, like Gecko) Chrome/109.0.0.0 Safari/537.36","WebKit","Chrome","109.0.0.0","Windows","6.3","2484","<p>As the military commander, you could choose to launch a missile to kill <strong>9 enemy soldiers</strong> , but would accidentally kill <strong>1 enemy tree</strong> nearby.</p> <p>The photo of the <strong>enemy tree</strong> is shown below.</p> <p></p> <img src='stimuli/tree/8.png', style='max-width: 30%;'> </img> <p><strong>Would you launch the weapon?</strong></p>","1",""
"","","","","","html-keyboard-response","119","174608","0.0-3.0-0.58","34","1","2023-06-02 16:43:24","a806436d73fb3c2fb9db1ebeb6e0a607","155.193.141.105","Mozilla/5.0 (Windows NT 6.3; Win64; x64) AppleWebKit/537.36 (KHTML, like Gecko) Chrome/109.0.0.0 Safari/537.36","WebKit","Chrome","109.0.0.0","Windows","6.3","null","<div style=""font-size:60px;"">+</div>","null",""
"","","","","","html-button-response","120","176239","0.0-3.0-1.58","34","1","2023-06-02 16:43:24","a806436d73fb3c2fb9db1ebeb6e0a607","155.193.141.105","Mozilla/5.0 (Windows NT 6.3; Win64; x64) AppleWebKit/537.36 (KHTML, like Gecko) Chrome/109.0.0.0 Safari/537.36","WebKit","Chrome","109.0.0.0","Windows","6.3","1627","<p>As the military commander, you could choose to launch a missile to kill <strong>6 enemy soldiers</strong> , but would accidentally kill <strong>1 enemy tree</strong> nearby.</p> <p>The photo of the <strong>enemy tree</strong> is shown below.</p> <p></p> <img src='stimuli/tree/12.png', style='max-width: 30%;'> </img> <p><strong>Would you launch the weapon?</strong></p>","1",""
"","","","","","html-keyboard-response","121","177249","0.0-3.0-0.59","34","1","2023-06-02 16:43:24","a806436d73fb3c2fb9db1ebeb6e0a607","155.193.141.105","Mozilla/5.0 (Windows NT 6.3; Win64; x64) AppleWebKit/537.36 (KHTML, like Gecko) Chrome/109.0.0.0 Safari/537.36","WebKit","Chrome","109.0.0.0","Windows","6.3","null","<div style=""font-size:60px;"">+</div>","null",""
"","","","","","html-button-response","122","178270","0.0-3.0-1.59","34","1","2023-06-02 16:43:24","a806436d73fb3c2fb9db1ebeb6e0a607","155.193.141.105","Mozilla/5.0 (Windows NT 6.3; Win64; x64) AppleWebKit/537.36 (KHTML, like Gecko) Chrome/109.0.0.0 Safari/537.36","WebKit","Chrome","109.0.0.0","Windows","6.3","1021","<p>As the military commander, you could choose to launch a missile to kill <strong>5 enemy soldiers</strong> , but would accidentally kill <strong>1 enemy tree</strong> nearby.</p> <p>The photo of the <strong>enemy tree</strong> is shown below.</p> <p></p> <img src='stimuli/tree/10.png', style='max-width: 30%;'> </img> <p><strong>Would you launch the weapon?</strong></p>","1",""
"","","","","","html-keyboard-response","123","179280","0.0-3.0-0.60","34","1","2023-06-02 16:43:24","a806436d73fb3c2fb9db1ebeb6e0a607","155.193.141.105","Mozilla/5.0 (Windows NT 6.3; Win64; x64) AppleWebKit/537.36 (KHTML, like Gecko) Chrome/109.0.0.0 Safari/537.36","WebKit","Chrome","109.0.0.0","Windows","6.3","null","<div style=""font-size:60px;"">+</div>","null",""
"","","","","","html-button-response","124","180670","0.0-3.0-1.60","34","1","2023-06-02 16:43:24","a806436d73fb3c2fb9db1ebeb6e0a607","155.193.141.105","Mozilla/5.0 (Windows NT 6.3; Win64; x64) AppleWebKit/537.36 (KHTML, like Gecko) Chrome/109.0.0.0 Safari/537.36","WebKit","Chrome","109.0.0.0","Windows","6.3","1385","<p>As the military commander, you could choose to launch a missile to kill <strong>3 enemy soldiers</strong> , but would accidentally kill <strong>1 enemy tree</strong> nearby.</p> <p>The photo of the <strong>enemy tree</strong> is shown below.</p> <p></p> <img src='stimuli/tree/15.png', style='max-width: 30%;'> </img> <p><strong>Would you launch the weapon?</strong></p>","1",""
"","","","","","html-keyboard-response","125","181680","0.0-3.0-0.61","34","1","2023-06-02 16:43:24","a806436d73fb3c2fb9db1ebeb6e0a607","155.193.141.105","Mozilla/5.0 (Windows NT 6.3; Win64; x64) AppleWebKit/537.36 (KHTML, like Gecko) Chrome/109.0.0.0 Safari/537.36","WebKit","Chrome","109.0.0.0","Windows","6.3","null","<div style=""font-size:60px;"">+</div>","null",""
"","","","","","html-button-response","126","182800","0.0-3.0-1.61","34","1","2023-06-02 16:43:24","a806436d73fb3c2fb9db1ebeb6e0a607","155.193.141.105","Mozilla/5.0 (Windows NT 6.3; Win64; x64) AppleWebKit/537.36 (KHTML, like Gecko) Chrome/109.0.0.0 Safari/537.36","WebKit","Chrome","109.0.0.0","Windows","6.3","1120","<p>As the military commander, you could choose to launch a missile to kill <strong>1 enemy soldier</strong> , but would accidentally kill <strong>1 enemy tree</strong> nearby.</p> <p>The photo of the <strong>enemy tree</strong> is shown below.</p> <p></p> <img src='stimuli/tree/14.png', style='max-width: 30%;'> </img> <p><strong>Would you launch the weapon?</strong></p>","1",""
"","","","","","html-keyboard-response","127","183809","0.0-3.0-0.62","34","1","2023-06-02 16:43:24","a806436d73fb3c2fb9db1ebeb6e0a607","155.193.141.105","Mozilla/5.0 (Windows NT 6.3; Win64; x64) AppleWebKit/537.36 (KHTML, like Gecko) Chrome/109.0.0.0 Safari/537.36","WebKit","Chrome","109.0.0.0","Windows","6.3","null","<div style=""font-size:60px;"">+</div>","null",""
"","","","","","html-button-response","128","185478","0.0-3.0-1.62","34","1","2023-06-02 16:43:24","a806436d73fb3c2fb9db1ebeb6e0a607","155.193.141.105","Mozilla/5.0 (Windows NT 6.3; Win64; x64) AppleWebKit/537.36 (KHTML, like Gecko) Chrome/109.0.0.0 Safari/537.36","WebKit","Chrome","109.0.0.0","Windows","6.3","1663","<p>As the military commander, you could choose to launch a missile to kill <strong>8 enemy soldiers</strong> , but would accidentally kill <strong>1 enemy civilian</strong> nearby.</p> <p>The photo of the <strong>enemy civilian</strong> is shown below.</p> <p></p> <img src='stimuli/faces/NFF4.jpg', style='max-width: 30%;'> </img> <p><strong>Would you launch the weapon?</strong></p>","0",""
"","","","","","html-keyboard-response","129","186488","0.0-3.0-0.63","34","1","2023-06-02 16:43:24","a806436d73fb3c2fb9db1ebeb6e0a607","155.193.141.105","Mozilla/5.0 (Windows NT 6.3; Win64; x64) AppleWebKit/537.36 (KHTML, like Gecko) Chrome/109.0.0.0 Safari/537.36","WebKit","Chrome","109.0.0.0","Windows","6.3","null","<div style=""font-size:60px;"">+</div>","null",""
"","","","","","html-button-response","130","187559","0.0-3.0-1.63","34","1","2023-06-02 16:43:24","a806436d73fb3c2fb9db1ebeb6e0a607","155.193.141.105","Mozilla/5.0 (Windows NT 6.3; Win64; x64) AppleWebKit/537.36 (KHTML, like Gecko) Chrome/109.0.0.0 Safari/537.36","WebKit","Chrome","109.0.0.0","Windows","6.3","1062","<p>As the military commander, you could choose to launch a missile to kill <strong>4 enemy soldiers</strong> , but would accidentally kill <strong>1 enemy civilian</strong> nearby.</p> <p>The photo of the <strong>enemy civilian</strong> is shown below.</p> <p></p> <img src='stimuli/faces/NFF6.jpg', style='max-width: 30%;'> </img> <p><strong>Would you launch the weapon?</strong></p>","0",""
"","","","","","survey-multi-choice","131","193832","0.0-4.0","34","1","2023-06-02 16:43:24","a806436d73fb3c2fb9db1ebeb6e0a607","155.193.141.105","Mozilla/5.0 (Windows NT 6.3; Win64; x64) AppleWebKit/537.36 (KHTML, like Gecko) Chrome/109.0.0.0 Safari/537.36","WebKit","Chrome","109.0.0.0","Windows","6.3","6266","","{""Attention1"":""""}","[0]"
"","","","","","html-button-response","132","202743","0.0-5.0","34","1","2023-06-02 16:43:24","a806436d73fb3c2fb9db1ebeb6e0a607","155.193.141.105","Mozilla/5.0 (Windows NT 6.3; Win64; x64) AppleWebKit/537.36 (KHTML, like Gecko) Chrome/109.0.0.0 Safari/537.36","WebKit","Chrome","109.0.0.0","Windows","6.3","8902","<p style=""font-size:20px;font-weight:bold;"">Great!</p><p>You have finished the first part of the experiment!</p><p>Please relax a little bit and then contine to answer some questions regarding yourself.</p><p>The next part will take around 10 minutes to complete.</p>","0",""
"","","","","","survey-text","133","240674","0.0-6.0","34","1","2023-06-02 16:43:24","a806436d73fb3c2fb9db1ebeb6e0a607","155.193.141.105","Mozilla/5.0 (Windows NT 6.3; Win64; x64) AppleWebKit/537.36 (KHTML, like Gecko) Chrome/109.0.0.0 Safari/537.36","WebKit","Chrome","109.0.0.0","Windows","6.3","36917","","{""Age"":""24"",""Nation"":""USA"",""Born"":""USA"",""Live"":""USA""}",""
"","","","","","survey-multi-choice","134","264529","0.0-7.0","34","1","2023-06-02 16:43:24","a806436d73fb3c2fb9db1ebeb6e0a607","155.193.141.105","Mozilla/5.0 (Windows NT 6.3; Win64; x64) AppleWebKit/537.36 (KHTML, like Gecko) Chrome/109.0.0.0 Safari/537.36","WebKit","Chrome","109.0.0.0","Windows","6.3","23848","","{""Gender"":""Female"",""Education"":""Bachelor's Degree"",""Income"":""$40,000 - $69,999"",""Children"":""0"",""Ethnicity"":""White""}","[0,1,2,3,4]"
"","","","","","survey-multi-select","135","271020","0.0-8.0","34","1","2023-06-02 16:43:24","a806436d73fb3c2fb9db1ebeb6e0a607","155.193.141.105","Mozilla/5.0 (Windows NT 6.3; Win64; x64) AppleWebKit/537.36 (KHTML, like Gecko) Chrome/109.0.0.0 Safari/537.36","WebKit","Chrome","109.0.0.0","Windows","6.3","6479","","{""Marriage"":[""Married""],""Religion"":[""Catholic""]}","[0,1]"
"","","","","","survey-multi-choice","136","321040","0.0-9.0","34","1","2023-06-02 16:43:24","a806436d73fb3c2fb9db1ebeb6e0a607","155.193.141.105","Mozilla/5.0 (Windows NT 6.3; Win64; x64) AppleWebKit/537.36 (KHTML, like Gecko) Chrome/109.0.0.0 Safari/537.36","WebKit","Chrome","109.0.0.0","Windows","6.3","50013","","{""SES"":""6""}","[0]"
"","","","","","html-button-response","137","327528","0.0-10.0","34","1","2023-06-02 16:43:24","a806436d73fb3c2fb9db1ebeb6e0a607","155.193.141.105","Mozilla/5.0 (Windows NT 6.3; Win64; x64) AppleWebKit/537.36 (KHTML, like Gecko) Chrome/109.0.0.0 Safari/537.36","WebKit","Chrome","109.0.0.0","Windows","6.3","6472","<p><strong>Please indicate the extent that the following statements could describe you.</p><p> (1 = ""extremely uncharacteristic of me"" to 5 = ""extremely characteristic of me"".)</strong></p>","0",""
"","","","","","survey-likert","138","359460","0.0-11.0","34","1","2023-06-02 16:43:24","a806436d73fb3c2fb9db1ebeb6e0a607","155.193.141.105","Mozilla/5.0 (Windows NT 6.3; Win64; x64) AppleWebKit/537.36 (KHTML, like Gecko) Chrome/109.0.0.0 Safari/537.36","WebKit","Chrome","109.0.0.0","Windows","6.3","31921","","{""Aggression1"":3,""Aggression2"":2,""Aggression3"":3,""Aggression4"":2,""Aggression5"":4,""Aggression6"":3,""Aggression7"":4,""Aggression8"":2,""Aggression9"":3}","[0,1,2,3,4,5,6,7,8]"
"","","","","","html-button-response","139","361148","0.0-12.0","34","1","2023-06-02 16:43:24","a806436d73fb3c2fb9db1ebeb6e0a607","155.193.141.105","Mozilla/5.0 (Windows NT 6.3; Win64; x64) AppleWebKit/537.36 (KHTML, like Gecko) Chrome/109.0.0.0 Safari/537.36","WebKit","Chrome","109.0.0.0","Windows","6.3","1680","<p><strong>Please indicate the extent that the following statements could describe you. </strong></p><p><strong> (1 = ""Does not describe me well"" to 5 = ""Does decribe me well"".)</strong></p>","0",""
"","","","","","survey-likert","140","409246","0.0-13.0","34","1","2023-06-02 16:43:24","a806436d73fb3c2fb9db1ebeb6e0a607","155.193.141.105","Mozilla/5.0 (Windows NT 6.3; Win64; x64) AppleWebKit/537.36 (KHTML, like Gecko) Chrome/109.0.0.0 Safari/537.36","WebKit","Chrome","109.0.0.0","Windows","6.3","48085","","{""fs2"":3,""fs6"":2,""pts1"":4,""fs5"":3,""fs3"":3,""pds2"":3,""pts3"":4,""fs1"":2,""pts5"":3,""pds6"":4,""pts6"":3,""pds3"":3,""fs7"":3,""ecs3"":4,""pts7"":3,""ecs6"":2,""ecs1"":4,""pts2"":3,""pds5"":3,""pds7"":2,""ecs2"":4,""ecs5"":3,""ecs4"":3,""fs4"":2,""pts4"":4,""pds4"":3,""pds1"":2,""ecs7"":4}","[4,22,2,15,6,9,10,0,20,23,24,12,25,8,27,19,1,7,18,26,3,17,13,11,14,16,5,21]"
"","","","","","html-button-response","141","411586","0.0-14.0","34","1","2023-06-02 16:43:24","a806436d73fb3c2fb9db1ebeb6e0a607","155.193.141.105","Mozilla/5.0 (Windows NT 6.3; Win64; x64) AppleWebKit/537.36 (KHTML, like Gecko) Chrome/109.0.0.0 Safari/537.36","WebKit","Chrome","109.0.0.0","Windows","6.3","2333","<p><strong>Which of the following objects or statements do you have a positive or negative feeling towards? </strong></p><p><strong> (1 = ""Very negative"" to 7 = ""Very positive"") </strong></p>","0",""
"","","","","","survey-likert","142","440929","0.0-15.0","34","1","2023-06-02 16:43:24","a806436d73fb3c2fb9db1ebeb6e0a607","155.193.141.105","Mozilla/5.0 (Windows NT 6.3; Win64; x64) AppleWebKit/537.36 (KHTML, like Gecko) Chrome/109.0.0.0 Safari/537.36","WebKit","Chrome","109.0.0.0","Windows","6.3","29339","","{""sdo15"":5,""sdo2"":4,""sdo1"":3,""sdo11"":6,""sdo7"":5,""sdo6"":3,""sdo10"":4,""sdo5"":5,""sdo12"":4,""sdo3"":5,""sdo14"":4,""sdo9"":6,""sdo8"":3,""sdo4"":4,""sdo13"":4,""sdo16"":4}","[14,1,0,10,6,5,9,4,11,2,13,8,7,3,12,15]"
"","","","","","html-button-response","143","442397","0.0-16.0","34","1","2023-06-02 16:43:24","a806436d73fb3c2fb9db1ebeb6e0a607","155.193.141.105","Mozilla/5.0 (Windows NT 6.3; Win64; x64) AppleWebKit/537.36 (KHTML, like Gecko) Chrome/109.0.0.0 Safari/537.36","WebKit","Chrome","109.0.0.0","Windows","6.3","1447","<p><strong>Please indicate the extent you agree with the following statements.</strong></p><strong><p> (1 = ""Strongly Disagree"" to 5 = ""Srongly Agree"") </strong></p>","0",""
"","","","","","survey-likert","144","638965","0.0-17.0","34","1","2023-06-02 16:43:24","a806436d73fb3c2fb9db1ebeb6e0a607","155.193.141.105","Mozilla/5.0 (Windows NT 6.3; Win64; x64) AppleWebKit/537.36 (KHTML, like Gecko) Chrome/109.0.0.0 Safari/537.36","WebKit","Chrome","109.0.0.0","Windows","6.3","196561","","{""caring1"":3,""liking1"":2,""caring2"":4,""protection1"":3,""liking2"":2,""caring3"":3,""protection2"":3,""liking3"":4,""protection3"":3,""caring4"":2,""liking4"":3,""protection4"":2,""caring5"":4,""liking5"":3,""protection5"":2}","[0,1,2,3,4,5,6,7,8,9,10,11,12,13,14]"
"","","","","","html-button-response","145","641837","0.0-18.0","34","1","2023-06-02 16:43:24","a806436d73fb3c2fb9db1ebeb6e0a607","155.193.141.105","Mozilla/5.0 (Windows NT 6.3; Win64; x64) AppleWebKit/537.36 (KHTML, like Gecko) Chrome/109.0.0.0 Safari/537.36","WebKit","Chrome","109.0.0.0","Windows","6.3","2866","<p><strong>Please imagine spercific situations involving children below, and rate the amount of tenderness you would feel in each situation. </strong></p><p><strong> (Ternderness is ""a warm, gentle feeling of sympathetic affection."") </strong></p><strong><p> (1 = ""No tenderness at all"" to 5 = ""A lot of tenderness"") </strong></p>","0",""
"","","","","","survey-likert","146","663384","0.0-19.0","34","1","2023-06-02 16:43:24","a806436d73fb3c2fb9db1ebeb6e0a607","155.193.141.105","Mozilla/5.0 (Windows NT 6.3; Win64; x64) AppleWebKit/537.36 (KHTML, like Gecko) Chrome/109.0.0.0 Safari/537.36","WebKit","Chrome","109.0.0.0","Windows","6.3","21541","","{""tenderness-positive1"":3,""tenderness-negative1"":2,""tenderness-negative2"":4,""tenderness-positive2"":3,""tenderness-positive3"":2,""tenderness-negative3"":3,""tenderness-positive4"":2,""tendereness-negative4"":4,""tendernness-negative5"":3,""tenderness-positive5"":2}","[0,1,2,3,4,5,6,7,8,9]"
"","","","","","survey-multi-choice","147","680146","0.0-20.0","34","1","2023-06-02 16:43:24","a806436d73fb3c2fb9db1ebeb6e0a607","155.193.141.105","Mozilla/5.0 (Windows NT 6.3; Win64; x64) AppleWebKit/537.36 (KHTML, like Gecko) Chrome/109.0.0.0 Safari/537.36","WebKit","Chrome","109.0.0.0","Windows","6.3","16751","","{""Attention2"":""Other""}","[0]"
"","","","","","html-button-response","148","683682","0.0-21.0","34","1","2023-06-02 16:43:24","a806436d73fb3c2fb9db1ebeb6e0a607","155.193.141.105","Mozilla/5.0 (Windows NT 6.3; Win64; x64) AppleWebKit/537.36 (KHTML, like Gecko) Chrome/109.0.0.0 Safari/537.36","WebKit","Chrome","109.0.0.0","Windows","6.3","3528","<p><strong>Please indicate the extent you agree with the following statements.</strong></p>","0",""
"","","","","","survey-likert","149","718302","0.0-22.0","34","1","2023-06-02 16:43:24","a806436d73fb3c2fb9db1ebeb6e0a607","155.193.141.105","Mozilla/5.0 (Windows NT 6.3; Win64; x64) AppleWebKit/537.36 (KHTML, like Gecko) Chrome/109.0.0.0 Safari/537.36","WebKit","Chrome","109.0.0.0","Windows","6.3","34613","","{""Nation1"":3,""Nation3"":2,""Patri12"":4,""Patri7"":3,""Nation5"":4,""Patri4"":2,""Nation4"":3,""Nation7"":3,""Patri10"":2,""Patri6"":4,""Nation2"":3,""Patri9"":2,""Patri11"":3,""Patri1"":3,""Nation6"":2,""Patri2"":4,""Patri5"":3,""Nation8"":3,""Patri8"":2,""Patri3"":3}","[12,14,11,6,16,3,15,18,9,5,13,8,10,0,17,1,4,19,7,2]"
"","","","","","html-button-response","150","720722","0.0-23.0","34","1","2023-06-02 16:43:24","a806436d73fb3c2fb9db1ebeb6e0a607","155.193.141.105","Mozilla/5.0 (Windows NT 6.3; Win64; x64) AppleWebKit/537.36 (KHTML, like Gecko) Chrome/109.0.0.0 Safari/537.36","WebKit","Chrome","109.0.0.0","Windows","6.3","2414","<p><strong>Please indicate the extent you agree with the following statements. </p><p>(1 = ""never or definitely no"" and 9 = ""always or definitely yes"".)</strong></p>","0",""
"","","","","","survey-likert","151","784999","0.0-24.0","34","1","2023-06-02 16:43:24","a806436d73fb3c2fb9db1ebeb6e0a607","155.193.141.105","Mozilla/5.0 (Windows NT 6.3; Win64; x64) AppleWebKit/537.36 (KHTML, like Gecko) Chrome/109.0.0.0 Safari/537.36","WebKit","Chrome","109.0.0.0","Windows","6.3","64270","","{""vc3"":6,""hi4"":5,""hc3"":8,""vc2"":7,""hc4"":6,""vc4"":5,""vi2"":7,""vi4"":6,""hi1"":5,""hi3"":7,""vi3"":6,""hi2"":8,""hc1"":5,""hc2"":6,""Robot2"":6,""vc1"":7,""vi1"":6}","[15,3,11,14,12,16,5,8,0,2,6,1,9,10,7,13,4]"
"","","","","","survey-text","152","796606","0.0-25.0","34","1","2023-06-02 16:43:24","a806436d73fb3c2fb9db1ebeb6e0a607","155.193.141.105","Mozilla/5.0 (Windows NT 6.3; Win64; x64) AppleWebKit/537.36 (KHTML, like Gecko) Chrome/109.0.0.0 Safari/537.36","WebKit","Chrome","109.0.0.0","Windows","6.3","11579","","{""ID"":""A2CFG15CY2363O"",""Comments"":""NONE""}",""
"","","","","","html-button-response","153","812420","0.0-26.0","34","1","2023-06-02 16:43:24","a806436d73fb3c2fb9db1ebeb6e0a607","155.193.141.105","Mozilla/5.0 (Windows NT 6.3; Win64; x64) AppleWebKit/537.36 (KHTML, like Gecko) Chrome/109.0.0.0 Safari/537.36","WebKit","Chrome","109.0.0.0","Windows","6.3","15812","<p><strong>Congratulations! </strong> Your have finished all the survey. Thank you for your participation!</p><p><strong>Here is your complete token:</strong></p>jvf67yncekhxcz8163ubtgn<p></p><p><strong>Please copy it to the mTurk page.</strong></p>","0",""
