"success","timeout","failed_images","failed_audio","failed_video","trial_type","trial_index","time_elapsed","internal_node_id","run_id","condition","recorded_at","source_code_version","ip","user_agent","device","browser","browser_version","platform","platform_version","rt","stimulus","response","question_order"
"true","false","[]","[]","[]","preload","0","2722","0.0-0.0","37","1","2023-06-05 16:22:53","a806436d73fb3c2fb9db1ebeb6e0a607","208.196.109.70","Mozilla/5.0 (Windows NT 10.0; Win64; x64) AppleWebKit/537.36 (KHTML, like Gecko) Chrome/112.0.0.0 Safari/537.36","WebKit","Chrome","112.0.0.0","Windows","10.0","","","",""
"true","","","","","fullscreen","1","1654319","0.0-1.0","37","1","2023-06-05 16:22:53","a806436d73fb3c2fb9db1ebeb6e0a607","208.196.109.70","Mozilla/5.0 (Windows NT 10.0; Win64; x64) AppleWebKit/537.36 (KHTML, like Gecko) Chrome/112.0.0.0 Safari/537.36","WebKit","Chrome","112.0.0.0","Windows","10.0","","","",""
"","","","","","html-button-response","2","1667992","0.0-2.0","37","1","2023-06-05 16:22:53","a806436d73fb3c2fb9db1ebeb6e0a607","208.196.109.70","Mozilla/5.0 (Windows NT 10.0; Win64; x64) AppleWebKit/537.36 (KHTML, like Gecko) Chrome/112.0.0.0 Safari/537.36","WebKit","Chrome","112.0.0.0","Windows","10.0","13668","<p ><strong>Welcome to the experiment!</strong></p><p ><strong>In the first task, please imagine:</strong></p><p>Your country is involved in a military conflict with another country.</p><p>You are the commander of your army and must make decisions in the conflict.</p><p>Specifically, as the military commander, you must decide whether to launch a missile to strike enemy.</p><p>You will face a series of scenarios. Please read each scenario carefully and make a decision.</p><p>The task will take around 10 minutes to complete.</p><p><strong>Please pay your attention during the experiment.</strong></p>","0",""
"","","","","","html-keyboard-response","3","1668994","0.0-3.0-0.0","37","1","2023-06-05 16:22:53","a806436d73fb3c2fb9db1ebeb6e0a607","208.196.109.70","Mozilla/5.0 (Windows NT 10.0; Win64; x64) AppleWebKit/537.36 (KHTML, like Gecko) Chrome/112.0.0.0 Safari/537.36","WebKit","Chrome","112.0.0.0","Windows","10.0","null","<div style=""font-size:60px;"">+</div>","null",""
"","","","","","html-button-response","4","1670457","0.0-3.0-1.0","37","1","2023-06-05 16:22:53","a806436d73fb3c2fb9db1ebeb6e0a607","208.196.109.70","Mozilla/5.0 (Windows NT 10.0; Win64; x64) AppleWebKit/537.36 (KHTML, like Gecko) Chrome/112.0.0.0 Safari/537.36","WebKit","Chrome","112.0.0.0","Windows","10.0","1459","<p>As the military commander, you could choose to launch a missile to kill <strong>9 enemy soldiers</strong> , but would accidentally kill <strong>1 enemy tree</strong> nearby.</p> <p>The photo of the <strong>enemy tree</strong> is shown below.</p> <p></p> <img src='stimuli/tree/11.png', style='max-width: 30%;'> </img> <p><strong>Would you launch the weapon?</strong></p>","0",""
"","","","","","html-keyboard-response","5","1671478","0.0-3.0-0.1","37","1","2023-06-05 16:22:53","a806436d73fb3c2fb9db1ebeb6e0a607","208.196.109.70","Mozilla/5.0 (Windows NT 10.0; Win64; x64) AppleWebKit/537.36 (KHTML, like Gecko) Chrome/112.0.0.0 Safari/537.36","WebKit","Chrome","112.0.0.0","Windows","10.0","null","<div style=""font-size:60px;"">+</div>","null",""
"","","","","","html-button-response","6","1671780","0.0-3.0-1.1","37","1","2023-06-05 16:22:53","a806436d73fb3c2fb9db1ebeb6e0a607","208.196.109.70","Mozilla/5.0 (Windows NT 10.0; Win64; x64) AppleWebKit/537.36 (KHTML, like Gecko) Chrome/112.0.0.0 Safari/537.36","WebKit","Chrome","112.0.0.0","Windows","10.0","299","<p>As the military commander, you could choose to launch a missile to kill <strong>3 enemy soldiers</strong> , but would accidentally kill <strong>1 enemy civilian</strong> nearby.</p> <p>The photo of the <strong>enemy civilian</strong> is shown below.</p> <p></p> <img src='stimuli/faces/NFF6.jpg', style='max-width: 30%;'> </img> <p><strong>Would you launch the weapon?</strong></p>","1",""
"","","","","","html-keyboard-response","7","1672782","0.0-3.0-0.2","37","1","2023-06-05 16:22:53","a806436d73fb3c2fb9db1ebeb6e0a607","208.196.109.70","Mozilla/5.0 (Windows NT 10.0; Win64; x64) AppleWebKit/537.36 (KHTML, like Gecko) Chrome/112.0.0.0 Safari/537.36","WebKit","Chrome","112.0.0.0","Windows","10.0","null","<div style=""font-size:60px;"">+</div>","null",""
"","","","","","html-button-response","8","1673393","0.0-3.0-1.2","37","1","2023-06-05 16:22:53","a806436d73fb3c2fb9db1ebeb6e0a607","208.196.109.70","Mozilla/5.0 (Windows NT 10.0; Win64; x64) AppleWebKit/537.36 (KHTML, like Gecko) Chrome/112.0.0.0 Safari/537.36","WebKit","Chrome","112.0.0.0","Windows","10.0","601","<p>As the military commander, you could choose to launch a missile to kill <strong>9 enemy soldiers</strong> , but would accidentally kill <strong>1 enemy tree</strong> nearby.</p> <p>The photo of the <strong>enemy tree</strong> is shown below.</p> <p></p> <img src='stimuli/tree/9.png', style='max-width: 30%;'> </img> <p><strong>Would you launch the weapon?</strong></p>","0",""
"","","","","","html-keyboard-response","9","1674399","0.0-3.0-0.3","37","1","2023-06-05 16:22:53","a806436d73fb3c2fb9db1ebeb6e0a607","208.196.109.70","Mozilla/5.0 (Windows NT 10.0; Win64; x64) AppleWebKit/537.36 (KHTML, like Gecko) Chrome/112.0.0.0 Safari/537.36","WebKit","Chrome","112.0.0.0","Windows","10.0","null","<div style=""font-size:60px;"">+</div>","null",""
"","","","","","html-button-response","10","1674925","0.0-3.0-1.3","37","1","2023-06-05 16:22:53","a806436d73fb3c2fb9db1ebeb6e0a607","208.196.109.70","Mozilla/5.0 (Windows NT 10.0; Win64; x64) AppleWebKit/537.36 (KHTML, like Gecko) Chrome/112.0.0.0 Safari/537.36","WebKit","Chrome","112.0.0.0","Windows","10.0","520","<p>As the military commander, you could choose to launch a missile to kill <strong>9 enemy soldiers</strong> , but would accidentally kill <strong>1 enemy civilian</strong> nearby.</p> <p>The photo of the <strong>enemy civilian</strong> is shown below.</p> <p></p> <img src='stimuli/faces/NFM4.jpg', style='max-width: 30%;'> </img> <p><strong>Would you launch the weapon?</strong></p>","0",""
"","","","","","html-keyboard-response","11","1676001","0.0-3.0-0.4","37","1","2023-06-05 16:22:53","a806436d73fb3c2fb9db1ebeb6e0a607","208.196.109.70","Mozilla/5.0 (Windows NT 10.0; Win64; x64) AppleWebKit/537.36 (KHTML, like Gecko) Chrome/112.0.0.0 Safari/537.36","WebKit","Chrome","112.0.0.0","Windows","10.0","null","<div style=""font-size:60px;"">+</div>","null",""
"","","","","","html-button-response","12","1676105","0.0-3.0-1.4","37","1","2023-06-05 16:22:53","a806436d73fb3c2fb9db1ebeb6e0a607","208.196.109.70","Mozilla/5.0 (Windows NT 10.0; Win64; x64) AppleWebKit/537.36 (KHTML, like Gecko) Chrome/112.0.0.0 Safari/537.36","WebKit","Chrome","112.0.0.0","Windows","10.0","99","<p>As the military commander, you could choose to launch a missile to kill <strong>2 enemy soldiers</strong> , but would accidentally kill <strong>1 enemy civilian</strong> nearby.</p> <p>The photo of the <strong>enemy civilian</strong> is shown below.</p> <p></p> <img src='stimuli/faces/NFF5.jpg', style='max-width: 30%;'> </img> <p><strong>Would you launch the weapon?</strong></p>","0",""
"","","","","","html-keyboard-response","13","1677120","0.0-3.0-0.5","37","1","2023-06-05 16:22:53","a806436d73fb3c2fb9db1ebeb6e0a607","208.196.109.70","Mozilla/5.0 (Windows NT 10.0; Win64; x64) AppleWebKit/537.36 (KHTML, like Gecko) Chrome/112.0.0.0 Safari/537.36","WebKit","Chrome","112.0.0.0","Windows","10.0","null","<div style=""font-size:60px;"">+</div>","null",""
"","","","","","html-button-response","14","1677367","0.0-3.0-1.5","37","1","2023-06-05 16:22:53","a806436d73fb3c2fb9db1ebeb6e0a607","208.196.109.70","Mozilla/5.0 (Windows NT 10.0; Win64; x64) AppleWebKit/537.36 (KHTML, like Gecko) Chrome/112.0.0.0 Safari/537.36","WebKit","Chrome","112.0.0.0","Windows","10.0","242","<p>As the military commander, you could choose to launch a missile to kill <strong>7 enemy soldiers</strong> , but would accidentally kill <strong>1 enemy tree</strong> nearby.</p> <p>The photo of the <strong>enemy tree</strong> is shown below.</p> <p></p> <img src='stimuli/tree/4.png', style='max-width: 30%;'> </img> <p><strong>Would you launch the weapon?</strong></p>","0",""
"","","","","","html-keyboard-response","15","1678375","0.0-3.0-0.6","37","1","2023-06-05 16:22:53","a806436d73fb3c2fb9db1ebeb6e0a607","208.196.109.70","Mozilla/5.0 (Windows NT 10.0; Win64; x64) AppleWebKit/537.36 (KHTML, like Gecko) Chrome/112.0.0.0 Safari/537.36","WebKit","Chrome","112.0.0.0","Windows","10.0","null","<div style=""font-size:60px;"">+</div>","null",""
"","","","","","html-button-response","16","1679611","0.0-3.0-1.6","37","1","2023-06-05 16:22:53","a806436d73fb3c2fb9db1ebeb6e0a607","208.196.109.70","Mozilla/5.0 (Windows NT 10.0; Win64; x64) AppleWebKit/537.36 (KHTML, like Gecko) Chrome/112.0.0.0 Safari/537.36","WebKit","Chrome","112.0.0.0","Windows","10.0","1233","<p>As the military commander, you could choose to launch a missile to kill <strong>7 enemy soldiers</strong> , but would accidentally kill <strong>1 enemy civilian</strong> nearby.</p> <p>The photo of the <strong>enemy civilian</strong> is shown below.</p> <p></p> <img src='stimuli/faces/NFF4.jpg', style='max-width: 30%;'> </img> <p><strong>Would you launch the weapon?</strong></p>","0",""
"","","","","","html-keyboard-response","17","1680614","0.0-3.0-0.7","37","1","2023-06-05 16:22:53","a806436d73fb3c2fb9db1ebeb6e0a607","208.196.109.70","Mozilla/5.0 (Windows NT 10.0; Win64; x64) AppleWebKit/537.36 (KHTML, like Gecko) Chrome/112.0.0.0 Safari/537.36","WebKit","Chrome","112.0.0.0","Windows","10.0","null","<div style=""font-size:60px;"">+</div>","null",""
"","","","","","html-button-response","18","1682007","0.0-3.0-1.7","37","1","2023-06-05 16:22:53","a806436d73fb3c2fb9db1ebeb6e0a607","208.196.109.70","Mozilla/5.0 (Windows NT 10.0; Win64; x64) AppleWebKit/537.36 (KHTML, like Gecko) Chrome/112.0.0.0 Safari/537.36","WebKit","Chrome","112.0.0.0","Windows","10.0","1391","<p>As the military commander, you could choose to launch a missile to kill <strong>4 enemy soldiers</strong> , but would accidentally kill <strong>1 enemy civilian</strong> nearby.</p> <p>The photo of the <strong>enemy civilian</strong> is shown below.</p> <p></p> <img src='stimuli/faces/NFM1.jpg', style='max-width: 30%;'> </img> <p><strong>Would you launch the weapon?</strong></p>","0",""
"","","","","","html-keyboard-response","19","1683011","0.0-3.0-0.8","37","1","2023-06-05 16:22:53","a806436d73fb3c2fb9db1ebeb6e0a607","208.196.109.70","Mozilla/5.0 (Windows NT 10.0; Win64; x64) AppleWebKit/537.36 (KHTML, like Gecko) Chrome/112.0.0.0 Safari/537.36","WebKit","Chrome","112.0.0.0","Windows","10.0","null","<div style=""font-size:60px;"">+</div>","null",""
"","","","","","html-button-response","20","1683437","0.0-3.0-1.8","37","1","2023-06-05 16:22:53","a806436d73fb3c2fb9db1ebeb6e0a607","208.196.109.70","Mozilla/5.0 (Windows NT 10.0; Win64; x64) AppleWebKit/537.36 (KHTML, like Gecko) Chrome/112.0.0.0 Safari/537.36","WebKit","Chrome","112.0.0.0","Windows","10.0","424","<p>As the military commander, you could choose to launch a missile to kill <strong>2 enemy soldiers</strong> , but would accidentally kill <strong>1 enemy civilian</strong> nearby.</p> <p>The photo of the <strong>enemy civilian</strong> is shown below.</p> <p></p> <img src='stimuli/faces/NFM3.jpg', style='max-width: 30%;'> </img> <p><strong>Would you launch the weapon?</strong></p>","1",""
"","","","","","html-keyboard-response","21","1684440","0.0-3.0-0.9","37","1","2023-06-05 16:22:53","a806436d73fb3c2fb9db1ebeb6e0a607","208.196.109.70","Mozilla/5.0 (Windows NT 10.0; Win64; x64) AppleWebKit/537.36 (KHTML, like Gecko) Chrome/112.0.0.0 Safari/537.36","WebKit","Chrome","112.0.0.0","Windows","10.0","null","<div style=""font-size:60px;"">+</div>","null",""
"","","","","","html-button-response","22","1685263","0.0-3.0-1.9","37","1","2023-06-05 16:22:53","a806436d73fb3c2fb9db1ebeb6e0a607","208.196.109.70","Mozilla/5.0 (Windows NT 10.0; Win64; x64) AppleWebKit/537.36 (KHTML, like Gecko) Chrome/112.0.0.0 Safari/537.36","WebKit","Chrome","112.0.0.0","Windows","10.0","820","<p>As the military commander, you could choose to launch a missile to kill <strong>9 enemy soldiers</strong> , but would accidentally kill <strong>1 enemy tree</strong> nearby.</p> <p>The photo of the <strong>enemy tree</strong> is shown below.</p> <p></p> <img src='stimuli/tree/13.png', style='max-width: 30%;'> </img> <p><strong>Would you launch the weapon?</strong></p>","0",""
"","","","","","html-keyboard-response","23","1686265","0.0-3.0-0.10","37","1","2023-06-05 16:22:53","a806436d73fb3c2fb9db1ebeb6e0a607","208.196.109.70","Mozilla/5.0 (Windows NT 10.0; Win64; x64) AppleWebKit/537.36 (KHTML, like Gecko) Chrome/112.0.0.0 Safari/537.36","WebKit","Chrome","112.0.0.0","Windows","10.0","null","<div style=""font-size:60px;"">+</div>","null",""
"","","","","","html-button-response","24","1686724","0.0-3.0-1.10","37","1","2023-06-05 16:22:53","a806436d73fb3c2fb9db1ebeb6e0a607","208.196.109.70","Mozilla/5.0 (Windows NT 10.0; Win64; x64) AppleWebKit/537.36 (KHTML, like Gecko) Chrome/112.0.0.0 Safari/537.36","WebKit","Chrome","112.0.0.0","Windows","10.0","455","<p>As the military commander, you could choose to launch a missile to kill <strong>5 enemy soldiers</strong> , but would accidentally kill <strong>1 enemy civilian</strong> nearby.</p> <p>The photo of the <strong>enemy civilian</strong> is shown below.</p> <p></p> <img src='stimuli/faces/NFF3.jpg', style='max-width: 30%;'> </img> <p><strong>Would you launch the weapon?</strong></p>","0",""
"","","","","","html-keyboard-response","25","1687734","0.0-3.0-0.11","37","1","2023-06-05 16:22:53","a806436d73fb3c2fb9db1ebeb6e0a607","208.196.109.70","Mozilla/5.0 (Windows NT 10.0; Win64; x64) AppleWebKit/537.36 (KHTML, like Gecko) Chrome/112.0.0.0 Safari/537.36","WebKit","Chrome","112.0.0.0","Windows","10.0","null","<div style=""font-size:60px;"">+</div>","null",""
"","","","","","html-button-response","26","1688647","0.0-3.0-1.11","37","1","2023-06-05 16:22:53","a806436d73fb3c2fb9db1ebeb6e0a607","208.196.109.70","Mozilla/5.0 (Windows NT 10.0; Win64; x64) AppleWebKit/537.36 (KHTML, like Gecko) Chrome/112.0.0.0 Safari/537.36","WebKit","Chrome","112.0.0.0","Windows","10.0","909","<p>As the military commander, you could choose to launch a missile to kill <strong>2 enemy soldiers</strong> , but would accidentally kill <strong>1 enemy civilian</strong> nearby.</p> <p>The photo of the <strong>enemy civilian</strong> is shown below.</p> <p></p> <img src='stimuli/faces/NFM4.jpg', style='max-width: 30%;'> </img> <p><strong>Would you launch the weapon?</strong></p>","0",""
"","","","","","html-keyboard-response","27","1689655","0.0-3.0-0.12","37","1","2023-06-05 16:22:53","a806436d73fb3c2fb9db1ebeb6e0a607","208.196.109.70","Mozilla/5.0 (Windows NT 10.0; Win64; x64) AppleWebKit/537.36 (KHTML, like Gecko) Chrome/112.0.0.0 Safari/537.36","WebKit","Chrome","112.0.0.0","Windows","10.0","null","<div style=""font-size:60px;"">+</div>","null",""
"","","","","","html-button-response","28","1690352","0.0-3.0-1.12","37","1","2023-06-05 16:22:53","a806436d73fb3c2fb9db1ebeb6e0a607","208.196.109.70","Mozilla/5.0 (Windows NT 10.0; Win64; x64) AppleWebKit/537.36 (KHTML, like Gecko) Chrome/112.0.0.0 Safari/537.36","WebKit","Chrome","112.0.0.0","Windows","10.0","682","<p>As the military commander, you could choose to launch a missile to kill <strong>4 enemy soldiers</strong> , but would accidentally kill <strong>1 enemy civilian</strong> nearby.</p> <p>The photo of the <strong>enemy civilian</strong> is shown below.</p> <p></p> <img src='stimuli/faces/NFF1.jpg', style='max-width: 30%;'> </img> <p><strong>Would you launch the weapon?</strong></p>","0",""
"","","","","","html-keyboard-response","29","1691360","0.0-3.0-0.13","37","1","2023-06-05 16:22:53","a806436d73fb3c2fb9db1ebeb6e0a607","208.196.109.70","Mozilla/5.0 (Windows NT 10.0; Win64; x64) AppleWebKit/537.36 (KHTML, like Gecko) Chrome/112.0.0.0 Safari/537.36","WebKit","Chrome","112.0.0.0","Windows","10.0","null","<div style=""font-size:60px;"">+</div>","null",""
"","","","","","html-button-response","30","1692030","0.0-3.0-1.13","37","1","2023-06-05 16:22:53","a806436d73fb3c2fb9db1ebeb6e0a607","208.196.109.70","Mozilla/5.0 (Windows NT 10.0; Win64; x64) AppleWebKit/537.36 (KHTML, like Gecko) Chrome/112.0.0.0 Safari/537.36","WebKit","Chrome","112.0.0.0","Windows","10.0","666","<p>As the military commander, you could choose to launch a missile to kill <strong>9 enemy soldiers</strong> , but would accidentally kill <strong>1 enemy civilian</strong> nearby.</p> <p>The photo of the <strong>enemy civilian</strong> is shown below.</p> <p></p> <img src='stimuli/faces/NFM2.jpg', style='max-width: 30%;'> </img> <p><strong>Would you launch the weapon?</strong></p>","1",""
"","","","","","html-keyboard-response","31","1693033","0.0-3.0-0.14","37","1","2023-06-05 16:22:53","a806436d73fb3c2fb9db1ebeb6e0a607","208.196.109.70","Mozilla/5.0 (Windows NT 10.0; Win64; x64) AppleWebKit/537.36 (KHTML, like Gecko) Chrome/112.0.0.0 Safari/537.36","WebKit","Chrome","112.0.0.0","Windows","10.0","null","<div style=""font-size:60px;"">+</div>","null",""
"","","","","","html-button-response","32","1693606","0.0-3.0-1.14","37","1","2023-06-05 16:22:53","a806436d73fb3c2fb9db1ebeb6e0a607","208.196.109.70","Mozilla/5.0 (Windows NT 10.0; Win64; x64) AppleWebKit/537.36 (KHTML, like Gecko) Chrome/112.0.0.0 Safari/537.36","WebKit","Chrome","112.0.0.0","Windows","10.0","571","<p>As the military commander, you could choose to launch a missile to kill <strong>3 enemy soldiers</strong> , but would accidentally kill <strong>1 enemy civilian</strong> nearby.</p> <p>The photo of the <strong>enemy civilian</strong> is shown below.</p> <p></p> <img src='stimuli/faces/NFF4.jpg', style='max-width: 30%;'> </img> <p><strong>Would you launch the weapon?</strong></p>","0",""
"","","","","","html-keyboard-response","33","1694608","0.0-3.0-0.15","37","1","2023-06-05 16:22:53","a806436d73fb3c2fb9db1ebeb6e0a607","208.196.109.70","Mozilla/5.0 (Windows NT 10.0; Win64; x64) AppleWebKit/537.36 (KHTML, like Gecko) Chrome/112.0.0.0 Safari/537.36","WebKit","Chrome","112.0.0.0","Windows","10.0","null","<div style=""font-size:60px;"">+</div>","null",""
"","","","","","html-button-response","34","1695868","0.0-3.0-1.15","37","1","2023-06-05 16:22:53","a806436d73fb3c2fb9db1ebeb6e0a607","208.196.109.70","Mozilla/5.0 (Windows NT 10.0; Win64; x64) AppleWebKit/537.36 (KHTML, like Gecko) Chrome/112.0.0.0 Safari/537.36","WebKit","Chrome","112.0.0.0","Windows","10.0","1257","<p>As the military commander, you could choose to launch a missile to kill <strong>3 enemy soldiers</strong> , but would accidentally kill <strong>1 enemy civilian</strong> nearby.</p> <p>The photo of the <strong>enemy civilian</strong> is shown below.</p> <p></p> <img src='stimuli/faces/NFM5.jpg', style='max-width: 30%;'> </img> <p><strong>Would you launch the weapon?</strong></p>","0",""
"","","","","","html-keyboard-response","35","1696875","0.0-3.0-0.16","37","1","2023-06-05 16:22:53","a806436d73fb3c2fb9db1ebeb6e0a607","208.196.109.70","Mozilla/5.0 (Windows NT 10.0; Win64; x64) AppleWebKit/537.36 (KHTML, like Gecko) Chrome/112.0.0.0 Safari/537.36","WebKit","Chrome","112.0.0.0","Windows","10.0","null","<div style=""font-size:60px;"">+</div>","null",""
"","","","","","html-button-response","36","1697579","0.0-3.0-1.16","37","1","2023-06-05 16:22:53","a806436d73fb3c2fb9db1ebeb6e0a607","208.196.109.70","Mozilla/5.0 (Windows NT 10.0; Win64; x64) AppleWebKit/537.36 (KHTML, like Gecko) Chrome/112.0.0.0 Safari/537.36","WebKit","Chrome","112.0.0.0","Windows","10.0","700","<p>As the military commander, you could choose to launch a missile to kill <strong>1 enemy soldier</strong> , but would accidentally kill <strong>1 enemy tree</strong> nearby.</p> <p>The photo of the <strong>enemy tree</strong> is shown below.</p> <p></p> <img src='stimuli/tree/8.png', style='max-width: 30%;'> </img> <p><strong>Would you launch the weapon?</strong></p>","0",""
"","","","","","html-keyboard-response","37","1698581","0.0-3.0-0.17","37","1","2023-06-05 16:22:53","a806436d73fb3c2fb9db1ebeb6e0a607","208.196.109.70","Mozilla/5.0 (Windows NT 10.0; Win64; x64) AppleWebKit/537.36 (KHTML, like Gecko) Chrome/112.0.0.0 Safari/537.36","WebKit","Chrome","112.0.0.0","Windows","10.0","null","<div style=""font-size:60px;"">+</div>","null",""
"","","","","","html-button-response","38","1698829","0.0-3.0-1.17","37","1","2023-06-05 16:22:53","a806436d73fb3c2fb9db1ebeb6e0a607","208.196.109.70","Mozilla/5.0 (Windows NT 10.0; Win64; x64) AppleWebKit/537.36 (KHTML, like Gecko) Chrome/112.0.0.0 Safari/537.36","WebKit","Chrome","112.0.0.0","Windows","10.0","245","<p>As the military commander, you could choose to launch a missile to kill <strong>1 enemy soldier</strong> , but would accidentally kill <strong>1 enemy civilian</strong> nearby.</p> <p>The photo of the <strong>enemy civilian</strong> is shown below.</p> <p></p> <img src='stimuli/faces/NFM2.jpg', style='max-width: 30%;'> </img> <p><strong>Would you launch the weapon?</strong></p>","1",""
"","","","","","html-keyboard-response","39","1699832","0.0-3.0-0.18","37","1","2023-06-05 16:22:53","a806436d73fb3c2fb9db1ebeb6e0a607","208.196.109.70","Mozilla/5.0 (Windows NT 10.0; Win64; x64) AppleWebKit/537.36 (KHTML, like Gecko) Chrome/112.0.0.0 Safari/537.36","WebKit","Chrome","112.0.0.0","Windows","10.0","null","<div style=""font-size:60px;"">+</div>","null",""
"","","","","","html-button-response","40","1700325","0.0-3.0-1.18","37","1","2023-06-05 16:22:53","a806436d73fb3c2fb9db1ebeb6e0a607","208.196.109.70","Mozilla/5.0 (Windows NT 10.0; Win64; x64) AppleWebKit/537.36 (KHTML, like Gecko) Chrome/112.0.0.0 Safari/537.36","WebKit","Chrome","112.0.0.0","Windows","10.0","489","<p>As the military commander, you could choose to launch a missile to kill <strong>3 enemy soldiers</strong> , but would accidentally kill <strong>1 enemy civilian</strong> nearby.</p> <p>The photo of the <strong>enemy civilian</strong> is shown below.</p> <p></p> <img src='stimuli/faces/NFM7.jpg', style='max-width: 30%;'> </img> <p><strong>Would you launch the weapon?</strong></p>","1",""
"","","","","","html-keyboard-response","41","1701327","0.0-3.0-0.19","37","1","2023-06-05 16:22:53","a806436d73fb3c2fb9db1ebeb6e0a607","208.196.109.70","Mozilla/5.0 (Windows NT 10.0; Win64; x64) AppleWebKit/537.36 (KHTML, like Gecko) Chrome/112.0.0.0 Safari/537.36","WebKit","Chrome","112.0.0.0","Windows","10.0","null","<div style=""font-size:60px;"">+</div>","null",""
"","","","","","html-button-response","42","1702875","0.0-3.0-1.19","37","1","2023-06-05 16:22:53","a806436d73fb3c2fb9db1ebeb6e0a607","208.196.109.70","Mozilla/5.0 (Windows NT 10.0; Win64; x64) AppleWebKit/537.36 (KHTML, like Gecko) Chrome/112.0.0.0 Safari/537.36","WebKit","Chrome","112.0.0.0","Windows","10.0","1544","<p>As the military commander, you could choose to launch a missile to kill <strong>5 enemy soldiers</strong> , but would accidentally kill <strong>1 enemy tree</strong> nearby.</p> <p>The photo of the <strong>enemy tree</strong> is shown below.</p> <p></p> <img src='stimuli/tree/13.png', style='max-width: 30%;'> </img> <p><strong>Would you launch the weapon?</strong></p>","0",""
"","","","","","html-keyboard-response","43","1703883","0.0-3.0-0.20","37","1","2023-06-05 16:22:53","a806436d73fb3c2fb9db1ebeb6e0a607","208.196.109.70","Mozilla/5.0 (Windows NT 10.0; Win64; x64) AppleWebKit/537.36 (KHTML, like Gecko) Chrome/112.0.0.0 Safari/537.36","WebKit","Chrome","112.0.0.0","Windows","10.0","null","<div style=""font-size:60px;"">+</div>","null",""
"","","","","","html-button-response","44","1704834","0.0-3.0-1.20","37","1","2023-06-05 16:22:53","a806436d73fb3c2fb9db1ebeb6e0a607","208.196.109.70","Mozilla/5.0 (Windows NT 10.0; Win64; x64) AppleWebKit/537.36 (KHTML, like Gecko) Chrome/112.0.0.0 Safari/537.36","WebKit","Chrome","112.0.0.0","Windows","10.0","946","<p>As the military commander, you could choose to launch a missile to kill <strong>4 enemy soldiers</strong> , but would accidentally kill <strong>1 enemy civilian</strong> nearby.</p> <p>The photo of the <strong>enemy civilian</strong> is shown below.</p> <p></p> <img src='stimuli/faces/NFF7.jpg', style='max-width: 30%;'> </img> <p><strong>Would you launch the weapon?</strong></p>","0",""
"","","","","","html-keyboard-response","45","1705840","0.0-3.0-0.21","37","1","2023-06-05 16:22:53","a806436d73fb3c2fb9db1ebeb6e0a607","208.196.109.70","Mozilla/5.0 (Windows NT 10.0; Win64; x64) AppleWebKit/537.36 (KHTML, like Gecko) Chrome/112.0.0.0 Safari/537.36","WebKit","Chrome","112.0.0.0","Windows","10.0","null","<div style=""font-size:60px;"">+</div>","null",""
"","","","","","html-button-response","46","1706471","0.0-3.0-1.21","37","1","2023-06-05 16:22:53","a806436d73fb3c2fb9db1ebeb6e0a607","208.196.109.70","Mozilla/5.0 (Windows NT 10.0; Win64; x64) AppleWebKit/537.36 (KHTML, like Gecko) Chrome/112.0.0.0 Safari/537.36","WebKit","Chrome","112.0.0.0","Windows","10.0","624","<p>As the military commander, you could choose to launch a missile to kill <strong>3 enemy soldiers</strong> , but would accidentally kill <strong>1 enemy tree</strong> nearby.</p> <p>The photo of the <strong>enemy tree</strong> is shown below.</p> <p></p> <img src='stimuli/tree/10.png', style='max-width: 30%;'> </img> <p><strong>Would you launch the weapon?</strong></p>","0",""
"","","","","","html-keyboard-response","47","1707489","0.0-3.0-0.22","37","1","2023-06-05 16:22:53","a806436d73fb3c2fb9db1ebeb6e0a607","208.196.109.70","Mozilla/5.0 (Windows NT 10.0; Win64; x64) AppleWebKit/537.36 (KHTML, like Gecko) Chrome/112.0.0.0 Safari/537.36","WebKit","Chrome","112.0.0.0","Windows","10.0","null","<div style=""font-size:60px;"">+</div>","null",""
"","","","","","html-button-response","48","1708048","0.0-3.0-1.22","37","1","2023-06-05 16:22:53","a806436d73fb3c2fb9db1ebeb6e0a607","208.196.109.70","Mozilla/5.0 (Windows NT 10.0; Win64; x64) AppleWebKit/537.36 (KHTML, like Gecko) Chrome/112.0.0.0 Safari/537.36","WebKit","Chrome","112.0.0.0","Windows","10.0","558","<p>As the military commander, you could choose to launch a missile to kill <strong>1 enemy soldier</strong> , but would accidentally kill <strong>1 enemy civilian</strong> nearby.</p> <p>The photo of the <strong>enemy civilian</strong> is shown below.</p> <p></p> <img src='stimuli/faces/NFM8.jpg', style='max-width: 30%;'> </img> <p><strong>Would you launch the weapon?</strong></p>","1",""
"","","","","","html-keyboard-response","49","1709060","0.0-3.0-0.23","37","1","2023-06-05 16:22:53","a806436d73fb3c2fb9db1ebeb6e0a607","208.196.109.70","Mozilla/5.0 (Windows NT 10.0; Win64; x64) AppleWebKit/537.36 (KHTML, like Gecko) Chrome/112.0.0.0 Safari/537.36","WebKit","Chrome","112.0.0.0","Windows","10.0","null","<div style=""font-size:60px;"">+</div>","null",""
"","","","","","html-button-response","50","1709550","0.0-3.0-1.23","37","1","2023-06-05 16:22:53","a806436d73fb3c2fb9db1ebeb6e0a607","208.196.109.70","Mozilla/5.0 (Windows NT 10.0; Win64; x64) AppleWebKit/537.36 (KHTML, like Gecko) Chrome/112.0.0.0 Safari/537.36","WebKit","Chrome","112.0.0.0","Windows","10.0","486","<p>As the military commander, you could choose to launch a missile to kill <strong>10 enemy soldiers</strong> , but would accidentally kill <strong>1 enemy tree</strong> nearby.</p> <p>The photo of the <strong>enemy tree</strong> is shown below.</p> <p></p> <img src='stimuli/tree/7.png', style='max-width: 30%;'> </img> <p><strong>Would you launch the weapon?</strong></p>","1",""
"","","","","","html-keyboard-response","51","1710557","0.0-3.0-0.24","37","1","2023-06-05 16:22:53","a806436d73fb3c2fb9db1ebeb6e0a607","208.196.109.70","Mozilla/5.0 (Windows NT 10.0; Win64; x64) AppleWebKit/537.36 (KHTML, like Gecko) Chrome/112.0.0.0 Safari/537.36","WebKit","Chrome","112.0.0.0","Windows","10.0","null","<div style=""font-size:60px;"">+</div>","null",""
"","","","","","html-button-response","52","1710804","0.0-3.0-1.24","37","1","2023-06-05 16:22:53","a806436d73fb3c2fb9db1ebeb6e0a607","208.196.109.70","Mozilla/5.0 (Windows NT 10.0; Win64; x64) AppleWebKit/537.36 (KHTML, like Gecko) Chrome/112.0.0.0 Safari/537.36","WebKit","Chrome","112.0.0.0","Windows","10.0","236","<p>As the military commander, you could choose to launch a missile to kill <strong>2 enemy soldiers</strong> , but would accidentally kill <strong>1 enemy tree</strong> nearby.</p> <p>The photo of the <strong>enemy tree</strong> is shown below.</p> <p></p> <img src='stimuli/tree/5.png', style='max-width: 30%;'> </img> <p><strong>Would you launch the weapon?</strong></p>","0",""
"","","","","","html-keyboard-response","53","1711808","0.0-3.0-0.25","37","1","2023-06-05 16:22:53","a806436d73fb3c2fb9db1ebeb6e0a607","208.196.109.70","Mozilla/5.0 (Windows NT 10.0; Win64; x64) AppleWebKit/537.36 (KHTML, like Gecko) Chrome/112.0.0.0 Safari/537.36","WebKit","Chrome","112.0.0.0","Windows","10.0","null","<div style=""font-size:60px;"">+</div>","null",""
"","","","","","html-button-response","54","1712435","0.0-3.0-1.25","37","1","2023-06-05 16:22:53","a806436d73fb3c2fb9db1ebeb6e0a607","208.196.109.70","Mozilla/5.0 (Windows NT 10.0; Win64; x64) AppleWebKit/537.36 (KHTML, like Gecko) Chrome/112.0.0.0 Safari/537.36","WebKit","Chrome","112.0.0.0","Windows","10.0","623","<p>As the military commander, you could choose to launch a missile to kill <strong>1 enemy soldier</strong> , but would accidentally kill <strong>1 enemy tree</strong> nearby.</p> <p>The photo of the <strong>enemy tree</strong> is shown below.</p> <p></p> <img src='stimuli/tree/14.png', style='max-width: 30%;'> </img> <p><strong>Would you launch the weapon?</strong></p>","0",""
"","","","","","html-keyboard-response","55","1713443","0.0-3.0-0.26","37","1","2023-06-05 16:22:53","a806436d73fb3c2fb9db1ebeb6e0a607","208.196.109.70","Mozilla/5.0 (Windows NT 10.0; Win64; x64) AppleWebKit/537.36 (KHTML, like Gecko) Chrome/112.0.0.0 Safari/537.36","WebKit","Chrome","112.0.0.0","Windows","10.0","null","<div style=""font-size:60px;"">+</div>","null",""
"","","","","","html-button-response","56","1714456","0.0-3.0-1.26","37","1","2023-06-05 16:22:53","a806436d73fb3c2fb9db1ebeb6e0a607","208.196.109.70","Mozilla/5.0 (Windows NT 10.0; Win64; x64) AppleWebKit/537.36 (KHTML, like Gecko) Chrome/112.0.0.0 Safari/537.36","WebKit","Chrome","112.0.0.0","Windows","10.0","1009","<p>As the military commander, you could choose to launch a missile to kill <strong>2 enemy soldiers</strong> , but would accidentally kill <strong>1 enemy tree</strong> nearby.</p> <p>The photo of the <strong>enemy tree</strong> is shown below.</p> <p></p> <img src='stimuli/tree/12.png', style='max-width: 30%;'> </img> <p><strong>Would you launch the weapon?</strong></p>","0",""
"","","","","","html-keyboard-response","57","1715465","0.0-3.0-0.27","37","1","2023-06-05 16:22:53","a806436d73fb3c2fb9db1ebeb6e0a607","208.196.109.70","Mozilla/5.0 (Windows NT 10.0; Win64; x64) AppleWebKit/537.36 (KHTML, like Gecko) Chrome/112.0.0.0 Safari/537.36","WebKit","Chrome","112.0.0.0","Windows","10.0","null","<div style=""font-size:60px;"">+</div>","null",""
"","","","","","html-button-response","58","1716089","0.0-3.0-1.27","37","1","2023-06-05 16:22:53","a806436d73fb3c2fb9db1ebeb6e0a607","208.196.109.70","Mozilla/5.0 (Windows NT 10.0; Win64; x64) AppleWebKit/537.36 (KHTML, like Gecko) Chrome/112.0.0.0 Safari/537.36","WebKit","Chrome","112.0.0.0","Windows","10.0","619","<p>As the military commander, you could choose to launch a missile to kill <strong>10 enemy soldiers</strong> , but would accidentally kill <strong>1 enemy civilian</strong> nearby.</p> <p>The photo of the <strong>enemy civilian</strong> is shown below.</p> <p></p> <img src='stimuli/faces/NFF5.jpg', style='max-width: 30%;'> </img> <p><strong>Would you launch the weapon?</strong></p>","1",""
"","","","","","html-keyboard-response","59","1717108","0.0-3.0-0.28","37","1","2023-06-05 16:22:53","a806436d73fb3c2fb9db1ebeb6e0a607","208.196.109.70","Mozilla/5.0 (Windows NT 10.0; Win64; x64) AppleWebKit/537.36 (KHTML, like Gecko) Chrome/112.0.0.0 Safari/537.36","WebKit","Chrome","112.0.0.0","Windows","10.0","null","<div style=""font-size:60px;"">+</div>","null",""
"","","","","","html-button-response","60","1718936","0.0-3.0-1.28","37","1","2023-06-05 16:22:53","a806436d73fb3c2fb9db1ebeb6e0a607","208.196.109.70","Mozilla/5.0 (Windows NT 10.0; Win64; x64) AppleWebKit/537.36 (KHTML, like Gecko) Chrome/112.0.0.0 Safari/537.36","WebKit","Chrome","112.0.0.0","Windows","10.0","1823","<p>As the military commander, you could choose to launch a missile to kill <strong>8 enemy soldiers</strong> , but would accidentally kill <strong>1 enemy civilian</strong> nearby.</p> <p>The photo of the <strong>enemy civilian</strong> is shown below.</p> <p></p> <img src='stimuli/faces/NFF3.jpg', style='max-width: 30%;'> </img> <p><strong>Would you launch the weapon?</strong></p>","1",""
"","","","","","html-keyboard-response","61","1719991","0.0-3.0-0.29","37","1","2023-06-05 16:22:53","a806436d73fb3c2fb9db1ebeb6e0a607","208.196.109.70","Mozilla/5.0 (Windows NT 10.0; Win64; x64) AppleWebKit/537.36 (KHTML, like Gecko) Chrome/112.0.0.0 Safari/537.36","WebKit","Chrome","112.0.0.0","Windows","10.0","null","<div style=""font-size:60px;"">+</div>","null",""
"","","","","","html-button-response","62","1721101","0.0-3.0-1.29","37","1","2023-06-05 16:22:53","a806436d73fb3c2fb9db1ebeb6e0a607","208.196.109.70","Mozilla/5.0 (Windows NT 10.0; Win64; x64) AppleWebKit/537.36 (KHTML, like Gecko) Chrome/112.0.0.0 Safari/537.36","WebKit","Chrome","112.0.0.0","Windows","10.0","1106","<p>As the military commander, you could choose to launch a missile to kill <strong>9 enemy soldiers</strong> , but would accidentally kill <strong>1 enemy civilian</strong> nearby.</p> <p>The photo of the <strong>enemy civilian</strong> is shown below.</p> <p></p> <img src='stimuli/faces/NFM3.jpg', style='max-width: 30%;'> </img> <p><strong>Would you launch the weapon?</strong></p>","0",""
"","","","","","html-keyboard-response","63","1722119","0.0-3.0-0.30","37","1","2023-06-05 16:22:53","a806436d73fb3c2fb9db1ebeb6e0a607","208.196.109.70","Mozilla/5.0 (Windows NT 10.0; Win64; x64) AppleWebKit/537.36 (KHTML, like Gecko) Chrome/112.0.0.0 Safari/537.36","WebKit","Chrome","112.0.0.0","Windows","10.0","null","<div style=""font-size:60px;"">+</div>","null",""
"","","","","","html-button-response","64","1722331","0.0-3.0-1.30","37","1","2023-06-05 16:22:53","a806436d73fb3c2fb9db1ebeb6e0a607","208.196.109.70","Mozilla/5.0 (Windows NT 10.0; Win64; x64) AppleWebKit/537.36 (KHTML, like Gecko) Chrome/112.0.0.0 Safari/537.36","WebKit","Chrome","112.0.0.0","Windows","10.0","206","<p>As the military commander, you could choose to launch a missile to kill <strong>4 enemy soldiers</strong> , but would accidentally kill <strong>1 enemy tree</strong> nearby.</p> <p>The photo of the <strong>enemy tree</strong> is shown below.</p> <p></p> <img src='stimuli/tree/9.png', style='max-width: 30%;'> </img> <p><strong>Would you launch the weapon?</strong></p>","0",""
"","","","","","html-keyboard-response","65","1723346","0.0-3.0-0.31","37","1","2023-06-05 16:22:53","a806436d73fb3c2fb9db1ebeb6e0a607","208.196.109.70","Mozilla/5.0 (Windows NT 10.0; Win64; x64) AppleWebKit/537.36 (KHTML, like Gecko) Chrome/112.0.0.0 Safari/537.36","WebKit","Chrome","112.0.0.0","Windows","10.0","null","<div style=""font-size:60px;"">+</div>","null",""
"","","","","","html-button-response","66","1724589","0.0-3.0-1.31","37","1","2023-06-05 16:22:53","a806436d73fb3c2fb9db1ebeb6e0a607","208.196.109.70","Mozilla/5.0 (Windows NT 10.0; Win64; x64) AppleWebKit/537.36 (KHTML, like Gecko) Chrome/112.0.0.0 Safari/537.36","WebKit","Chrome","112.0.0.0","Windows","10.0","1238","<p>As the military commander, you could choose to launch a missile to kill <strong>2 enemy soldiers</strong> , but would accidentally kill <strong>1 enemy tree</strong> nearby.</p> <p>The photo of the <strong>enemy tree</strong> is shown below.</p> <p></p> <img src='stimuli/tree/15.png', style='max-width: 30%;'> </img> <p><strong>Would you launch the weapon?</strong></p>","1",""
"","","","","","html-keyboard-response","67","1725591","0.0-3.0-0.32","37","1","2023-06-05 16:22:53","a806436d73fb3c2fb9db1ebeb6e0a607","208.196.109.70","Mozilla/5.0 (Windows NT 10.0; Win64; x64) AppleWebKit/537.36 (KHTML, like Gecko) Chrome/112.0.0.0 Safari/537.36","WebKit","Chrome","112.0.0.0","Windows","10.0","null","<div style=""font-size:60px;"">+</div>","null",""
"","","","","","html-button-response","68","1726457","0.0-3.0-1.32","37","1","2023-06-05 16:22:53","a806436d73fb3c2fb9db1ebeb6e0a607","208.196.109.70","Mozilla/5.0 (Windows NT 10.0; Win64; x64) AppleWebKit/537.36 (KHTML, like Gecko) Chrome/112.0.0.0 Safari/537.36","WebKit","Chrome","112.0.0.0","Windows","10.0","862","<p>As the military commander, you could choose to launch a missile to kill <strong>9 enemy soldiers</strong> , but would accidentally kill <strong>1 enemy tree</strong> nearby.</p> <p>The photo of the <strong>enemy tree</strong> is shown below.</p> <p></p> <img src='stimuli/tree/2.png', style='max-width: 30%;'> </img> <p><strong>Would you launch the weapon?</strong></p>","1",""
"","","","","","html-keyboard-response","69","1727482","0.0-3.0-0.33","37","1","2023-06-05 16:22:53","a806436d73fb3c2fb9db1ebeb6e0a607","208.196.109.70","Mozilla/5.0 (Windows NT 10.0; Win64; x64) AppleWebKit/537.36 (KHTML, like Gecko) Chrome/112.0.0.0 Safari/537.36","WebKit","Chrome","112.0.0.0","Windows","10.0","null","<div style=""font-size:60px;"">+</div>","null",""
"","","","","","html-button-response","70","1727658","0.0-3.0-1.33","37","1","2023-06-05 16:22:53","a806436d73fb3c2fb9db1ebeb6e0a607","208.196.109.70","Mozilla/5.0 (Windows NT 10.0; Win64; x64) AppleWebKit/537.36 (KHTML, like Gecko) Chrome/112.0.0.0 Safari/537.36","WebKit","Chrome","112.0.0.0","Windows","10.0","172","<p>As the military commander, you could choose to launch a missile to kill <strong>9 enemy soldiers</strong> , but would accidentally kill <strong>1 enemy tree</strong> nearby.</p> <p>The photo of the <strong>enemy tree</strong> is shown below.</p> <p></p> <img src='stimuli/tree/5.png', style='max-width: 30%;'> </img> <p><strong>Would you launch the weapon?</strong></p>","1",""
"","","","","","html-keyboard-response","71","1728664","0.0-3.0-0.34","37","1","2023-06-05 16:22:53","a806436d73fb3c2fb9db1ebeb6e0a607","208.196.109.70","Mozilla/5.0 (Windows NT 10.0; Win64; x64) AppleWebKit/537.36 (KHTML, like Gecko) Chrome/112.0.0.0 Safari/537.36","WebKit","Chrome","112.0.0.0","Windows","10.0","null","<div style=""font-size:60px;"">+</div>","null",""
"","","","","","html-button-response","72","1728985","0.0-3.0-1.34","37","1","2023-06-05 16:22:53","a806436d73fb3c2fb9db1ebeb6e0a607","208.196.109.70","Mozilla/5.0 (Windows NT 10.0; Win64; x64) AppleWebKit/537.36 (KHTML, like Gecko) Chrome/112.0.0.0 Safari/537.36","WebKit","Chrome","112.0.0.0","Windows","10.0","317","<p>As the military commander, you could choose to launch a missile to kill <strong>6 enemy soldiers</strong> , but would accidentally kill <strong>1 enemy civilian</strong> nearby.</p> <p>The photo of the <strong>enemy civilian</strong> is shown below.</p> <p></p> <img src='stimuli/faces/NFM8.jpg', style='max-width: 30%;'> </img> <p><strong>Would you launch the weapon?</strong></p>","0",""
"","","","","","html-keyboard-response","73","1730001","0.0-3.0-0.35","37","1","2023-06-05 16:22:53","a806436d73fb3c2fb9db1ebeb6e0a607","208.196.109.70","Mozilla/5.0 (Windows NT 10.0; Win64; x64) AppleWebKit/537.36 (KHTML, like Gecko) Chrome/112.0.0.0 Safari/537.36","WebKit","Chrome","112.0.0.0","Windows","10.0","null","<div style=""font-size:60px;"">+</div>","null",""
"","","","","","html-button-response","74","1731077","0.0-3.0-1.35","37","1","2023-06-05 16:22:53","a806436d73fb3c2fb9db1ebeb6e0a607","208.196.109.70","Mozilla/5.0 (Windows NT 10.0; Win64; x64) AppleWebKit/537.36 (KHTML, like Gecko) Chrome/112.0.0.0 Safari/537.36","WebKit","Chrome","112.0.0.0","Windows","10.0","1070","<p>As the military commander, you could choose to launch a missile to kill <strong>2 enemy soldiers</strong> , but would accidentally kill <strong>1 enemy civilian</strong> nearby.</p> <p>The photo of the <strong>enemy civilian</strong> is shown below.</p> <p></p> <img src='stimuli/faces/NFF8.jpg', style='max-width: 30%;'> </img> <p><strong>Would you launch the weapon?</strong></p>","1",""
"","","","","","html-keyboard-response","75","1732090","0.0-3.0-0.36","37","1","2023-06-05 16:22:53","a806436d73fb3c2fb9db1ebeb6e0a607","208.196.109.70","Mozilla/5.0 (Windows NT 10.0; Win64; x64) AppleWebKit/537.36 (KHTML, like Gecko) Chrome/112.0.0.0 Safari/537.36","WebKit","Chrome","112.0.0.0","Windows","10.0","null","<div style=""font-size:60px;"">+</div>","null",""
"","","","","","html-button-response","76","1733071","0.0-3.0-1.36","37","1","2023-06-05 16:22:53","a806436d73fb3c2fb9db1ebeb6e0a607","208.196.109.70","Mozilla/5.0 (Windows NT 10.0; Win64; x64) AppleWebKit/537.36 (KHTML, like Gecko) Chrome/112.0.0.0 Safari/537.36","WebKit","Chrome","112.0.0.0","Windows","10.0","972","<p>As the military commander, you could choose to launch a missile to kill <strong>8 enemy soldiers</strong> , but would accidentally kill <strong>1 enemy civilian</strong> nearby.</p> <p>The photo of the <strong>enemy civilian</strong> is shown below.</p> <p></p> <img src='stimuli/faces/NFF7.jpg', style='max-width: 30%;'> </img> <p><strong>Would you launch the weapon?</strong></p>","0",""
"","","","","","html-keyboard-response","77","1734085","0.0-3.0-0.37","37","1","2023-06-05 16:22:53","a806436d73fb3c2fb9db1ebeb6e0a607","208.196.109.70","Mozilla/5.0 (Windows NT 10.0; Win64; x64) AppleWebKit/537.36 (KHTML, like Gecko) Chrome/112.0.0.0 Safari/537.36","WebKit","Chrome","112.0.0.0","Windows","10.0","null","<div style=""font-size:60px;"">+</div>","null",""
"","","","","","html-button-response","78","1734330","0.0-3.0-1.37","37","1","2023-06-05 16:22:53","a806436d73fb3c2fb9db1ebeb6e0a607","208.196.109.70","Mozilla/5.0 (Windows NT 10.0; Win64; x64) AppleWebKit/537.36 (KHTML, like Gecko) Chrome/112.0.0.0 Safari/537.36","WebKit","Chrome","112.0.0.0","Windows","10.0","240","<p>As the military commander, you could choose to launch a missile to kill <strong>7 enemy soldiers</strong> , but would accidentally kill <strong>1 enemy civilian</strong> nearby.</p> <p>The photo of the <strong>enemy civilian</strong> is shown below.</p> <p></p> <img src='stimuli/faces/NFM7.jpg', style='max-width: 30%;'> </img> <p><strong>Would you launch the weapon?</strong></p>","0",""
"","","","","","html-keyboard-response","79","1735333","0.0-3.0-0.38","37","1","2023-06-05 16:22:53","a806436d73fb3c2fb9db1ebeb6e0a607","208.196.109.70","Mozilla/5.0 (Windows NT 10.0; Win64; x64) AppleWebKit/537.36 (KHTML, like Gecko) Chrome/112.0.0.0 Safari/537.36","WebKit","Chrome","112.0.0.0","Windows","10.0","null","<div style=""font-size:60px;"">+</div>","null",""
"","","","","","html-button-response","80","1736428","0.0-3.0-1.38","37","1","2023-06-05 16:22:53","a806436d73fb3c2fb9db1ebeb6e0a607","208.196.109.70","Mozilla/5.0 (Windows NT 10.0; Win64; x64) AppleWebKit/537.36 (KHTML, like Gecko) Chrome/112.0.0.0 Safari/537.36","WebKit","Chrome","112.0.0.0","Windows","10.0","1090","<p>As the military commander, you could choose to launch a missile to kill <strong>6 enemy soldiers</strong> , but would accidentally kill <strong>1 enemy civilian</strong> nearby.</p> <p>The photo of the <strong>enemy civilian</strong> is shown below.</p> <p></p> <img src='stimuli/faces/NFM6.jpg', style='max-width: 30%;'> </img> <p><strong>Would you launch the weapon?</strong></p>","0",""
"","","","","","html-keyboard-response","81","1737432","0.0-3.0-0.39","37","1","2023-06-05 16:22:53","a806436d73fb3c2fb9db1ebeb6e0a607","208.196.109.70","Mozilla/5.0 (Windows NT 10.0; Win64; x64) AppleWebKit/537.36 (KHTML, like Gecko) Chrome/112.0.0.0 Safari/537.36","WebKit","Chrome","112.0.0.0","Windows","10.0","null","<div style=""font-size:60px;"">+</div>","null",""
"","","","","","html-button-response","82","1737835","0.0-3.0-1.39","37","1","2023-06-05 16:22:53","a806436d73fb3c2fb9db1ebeb6e0a607","208.196.109.70","Mozilla/5.0 (Windows NT 10.0; Win64; x64) AppleWebKit/537.36 (KHTML, like Gecko) Chrome/112.0.0.0 Safari/537.36","WebKit","Chrome","112.0.0.0","Windows","10.0","398","<p>As the military commander, you could choose to launch a missile to kill <strong>9 enemy soldiers</strong> , but would accidentally kill <strong>1 enemy tree</strong> nearby.</p> <p>The photo of the <strong>enemy tree</strong> is shown below.</p> <p></p> <img src='stimuli/tree/15.png', style='max-width: 30%;'> </img> <p><strong>Would you launch the weapon?</strong></p>","1",""
"","","","","","html-keyboard-response","83","1738839","0.0-3.0-0.40","37","1","2023-06-05 16:22:53","a806436d73fb3c2fb9db1ebeb6e0a607","208.196.109.70","Mozilla/5.0 (Windows NT 10.0; Win64; x64) AppleWebKit/537.36 (KHTML, like Gecko) Chrome/112.0.0.0 Safari/537.36","WebKit","Chrome","112.0.0.0","Windows","10.0","null","<div style=""font-size:60px;"">+</div>","null",""
"","","","","","html-button-response","84","1739226","0.0-3.0-1.40","37","1","2023-06-05 16:22:53","a806436d73fb3c2fb9db1ebeb6e0a607","208.196.109.70","Mozilla/5.0 (Windows NT 10.0; Win64; x64) AppleWebKit/537.36 (KHTML, like Gecko) Chrome/112.0.0.0 Safari/537.36","WebKit","Chrome","112.0.0.0","Windows","10.0","379","<p>As the military commander, you could choose to launch a missile to kill <strong>8 enemy soldiers</strong> , but would accidentally kill <strong>1 enemy tree</strong> nearby.</p> <p>The photo of the <strong>enemy tree</strong> is shown below.</p> <p></p> <img src='stimuli/tree/12.png', style='max-width: 30%;'> </img> <p><strong>Would you launch the weapon?</strong></p>","1",""
"","","","","","html-keyboard-response","85","1740244","0.0-3.0-0.41","37","1","2023-06-05 16:22:53","a806436d73fb3c2fb9db1ebeb6e0a607","208.196.109.70","Mozilla/5.0 (Windows NT 10.0; Win64; x64) AppleWebKit/537.36 (KHTML, like Gecko) Chrome/112.0.0.0 Safari/537.36","WebKit","Chrome","112.0.0.0","Windows","10.0","null","<div style=""font-size:60px;"">+</div>","null",""
"","","","","","html-button-response","86","1740715","0.0-3.0-1.41","37","1","2023-06-05 16:22:53","a806436d73fb3c2fb9db1ebeb6e0a607","208.196.109.70","Mozilla/5.0 (Windows NT 10.0; Win64; x64) AppleWebKit/537.36 (KHTML, like Gecko) Chrome/112.0.0.0 Safari/537.36","WebKit","Chrome","112.0.0.0","Windows","10.0","459","<p>As the military commander, you could choose to launch a missile to kill <strong>9 enemy soldiers</strong> , but would accidentally kill <strong>1 enemy civilian</strong> nearby.</p> <p>The photo of the <strong>enemy civilian</strong> is shown below.</p> <p></p> <img src='stimuli/faces/NFF6.jpg', style='max-width: 30%;'> </img> <p><strong>Would you launch the weapon?</strong></p>","0",""
"","","","","","html-keyboard-response","87","1741718","0.0-3.0-0.42","37","1","2023-06-05 16:22:53","a806436d73fb3c2fb9db1ebeb6e0a607","208.196.109.70","Mozilla/5.0 (Windows NT 10.0; Win64; x64) AppleWebKit/537.36 (KHTML, like Gecko) Chrome/112.0.0.0 Safari/537.36","WebKit","Chrome","112.0.0.0","Windows","10.0","null","<div style=""font-size:60px;"">+</div>","null",""
"","","","","","html-button-response","88","1741885","0.0-3.0-1.42","37","1","2023-06-05 16:22:53","a806436d73fb3c2fb9db1ebeb6e0a607","208.196.109.70","Mozilla/5.0 (Windows NT 10.0; Win64; x64) AppleWebKit/537.36 (KHTML, like Gecko) Chrome/112.0.0.0 Safari/537.36","WebKit","Chrome","112.0.0.0","Windows","10.0","155","<p>As the military commander, you could choose to launch a missile to kill <strong>5 enemy soldiers</strong> , but would accidentally kill <strong>1 enemy tree</strong> nearby.</p> <p>The photo of the <strong>enemy tree</strong> is shown below.</p> <p></p> <img src='stimuli/tree/3.png', style='max-width: 30%;'> </img> <p><strong>Would you launch the weapon?</strong></p>","0",""
"","","","","","html-keyboard-response","89","1742896","0.0-3.0-0.43","37","1","2023-06-05 16:22:53","a806436d73fb3c2fb9db1ebeb6e0a607","208.196.109.70","Mozilla/5.0 (Windows NT 10.0; Win64; x64) AppleWebKit/537.36 (KHTML, like Gecko) Chrome/112.0.0.0 Safari/537.36","WebKit","Chrome","112.0.0.0","Windows","10.0","null","<div style=""font-size:60px;"">+</div>","null",""
"","","","","","html-button-response","90","1743342","0.0-3.0-1.43","37","1","2023-06-05 16:22:53","a806436d73fb3c2fb9db1ebeb6e0a607","208.196.109.70","Mozilla/5.0 (Windows NT 10.0; Win64; x64) AppleWebKit/537.36 (KHTML, like Gecko) Chrome/112.0.0.0 Safari/537.36","WebKit","Chrome","112.0.0.0","Windows","10.0","437","<p>As the military commander, you could choose to launch a missile to kill <strong>2 enemy soldiers</strong> , but would accidentally kill <strong>1 enemy tree</strong> nearby.</p> <p>The photo of the <strong>enemy tree</strong> is shown below.</p> <p></p> <img src='stimuli/tree/2.png', style='max-width: 30%;'> </img> <p><strong>Would you launch the weapon?</strong></p>","1",""
"","","","","","html-keyboard-response","91","1744356","0.0-3.0-0.44","37","1","2023-06-05 16:22:53","a806436d73fb3c2fb9db1ebeb6e0a607","208.196.109.70","Mozilla/5.0 (Windows NT 10.0; Win64; x64) AppleWebKit/537.36 (KHTML, like Gecko) Chrome/112.0.0.0 Safari/537.36","WebKit","Chrome","112.0.0.0","Windows","10.0","null","<div style=""font-size:60px;"">+</div>","null",""
"","","","","","html-button-response","92","1744887","0.0-3.0-1.44","37","1","2023-06-05 16:22:53","a806436d73fb3c2fb9db1ebeb6e0a607","208.196.109.70","Mozilla/5.0 (Windows NT 10.0; Win64; x64) AppleWebKit/537.36 (KHTML, like Gecko) Chrome/112.0.0.0 Safari/537.36","WebKit","Chrome","112.0.0.0","Windows","10.0","526","<p>As the military commander, you could choose to launch a missile to kill <strong>7 enemy soldiers</strong> , but would accidentally kill <strong>1 enemy tree</strong> nearby.</p> <p>The photo of the <strong>enemy tree</strong> is shown below.</p> <p></p> <img src='stimuli/tree/6.png', style='max-width: 30%;'> </img> <p><strong>Would you launch the weapon?</strong></p>","1",""
"","","","","","html-keyboard-response","93","1745900","0.0-3.0-0.45","37","1","2023-06-05 16:22:53","a806436d73fb3c2fb9db1ebeb6e0a607","208.196.109.70","Mozilla/5.0 (Windows NT 10.0; Win64; x64) AppleWebKit/537.36 (KHTML, like Gecko) Chrome/112.0.0.0 Safari/537.36","WebKit","Chrome","112.0.0.0","Windows","10.0","null","<div style=""font-size:60px;"">+</div>","null",""
"","","","","","html-button-response","94","1746408","0.0-3.0-1.45","37","1","2023-06-05 16:22:53","a806436d73fb3c2fb9db1ebeb6e0a607","208.196.109.70","Mozilla/5.0 (Windows NT 10.0; Win64; x64) AppleWebKit/537.36 (KHTML, like Gecko) Chrome/112.0.0.0 Safari/537.36","WebKit","Chrome","112.0.0.0","Windows","10.0","504","<p>As the military commander, you could choose to launch a missile to kill <strong>7 enemy soldiers</strong> , but would accidentally kill <strong>1 enemy civilian</strong> nearby.</p> <p>The photo of the <strong>enemy civilian</strong> is shown below.</p> <p></p> <img src='stimuli/faces/NFF8.jpg', style='max-width: 30%;'> </img> <p><strong>Would you launch the weapon?</strong></p>","1",""
"","","","","","html-keyboard-response","95","1747413","0.0-3.0-0.46","37","1","2023-06-05 16:22:53","a806436d73fb3c2fb9db1ebeb6e0a607","208.196.109.70","Mozilla/5.0 (Windows NT 10.0; Win64; x64) AppleWebKit/537.36 (KHTML, like Gecko) Chrome/112.0.0.0 Safari/537.36","WebKit","Chrome","112.0.0.0","Windows","10.0","null","<div style=""font-size:60px;"">+</div>","null",""
"","","","","","html-button-response","96","1747991","0.0-3.0-1.46","37","1","2023-06-05 16:22:53","a806436d73fb3c2fb9db1ebeb6e0a607","208.196.109.70","Mozilla/5.0 (Windows NT 10.0; Win64; x64) AppleWebKit/537.36 (KHTML, like Gecko) Chrome/112.0.0.0 Safari/537.36","WebKit","Chrome","112.0.0.0","Windows","10.0","573","<p>As the military commander, you could choose to launch a missile to kill <strong>8 enemy soldiers</strong> , but would accidentally kill <strong>1 enemy tree</strong> nearby.</p> <p>The photo of the <strong>enemy tree</strong> is shown below.</p> <p></p> <img src='stimuli/tree/1.png', style='max-width: 30%;'> </img> <p><strong>Would you launch the weapon?</strong></p>","0",""
"","","","","","html-keyboard-response","97","1749002","0.0-3.0-0.47","37","1","2023-06-05 16:22:53","a806436d73fb3c2fb9db1ebeb6e0a607","208.196.109.70","Mozilla/5.0 (Windows NT 10.0; Win64; x64) AppleWebKit/537.36 (KHTML, like Gecko) Chrome/112.0.0.0 Safari/537.36","WebKit","Chrome","112.0.0.0","Windows","10.0","null","<div style=""font-size:60px;"">+</div>","null",""
"","","","","","html-button-response","98","1749758","0.0-3.0-1.47","37","1","2023-06-05 16:22:53","a806436d73fb3c2fb9db1ebeb6e0a607","208.196.109.70","Mozilla/5.0 (Windows NT 10.0; Win64; x64) AppleWebKit/537.36 (KHTML, like Gecko) Chrome/112.0.0.0 Safari/537.36","WebKit","Chrome","112.0.0.0","Windows","10.0","744","<p>As the military commander, you could choose to launch a missile to kill <strong>7 enemy soldiers</strong> , but would accidentally kill <strong>1 enemy civilian</strong> nearby.</p> <p>The photo of the <strong>enemy civilian</strong> is shown below.</p> <p></p> <img src='stimuli/faces/NFF2.jpg', style='max-width: 30%;'> </img> <p><strong>Would you launch the weapon?</strong></p>","0",""
"","","","","","html-keyboard-response","99","1750763","0.0-3.0-0.48","37","1","2023-06-05 16:22:53","a806436d73fb3c2fb9db1ebeb6e0a607","208.196.109.70","Mozilla/5.0 (Windows NT 10.0; Win64; x64) AppleWebKit/537.36 (KHTML, like Gecko) Chrome/112.0.0.0 Safari/537.36","WebKit","Chrome","112.0.0.0","Windows","10.0","null","<div style=""font-size:60px;"">+</div>","null",""
"","","","","","html-button-response","100","1752180","0.0-3.0-1.48","37","1","2023-06-05 16:22:53","a806436d73fb3c2fb9db1ebeb6e0a607","208.196.109.70","Mozilla/5.0 (Windows NT 10.0; Win64; x64) AppleWebKit/537.36 (KHTML, like Gecko) Chrome/112.0.0.0 Safari/537.36","WebKit","Chrome","112.0.0.0","Windows","10.0","1411","<p>As the military commander, you could choose to launch a missile to kill <strong>7 enemy soldiers</strong> , but would accidentally kill <strong>1 enemy civilian</strong> nearby.</p> <p>The photo of the <strong>enemy civilian</strong> is shown below.</p> <p></p> <img src='stimuli/faces/NFM5.jpg', style='max-width: 30%;'> </img> <p><strong>Would you launch the weapon?</strong></p>","0",""
"","","","","","html-keyboard-response","101","1753208","0.0-3.0-0.49","37","1","2023-06-05 16:22:53","a806436d73fb3c2fb9db1ebeb6e0a607","208.196.109.70","Mozilla/5.0 (Windows NT 10.0; Win64; x64) AppleWebKit/537.36 (KHTML, like Gecko) Chrome/112.0.0.0 Safari/537.36","WebKit","Chrome","112.0.0.0","Windows","10.0","null","<div style=""font-size:60px;"">+</div>","null",""
"","","","","","html-button-response","102","1753409","0.0-3.0-1.49","37","1","2023-06-05 16:22:53","a806436d73fb3c2fb9db1ebeb6e0a607","208.196.109.70","Mozilla/5.0 (Windows NT 10.0; Win64; x64) AppleWebKit/537.36 (KHTML, like Gecko) Chrome/112.0.0.0 Safari/537.36","WebKit","Chrome","112.0.0.0","Windows","10.0","195","<p>As the military commander, you could choose to launch a missile to kill <strong>4 enemy soldiers</strong> , but would accidentally kill <strong>1 enemy civilian</strong> nearby.</p> <p>The photo of the <strong>enemy civilian</strong> is shown below.</p> <p></p> <img src='stimuli/faces/NFF2.jpg', style='max-width: 30%;'> </img> <p><strong>Would you launch the weapon?</strong></p>","0",""
"","","","","","html-keyboard-response","103","1754424","0.0-3.0-0.50","37","1","2023-06-05 16:22:53","a806436d73fb3c2fb9db1ebeb6e0a607","208.196.109.70","Mozilla/5.0 (Windows NT 10.0; Win64; x64) AppleWebKit/537.36 (KHTML, like Gecko) Chrome/112.0.0.0 Safari/537.36","WebKit","Chrome","112.0.0.0","Windows","10.0","null","<div style=""font-size:60px;"">+</div>","null",""
"","","","","","html-button-response","104","1754559","0.0-3.0-1.50","37","1","2023-06-05 16:22:53","a806436d73fb3c2fb9db1ebeb6e0a607","208.196.109.70","Mozilla/5.0 (Windows NT 10.0; Win64; x64) AppleWebKit/537.36 (KHTML, like Gecko) Chrome/112.0.0.0 Safari/537.36","WebKit","Chrome","112.0.0.0","Windows","10.0","130","<p>As the military commander, you could choose to launch a missile to kill <strong>3 enemy soldiers</strong> , but would accidentally kill <strong>1 enemy tree</strong> nearby.</p> <p>The photo of the <strong>enemy tree</strong> is shown below.</p> <p></p> <img src='stimuli/tree/4.png', style='max-width: 30%;'> </img> <p><strong>Would you launch the weapon?</strong></p>","1",""
"","","","","","html-keyboard-response","105","1755568","0.0-3.0-0.51","37","1","2023-06-05 16:22:53","a806436d73fb3c2fb9db1ebeb6e0a607","208.196.109.70","Mozilla/5.0 (Windows NT 10.0; Win64; x64) AppleWebKit/537.36 (KHTML, like Gecko) Chrome/112.0.0.0 Safari/537.36","WebKit","Chrome","112.0.0.0","Windows","10.0","null","<div style=""font-size:60px;"">+</div>","null",""
"","","","","","html-button-response","106","1756207","0.0-3.0-1.51","37","1","2023-06-05 16:22:53","a806436d73fb3c2fb9db1ebeb6e0a607","208.196.109.70","Mozilla/5.0 (Windows NT 10.0; Win64; x64) AppleWebKit/537.36 (KHTML, like Gecko) Chrome/112.0.0.0 Safari/537.36","WebKit","Chrome","112.0.0.0","Windows","10.0","622","<p>As the military commander, you could choose to launch a missile to kill <strong>9 enemy soldiers</strong> , but would accidentally kill <strong>1 enemy tree</strong> nearby.</p> <p>The photo of the <strong>enemy tree</strong> is shown below.</p> <p></p> <img src='stimuli/tree/10.png', style='max-width: 30%;'> </img> <p><strong>Would you launch the weapon?</strong></p>","1",""
"","","","","","html-keyboard-response","107","1757211","0.0-3.0-0.52","37","1","2023-06-05 16:22:53","a806436d73fb3c2fb9db1ebeb6e0a607","208.196.109.70","Mozilla/5.0 (Windows NT 10.0; Win64; x64) AppleWebKit/537.36 (KHTML, like Gecko) Chrome/112.0.0.0 Safari/537.36","WebKit","Chrome","112.0.0.0","Windows","10.0","null","<div style=""font-size:60px;"">+</div>","null",""
"","","","","","html-button-response","108","1757607","0.0-3.0-1.52","37","1","2023-06-05 16:22:53","a806436d73fb3c2fb9db1ebeb6e0a607","208.196.109.70","Mozilla/5.0 (Windows NT 10.0; Win64; x64) AppleWebKit/537.36 (KHTML, like Gecko) Chrome/112.0.0.0 Safari/537.36","WebKit","Chrome","112.0.0.0","Windows","10.0","391","<p>As the military commander, you could choose to launch a missile to kill <strong>8 enemy soldiers</strong> , but would accidentally kill <strong>1 enemy tree</strong> nearby.</p> <p>The photo of the <strong>enemy tree</strong> is shown below.</p> <p></p> <img src='stimuli/tree/14.png', style='max-width: 30%;'> </img> <p><strong>Would you launch the weapon?</strong></p>","1",""
"","","","","","html-keyboard-response","109","1758611","0.0-3.0-0.53","37","1","2023-06-05 16:22:53","a806436d73fb3c2fb9db1ebeb6e0a607","208.196.109.70","Mozilla/5.0 (Windows NT 10.0; Win64; x64) AppleWebKit/537.36 (KHTML, like Gecko) Chrome/112.0.0.0 Safari/537.36","WebKit","Chrome","112.0.0.0","Windows","10.0","null","<div style=""font-size:60px;"">+</div>","null",""
"","","","","","html-button-response","110","1759027","0.0-3.0-1.53","37","1","2023-06-05 16:22:53","a806436d73fb3c2fb9db1ebeb6e0a607","208.196.109.70","Mozilla/5.0 (Windows NT 10.0; Win64; x64) AppleWebKit/537.36 (KHTML, like Gecko) Chrome/112.0.0.0 Safari/537.36","WebKit","Chrome","112.0.0.0","Windows","10.0","412","<p>As the military commander, you could choose to launch a missile to kill <strong>5 enemy soldiers</strong> , but would accidentally kill <strong>1 enemy tree</strong> nearby.</p> <p>The photo of the <strong>enemy tree</strong> is shown below.</p> <p></p> <img src='stimuli/tree/16.png', style='max-width: 30%;'> </img> <p><strong>Would you launch the weapon?</strong></p>","0",""
"","","","","","html-keyboard-response","111","1760032","0.0-3.0-0.54","37","1","2023-06-05 16:22:53","a806436d73fb3c2fb9db1ebeb6e0a607","208.196.109.70","Mozilla/5.0 (Windows NT 10.0; Win64; x64) AppleWebKit/537.36 (KHTML, like Gecko) Chrome/112.0.0.0 Safari/537.36","WebKit","Chrome","112.0.0.0","Windows","10.0","null","<div style=""font-size:60px;"">+</div>","null",""
"","","","","","html-button-response","112","1761042","0.0-3.0-1.54","37","1","2023-06-05 16:22:53","a806436d73fb3c2fb9db1ebeb6e0a607","208.196.109.70","Mozilla/5.0 (Windows NT 10.0; Win64; x64) AppleWebKit/537.36 (KHTML, like Gecko) Chrome/112.0.0.0 Safari/537.36","WebKit","Chrome","112.0.0.0","Windows","10.0","1002","<p>As the military commander, you could choose to launch a missile to kill <strong>5 enemy soldiers</strong> , but would accidentally kill <strong>1 enemy tree</strong> nearby.</p> <p>The photo of the <strong>enemy tree</strong> is shown below.</p> <p></p> <img src='stimuli/tree/7.png', style='max-width: 30%;'> </img> <p><strong>Would you launch the weapon?</strong></p>","0",""
"","","","","","html-keyboard-response","113","1762060","0.0-3.0-0.55","37","1","2023-06-05 16:22:53","a806436d73fb3c2fb9db1ebeb6e0a607","208.196.109.70","Mozilla/5.0 (Windows NT 10.0; Win64; x64) AppleWebKit/537.36 (KHTML, like Gecko) Chrome/112.0.0.0 Safari/537.36","WebKit","Chrome","112.0.0.0","Windows","10.0","null","<div style=""font-size:60px;"">+</div>","null",""
"","","","","","html-button-response","114","1762642","0.0-3.0-1.55","37","1","2023-06-05 16:22:53","a806436d73fb3c2fb9db1ebeb6e0a607","208.196.109.70","Mozilla/5.0 (Windows NT 10.0; Win64; x64) AppleWebKit/537.36 (KHTML, like Gecko) Chrome/112.0.0.0 Safari/537.36","WebKit","Chrome","112.0.0.0","Windows","10.0","573","<p>As the military commander, you could choose to launch a missile to kill <strong>8 enemy soldiers</strong> , but would accidentally kill <strong>1 enemy tree</strong> nearby.</p> <p>The photo of the <strong>enemy tree</strong> is shown below.</p> <p></p> <img src='stimuli/tree/3.png', style='max-width: 30%;'> </img> <p><strong>Would you launch the weapon?</strong></p>","0",""
"","","","","","html-keyboard-response","115","1763647","0.0-3.0-0.56","37","1","2023-06-05 16:22:53","a806436d73fb3c2fb9db1ebeb6e0a607","208.196.109.70","Mozilla/5.0 (Windows NT 10.0; Win64; x64) AppleWebKit/537.36 (KHTML, like Gecko) Chrome/112.0.0.0 Safari/537.36","WebKit","Chrome","112.0.0.0","Windows","10.0","null","<div style=""font-size:60px;"">+</div>","null",""
"","","","","","html-button-response","116","1764863","0.0-3.0-1.56","37","1","2023-06-05 16:22:53","a806436d73fb3c2fb9db1ebeb6e0a607","208.196.109.70","Mozilla/5.0 (Windows NT 10.0; Win64; x64) AppleWebKit/537.36 (KHTML, like Gecko) Chrome/112.0.0.0 Safari/537.36","WebKit","Chrome","112.0.0.0","Windows","10.0","1211","<p>As the military commander, you could choose to launch a missile to kill <strong>10 enemy soldiers</strong> , but would accidentally kill <strong>1 enemy tree</strong> nearby.</p> <p>The photo of the <strong>enemy tree</strong> is shown below.</p> <p></p> <img src='stimuli/tree/8.png', style='max-width: 30%;'> </img> <p><strong>Would you launch the weapon?</strong></p>","1",""
"","","","","","html-keyboard-response","117","1765874","0.0-3.0-0.57","37","1","2023-06-05 16:22:53","a806436d73fb3c2fb9db1ebeb6e0a607","208.196.109.70","Mozilla/5.0 (Windows NT 10.0; Win64; x64) AppleWebKit/537.36 (KHTML, like Gecko) Chrome/112.0.0.0 Safari/537.36","WebKit","Chrome","112.0.0.0","Windows","10.0","null","<div style=""font-size:60px;"">+</div>","null",""
"","","","","","html-button-response","118","1766084","0.0-3.0-1.57","37","1","2023-06-05 16:22:53","a806436d73fb3c2fb9db1ebeb6e0a607","208.196.109.70","Mozilla/5.0 (Windows NT 10.0; Win64; x64) AppleWebKit/537.36 (KHTML, like Gecko) Chrome/112.0.0.0 Safari/537.36","WebKit","Chrome","112.0.0.0","Windows","10.0","201","<p>As the military commander, you could choose to launch a missile to kill <strong>8 enemy soldiers</strong> , but would accidentally kill <strong>1 enemy civilian</strong> nearby.</p> <p>The photo of the <strong>enemy civilian</strong> is shown below.</p> <p></p> <img src='stimuli/faces/NFF1.jpg', style='max-width: 30%;'> </img> <p><strong>Would you launch the weapon?</strong></p>","0",""
"","","","","","html-keyboard-response","119","1767088","0.0-3.0-0.58","37","1","2023-06-05 16:22:53","a806436d73fb3c2fb9db1ebeb6e0a607","208.196.109.70","Mozilla/5.0 (Windows NT 10.0; Win64; x64) AppleWebKit/537.36 (KHTML, like Gecko) Chrome/112.0.0.0 Safari/537.36","WebKit","Chrome","112.0.0.0","Windows","10.0","null","<div style=""font-size:60px;"">+</div>","null",""
"","","","","","html-button-response","120","1767722","0.0-3.0-1.58","37","1","2023-06-05 16:22:53","a806436d73fb3c2fb9db1ebeb6e0a607","208.196.109.70","Mozilla/5.0 (Windows NT 10.0; Win64; x64) AppleWebKit/537.36 (KHTML, like Gecko) Chrome/112.0.0.0 Safari/537.36","WebKit","Chrome","112.0.0.0","Windows","10.0","622","<p>As the military commander, you could choose to launch a missile to kill <strong>1 enemy soldier</strong> , but would accidentally kill <strong>1 enemy tree</strong> nearby.</p> <p>The photo of the <strong>enemy tree</strong> is shown below.</p> <p></p> <img src='stimuli/tree/11.png', style='max-width: 30%;'> </img> <p><strong>Would you launch the weapon?</strong></p>","1",""
"","","","","","html-keyboard-response","121","1768731","0.0-3.0-0.59","37","1","2023-06-05 16:22:53","a806436d73fb3c2fb9db1ebeb6e0a607","208.196.109.70","Mozilla/5.0 (Windows NT 10.0; Win64; x64) AppleWebKit/537.36 (KHTML, like Gecko) Chrome/112.0.0.0 Safari/537.36","WebKit","Chrome","112.0.0.0","Windows","10.0","null","<div style=""font-size:60px;"">+</div>","null",""
"","","","","","html-button-response","122","1768941","0.0-3.0-1.59","37","1","2023-06-05 16:22:53","a806436d73fb3c2fb9db1ebeb6e0a607","208.196.109.70","Mozilla/5.0 (Windows NT 10.0; Win64; x64) AppleWebKit/537.36 (KHTML, like Gecko) Chrome/112.0.0.0 Safari/537.36","WebKit","Chrome","112.0.0.0","Windows","10.0","203","<p>As the military commander, you could choose to launch a missile to kill <strong>5 enemy soldiers</strong> , but would accidentally kill <strong>1 enemy tree</strong> nearby.</p> <p>The photo of the <strong>enemy tree</strong> is shown below.</p> <p></p> <img src='stimuli/tree/6.png', style='max-width: 30%;'> </img> <p><strong>Would you launch the weapon?</strong></p>","0",""
"","","","","","html-keyboard-response","123","1769961","0.0-3.0-0.60","37","1","2023-06-05 16:22:53","a806436d73fb3c2fb9db1ebeb6e0a607","208.196.109.70","Mozilla/5.0 (Windows NT 10.0; Win64; x64) AppleWebKit/537.36 (KHTML, like Gecko) Chrome/112.0.0.0 Safari/537.36","WebKit","Chrome","112.0.0.0","Windows","10.0","null","<div style=""font-size:60px;"">+</div>","null",""
"","","","","","html-button-response","124","1770552","0.0-3.0-1.60","37","1","2023-06-05 16:22:53","a806436d73fb3c2fb9db1ebeb6e0a607","208.196.109.70","Mozilla/5.0 (Windows NT 10.0; Win64; x64) AppleWebKit/537.36 (KHTML, like Gecko) Chrome/112.0.0.0 Safari/537.36","WebKit","Chrome","112.0.0.0","Windows","10.0","586","<p>As the military commander, you could choose to launch a missile to kill <strong>1 enemy soldier</strong> , but would accidentally kill <strong>1 enemy civilian</strong> nearby.</p> <p>The photo of the <strong>enemy civilian</strong> is shown below.</p> <p></p> <img src='stimuli/faces/NFM6.jpg', style='max-width: 30%;'> </img> <p><strong>Would you launch the weapon?</strong></p>","0",""
"","","","","","html-keyboard-response","125","1771556","0.0-3.0-0.61","37","1","2023-06-05 16:22:53","a806436d73fb3c2fb9db1ebeb6e0a607","208.196.109.70","Mozilla/5.0 (Windows NT 10.0; Win64; x64) AppleWebKit/537.36 (KHTML, like Gecko) Chrome/112.0.0.0 Safari/537.36","WebKit","Chrome","112.0.0.0","Windows","10.0","null","<div style=""font-size:60px;"">+</div>","null",""
"","","","","","html-button-response","126","1771894","0.0-3.0-1.61","37","1","2023-06-05 16:22:53","a806436d73fb3c2fb9db1ebeb6e0a607","208.196.109.70","Mozilla/5.0 (Windows NT 10.0; Win64; x64) AppleWebKit/537.36 (KHTML, like Gecko) Chrome/112.0.0.0 Safari/537.36","WebKit","Chrome","112.0.0.0","Windows","10.0","332","<p>As the military commander, you could choose to launch a missile to kill <strong>9 enemy soldiers</strong> , but would accidentally kill <strong>1 enemy civilian</strong> nearby.</p> <p>The photo of the <strong>enemy civilian</strong> is shown below.</p> <p></p> <img src='stimuli/faces/NFM1.jpg', style='max-width: 30%;'> </img> <p><strong>Would you launch the weapon?</strong></p>","1",""
"","","","","","html-keyboard-response","127","1772905","0.0-3.0-0.62","37","1","2023-06-05 16:22:53","a806436d73fb3c2fb9db1ebeb6e0a607","208.196.109.70","Mozilla/5.0 (Windows NT 10.0; Win64; x64) AppleWebKit/537.36 (KHTML, like Gecko) Chrome/112.0.0.0 Safari/537.36","WebKit","Chrome","112.0.0.0","Windows","10.0","null","<div style=""font-size:60px;"">+</div>","null",""
"","","","","","html-button-response","128","1773373","0.0-3.0-1.62","37","1","2023-06-05 16:22:53","a806436d73fb3c2fb9db1ebeb6e0a607","208.196.109.70","Mozilla/5.0 (Windows NT 10.0; Win64; x64) AppleWebKit/537.36 (KHTML, like Gecko) Chrome/112.0.0.0 Safari/537.36","WebKit","Chrome","112.0.0.0","Windows","10.0","462","<p>As the military commander, you could choose to launch a missile to kill <strong>1 enemy soldier</strong> , but would accidentally kill <strong>1 enemy tree</strong> nearby.</p> <p>The photo of the <strong>enemy tree</strong> is shown below.</p> <p></p> <img src='stimuli/tree/1.png', style='max-width: 30%;'> </img> <p><strong>Would you launch the weapon?</strong></p>","0",""
"","","","","","html-keyboard-response","129","1774384","0.0-3.0-0.63","37","1","2023-06-05 16:22:53","a806436d73fb3c2fb9db1ebeb6e0a607","208.196.109.70","Mozilla/5.0 (Windows NT 10.0; Win64; x64) AppleWebKit/537.36 (KHTML, like Gecko) Chrome/112.0.0.0 Safari/537.36","WebKit","Chrome","112.0.0.0","Windows","10.0","null","<div style=""font-size:60px;"">+</div>","null",""
"","","","","","html-button-response","130","1775046","0.0-3.0-1.63","37","1","2023-06-05 16:22:53","a806436d73fb3c2fb9db1ebeb6e0a607","208.196.109.70","Mozilla/5.0 (Windows NT 10.0; Win64; x64) AppleWebKit/537.36 (KHTML, like Gecko) Chrome/112.0.0.0 Safari/537.36","WebKit","Chrome","112.0.0.0","Windows","10.0","656","<p>As the military commander, you could choose to launch a missile to kill <strong>9 enemy soldiers</strong> , but would accidentally kill <strong>1 enemy tree</strong> nearby.</p> <p>The photo of the <strong>enemy tree</strong> is shown below.</p> <p></p> <img src='stimuli/tree/16.png', style='max-width: 30%;'> </img> <p><strong>Would you launch the weapon?</strong></p>","1",""
"","","","","","survey-multi-choice","131","1779541","0.0-4.0","37","1","2023-06-05 16:22:53","a806436d73fb3c2fb9db1ebeb6e0a607","208.196.109.70","Mozilla/5.0 (Windows NT 10.0; Win64; x64) AppleWebKit/537.36 (KHTML, like Gecko) Chrome/112.0.0.0 Safari/537.36","WebKit","Chrome","112.0.0.0","Windows","10.0","4486","","{""Attention1"":""""}","[0]"
"","","","","","html-button-response","132","1782558","0.0-5.0","37","1","2023-06-05 16:22:53","a806436d73fb3c2fb9db1ebeb6e0a607","208.196.109.70","Mozilla/5.0 (Windows NT 10.0; Win64; x64) AppleWebKit/537.36 (KHTML, like Gecko) Chrome/112.0.0.0 Safari/537.36","WebKit","Chrome","112.0.0.0","Windows","10.0","3007","<p style=""font-size:20px;font-weight:bold;"">Great!</p><p>You have finished the first part of the experiment!</p><p>Please relax a little bit and then contine to answer some questions regarding yourself.</p><p>The next part will take around 10 minutes to complete.</p>","0",""
"","","","","","survey-text","133","1794063","0.0-6.0","37","1","2023-06-05 16:22:53","a806436d73fb3c2fb9db1ebeb6e0a607","208.196.109.70","Mozilla/5.0 (Windows NT 10.0; Win64; x64) AppleWebKit/537.36 (KHTML, like Gecko) Chrome/112.0.0.0 Safari/537.36","WebKit","Chrome","112.0.0.0","Windows","10.0","10476","","{""Age"":""30"",""Nation"":""WHITE"",""Born"":""USA"",""Live"":""USA""}",""
"","","","","","survey-multi-choice","134","1803000","0.0-7.0","37","1","2023-06-05 16:22:53","a806436d73fb3c2fb9db1ebeb6e0a607","208.196.109.70","Mozilla/5.0 (Windows NT 10.0; Win64; x64) AppleWebKit/537.36 (KHTML, like Gecko) Chrome/112.0.0.0 Safari/537.36","WebKit","Chrome","112.0.0.0","Windows","10.0","8928","","{""Gender"":""Male"",""Education"":""Bachelor's Degree"",""Income"":""$10,000-$19,999"",""Children"":""2"",""Ethnicity"":""White""}","[0,1,2,3,4]"
"","","","","","survey-multi-select","135","1807356","0.0-8.0","37","1","2023-06-05 16:22:53","a806436d73fb3c2fb9db1ebeb6e0a607","208.196.109.70","Mozilla/5.0 (Windows NT 10.0; Win64; x64) AppleWebKit/537.36 (KHTML, like Gecko) Chrome/112.0.0.0 Safari/537.36","WebKit","Chrome","112.0.0.0","Windows","10.0","4338","","{""Marriage"":[""Married""],""Religion"":[""Christian""]}","[0,1]"
"","","","","","survey-multi-choice","136","1809179","0.0-9.0","37","1","2023-06-05 16:22:53","a806436d73fb3c2fb9db1ebeb6e0a607","208.196.109.70","Mozilla/5.0 (Windows NT 10.0; Win64; x64) AppleWebKit/537.36 (KHTML, like Gecko) Chrome/112.0.0.0 Safari/537.36","WebKit","Chrome","112.0.0.0","Windows","10.0","1813","","{""SES"":""5""}","[0]"
"","","","","","html-button-response","137","1810258","0.0-10.0","37","1","2023-06-05 16:22:53","a806436d73fb3c2fb9db1ebeb6e0a607","208.196.109.70","Mozilla/5.0 (Windows NT 10.0; Win64; x64) AppleWebKit/537.36 (KHTML, like Gecko) Chrome/112.0.0.0 Safari/537.36","WebKit","Chrome","112.0.0.0","Windows","10.0","1070","<p><strong>Please indicate the extent that the following statements could describe you.</p><p> (1 = ""extremely uncharacteristic of me"" to 5 = ""extremely characteristic of me"".)</strong></p>","0",""
"","","","","","survey-likert","138","1814882","0.0-11.0","37","1","2023-06-05 16:22:53","a806436d73fb3c2fb9db1ebeb6e0a607","208.196.109.70","Mozilla/5.0 (Windows NT 10.0; Win64; x64) AppleWebKit/537.36 (KHTML, like Gecko) Chrome/112.0.0.0 Safari/537.36","WebKit","Chrome","112.0.0.0","Windows","10.0","4617","","{""Aggression1"":1,""Aggression2"":2,""Aggression3"":3,""Aggression4"":3,""Aggression5"":4,""Aggression6"":3,""Aggression7"":3,""Aggression8"":0,""Aggression9"":3}","[0,1,2,3,4,5,6,7,8]"
"","","","","","html-button-response","139","1816031","0.0-12.0","37","1","2023-06-05 16:22:53","a806436d73fb3c2fb9db1ebeb6e0a607","208.196.109.70","Mozilla/5.0 (Windows NT 10.0; Win64; x64) AppleWebKit/537.36 (KHTML, like Gecko) Chrome/112.0.0.0 Safari/537.36","WebKit","Chrome","112.0.0.0","Windows","10.0","1140","<p><strong>Please indicate the extent that the following statements could describe you. </strong></p><p><strong> (1 = ""Does not describe me well"" to 5 = ""Does decribe me well"".)</strong></p>","0",""
"","","","","","survey-likert","140","1828514","0.0-13.0","37","1","2023-06-05 16:22:53","a806436d73fb3c2fb9db1ebeb6e0a607","208.196.109.70","Mozilla/5.0 (Windows NT 10.0; Win64; x64) AppleWebKit/537.36 (KHTML, like Gecko) Chrome/112.0.0.0 Safari/537.36","WebKit","Chrome","112.0.0.0","Windows","10.0","12472","","{""pts7"":2,""ecs3"":3,""fs7"":3,""fs3"":3,""ecs5"":1,""pds4"":1,""ecs6"":3,""pts4"":3,""pds3"":0,""fs6"":3,""pds6"":2,""pts3"":1,""fs4"":2,""pts1"":4,""pds7"":4,""pts2"":3,""ecs7"":0,""fs1"":3,""pds1"":1,""ecs1"":3,""ecs4"":3,""pds5"":2,""fs5"":4,""ecs2"":3,""pds2"":2,""pts6"":3,""pts5"":2,""fs2"":0}","[27,8,25,6,17,16,19,14,12,22,23,10,11,2,26,7,21,0,5,1,13,18,15,3,9,24,20,4]"
"","","","","","html-button-response","141","1829518","0.0-14.0","37","1","2023-06-05 16:22:53","a806436d73fb3c2fb9db1ebeb6e0a607","208.196.109.70","Mozilla/5.0 (Windows NT 10.0; Win64; x64) AppleWebKit/537.36 (KHTML, like Gecko) Chrome/112.0.0.0 Safari/537.36","WebKit","Chrome","112.0.0.0","Windows","10.0","995","<p><strong>Which of the following objects or statements do you have a positive or negative feeling towards? </strong></p><p><strong> (1 = ""Very negative"" to 7 = ""Very positive"") </strong></p>","0",""
"","","","","","survey-likert","142","1840273","0.0-15.0","37","1","2023-06-05 16:22:53","a806436d73fb3c2fb9db1ebeb6e0a607","208.196.109.70","Mozilla/5.0 (Windows NT 10.0; Win64; x64) AppleWebKit/537.36 (KHTML, like Gecko) Chrome/112.0.0.0 Safari/537.36","WebKit","Chrome","112.0.0.0","Windows","10.0","10747","","{""sdo9"":4,""sdo6"":5,""sdo11"":5,""sdo13"":5,""sdo16"":5,""sdo4"":5,""sdo1"":5,""sdo10"":3,""sdo8"":6,""sdo2"":5,""sdo12"":5,""sdo5"":3,""sdo7"":6,""sdo14"":2,""sdo15"":5,""sdo3"":3}","[8,5,10,12,15,3,0,9,7,1,11,4,6,13,14,2]"
"","","","","","html-button-response","143","1841661","0.0-16.0","37","1","2023-06-05 16:22:53","a806436d73fb3c2fb9db1ebeb6e0a607","208.196.109.70","Mozilla/5.0 (Windows NT 10.0; Win64; x64) AppleWebKit/537.36 (KHTML, like Gecko) Chrome/112.0.0.0 Safari/537.36","WebKit","Chrome","112.0.0.0","Windows","10.0","1377","<p><strong>Please indicate the extent you agree with the following statements.</strong></p><strong><p> (1 = ""Strongly Disagree"" to 5 = ""Srongly Agree"") </strong></p>","0",""
"","","","","","survey-likert","144","1849986","0.0-17.0","37","1","2023-06-05 16:22:53","a806436d73fb3c2fb9db1ebeb6e0a607","208.196.109.70","Mozilla/5.0 (Windows NT 10.0; Win64; x64) AppleWebKit/537.36 (KHTML, like Gecko) Chrome/112.0.0.0 Safari/537.36","WebKit","Chrome","112.0.0.0","Windows","10.0","8316","","{""caring1"":2,""liking1"":3,""caring2"":3,""protection1"":4,""liking2"":2,""caring3"":2,""protection2"":4,""liking3"":3,""protection3"":0,""caring4"":4,""liking4"":3,""protection4"":1,""caring5"":2,""liking5"":3,""protection5"":1}","[0,1,2,3,4,5,6,7,8,9,10,11,12,13,14]"
"","","","","","html-button-response","145","1851025","0.0-18.0","37","1","2023-06-05 16:22:53","a806436d73fb3c2fb9db1ebeb6e0a607","208.196.109.70","Mozilla/5.0 (Windows NT 10.0; Win64; x64) AppleWebKit/537.36 (KHTML, like Gecko) Chrome/112.0.0.0 Safari/537.36","WebKit","Chrome","112.0.0.0","Windows","10.0","1029","<p><strong>Please imagine spercific situations involving children below, and rate the amount of tenderness you would feel in each situation. </strong></p><p><strong> (Ternderness is ""a warm, gentle feeling of sympathetic affection."") </strong></p><strong><p> (1 = ""No tenderness at all"" to 5 = ""A lot of tenderness"") </strong></p>","0",""
"","","","","","survey-likert","146","1856585","0.0-19.0","37","1","2023-06-05 16:22:53","a806436d73fb3c2fb9db1ebeb6e0a607","208.196.109.70","Mozilla/5.0 (Windows NT 10.0; Win64; x64) AppleWebKit/537.36 (KHTML, like Gecko) Chrome/112.0.0.0 Safari/537.36","WebKit","Chrome","112.0.0.0","Windows","10.0","5554","","{""tenderness-positive1"":3,""tenderness-negative1"":3,""tenderness-negative2"":4,""tenderness-positive2"":3,""tenderness-positive3"":3,""tenderness-negative3"":1,""tenderness-positive4"":3,""tendereness-negative4"":4,""tendernness-negative5"":1,""tenderness-positive5"":3}","[0,1,2,3,4,5,6,7,8,9]"
"","","","","","survey-multi-choice","147","1858823","0.0-20.0","37","1","2023-06-05 16:22:53","a806436d73fb3c2fb9db1ebeb6e0a607","208.196.109.70","Mozilla/5.0 (Windows NT 10.0; Win64; x64) AppleWebKit/537.36 (KHTML, like Gecko) Chrome/112.0.0.0 Safari/537.36","WebKit","Chrome","112.0.0.0","Windows","10.0","2226","","{""Attention2"":""Other""}","[0]"
"","","","","","html-button-response","148","1859870","0.0-21.0","37","1","2023-06-05 16:22:53","a806436d73fb3c2fb9db1ebeb6e0a607","208.196.109.70","Mozilla/5.0 (Windows NT 10.0; Win64; x64) AppleWebKit/537.36 (KHTML, like Gecko) Chrome/112.0.0.0 Safari/537.36","WebKit","Chrome","112.0.0.0","Windows","10.0","1038","<p><strong>Please indicate the extent you agree with the following statements.</strong></p>","0",""
"","","","","","survey-likert","149","1871939","0.0-22.0","37","1","2023-06-05 16:22:53","a806436d73fb3c2fb9db1ebeb6e0a607","208.196.109.70","Mozilla/5.0 (Windows NT 10.0; Win64; x64) AppleWebKit/537.36 (KHTML, like Gecko) Chrome/112.0.0.0 Safari/537.36","WebKit","Chrome","112.0.0.0","Windows","10.0","12060","","{""Patri12"":0,""Nation7"":3,""Nation2"":3,""Nation4"":1,""Patri11"":3,""Patri1"":0,""Nation1"":3,""Nation8"":0,""Nation6"":2,""Nation5"":2,""Nation3"":1,""Patri10"":0,""Patri8"":3,""Patri7"":3,""Patri3"":2,""Patri4"":2,""Patri2"":0,""Patri9"":1,""Patri6"":2,""Patri5"":0}","[11,18,13,15,10,0,12,19,17,16,14,9,7,6,2,3,1,8,5,4]"
"","","","","","html-button-response","150","1872998","0.0-23.0","37","1","2023-06-05 16:22:53","a806436d73fb3c2fb9db1ebeb6e0a607","208.196.109.70","Mozilla/5.0 (Windows NT 10.0; Win64; x64) AppleWebKit/537.36 (KHTML, like Gecko) Chrome/112.0.0.0 Safari/537.36","WebKit","Chrome","112.0.0.0","Windows","10.0","1042","<p><strong>Please indicate the extent you agree with the following statements. </p><p>(1 = ""never or definitely no"" and 9 = ""always or definitely yes"".)</strong></p>","0",""
"","","","","","survey-likert","151","1890895","0.0-24.0","37","1","2023-06-05 16:22:53","a806436d73fb3c2fb9db1ebeb6e0a607","208.196.109.70","Mozilla/5.0 (Windows NT 10.0; Win64; x64) AppleWebKit/537.36 (KHTML, like Gecko) Chrome/112.0.0.0 Safari/537.36","WebKit","Chrome","112.0.0.0","Windows","10.0","17887","","{""hi1"":5,""hi3"":7,""vc2"":8,""vc1"":7,""hc3"":4,""hc2"":7,""hc1"":5,""hi2"":6,""vi3"":7,""vc3"":6,""vc4"":6,""Robot2"":6,""vi1"":0,""hi4"":0,""vi4"":6,""vi2"":0,""hc4"":2}","[0,2,14,13,11,10,9,1,6,15,16,7,4,3,8,5,12]"
"","","","","","survey-text","152","1907338","0.0-25.0","37","1","2023-06-05 16:22:53","a806436d73fb3c2fb9db1ebeb6e0a607","208.196.109.70","Mozilla/5.0 (Windows NT 10.0; Win64; x64) AppleWebKit/537.36 (KHTML, like Gecko) Chrome/112.0.0.0 Safari/537.36","WebKit","Chrome","112.0.0.0","Windows","10.0","16415","","{""ID"":""A1VQLTP7XLTV0G"",""Comments"":""GOOD""}",""
"","","","","","html-button-response","153","1911131","0.0-26.0","37","1","2023-06-05 16:22:53","a806436d73fb3c2fb9db1ebeb6e0a607","208.196.109.70","Mozilla/5.0 (Windows NT 10.0; Win64; x64) AppleWebKit/537.36 (KHTML, like Gecko) Chrome/112.0.0.0 Safari/537.36","WebKit","Chrome","112.0.0.0","Windows","10.0","3783","<p><strong>Congratulations! </strong> Your have finished all the survey. Thank you for your participation!</p><p><strong>Here is your complete token:</strong></p>6odff0ciw0whxc6ylg0olusw<p></p><p><strong>Please copy it to the mTurk page.</strong></p>","0",""
