"success","timeout","failed_images","failed_audio","failed_video","trial_type","trial_index","time_elapsed","internal_node_id","run_id","condition","recorded_at","source_code_version","ip","user_agent","device","browser","browser_version","platform","platform_version","rt","stimulus","response","question_order"
"true","false","[]","[]","[]","preload","0","821","0.0-0.0","65","1","2023-06-02 17:30:53","a806436d73fb3c2fb9db1ebeb6e0a607","204.242.0.193","Mozilla/5.0 (Windows NT 10.0; Win64; x64) AppleWebKit/537.36 (KHTML, like Gecko) Chrome/116.0.0.0 Safari/537.36","WebKit","Chrome","116.0.0.0","Windows","10.0","","","",""
"true","","","","","fullscreen","1","3850","0.0-1.0","65","1","2023-06-02 17:30:53","a806436d73fb3c2fb9db1ebeb6e0a607","204.242.0.193","Mozilla/5.0 (Windows NT 10.0; Win64; x64) AppleWebKit/537.36 (KHTML, like Gecko) Chrome/116.0.0.0 Safari/537.36","WebKit","Chrome","116.0.0.0","Windows","10.0","","","",""
"","","","","","html-button-response","2","5399","0.0-2.0","65","1","2023-06-02 17:30:53","a806436d73fb3c2fb9db1ebeb6e0a607","204.242.0.193","Mozilla/5.0 (Windows NT 10.0; Win64; x64) AppleWebKit/537.36 (KHTML, like Gecko) Chrome/116.0.0.0 Safari/537.36","WebKit","Chrome","116.0.0.0","Windows","10.0","1546","<p ><strong>Welcome to the experiment!</strong></p><p ><strong>In the first task, please imagine:</strong></p><p>Your country is involved in a military conflict with another country.</p><p>You are the commander of your army and must make decisions in the conflict.</p><p>Specifically, as the military commander, you must decide whether to launch a missile to strike enemy.</p><p>You will face a series of scenarios. Please read each scenario carefully and make a decision.</p><p>The task will take around 10 minutes to complete.</p><p><strong>Please pay your attention during the experiment.</strong></p>","0",""
"","","","","","html-keyboard-response","3","6401","0.0-3.0-0.0","65","1","2023-06-02 17:30:53","a806436d73fb3c2fb9db1ebeb6e0a607","204.242.0.193","Mozilla/5.0 (Windows NT 10.0; Win64; x64) AppleWebKit/537.36 (KHTML, like Gecko) Chrome/116.0.0.0 Safari/537.36","WebKit","Chrome","116.0.0.0","Windows","10.0","null","<div style=""font-size:60px;"">+</div>","null",""
"","","","","","html-button-response","4","8175","0.0-3.0-1.0","65","1","2023-06-02 17:30:53","a806436d73fb3c2fb9db1ebeb6e0a607","204.242.0.193","Mozilla/5.0 (Windows NT 10.0; Win64; x64) AppleWebKit/537.36 (KHTML, like Gecko) Chrome/116.0.0.0 Safari/537.36","WebKit","Chrome","116.0.0.0","Windows","10.0","1772","<p>As the military commander, you could choose to launch a missile to kill <strong>1 enemy soldier</strong> , but would accidentally kill <strong>1 enemy tree</strong> nearby.</p> <p>The photo of the <strong>enemy tree</strong> is shown below.</p> <p></p> <img src='stimuli/tree/7.png', style='max-width: 30%;'> </img> <p><strong>Would you launch the weapon?</strong></p>","0",""
"","","","","","html-keyboard-response","5","9176","0.0-3.0-0.1","65","1","2023-06-02 17:30:53","a806436d73fb3c2fb9db1ebeb6e0a607","204.242.0.193","Mozilla/5.0 (Windows NT 10.0; Win64; x64) AppleWebKit/537.36 (KHTML, like Gecko) Chrome/116.0.0.0 Safari/537.36","WebKit","Chrome","116.0.0.0","Windows","10.0","null","<div style=""font-size:60px;"">+</div>","null",""
"","","","","","html-button-response","6","62520","0.0-3.0-1.1","65","1","2023-06-02 17:30:53","a806436d73fb3c2fb9db1ebeb6e0a607","204.242.0.193","Mozilla/5.0 (Windows NT 10.0; Win64; x64) AppleWebKit/537.36 (KHTML, like Gecko) Chrome/116.0.0.0 Safari/537.36","WebKit","Chrome","116.0.0.0","Windows","10.0","53342","<p>As the military commander, you could choose to launch a missile to kill <strong>9 enemy soldiers</strong> , but would accidentally kill <strong>1 enemy tree</strong> nearby.</p> <p>The photo of the <strong>enemy tree</strong> is shown below.</p> <p></p> <img src='stimuli/tree/12.png', style='max-width: 30%;'> </img> <p><strong>Would you launch the weapon?</strong></p>","0",""
"","","","","","html-keyboard-response","7","63522","0.0-3.0-0.2","65","1","2023-06-02 17:30:53","a806436d73fb3c2fb9db1ebeb6e0a607","204.242.0.193","Mozilla/5.0 (Windows NT 10.0; Win64; x64) AppleWebKit/537.36 (KHTML, like Gecko) Chrome/116.0.0.0 Safari/537.36","WebKit","Chrome","116.0.0.0","Windows","10.0","null","<div style=""font-size:60px;"">+</div>","null",""
"","","","","","html-button-response","8","65952","0.0-3.0-1.2","65","1","2023-06-02 17:30:53","a806436d73fb3c2fb9db1ebeb6e0a607","204.242.0.193","Mozilla/5.0 (Windows NT 10.0; Win64; x64) AppleWebKit/537.36 (KHTML, like Gecko) Chrome/116.0.0.0 Safari/537.36","WebKit","Chrome","116.0.0.0","Windows","10.0","2428","<p>As the military commander, you could choose to launch a missile to kill <strong>5 enemy soldiers</strong> , but would accidentally kill <strong>1 enemy civilian</strong> nearby.</p> <p>The photo of the <strong>enemy civilian</strong> is shown below.</p> <p></p> <img src='stimuli/faces/NFM5.jpg', style='max-width: 30%;'> </img> <p><strong>Would you launch the weapon?</strong></p>","0",""
"","","","","","html-keyboard-response","9","66954","0.0-3.0-0.3","65","1","2023-06-02 17:30:53","a806436d73fb3c2fb9db1ebeb6e0a607","204.242.0.193","Mozilla/5.0 (Windows NT 10.0; Win64; x64) AppleWebKit/537.36 (KHTML, like Gecko) Chrome/116.0.0.0 Safari/537.36","WebKit","Chrome","116.0.0.0","Windows","10.0","null","<div style=""font-size:60px;"">+</div>","null",""
"","","","","","html-button-response","10","68380","0.0-3.0-1.3","65","1","2023-06-02 17:30:53","a806436d73fb3c2fb9db1ebeb6e0a607","204.242.0.193","Mozilla/5.0 (Windows NT 10.0; Win64; x64) AppleWebKit/537.36 (KHTML, like Gecko) Chrome/116.0.0.0 Safari/537.36","WebKit","Chrome","116.0.0.0","Windows","10.0","1423","<p>As the military commander, you could choose to launch a missile to kill <strong>10 enemy soldiers</strong> , but would accidentally kill <strong>1 enemy tree</strong> nearby.</p> <p>The photo of the <strong>enemy tree</strong> is shown below.</p> <p></p> <img src='stimuli/tree/7.png', style='max-width: 30%;'> </img> <p><strong>Would you launch the weapon?</strong></p>","0",""
"","","","","","html-keyboard-response","11","69381","0.0-3.0-0.4","65","1","2023-06-02 17:30:53","a806436d73fb3c2fb9db1ebeb6e0a607","204.242.0.193","Mozilla/5.0 (Windows NT 10.0; Win64; x64) AppleWebKit/537.36 (KHTML, like Gecko) Chrome/116.0.0.0 Safari/537.36","WebKit","Chrome","116.0.0.0","Windows","10.0","null","<div style=""font-size:60px;"">+</div>","null",""
"","","","","","html-button-response","12","70303","0.0-3.0-1.4","65","1","2023-06-02 17:30:53","a806436d73fb3c2fb9db1ebeb6e0a607","204.242.0.193","Mozilla/5.0 (Windows NT 10.0; Win64; x64) AppleWebKit/537.36 (KHTML, like Gecko) Chrome/116.0.0.0 Safari/537.36","WebKit","Chrome","116.0.0.0","Windows","10.0","919","<p>As the military commander, you could choose to launch a missile to kill <strong>4 enemy soldiers</strong> , but would accidentally kill <strong>1 enemy tree</strong> nearby.</p> <p>The photo of the <strong>enemy tree</strong> is shown below.</p> <p></p> <img src='stimuli/tree/15.png', style='max-width: 30%;'> </img> <p><strong>Would you launch the weapon?</strong></p>","0",""
"","","","","","html-keyboard-response","13","71305","0.0-3.0-0.5","65","1","2023-06-02 17:30:53","a806436d73fb3c2fb9db1ebeb6e0a607","204.242.0.193","Mozilla/5.0 (Windows NT 10.0; Win64; x64) AppleWebKit/537.36 (KHTML, like Gecko) Chrome/116.0.0.0 Safari/537.36","WebKit","Chrome","116.0.0.0","Windows","10.0","null","<div style=""font-size:60px;"">+</div>","null",""
"","","","","","html-button-response","14","72292","0.0-3.0-1.5","65","1","2023-06-02 17:30:53","a806436d73fb3c2fb9db1ebeb6e0a607","204.242.0.193","Mozilla/5.0 (Windows NT 10.0; Win64; x64) AppleWebKit/537.36 (KHTML, like Gecko) Chrome/116.0.0.0 Safari/537.36","WebKit","Chrome","116.0.0.0","Windows","10.0","984","<p>As the military commander, you could choose to launch a missile to kill <strong>9 enemy soldiers</strong> , but would accidentally kill <strong>1 enemy tree</strong> nearby.</p> <p>The photo of the <strong>enemy tree</strong> is shown below.</p> <p></p> <img src='stimuli/tree/14.png', style='max-width: 30%;'> </img> <p><strong>Would you launch the weapon?</strong></p>","0",""
"","","","","","html-keyboard-response","15","73293","0.0-3.0-0.6","65","1","2023-06-02 17:30:53","a806436d73fb3c2fb9db1ebeb6e0a607","204.242.0.193","Mozilla/5.0 (Windows NT 10.0; Win64; x64) AppleWebKit/537.36 (KHTML, like Gecko) Chrome/116.0.0.0 Safari/537.36","WebKit","Chrome","116.0.0.0","Windows","10.0","null","<div style=""font-size:60px;"">+</div>","null",""
"","","","","","html-button-response","16","74136","0.0-3.0-1.6","65","1","2023-06-02 17:30:53","a806436d73fb3c2fb9db1ebeb6e0a607","204.242.0.193","Mozilla/5.0 (Windows NT 10.0; Win64; x64) AppleWebKit/537.36 (KHTML, like Gecko) Chrome/116.0.0.0 Safari/537.36","WebKit","Chrome","116.0.0.0","Windows","10.0","840","<p>As the military commander, you could choose to launch a missile to kill <strong>7 enemy soldiers</strong> , but would accidentally kill <strong>1 enemy tree</strong> nearby.</p> <p>The photo of the <strong>enemy tree</strong> is shown below.</p> <p></p> <img src='stimuli/tree/16.png', style='max-width: 30%;'> </img> <p><strong>Would you launch the weapon?</strong></p>","0",""
"","","","","","html-keyboard-response","17","75137","0.0-3.0-0.7","65","1","2023-06-02 17:30:53","a806436d73fb3c2fb9db1ebeb6e0a607","204.242.0.193","Mozilla/5.0 (Windows NT 10.0; Win64; x64) AppleWebKit/537.36 (KHTML, like Gecko) Chrome/116.0.0.0 Safari/537.36","WebKit","Chrome","116.0.0.0","Windows","10.0","null","<div style=""font-size:60px;"">+</div>","null",""
"","","","","","html-button-response","18","76032","0.0-3.0-1.7","65","1","2023-06-02 17:30:53","a806436d73fb3c2fb9db1ebeb6e0a607","204.242.0.193","Mozilla/5.0 (Windows NT 10.0; Win64; x64) AppleWebKit/537.36 (KHTML, like Gecko) Chrome/116.0.0.0 Safari/537.36","WebKit","Chrome","116.0.0.0","Windows","10.0","892","<p>As the military commander, you could choose to launch a missile to kill <strong>5 enemy soldiers</strong> , but would accidentally kill <strong>1 enemy tree</strong> nearby.</p> <p>The photo of the <strong>enemy tree</strong> is shown below.</p> <p></p> <img src='stimuli/tree/14.png', style='max-width: 30%;'> </img> <p><strong>Would you launch the weapon?</strong></p>","0",""
"","","","","","html-keyboard-response","19","77034","0.0-3.0-0.8","65","1","2023-06-02 17:30:53","a806436d73fb3c2fb9db1ebeb6e0a607","204.242.0.193","Mozilla/5.0 (Windows NT 10.0; Win64; x64) AppleWebKit/537.36 (KHTML, like Gecko) Chrome/116.0.0.0 Safari/537.36","WebKit","Chrome","116.0.0.0","Windows","10.0","null","<div style=""font-size:60px;"">+</div>","null",""
"","","","","","html-button-response","20","78016","0.0-3.0-1.8","65","1","2023-06-02 17:30:53","a806436d73fb3c2fb9db1ebeb6e0a607","204.242.0.193","Mozilla/5.0 (Windows NT 10.0; Win64; x64) AppleWebKit/537.36 (KHTML, like Gecko) Chrome/116.0.0.0 Safari/537.36","WebKit","Chrome","116.0.0.0","Windows","10.0","979","<p>As the military commander, you could choose to launch a missile to kill <strong>9 enemy soldiers</strong> , but would accidentally kill <strong>1 enemy civilian</strong> nearby.</p> <p>The photo of the <strong>enemy civilian</strong> is shown below.</p> <p></p> <img src='stimuli/faces/NFM6.jpg', style='max-width: 30%;'> </img> <p><strong>Would you launch the weapon?</strong></p>","0",""
"","","","","","html-keyboard-response","21","79018","0.0-3.0-0.9","65","1","2023-06-02 17:30:53","a806436d73fb3c2fb9db1ebeb6e0a607","204.242.0.193","Mozilla/5.0 (Windows NT 10.0; Win64; x64) AppleWebKit/537.36 (KHTML, like Gecko) Chrome/116.0.0.0 Safari/537.36","WebKit","Chrome","116.0.0.0","Windows","10.0","null","<div style=""font-size:60px;"">+</div>","null",""
"","","","","","html-button-response","22","79967","0.0-3.0-1.9","65","1","2023-06-02 17:30:53","a806436d73fb3c2fb9db1ebeb6e0a607","204.242.0.193","Mozilla/5.0 (Windows NT 10.0; Win64; x64) AppleWebKit/537.36 (KHTML, like Gecko) Chrome/116.0.0.0 Safari/537.36","WebKit","Chrome","116.0.0.0","Windows","10.0","947","<p>As the military commander, you could choose to launch a missile to kill <strong>7 enemy soldiers</strong> , but would accidentally kill <strong>1 enemy civilian</strong> nearby.</p> <p>The photo of the <strong>enemy civilian</strong> is shown below.</p> <p></p> <img src='stimuli/faces/NFF7.jpg', style='max-width: 30%;'> </img> <p><strong>Would you launch the weapon?</strong></p>","0",""
"","","","","","html-keyboard-response","23","80969","0.0-3.0-0.10","65","1","2023-06-02 17:30:53","a806436d73fb3c2fb9db1ebeb6e0a607","204.242.0.193","Mozilla/5.0 (Windows NT 10.0; Win64; x64) AppleWebKit/537.36 (KHTML, like Gecko) Chrome/116.0.0.0 Safari/537.36","WebKit","Chrome","116.0.0.0","Windows","10.0","null","<div style=""font-size:60px;"">+</div>","null",""
"","","","","","html-button-response","24","82087","0.0-3.0-1.10","65","1","2023-06-02 17:30:53","a806436d73fb3c2fb9db1ebeb6e0a607","204.242.0.193","Mozilla/5.0 (Windows NT 10.0; Win64; x64) AppleWebKit/537.36 (KHTML, like Gecko) Chrome/116.0.0.0 Safari/537.36","WebKit","Chrome","116.0.0.0","Windows","10.0","1116","<p>As the military commander, you could choose to launch a missile to kill <strong>6 enemy soldiers</strong> , but would accidentally kill <strong>1 enemy tree</strong> nearby.</p> <p>The photo of the <strong>enemy tree</strong> is shown below.</p> <p></p> <img src='stimuli/tree/11.png', style='max-width: 30%;'> </img> <p><strong>Would you launch the weapon?</strong></p>","0",""
"","","","","","html-keyboard-response","25","83088","0.0-3.0-0.11","65","1","2023-06-02 17:30:53","a806436d73fb3c2fb9db1ebeb6e0a607","204.242.0.193","Mozilla/5.0 (Windows NT 10.0; Win64; x64) AppleWebKit/537.36 (KHTML, like Gecko) Chrome/116.0.0.0 Safari/537.36","WebKit","Chrome","116.0.0.0","Windows","10.0","null","<div style=""font-size:60px;"">+</div>","null",""
"","","","","","html-button-response","26","84067","0.0-3.0-1.11","65","1","2023-06-02 17:30:53","a806436d73fb3c2fb9db1ebeb6e0a607","204.242.0.193","Mozilla/5.0 (Windows NT 10.0; Win64; x64) AppleWebKit/537.36 (KHTML, like Gecko) Chrome/116.0.0.0 Safari/537.36","WebKit","Chrome","116.0.0.0","Windows","10.0","976","<p>As the military commander, you could choose to launch a missile to kill <strong>8 enemy soldiers</strong> , but would accidentally kill <strong>1 enemy civilian</strong> nearby.</p> <p>The photo of the <strong>enemy civilian</strong> is shown below.</p> <p></p> <img src='stimuli/faces/NFM1.jpg', style='max-width: 30%;'> </img> <p><strong>Would you launch the weapon?</strong></p>","0",""
"","","","","","html-keyboard-response","27","85069","0.0-3.0-0.12","65","1","2023-06-02 17:30:53","a806436d73fb3c2fb9db1ebeb6e0a607","204.242.0.193","Mozilla/5.0 (Windows NT 10.0; Win64; x64) AppleWebKit/537.36 (KHTML, like Gecko) Chrome/116.0.0.0 Safari/537.36","WebKit","Chrome","116.0.0.0","Windows","10.0","null","<div style=""font-size:60px;"">+</div>","null",""
"","","","","","html-button-response","28","85927","0.0-3.0-1.12","65","1","2023-06-02 17:30:53","a806436d73fb3c2fb9db1ebeb6e0a607","204.242.0.193","Mozilla/5.0 (Windows NT 10.0; Win64; x64) AppleWebKit/537.36 (KHTML, like Gecko) Chrome/116.0.0.0 Safari/537.36","WebKit","Chrome","116.0.0.0","Windows","10.0","855","<p>As the military commander, you could choose to launch a missile to kill <strong>2 enemy soldiers</strong> , but would accidentally kill <strong>1 enemy tree</strong> nearby.</p> <p>The photo of the <strong>enemy tree</strong> is shown below.</p> <p></p> <img src='stimuli/tree/3.png', style='max-width: 30%;'> </img> <p><strong>Would you launch the weapon?</strong></p>","0",""
"","","","","","html-keyboard-response","29","86928","0.0-3.0-0.13","65","1","2023-06-02 17:30:53","a806436d73fb3c2fb9db1ebeb6e0a607","204.242.0.193","Mozilla/5.0 (Windows NT 10.0; Win64; x64) AppleWebKit/537.36 (KHTML, like Gecko) Chrome/116.0.0.0 Safari/537.36","WebKit","Chrome","116.0.0.0","Windows","10.0","null","<div style=""font-size:60px;"">+</div>","null",""
"","","","","","html-button-response","30","88355","0.0-3.0-1.13","65","1","2023-06-02 17:30:53","a806436d73fb3c2fb9db1ebeb6e0a607","204.242.0.193","Mozilla/5.0 (Windows NT 10.0; Win64; x64) AppleWebKit/537.36 (KHTML, like Gecko) Chrome/116.0.0.0 Safari/537.36","WebKit","Chrome","116.0.0.0","Windows","10.0","1424","<p>As the military commander, you could choose to launch a missile to kill <strong>9 enemy soldiers</strong> , but would accidentally kill <strong>1 enemy tree</strong> nearby.</p> <p>The photo of the <strong>enemy tree</strong> is shown below.</p> <p></p> <img src='stimuli/tree/2.png', style='max-width: 30%;'> </img> <p><strong>Would you launch the weapon?</strong></p>","0",""
"","","","","","html-keyboard-response","31","89357","0.0-3.0-0.14","65","1","2023-06-02 17:30:53","a806436d73fb3c2fb9db1ebeb6e0a607","204.242.0.193","Mozilla/5.0 (Windows NT 10.0; Win64; x64) AppleWebKit/537.36 (KHTML, like Gecko) Chrome/116.0.0.0 Safari/537.36","WebKit","Chrome","116.0.0.0","Windows","10.0","null","<div style=""font-size:60px;"">+</div>","null",""
"","","","","","html-button-response","32","92303","0.0-3.0-1.14","65","1","2023-06-02 17:30:53","a806436d73fb3c2fb9db1ebeb6e0a607","204.242.0.193","Mozilla/5.0 (Windows NT 10.0; Win64; x64) AppleWebKit/537.36 (KHTML, like Gecko) Chrome/116.0.0.0 Safari/537.36","WebKit","Chrome","116.0.0.0","Windows","10.0","2943","<p>As the military commander, you could choose to launch a missile to kill <strong>4 enemy soldiers</strong> , but would accidentally kill <strong>1 enemy civilian</strong> nearby.</p> <p>The photo of the <strong>enemy civilian</strong> is shown below.</p> <p></p> <img src='stimuli/faces/NFF5.jpg', style='max-width: 30%;'> </img> <p><strong>Would you launch the weapon?</strong></p>","0",""
"","","","","","html-keyboard-response","33","93305","0.0-3.0-0.15","65","1","2023-06-02 17:30:53","a806436d73fb3c2fb9db1ebeb6e0a607","204.242.0.193","Mozilla/5.0 (Windows NT 10.0; Win64; x64) AppleWebKit/537.36 (KHTML, like Gecko) Chrome/116.0.0.0 Safari/537.36","WebKit","Chrome","116.0.0.0","Windows","10.0","null","<div style=""font-size:60px;"">+</div>","null",""
"","","","","","html-button-response","34","95980","0.0-3.0-1.15","65","1","2023-06-02 17:30:53","a806436d73fb3c2fb9db1ebeb6e0a607","204.242.0.193","Mozilla/5.0 (Windows NT 10.0; Win64; x64) AppleWebKit/537.36 (KHTML, like Gecko) Chrome/116.0.0.0 Safari/537.36","WebKit","Chrome","116.0.0.0","Windows","10.0","2671","<p>As the military commander, you could choose to launch a missile to kill <strong>5 enemy soldiers</strong> , but would accidentally kill <strong>1 enemy civilian</strong> nearby.</p> <p>The photo of the <strong>enemy civilian</strong> is shown below.</p> <p></p> <img src='stimuli/faces/NFM8.jpg', style='max-width: 30%;'> </img> <p><strong>Would you launch the weapon?</strong></p>","0",""
"","","","","","html-keyboard-response","35","96982","0.0-3.0-0.16","65","1","2023-06-02 17:30:53","a806436d73fb3c2fb9db1ebeb6e0a607","204.242.0.193","Mozilla/5.0 (Windows NT 10.0; Win64; x64) AppleWebKit/537.36 (KHTML, like Gecko) Chrome/116.0.0.0 Safari/537.36","WebKit","Chrome","116.0.0.0","Windows","10.0","null","<div style=""font-size:60px;"">+</div>","null",""
"","","","","","html-button-response","36","101343","0.0-3.0-1.16","65","1","2023-06-02 17:30:53","a806436d73fb3c2fb9db1ebeb6e0a607","204.242.0.193","Mozilla/5.0 (Windows NT 10.0; Win64; x64) AppleWebKit/537.36 (KHTML, like Gecko) Chrome/116.0.0.0 Safari/537.36","WebKit","Chrome","116.0.0.0","Windows","10.0","4358","<p>As the military commander, you could choose to launch a missile to kill <strong>10 enemy soldiers</strong> , but would accidentally kill <strong>1 enemy civilian</strong> nearby.</p> <p>The photo of the <strong>enemy civilian</strong> is shown below.</p> <p></p> <img src='stimuli/faces/NFF8.jpg', style='max-width: 30%;'> </img> <p><strong>Would you launch the weapon?</strong></p>","0",""
"","","","","","html-keyboard-response","37","102344","0.0-3.0-0.17","65","1","2023-06-02 17:30:53","a806436d73fb3c2fb9db1ebeb6e0a607","204.242.0.193","Mozilla/5.0 (Windows NT 10.0; Win64; x64) AppleWebKit/537.36 (KHTML, like Gecko) Chrome/116.0.0.0 Safari/537.36","WebKit","Chrome","116.0.0.0","Windows","10.0","null","<div style=""font-size:60px;"">+</div>","null",""
"","","","","","html-button-response","38","103983","0.0-3.0-1.17","65","1","2023-06-02 17:30:53","a806436d73fb3c2fb9db1ebeb6e0a607","204.242.0.193","Mozilla/5.0 (Windows NT 10.0; Win64; x64) AppleWebKit/537.36 (KHTML, like Gecko) Chrome/116.0.0.0 Safari/537.36","WebKit","Chrome","116.0.0.0","Windows","10.0","1637","<p>As the military commander, you could choose to launch a missile to kill <strong>4 enemy soldiers</strong> , but would accidentally kill <strong>1 enemy tree</strong> nearby.</p> <p>The photo of the <strong>enemy tree</strong> is shown below.</p> <p></p> <img src='stimuli/tree/16.png', style='max-width: 30%;'> </img> <p><strong>Would you launch the weapon?</strong></p>","0",""
"","","","","","html-keyboard-response","39","104986","0.0-3.0-0.18","65","1","2023-06-02 17:30:53","a806436d73fb3c2fb9db1ebeb6e0a607","204.242.0.193","Mozilla/5.0 (Windows NT 10.0; Win64; x64) AppleWebKit/537.36 (KHTML, like Gecko) Chrome/116.0.0.0 Safari/537.36","WebKit","Chrome","116.0.0.0","Windows","10.0","null","<div style=""font-size:60px;"">+</div>","null",""
"","","","","","html-button-response","40","106496","0.0-3.0-1.18","65","1","2023-06-02 17:30:53","a806436d73fb3c2fb9db1ebeb6e0a607","204.242.0.193","Mozilla/5.0 (Windows NT 10.0; Win64; x64) AppleWebKit/537.36 (KHTML, like Gecko) Chrome/116.0.0.0 Safari/537.36","WebKit","Chrome","116.0.0.0","Windows","10.0","1506","<p>As the military commander, you could choose to launch a missile to kill <strong>7 enemy soldiers</strong> , but would accidentally kill <strong>1 enemy civilian</strong> nearby.</p> <p>The photo of the <strong>enemy civilian</strong> is shown below.</p> <p></p> <img src='stimuli/faces/NFF3.jpg', style='max-width: 30%;'> </img> <p><strong>Would you launch the weapon?</strong></p>","0",""
"","","","","","html-keyboard-response","41","107497","0.0-3.0-0.19","65","1","2023-06-02 17:30:53","a806436d73fb3c2fb9db1ebeb6e0a607","204.242.0.193","Mozilla/5.0 (Windows NT 10.0; Win64; x64) AppleWebKit/537.36 (KHTML, like Gecko) Chrome/116.0.0.0 Safari/537.36","WebKit","Chrome","116.0.0.0","Windows","10.0","null","<div style=""font-size:60px;"">+</div>","null",""
"","","","","","html-button-response","42","108520","0.0-3.0-1.19","65","1","2023-06-02 17:30:53","a806436d73fb3c2fb9db1ebeb6e0a607","204.242.0.193","Mozilla/5.0 (Windows NT 10.0; Win64; x64) AppleWebKit/537.36 (KHTML, like Gecko) Chrome/116.0.0.0 Safari/537.36","WebKit","Chrome","116.0.0.0","Windows","10.0","1020","<p>As the military commander, you could choose to launch a missile to kill <strong>3 enemy soldiers</strong> , but would accidentally kill <strong>1 enemy tree</strong> nearby.</p> <p>The photo of the <strong>enemy tree</strong> is shown below.</p> <p></p> <img src='stimuli/tree/8.png', style='max-width: 30%;'> </img> <p><strong>Would you launch the weapon?</strong></p>","0",""
"","","","","","html-keyboard-response","43","109522","0.0-3.0-0.20","65","1","2023-06-02 17:30:53","a806436d73fb3c2fb9db1ebeb6e0a607","204.242.0.193","Mozilla/5.0 (Windows NT 10.0; Win64; x64) AppleWebKit/537.36 (KHTML, like Gecko) Chrome/116.0.0.0 Safari/537.36","WebKit","Chrome","116.0.0.0","Windows","10.0","null","<div style=""font-size:60px;"">+</div>","null",""
"","","","","","html-button-response","44","111879","0.0-3.0-1.20","65","1","2023-06-02 17:30:53","a806436d73fb3c2fb9db1ebeb6e0a607","204.242.0.193","Mozilla/5.0 (Windows NT 10.0; Win64; x64) AppleWebKit/537.36 (KHTML, like Gecko) Chrome/116.0.0.0 Safari/537.36","WebKit","Chrome","116.0.0.0","Windows","10.0","2355","<p>As the military commander, you could choose to launch a missile to kill <strong>5 enemy soldiers</strong> , but would accidentally kill <strong>1 enemy civilian</strong> nearby.</p> <p>The photo of the <strong>enemy civilian</strong> is shown below.</p> <p></p> <img src='stimuli/faces/NFM6.jpg', style='max-width: 30%;'> </img> <p><strong>Would you launch the weapon?</strong></p>","0",""
"","","","","","html-keyboard-response","45","112884","0.0-3.0-0.21","65","1","2023-06-02 17:30:53","a806436d73fb3c2fb9db1ebeb6e0a607","204.242.0.193","Mozilla/5.0 (Windows NT 10.0; Win64; x64) AppleWebKit/537.36 (KHTML, like Gecko) Chrome/116.0.0.0 Safari/537.36","WebKit","Chrome","116.0.0.0","Windows","10.0","null","<div style=""font-size:60px;"">+</div>","null",""
"","","","","","html-button-response","46","114560","0.0-3.0-1.21","65","1","2023-06-02 17:30:53","a806436d73fb3c2fb9db1ebeb6e0a607","204.242.0.193","Mozilla/5.0 (Windows NT 10.0; Win64; x64) AppleWebKit/537.36 (KHTML, like Gecko) Chrome/116.0.0.0 Safari/537.36","WebKit","Chrome","116.0.0.0","Windows","10.0","1673","<p>As the military commander, you could choose to launch a missile to kill <strong>2 enemy soldiers</strong> , but would accidentally kill <strong>1 enemy tree</strong> nearby.</p> <p>The photo of the <strong>enemy tree</strong> is shown below.</p> <p></p> <img src='stimuli/tree/12.png', style='max-width: 30%;'> </img> <p><strong>Would you launch the weapon?</strong></p>","0",""
"","","","","","html-keyboard-response","47","115563","0.0-3.0-0.22","65","1","2023-06-02 17:30:53","a806436d73fb3c2fb9db1ebeb6e0a607","204.242.0.193","Mozilla/5.0 (Windows NT 10.0; Win64; x64) AppleWebKit/537.36 (KHTML, like Gecko) Chrome/116.0.0.0 Safari/537.36","WebKit","Chrome","116.0.0.0","Windows","10.0","null","<div style=""font-size:60px;"">+</div>","null",""
"","","","","","html-button-response","48","116599","0.0-3.0-1.22","65","1","2023-06-02 17:30:53","a806436d73fb3c2fb9db1ebeb6e0a607","204.242.0.193","Mozilla/5.0 (Windows NT 10.0; Win64; x64) AppleWebKit/537.36 (KHTML, like Gecko) Chrome/116.0.0.0 Safari/537.36","WebKit","Chrome","116.0.0.0","Windows","10.0","1031","<p>As the military commander, you could choose to launch a missile to kill <strong>9 enemy soldiers</strong> , but would accidentally kill <strong>1 enemy civilian</strong> nearby.</p> <p>The photo of the <strong>enemy civilian</strong> is shown below.</p> <p></p> <img src='stimuli/faces/NFF5.jpg', style='max-width: 30%;'> </img> <p><strong>Would you launch the weapon?</strong></p>","0",""
"","","","","","html-keyboard-response","49","117602","0.0-3.0-0.23","65","1","2023-06-02 17:30:53","a806436d73fb3c2fb9db1ebeb6e0a607","204.242.0.193","Mozilla/5.0 (Windows NT 10.0; Win64; x64) AppleWebKit/537.36 (KHTML, like Gecko) Chrome/116.0.0.0 Safari/537.36","WebKit","Chrome","116.0.0.0","Windows","10.0","null","<div style=""font-size:60px;"">+</div>","null",""
"","","","","","html-button-response","50","118507","0.0-3.0-1.23","65","1","2023-06-02 17:30:53","a806436d73fb3c2fb9db1ebeb6e0a607","204.242.0.193","Mozilla/5.0 (Windows NT 10.0; Win64; x64) AppleWebKit/537.36 (KHTML, like Gecko) Chrome/116.0.0.0 Safari/537.36","WebKit","Chrome","116.0.0.0","Windows","10.0","902","<p>As the military commander, you could choose to launch a missile to kill <strong>3 enemy soldiers</strong> , but would accidentally kill <strong>1 enemy civilian</strong> nearby.</p> <p>The photo of the <strong>enemy civilian</strong> is shown below.</p> <p></p> <img src='stimuli/faces/NFM7.jpg', style='max-width: 30%;'> </img> <p><strong>Would you launch the weapon?</strong></p>","0",""
"","","","","","html-keyboard-response","51","119510","0.0-3.0-0.24","65","1","2023-06-02 17:30:53","a806436d73fb3c2fb9db1ebeb6e0a607","204.242.0.193","Mozilla/5.0 (Windows NT 10.0; Win64; x64) AppleWebKit/537.36 (KHTML, like Gecko) Chrome/116.0.0.0 Safari/537.36","WebKit","Chrome","116.0.0.0","Windows","10.0","null","<div style=""font-size:60px;"">+</div>","null",""
"","","","","","html-button-response","52","120495","0.0-3.0-1.24","65","1","2023-06-02 17:30:53","a806436d73fb3c2fb9db1ebeb6e0a607","204.242.0.193","Mozilla/5.0 (Windows NT 10.0; Win64; x64) AppleWebKit/537.36 (KHTML, like Gecko) Chrome/116.0.0.0 Safari/537.36","WebKit","Chrome","116.0.0.0","Windows","10.0","983","<p>As the military commander, you could choose to launch a missile to kill <strong>8 enemy soldiers</strong> , but would accidentally kill <strong>1 enemy civilian</strong> nearby.</p> <p>The photo of the <strong>enemy civilian</strong> is shown below.</p> <p></p> <img src='stimuli/faces/NFF2.jpg', style='max-width: 30%;'> </img> <p><strong>Would you launch the weapon?</strong></p>","0",""
"","","","","","html-keyboard-response","53","121497","0.0-3.0-0.25","65","1","2023-06-02 17:30:53","a806436d73fb3c2fb9db1ebeb6e0a607","204.242.0.193","Mozilla/5.0 (Windows NT 10.0; Win64; x64) AppleWebKit/537.36 (KHTML, like Gecko) Chrome/116.0.0.0 Safari/537.36","WebKit","Chrome","116.0.0.0","Windows","10.0","null","<div style=""font-size:60px;"">+</div>","null",""
"","","","","","html-button-response","54","122467","0.0-3.0-1.25","65","1","2023-06-02 17:30:53","a806436d73fb3c2fb9db1ebeb6e0a607","204.242.0.193","Mozilla/5.0 (Windows NT 10.0; Win64; x64) AppleWebKit/537.36 (KHTML, like Gecko) Chrome/116.0.0.0 Safari/537.36","WebKit","Chrome","116.0.0.0","Windows","10.0","968","<p>As the military commander, you could choose to launch a missile to kill <strong>3 enemy soldiers</strong> , but would accidentally kill <strong>1 enemy civilian</strong> nearby.</p> <p>The photo of the <strong>enemy civilian</strong> is shown below.</p> <p></p> <img src='stimuli/faces/NFF4.jpg', style='max-width: 30%;'> </img> <p><strong>Would you launch the weapon?</strong></p>","0",""
"","","","","","html-keyboard-response","55","123471","0.0-3.0-0.26","65","1","2023-06-02 17:30:53","a806436d73fb3c2fb9db1ebeb6e0a607","204.242.0.193","Mozilla/5.0 (Windows NT 10.0; Win64; x64) AppleWebKit/537.36 (KHTML, like Gecko) Chrome/116.0.0.0 Safari/537.36","WebKit","Chrome","116.0.0.0","Windows","10.0","null","<div style=""font-size:60px;"">+</div>","null",""
"","","","","","html-button-response","56","131204","0.0-3.0-1.26","65","1","2023-06-02 17:30:53","a806436d73fb3c2fb9db1ebeb6e0a607","204.242.0.193","Mozilla/5.0 (Windows NT 10.0; Win64; x64) AppleWebKit/537.36 (KHTML, like Gecko) Chrome/116.0.0.0 Safari/537.36","WebKit","Chrome","116.0.0.0","Windows","10.0","7730","<p>As the military commander, you could choose to launch a missile to kill <strong>9 enemy soldiers</strong> , but would accidentally kill <strong>1 enemy tree</strong> nearby.</p> <p>The photo of the <strong>enemy tree</strong> is shown below.</p> <p></p> <img src='stimuli/tree/3.png', style='max-width: 30%;'> </img> <p><strong>Would you launch the weapon?</strong></p>","0",""
"","","","","","html-keyboard-response","57","132205","0.0-3.0-0.27","65","1","2023-06-02 17:30:53","a806436d73fb3c2fb9db1ebeb6e0a607","204.242.0.193","Mozilla/5.0 (Windows NT 10.0; Win64; x64) AppleWebKit/537.36 (KHTML, like Gecko) Chrome/116.0.0.0 Safari/537.36","WebKit","Chrome","116.0.0.0","Windows","10.0","null","<div style=""font-size:60px;"">+</div>","null",""
"","","","","","html-button-response","58","133163","0.0-3.0-1.27","65","1","2023-06-02 17:30:53","a806436d73fb3c2fb9db1ebeb6e0a607","204.242.0.193","Mozilla/5.0 (Windows NT 10.0; Win64; x64) AppleWebKit/537.36 (KHTML, like Gecko) Chrome/116.0.0.0 Safari/537.36","WebKit","Chrome","116.0.0.0","Windows","10.0","955","<p>As the military commander, you could choose to launch a missile to kill <strong>9 enemy soldiers</strong> , but would accidentally kill <strong>1 enemy civilian</strong> nearby.</p> <p>The photo of the <strong>enemy civilian</strong> is shown below.</p> <p></p> <img src='stimuli/faces/NFF1.jpg', style='max-width: 30%;'> </img> <p><strong>Would you launch the weapon?</strong></p>","0",""
"","","","","","html-keyboard-response","59","134167","0.0-3.0-0.28","65","1","2023-06-02 17:30:53","a806436d73fb3c2fb9db1ebeb6e0a607","204.242.0.193","Mozilla/5.0 (Windows NT 10.0; Win64; x64) AppleWebKit/537.36 (KHTML, like Gecko) Chrome/116.0.0.0 Safari/537.36","WebKit","Chrome","116.0.0.0","Windows","10.0","null","<div style=""font-size:60px;"">+</div>","null",""
"","","","","","html-button-response","60","135167","0.0-3.0-1.28","65","1","2023-06-02 17:30:53","a806436d73fb3c2fb9db1ebeb6e0a607","204.242.0.193","Mozilla/5.0 (Windows NT 10.0; Win64; x64) AppleWebKit/537.36 (KHTML, like Gecko) Chrome/116.0.0.0 Safari/537.36","WebKit","Chrome","116.0.0.0","Windows","10.0","996","<p>As the military commander, you could choose to launch a missile to kill <strong>2 enemy soldiers</strong> , but would accidentally kill <strong>1 enemy tree</strong> nearby.</p> <p>The photo of the <strong>enemy tree</strong> is shown below.</p> <p></p> <img src='stimuli/tree/13.png', style='max-width: 30%;'> </img> <p><strong>Would you launch the weapon?</strong></p>","0",""
"","","","","","html-keyboard-response","61","136171","0.0-3.0-0.29","65","1","2023-06-02 17:30:53","a806436d73fb3c2fb9db1ebeb6e0a607","204.242.0.193","Mozilla/5.0 (Windows NT 10.0; Win64; x64) AppleWebKit/537.36 (KHTML, like Gecko) Chrome/116.0.0.0 Safari/537.36","WebKit","Chrome","116.0.0.0","Windows","10.0","null","<div style=""font-size:60px;"">+</div>","null",""
"","","","","","html-button-response","62","137315","0.0-3.0-1.29","65","1","2023-06-02 17:30:53","a806436d73fb3c2fb9db1ebeb6e0a607","204.242.0.193","Mozilla/5.0 (Windows NT 10.0; Win64; x64) AppleWebKit/537.36 (KHTML, like Gecko) Chrome/116.0.0.0 Safari/537.36","WebKit","Chrome","116.0.0.0","Windows","10.0","1141","<p>As the military commander, you could choose to launch a missile to kill <strong>7 enemy soldiers</strong> , but would accidentally kill <strong>1 enemy civilian</strong> nearby.</p> <p>The photo of the <strong>enemy civilian</strong> is shown below.</p> <p></p> <img src='stimuli/faces/NFM8.jpg', style='max-width: 30%;'> </img> <p><strong>Would you launch the weapon?</strong></p>","0",""
"","","","","","html-keyboard-response","63","138318","0.0-3.0-0.30","65","1","2023-06-02 17:30:53","a806436d73fb3c2fb9db1ebeb6e0a607","204.242.0.193","Mozilla/5.0 (Windows NT 10.0; Win64; x64) AppleWebKit/537.36 (KHTML, like Gecko) Chrome/116.0.0.0 Safari/537.36","WebKit","Chrome","116.0.0.0","Windows","10.0","null","<div style=""font-size:60px;"">+</div>","null",""
"","","","","","html-button-response","64","139496","0.0-3.0-1.30","65","1","2023-06-02 17:30:53","a806436d73fb3c2fb9db1ebeb6e0a607","204.242.0.193","Mozilla/5.0 (Windows NT 10.0; Win64; x64) AppleWebKit/537.36 (KHTML, like Gecko) Chrome/116.0.0.0 Safari/537.36","WebKit","Chrome","116.0.0.0","Windows","10.0","1173","<p>As the military commander, you could choose to launch a missile to kill <strong>10 enemy soldiers</strong> , but would accidentally kill <strong>1 enemy civilian</strong> nearby.</p> <p>The photo of the <strong>enemy civilian</strong> is shown below.</p> <p></p> <img src='stimuli/faces/NFM7.jpg', style='max-width: 30%;'> </img> <p><strong>Would you launch the weapon?</strong></p>","0",""
"","","","","","html-keyboard-response","65","140498","0.0-3.0-0.31","65","1","2023-06-02 17:30:53","a806436d73fb3c2fb9db1ebeb6e0a607","204.242.0.193","Mozilla/5.0 (Windows NT 10.0; Win64; x64) AppleWebKit/537.36 (KHTML, like Gecko) Chrome/116.0.0.0 Safari/537.36","WebKit","Chrome","116.0.0.0","Windows","10.0","null","<div style=""font-size:60px;"">+</div>","null",""
"","","","","","html-button-response","66","141336","0.0-3.0-1.31","65","1","2023-06-02 17:30:53","a806436d73fb3c2fb9db1ebeb6e0a607","204.242.0.193","Mozilla/5.0 (Windows NT 10.0; Win64; x64) AppleWebKit/537.36 (KHTML, like Gecko) Chrome/116.0.0.0 Safari/537.36","WebKit","Chrome","116.0.0.0","Windows","10.0","834","<p>As the military commander, you could choose to launch a missile to kill <strong>9 enemy soldiers</strong> , but would accidentally kill <strong>1 enemy civilian</strong> nearby.</p> <p>The photo of the <strong>enemy civilian</strong> is shown below.</p> <p></p> <img src='stimuli/faces/NFM2.jpg', style='max-width: 30%;'> </img> <p><strong>Would you launch the weapon?</strong></p>","0",""
"","","","","","html-keyboard-response","67","142339","0.0-3.0-0.32","65","1","2023-06-02 17:30:53","a806436d73fb3c2fb9db1ebeb6e0a607","204.242.0.193","Mozilla/5.0 (Windows NT 10.0; Win64; x64) AppleWebKit/537.36 (KHTML, like Gecko) Chrome/116.0.0.0 Safari/537.36","WebKit","Chrome","116.0.0.0","Windows","10.0","null","<div style=""font-size:60px;"">+</div>","null",""
"","","","","","html-button-response","68","144152","0.0-3.0-1.32","65","1","2023-06-02 17:30:53","a806436d73fb3c2fb9db1ebeb6e0a607","204.242.0.193","Mozilla/5.0 (Windows NT 10.0; Win64; x64) AppleWebKit/537.36 (KHTML, like Gecko) Chrome/116.0.0.0 Safari/537.36","WebKit","Chrome","116.0.0.0","Windows","10.0","1809","<p>As the military commander, you could choose to launch a missile to kill <strong>2 enemy soldiers</strong> , but would accidentally kill <strong>1 enemy tree</strong> nearby.</p> <p>The photo of the <strong>enemy tree</strong> is shown below.</p> <p></p> <img src='stimuli/tree/9.png', style='max-width: 30%;'> </img> <p><strong>Would you launch the weapon?</strong></p>","0",""
"","","","","","html-keyboard-response","69","145156","0.0-3.0-0.33","65","1","2023-06-02 17:30:53","a806436d73fb3c2fb9db1ebeb6e0a607","204.242.0.193","Mozilla/5.0 (Windows NT 10.0; Win64; x64) AppleWebKit/537.36 (KHTML, like Gecko) Chrome/116.0.0.0 Safari/537.36","WebKit","Chrome","116.0.0.0","Windows","10.0","null","<div style=""font-size:60px;"">+</div>","null",""
"","","","","","html-button-response","70","146743","0.0-3.0-1.33","65","1","2023-06-02 17:30:53","a806436d73fb3c2fb9db1ebeb6e0a607","204.242.0.193","Mozilla/5.0 (Windows NT 10.0; Win64; x64) AppleWebKit/537.36 (KHTML, like Gecko) Chrome/116.0.0.0 Safari/537.36","WebKit","Chrome","116.0.0.0","Windows","10.0","1584","<p>As the military commander, you could choose to launch a missile to kill <strong>7 enemy soldiers</strong> , but would accidentally kill <strong>1 enemy tree</strong> nearby.</p> <p>The photo of the <strong>enemy tree</strong> is shown below.</p> <p></p> <img src='stimuli/tree/13.png', style='max-width: 30%;'> </img> <p><strong>Would you launch the weapon?</strong></p>","0",""
"","","","","","html-keyboard-response","71","147748","0.0-3.0-0.34","65","1","2023-06-02 17:30:53","a806436d73fb3c2fb9db1ebeb6e0a607","204.242.0.193","Mozilla/5.0 (Windows NT 10.0; Win64; x64) AppleWebKit/537.36 (KHTML, like Gecko) Chrome/116.0.0.0 Safari/537.36","WebKit","Chrome","116.0.0.0","Windows","10.0","null","<div style=""font-size:60px;"">+</div>","null",""
"","","","","","html-button-response","72","148688","0.0-3.0-1.34","65","1","2023-06-02 17:30:53","a806436d73fb3c2fb9db1ebeb6e0a607","204.242.0.193","Mozilla/5.0 (Windows NT 10.0; Win64; x64) AppleWebKit/537.36 (KHTML, like Gecko) Chrome/116.0.0.0 Safari/537.36","WebKit","Chrome","116.0.0.0","Windows","10.0","937","<p>As the military commander, you could choose to launch a missile to kill <strong>6 enemy soldiers</strong> , but would accidentally kill <strong>1 enemy tree</strong> nearby.</p> <p>The photo of the <strong>enemy tree</strong> is shown below.</p> <p></p> <img src='stimuli/tree/8.png', style='max-width: 30%;'> </img> <p><strong>Would you launch the weapon?</strong></p>","0",""
"","","","","","html-keyboard-response","73","149689","0.0-3.0-0.35","65","1","2023-06-02 17:30:53","a806436d73fb3c2fb9db1ebeb6e0a607","204.242.0.193","Mozilla/5.0 (Windows NT 10.0; Win64; x64) AppleWebKit/537.36 (KHTML, like Gecko) Chrome/116.0.0.0 Safari/537.36","WebKit","Chrome","116.0.0.0","Windows","10.0","null","<div style=""font-size:60px;"">+</div>","null",""
"","","","","","html-button-response","74","150276","0.0-3.0-1.35","65","1","2023-06-02 17:30:53","a806436d73fb3c2fb9db1ebeb6e0a607","204.242.0.193","Mozilla/5.0 (Windows NT 10.0; Win64; x64) AppleWebKit/537.36 (KHTML, like Gecko) Chrome/116.0.0.0 Safari/537.36","WebKit","Chrome","116.0.0.0","Windows","10.0","583","<p>As the military commander, you could choose to launch a missile to kill <strong>4 enemy soldiers</strong> , but would accidentally kill <strong>1 enemy tree</strong> nearby.</p> <p>The photo of the <strong>enemy tree</strong> is shown below.</p> <p></p> <img src='stimuli/tree/4.png', style='max-width: 30%;'> </img> <p><strong>Would you launch the weapon?</strong></p>","0",""
"","","","","","html-keyboard-response","75","151278","0.0-3.0-0.36","65","1","2023-06-02 17:30:53","a806436d73fb3c2fb9db1ebeb6e0a607","204.242.0.193","Mozilla/5.0 (Windows NT 10.0; Win64; x64) AppleWebKit/537.36 (KHTML, like Gecko) Chrome/116.0.0.0 Safari/537.36","WebKit","Chrome","116.0.0.0","Windows","10.0","null","<div style=""font-size:60px;"">+</div>","null",""
"","","","","","html-button-response","76","152284","0.0-3.0-1.36","65","1","2023-06-02 17:30:53","a806436d73fb3c2fb9db1ebeb6e0a607","204.242.0.193","Mozilla/5.0 (Windows NT 10.0; Win64; x64) AppleWebKit/537.36 (KHTML, like Gecko) Chrome/116.0.0.0 Safari/537.36","WebKit","Chrome","116.0.0.0","Windows","10.0","1002","<p>As the military commander, you could choose to launch a missile to kill <strong>9 enemy soldiers</strong> , but would accidentally kill <strong>1 enemy tree</strong> nearby.</p> <p>The photo of the <strong>enemy tree</strong> is shown below.</p> <p></p> <img src='stimuli/tree/4.png', style='max-width: 30%;'> </img> <p><strong>Would you launch the weapon?</strong></p>","0",""
"","","","","","html-keyboard-response","77","153288","0.0-3.0-0.37","65","1","2023-06-02 17:30:53","a806436d73fb3c2fb9db1ebeb6e0a607","204.242.0.193","Mozilla/5.0 (Windows NT 10.0; Win64; x64) AppleWebKit/537.36 (KHTML, like Gecko) Chrome/116.0.0.0 Safari/537.36","WebKit","Chrome","116.0.0.0","Windows","10.0","null","<div style=""font-size:60px;"">+</div>","null",""
"","","","","","html-button-response","78","154099","0.0-3.0-1.37","65","1","2023-06-02 17:30:53","a806436d73fb3c2fb9db1ebeb6e0a607","204.242.0.193","Mozilla/5.0 (Windows NT 10.0; Win64; x64) AppleWebKit/537.36 (KHTML, like Gecko) Chrome/116.0.0.0 Safari/537.36","WebKit","Chrome","116.0.0.0","Windows","10.0","808","<p>As the military commander, you could choose to launch a missile to kill <strong>7 enemy soldiers</strong> , but would accidentally kill <strong>1 enemy tree</strong> nearby.</p> <p>The photo of the <strong>enemy tree</strong> is shown below.</p> <p></p> <img src='stimuli/tree/1.png', style='max-width: 30%;'> </img> <p><strong>Would you launch the weapon?</strong></p>","0",""
"","","","","","html-keyboard-response","79","155102","0.0-3.0-0.38","65","1","2023-06-02 17:30:53","a806436d73fb3c2fb9db1ebeb6e0a607","204.242.0.193","Mozilla/5.0 (Windows NT 10.0; Win64; x64) AppleWebKit/537.36 (KHTML, like Gecko) Chrome/116.0.0.0 Safari/537.36","WebKit","Chrome","116.0.0.0","Windows","10.0","null","<div style=""font-size:60px;"">+</div>","null",""
"","","","","","html-button-response","80","156199","0.0-3.0-1.38","65","1","2023-06-02 17:30:53","a806436d73fb3c2fb9db1ebeb6e0a607","204.242.0.193","Mozilla/5.0 (Windows NT 10.0; Win64; x64) AppleWebKit/537.36 (KHTML, like Gecko) Chrome/116.0.0.0 Safari/537.36","WebKit","Chrome","116.0.0.0","Windows","10.0","1094","<p>As the military commander, you could choose to launch a missile to kill <strong>1 enemy soldier</strong> , but would accidentally kill <strong>1 enemy civilian</strong> nearby.</p> <p>The photo of the <strong>enemy civilian</strong> is shown below.</p> <p></p> <img src='stimuli/faces/NFM3.jpg', style='max-width: 30%;'> </img> <p><strong>Would you launch the weapon?</strong></p>","0",""
"","","","","","html-keyboard-response","81","157201","0.0-3.0-0.39","65","1","2023-06-02 17:30:53","a806436d73fb3c2fb9db1ebeb6e0a607","204.242.0.193","Mozilla/5.0 (Windows NT 10.0; Win64; x64) AppleWebKit/537.36 (KHTML, like Gecko) Chrome/116.0.0.0 Safari/537.36","WebKit","Chrome","116.0.0.0","Windows","10.0","null","<div style=""font-size:60px;"">+</div>","null",""
"","","","","","html-button-response","82","158376","0.0-3.0-1.39","65","1","2023-06-02 17:30:53","a806436d73fb3c2fb9db1ebeb6e0a607","204.242.0.193","Mozilla/5.0 (Windows NT 10.0; Win64; x64) AppleWebKit/537.36 (KHTML, like Gecko) Chrome/116.0.0.0 Safari/537.36","WebKit","Chrome","116.0.0.0","Windows","10.0","1171","<p>As the military commander, you could choose to launch a missile to kill <strong>10 enemy soldiers</strong> , but would accidentally kill <strong>1 enemy tree</strong> nearby.</p> <p>The photo of the <strong>enemy tree</strong> is shown below.</p> <p></p> <img src='stimuli/tree/15.png', style='max-width: 30%;'> </img> <p><strong>Would you launch the weapon?</strong></p>","0",""
"","","","","","html-keyboard-response","83","159379","0.0-3.0-0.40","65","1","2023-06-02 17:30:53","a806436d73fb3c2fb9db1ebeb6e0a607","204.242.0.193","Mozilla/5.0 (Windows NT 10.0; Win64; x64) AppleWebKit/537.36 (KHTML, like Gecko) Chrome/116.0.0.0 Safari/537.36","WebKit","Chrome","116.0.0.0","Windows","10.0","null","<div style=""font-size:60px;"">+</div>","null",""
"","","","","","html-button-response","84","175016","0.0-3.0-1.40","65","1","2023-06-02 17:30:53","a806436d73fb3c2fb9db1ebeb6e0a607","204.242.0.193","Mozilla/5.0 (Windows NT 10.0; Win64; x64) AppleWebKit/537.36 (KHTML, like Gecko) Chrome/116.0.0.0 Safari/537.36","WebKit","Chrome","116.0.0.0","Windows","10.0","15633","<p>As the military commander, you could choose to launch a missile to kill <strong>4 enemy soldiers</strong> , but would accidentally kill <strong>1 enemy civilian</strong> nearby.</p> <p>The photo of the <strong>enemy civilian</strong> is shown below.</p> <p></p> <img src='stimuli/faces/NFM4.jpg', style='max-width: 30%;'> </img> <p><strong>Would you launch the weapon?</strong></p>","0",""
"","","","","","html-keyboard-response","85","176019","0.0-3.0-0.41","65","1","2023-06-02 17:30:53","a806436d73fb3c2fb9db1ebeb6e0a607","204.242.0.193","Mozilla/5.0 (Windows NT 10.0; Win64; x64) AppleWebKit/537.36 (KHTML, like Gecko) Chrome/116.0.0.0 Safari/537.36","WebKit","Chrome","116.0.0.0","Windows","10.0","null","<div style=""font-size:60px;"">+</div>","null",""
"","","","","","html-button-response","86","177036","0.0-3.0-1.41","65","1","2023-06-02 17:30:53","a806436d73fb3c2fb9db1ebeb6e0a607","204.242.0.193","Mozilla/5.0 (Windows NT 10.0; Win64; x64) AppleWebKit/537.36 (KHTML, like Gecko) Chrome/116.0.0.0 Safari/537.36","WebKit","Chrome","116.0.0.0","Windows","10.0","1013","<p>As the military commander, you could choose to launch a missile to kill <strong>5 enemy soldiers</strong> , but would accidentally kill <strong>1 enemy civilian</strong> nearby.</p> <p>The photo of the <strong>enemy civilian</strong> is shown below.</p> <p></p> <img src='stimuli/faces/NFF7.jpg', style='max-width: 30%;'> </img> <p><strong>Would you launch the weapon?</strong></p>","0",""
"","","","","","html-keyboard-response","87","178039","0.0-3.0-0.42","65","1","2023-06-02 17:30:53","a806436d73fb3c2fb9db1ebeb6e0a607","204.242.0.193","Mozilla/5.0 (Windows NT 10.0; Win64; x64) AppleWebKit/537.36 (KHTML, like Gecko) Chrome/116.0.0.0 Safari/537.36","WebKit","Chrome","116.0.0.0","Windows","10.0","null","<div style=""font-size:60px;"">+</div>","null",""
"","","","","","html-button-response","88","178941","0.0-3.0-1.42","65","1","2023-06-02 17:30:53","a806436d73fb3c2fb9db1ebeb6e0a607","204.242.0.193","Mozilla/5.0 (Windows NT 10.0; Win64; x64) AppleWebKit/537.36 (KHTML, like Gecko) Chrome/116.0.0.0 Safari/537.36","WebKit","Chrome","116.0.0.0","Windows","10.0","898","<p>As the military commander, you could choose to launch a missile to kill <strong>1 enemy soldier</strong> , but would accidentally kill <strong>1 enemy civilian</strong> nearby.</p> <p>The photo of the <strong>enemy civilian</strong> is shown below.</p> <p></p> <img src='stimuli/faces/NFM2.jpg', style='max-width: 30%;'> </img> <p><strong>Would you launch the weapon?</strong></p>","0",""
"","","","","","html-keyboard-response","89","179944","0.0-3.0-0.43","65","1","2023-06-02 17:30:53","a806436d73fb3c2fb9db1ebeb6e0a607","204.242.0.193","Mozilla/5.0 (Windows NT 10.0; Win64; x64) AppleWebKit/537.36 (KHTML, like Gecko) Chrome/116.0.0.0 Safari/537.36","WebKit","Chrome","116.0.0.0","Windows","10.0","null","<div style=""font-size:60px;"">+</div>","null",""
"","","","","","html-button-response","90","183924","0.0-3.0-1.43","65","1","2023-06-02 17:30:53","a806436d73fb3c2fb9db1ebeb6e0a607","204.242.0.193","Mozilla/5.0 (Windows NT 10.0; Win64; x64) AppleWebKit/537.36 (KHTML, like Gecko) Chrome/116.0.0.0 Safari/537.36","WebKit","Chrome","116.0.0.0","Windows","10.0","3975","<p>As the military commander, you could choose to launch a missile to kill <strong>7 enemy soldiers</strong> , but would accidentally kill <strong>1 enemy civilian</strong> nearby.</p> <p>The photo of the <strong>enemy civilian</strong> is shown below.</p> <p></p> <img src='stimuli/faces/NFF6.jpg', style='max-width: 30%;'> </img> <p><strong>Would you launch the weapon?</strong></p>","0",""
"","","","","","html-keyboard-response","91","184928","0.0-3.0-0.44","65","1","2023-06-02 17:30:53","a806436d73fb3c2fb9db1ebeb6e0a607","204.242.0.193","Mozilla/5.0 (Windows NT 10.0; Win64; x64) AppleWebKit/537.36 (KHTML, like Gecko) Chrome/116.0.0.0 Safari/537.36","WebKit","Chrome","116.0.0.0","Windows","10.0","null","<div style=""font-size:60px;"">+</div>","null",""
"","","","","","html-button-response","92","185908","0.0-3.0-1.44","65","1","2023-06-02 17:30:53","a806436d73fb3c2fb9db1ebeb6e0a607","204.242.0.193","Mozilla/5.0 (Windows NT 10.0; Win64; x64) AppleWebKit/537.36 (KHTML, like Gecko) Chrome/116.0.0.0 Safari/537.36","WebKit","Chrome","116.0.0.0","Windows","10.0","976","<p>As the military commander, you could choose to launch a missile to kill <strong>2 enemy soldiers</strong> , but would accidentally kill <strong>1 enemy tree</strong> nearby.</p> <p>The photo of the <strong>enemy tree</strong> is shown below.</p> <p></p> <img src='stimuli/tree/2.png', style='max-width: 30%;'> </img> <p><strong>Would you launch the weapon?</strong></p>","0",""
"","","","","","html-keyboard-response","93","186912","0.0-3.0-0.45","65","1","2023-06-02 17:30:53","a806436d73fb3c2fb9db1ebeb6e0a607","204.242.0.193","Mozilla/5.0 (Windows NT 10.0; Win64; x64) AppleWebKit/537.36 (KHTML, like Gecko) Chrome/116.0.0.0 Safari/537.36","WebKit","Chrome","116.0.0.0","Windows","10.0","null","<div style=""font-size:60px;"">+</div>","null",""
"","","","","","html-button-response","94","192331","0.0-3.0-1.45","65","1","2023-06-02 17:30:53","a806436d73fb3c2fb9db1ebeb6e0a607","204.242.0.193","Mozilla/5.0 (Windows NT 10.0; Win64; x64) AppleWebKit/537.36 (KHTML, like Gecko) Chrome/116.0.0.0 Safari/537.36","WebKit","Chrome","116.0.0.0","Windows","10.0","5415","<p>As the military commander, you could choose to launch a missile to kill <strong>5 enemy soldiers</strong> , but would accidentally kill <strong>1 enemy tree</strong> nearby.</p> <p>The photo of the <strong>enemy tree</strong> is shown below.</p> <p></p> <img src='stimuli/tree/11.png', style='max-width: 30%;'> </img> <p><strong>Would you launch the weapon?</strong></p>","0",""
"","","","","","html-keyboard-response","95","193335","0.0-3.0-0.46","65","1","2023-06-02 17:30:53","a806436d73fb3c2fb9db1ebeb6e0a607","204.242.0.193","Mozilla/5.0 (Windows NT 10.0; Win64; x64) AppleWebKit/537.36 (KHTML, like Gecko) Chrome/116.0.0.0 Safari/537.36","WebKit","Chrome","116.0.0.0","Windows","10.0","null","<div style=""font-size:60px;"">+</div>","null",""
"","","","","","html-button-response","96","194399","0.0-3.0-1.46","65","1","2023-06-02 17:30:53","a806436d73fb3c2fb9db1ebeb6e0a607","204.242.0.193","Mozilla/5.0 (Windows NT 10.0; Win64; x64) AppleWebKit/537.36 (KHTML, like Gecko) Chrome/116.0.0.0 Safari/537.36","WebKit","Chrome","116.0.0.0","Windows","10.0","1061","<p>As the military commander, you could choose to launch a missile to kill <strong>8 enemy soldiers</strong> , but would accidentally kill <strong>1 enemy tree</strong> nearby.</p> <p>The photo of the <strong>enemy tree</strong> is shown below.</p> <p></p> <img src='stimuli/tree/9.png', style='max-width: 30%;'> </img> <p><strong>Would you launch the weapon?</strong></p>","0",""
"","","","","","html-keyboard-response","97","195405","0.0-3.0-0.47","65","1","2023-06-02 17:30:53","a806436d73fb3c2fb9db1ebeb6e0a607","204.242.0.193","Mozilla/5.0 (Windows NT 10.0; Win64; x64) AppleWebKit/537.36 (KHTML, like Gecko) Chrome/116.0.0.0 Safari/537.36","WebKit","Chrome","116.0.0.0","Windows","10.0","null","<div style=""font-size:60px;"">+</div>","null",""
"","","","","","html-button-response","98","203928","0.0-3.0-1.47","65","1","2023-06-02 17:30:53","a806436d73fb3c2fb9db1ebeb6e0a607","204.242.0.193","Mozilla/5.0 (Windows NT 10.0; Win64; x64) AppleWebKit/537.36 (KHTML, like Gecko) Chrome/116.0.0.0 Safari/537.36","WebKit","Chrome","116.0.0.0","Windows","10.0","8519","<p>As the military commander, you could choose to launch a missile to kill <strong>8 enemy soldiers</strong> , but would accidentally kill <strong>1 enemy civilian</strong> nearby.</p> <p>The photo of the <strong>enemy civilian</strong> is shown below.</p> <p></p> <img src='stimuli/faces/NFM5.jpg', style='max-width: 30%;'> </img> <p><strong>Would you launch the weapon?</strong></p>","0",""
"","","","","","html-keyboard-response","99","204934","0.0-3.0-0.48","65","1","2023-06-02 17:30:53","a806436d73fb3c2fb9db1ebeb6e0a607","204.242.0.193","Mozilla/5.0 (Windows NT 10.0; Win64; x64) AppleWebKit/537.36 (KHTML, like Gecko) Chrome/116.0.0.0 Safari/537.36","WebKit","Chrome","116.0.0.0","Windows","10.0","null","<div style=""font-size:60px;"">+</div>","null",""
"","","","","","html-button-response","100","206323","0.0-3.0-1.48","65","1","2023-06-02 17:30:53","a806436d73fb3c2fb9db1ebeb6e0a607","204.242.0.193","Mozilla/5.0 (Windows NT 10.0; Win64; x64) AppleWebKit/537.36 (KHTML, like Gecko) Chrome/116.0.0.0 Safari/537.36","WebKit","Chrome","116.0.0.0","Windows","10.0","1384","<p>As the military commander, you could choose to launch a missile to kill <strong>10 enemy soldiers</strong> , but would accidentally kill <strong>1 enemy civilian</strong> nearby.</p> <p>The photo of the <strong>enemy civilian</strong> is shown below.</p> <p></p> <img src='stimuli/faces/NFM4.jpg', style='max-width: 30%;'> </img> <p><strong>Would you launch the weapon?</strong></p>","0",""
"","","","","","html-keyboard-response","101","207327","0.0-3.0-0.49","65","1","2023-06-02 17:30:53","a806436d73fb3c2fb9db1ebeb6e0a607","204.242.0.193","Mozilla/5.0 (Windows NT 10.0; Win64; x64) AppleWebKit/537.36 (KHTML, like Gecko) Chrome/116.0.0.0 Safari/537.36","WebKit","Chrome","116.0.0.0","Windows","10.0","null","<div style=""font-size:60px;"">+</div>","null",""
"","","","","","html-button-response","102","208387","0.0-3.0-1.49","65","1","2023-06-02 17:30:53","a806436d73fb3c2fb9db1ebeb6e0a607","204.242.0.193","Mozilla/5.0 (Windows NT 10.0; Win64; x64) AppleWebKit/537.36 (KHTML, like Gecko) Chrome/116.0.0.0 Safari/537.36","WebKit","Chrome","116.0.0.0","Windows","10.0","1055","<p>As the military commander, you could choose to launch a missile to kill <strong>4 enemy soldiers</strong> , but would accidentally kill <strong>1 enemy civilian</strong> nearby.</p> <p>The photo of the <strong>enemy civilian</strong> is shown below.</p> <p></p> <img src='stimuli/faces/NFF8.jpg', style='max-width: 30%;'> </img> <p><strong>Would you launch the weapon?</strong></p>","0",""
"","","","","","html-keyboard-response","103","209392","0.0-3.0-0.50","65","1","2023-06-02 17:30:53","a806436d73fb3c2fb9db1ebeb6e0a607","204.242.0.193","Mozilla/5.0 (Windows NT 10.0; Win64; x64) AppleWebKit/537.36 (KHTML, like Gecko) Chrome/116.0.0.0 Safari/537.36","WebKit","Chrome","116.0.0.0","Windows","10.0","null","<div style=""font-size:60px;"">+</div>","null",""
"","","","","","html-button-response","104","210235","0.0-3.0-1.50","65","1","2023-06-02 17:30:53","a806436d73fb3c2fb9db1ebeb6e0a607","204.242.0.193","Mozilla/5.0 (Windows NT 10.0; Win64; x64) AppleWebKit/537.36 (KHTML, like Gecko) Chrome/116.0.0.0 Safari/537.36","WebKit","Chrome","116.0.0.0","Windows","10.0","840","<p>As the military commander, you could choose to launch a missile to kill <strong>9 enemy soldiers</strong> , but would accidentally kill <strong>1 enemy tree</strong> nearby.</p> <p>The photo of the <strong>enemy tree</strong> is shown below.</p> <p></p> <img src='stimuli/tree/10.png', style='max-width: 30%;'> </img> <p><strong>Would you launch the weapon?</strong></p>","0",""
"","","","","","html-keyboard-response","105","211239","0.0-3.0-0.51","65","1","2023-06-02 17:30:53","a806436d73fb3c2fb9db1ebeb6e0a607","204.242.0.193","Mozilla/5.0 (Windows NT 10.0; Win64; x64) AppleWebKit/537.36 (KHTML, like Gecko) Chrome/116.0.0.0 Safari/537.36","WebKit","Chrome","116.0.0.0","Windows","10.0","null","<div style=""font-size:60px;"">+</div>","null",""
"","","","","","html-button-response","106","212636","0.0-3.0-1.51","65","1","2023-06-02 17:30:53","a806436d73fb3c2fb9db1ebeb6e0a607","204.242.0.193","Mozilla/5.0 (Windows NT 10.0; Win64; x64) AppleWebKit/537.36 (KHTML, like Gecko) Chrome/116.0.0.0 Safari/537.36","WebKit","Chrome","116.0.0.0","Windows","10.0","1393","<p>As the military commander, you could choose to launch a missile to kill <strong>8 enemy soldiers</strong> , but would accidentally kill <strong>1 enemy civilian</strong> nearby.</p> <p>The photo of the <strong>enemy civilian</strong> is shown below.</p> <p></p> <img src='stimuli/faces/NFF4.jpg', style='max-width: 30%;'> </img> <p><strong>Would you launch the weapon?</strong></p>","0",""
"","","","","","html-keyboard-response","107","213640","0.0-3.0-0.52","65","1","2023-06-02 17:30:53","a806436d73fb3c2fb9db1ebeb6e0a607","204.242.0.193","Mozilla/5.0 (Windows NT 10.0; Win64; x64) AppleWebKit/537.36 (KHTML, like Gecko) Chrome/116.0.0.0 Safari/537.36","WebKit","Chrome","116.0.0.0","Windows","10.0","null","<div style=""font-size:60px;"">+</div>","null",""
"","","","","","html-button-response","108","214635","0.0-3.0-1.52","65","1","2023-06-02 17:30:53","a806436d73fb3c2fb9db1ebeb6e0a607","204.242.0.193","Mozilla/5.0 (Windows NT 10.0; Win64; x64) AppleWebKit/537.36 (KHTML, like Gecko) Chrome/116.0.0.0 Safari/537.36","WebKit","Chrome","116.0.0.0","Windows","10.0","991","<p>As the military commander, you could choose to launch a missile to kill <strong>1 enemy soldier</strong> , but would accidentally kill <strong>1 enemy civilian</strong> nearby.</p> <p>The photo of the <strong>enemy civilian</strong> is shown below.</p> <p></p> <img src='stimuli/faces/NFF3.jpg', style='max-width: 30%;'> </img> <p><strong>Would you launch the weapon?</strong></p>","0",""
"","","","","","html-keyboard-response","109","215638","0.0-3.0-0.53","65","1","2023-06-02 17:30:53","a806436d73fb3c2fb9db1ebeb6e0a607","204.242.0.193","Mozilla/5.0 (Windows NT 10.0; Win64; x64) AppleWebKit/537.36 (KHTML, like Gecko) Chrome/116.0.0.0 Safari/537.36","WebKit","Chrome","116.0.0.0","Windows","10.0","null","<div style=""font-size:60px;"">+</div>","null",""
"","","","","","html-button-response","110","216000","0.0-3.0-1.53","65","1","2023-06-02 17:30:53","a806436d73fb3c2fb9db1ebeb6e0a607","204.242.0.193","Mozilla/5.0 (Windows NT 10.0; Win64; x64) AppleWebKit/537.36 (KHTML, like Gecko) Chrome/116.0.0.0 Safari/537.36","WebKit","Chrome","116.0.0.0","Windows","10.0","359","<p>As the military commander, you could choose to launch a missile to kill <strong>4 enemy soldiers</strong> , but would accidentally kill <strong>1 enemy civilian</strong> nearby.</p> <p>The photo of the <strong>enemy civilian</strong> is shown below.</p> <p></p> <img src='stimuli/faces/NFM1.jpg', style='max-width: 30%;'> </img> <p><strong>Would you launch the weapon?</strong></p>","0",""
"","","","","","html-keyboard-response","111","217004","0.0-3.0-0.54","65","1","2023-06-02 17:30:53","a806436d73fb3c2fb9db1ebeb6e0a607","204.242.0.193","Mozilla/5.0 (Windows NT 10.0; Win64; x64) AppleWebKit/537.36 (KHTML, like Gecko) Chrome/116.0.0.0 Safari/537.36","WebKit","Chrome","116.0.0.0","Windows","10.0","null","<div style=""font-size:60px;"">+</div>","null",""
"","","","","","html-button-response","112","218456","0.0-3.0-1.54","65","1","2023-06-02 17:30:53","a806436d73fb3c2fb9db1ebeb6e0a607","204.242.0.193","Mozilla/5.0 (Windows NT 10.0; Win64; x64) AppleWebKit/537.36 (KHTML, like Gecko) Chrome/116.0.0.0 Safari/537.36","WebKit","Chrome","116.0.0.0","Windows","10.0","1448","<p>As the military commander, you could choose to launch a missile to kill <strong>5 enemy soldiers</strong> , but would accidentally kill <strong>1 enemy tree</strong> nearby.</p> <p>The photo of the <strong>enemy tree</strong> is shown below.</p> <p></p> <img src='stimuli/tree/5.png', style='max-width: 30%;'> </img> <p><strong>Would you launch the weapon?</strong></p>","0",""
"","","","","","html-keyboard-response","113","219458","0.0-3.0-0.55","65","1","2023-06-02 17:30:53","a806436d73fb3c2fb9db1ebeb6e0a607","204.242.0.193","Mozilla/5.0 (Windows NT 10.0; Win64; x64) AppleWebKit/537.36 (KHTML, like Gecko) Chrome/116.0.0.0 Safari/537.36","WebKit","Chrome","116.0.0.0","Windows","10.0","null","<div style=""font-size:60px;"">+</div>","null",""
"","","","","","html-button-response","114","222544","0.0-3.0-1.55","65","1","2023-06-02 17:30:53","a806436d73fb3c2fb9db1ebeb6e0a607","204.242.0.193","Mozilla/5.0 (Windows NT 10.0; Win64; x64) AppleWebKit/537.36 (KHTML, like Gecko) Chrome/116.0.0.0 Safari/537.36","WebKit","Chrome","116.0.0.0","Windows","10.0","3082","<p>As the military commander, you could choose to launch a missile to kill <strong>3 enemy soldiers</strong> , but would accidentally kill <strong>1 enemy civilian</strong> nearby.</p> <p>The photo of the <strong>enemy civilian</strong> is shown below.</p> <p></p> <img src='stimuli/faces/NFF2.jpg', style='max-width: 30%;'> </img> <p><strong>Would you launch the weapon?</strong></p>","0",""
"","","","","","html-keyboard-response","115","223549","0.0-3.0-0.56","65","1","2023-06-02 17:30:53","a806436d73fb3c2fb9db1ebeb6e0a607","204.242.0.193","Mozilla/5.0 (Windows NT 10.0; Win64; x64) AppleWebKit/537.36 (KHTML, like Gecko) Chrome/116.0.0.0 Safari/537.36","WebKit","Chrome","116.0.0.0","Windows","10.0","null","<div style=""font-size:60px;"">+</div>","null",""
"","","","","","html-button-response","116","226080","0.0-3.0-1.56","65","1","2023-06-02 17:30:53","a806436d73fb3c2fb9db1ebeb6e0a607","204.242.0.193","Mozilla/5.0 (Windows NT 10.0; Win64; x64) AppleWebKit/537.36 (KHTML, like Gecko) Chrome/116.0.0.0 Safari/537.36","WebKit","Chrome","116.0.0.0","Windows","10.0","2526","<p>As the military commander, you could choose to launch a missile to kill <strong>2 enemy soldiers</strong> , but would accidentally kill <strong>1 enemy tree</strong> nearby.</p> <p>The photo of the <strong>enemy tree</strong> is shown below.</p> <p></p> <img src='stimuli/tree/10.png', style='max-width: 30%;'> </img> <p><strong>Would you launch the weapon?</strong></p>","0",""
"","","","","","html-keyboard-response","117","227083","0.0-3.0-0.57","65","1","2023-06-02 17:30:53","a806436d73fb3c2fb9db1ebeb6e0a607","204.242.0.193","Mozilla/5.0 (Windows NT 10.0; Win64; x64) AppleWebKit/537.36 (KHTML, like Gecko) Chrome/116.0.0.0 Safari/537.36","WebKit","Chrome","116.0.0.0","Windows","10.0","null","<div style=""font-size:60px;"">+</div>","null",""
"","","","","","html-button-response","118","230127","0.0-3.0-1.57","65","1","2023-06-02 17:30:53","a806436d73fb3c2fb9db1ebeb6e0a607","204.242.0.193","Mozilla/5.0 (Windows NT 10.0; Win64; x64) AppleWebKit/537.36 (KHTML, like Gecko) Chrome/116.0.0.0 Safari/537.36","WebKit","Chrome","116.0.0.0","Windows","10.0","3039","<p>As the military commander, you could choose to launch a missile to kill <strong>1 enemy soldier</strong> , but would accidentally kill <strong>1 enemy civilian</strong> nearby.</p> <p>The photo of the <strong>enemy civilian</strong> is shown below.</p> <p></p> <img src='stimuli/faces/NFF6.jpg', style='max-width: 30%;'> </img> <p><strong>Would you launch the weapon?</strong></p>","0",""
"","","","","","html-keyboard-response","119","231132","0.0-3.0-0.58","65","1","2023-06-02 17:30:53","a806436d73fb3c2fb9db1ebeb6e0a607","204.242.0.193","Mozilla/5.0 (Windows NT 10.0; Win64; x64) AppleWebKit/537.36 (KHTML, like Gecko) Chrome/116.0.0.0 Safari/537.36","WebKit","Chrome","116.0.0.0","Windows","10.0","null","<div style=""font-size:60px;"">+</div>","null",""
"","","","","","html-button-response","120","232155","0.0-3.0-1.58","65","1","2023-06-02 17:30:53","a806436d73fb3c2fb9db1ebeb6e0a607","204.242.0.193","Mozilla/5.0 (Windows NT 10.0; Win64; x64) AppleWebKit/537.36 (KHTML, like Gecko) Chrome/116.0.0.0 Safari/537.36","WebKit","Chrome","116.0.0.0","Windows","10.0","1019","<p>As the military commander, you could choose to launch a missile to kill <strong>5 enemy soldiers</strong> , but would accidentally kill <strong>1 enemy tree</strong> nearby.</p> <p>The photo of the <strong>enemy tree</strong> is shown below.</p> <p></p> <img src='stimuli/tree/6.png', style='max-width: 30%;'> </img> <p><strong>Would you launch the weapon?</strong></p>","0",""
"","","","","","html-keyboard-response","121","233161","0.0-3.0-0.59","65","1","2023-06-02 17:30:53","a806436d73fb3c2fb9db1ebeb6e0a607","204.242.0.193","Mozilla/5.0 (Windows NT 10.0; Win64; x64) AppleWebKit/537.36 (KHTML, like Gecko) Chrome/116.0.0.0 Safari/537.36","WebKit","Chrome","116.0.0.0","Windows","10.0","null","<div style=""font-size:60px;"">+</div>","null",""
"","","","","","html-button-response","122","234275","0.0-3.0-1.59","65","1","2023-06-02 17:30:53","a806436d73fb3c2fb9db1ebeb6e0a607","204.242.0.193","Mozilla/5.0 (Windows NT 10.0; Win64; x64) AppleWebKit/537.36 (KHTML, like Gecko) Chrome/116.0.0.0 Safari/537.36","WebKit","Chrome","116.0.0.0","Windows","10.0","1110","<p>As the military commander, you could choose to launch a missile to kill <strong>8 enemy soldiers</strong> , but would accidentally kill <strong>1 enemy civilian</strong> nearby.</p> <p>The photo of the <strong>enemy civilian</strong> is shown below.</p> <p></p> <img src='stimuli/faces/NFM3.jpg', style='max-width: 30%;'> </img> <p><strong>Would you launch the weapon?</strong></p>","0",""
"","","","","","html-keyboard-response","123","235278","0.0-3.0-0.60","65","1","2023-06-02 17:30:53","a806436d73fb3c2fb9db1ebeb6e0a607","204.242.0.193","Mozilla/5.0 (Windows NT 10.0; Win64; x64) AppleWebKit/537.36 (KHTML, like Gecko) Chrome/116.0.0.0 Safari/537.36","WebKit","Chrome","116.0.0.0","Windows","10.0","null","<div style=""font-size:60px;"">+</div>","null",""
"","","","","","html-button-response","124","251507","0.0-3.0-1.60","65","1","2023-06-02 17:30:53","a806436d73fb3c2fb9db1ebeb6e0a607","204.242.0.193","Mozilla/5.0 (Windows NT 10.0; Win64; x64) AppleWebKit/537.36 (KHTML, like Gecko) Chrome/116.0.0.0 Safari/537.36","WebKit","Chrome","116.0.0.0","Windows","10.0","16225","<p>As the military commander, you could choose to launch a missile to kill <strong>8 enemy soldiers</strong> , but would accidentally kill <strong>1 enemy tree</strong> nearby.</p> <p>The photo of the <strong>enemy tree</strong> is shown below.</p> <p></p> <img src='stimuli/tree/6.png', style='max-width: 30%;'> </img> <p><strong>Would you launch the weapon?</strong></p>","0",""
"","","","","","html-keyboard-response","125","252511","0.0-3.0-0.61","65","1","2023-06-02 17:30:53","a806436d73fb3c2fb9db1ebeb6e0a607","204.242.0.193","Mozilla/5.0 (Windows NT 10.0; Win64; x64) AppleWebKit/537.36 (KHTML, like Gecko) Chrome/116.0.0.0 Safari/537.36","WebKit","Chrome","116.0.0.0","Windows","10.0","null","<div style=""font-size:60px;"">+</div>","null",""
"","","","","","html-button-response","126","253643","0.0-3.0-1.61","65","1","2023-06-02 17:30:53","a806436d73fb3c2fb9db1ebeb6e0a607","204.242.0.193","Mozilla/5.0 (Windows NT 10.0; Win64; x64) AppleWebKit/537.36 (KHTML, like Gecko) Chrome/116.0.0.0 Safari/537.36","WebKit","Chrome","116.0.0.0","Windows","10.0","1126","<p>As the military commander, you could choose to launch a missile to kill <strong>3 enemy soldiers</strong> , but would accidentally kill <strong>1 enemy civilian</strong> nearby.</p> <p>The photo of the <strong>enemy civilian</strong> is shown below.</p> <p></p> <img src='stimuli/faces/NFF1.jpg', style='max-width: 30%;'> </img> <p><strong>Would you launch the weapon?</strong></p>","0",""
"","","","","","html-keyboard-response","127","254648","0.0-3.0-0.62","65","1","2023-06-02 17:30:53","a806436d73fb3c2fb9db1ebeb6e0a607","204.242.0.193","Mozilla/5.0 (Windows NT 10.0; Win64; x64) AppleWebKit/537.36 (KHTML, like Gecko) Chrome/116.0.0.0 Safari/537.36","WebKit","Chrome","116.0.0.0","Windows","10.0","null","<div style=""font-size:60px;"">+</div>","null",""
"","","","","","html-button-response","128","259234","0.0-3.0-1.62","65","1","2023-06-02 17:30:53","a806436d73fb3c2fb9db1ebeb6e0a607","204.242.0.193","Mozilla/5.0 (Windows NT 10.0; Win64; x64) AppleWebKit/537.36 (KHTML, like Gecko) Chrome/116.0.0.0 Safari/537.36","WebKit","Chrome","116.0.0.0","Windows","10.0","4580","<p>As the military commander, you could choose to launch a missile to kill <strong>9 enemy soldiers</strong> , but would accidentally kill <strong>1 enemy tree</strong> nearby.</p> <p>The photo of the <strong>enemy tree</strong> is shown below.</p> <p></p> <img src='stimuli/tree/5.png', style='max-width: 30%;'> </img> <p><strong>Would you launch the weapon?</strong></p>","0",""
"","","","","","html-keyboard-response","129","260238","0.0-3.0-0.63","65","1","2023-06-02 17:30:53","a806436d73fb3c2fb9db1ebeb6e0a607","204.242.0.193","Mozilla/5.0 (Windows NT 10.0; Win64; x64) AppleWebKit/537.36 (KHTML, like Gecko) Chrome/116.0.0.0 Safari/537.36","WebKit","Chrome","116.0.0.0","Windows","10.0","null","<div style=""font-size:60px;"">+</div>","null",""
"","","","","","html-button-response","130","261247","0.0-3.0-1.63","65","1","2023-06-02 17:30:53","a806436d73fb3c2fb9db1ebeb6e0a607","204.242.0.193","Mozilla/5.0 (Windows NT 10.0; Win64; x64) AppleWebKit/537.36 (KHTML, like Gecko) Chrome/116.0.0.0 Safari/537.36","WebKit","Chrome","116.0.0.0","Windows","10.0","1003","<p>As the military commander, you could choose to launch a missile to kill <strong>4 enemy soldiers</strong> , but would accidentally kill <strong>1 enemy tree</strong> nearby.</p> <p>The photo of the <strong>enemy tree</strong> is shown below.</p> <p></p> <img src='stimuli/tree/1.png', style='max-width: 30%;'> </img> <p><strong>Would you launch the weapon?</strong></p>","0",""
"","","","","","survey-multi-choice","131","292135","0.0-4.0","65","1","2023-06-02 17:30:53","a806436d73fb3c2fb9db1ebeb6e0a607","204.242.0.193","Mozilla/5.0 (Windows NT 10.0; Win64; x64) AppleWebKit/537.36 (KHTML, like Gecko) Chrome/116.0.0.0 Safari/537.36","WebKit","Chrome","116.0.0.0","Windows","10.0","30878","","{""Attention1"":""""}","[0]"
"","","","","","html-button-response","132","294362","0.0-5.0","65","1","2023-06-02 17:30:53","a806436d73fb3c2fb9db1ebeb6e0a607","204.242.0.193","Mozilla/5.0 (Windows NT 10.0; Win64; x64) AppleWebKit/537.36 (KHTML, like Gecko) Chrome/116.0.0.0 Safari/537.36","WebKit","Chrome","116.0.0.0","Windows","10.0","2219","<p style=""font-size:20px;font-weight:bold;"">Great!</p><p>You have finished the first part of the experiment!</p><p>Please relax a little bit and then contine to answer some questions regarding yourself.</p><p>The next part will take around 10 minutes to complete.</p>","0",""
"","","","","","survey-text","133","325423","0.0-6.0","65","1","2023-06-02 17:30:53","a806436d73fb3c2fb9db1ebeb6e0a607","204.242.0.193","Mozilla/5.0 (Windows NT 10.0; Win64; x64) AppleWebKit/537.36 (KHTML, like Gecko) Chrome/116.0.0.0 Safari/537.36","WebKit","Chrome","116.0.0.0","Windows","10.0","30045","","{""Age"":""23"",""Nation"":""American"",""Born"":""USA"",""Live"":""USA""}",""
"","","","","","survey-multi-choice","134","339207","0.0-7.0","65","1","2023-06-02 17:30:53","a806436d73fb3c2fb9db1ebeb6e0a607","204.242.0.193","Mozilla/5.0 (Windows NT 10.0; Win64; x64) AppleWebKit/537.36 (KHTML, like Gecko) Chrome/116.0.0.0 Safari/537.36","WebKit","Chrome","116.0.0.0","Windows","10.0","13778","","{""Gender"":""Male"",""Education"":""Bachelor's Degree"",""Income"":""$40,000 - $69,999"",""Children"":""1"",""Ethnicity"":""White""}","[0,1,2,3,4]"
"","","","","","survey-multi-select","135","409828","0.0-8.0","65","1","2023-06-02 17:30:53","a806436d73fb3c2fb9db1ebeb6e0a607","204.242.0.193","Mozilla/5.0 (Windows NT 10.0; Win64; x64) AppleWebKit/537.36 (KHTML, like Gecko) Chrome/116.0.0.0 Safari/537.36","WebKit","Chrome","116.0.0.0","Windows","10.0","70603","","{""Marriage"":[""Married""],""Religion"":[""Catholic""]}","[0,1]"
"","","","","","survey-multi-choice","136","426427","0.0-9.0","65","1","2023-06-02 17:30:53","a806436d73fb3c2fb9db1ebeb6e0a607","204.242.0.193","Mozilla/5.0 (Windows NT 10.0; Win64; x64) AppleWebKit/537.36 (KHTML, like Gecko) Chrome/116.0.0.0 Safari/537.36","WebKit","Chrome","116.0.0.0","Windows","10.0","16589","","{""SES"":""5""}","[0]"
"","","","","","html-button-response","137","427947","0.0-10.0","65","1","2023-06-02 17:30:53","a806436d73fb3c2fb9db1ebeb6e0a607","204.242.0.193","Mozilla/5.0 (Windows NT 10.0; Win64; x64) AppleWebKit/537.36 (KHTML, like Gecko) Chrome/116.0.0.0 Safari/537.36","WebKit","Chrome","116.0.0.0","Windows","10.0","1509","<p><strong>Please indicate the extent that the following statements could describe you.</p><p> (1 = ""extremely uncharacteristic of me"" to 5 = ""extremely characteristic of me"".)</strong></p>","0",""
"","","","","","survey-likert","138","446135","0.0-11.0","65","1","2023-06-02 17:30:53","a806436d73fb3c2fb9db1ebeb6e0a607","204.242.0.193","Mozilla/5.0 (Windows NT 10.0; Win64; x64) AppleWebKit/537.36 (KHTML, like Gecko) Chrome/116.0.0.0 Safari/537.36","WebKit","Chrome","116.0.0.0","Windows","10.0","18182","","{""Aggression1"":3,""Aggression2"":4,""Aggression3"":3,""Aggression4"":4,""Aggression5"":4,""Aggression6"":4,""Aggression7"":3,""Aggression8"":3,""Aggression9"":3}","[0,1,2,3,4,5,6,7,8]"
"","","","","","html-button-response","139","447930","0.0-12.0","65","1","2023-06-02 17:30:53","a806436d73fb3c2fb9db1ebeb6e0a607","204.242.0.193","Mozilla/5.0 (Windows NT 10.0; Win64; x64) AppleWebKit/537.36 (KHTML, like Gecko) Chrome/116.0.0.0 Safari/537.36","WebKit","Chrome","116.0.0.0","Windows","10.0","1785","<p><strong>Please indicate the extent that the following statements could describe you. </strong></p><p><strong> (1 = ""Does not describe me well"" to 5 = ""Does decribe me well"".)</strong></p>","0",""
"","","","","","survey-likert","140","499422","0.0-13.0","65","1","2023-06-02 17:30:53","a806436d73fb3c2fb9db1ebeb6e0a607","204.242.0.193","Mozilla/5.0 (Windows NT 10.0; Win64; x64) AppleWebKit/537.36 (KHTML, like Gecko) Chrome/116.0.0.0 Safari/537.36","WebKit","Chrome","116.0.0.0","Windows","10.0","51483","","{""ecs2"":3,""fs3"":4,""pds1"":3,""ecs6"":4,""pts2"":3,""fs2"":4,""pds6"":3,""fs6"":3,""pds5"":4,""pds7"":3,""pts1"":4,""pds3"":3,""pds4"":4,""pds2"":3,""ecs1"":4,""pts6"":3,""pts7"":4,""pts4"":3,""fs4"":4,""fs5"":3,""fs1"":4,""ecs7"":3,""pts5"":4,""ecs5"":3,""ecs3"":3,""ecs4"":4,""fs7"":3,""pts3"":4}","[3,6,5,19,7,4,23,22,18,26,2,12,16,9,1,24,27,14,11,15,0,21,20,17,8,13,25,10]"
"","","","","","html-button-response","141","501258","0.0-14.0","65","1","2023-06-02 17:30:53","a806436d73fb3c2fb9db1ebeb6e0a607","204.242.0.193","Mozilla/5.0 (Windows NT 10.0; Win64; x64) AppleWebKit/537.36 (KHTML, like Gecko) Chrome/116.0.0.0 Safari/537.36","WebKit","Chrome","116.0.0.0","Windows","10.0","1828","<p><strong>Which of the following objects or statements do you have a positive or negative feeling towards? </strong></p><p><strong> (1 = ""Very negative"" to 7 = ""Very positive"") </strong></p>","0",""
"","","","","","survey-likert","142","524952","0.0-15.0","65","1","2023-06-02 17:30:53","a806436d73fb3c2fb9db1ebeb6e0a607","204.242.0.193","Mozilla/5.0 (Windows NT 10.0; Win64; x64) AppleWebKit/537.36 (KHTML, like Gecko) Chrome/116.0.0.0 Safari/537.36","WebKit","Chrome","116.0.0.0","Windows","10.0","23687","","{""sdo11"":5,""sdo9"":6,""sdo15"":4,""sdo2"":5,""sdo3"":6,""sdo8"":5,""sdo7"":4,""sdo13"":5,""sdo5"":6,""sdo6"":5,""sdo16"":4,""sdo12"":5,""sdo10"":6,""sdo4"":5,""sdo1"":4,""sdo14"":5}","[10,8,14,1,2,7,6,12,4,5,15,11,9,3,0,13]"
"","","","","","html-button-response","143","526499","0.0-16.0","65","1","2023-06-02 17:30:53","a806436d73fb3c2fb9db1ebeb6e0a607","204.242.0.193","Mozilla/5.0 (Windows NT 10.0; Win64; x64) AppleWebKit/537.36 (KHTML, like Gecko) Chrome/116.0.0.0 Safari/537.36","WebKit","Chrome","116.0.0.0","Windows","10.0","1534","<p><strong>Please indicate the extent you agree with the following statements.</strong></p><strong><p> (1 = ""Strongly Disagree"" to 5 = ""Srongly Agree"") </strong></p>","0",""
"","","","","","survey-likert","144","557077","0.0-17.0","65","1","2023-06-02 17:30:53","a806436d73fb3c2fb9db1ebeb6e0a607","204.242.0.193","Mozilla/5.0 (Windows NT 10.0; Win64; x64) AppleWebKit/537.36 (KHTML, like Gecko) Chrome/116.0.0.0 Safari/537.36","WebKit","Chrome","116.0.0.0","Windows","10.0","30567","","{""caring1"":4,""liking1"":3,""caring2"":2,""protection1"":3,""liking2"":3,""caring3"":4,""protection2"":2,""liking3"":3,""protection3"":4,""caring4"":2,""liking4"":3,""protection4"":4,""caring5"":3,""liking5"":2,""protection5"":3}","[0,1,2,3,4,5,6,7,8,9,10,11,12,13,14]"
"","","","","","html-button-response","145","558739","0.0-18.0","65","1","2023-06-02 17:30:53","a806436d73fb3c2fb9db1ebeb6e0a607","204.242.0.193","Mozilla/5.0 (Windows NT 10.0; Win64; x64) AppleWebKit/537.36 (KHTML, like Gecko) Chrome/116.0.0.0 Safari/537.36","WebKit","Chrome","116.0.0.0","Windows","10.0","1653","<p><strong>Please imagine spercific situations involving children below, and rate the amount of tenderness you would feel in each situation. </strong></p><p><strong> (Ternderness is ""a warm, gentle feeling of sympathetic affection."") </strong></p><strong><p> (1 = ""No tenderness at all"" to 5 = ""A lot of tenderness"") </strong></p>","0",""
"","","","","","survey-likert","146","575316","0.0-19.0","65","1","2023-06-02 17:30:53","a806436d73fb3c2fb9db1ebeb6e0a607","204.242.0.193","Mozilla/5.0 (Windows NT 10.0; Win64; x64) AppleWebKit/537.36 (KHTML, like Gecko) Chrome/116.0.0.0 Safari/537.36","WebKit","Chrome","116.0.0.0","Windows","10.0","16571","","{""tenderness-positive1"":4,""tenderness-negative1"":3,""tenderness-negative2"":4,""tenderness-positive2"":3,""tenderness-positive3"":3,""tenderness-negative3"":3,""tenderness-positive4"":4,""tendereness-negative4"":3,""tendernness-negative5"":4,""tenderness-positive5"":3}","[0,1,2,3,4,5,6,7,8,9]"
"","","","","","survey-multi-choice","147","579892","0.0-20.0","65","1","2023-06-02 17:30:53","a806436d73fb3c2fb9db1ebeb6e0a607","204.242.0.193","Mozilla/5.0 (Windows NT 10.0; Win64; x64) AppleWebKit/537.36 (KHTML, like Gecko) Chrome/116.0.0.0 Safari/537.36","WebKit","Chrome","116.0.0.0","Windows","10.0","4566","","{""Attention2"":""Other""}","[0]"
"","","","","","html-button-response","148","581578","0.0-21.0","65","1","2023-06-02 17:30:53","a806436d73fb3c2fb9db1ebeb6e0a607","204.242.0.193","Mozilla/5.0 (Windows NT 10.0; Win64; x64) AppleWebKit/537.36 (KHTML, like Gecko) Chrome/116.0.0.0 Safari/537.36","WebKit","Chrome","116.0.0.0","Windows","10.0","1677","<p><strong>Please indicate the extent you agree with the following statements.</strong></p>","0",""
"","","","","","survey-likert","149","622821","0.0-22.0","65","1","2023-06-02 17:30:53","a806436d73fb3c2fb9db1ebeb6e0a607","204.242.0.193","Mozilla/5.0 (Windows NT 10.0; Win64; x64) AppleWebKit/537.36 (KHTML, like Gecko) Chrome/116.0.0.0 Safari/537.36","WebKit","Chrome","116.0.0.0","Windows","10.0","41235","","{""Patri7"":3,""Patri3"":4,""Patri4"":3,""Nation6"":3,""Nation3"":3,""Patri10"":3,""Patri2"":4,""Nation8"":3,""Patri5"":4,""Nation1"":3,""Patri6"":3,""Patri1"":4,""Nation4"":3,""Patri11"":4,""Patri12"":3,""Nation5"":3,""Patri8"":3,""Nation7"":4,""Nation2"":3,""Patri9"":3}","[6,2,3,17,14,9,1,19,4,12,5,0,15,10,11,16,7,18,13,8]"
"","","","","","html-button-response","150","624427","0.0-23.0","65","1","2023-06-02 17:30:53","a806436d73fb3c2fb9db1ebeb6e0a607","204.242.0.193","Mozilla/5.0 (Windows NT 10.0; Win64; x64) AppleWebKit/537.36 (KHTML, like Gecko) Chrome/116.0.0.0 Safari/537.36","WebKit","Chrome","116.0.0.0","Windows","10.0","1598","<p><strong>Please indicate the extent you agree with the following statements. </p><p>(1 = ""never or definitely no"" and 9 = ""always or definitely yes"".)</strong></p>","0",""
"","","","","","survey-likert","151","659660","0.0-24.0","65","1","2023-06-02 17:30:53","a806436d73fb3c2fb9db1ebeb6e0a607","204.242.0.193","Mozilla/5.0 (Windows NT 10.0; Win64; x64) AppleWebKit/537.36 (KHTML, like Gecko) Chrome/116.0.0.0 Safari/537.36","WebKit","Chrome","116.0.0.0","Windows","10.0","35228","","{""vi1"":7,""vc4"":8,""vi3"":6,""vc3"":7,""hi4"":8,""hc1"":7,""hc2"":6,""vc2"":6,""hi3"":7,""Robot2"":6,""hi2"":7,""vi4"":8,""hi1"":6,""vi2"":7,""hc4"":8,""vc1"":6,""hc3"":7}","[4,16,6,15,3,9,10,14,2,7,1,8,0,5,12,13,11]"
"","","","","","survey-text","152","685440","0.0-25.0","65","1","2023-06-02 17:30:53","a806436d73fb3c2fb9db1ebeb6e0a607","204.242.0.193","Mozilla/5.0 (Windows NT 10.0; Win64; x64) AppleWebKit/537.36 (KHTML, like Gecko) Chrome/116.0.0.0 Safari/537.36","WebKit","Chrome","116.0.0.0","Windows","10.0","25760","","{""ID"":""A3FSZC6AI8V4MW"",""Comments"":""good survey waiting for future survey""}",""
"","","","","","html-button-response","153","711692","0.0-26.0","65","1","2023-06-02 17:30:53","a806436d73fb3c2fb9db1ebeb6e0a607","204.242.0.193","Mozilla/5.0 (Windows NT 10.0; Win64; x64) AppleWebKit/537.36 (KHTML, like Gecko) Chrome/116.0.0.0 Safari/537.36","WebKit","Chrome","116.0.0.0","Windows","10.0","26246","<p><strong>Congratulations! </strong> Your have finished all the survey. Thank you for your participation!</p><p><strong>Here is your complete token:</strong></p>34vpzl58biohxcf8x0ao6gq2h<p></p><p><strong>Please copy it to the mTurk page.</strong></p>","0",""
