"success","timeout","failed_images","failed_audio","failed_video","trial_type","trial_index","time_elapsed","internal_node_id","run_id","condition","recorded_at","source_code_version","ip","user_agent","device","browser","browser_version","platform","platform_version","rt","stimulus","response","question_order"
"true","false","[]","[]","[]","preload","0","709","0.0-0.0","74","1","2023-06-02 17:42:09","a806436d73fb3c2fb9db1ebeb6e0a607","104.171.169.87","Mozilla/5.0 (Windows NT 10.0; Win64; x64) AppleWebKit/537.36 (KHTML, like Gecko) Chrome/115.0.0.0 Safari/537.36","WebKit","Chrome","115.0.0.0","Windows","10.0","","","",""
"true","","","","","fullscreen","1","4568","0.0-1.0","74","1","2023-06-02 17:42:09","a806436d73fb3c2fb9db1ebeb6e0a607","104.171.169.87","Mozilla/5.0 (Windows NT 10.0; Win64; x64) AppleWebKit/537.36 (KHTML, like Gecko) Chrome/115.0.0.0 Safari/537.36","WebKit","Chrome","115.0.0.0","Windows","10.0","","","",""
"","","","","","html-button-response","2","5777","0.0-2.0","74","1","2023-06-02 17:42:09","a806436d73fb3c2fb9db1ebeb6e0a607","104.171.169.87","Mozilla/5.0 (Windows NT 10.0; Win64; x64) AppleWebKit/537.36 (KHTML, like Gecko) Chrome/115.0.0.0 Safari/537.36","WebKit","Chrome","115.0.0.0","Windows","10.0","1206","<p ><strong>Welcome to the experiment!</strong></p><p ><strong>In the first task, please imagine:</strong></p><p>Your country is involved in a military conflict with another country.</p><p>You are the commander of your army and must make decisions in the conflict.</p><p>Specifically, as the military commander, you must decide whether to launch a missile to strike enemy.</p><p>You will face a series of scenarios. Please read each scenario carefully and make a decision.</p><p>The task will take around 10 minutes to complete.</p><p><strong>Please pay your attention during the experiment.</strong></p>","0",""
"","","","","","html-keyboard-response","3","6779","0.0-3.0-0.0","74","1","2023-06-02 17:42:09","a806436d73fb3c2fb9db1ebeb6e0a607","104.171.169.87","Mozilla/5.0 (Windows NT 10.0; Win64; x64) AppleWebKit/537.36 (KHTML, like Gecko) Chrome/115.0.0.0 Safari/537.36","WebKit","Chrome","115.0.0.0","Windows","10.0","null","<div style=""font-size:60px;"">+</div>","null",""
"","","","","","html-button-response","4","8239","0.0-3.0-1.0","74","1","2023-06-02 17:42:09","a806436d73fb3c2fb9db1ebeb6e0a607","104.171.169.87","Mozilla/5.0 (Windows NT 10.0; Win64; x64) AppleWebKit/537.36 (KHTML, like Gecko) Chrome/115.0.0.0 Safari/537.36","WebKit","Chrome","115.0.0.0","Windows","10.0","1459","<p>As the military commander, you could choose to launch a missile to kill <strong>6 enemy soldiers</strong> , but would accidentally kill <strong>1 enemy tree</strong> nearby.</p> <p>The photo of the <strong>enemy tree</strong> is shown below.</p> <p></p> <img src='stimuli/tree/11.png', style='max-width: 30%;'> </img> <p><strong>Would you launch the weapon?</strong></p>","0",""
"","","","","","html-keyboard-response","5","9240","0.0-3.0-0.1","74","1","2023-06-02 17:42:09","a806436d73fb3c2fb9db1ebeb6e0a607","104.171.169.87","Mozilla/5.0 (Windows NT 10.0; Win64; x64) AppleWebKit/537.36 (KHTML, like Gecko) Chrome/115.0.0.0 Safari/537.36","WebKit","Chrome","115.0.0.0","Windows","10.0","null","<div style=""font-size:60px;"">+</div>","null",""
"","","","","","html-button-response","6","10087","0.0-3.0-1.1","74","1","2023-06-02 17:42:09","a806436d73fb3c2fb9db1ebeb6e0a607","104.171.169.87","Mozilla/5.0 (Windows NT 10.0; Win64; x64) AppleWebKit/537.36 (KHTML, like Gecko) Chrome/115.0.0.0 Safari/537.36","WebKit","Chrome","115.0.0.0","Windows","10.0","846","<p>As the military commander, you could choose to launch a missile to kill <strong>7 enemy soldiers</strong> , but would accidentally kill <strong>1 enemy tree</strong> nearby.</p> <p>The photo of the <strong>enemy tree</strong> is shown below.</p> <p></p> <img src='stimuli/tree/3.png', style='max-width: 30%;'> </img> <p><strong>Would you launch the weapon?</strong></p>","0",""
"","","","","","html-keyboard-response","7","11088","0.0-3.0-0.2","74","1","2023-06-02 17:42:09","a806436d73fb3c2fb9db1ebeb6e0a607","104.171.169.87","Mozilla/5.0 (Windows NT 10.0; Win64; x64) AppleWebKit/537.36 (KHTML, like Gecko) Chrome/115.0.0.0 Safari/537.36","WebKit","Chrome","115.0.0.0","Windows","10.0","null","<div style=""font-size:60px;"">+</div>","null",""
"","","","","","html-button-response","8","11583","0.0-3.0-1.2","74","1","2023-06-02 17:42:09","a806436d73fb3c2fb9db1ebeb6e0a607","104.171.169.87","Mozilla/5.0 (Windows NT 10.0; Win64; x64) AppleWebKit/537.36 (KHTML, like Gecko) Chrome/115.0.0.0 Safari/537.36","WebKit","Chrome","115.0.0.0","Windows","10.0","494","<p>As the military commander, you could choose to launch a missile to kill <strong>4 enemy soldiers</strong> , but would accidentally kill <strong>1 enemy tree</strong> nearby.</p> <p>The photo of the <strong>enemy tree</strong> is shown below.</p> <p></p> <img src='stimuli/tree/8.png', style='max-width: 30%;'> </img> <p><strong>Would you launch the weapon?</strong></p>","0",""
"","","","","","html-keyboard-response","9","12584","0.0-3.0-0.3","74","1","2023-06-02 17:42:09","a806436d73fb3c2fb9db1ebeb6e0a607","104.171.169.87","Mozilla/5.0 (Windows NT 10.0; Win64; x64) AppleWebKit/537.36 (KHTML, like Gecko) Chrome/115.0.0.0 Safari/537.36","WebKit","Chrome","115.0.0.0","Windows","10.0","null","<div style=""font-size:60px;"">+</div>","null",""
"","","","","","html-button-response","10","13511","0.0-3.0-1.3","74","1","2023-06-02 17:42:09","a806436d73fb3c2fb9db1ebeb6e0a607","104.171.169.87","Mozilla/5.0 (Windows NT 10.0; Win64; x64) AppleWebKit/537.36 (KHTML, like Gecko) Chrome/115.0.0.0 Safari/537.36","WebKit","Chrome","115.0.0.0","Windows","10.0","925","<p>As the military commander, you could choose to launch a missile to kill <strong>1 enemy soldier</strong> , but would accidentally kill <strong>1 enemy civilian</strong> nearby.</p> <p>The photo of the <strong>enemy civilian</strong> is shown below.</p> <p></p> <img src='stimuli/faces/NFM5.jpg', style='max-width: 30%;'> </img> <p><strong>Would you launch the weapon?</strong></p>","0",""
"","","","","","html-keyboard-response","11","14513","0.0-3.0-0.4","74","1","2023-06-02 17:42:09","a806436d73fb3c2fb9db1ebeb6e0a607","104.171.169.87","Mozilla/5.0 (Windows NT 10.0; Win64; x64) AppleWebKit/537.36 (KHTML, like Gecko) Chrome/115.0.0.0 Safari/537.36","WebKit","Chrome","115.0.0.0","Windows","10.0","null","<div style=""font-size:60px;"">+</div>","null",""
"","","","","","html-button-response","12","17896","0.0-3.0-1.4","74","1","2023-06-02 17:42:09","a806436d73fb3c2fb9db1ebeb6e0a607","104.171.169.87","Mozilla/5.0 (Windows NT 10.0; Win64; x64) AppleWebKit/537.36 (KHTML, like Gecko) Chrome/115.0.0.0 Safari/537.36","WebKit","Chrome","115.0.0.0","Windows","10.0","3380","<p>As the military commander, you could choose to launch a missile to kill <strong>10 enemy soldiers</strong> , but would accidentally kill <strong>1 enemy civilian</strong> nearby.</p> <p>The photo of the <strong>enemy civilian</strong> is shown below.</p> <p></p> <img src='stimuli/faces/NFM1.jpg', style='max-width: 30%;'> </img> <p><strong>Would you launch the weapon?</strong></p>","0",""
"","","","","","html-keyboard-response","13","18897","0.0-3.0-0.5","74","1","2023-06-02 17:42:09","a806436d73fb3c2fb9db1ebeb6e0a607","104.171.169.87","Mozilla/5.0 (Windows NT 10.0; Win64; x64) AppleWebKit/537.36 (KHTML, like Gecko) Chrome/115.0.0.0 Safari/537.36","WebKit","Chrome","115.0.0.0","Windows","10.0","null","<div style=""font-size:60px;"">+</div>","null",""
"","","","","","html-button-response","14","19472","0.0-3.0-1.5","74","1","2023-06-02 17:42:09","a806436d73fb3c2fb9db1ebeb6e0a607","104.171.169.87","Mozilla/5.0 (Windows NT 10.0; Win64; x64) AppleWebKit/537.36 (KHTML, like Gecko) Chrome/115.0.0.0 Safari/537.36","WebKit","Chrome","115.0.0.0","Windows","10.0","573","<p>As the military commander, you could choose to launch a missile to kill <strong>9 enemy soldiers</strong> , but would accidentally kill <strong>1 enemy civilian</strong> nearby.</p> <p>The photo of the <strong>enemy civilian</strong> is shown below.</p> <p></p> <img src='stimuli/faces/NFF2.jpg', style='max-width: 30%;'> </img> <p><strong>Would you launch the weapon?</strong></p>","0",""
"","","","","","html-keyboard-response","15","20473","0.0-3.0-0.6","74","1","2023-06-02 17:42:09","a806436d73fb3c2fb9db1ebeb6e0a607","104.171.169.87","Mozilla/5.0 (Windows NT 10.0; Win64; x64) AppleWebKit/537.36 (KHTML, like Gecko) Chrome/115.0.0.0 Safari/537.36","WebKit","Chrome","115.0.0.0","Windows","10.0","null","<div style=""font-size:60px;"">+</div>","null",""
"","","","","","html-button-response","16","21039","0.0-3.0-1.6","74","1","2023-06-02 17:42:09","a806436d73fb3c2fb9db1ebeb6e0a607","104.171.169.87","Mozilla/5.0 (Windows NT 10.0; Win64; x64) AppleWebKit/537.36 (KHTML, like Gecko) Chrome/115.0.0.0 Safari/537.36","WebKit","Chrome","115.0.0.0","Windows","10.0","565","<p>As the military commander, you could choose to launch a missile to kill <strong>8 enemy soldiers</strong> , but would accidentally kill <strong>1 enemy tree</strong> nearby.</p> <p>The photo of the <strong>enemy tree</strong> is shown below.</p> <p></p> <img src='stimuli/tree/13.png', style='max-width: 30%;'> </img> <p><strong>Would you launch the weapon?</strong></p>","0",""
"","","","","","html-keyboard-response","17","22041","0.0-3.0-0.7","74","1","2023-06-02 17:42:09","a806436d73fb3c2fb9db1ebeb6e0a607","104.171.169.87","Mozilla/5.0 (Windows NT 10.0; Win64; x64) AppleWebKit/537.36 (KHTML, like Gecko) Chrome/115.0.0.0 Safari/537.36","WebKit","Chrome","115.0.0.0","Windows","10.0","null","<div style=""font-size:60px;"">+</div>","null",""
"","","","","","html-button-response","18","23999","0.0-3.0-1.7","74","1","2023-06-02 17:42:09","a806436d73fb3c2fb9db1ebeb6e0a607","104.171.169.87","Mozilla/5.0 (Windows NT 10.0; Win64; x64) AppleWebKit/537.36 (KHTML, like Gecko) Chrome/115.0.0.0 Safari/537.36","WebKit","Chrome","115.0.0.0","Windows","10.0","1957","<p>As the military commander, you could choose to launch a missile to kill <strong>4 enemy soldiers</strong> , but would accidentally kill <strong>1 enemy civilian</strong> nearby.</p> <p>The photo of the <strong>enemy civilian</strong> is shown below.</p> <p></p> <img src='stimuli/faces/NFM6.jpg', style='max-width: 30%;'> </img> <p><strong>Would you launch the weapon?</strong></p>","0",""
"","","","","","html-keyboard-response","19","25002","0.0-3.0-0.8","74","1","2023-06-02 17:42:09","a806436d73fb3c2fb9db1ebeb6e0a607","104.171.169.87","Mozilla/5.0 (Windows NT 10.0; Win64; x64) AppleWebKit/537.36 (KHTML, like Gecko) Chrome/115.0.0.0 Safari/537.36","WebKit","Chrome","115.0.0.0","Windows","10.0","null","<div style=""font-size:60px;"">+</div>","null",""
"","","","","","html-button-response","20","26119","0.0-3.0-1.8","74","1","2023-06-02 17:42:09","a806436d73fb3c2fb9db1ebeb6e0a607","104.171.169.87","Mozilla/5.0 (Windows NT 10.0; Win64; x64) AppleWebKit/537.36 (KHTML, like Gecko) Chrome/115.0.0.0 Safari/537.36","WebKit","Chrome","115.0.0.0","Windows","10.0","1115","<p>As the military commander, you could choose to launch a missile to kill <strong>2 enemy soldiers</strong> , but would accidentally kill <strong>1 enemy tree</strong> nearby.</p> <p>The photo of the <strong>enemy tree</strong> is shown below.</p> <p></p> <img src='stimuli/tree/16.png', style='max-width: 30%;'> </img> <p><strong>Would you launch the weapon?</strong></p>","0",""
"","","","","","html-keyboard-response","21","27120","0.0-3.0-0.9","74","1","2023-06-02 17:42:09","a806436d73fb3c2fb9db1ebeb6e0a607","104.171.169.87","Mozilla/5.0 (Windows NT 10.0; Win64; x64) AppleWebKit/537.36 (KHTML, like Gecko) Chrome/115.0.0.0 Safari/537.36","WebKit","Chrome","115.0.0.0","Windows","10.0","null","<div style=""font-size:60px;"">+</div>","null",""
"","","","","","html-button-response","22","28769","0.0-3.0-1.9","74","1","2023-06-02 17:42:09","a806436d73fb3c2fb9db1ebeb6e0a607","104.171.169.87","Mozilla/5.0 (Windows NT 10.0; Win64; x64) AppleWebKit/537.36 (KHTML, like Gecko) Chrome/115.0.0.0 Safari/537.36","WebKit","Chrome","115.0.0.0","Windows","10.0","1646","<p>As the military commander, you could choose to launch a missile to kill <strong>4 enemy soldiers</strong> , but would accidentally kill <strong>1 enemy tree</strong> nearby.</p> <p>The photo of the <strong>enemy tree</strong> is shown below.</p> <p></p> <img src='stimuli/tree/12.png', style='max-width: 30%;'> </img> <p><strong>Would you launch the weapon?</strong></p>","0",""
"","","","","","html-keyboard-response","23","29771","0.0-3.0-0.10","74","1","2023-06-02 17:42:09","a806436d73fb3c2fb9db1ebeb6e0a607","104.171.169.87","Mozilla/5.0 (Windows NT 10.0; Win64; x64) AppleWebKit/537.36 (KHTML, like Gecko) Chrome/115.0.0.0 Safari/537.36","WebKit","Chrome","115.0.0.0","Windows","10.0","null","<div style=""font-size:60px;"">+</div>","null",""
"","","","","","html-button-response","24","32991","0.0-3.0-1.10","74","1","2023-06-02 17:42:09","a806436d73fb3c2fb9db1ebeb6e0a607","104.171.169.87","Mozilla/5.0 (Windows NT 10.0; Win64; x64) AppleWebKit/537.36 (KHTML, like Gecko) Chrome/115.0.0.0 Safari/537.36","WebKit","Chrome","115.0.0.0","Windows","10.0","3218","<p>As the military commander, you could choose to launch a missile to kill <strong>2 enemy soldiers</strong> , but would accidentally kill <strong>1 enemy civilian</strong> nearby.</p> <p>The photo of the <strong>enemy civilian</strong> is shown below.</p> <p></p> <img src='stimuli/faces/NFF7.jpg', style='max-width: 30%;'> </img> <p><strong>Would you launch the weapon?</strong></p>","0",""
"","","","","","html-keyboard-response","25","33994","0.0-3.0-0.11","74","1","2023-06-02 17:42:09","a806436d73fb3c2fb9db1ebeb6e0a607","104.171.169.87","Mozilla/5.0 (Windows NT 10.0; Win64; x64) AppleWebKit/537.36 (KHTML, like Gecko) Chrome/115.0.0.0 Safari/537.36","WebKit","Chrome","115.0.0.0","Windows","10.0","null","<div style=""font-size:60px;"">+</div>","null",""
"","","","","","html-button-response","26","35860","0.0-3.0-1.11","74","1","2023-06-02 17:42:09","a806436d73fb3c2fb9db1ebeb6e0a607","104.171.169.87","Mozilla/5.0 (Windows NT 10.0; Win64; x64) AppleWebKit/537.36 (KHTML, like Gecko) Chrome/115.0.0.0 Safari/537.36","WebKit","Chrome","115.0.0.0","Windows","10.0","1863","<p>As the military commander, you could choose to launch a missile to kill <strong>10 enemy soldiers</strong> , but would accidentally kill <strong>1 enemy tree</strong> nearby.</p> <p>The photo of the <strong>enemy tree</strong> is shown below.</p> <p></p> <img src='stimuli/tree/15.png', style='max-width: 30%;'> </img> <p><strong>Would you launch the weapon?</strong></p>","0",""
"","","","","","html-keyboard-response","27","36862","0.0-3.0-0.12","74","1","2023-06-02 17:42:09","a806436d73fb3c2fb9db1ebeb6e0a607","104.171.169.87","Mozilla/5.0 (Windows NT 10.0; Win64; x64) AppleWebKit/537.36 (KHTML, like Gecko) Chrome/115.0.0.0 Safari/537.36","WebKit","Chrome","115.0.0.0","Windows","10.0","null","<div style=""font-size:60px;"">+</div>","null",""
"","","","","","html-button-response","28","37567","0.0-3.0-1.12","74","1","2023-06-02 17:42:09","a806436d73fb3c2fb9db1ebeb6e0a607","104.171.169.87","Mozilla/5.0 (Windows NT 10.0; Win64; x64) AppleWebKit/537.36 (KHTML, like Gecko) Chrome/115.0.0.0 Safari/537.36","WebKit","Chrome","115.0.0.0","Windows","10.0","704","<p>As the military commander, you could choose to launch a missile to kill <strong>10 enemy soldiers</strong> , but would accidentally kill <strong>1 enemy civilian</strong> nearby.</p> <p>The photo of the <strong>enemy civilian</strong> is shown below.</p> <p></p> <img src='stimuli/faces/NFM3.jpg', style='max-width: 30%;'> </img> <p><strong>Would you launch the weapon?</strong></p>","0",""
"","","","","","html-keyboard-response","29","38569","0.0-3.0-0.13","74","1","2023-06-02 17:42:09","a806436d73fb3c2fb9db1ebeb6e0a607","104.171.169.87","Mozilla/5.0 (Windows NT 10.0; Win64; x64) AppleWebKit/537.36 (KHTML, like Gecko) Chrome/115.0.0.0 Safari/537.36","WebKit","Chrome","115.0.0.0","Windows","10.0","null","<div style=""font-size:60px;"">+</div>","null",""
"","","","","","html-button-response","30","39456","0.0-3.0-1.13","74","1","2023-06-02 17:42:09","a806436d73fb3c2fb9db1ebeb6e0a607","104.171.169.87","Mozilla/5.0 (Windows NT 10.0; Win64; x64) AppleWebKit/537.36 (KHTML, like Gecko) Chrome/115.0.0.0 Safari/537.36","WebKit","Chrome","115.0.0.0","Windows","10.0","885","<p>As the military commander, you could choose to launch a missile to kill <strong>9 enemy soldiers</strong> , but would accidentally kill <strong>1 enemy tree</strong> nearby.</p> <p>The photo of the <strong>enemy tree</strong> is shown below.</p> <p></p> <img src='stimuli/tree/14.png', style='max-width: 30%;'> </img> <p><strong>Would you launch the weapon?</strong></p>","0",""
"","","","","","html-keyboard-response","31","40457","0.0-3.0-0.14","74","1","2023-06-02 17:42:09","a806436d73fb3c2fb9db1ebeb6e0a607","104.171.169.87","Mozilla/5.0 (Windows NT 10.0; Win64; x64) AppleWebKit/537.36 (KHTML, like Gecko) Chrome/115.0.0.0 Safari/537.36","WebKit","Chrome","115.0.0.0","Windows","10.0","null","<div style=""font-size:60px;"">+</div>","null",""
"","","","","","html-button-response","32","40895","0.0-3.0-1.14","74","1","2023-06-02 17:42:09","a806436d73fb3c2fb9db1ebeb6e0a607","104.171.169.87","Mozilla/5.0 (Windows NT 10.0; Win64; x64) AppleWebKit/537.36 (KHTML, like Gecko) Chrome/115.0.0.0 Safari/537.36","WebKit","Chrome","115.0.0.0","Windows","10.0","436","<p>As the military commander, you could choose to launch a missile to kill <strong>7 enemy soldiers</strong> , but would accidentally kill <strong>1 enemy civilian</strong> nearby.</p> <p>The photo of the <strong>enemy civilian</strong> is shown below.</p> <p></p> <img src='stimuli/faces/NFF4.jpg', style='max-width: 30%;'> </img> <p><strong>Would you launch the weapon?</strong></p>","0",""
"","","","","","html-keyboard-response","33","41897","0.0-3.0-0.15","74","1","2023-06-02 17:42:09","a806436d73fb3c2fb9db1ebeb6e0a607","104.171.169.87","Mozilla/5.0 (Windows NT 10.0; Win64; x64) AppleWebKit/537.36 (KHTML, like Gecko) Chrome/115.0.0.0 Safari/537.36","WebKit","Chrome","115.0.0.0","Windows","10.0","null","<div style=""font-size:60px;"">+</div>","null",""
"","","","","","html-button-response","34","45780","0.0-3.0-1.15","74","1","2023-06-02 17:42:09","a806436d73fb3c2fb9db1ebeb6e0a607","104.171.169.87","Mozilla/5.0 (Windows NT 10.0; Win64; x64) AppleWebKit/537.36 (KHTML, like Gecko) Chrome/115.0.0.0 Safari/537.36","WebKit","Chrome","115.0.0.0","Windows","10.0","3880","<p>As the military commander, you could choose to launch a missile to kill <strong>6 enemy soldiers</strong> , but would accidentally kill <strong>1 enemy tree</strong> nearby.</p> <p>The photo of the <strong>enemy tree</strong> is shown below.</p> <p></p> <img src='stimuli/tree/4.png', style='max-width: 30%;'> </img> <p><strong>Would you launch the weapon?</strong></p>","0",""
"","","","","","html-keyboard-response","35","46781","0.0-3.0-0.16","74","1","2023-06-02 17:42:09","a806436d73fb3c2fb9db1ebeb6e0a607","104.171.169.87","Mozilla/5.0 (Windows NT 10.0; Win64; x64) AppleWebKit/537.36 (KHTML, like Gecko) Chrome/115.0.0.0 Safari/537.36","WebKit","Chrome","115.0.0.0","Windows","10.0","null","<div style=""font-size:60px;"">+</div>","null",""
"","","","","","html-button-response","36","47688","0.0-3.0-1.16","74","1","2023-06-02 17:42:09","a806436d73fb3c2fb9db1ebeb6e0a607","104.171.169.87","Mozilla/5.0 (Windows NT 10.0; Win64; x64) AppleWebKit/537.36 (KHTML, like Gecko) Chrome/115.0.0.0 Safari/537.36","WebKit","Chrome","115.0.0.0","Windows","10.0","904","<p>As the military commander, you could choose to launch a missile to kill <strong>5 enemy soldiers</strong> , but would accidentally kill <strong>1 enemy tree</strong> nearby.</p> <p>The photo of the <strong>enemy tree</strong> is shown below.</p> <p></p> <img src='stimuli/tree/5.png', style='max-width: 30%;'> </img> <p><strong>Would you launch the weapon?</strong></p>","0",""
"","","","","","html-keyboard-response","37","48689","0.0-3.0-0.17","74","1","2023-06-02 17:42:09","a806436d73fb3c2fb9db1ebeb6e0a607","104.171.169.87","Mozilla/5.0 (Windows NT 10.0; Win64; x64) AppleWebKit/537.36 (KHTML, like Gecko) Chrome/115.0.0.0 Safari/537.36","WebKit","Chrome","115.0.0.0","Windows","10.0","null","<div style=""font-size:60px;"">+</div>","null",""
"","","","","","html-button-response","38","84937","0.0-3.0-1.17","74","1","2023-06-02 17:42:09","a806436d73fb3c2fb9db1ebeb6e0a607","104.171.169.87","Mozilla/5.0 (Windows NT 10.0; Win64; x64) AppleWebKit/537.36 (KHTML, like Gecko) Chrome/115.0.0.0 Safari/537.36","WebKit","Chrome","115.0.0.0","Windows","10.0","36244","<p>As the military commander, you could choose to launch a missile to kill <strong>1 enemy soldier</strong> , but would accidentally kill <strong>1 enemy civilian</strong> nearby.</p> <p>The photo of the <strong>enemy civilian</strong> is shown below.</p> <p></p> <img src='stimuli/faces/NFM1.jpg', style='max-width: 30%;'> </img> <p><strong>Would you launch the weapon?</strong></p>","0",""
"","","","","","html-keyboard-response","39","85939","0.0-3.0-0.18","74","1","2023-06-02 17:42:09","a806436d73fb3c2fb9db1ebeb6e0a607","104.171.169.87","Mozilla/5.0 (Windows NT 10.0; Win64; x64) AppleWebKit/537.36 (KHTML, like Gecko) Chrome/115.0.0.0 Safari/537.36","WebKit","Chrome","115.0.0.0","Windows","10.0","null","<div style=""font-size:60px;"">+</div>","null",""
"","","","","","html-button-response","40","87169","0.0-3.0-1.18","74","1","2023-06-02 17:42:09","a806436d73fb3c2fb9db1ebeb6e0a607","104.171.169.87","Mozilla/5.0 (Windows NT 10.0; Win64; x64) AppleWebKit/537.36 (KHTML, like Gecko) Chrome/115.0.0.0 Safari/537.36","WebKit","Chrome","115.0.0.0","Windows","10.0","1226","<p>As the military commander, you could choose to launch a missile to kill <strong>7 enemy soldiers</strong> , but would accidentally kill <strong>1 enemy civilian</strong> nearby.</p> <p>The photo of the <strong>enemy civilian</strong> is shown below.</p> <p></p> <img src='stimuli/faces/NFF7.jpg', style='max-width: 30%;'> </img> <p><strong>Would you launch the weapon?</strong></p>","0",""
"","","","","","html-keyboard-response","41","88170","0.0-3.0-0.19","74","1","2023-06-02 17:42:09","a806436d73fb3c2fb9db1ebeb6e0a607","104.171.169.87","Mozilla/5.0 (Windows NT 10.0; Win64; x64) AppleWebKit/537.36 (KHTML, like Gecko) Chrome/115.0.0.0 Safari/537.36","WebKit","Chrome","115.0.0.0","Windows","10.0","null","<div style=""font-size:60px;"">+</div>","null",""
"","","","","","html-button-response","42","89003","0.0-3.0-1.19","74","1","2023-06-02 17:42:09","a806436d73fb3c2fb9db1ebeb6e0a607","104.171.169.87","Mozilla/5.0 (Windows NT 10.0; Win64; x64) AppleWebKit/537.36 (KHTML, like Gecko) Chrome/115.0.0.0 Safari/537.36","WebKit","Chrome","115.0.0.0","Windows","10.0","830","<p>As the military commander, you could choose to launch a missile to kill <strong>2 enemy soldiers</strong> , but would accidentally kill <strong>1 enemy tree</strong> nearby.</p> <p>The photo of the <strong>enemy tree</strong> is shown below.</p> <p></p> <img src='stimuli/tree/7.png', style='max-width: 30%;'> </img> <p><strong>Would you launch the weapon?</strong></p>","0",""
"","","","","","html-keyboard-response","43","90005","0.0-3.0-0.20","74","1","2023-06-02 17:42:09","a806436d73fb3c2fb9db1ebeb6e0a607","104.171.169.87","Mozilla/5.0 (Windows NT 10.0; Win64; x64) AppleWebKit/537.36 (KHTML, like Gecko) Chrome/115.0.0.0 Safari/537.36","WebKit","Chrome","115.0.0.0","Windows","10.0","null","<div style=""font-size:60px;"">+</div>","null",""
"","","","","","html-button-response","44","91121","0.0-3.0-1.20","74","1","2023-06-02 17:42:09","a806436d73fb3c2fb9db1ebeb6e0a607","104.171.169.87","Mozilla/5.0 (Windows NT 10.0; Win64; x64) AppleWebKit/537.36 (KHTML, like Gecko) Chrome/115.0.0.0 Safari/537.36","WebKit","Chrome","115.0.0.0","Windows","10.0","1114","<p>As the military commander, you could choose to launch a missile to kill <strong>10 enemy soldiers</strong> , but would accidentally kill <strong>1 enemy civilian</strong> nearby.</p> <p>The photo of the <strong>enemy civilian</strong> is shown below.</p> <p></p> <img src='stimuli/faces/NFF8.jpg', style='max-width: 30%;'> </img> <p><strong>Would you launch the weapon?</strong></p>","0",""
"","","","","","html-keyboard-response","45","92124","0.0-3.0-0.21","74","1","2023-06-02 17:42:09","a806436d73fb3c2fb9db1ebeb6e0a607","104.171.169.87","Mozilla/5.0 (Windows NT 10.0; Win64; x64) AppleWebKit/537.36 (KHTML, like Gecko) Chrome/115.0.0.0 Safari/537.36","WebKit","Chrome","115.0.0.0","Windows","10.0","null","<div style=""font-size:60px;"">+</div>","null",""
"","","","","","html-button-response","46","92978","0.0-3.0-1.21","74","1","2023-06-02 17:42:09","a806436d73fb3c2fb9db1ebeb6e0a607","104.171.169.87","Mozilla/5.0 (Windows NT 10.0; Win64; x64) AppleWebKit/537.36 (KHTML, like Gecko) Chrome/115.0.0.0 Safari/537.36","WebKit","Chrome","115.0.0.0","Windows","10.0","851","<p>As the military commander, you could choose to launch a missile to kill <strong>4 enemy soldiers</strong> , but would accidentally kill <strong>1 enemy civilian</strong> nearby.</p> <p>The photo of the <strong>enemy civilian</strong> is shown below.</p> <p></p> <img src='stimuli/faces/NFF2.jpg', style='max-width: 30%;'> </img> <p><strong>Would you launch the weapon?</strong></p>","0",""
"","","","","","html-keyboard-response","47","93981","0.0-3.0-0.22","74","1","2023-06-02 17:42:09","a806436d73fb3c2fb9db1ebeb6e0a607","104.171.169.87","Mozilla/5.0 (Windows NT 10.0; Win64; x64) AppleWebKit/537.36 (KHTML, like Gecko) Chrome/115.0.0.0 Safari/537.36","WebKit","Chrome","115.0.0.0","Windows","10.0","null","<div style=""font-size:60px;"">+</div>","null",""
"","","","","","html-button-response","48","95393","0.0-3.0-1.22","74","1","2023-06-02 17:42:09","a806436d73fb3c2fb9db1ebeb6e0a607","104.171.169.87","Mozilla/5.0 (Windows NT 10.0; Win64; x64) AppleWebKit/537.36 (KHTML, like Gecko) Chrome/115.0.0.0 Safari/537.36","WebKit","Chrome","115.0.0.0","Windows","10.0","1409","<p>As the military commander, you could choose to launch a missile to kill <strong>1 enemy soldier</strong> , but would accidentally kill <strong>1 enemy tree</strong> nearby.</p> <p>The photo of the <strong>enemy tree</strong> is shown below.</p> <p></p> <img src='stimuli/tree/4.png', style='max-width: 30%;'> </img> <p><strong>Would you launch the weapon?</strong></p>","0",""
"","","","","","html-keyboard-response","49","96394","0.0-3.0-0.23","74","1","2023-06-02 17:42:09","a806436d73fb3c2fb9db1ebeb6e0a607","104.171.169.87","Mozilla/5.0 (Windows NT 10.0; Win64; x64) AppleWebKit/537.36 (KHTML, like Gecko) Chrome/115.0.0.0 Safari/537.36","WebKit","Chrome","115.0.0.0","Windows","10.0","null","<div style=""font-size:60px;"">+</div>","null",""
"","","","","","html-button-response","50","97281","0.0-3.0-1.23","74","1","2023-06-02 17:42:09","a806436d73fb3c2fb9db1ebeb6e0a607","104.171.169.87","Mozilla/5.0 (Windows NT 10.0; Win64; x64) AppleWebKit/537.36 (KHTML, like Gecko) Chrome/115.0.0.0 Safari/537.36","WebKit","Chrome","115.0.0.0","Windows","10.0","885","<p>As the military commander, you could choose to launch a missile to kill <strong>3 enemy soldiers</strong> , but would accidentally kill <strong>1 enemy tree</strong> nearby.</p> <p>The photo of the <strong>enemy tree</strong> is shown below.</p> <p></p> <img src='stimuli/tree/13.png', style='max-width: 30%;'> </img> <p><strong>Would you launch the weapon?</strong></p>","0",""
"","","","","","html-keyboard-response","51","98287","0.0-3.0-0.24","74","1","2023-06-02 17:42:09","a806436d73fb3c2fb9db1ebeb6e0a607","104.171.169.87","Mozilla/5.0 (Windows NT 10.0; Win64; x64) AppleWebKit/537.36 (KHTML, like Gecko) Chrome/115.0.0.0 Safari/537.36","WebKit","Chrome","115.0.0.0","Windows","10.0","null","<div style=""font-size:60px;"">+</div>","null",""
"","","","","","html-button-response","52","99025","0.0-3.0-1.24","74","1","2023-06-02 17:42:09","a806436d73fb3c2fb9db1ebeb6e0a607","104.171.169.87","Mozilla/5.0 (Windows NT 10.0; Win64; x64) AppleWebKit/537.36 (KHTML, like Gecko) Chrome/115.0.0.0 Safari/537.36","WebKit","Chrome","115.0.0.0","Windows","10.0","736","<p>As the military commander, you could choose to launch a missile to kill <strong>2 enemy soldiers</strong> , but would accidentally kill <strong>1 enemy civilian</strong> nearby.</p> <p>The photo of the <strong>enemy civilian</strong> is shown below.</p> <p></p> <img src='stimuli/faces/NFF4.jpg', style='max-width: 30%;'> </img> <p><strong>Would you launch the weapon?</strong></p>","0",""
"","","","","","html-keyboard-response","53","100027","0.0-3.0-0.25","74","1","2023-06-02 17:42:09","a806436d73fb3c2fb9db1ebeb6e0a607","104.171.169.87","Mozilla/5.0 (Windows NT 10.0; Win64; x64) AppleWebKit/537.36 (KHTML, like Gecko) Chrome/115.0.0.0 Safari/537.36","WebKit","Chrome","115.0.0.0","Windows","10.0","null","<div style=""font-size:60px;"">+</div>","null",""
"","","","","","html-button-response","54","101513","0.0-3.0-1.25","74","1","2023-06-02 17:42:09","a806436d73fb3c2fb9db1ebeb6e0a607","104.171.169.87","Mozilla/5.0 (Windows NT 10.0; Win64; x64) AppleWebKit/537.36 (KHTML, like Gecko) Chrome/115.0.0.0 Safari/537.36","WebKit","Chrome","115.0.0.0","Windows","10.0","1483","<p>As the military commander, you could choose to launch a missile to kill <strong>5 enemy soldiers</strong> , but would accidentally kill <strong>1 enemy civilian</strong> nearby.</p> <p>The photo of the <strong>enemy civilian</strong> is shown below.</p> <p></p> <img src='stimuli/faces/NFF3.jpg', style='max-width: 30%;'> </img> <p><strong>Would you launch the weapon?</strong></p>","0",""
"","","","","","html-keyboard-response","55","102515","0.0-3.0-0.26","74","1","2023-06-02 17:42:09","a806436d73fb3c2fb9db1ebeb6e0a607","104.171.169.87","Mozilla/5.0 (Windows NT 10.0; Win64; x64) AppleWebKit/537.36 (KHTML, like Gecko) Chrome/115.0.0.0 Safari/537.36","WebKit","Chrome","115.0.0.0","Windows","10.0","null","<div style=""font-size:60px;"">+</div>","null",""
"","","","","","html-button-response","56","103457","0.0-3.0-1.26","74","1","2023-06-02 17:42:09","a806436d73fb3c2fb9db1ebeb6e0a607","104.171.169.87","Mozilla/5.0 (Windows NT 10.0; Win64; x64) AppleWebKit/537.36 (KHTML, like Gecko) Chrome/115.0.0.0 Safari/537.36","WebKit","Chrome","115.0.0.0","Windows","10.0","940","<p>As the military commander, you could choose to launch a missile to kill <strong>7 enemy soldiers</strong> , but would accidentally kill <strong>1 enemy tree</strong> nearby.</p> <p>The photo of the <strong>enemy tree</strong> is shown below.</p> <p></p> <img src='stimuli/tree/6.png', style='max-width: 30%;'> </img> <p><strong>Would you launch the weapon?</strong></p>","0",""
"","","","","","html-keyboard-response","57","104459","0.0-3.0-0.27","74","1","2023-06-02 17:42:09","a806436d73fb3c2fb9db1ebeb6e0a607","104.171.169.87","Mozilla/5.0 (Windows NT 10.0; Win64; x64) AppleWebKit/537.36 (KHTML, like Gecko) Chrome/115.0.0.0 Safari/537.36","WebKit","Chrome","115.0.0.0","Windows","10.0","null","<div style=""font-size:60px;"">+</div>","null",""
"","","","","","html-button-response","58","104905","0.0-3.0-1.27","74","1","2023-06-02 17:42:09","a806436d73fb3c2fb9db1ebeb6e0a607","104.171.169.87","Mozilla/5.0 (Windows NT 10.0; Win64; x64) AppleWebKit/537.36 (KHTML, like Gecko) Chrome/115.0.0.0 Safari/537.36","WebKit","Chrome","115.0.0.0","Windows","10.0","443","<p>As the military commander, you could choose to launch a missile to kill <strong>8 enemy soldiers</strong> , but would accidentally kill <strong>1 enemy tree</strong> nearby.</p> <p>The photo of the <strong>enemy tree</strong> is shown below.</p> <p></p> <img src='stimuli/tree/7.png', style='max-width: 30%;'> </img> <p><strong>Would you launch the weapon?</strong></p>","0",""
"","","","","","html-keyboard-response","59","105907","0.0-3.0-0.28","74","1","2023-06-02 17:42:09","a806436d73fb3c2fb9db1ebeb6e0a607","104.171.169.87","Mozilla/5.0 (Windows NT 10.0; Win64; x64) AppleWebKit/537.36 (KHTML, like Gecko) Chrome/115.0.0.0 Safari/537.36","WebKit","Chrome","115.0.0.0","Windows","10.0","null","<div style=""font-size:60px;"">+</div>","null",""
"","","","","","html-button-response","60","106914","0.0-3.0-1.28","74","1","2023-06-02 17:42:09","a806436d73fb3c2fb9db1ebeb6e0a607","104.171.169.87","Mozilla/5.0 (Windows NT 10.0; Win64; x64) AppleWebKit/537.36 (KHTML, like Gecko) Chrome/115.0.0.0 Safari/537.36","WebKit","Chrome","115.0.0.0","Windows","10.0","1004","<p>As the military commander, you could choose to launch a missile to kill <strong>5 enemy soldiers</strong> , but would accidentally kill <strong>1 enemy civilian</strong> nearby.</p> <p>The photo of the <strong>enemy civilian</strong> is shown below.</p> <p></p> <img src='stimuli/faces/NFM8.jpg', style='max-width: 30%;'> </img> <p><strong>Would you launch the weapon?</strong></p>","0",""
"","","","","","html-keyboard-response","61","107917","0.0-3.0-0.29","74","1","2023-06-02 17:42:09","a806436d73fb3c2fb9db1ebeb6e0a607","104.171.169.87","Mozilla/5.0 (Windows NT 10.0; Win64; x64) AppleWebKit/537.36 (KHTML, like Gecko) Chrome/115.0.0.0 Safari/537.36","WebKit","Chrome","115.0.0.0","Windows","10.0","null","<div style=""font-size:60px;"">+</div>","null",""
"","","","","","html-button-response","62","108506","0.0-3.0-1.29","74","1","2023-06-02 17:42:09","a806436d73fb3c2fb9db1ebeb6e0a607","104.171.169.87","Mozilla/5.0 (Windows NT 10.0; Win64; x64) AppleWebKit/537.36 (KHTML, like Gecko) Chrome/115.0.0.0 Safari/537.36","WebKit","Chrome","115.0.0.0","Windows","10.0","586","<p>As the military commander, you could choose to launch a missile to kill <strong>2 enemy soldiers</strong> , but would accidentally kill <strong>1 enemy tree</strong> nearby.</p> <p>The photo of the <strong>enemy tree</strong> is shown below.</p> <p></p> <img src='stimuli/tree/6.png', style='max-width: 30%;'> </img> <p><strong>Would you launch the weapon?</strong></p>","0",""
"","","","","","html-keyboard-response","63","109510","0.0-3.0-0.30","74","1","2023-06-02 17:42:09","a806436d73fb3c2fb9db1ebeb6e0a607","104.171.169.87","Mozilla/5.0 (Windows NT 10.0; Win64; x64) AppleWebKit/537.36 (KHTML, like Gecko) Chrome/115.0.0.0 Safari/537.36","WebKit","Chrome","115.0.0.0","Windows","10.0","null","<div style=""font-size:60px;"">+</div>","null",""
"","","","","","html-button-response","64","110234","0.0-3.0-1.30","74","1","2023-06-02 17:42:09","a806436d73fb3c2fb9db1ebeb6e0a607","104.171.169.87","Mozilla/5.0 (Windows NT 10.0; Win64; x64) AppleWebKit/537.36 (KHTML, like Gecko) Chrome/115.0.0.0 Safari/537.36","WebKit","Chrome","115.0.0.0","Windows","10.0","721","<p>As the military commander, you could choose to launch a missile to kill <strong>4 enemy soldiers</strong> , but would accidentally kill <strong>1 enemy civilian</strong> nearby.</p> <p>The photo of the <strong>enemy civilian</strong> is shown below.</p> <p></p> <img src='stimuli/faces/NFM3.jpg', style='max-width: 30%;'> </img> <p><strong>Would you launch the weapon?</strong></p>","0",""
"","","","","","html-keyboard-response","65","111237","0.0-3.0-0.31","74","1","2023-06-02 17:42:09","a806436d73fb3c2fb9db1ebeb6e0a607","104.171.169.87","Mozilla/5.0 (Windows NT 10.0; Win64; x64) AppleWebKit/537.36 (KHTML, like Gecko) Chrome/115.0.0.0 Safari/537.36","WebKit","Chrome","115.0.0.0","Windows","10.0","null","<div style=""font-size:60px;"">+</div>","null",""
"","","","","","html-button-response","66","111633","0.0-3.0-1.31","74","1","2023-06-02 17:42:09","a806436d73fb3c2fb9db1ebeb6e0a607","104.171.169.87","Mozilla/5.0 (Windows NT 10.0; Win64; x64) AppleWebKit/537.36 (KHTML, like Gecko) Chrome/115.0.0.0 Safari/537.36","WebKit","Chrome","115.0.0.0","Windows","10.0","394","<p>As the military commander, you could choose to launch a missile to kill <strong>9 enemy soldiers</strong> , but would accidentally kill <strong>1 enemy civilian</strong> nearby.</p> <p>The photo of the <strong>enemy civilian</strong> is shown below.</p> <p></p> <img src='stimuli/faces/NFM6.jpg', style='max-width: 30%;'> </img> <p><strong>Would you launch the weapon?</strong></p>","0",""
"","","","","","html-keyboard-response","67","112636","0.0-3.0-0.32","74","1","2023-06-02 17:42:09","a806436d73fb3c2fb9db1ebeb6e0a607","104.171.169.87","Mozilla/5.0 (Windows NT 10.0; Win64; x64) AppleWebKit/537.36 (KHTML, like Gecko) Chrome/115.0.0.0 Safari/537.36","WebKit","Chrome","115.0.0.0","Windows","10.0","null","<div style=""font-size:60px;"">+</div>","null",""
"","","","","","html-button-response","68","113462","0.0-3.0-1.32","74","1","2023-06-02 17:42:09","a806436d73fb3c2fb9db1ebeb6e0a607","104.171.169.87","Mozilla/5.0 (Windows NT 10.0; Win64; x64) AppleWebKit/537.36 (KHTML, like Gecko) Chrome/115.0.0.0 Safari/537.36","WebKit","Chrome","115.0.0.0","Windows","10.0","824","<p>As the military commander, you could choose to launch a missile to kill <strong>1 enemy soldier</strong> , but would accidentally kill <strong>1 enemy civilian</strong> nearby.</p> <p>The photo of the <strong>enemy civilian</strong> is shown below.</p> <p></p> <img src='stimuli/faces/NFF5.jpg', style='max-width: 30%;'> </img> <p><strong>Would you launch the weapon?</strong></p>","0",""
"","","","","","html-keyboard-response","69","114466","0.0-3.0-0.33","74","1","2023-06-02 17:42:09","a806436d73fb3c2fb9db1ebeb6e0a607","104.171.169.87","Mozilla/5.0 (Windows NT 10.0; Win64; x64) AppleWebKit/537.36 (KHTML, like Gecko) Chrome/115.0.0.0 Safari/537.36","WebKit","Chrome","115.0.0.0","Windows","10.0","null","<div style=""font-size:60px;"">+</div>","null",""
"","","","","","html-button-response","70","115314","0.0-3.0-1.33","74","1","2023-06-02 17:42:09","a806436d73fb3c2fb9db1ebeb6e0a607","104.171.169.87","Mozilla/5.0 (Windows NT 10.0; Win64; x64) AppleWebKit/537.36 (KHTML, like Gecko) Chrome/115.0.0.0 Safari/537.36","WebKit","Chrome","115.0.0.0","Windows","10.0","844","<p>As the military commander, you could choose to launch a missile to kill <strong>2 enemy soldiers</strong> , but would accidentally kill <strong>1 enemy civilian</strong> nearby.</p> <p>The photo of the <strong>enemy civilian</strong> is shown below.</p> <p></p> <img src='stimuli/faces/NFM2.jpg', style='max-width: 30%;'> </img> <p><strong>Would you launch the weapon?</strong></p>","0",""
"","","","","","html-keyboard-response","71","116317","0.0-3.0-0.34","74","1","2023-06-02 17:42:09","a806436d73fb3c2fb9db1ebeb6e0a607","104.171.169.87","Mozilla/5.0 (Windows NT 10.0; Win64; x64) AppleWebKit/537.36 (KHTML, like Gecko) Chrome/115.0.0.0 Safari/537.36","WebKit","Chrome","115.0.0.0","Windows","10.0","null","<div style=""font-size:60px;"">+</div>","null",""
"","","","","","html-button-response","72","117210","0.0-3.0-1.34","74","1","2023-06-02 17:42:09","a806436d73fb3c2fb9db1ebeb6e0a607","104.171.169.87","Mozilla/5.0 (Windows NT 10.0; Win64; x64) AppleWebKit/537.36 (KHTML, like Gecko) Chrome/115.0.0.0 Safari/537.36","WebKit","Chrome","115.0.0.0","Windows","10.0","889","<p>As the military commander, you could choose to launch a missile to kill <strong>4 enemy soldiers</strong> , but would accidentally kill <strong>1 enemy tree</strong> nearby.</p> <p>The photo of the <strong>enemy tree</strong> is shown below.</p> <p></p> <img src='stimuli/tree/3.png', style='max-width: 30%;'> </img> <p><strong>Would you launch the weapon?</strong></p>","0",""
"","","","","","html-keyboard-response","73","118212","0.0-3.0-0.35","74","1","2023-06-02 17:42:09","a806436d73fb3c2fb9db1ebeb6e0a607","104.171.169.87","Mozilla/5.0 (Windows NT 10.0; Win64; x64) AppleWebKit/537.36 (KHTML, like Gecko) Chrome/115.0.0.0 Safari/537.36","WebKit","Chrome","115.0.0.0","Windows","10.0","null","<div style=""font-size:60px;"">+</div>","null",""
"","","","","","html-button-response","74","119113","0.0-3.0-1.35","74","1","2023-06-02 17:42:09","a806436d73fb3c2fb9db1ebeb6e0a607","104.171.169.87","Mozilla/5.0 (Windows NT 10.0; Win64; x64) AppleWebKit/537.36 (KHTML, like Gecko) Chrome/115.0.0.0 Safari/537.36","WebKit","Chrome","115.0.0.0","Windows","10.0","899","<p>As the military commander, you could choose to launch a missile to kill <strong>10 enemy soldiers</strong> , but would accidentally kill <strong>1 enemy civilian</strong> nearby.</p> <p>The photo of the <strong>enemy civilian</strong> is shown below.</p> <p></p> <img src='stimuli/faces/NFM5.jpg', style='max-width: 30%;'> </img> <p><strong>Would you launch the weapon?</strong></p>","0",""
"","","","","","html-keyboard-response","75","120115","0.0-3.0-0.36","74","1","2023-06-02 17:42:09","a806436d73fb3c2fb9db1ebeb6e0a607","104.171.169.87","Mozilla/5.0 (Windows NT 10.0; Win64; x64) AppleWebKit/537.36 (KHTML, like Gecko) Chrome/115.0.0.0 Safari/537.36","WebKit","Chrome","115.0.0.0","Windows","10.0","null","<div style=""font-size:60px;"">+</div>","null",""
"","","","","","html-button-response","76","120906","0.0-3.0-1.36","74","1","2023-06-02 17:42:09","a806436d73fb3c2fb9db1ebeb6e0a607","104.171.169.87","Mozilla/5.0 (Windows NT 10.0; Win64; x64) AppleWebKit/537.36 (KHTML, like Gecko) Chrome/115.0.0.0 Safari/537.36","WebKit","Chrome","115.0.0.0","Windows","10.0","787","<p>As the military commander, you could choose to launch a missile to kill <strong>6 enemy soldiers</strong> , but would accidentally kill <strong>1 enemy tree</strong> nearby.</p> <p>The photo of the <strong>enemy tree</strong> is shown below.</p> <p></p> <img src='stimuli/tree/8.png', style='max-width: 30%;'> </img> <p><strong>Would you launch the weapon?</strong></p>","0",""
"","","","","","html-keyboard-response","77","121913","0.0-3.0-0.37","74","1","2023-06-02 17:42:09","a806436d73fb3c2fb9db1ebeb6e0a607","104.171.169.87","Mozilla/5.0 (Windows NT 10.0; Win64; x64) AppleWebKit/537.36 (KHTML, like Gecko) Chrome/115.0.0.0 Safari/537.36","WebKit","Chrome","115.0.0.0","Windows","10.0","null","<div style=""font-size:60px;"">+</div>","null",""
"","","","","","html-button-response","78","122810","0.0-3.0-1.37","74","1","2023-06-02 17:42:09","a806436d73fb3c2fb9db1ebeb6e0a607","104.171.169.87","Mozilla/5.0 (Windows NT 10.0; Win64; x64) AppleWebKit/537.36 (KHTML, like Gecko) Chrome/115.0.0.0 Safari/537.36","WebKit","Chrome","115.0.0.0","Windows","10.0","893","<p>As the military commander, you could choose to launch a missile to kill <strong>1 enemy soldier</strong> , but would accidentally kill <strong>1 enemy tree</strong> nearby.</p> <p>The photo of the <strong>enemy tree</strong> is shown below.</p> <p></p> <img src='stimuli/tree/15.png', style='max-width: 30%;'> </img> <p><strong>Would you launch the weapon?</strong></p>","0",""
"","","","","","html-keyboard-response","79","123813","0.0-3.0-0.38","74","1","2023-06-02 17:42:09","a806436d73fb3c2fb9db1ebeb6e0a607","104.171.169.87","Mozilla/5.0 (Windows NT 10.0; Win64; x64) AppleWebKit/537.36 (KHTML, like Gecko) Chrome/115.0.0.0 Safari/537.36","WebKit","Chrome","115.0.0.0","Windows","10.0","null","<div style=""font-size:60px;"">+</div>","null",""
"","","","","","html-button-response","80","124777","0.0-3.0-1.38","74","1","2023-06-02 17:42:09","a806436d73fb3c2fb9db1ebeb6e0a607","104.171.169.87","Mozilla/5.0 (Windows NT 10.0; Win64; x64) AppleWebKit/537.36 (KHTML, like Gecko) Chrome/115.0.0.0 Safari/537.36","WebKit","Chrome","115.0.0.0","Windows","10.0","961","<p>As the military commander, you could choose to launch a missile to kill <strong>7 enemy soldiers</strong> , but would accidentally kill <strong>1 enemy tree</strong> nearby.</p> <p>The photo of the <strong>enemy tree</strong> is shown below.</p> <p></p> <img src='stimuli/tree/12.png', style='max-width: 30%;'> </img> <p><strong>Would you launch the weapon?</strong></p>","0",""
"","","","","","html-keyboard-response","81","125780","0.0-3.0-0.39","74","1","2023-06-02 17:42:09","a806436d73fb3c2fb9db1ebeb6e0a607","104.171.169.87","Mozilla/5.0 (Windows NT 10.0; Win64; x64) AppleWebKit/537.36 (KHTML, like Gecko) Chrome/115.0.0.0 Safari/537.36","WebKit","Chrome","115.0.0.0","Windows","10.0","null","<div style=""font-size:60px;"">+</div>","null",""
"","","","","","html-button-response","82","126701","0.0-3.0-1.39","74","1","2023-06-02 17:42:09","a806436d73fb3c2fb9db1ebeb6e0a607","104.171.169.87","Mozilla/5.0 (Windows NT 10.0; Win64; x64) AppleWebKit/537.36 (KHTML, like Gecko) Chrome/115.0.0.0 Safari/537.36","WebKit","Chrome","115.0.0.0","Windows","10.0","917","<p>As the military commander, you could choose to launch a missile to kill <strong>6 enemy soldiers</strong> , but would accidentally kill <strong>1 enemy tree</strong> nearby.</p> <p>The photo of the <strong>enemy tree</strong> is shown below.</p> <p></p> <img src='stimuli/tree/10.png', style='max-width: 30%;'> </img> <p><strong>Would you launch the weapon?</strong></p>","0",""
"","","","","","html-keyboard-response","83","127703","0.0-3.0-0.40","74","1","2023-06-02 17:42:09","a806436d73fb3c2fb9db1ebeb6e0a607","104.171.169.87","Mozilla/5.0 (Windows NT 10.0; Win64; x64) AppleWebKit/537.36 (KHTML, like Gecko) Chrome/115.0.0.0 Safari/537.36","WebKit","Chrome","115.0.0.0","Windows","10.0","null","<div style=""font-size:60px;"">+</div>","null",""
"","","","","","html-button-response","84","128721","0.0-3.0-1.40","74","1","2023-06-02 17:42:09","a806436d73fb3c2fb9db1ebeb6e0a607","104.171.169.87","Mozilla/5.0 (Windows NT 10.0; Win64; x64) AppleWebKit/537.36 (KHTML, like Gecko) Chrome/115.0.0.0 Safari/537.36","WebKit","Chrome","115.0.0.0","Windows","10.0","1015","<p>As the military commander, you could choose to launch a missile to kill <strong>4 enemy soldiers</strong> , but would accidentally kill <strong>1 enemy tree</strong> nearby.</p> <p>The photo of the <strong>enemy tree</strong> is shown below.</p> <p></p> <img src='stimuli/tree/14.png', style='max-width: 30%;'> </img> <p><strong>Would you launch the weapon?</strong></p>","0",""
"","","","","","html-keyboard-response","85","129724","0.0-3.0-0.41","74","1","2023-06-02 17:42:09","a806436d73fb3c2fb9db1ebeb6e0a607","104.171.169.87","Mozilla/5.0 (Windows NT 10.0; Win64; x64) AppleWebKit/537.36 (KHTML, like Gecko) Chrome/115.0.0.0 Safari/537.36","WebKit","Chrome","115.0.0.0","Windows","10.0","null","<div style=""font-size:60px;"">+</div>","null",""
"","","","","","html-button-response","86","130657","0.0-3.0-1.41","74","1","2023-06-02 17:42:09","a806436d73fb3c2fb9db1ebeb6e0a607","104.171.169.87","Mozilla/5.0 (Windows NT 10.0; Win64; x64) AppleWebKit/537.36 (KHTML, like Gecko) Chrome/115.0.0.0 Safari/537.36","WebKit","Chrome","115.0.0.0","Windows","10.0","930","<p>As the military commander, you could choose to launch a missile to kill <strong>7 enemy soldiers</strong> , but would accidentally kill <strong>1 enemy tree</strong> nearby.</p> <p>The photo of the <strong>enemy tree</strong> is shown below.</p> <p></p> <img src='stimuli/tree/5.png', style='max-width: 30%;'> </img> <p><strong>Would you launch the weapon?</strong></p>","0",""
"","","","","","html-keyboard-response","87","131660","0.0-3.0-0.42","74","1","2023-06-02 17:42:09","a806436d73fb3c2fb9db1ebeb6e0a607","104.171.169.87","Mozilla/5.0 (Windows NT 10.0; Win64; x64) AppleWebKit/537.36 (KHTML, like Gecko) Chrome/115.0.0.0 Safari/537.36","WebKit","Chrome","115.0.0.0","Windows","10.0","null","<div style=""font-size:60px;"">+</div>","null",""
"","","","","","html-button-response","88","132811","0.0-3.0-1.42","74","1","2023-06-02 17:42:09","a806436d73fb3c2fb9db1ebeb6e0a607","104.171.169.87","Mozilla/5.0 (Windows NT 10.0; Win64; x64) AppleWebKit/537.36 (KHTML, like Gecko) Chrome/115.0.0.0 Safari/537.36","WebKit","Chrome","115.0.0.0","Windows","10.0","1146","<p>As the military commander, you could choose to launch a missile to kill <strong>7 enemy soldiers</strong> , but would accidentally kill <strong>1 enemy civilian</strong> nearby.</p> <p>The photo of the <strong>enemy civilian</strong> is shown below.</p> <p></p> <img src='stimuli/faces/NFF5.jpg', style='max-width: 30%;'> </img> <p><strong>Would you launch the weapon?</strong></p>","0",""
"","","","","","html-keyboard-response","89","133816","0.0-3.0-0.43","74","1","2023-06-02 17:42:09","a806436d73fb3c2fb9db1ebeb6e0a607","104.171.169.87","Mozilla/5.0 (Windows NT 10.0; Win64; x64) AppleWebKit/537.36 (KHTML, like Gecko) Chrome/115.0.0.0 Safari/537.36","WebKit","Chrome","115.0.0.0","Windows","10.0","null","<div style=""font-size:60px;"">+</div>","null",""
"","","","","","html-button-response","90","138362","0.0-3.0-1.43","74","1","2023-06-02 17:42:09","a806436d73fb3c2fb9db1ebeb6e0a607","104.171.169.87","Mozilla/5.0 (Windows NT 10.0; Win64; x64) AppleWebKit/537.36 (KHTML, like Gecko) Chrome/115.0.0.0 Safari/537.36","WebKit","Chrome","115.0.0.0","Windows","10.0","4542","<p>As the military commander, you could choose to launch a missile to kill <strong>10 enemy soldiers</strong> , but would accidentally kill <strong>1 enemy civilian</strong> nearby.</p> <p>The photo of the <strong>enemy civilian</strong> is shown below.</p> <p></p> <img src='stimuli/faces/NFF1.jpg', style='max-width: 30%;'> </img> <p><strong>Would you launch the weapon?</strong></p>","0",""
"","","","","","html-keyboard-response","91","139365","0.0-3.0-0.44","74","1","2023-06-02 17:42:09","a806436d73fb3c2fb9db1ebeb6e0a607","104.171.169.87","Mozilla/5.0 (Windows NT 10.0; Win64; x64) AppleWebKit/537.36 (KHTML, like Gecko) Chrome/115.0.0.0 Safari/537.36","WebKit","Chrome","115.0.0.0","Windows","10.0","null","<div style=""font-size:60px;"">+</div>","null",""
"","","","","","html-button-response","92","141522","0.0-3.0-1.44","74","1","2023-06-02 17:42:09","a806436d73fb3c2fb9db1ebeb6e0a607","104.171.169.87","Mozilla/5.0 (Windows NT 10.0; Win64; x64) AppleWebKit/537.36 (KHTML, like Gecko) Chrome/115.0.0.0 Safari/537.36","WebKit","Chrome","115.0.0.0","Windows","10.0","2153","<p>As the military commander, you could choose to launch a missile to kill <strong>6 enemy soldiers</strong> , but would accidentally kill <strong>1 enemy civilian</strong> nearby.</p> <p>The photo of the <strong>enemy civilian</strong> is shown below.</p> <p></p> <img src='stimuli/faces/NFM2.jpg', style='max-width: 30%;'> </img> <p><strong>Would you launch the weapon?</strong></p>","0",""
"","","","","","html-keyboard-response","93","142527","0.0-3.0-0.45","74","1","2023-06-02 17:42:09","a806436d73fb3c2fb9db1ebeb6e0a607","104.171.169.87","Mozilla/5.0 (Windows NT 10.0; Win64; x64) AppleWebKit/537.36 (KHTML, like Gecko) Chrome/115.0.0.0 Safari/537.36","WebKit","Chrome","115.0.0.0","Windows","10.0","null","<div style=""font-size:60px;"">+</div>","null",""
"","","","","","html-button-response","94","144763","0.0-3.0-1.45","74","1","2023-06-02 17:42:09","a806436d73fb3c2fb9db1ebeb6e0a607","104.171.169.87","Mozilla/5.0 (Windows NT 10.0; Win64; x64) AppleWebKit/537.36 (KHTML, like Gecko) Chrome/115.0.0.0 Safari/537.36","WebKit","Chrome","115.0.0.0","Windows","10.0","2232","<p>As the military commander, you could choose to launch a missile to kill <strong>7 enemy soldiers</strong> , but would accidentally kill <strong>1 enemy tree</strong> nearby.</p> <p>The photo of the <strong>enemy tree</strong> is shown below.</p> <p></p> <img src='stimuli/tree/9.png', style='max-width: 30%;'> </img> <p><strong>Would you launch the weapon?</strong></p>","0",""
"","","","","","html-keyboard-response","95","145765","0.0-3.0-0.46","74","1","2023-06-02 17:42:09","a806436d73fb3c2fb9db1ebeb6e0a607","104.171.169.87","Mozilla/5.0 (Windows NT 10.0; Win64; x64) AppleWebKit/537.36 (KHTML, like Gecko) Chrome/115.0.0.0 Safari/537.36","WebKit","Chrome","115.0.0.0","Windows","10.0","null","<div style=""font-size:60px;"">+</div>","null",""
"","","","","","html-button-response","96","147577","0.0-3.0-1.46","74","1","2023-06-02 17:42:09","a806436d73fb3c2fb9db1ebeb6e0a607","104.171.169.87","Mozilla/5.0 (Windows NT 10.0; Win64; x64) AppleWebKit/537.36 (KHTML, like Gecko) Chrome/115.0.0.0 Safari/537.36","WebKit","Chrome","115.0.0.0","Windows","10.0","1808","<p>As the military commander, you could choose to launch a missile to kill <strong>5 enemy soldiers</strong> , but would accidentally kill <strong>1 enemy civilian</strong> nearby.</p> <p>The photo of the <strong>enemy civilian</strong> is shown below.</p> <p></p> <img src='stimuli/faces/NFF6.jpg', style='max-width: 30%;'> </img> <p><strong>Would you launch the weapon?</strong></p>","0",""
"","","","","","html-keyboard-response","97","148581","0.0-3.0-0.47","74","1","2023-06-02 17:42:09","a806436d73fb3c2fb9db1ebeb6e0a607","104.171.169.87","Mozilla/5.0 (Windows NT 10.0; Win64; x64) AppleWebKit/537.36 (KHTML, like Gecko) Chrome/115.0.0.0 Safari/537.36","WebKit","Chrome","115.0.0.0","Windows","10.0","null","<div style=""font-size:60px;"">+</div>","null",""
"","","","","","html-button-response","98","149729","0.0-3.0-1.47","74","1","2023-06-02 17:42:09","a806436d73fb3c2fb9db1ebeb6e0a607","104.171.169.87","Mozilla/5.0 (Windows NT 10.0; Win64; x64) AppleWebKit/537.36 (KHTML, like Gecko) Chrome/115.0.0.0 Safari/537.36","WebKit","Chrome","115.0.0.0","Windows","10.0","1144","<p>As the military commander, you could choose to launch a missile to kill <strong>8 enemy soldiers</strong> , but would accidentally kill <strong>1 enemy civilian</strong> nearby.</p> <p>The photo of the <strong>enemy civilian</strong> is shown below.</p> <p></p> <img src='stimuli/faces/NFF3.jpg', style='max-width: 30%;'> </img> <p><strong>Would you launch the weapon?</strong></p>","0",""
"","","","","","html-keyboard-response","99","150734","0.0-3.0-0.48","74","1","2023-06-02 17:42:09","a806436d73fb3c2fb9db1ebeb6e0a607","104.171.169.87","Mozilla/5.0 (Windows NT 10.0; Win64; x64) AppleWebKit/537.36 (KHTML, like Gecko) Chrome/115.0.0.0 Safari/537.36","WebKit","Chrome","115.0.0.0","Windows","10.0","null","<div style=""font-size:60px;"">+</div>","null",""
"","","","","","html-button-response","100","151913","0.0-3.0-1.48","74","1","2023-06-02 17:42:09","a806436d73fb3c2fb9db1ebeb6e0a607","104.171.169.87","Mozilla/5.0 (Windows NT 10.0; Win64; x64) AppleWebKit/537.36 (KHTML, like Gecko) Chrome/115.0.0.0 Safari/537.36","WebKit","Chrome","115.0.0.0","Windows","10.0","1174","<p>As the military commander, you could choose to launch a missile to kill <strong>3 enemy soldiers</strong> , but would accidentally kill <strong>1 enemy tree</strong> nearby.</p> <p>The photo of the <strong>enemy tree</strong> is shown below.</p> <p></p> <img src='stimuli/tree/10.png', style='max-width: 30%;'> </img> <p><strong>Would you launch the weapon?</strong></p>","0",""
"","","","","","html-keyboard-response","101","152915","0.0-3.0-0.49","74","1","2023-06-02 17:42:09","a806436d73fb3c2fb9db1ebeb6e0a607","104.171.169.87","Mozilla/5.0 (Windows NT 10.0; Win64; x64) AppleWebKit/537.36 (KHTML, like Gecko) Chrome/115.0.0.0 Safari/537.36","WebKit","Chrome","115.0.0.0","Windows","10.0","null","<div style=""font-size:60px;"">+</div>","null",""
"","","","","","html-button-response","102","156557","0.0-3.0-1.49","74","1","2023-06-02 17:42:09","a806436d73fb3c2fb9db1ebeb6e0a607","104.171.169.87","Mozilla/5.0 (Windows NT 10.0; Win64; x64) AppleWebKit/537.36 (KHTML, like Gecko) Chrome/115.0.0.0 Safari/537.36","WebKit","Chrome","115.0.0.0","Windows","10.0","3638","<p>As the military commander, you could choose to launch a missile to kill <strong>9 enemy soldiers</strong> , but would accidentally kill <strong>1 enemy tree</strong> nearby.</p> <p>The photo of the <strong>enemy tree</strong> is shown below.</p> <p></p> <img src='stimuli/tree/16.png', style='max-width: 30%;'> </img> <p><strong>Would you launch the weapon?</strong></p>","0",""
"","","","","","html-keyboard-response","103","157561","0.0-3.0-0.50","74","1","2023-06-02 17:42:09","a806436d73fb3c2fb9db1ebeb6e0a607","104.171.169.87","Mozilla/5.0 (Windows NT 10.0; Win64; x64) AppleWebKit/537.36 (KHTML, like Gecko) Chrome/115.0.0.0 Safari/537.36","WebKit","Chrome","115.0.0.0","Windows","10.0","null","<div style=""font-size:60px;"">+</div>","null",""
"","","","","","html-button-response","104","159337","0.0-3.0-1.50","74","1","2023-06-02 17:42:09","a806436d73fb3c2fb9db1ebeb6e0a607","104.171.169.87","Mozilla/5.0 (Windows NT 10.0; Win64; x64) AppleWebKit/537.36 (KHTML, like Gecko) Chrome/115.0.0.0 Safari/537.36","WebKit","Chrome","115.0.0.0","Windows","10.0","1773","<p>As the military commander, you could choose to launch a missile to kill <strong>9 enemy soldiers</strong> , but would accidentally kill <strong>1 enemy civilian</strong> nearby.</p> <p>The photo of the <strong>enemy civilian</strong> is shown below.</p> <p></p> <img src='stimuli/faces/NFM4.jpg', style='max-width: 30%;'> </img> <p><strong>Would you launch the weapon?</strong></p>","0",""
"","","","","","html-keyboard-response","105","160341","0.0-3.0-0.51","74","1","2023-06-02 17:42:09","a806436d73fb3c2fb9db1ebeb6e0a607","104.171.169.87","Mozilla/5.0 (Windows NT 10.0; Win64; x64) AppleWebKit/537.36 (KHTML, like Gecko) Chrome/115.0.0.0 Safari/537.36","WebKit","Chrome","115.0.0.0","Windows","10.0","null","<div style=""font-size:60px;"">+</div>","null",""
"","","","","","html-button-response","106","162553","0.0-3.0-1.51","74","1","2023-06-02 17:42:09","a806436d73fb3c2fb9db1ebeb6e0a607","104.171.169.87","Mozilla/5.0 (Windows NT 10.0; Win64; x64) AppleWebKit/537.36 (KHTML, like Gecko) Chrome/115.0.0.0 Safari/537.36","WebKit","Chrome","115.0.0.0","Windows","10.0","2209","<p>As the military commander, you could choose to launch a missile to kill <strong>1 enemy soldier</strong> , but would accidentally kill <strong>1 enemy tree</strong> nearby.</p> <p>The photo of the <strong>enemy tree</strong> is shown below.</p> <p></p> <img src='stimuli/tree/2.png', style='max-width: 30%;'> </img> <p><strong>Would you launch the weapon?</strong></p>","0",""
"","","","","","html-keyboard-response","107","163557","0.0-3.0-0.52","74","1","2023-06-02 17:42:09","a806436d73fb3c2fb9db1ebeb6e0a607","104.171.169.87","Mozilla/5.0 (Windows NT 10.0; Win64; x64) AppleWebKit/537.36 (KHTML, like Gecko) Chrome/115.0.0.0 Safari/537.36","WebKit","Chrome","115.0.0.0","Windows","10.0","null","<div style=""font-size:60px;"">+</div>","null",""
"","","","","","html-button-response","108","167029","0.0-3.0-1.52","74","1","2023-06-02 17:42:09","a806436d73fb3c2fb9db1ebeb6e0a607","104.171.169.87","Mozilla/5.0 (Windows NT 10.0; Win64; x64) AppleWebKit/537.36 (KHTML, like Gecko) Chrome/115.0.0.0 Safari/537.36","WebKit","Chrome","115.0.0.0","Windows","10.0","3469","<p>As the military commander, you could choose to launch a missile to kill <strong>7 enemy soldiers</strong> , but would accidentally kill <strong>1 enemy tree</strong> nearby.</p> <p>The photo of the <strong>enemy tree</strong> is shown below.</p> <p></p> <img src='stimuli/tree/2.png', style='max-width: 30%;'> </img> <p><strong>Would you launch the weapon?</strong></p>","0",""
"","","","","","html-keyboard-response","109","168034","0.0-3.0-0.53","74","1","2023-06-02 17:42:09","a806436d73fb3c2fb9db1ebeb6e0a607","104.171.169.87","Mozilla/5.0 (Windows NT 10.0; Win64; x64) AppleWebKit/537.36 (KHTML, like Gecko) Chrome/115.0.0.0 Safari/537.36","WebKit","Chrome","115.0.0.0","Windows","10.0","null","<div style=""font-size:60px;"">+</div>","null",""
"","","","","","html-button-response","110","168731","0.0-3.0-1.53","74","1","2023-06-02 17:42:09","a806436d73fb3c2fb9db1ebeb6e0a607","104.171.169.87","Mozilla/5.0 (Windows NT 10.0; Win64; x64) AppleWebKit/537.36 (KHTML, like Gecko) Chrome/115.0.0.0 Safari/537.36","WebKit","Chrome","115.0.0.0","Windows","10.0","690","<p>As the military commander, you could choose to launch a missile to kill <strong>2 enemy soldiers</strong> , but would accidentally kill <strong>1 enemy civilian</strong> nearby.</p> <p>The photo of the <strong>enemy civilian</strong> is shown below.</p> <p></p> <img src='stimuli/faces/NFM7.jpg', style='max-width: 30%;'> </img> <p><strong>Would you launch the weapon?</strong></p>","0",""
"","","","","","html-keyboard-response","111","169734","0.0-3.0-0.54","74","1","2023-06-02 17:42:09","a806436d73fb3c2fb9db1ebeb6e0a607","104.171.169.87","Mozilla/5.0 (Windows NT 10.0; Win64; x64) AppleWebKit/537.36 (KHTML, like Gecko) Chrome/115.0.0.0 Safari/537.36","WebKit","Chrome","115.0.0.0","Windows","10.0","null","<div style=""font-size:60px;"">+</div>","null",""
"","","","","","html-button-response","112","172088","0.0-3.0-1.54","74","1","2023-06-02 17:42:09","a806436d73fb3c2fb9db1ebeb6e0a607","104.171.169.87","Mozilla/5.0 (Windows NT 10.0; Win64; x64) AppleWebKit/537.36 (KHTML, like Gecko) Chrome/115.0.0.0 Safari/537.36","WebKit","Chrome","115.0.0.0","Windows","10.0","2350","<p>As the military commander, you could choose to launch a missile to kill <strong>2 enemy soldiers</strong> , but would accidentally kill <strong>1 enemy tree</strong> nearby.</p> <p>The photo of the <strong>enemy tree</strong> is shown below.</p> <p></p> <img src='stimuli/tree/11.png', style='max-width: 30%;'> </img> <p><strong>Would you launch the weapon?</strong></p>","0",""
"","","","","","html-keyboard-response","113","173091","0.0-3.0-0.55","74","1","2023-06-02 17:42:09","a806436d73fb3c2fb9db1ebeb6e0a607","104.171.169.87","Mozilla/5.0 (Windows NT 10.0; Win64; x64) AppleWebKit/537.36 (KHTML, like Gecko) Chrome/115.0.0.0 Safari/537.36","WebKit","Chrome","115.0.0.0","Windows","10.0","null","<div style=""font-size:60px;"">+</div>","null",""
"","","","","","html-button-response","114","174085","0.0-3.0-1.55","74","1","2023-06-02 17:42:09","a806436d73fb3c2fb9db1ebeb6e0a607","104.171.169.87","Mozilla/5.0 (Windows NT 10.0; Win64; x64) AppleWebKit/537.36 (KHTML, like Gecko) Chrome/115.0.0.0 Safari/537.36","WebKit","Chrome","115.0.0.0","Windows","10.0","990","<p>As the military commander, you could choose to launch a missile to kill <strong>3 enemy soldiers</strong> , but would accidentally kill <strong>1 enemy tree</strong> nearby.</p> <p>The photo of the <strong>enemy tree</strong> is shown below.</p> <p></p> <img src='stimuli/tree/1.png', style='max-width: 30%;'> </img> <p><strong>Would you launch the weapon?</strong></p>","0",""
"","","","","","html-keyboard-response","115","175091","0.0-3.0-0.56","74","1","2023-06-02 17:42:09","a806436d73fb3c2fb9db1ebeb6e0a607","104.171.169.87","Mozilla/5.0 (Windows NT 10.0; Win64; x64) AppleWebKit/537.36 (KHTML, like Gecko) Chrome/115.0.0.0 Safari/537.36","WebKit","Chrome","115.0.0.0","Windows","10.0","null","<div style=""font-size:60px;"">+</div>","null",""
"","","","","","html-button-response","116","176012","0.0-3.0-1.56","74","1","2023-06-02 17:42:09","a806436d73fb3c2fb9db1ebeb6e0a607","104.171.169.87","Mozilla/5.0 (Windows NT 10.0; Win64; x64) AppleWebKit/537.36 (KHTML, like Gecko) Chrome/115.0.0.0 Safari/537.36","WebKit","Chrome","115.0.0.0","Windows","10.0","917","<p>As the military commander, you could choose to launch a missile to kill <strong>5 enemy soldiers</strong> , but would accidentally kill <strong>1 enemy civilian</strong> nearby.</p> <p>The photo of the <strong>enemy civilian</strong> is shown below.</p> <p></p> <img src='stimuli/faces/NFM4.jpg', style='max-width: 30%;'> </img> <p><strong>Would you launch the weapon?</strong></p>","0",""
"","","","","","html-keyboard-response","117","177018","0.0-3.0-0.57","74","1","2023-06-02 17:42:09","a806436d73fb3c2fb9db1ebeb6e0a607","104.171.169.87","Mozilla/5.0 (Windows NT 10.0; Win64; x64) AppleWebKit/537.36 (KHTML, like Gecko) Chrome/115.0.0.0 Safari/537.36","WebKit","Chrome","115.0.0.0","Windows","10.0","null","<div style=""font-size:60px;"">+</div>","null",""
"","","","","","html-button-response","118","179657","0.0-3.0-1.57","74","1","2023-06-02 17:42:09","a806436d73fb3c2fb9db1ebeb6e0a607","104.171.169.87","Mozilla/5.0 (Windows NT 10.0; Win64; x64) AppleWebKit/537.36 (KHTML, like Gecko) Chrome/115.0.0.0 Safari/537.36","WebKit","Chrome","115.0.0.0","Windows","10.0","2634","<p>As the military commander, you could choose to launch a missile to kill <strong>7 enemy soldiers</strong> , but would accidentally kill <strong>1 enemy tree</strong> nearby.</p> <p>The photo of the <strong>enemy tree</strong> is shown below.</p> <p></p> <img src='stimuli/tree/1.png', style='max-width: 30%;'> </img> <p><strong>Would you launch the weapon?</strong></p>","0",""
"","","","","","html-keyboard-response","119","180661","0.0-3.0-0.58","74","1","2023-06-02 17:42:09","a806436d73fb3c2fb9db1ebeb6e0a607","104.171.169.87","Mozilla/5.0 (Windows NT 10.0; Win64; x64) AppleWebKit/537.36 (KHTML, like Gecko) Chrome/115.0.0.0 Safari/537.36","WebKit","Chrome","115.0.0.0","Windows","10.0","null","<div style=""font-size:60px;"">+</div>","null",""
"","","","","","html-button-response","120","181937","0.0-3.0-1.58","74","1","2023-06-02 17:42:09","a806436d73fb3c2fb9db1ebeb6e0a607","104.171.169.87","Mozilla/5.0 (Windows NT 10.0; Win64; x64) AppleWebKit/537.36 (KHTML, like Gecko) Chrome/115.0.0.0 Safari/537.36","WebKit","Chrome","115.0.0.0","Windows","10.0","1273","<p>As the military commander, you could choose to launch a missile to kill <strong>4 enemy soldiers</strong> , but would accidentally kill <strong>1 enemy civilian</strong> nearby.</p> <p>The photo of the <strong>enemy civilian</strong> is shown below.</p> <p></p> <img src='stimuli/faces/NFF8.jpg', style='max-width: 30%;'> </img> <p><strong>Would you launch the weapon?</strong></p>","0",""
"","","","","","html-keyboard-response","121","182942","0.0-3.0-0.59","74","1","2023-06-02 17:42:09","a806436d73fb3c2fb9db1ebeb6e0a607","104.171.169.87","Mozilla/5.0 (Windows NT 10.0; Win64; x64) AppleWebKit/537.36 (KHTML, like Gecko) Chrome/115.0.0.0 Safari/537.36","WebKit","Chrome","115.0.0.0","Windows","10.0","null","<div style=""font-size:60px;"">+</div>","null",""
"","","","","","html-button-response","122","184993","0.0-3.0-1.59","74","1","2023-06-02 17:42:09","a806436d73fb3c2fb9db1ebeb6e0a607","104.171.169.87","Mozilla/5.0 (Windows NT 10.0; Win64; x64) AppleWebKit/537.36 (KHTML, like Gecko) Chrome/115.0.0.0 Safari/537.36","WebKit","Chrome","115.0.0.0","Windows","10.0","2045","<p>As the military commander, you could choose to launch a missile to kill <strong>8 enemy soldiers</strong> , but would accidentally kill <strong>1 enemy civilian</strong> nearby.</p> <p>The photo of the <strong>enemy civilian</strong> is shown below.</p> <p></p> <img src='stimuli/faces/NFM7.jpg', style='max-width: 30%;'> </img> <p><strong>Would you launch the weapon?</strong></p>","0",""
"","","","","","html-keyboard-response","123","185997","0.0-3.0-0.60","74","1","2023-06-02 17:42:09","a806436d73fb3c2fb9db1ebeb6e0a607","104.171.169.87","Mozilla/5.0 (Windows NT 10.0; Win64; x64) AppleWebKit/537.36 (KHTML, like Gecko) Chrome/115.0.0.0 Safari/537.36","WebKit","Chrome","115.0.0.0","Windows","10.0","null","<div style=""font-size:60px;"">+</div>","null",""
"","","","","","html-button-response","124","187669","0.0-3.0-1.60","74","1","2023-06-02 17:42:09","a806436d73fb3c2fb9db1ebeb6e0a607","104.171.169.87","Mozilla/5.0 (Windows NT 10.0; Win64; x64) AppleWebKit/537.36 (KHTML, like Gecko) Chrome/115.0.0.0 Safari/537.36","WebKit","Chrome","115.0.0.0","Windows","10.0","1667","<p>As the military commander, you could choose to launch a missile to kill <strong>3 enemy soldiers</strong> , but would accidentally kill <strong>1 enemy civilian</strong> nearby.</p> <p>The photo of the <strong>enemy civilian</strong> is shown below.</p> <p></p> <img src='stimuli/faces/NFF1.jpg', style='max-width: 30%;'> </img> <p><strong>Would you launch the weapon?</strong></p>","0",""
"","","","","","html-keyboard-response","125","188688","0.0-3.0-0.61","74","1","2023-06-02 17:42:09","a806436d73fb3c2fb9db1ebeb6e0a607","104.171.169.87","Mozilla/5.0 (Windows NT 10.0; Win64; x64) AppleWebKit/537.36 (KHTML, like Gecko) Chrome/115.0.0.0 Safari/537.36","WebKit","Chrome","115.0.0.0","Windows","10.0","null","<div style=""font-size:60px;"">+</div>","null",""
"","","","","","html-button-response","126","189649","0.0-3.0-1.61","74","1","2023-06-02 17:42:09","a806436d73fb3c2fb9db1ebeb6e0a607","104.171.169.87","Mozilla/5.0 (Windows NT 10.0; Win64; x64) AppleWebKit/537.36 (KHTML, like Gecko) Chrome/115.0.0.0 Safari/537.36","WebKit","Chrome","115.0.0.0","Windows","10.0","957","<p>As the military commander, you could choose to launch a missile to kill <strong>7 enemy soldiers</strong> , but would accidentally kill <strong>1 enemy civilian</strong> nearby.</p> <p>The photo of the <strong>enemy civilian</strong> is shown below.</p> <p></p> <img src='stimuli/faces/NFM8.jpg', style='max-width: 30%;'> </img> <p><strong>Would you launch the weapon?</strong></p>","0",""
"","","","","","html-keyboard-response","127","190654","0.0-3.0-0.62","74","1","2023-06-02 17:42:09","a806436d73fb3c2fb9db1ebeb6e0a607","104.171.169.87","Mozilla/5.0 (Windows NT 10.0; Win64; x64) AppleWebKit/537.36 (KHTML, like Gecko) Chrome/115.0.0.0 Safari/537.36","WebKit","Chrome","115.0.0.0","Windows","10.0","null","<div style=""font-size:60px;"">+</div>","null",""
"","","","","","html-button-response","128","191501","0.0-3.0-1.62","74","1","2023-06-02 17:42:09","a806436d73fb3c2fb9db1ebeb6e0a607","104.171.169.87","Mozilla/5.0 (Windows NT 10.0; Win64; x64) AppleWebKit/537.36 (KHTML, like Gecko) Chrome/115.0.0.0 Safari/537.36","WebKit","Chrome","115.0.0.0","Windows","10.0","842","<p>As the military commander, you could choose to launch a missile to kill <strong>2 enemy soldiers</strong> , but would accidentally kill <strong>1 enemy tree</strong> nearby.</p> <p>The photo of the <strong>enemy tree</strong> is shown below.</p> <p></p> <img src='stimuli/tree/9.png', style='max-width: 30%;'> </img> <p><strong>Would you launch the weapon?</strong></p>","0",""
"","","","","","html-keyboard-response","129","192505","0.0-3.0-0.63","74","1","2023-06-02 17:42:09","a806436d73fb3c2fb9db1ebeb6e0a607","104.171.169.87","Mozilla/5.0 (Windows NT 10.0; Win64; x64) AppleWebKit/537.36 (KHTML, like Gecko) Chrome/115.0.0.0 Safari/537.36","WebKit","Chrome","115.0.0.0","Windows","10.0","null","<div style=""font-size:60px;"">+</div>","null",""
"","","","","","html-button-response","130","193505","0.0-3.0-1.63","74","1","2023-06-02 17:42:09","a806436d73fb3c2fb9db1ebeb6e0a607","104.171.169.87","Mozilla/5.0 (Windows NT 10.0; Win64; x64) AppleWebKit/537.36 (KHTML, like Gecko) Chrome/115.0.0.0 Safari/537.36","WebKit","Chrome","115.0.0.0","Windows","10.0","996","<p>As the military commander, you could choose to launch a missile to kill <strong>7 enemy soldiers</strong> , but would accidentally kill <strong>1 enemy civilian</strong> nearby.</p> <p>The photo of the <strong>enemy civilian</strong> is shown below.</p> <p></p> <img src='stimuli/faces/NFF6.jpg', style='max-width: 30%;'> </img> <p><strong>Would you launch the weapon?</strong></p>","0",""
"","","","","","survey-multi-choice","131","196522","0.0-4.0","74","1","2023-06-02 17:42:09","a806436d73fb3c2fb9db1ebeb6e0a607","104.171.169.87","Mozilla/5.0 (Windows NT 10.0; Win64; x64) AppleWebKit/537.36 (KHTML, like Gecko) Chrome/115.0.0.0 Safari/537.36","WebKit","Chrome","115.0.0.0","Windows","10.0","3012","","{""Attention1"":""""}","[0]"
"","","","","","html-button-response","132","198146","0.0-5.0","74","1","2023-06-02 17:42:09","a806436d73fb3c2fb9db1ebeb6e0a607","104.171.169.87","Mozilla/5.0 (Windows NT 10.0; Win64; x64) AppleWebKit/537.36 (KHTML, like Gecko) Chrome/115.0.0.0 Safari/537.36","WebKit","Chrome","115.0.0.0","Windows","10.0","1613","<p style=""font-size:20px;font-weight:bold;"">Great!</p><p>You have finished the first part of the experiment!</p><p>Please relax a little bit and then contine to answer some questions regarding yourself.</p><p>The next part will take around 10 minutes to complete.</p>","0",""
"","","","","","survey-text","133","220290","0.0-6.0","74","1","2023-06-02 17:42:09","a806436d73fb3c2fb9db1ebeb6e0a607","104.171.169.87","Mozilla/5.0 (Windows NT 10.0; Win64; x64) AppleWebKit/537.36 (KHTML, like Gecko) Chrome/115.0.0.0 Safari/537.36","WebKit","Chrome","115.0.0.0","Windows","10.0","21137","","{""Age"":""23"",""Nation"":""american"",""Born"":""USA"",""Live"":""USA""}",""
"","","","","","survey-multi-choice","134","232610","0.0-7.0","74","1","2023-06-02 17:42:09","a806436d73fb3c2fb9db1ebeb6e0a607","104.171.169.87","Mozilla/5.0 (Windows NT 10.0; Win64; x64) AppleWebKit/537.36 (KHTML, like Gecko) Chrome/115.0.0.0 Safari/537.36","WebKit","Chrome","115.0.0.0","Windows","10.0","12313","","{""Gender"":""Male"",""Education"":""Bachelor's Degree"",""Income"":""$40,000 - $69,999"",""Children"":""1"",""Ethnicity"":""White""}","[0,1,2,3,4]"
"","","","","","survey-multi-select","135","237050","0.0-8.0","74","1","2023-06-02 17:42:09","a806436d73fb3c2fb9db1ebeb6e0a607","104.171.169.87","Mozilla/5.0 (Windows NT 10.0; Win64; x64) AppleWebKit/537.36 (KHTML, like Gecko) Chrome/115.0.0.0 Safari/537.36","WebKit","Chrome","115.0.0.0","Windows","10.0","4426","","{""Marriage"":[""Married""],""Religion"":[""Catholic""]}","[0,1]"
"","","","","","survey-multi-choice","136","241850","0.0-9.0","74","1","2023-06-02 17:42:09","a806436d73fb3c2fb9db1ebeb6e0a607","104.171.169.87","Mozilla/5.0 (Windows NT 10.0; Win64; x64) AppleWebKit/537.36 (KHTML, like Gecko) Chrome/115.0.0.0 Safari/537.36","WebKit","Chrome","115.0.0.0","Windows","10.0","4792","","{""SES"":""10""}","[0]"
"","","","","","html-button-response","137","244033","0.0-10.0","74","1","2023-06-02 17:42:09","a806436d73fb3c2fb9db1ebeb6e0a607","104.171.169.87","Mozilla/5.0 (Windows NT 10.0; Win64; x64) AppleWebKit/537.36 (KHTML, like Gecko) Chrome/115.0.0.0 Safari/537.36","WebKit","Chrome","115.0.0.0","Windows","10.0","2170","<p><strong>Please indicate the extent that the following statements could describe you.</p><p> (1 = ""extremely uncharacteristic of me"" to 5 = ""extremely characteristic of me"".)</strong></p>","0",""
"","","","","","survey-likert","138","254487","0.0-11.0","74","1","2023-06-02 17:42:09","a806436d73fb3c2fb9db1ebeb6e0a607","104.171.169.87","Mozilla/5.0 (Windows NT 10.0; Win64; x64) AppleWebKit/537.36 (KHTML, like Gecko) Chrome/115.0.0.0 Safari/537.36","WebKit","Chrome","115.0.0.0","Windows","10.0","10448","","{""Aggression1"":3,""Aggression2"":3,""Aggression3"":4,""Aggression4"":4,""Aggression5"":3,""Aggression6"":4,""Aggression7"":4,""Aggression8"":4,""Aggression9"":4}","[0,1,2,3,4,5,6,7,8]"
"","","","","","html-button-response","139","256560","0.0-12.0","74","1","2023-06-02 17:42:09","a806436d73fb3c2fb9db1ebeb6e0a607","104.171.169.87","Mozilla/5.0 (Windows NT 10.0; Win64; x64) AppleWebKit/537.36 (KHTML, like Gecko) Chrome/115.0.0.0 Safari/537.36","WebKit","Chrome","115.0.0.0","Windows","10.0","2065","<p><strong>Please indicate the extent that the following statements could describe you. </strong></p><p><strong> (1 = ""Does not describe me well"" to 5 = ""Does decribe me well"".)</strong></p>","0",""
"","","","","","survey-likert","140","270502","0.0-13.0","74","1","2023-06-02 17:42:09","a806436d73fb3c2fb9db1ebeb6e0a607","104.171.169.87","Mozilla/5.0 (Windows NT 10.0; Win64; x64) AppleWebKit/537.36 (KHTML, like Gecko) Chrome/115.0.0.0 Safari/537.36","WebKit","Chrome","115.0.0.0","Windows","10.0","13934","","{""ecs1"":2,""fs5"":4,""pds2"":3,""pds1"":4,""fs2"":3,""pds5"":4,""pts2"":3,""pts1"":4,""pds7"":4,""ecs7"":3,""fs4"":4,""pts5"":1,""pds6"":3,""ecs5"":4,""pds3"":3,""pts6"":4,""fs3"":4,""ecs6"":3,""pts3"":3,""ecs4"":4,""pds4"":3,""fs1"":4,""fs7"":2,""fs6"":3,""ecs3"":4,""ecs2"":3,""pts4"":4,""pts7"":3}","[1,15,9,5,4,18,7,2,26,21,11,20,23,17,12,24,6,19,10,13,16,0,25,22,8,3,14,27]"
"","","","","","html-button-response","141","272057","0.0-14.0","74","1","2023-06-02 17:42:09","a806436d73fb3c2fb9db1ebeb6e0a607","104.171.169.87","Mozilla/5.0 (Windows NT 10.0; Win64; x64) AppleWebKit/537.36 (KHTML, like Gecko) Chrome/115.0.0.0 Safari/537.36","WebKit","Chrome","115.0.0.0","Windows","10.0","1543","<p><strong>Which of the following objects or statements do you have a positive or negative feeling towards? </strong></p><p><strong> (1 = ""Very negative"" to 7 = ""Very positive"") </strong></p>","0",""
"","","","","","survey-likert","142","290415","0.0-15.0","74","1","2023-06-02 17:42:09","a806436d73fb3c2fb9db1ebeb6e0a607","104.171.169.87","Mozilla/5.0 (Windows NT 10.0; Win64; x64) AppleWebKit/537.36 (KHTML, like Gecko) Chrome/115.0.0.0 Safari/537.36","WebKit","Chrome","115.0.0.0","Windows","10.0","18350","","{""sdo13"":5,""sdo5"":6,""sdo15"":5,""sdo6"":6,""sdo16"":6,""sdo10"":6,""sdo8"":6,""sdo3"":6,""sdo4"":5,""sdo7"":6,""sdo1"":6,""sdo14"":6,""sdo2"":5,""sdo9"":5,""sdo11"":6,""sdo12"":5}","[12,4,14,5,15,9,7,2,3,6,0,13,1,8,10,11]"
"","","","","","html-button-response","143","291851","0.0-16.0","74","1","2023-06-02 17:42:09","a806436d73fb3c2fb9db1ebeb6e0a607","104.171.169.87","Mozilla/5.0 (Windows NT 10.0; Win64; x64) AppleWebKit/537.36 (KHTML, like Gecko) Chrome/115.0.0.0 Safari/537.36","WebKit","Chrome","115.0.0.0","Windows","10.0","1428","<p><strong>Please indicate the extent you agree with the following statements.</strong></p><strong><p> (1 = ""Strongly Disagree"" to 5 = ""Srongly Agree"") </strong></p>","0",""
"","","","","","survey-likert","144","299748","0.0-17.0","74","1","2023-06-02 17:42:09","a806436d73fb3c2fb9db1ebeb6e0a607","104.171.169.87","Mozilla/5.0 (Windows NT 10.0; Win64; x64) AppleWebKit/537.36 (KHTML, like Gecko) Chrome/115.0.0.0 Safari/537.36","WebKit","Chrome","115.0.0.0","Windows","10.0","7890","","{""caring1"":4,""liking1"":4,""caring2"":4,""protection1"":4,""liking2"":4,""caring3"":3,""protection2"":4,""liking3"":4,""protection3"":4,""caring4"":4,""liking4"":4,""protection4"":4,""caring5"":3,""liking5"":4,""protection5"":4}","[0,1,2,3,4,5,6,7,8,9,10,11,12,13,14]"
"","","","","","html-button-response","145","301197","0.0-18.0","74","1","2023-06-02 17:42:09","a806436d73fb3c2fb9db1ebeb6e0a607","104.171.169.87","Mozilla/5.0 (Windows NT 10.0; Win64; x64) AppleWebKit/537.36 (KHTML, like Gecko) Chrome/115.0.0.0 Safari/537.36","WebKit","Chrome","115.0.0.0","Windows","10.0","1439","<p><strong>Please imagine spercific situations involving children below, and rate the amount of tenderness you would feel in each situation. </strong></p><p><strong> (Ternderness is ""a warm, gentle feeling of sympathetic affection."") </strong></p><strong><p> (1 = ""No tenderness at all"" to 5 = ""A lot of tenderness"") </strong></p>","0",""
"","","","","","survey-likert","146","308562","0.0-19.0","74","1","2023-06-02 17:42:09","a806436d73fb3c2fb9db1ebeb6e0a607","104.171.169.87","Mozilla/5.0 (Windows NT 10.0; Win64; x64) AppleWebKit/537.36 (KHTML, like Gecko) Chrome/115.0.0.0 Safari/537.36","WebKit","Chrome","115.0.0.0","Windows","10.0","7358","","{""tenderness-positive1"":3,""tenderness-negative1"":3,""tenderness-negative2"":4,""tenderness-positive2"":3,""tenderness-positive3"":4,""tenderness-negative3"":4,""tenderness-positive4"":4,""tendereness-negative4"":4,""tendernness-negative5"":4,""tenderness-positive5"":4}","[0,1,2,3,4,5,6,7,8,9]"
"","","","","","survey-multi-choice","147","312274","0.0-20.0","74","1","2023-06-02 17:42:09","a806436d73fb3c2fb9db1ebeb6e0a607","104.171.169.87","Mozilla/5.0 (Windows NT 10.0; Win64; x64) AppleWebKit/537.36 (KHTML, like Gecko) Chrome/115.0.0.0 Safari/537.36","WebKit","Chrome","115.0.0.0","Windows","10.0","3705","","{""Attention2"":""Other""}","[0]"
"","","","","","html-button-response","148","314200","0.0-21.0","74","1","2023-06-02 17:42:09","a806436d73fb3c2fb9db1ebeb6e0a607","104.171.169.87","Mozilla/5.0 (Windows NT 10.0; Win64; x64) AppleWebKit/537.36 (KHTML, like Gecko) Chrome/115.0.0.0 Safari/537.36","WebKit","Chrome","115.0.0.0","Windows","10.0","1915","<p><strong>Please indicate the extent you agree with the following statements.</strong></p>","0",""
"","","","","","survey-likert","149","323916","0.0-22.0","74","1","2023-06-02 17:42:09","a806436d73fb3c2fb9db1ebeb6e0a607","104.171.169.87","Mozilla/5.0 (Windows NT 10.0; Win64; x64) AppleWebKit/537.36 (KHTML, like Gecko) Chrome/115.0.0.0 Safari/537.36","WebKit","Chrome","115.0.0.0","Windows","10.0","9707","","{""Nation8"":4,""Patri4"":4,""Patri3"":4,""Patri10"":4,""Nation2"":3,""Nation4"":4,""Nation5"":4,""Patri6"":4,""Patri11"":4,""Nation1"":4,""Nation3"":4,""Nation7"":3,""Patri9"":4,""Patri7"":4,""Patri8"":4,""Patri2"":4,""Patri1"":4,""Patri5"":4,""Patri12"":3,""Nation6"":4}","[19,3,2,9,13,15,16,5,10,12,14,18,8,6,7,1,0,4,11,17]"
"","","","","","html-button-response","150","325321","0.0-23.0","74","1","2023-06-02 17:42:09","a806436d73fb3c2fb9db1ebeb6e0a607","104.171.169.87","Mozilla/5.0 (Windows NT 10.0; Win64; x64) AppleWebKit/537.36 (KHTML, like Gecko) Chrome/115.0.0.0 Safari/537.36","WebKit","Chrome","115.0.0.0","Windows","10.0","1397","<p><strong>Please indicate the extent you agree with the following statements. </p><p>(1 = ""never or definitely no"" and 9 = ""always or definitely yes"".)</strong></p>","0",""
"","","","","","survey-likert","151","338679","0.0-24.0","74","1","2023-06-02 17:42:09","a806436d73fb3c2fb9db1ebeb6e0a607","104.171.169.87","Mozilla/5.0 (Windows NT 10.0; Win64; x64) AppleWebKit/537.36 (KHTML, like Gecko) Chrome/115.0.0.0 Safari/537.36","WebKit","Chrome","115.0.0.0","Windows","10.0","13349","","{""hc4"":7,""hc3"":7,""hc2"":7,""hi4"":8,""vc4"":8,""vi1"":8,""vc3"":8,""hi3"":7,""vi3"":8,""hi1"":8,""Robot2"":6,""hc1"":8,""vc2"":7,""hi2"":8,""vi4"":8,""vc1"":8,""vi2"":7}","[12,11,10,3,16,4,15,2,6,0,7,9,14,1,8,13,5]"
"","","","","","survey-text","152","351054","0.0-25.0","74","1","2023-06-02 17:42:09","a806436d73fb3c2fb9db1ebeb6e0a607","104.171.169.87","Mozilla/5.0 (Windows NT 10.0; Win64; x64) AppleWebKit/537.36 (KHTML, like Gecko) Chrome/115.0.0.0 Safari/537.36","WebKit","Chrome","115.0.0.0","Windows","10.0","12351","","{""ID"":""A2ZWDFMFC1E4SQ"",""Comments"":""good survey""}",""
"","","","","","html-button-response","153","359909","0.0-26.0","74","1","2023-06-02 17:42:09","a806436d73fb3c2fb9db1ebeb6e0a607","104.171.169.87","Mozilla/5.0 (Windows NT 10.0; Win64; x64) AppleWebKit/537.36 (KHTML, like Gecko) Chrome/115.0.0.0 Safari/537.36","WebKit","Chrome","115.0.0.0","Windows","10.0","8850","<p><strong>Congratulations! </strong> Your have finished all the survey. Thank you for your participation!</p><p><strong>Here is your complete token:</strong></p>mfw8sj480g9hxcl3xqtloda<p></p><p><strong>Please copy it to the mTurk page.</strong></p>","0",""
