"success","timeout","failed_images","failed_audio","failed_video","trial_type","trial_index","time_elapsed","internal_node_id","run_id","condition","recorded_at","source_code_version","ip","user_agent","device","browser","browser_version","platform","platform_version","rt","stimulus","response","question_order"
"true","false","[]","[]","[]","preload","0","2936","0.0-0.0","79","1","2023-06-02 17:46:33","a806436d73fb3c2fb9db1ebeb6e0a607","204.242.0.42","Mozilla/5.0 (Windows NT 10.0; Win64; x64) AppleWebKit/537.36 (KHTML, like Gecko) Chrome/116.0.0.0 Safari/537.36","WebKit","Chrome","116.0.0.0","Windows","10.0","","","",""
"true","","","","","fullscreen","1","17139","0.0-1.0","79","1","2023-06-02 17:46:33","a806436d73fb3c2fb9db1ebeb6e0a607","204.242.0.42","Mozilla/5.0 (Windows NT 10.0; Win64; x64) AppleWebKit/537.36 (KHTML, like Gecko) Chrome/116.0.0.0 Safari/537.36","WebKit","Chrome","116.0.0.0","Windows","10.0","","","",""
"","","","","","html-button-response","2","18837","0.0-2.0","79","1","2023-06-02 17:46:33","a806436d73fb3c2fb9db1ebeb6e0a607","204.242.0.42","Mozilla/5.0 (Windows NT 10.0; Win64; x64) AppleWebKit/537.36 (KHTML, like Gecko) Chrome/116.0.0.0 Safari/537.36","WebKit","Chrome","116.0.0.0","Windows","10.0","1695","<p ><strong>Welcome to the experiment!</strong></p><p ><strong>In the first task, please imagine:</strong></p><p>Your country is involved in a military conflict with another country.</p><p>You are the commander of your army and must make decisions in the conflict.</p><p>Specifically, as the military commander, you must decide whether to launch a missile to strike enemy.</p><p>You will face a series of scenarios. Please read each scenario carefully and make a decision.</p><p>The task will take around 10 minutes to complete.</p><p><strong>Please pay your attention during the experiment.</strong></p>","0",""
"","","","","","html-keyboard-response","3","19840","0.0-3.0-0.0","79","1","2023-06-02 17:46:33","a806436d73fb3c2fb9db1ebeb6e0a607","204.242.0.42","Mozilla/5.0 (Windows NT 10.0; Win64; x64) AppleWebKit/537.36 (KHTML, like Gecko) Chrome/116.0.0.0 Safari/537.36","WebKit","Chrome","116.0.0.0","Windows","10.0","null","<div style=""font-size:60px;"">+</div>","null",""
"","","","","","html-button-response","4","21166","0.0-3.0-1.0","79","1","2023-06-02 17:46:33","a806436d73fb3c2fb9db1ebeb6e0a607","204.242.0.42","Mozilla/5.0 (Windows NT 10.0; Win64; x64) AppleWebKit/537.36 (KHTML, like Gecko) Chrome/116.0.0.0 Safari/537.36","WebKit","Chrome","116.0.0.0","Windows","10.0","1324","<p>As the military commander, you could choose to launch a missile to kill <strong>8 enemy soldiers</strong> , but would accidentally kill <strong>1 enemy civilian</strong> nearby.</p> <p>The photo of the <strong>enemy civilian</strong> is shown below.</p> <p></p> <img src='stimuli/faces/NFM3.jpg', style='max-width: 30%;'> </img> <p><strong>Would you launch the weapon?</strong></p>","0",""
"","","","","","html-keyboard-response","5","22170","0.0-3.0-0.1","79","1","2023-06-02 17:46:33","a806436d73fb3c2fb9db1ebeb6e0a607","204.242.0.42","Mozilla/5.0 (Windows NT 10.0; Win64; x64) AppleWebKit/537.36 (KHTML, like Gecko) Chrome/116.0.0.0 Safari/537.36","WebKit","Chrome","116.0.0.0","Windows","10.0","null","<div style=""font-size:60px;"">+</div>","null",""
"","","","","","html-button-response","6","22409","0.0-3.0-1.1","79","1","2023-06-02 17:46:33","a806436d73fb3c2fb9db1ebeb6e0a607","204.242.0.42","Mozilla/5.0 (Windows NT 10.0; Win64; x64) AppleWebKit/537.36 (KHTML, like Gecko) Chrome/116.0.0.0 Safari/537.36","WebKit","Chrome","116.0.0.0","Windows","10.0","236","<p>As the military commander, you could choose to launch a missile to kill <strong>7 enemy soldiers</strong> , but would accidentally kill <strong>1 enemy civilian</strong> nearby.</p> <p>The photo of the <strong>enemy civilian</strong> is shown below.</p> <p></p> <img src='stimuli/faces/NFM6.jpg', style='max-width: 30%;'> </img> <p><strong>Would you launch the weapon?</strong></p>","1",""
"","","","","","html-keyboard-response","7","23410","0.0-3.0-0.2","79","1","2023-06-02 17:46:33","a806436d73fb3c2fb9db1ebeb6e0a607","204.242.0.42","Mozilla/5.0 (Windows NT 10.0; Win64; x64) AppleWebKit/537.36 (KHTML, like Gecko) Chrome/116.0.0.0 Safari/537.36","WebKit","Chrome","116.0.0.0","Windows","10.0","null","<div style=""font-size:60px;"">+</div>","null",""
"","","","","","html-button-response","8","24917","0.0-3.0-1.2","79","1","2023-06-02 17:46:33","a806436d73fb3c2fb9db1ebeb6e0a607","204.242.0.42","Mozilla/5.0 (Windows NT 10.0; Win64; x64) AppleWebKit/537.36 (KHTML, like Gecko) Chrome/116.0.0.0 Safari/537.36","WebKit","Chrome","116.0.0.0","Windows","10.0","1505","<p>As the military commander, you could choose to launch a missile to kill <strong>5 enemy soldiers</strong> , but would accidentally kill <strong>1 enemy tree</strong> nearby.</p> <p>The photo of the <strong>enemy tree</strong> is shown below.</p> <p></p> <img src='stimuli/tree/1.png', style='max-width: 30%;'> </img> <p><strong>Would you launch the weapon?</strong></p>","0",""
"","","","","","html-keyboard-response","9","25918","0.0-3.0-0.3","79","1","2023-06-02 17:46:33","a806436d73fb3c2fb9db1ebeb6e0a607","204.242.0.42","Mozilla/5.0 (Windows NT 10.0; Win64; x64) AppleWebKit/537.36 (KHTML, like Gecko) Chrome/116.0.0.0 Safari/537.36","WebKit","Chrome","116.0.0.0","Windows","10.0","null","<div style=""font-size:60px;"">+</div>","null",""
"","","","","","html-button-response","10","27229","0.0-3.0-1.3","79","1","2023-06-02 17:46:33","a806436d73fb3c2fb9db1ebeb6e0a607","204.242.0.42","Mozilla/5.0 (Windows NT 10.0; Win64; x64) AppleWebKit/537.36 (KHTML, like Gecko) Chrome/116.0.0.0 Safari/537.36","WebKit","Chrome","116.0.0.0","Windows","10.0","1308","<p>As the military commander, you could choose to launch a missile to kill <strong>4 enemy soldiers</strong> , but would accidentally kill <strong>1 enemy civilian</strong> nearby.</p> <p>The photo of the <strong>enemy civilian</strong> is shown below.</p> <p></p> <img src='stimuli/faces/NFM6.jpg', style='max-width: 30%;'> </img> <p><strong>Would you launch the weapon?</strong></p>","0",""
"","","","","","html-keyboard-response","11","28230","0.0-3.0-0.4","79","1","2023-06-02 17:46:33","a806436d73fb3c2fb9db1ebeb6e0a607","204.242.0.42","Mozilla/5.0 (Windows NT 10.0; Win64; x64) AppleWebKit/537.36 (KHTML, like Gecko) Chrome/116.0.0.0 Safari/537.36","WebKit","Chrome","116.0.0.0","Windows","10.0","null","<div style=""font-size:60px;"">+</div>","null",""
"","","","","","html-button-response","12","29189","0.0-3.0-1.4","79","1","2023-06-02 17:46:33","a806436d73fb3c2fb9db1ebeb6e0a607","204.242.0.42","Mozilla/5.0 (Windows NT 10.0; Win64; x64) AppleWebKit/537.36 (KHTML, like Gecko) Chrome/116.0.0.0 Safari/537.36","WebKit","Chrome","116.0.0.0","Windows","10.0","957","<p>As the military commander, you could choose to launch a missile to kill <strong>9 enemy soldiers</strong> , but would accidentally kill <strong>1 enemy civilian</strong> nearby.</p> <p>The photo of the <strong>enemy civilian</strong> is shown below.</p> <p></p> <img src='stimuli/faces/NFF3.jpg', style='max-width: 30%;'> </img> <p><strong>Would you launch the weapon?</strong></p>","1",""
"","","","","","html-keyboard-response","13","30190","0.0-3.0-0.5","79","1","2023-06-02 17:46:33","a806436d73fb3c2fb9db1ebeb6e0a607","204.242.0.42","Mozilla/5.0 (Windows NT 10.0; Win64; x64) AppleWebKit/537.36 (KHTML, like Gecko) Chrome/116.0.0.0 Safari/537.36","WebKit","Chrome","116.0.0.0","Windows","10.0","null","<div style=""font-size:60px;"">+</div>","null",""
"","","","","","html-button-response","14","30340","0.0-3.0-1.5","79","1","2023-06-02 17:46:33","a806436d73fb3c2fb9db1ebeb6e0a607","204.242.0.42","Mozilla/5.0 (Windows NT 10.0; Win64; x64) AppleWebKit/537.36 (KHTML, like Gecko) Chrome/116.0.0.0 Safari/537.36","WebKit","Chrome","116.0.0.0","Windows","10.0","148","<p>As the military commander, you could choose to launch a missile to kill <strong>4 enemy soldiers</strong> , but would accidentally kill <strong>1 enemy civilian</strong> nearby.</p> <p>The photo of the <strong>enemy civilian</strong> is shown below.</p> <p></p> <img src='stimuli/faces/NFM7.jpg', style='max-width: 30%;'> </img> <p><strong>Would you launch the weapon?</strong></p>","0",""
"","","","","","html-keyboard-response","15","31341","0.0-3.0-0.6","79","1","2023-06-02 17:46:33","a806436d73fb3c2fb9db1ebeb6e0a607","204.242.0.42","Mozilla/5.0 (Windows NT 10.0; Win64; x64) AppleWebKit/537.36 (KHTML, like Gecko) Chrome/116.0.0.0 Safari/537.36","WebKit","Chrome","116.0.0.0","Windows","10.0","null","<div style=""font-size:60px;"">+</div>","null",""
"","","","","","html-button-response","16","31739","0.0-3.0-1.6","79","1","2023-06-02 17:46:33","a806436d73fb3c2fb9db1ebeb6e0a607","204.242.0.42","Mozilla/5.0 (Windows NT 10.0; Win64; x64) AppleWebKit/537.36 (KHTML, like Gecko) Chrome/116.0.0.0 Safari/537.36","WebKit","Chrome","116.0.0.0","Windows","10.0","394","<p>As the military commander, you could choose to launch a missile to kill <strong>3 enemy soldiers</strong> , but would accidentally kill <strong>1 enemy tree</strong> nearby.</p> <p>The photo of the <strong>enemy tree</strong> is shown below.</p> <p></p> <img src='stimuli/tree/5.png', style='max-width: 30%;'> </img> <p><strong>Would you launch the weapon?</strong></p>","1",""
"","","","","","html-keyboard-response","17","32741","0.0-3.0-0.7","79","1","2023-06-02 17:46:33","a806436d73fb3c2fb9db1ebeb6e0a607","204.242.0.42","Mozilla/5.0 (Windows NT 10.0; Win64; x64) AppleWebKit/537.36 (KHTML, like Gecko) Chrome/116.0.0.0 Safari/537.36","WebKit","Chrome","116.0.0.0","Windows","10.0","null","<div style=""font-size:60px;"">+</div>","null",""
"","","","","","html-button-response","18","32908","0.0-3.0-1.7","79","1","2023-06-02 17:46:33","a806436d73fb3c2fb9db1ebeb6e0a607","204.242.0.42","Mozilla/5.0 (Windows NT 10.0; Win64; x64) AppleWebKit/537.36 (KHTML, like Gecko) Chrome/116.0.0.0 Safari/537.36","WebKit","Chrome","116.0.0.0","Windows","10.0","165","<p>As the military commander, you could choose to launch a missile to kill <strong>4 enemy soldiers</strong> , but would accidentally kill <strong>1 enemy tree</strong> nearby.</p> <p>The photo of the <strong>enemy tree</strong> is shown below.</p> <p></p> <img src='stimuli/tree/3.png', style='max-width: 30%;'> </img> <p><strong>Would you launch the weapon?</strong></p>","0",""
"","","","","","html-keyboard-response","19","33913","0.0-3.0-0.8","79","1","2023-06-02 17:46:33","a806436d73fb3c2fb9db1ebeb6e0a607","204.242.0.42","Mozilla/5.0 (Windows NT 10.0; Win64; x64) AppleWebKit/537.36 (KHTML, like Gecko) Chrome/116.0.0.0 Safari/537.36","WebKit","Chrome","116.0.0.0","Windows","10.0","null","<div style=""font-size:60px;"">+</div>","null",""
"","","","","","html-button-response","20","34136","0.0-3.0-1.8","79","1","2023-06-02 17:46:33","a806436d73fb3c2fb9db1ebeb6e0a607","204.242.0.42","Mozilla/5.0 (Windows NT 10.0; Win64; x64) AppleWebKit/537.36 (KHTML, like Gecko) Chrome/116.0.0.0 Safari/537.36","WebKit","Chrome","116.0.0.0","Windows","10.0","215","<p>As the military commander, you could choose to launch a missile to kill <strong>6 enemy soldiers</strong> , but would accidentally kill <strong>1 enemy tree</strong> nearby.</p> <p>The photo of the <strong>enemy tree</strong> is shown below.</p> <p></p> <img src='stimuli/tree/8.png', style='max-width: 30%;'> </img> <p><strong>Would you launch the weapon?</strong></p>","1",""
"","","","","","html-keyboard-response","21","35141","0.0-3.0-0.9","79","1","2023-06-02 17:46:33","a806436d73fb3c2fb9db1ebeb6e0a607","204.242.0.42","Mozilla/5.0 (Windows NT 10.0; Win64; x64) AppleWebKit/537.36 (KHTML, like Gecko) Chrome/116.0.0.0 Safari/537.36","WebKit","Chrome","116.0.0.0","Windows","10.0","null","<div style=""font-size:60px;"">+</div>","null",""
"","","","","","html-button-response","22","35337","0.0-3.0-1.9","79","1","2023-06-02 17:46:33","a806436d73fb3c2fb9db1ebeb6e0a607","204.242.0.42","Mozilla/5.0 (Windows NT 10.0; Win64; x64) AppleWebKit/537.36 (KHTML, like Gecko) Chrome/116.0.0.0 Safari/537.36","WebKit","Chrome","116.0.0.0","Windows","10.0","193","<p>As the military commander, you could choose to launch a missile to kill <strong>8 enemy soldiers</strong> , but would accidentally kill <strong>1 enemy civilian</strong> nearby.</p> <p>The photo of the <strong>enemy civilian</strong> is shown below.</p> <p></p> <img src='stimuli/faces/NFF7.jpg', style='max-width: 30%;'> </img> <p><strong>Would you launch the weapon?</strong></p>","0",""
"","","","","","html-keyboard-response","23","36339","0.0-3.0-0.10","79","1","2023-06-02 17:46:33","a806436d73fb3c2fb9db1ebeb6e0a607","204.242.0.42","Mozilla/5.0 (Windows NT 10.0; Win64; x64) AppleWebKit/537.36 (KHTML, like Gecko) Chrome/116.0.0.0 Safari/537.36","WebKit","Chrome","116.0.0.0","Windows","10.0","null","<div style=""font-size:60px;"">+</div>","null",""
"","","","","","html-button-response","24","36564","0.0-3.0-1.10","79","1","2023-06-02 17:46:33","a806436d73fb3c2fb9db1ebeb6e0a607","204.242.0.42","Mozilla/5.0 (Windows NT 10.0; Win64; x64) AppleWebKit/537.36 (KHTML, like Gecko) Chrome/116.0.0.0 Safari/537.36","WebKit","Chrome","116.0.0.0","Windows","10.0","223","<p>As the military commander, you could choose to launch a missile to kill <strong>7 enemy soldiers</strong> , but would accidentally kill <strong>1 enemy civilian</strong> nearby.</p> <p>The photo of the <strong>enemy civilian</strong> is shown below.</p> <p></p> <img src='stimuli/faces/NFF4.jpg', style='max-width: 30%;'> </img> <p><strong>Would you launch the weapon?</strong></p>","1",""
"","","","","","html-keyboard-response","25","37567","0.0-3.0-0.11","79","1","2023-06-02 17:46:33","a806436d73fb3c2fb9db1ebeb6e0a607","204.242.0.42","Mozilla/5.0 (Windows NT 10.0; Win64; x64) AppleWebKit/537.36 (KHTML, like Gecko) Chrome/116.0.0.0 Safari/537.36","WebKit","Chrome","116.0.0.0","Windows","10.0","null","<div style=""font-size:60px;"">+</div>","null",""
"","","","","","html-button-response","26","37821","0.0-3.0-1.11","79","1","2023-06-02 17:46:33","a806436d73fb3c2fb9db1ebeb6e0a607","204.242.0.42","Mozilla/5.0 (Windows NT 10.0; Win64; x64) AppleWebKit/537.36 (KHTML, like Gecko) Chrome/116.0.0.0 Safari/537.36","WebKit","Chrome","116.0.0.0","Windows","10.0","252","<p>As the military commander, you could choose to launch a missile to kill <strong>5 enemy soldiers</strong> , but would accidentally kill <strong>1 enemy tree</strong> nearby.</p> <p>The photo of the <strong>enemy tree</strong> is shown below.</p> <p></p> <img src='stimuli/tree/9.png', style='max-width: 30%;'> </img> <p><strong>Would you launch the weapon?</strong></p>","0",""
"","","","","","html-keyboard-response","27","38823","0.0-3.0-0.12","79","1","2023-06-02 17:46:33","a806436d73fb3c2fb9db1ebeb6e0a607","204.242.0.42","Mozilla/5.0 (Windows NT 10.0; Win64; x64) AppleWebKit/537.36 (KHTML, like Gecko) Chrome/116.0.0.0 Safari/537.36","WebKit","Chrome","116.0.0.0","Windows","10.0","null","<div style=""font-size:60px;"">+</div>","null",""
"","","","","","html-button-response","28","39709","0.0-3.0-1.12","79","1","2023-06-02 17:46:33","a806436d73fb3c2fb9db1ebeb6e0a607","204.242.0.42","Mozilla/5.0 (Windows NT 10.0; Win64; x64) AppleWebKit/537.36 (KHTML, like Gecko) Chrome/116.0.0.0 Safari/537.36","WebKit","Chrome","116.0.0.0","Windows","10.0","882","<p>As the military commander, you could choose to launch a missile to kill <strong>2 enemy soldiers</strong> , but would accidentally kill <strong>1 enemy tree</strong> nearby.</p> <p>The photo of the <strong>enemy tree</strong> is shown below.</p> <p></p> <img src='stimuli/tree/7.png', style='max-width: 30%;'> </img> <p><strong>Would you launch the weapon?</strong></p>","0",""
"","","","","","html-keyboard-response","29","40712","0.0-3.0-0.13","79","1","2023-06-02 17:46:33","a806436d73fb3c2fb9db1ebeb6e0a607","204.242.0.42","Mozilla/5.0 (Windows NT 10.0; Win64; x64) AppleWebKit/537.36 (KHTML, like Gecko) Chrome/116.0.0.0 Safari/537.36","WebKit","Chrome","116.0.0.0","Windows","10.0","null","<div style=""font-size:60px;"">+</div>","null",""
"","","","","","html-button-response","30","44271","0.0-3.0-1.13","79","1","2023-06-02 17:46:33","a806436d73fb3c2fb9db1ebeb6e0a607","204.242.0.42","Mozilla/5.0 (Windows NT 10.0; Win64; x64) AppleWebKit/537.36 (KHTML, like Gecko) Chrome/116.0.0.0 Safari/537.36","WebKit","Chrome","116.0.0.0","Windows","10.0","3555","<p>As the military commander, you could choose to launch a missile to kill <strong>3 enemy soldiers</strong> , but would accidentally kill <strong>1 enemy civilian</strong> nearby.</p> <p>The photo of the <strong>enemy civilian</strong> is shown below.</p> <p></p> <img src='stimuli/faces/NFM4.jpg', style='max-width: 30%;'> </img> <p><strong>Would you launch the weapon?</strong></p>","0",""
"","","","","","html-keyboard-response","31","45274","0.0-3.0-0.14","79","1","2023-06-02 17:46:33","a806436d73fb3c2fb9db1ebeb6e0a607","204.242.0.42","Mozilla/5.0 (Windows NT 10.0; Win64; x64) AppleWebKit/537.36 (KHTML, like Gecko) Chrome/116.0.0.0 Safari/537.36","WebKit","Chrome","116.0.0.0","Windows","10.0","null","<div style=""font-size:60px;"">+</div>","null",""
"","","","","","html-button-response","32","46049","0.0-3.0-1.14","79","1","2023-06-02 17:46:33","a806436d73fb3c2fb9db1ebeb6e0a607","204.242.0.42","Mozilla/5.0 (Windows NT 10.0; Win64; x64) AppleWebKit/537.36 (KHTML, like Gecko) Chrome/116.0.0.0 Safari/537.36","WebKit","Chrome","116.0.0.0","Windows","10.0","772","<p>As the military commander, you could choose to launch a missile to kill <strong>4 enemy soldiers</strong> , but would accidentally kill <strong>1 enemy civilian</strong> nearby.</p> <p>The photo of the <strong>enemy civilian</strong> is shown below.</p> <p></p> <img src='stimuli/faces/NFF8.jpg', style='max-width: 30%;'> </img> <p><strong>Would you launch the weapon?</strong></p>","0",""
"","","","","","html-keyboard-response","33","47051","0.0-3.0-0.15","79","1","2023-06-02 17:46:33","a806436d73fb3c2fb9db1ebeb6e0a607","204.242.0.42","Mozilla/5.0 (Windows NT 10.0; Win64; x64) AppleWebKit/537.36 (KHTML, like Gecko) Chrome/116.0.0.0 Safari/537.36","WebKit","Chrome","116.0.0.0","Windows","10.0","null","<div style=""font-size:60px;"">+</div>","null",""
"","","","","","html-button-response","34","47909","0.0-3.0-1.15","79","1","2023-06-02 17:46:33","a806436d73fb3c2fb9db1ebeb6e0a607","204.242.0.42","Mozilla/5.0 (Windows NT 10.0; Win64; x64) AppleWebKit/537.36 (KHTML, like Gecko) Chrome/116.0.0.0 Safari/537.36","WebKit","Chrome","116.0.0.0","Windows","10.0","854","<p>As the military commander, you could choose to launch a missile to kill <strong>9 enemy soldiers</strong> , but would accidentally kill <strong>1 enemy tree</strong> nearby.</p> <p>The photo of the <strong>enemy tree</strong> is shown below.</p> <p></p> <img src='stimuli/tree/11.png', style='max-width: 30%;'> </img> <p><strong>Would you launch the weapon?</strong></p>","0",""
"","","","","","html-keyboard-response","35","48912","0.0-3.0-0.16","79","1","2023-06-02 17:46:33","a806436d73fb3c2fb9db1ebeb6e0a607","204.242.0.42","Mozilla/5.0 (Windows NT 10.0; Win64; x64) AppleWebKit/537.36 (KHTML, like Gecko) Chrome/116.0.0.0 Safari/537.36","WebKit","Chrome","116.0.0.0","Windows","10.0","null","<div style=""font-size:60px;"">+</div>","null",""
"","","","","","html-button-response","36","50461","0.0-3.0-1.16","79","1","2023-06-02 17:46:33","a806436d73fb3c2fb9db1ebeb6e0a607","204.242.0.42","Mozilla/5.0 (Windows NT 10.0; Win64; x64) AppleWebKit/537.36 (KHTML, like Gecko) Chrome/116.0.0.0 Safari/537.36","WebKit","Chrome","116.0.0.0","Windows","10.0","1544","<p>As the military commander, you could choose to launch a missile to kill <strong>9 enemy soldiers</strong> , but would accidentally kill <strong>1 enemy tree</strong> nearby.</p> <p>The photo of the <strong>enemy tree</strong> is shown below.</p> <p></p> <img src='stimuli/tree/13.png', style='max-width: 30%;'> </img> <p><strong>Would you launch the weapon?</strong></p>","0",""
"","","","","","html-keyboard-response","37","51464","0.0-3.0-0.17","79","1","2023-06-02 17:46:33","a806436d73fb3c2fb9db1ebeb6e0a607","204.242.0.42","Mozilla/5.0 (Windows NT 10.0; Win64; x64) AppleWebKit/537.36 (KHTML, like Gecko) Chrome/116.0.0.0 Safari/537.36","WebKit","Chrome","116.0.0.0","Windows","10.0","null","<div style=""font-size:60px;"">+</div>","null",""
"","","","","","html-button-response","38","52580","0.0-3.0-1.17","79","1","2023-06-02 17:46:33","a806436d73fb3c2fb9db1ebeb6e0a607","204.242.0.42","Mozilla/5.0 (Windows NT 10.0; Win64; x64) AppleWebKit/537.36 (KHTML, like Gecko) Chrome/116.0.0.0 Safari/537.36","WebKit","Chrome","116.0.0.0","Windows","10.0","1114","<p>As the military commander, you could choose to launch a missile to kill <strong>9 enemy soldiers</strong> , but would accidentally kill <strong>1 enemy civilian</strong> nearby.</p> <p>The photo of the <strong>enemy civilian</strong> is shown below.</p> <p></p> <img src='stimuli/faces/NFF5.jpg', style='max-width: 30%;'> </img> <p><strong>Would you launch the weapon?</strong></p>","0",""
"","","","","","html-keyboard-response","39","53582","0.0-3.0-0.18","79","1","2023-06-02 17:46:33","a806436d73fb3c2fb9db1ebeb6e0a607","204.242.0.42","Mozilla/5.0 (Windows NT 10.0; Win64; x64) AppleWebKit/537.36 (KHTML, like Gecko) Chrome/116.0.0.0 Safari/537.36","WebKit","Chrome","116.0.0.0","Windows","10.0","null","<div style=""font-size:60px;"">+</div>","null",""
"","","","","","html-button-response","40","93241","0.0-3.0-1.18","79","1","2023-06-02 17:46:33","a806436d73fb3c2fb9db1ebeb6e0a607","204.242.0.42","Mozilla/5.0 (Windows NT 10.0; Win64; x64) AppleWebKit/537.36 (KHTML, like Gecko) Chrome/116.0.0.0 Safari/537.36","WebKit","Chrome","116.0.0.0","Windows","10.0","39655","<p>As the military commander, you could choose to launch a missile to kill <strong>9 enemy soldiers</strong> , but would accidentally kill <strong>1 enemy tree</strong> nearby.</p> <p>The photo of the <strong>enemy tree</strong> is shown below.</p> <p></p> <img src='stimuli/tree/15.png', style='max-width: 30%;'> </img> <p><strong>Would you launch the weapon?</strong></p>","0",""
"","","","","","html-keyboard-response","41","94243","0.0-3.0-0.19","79","1","2023-06-02 17:46:33","a806436d73fb3c2fb9db1ebeb6e0a607","204.242.0.42","Mozilla/5.0 (Windows NT 10.0; Win64; x64) AppleWebKit/537.36 (KHTML, like Gecko) Chrome/116.0.0.0 Safari/537.36","WebKit","Chrome","116.0.0.0","Windows","10.0","null","<div style=""font-size:60px;"">+</div>","null",""
"","","","","","html-button-response","42","95440","0.0-3.0-1.19","79","1","2023-06-02 17:46:33","a806436d73fb3c2fb9db1ebeb6e0a607","204.242.0.42","Mozilla/5.0 (Windows NT 10.0; Win64; x64) AppleWebKit/537.36 (KHTML, like Gecko) Chrome/116.0.0.0 Safari/537.36","WebKit","Chrome","116.0.0.0","Windows","10.0","1192","<p>As the military commander, you could choose to launch a missile to kill <strong>6 enemy soldiers</strong> , but would accidentally kill <strong>1 enemy tree</strong> nearby.</p> <p>The photo of the <strong>enemy tree</strong> is shown below.</p> <p></p> <img src='stimuli/tree/7.png', style='max-width: 30%;'> </img> <p><strong>Would you launch the weapon?</strong></p>","0",""
"","","","","","html-keyboard-response","43","96443","0.0-3.0-0.20","79","1","2023-06-02 17:46:33","a806436d73fb3c2fb9db1ebeb6e0a607","204.242.0.42","Mozilla/5.0 (Windows NT 10.0; Win64; x64) AppleWebKit/537.36 (KHTML, like Gecko) Chrome/116.0.0.0 Safari/537.36","WebKit","Chrome","116.0.0.0","Windows","10.0","null","<div style=""font-size:60px;"">+</div>","null",""
"","","","","","html-button-response","44","97706","0.0-3.0-1.20","79","1","2023-06-02 17:46:33","a806436d73fb3c2fb9db1ebeb6e0a607","204.242.0.42","Mozilla/5.0 (Windows NT 10.0; Win64; x64) AppleWebKit/537.36 (KHTML, like Gecko) Chrome/116.0.0.0 Safari/537.36","WebKit","Chrome","116.0.0.0","Windows","10.0","1260","<p>As the military commander, you could choose to launch a missile to kill <strong>5 enemy soldiers</strong> , but would accidentally kill <strong>1 enemy tree</strong> nearby.</p> <p>The photo of the <strong>enemy tree</strong> is shown below.</p> <p></p> <img src='stimuli/tree/12.png', style='max-width: 30%;'> </img> <p><strong>Would you launch the weapon?</strong></p>","0",""
"","","","","","html-keyboard-response","45","98710","0.0-3.0-0.21","79","1","2023-06-02 17:46:33","a806436d73fb3c2fb9db1ebeb6e0a607","204.242.0.42","Mozilla/5.0 (Windows NT 10.0; Win64; x64) AppleWebKit/537.36 (KHTML, like Gecko) Chrome/116.0.0.0 Safari/537.36","WebKit","Chrome","116.0.0.0","Windows","10.0","null","<div style=""font-size:60px;"">+</div>","null",""
"","","","","","html-button-response","46","99890","0.0-3.0-1.21","79","1","2023-06-02 17:46:33","a806436d73fb3c2fb9db1ebeb6e0a607","204.242.0.42","Mozilla/5.0 (Windows NT 10.0; Win64; x64) AppleWebKit/537.36 (KHTML, like Gecko) Chrome/116.0.0.0 Safari/537.36","WebKit","Chrome","116.0.0.0","Windows","10.0","1174","<p>As the military commander, you could choose to launch a missile to kill <strong>2 enemy soldiers</strong> , but would accidentally kill <strong>1 enemy civilian</strong> nearby.</p> <p>The photo of the <strong>enemy civilian</strong> is shown below.</p> <p></p> <img src='stimuli/faces/NFF6.jpg', style='max-width: 30%;'> </img> <p><strong>Would you launch the weapon?</strong></p>","0",""
"","","","","","html-keyboard-response","47","100892","0.0-3.0-0.22","79","1","2023-06-02 17:46:33","a806436d73fb3c2fb9db1ebeb6e0a607","204.242.0.42","Mozilla/5.0 (Windows NT 10.0; Win64; x64) AppleWebKit/537.36 (KHTML, like Gecko) Chrome/116.0.0.0 Safari/537.36","WebKit","Chrome","116.0.0.0","Windows","10.0","null","<div style=""font-size:60px;"">+</div>","null",""
"","","","","","html-button-response","48","101747","0.0-3.0-1.22","79","1","2023-06-02 17:46:33","a806436d73fb3c2fb9db1ebeb6e0a607","204.242.0.42","Mozilla/5.0 (Windows NT 10.0; Win64; x64) AppleWebKit/537.36 (KHTML, like Gecko) Chrome/116.0.0.0 Safari/537.36","WebKit","Chrome","116.0.0.0","Windows","10.0","851","<p>As the military commander, you could choose to launch a missile to kill <strong>8 enemy soldiers</strong> , but would accidentally kill <strong>1 enemy civilian</strong> nearby.</p> <p>The photo of the <strong>enemy civilian</strong> is shown below.</p> <p></p> <img src='stimuli/faces/NFF2.jpg', style='max-width: 30%;'> </img> <p><strong>Would you launch the weapon?</strong></p>","0",""
"","","","","","html-keyboard-response","49","102749","0.0-3.0-0.23","79","1","2023-06-02 17:46:33","a806436d73fb3c2fb9db1ebeb6e0a607","204.242.0.42","Mozilla/5.0 (Windows NT 10.0; Win64; x64) AppleWebKit/537.36 (KHTML, like Gecko) Chrome/116.0.0.0 Safari/537.36","WebKit","Chrome","116.0.0.0","Windows","10.0","null","<div style=""font-size:60px;"">+</div>","null",""
"","","","","","html-button-response","50","103386","0.0-3.0-1.23","79","1","2023-06-02 17:46:33","a806436d73fb3c2fb9db1ebeb6e0a607","204.242.0.42","Mozilla/5.0 (Windows NT 10.0; Win64; x64) AppleWebKit/537.36 (KHTML, like Gecko) Chrome/116.0.0.0 Safari/537.36","WebKit","Chrome","116.0.0.0","Windows","10.0","633","<p>As the military commander, you could choose to launch a missile to kill <strong>10 enemy soldiers</strong> , but would accidentally kill <strong>1 enemy civilian</strong> nearby.</p> <p>The photo of the <strong>enemy civilian</strong> is shown below.</p> <p></p> <img src='stimuli/faces/NFF8.jpg', style='max-width: 30%;'> </img> <p><strong>Would you launch the weapon?</strong></p>","0",""
"","","","","","html-keyboard-response","51","104390","0.0-3.0-0.24","79","1","2023-06-02 17:46:33","a806436d73fb3c2fb9db1ebeb6e0a607","204.242.0.42","Mozilla/5.0 (Windows NT 10.0; Win64; x64) AppleWebKit/537.36 (KHTML, like Gecko) Chrome/116.0.0.0 Safari/537.36","WebKit","Chrome","116.0.0.0","Windows","10.0","null","<div style=""font-size:60px;"">+</div>","null",""
"","","","","","html-button-response","52","104570","0.0-3.0-1.24","79","1","2023-06-02 17:46:33","a806436d73fb3c2fb9db1ebeb6e0a607","204.242.0.42","Mozilla/5.0 (Windows NT 10.0; Win64; x64) AppleWebKit/537.36 (KHTML, like Gecko) Chrome/116.0.0.0 Safari/537.36","WebKit","Chrome","116.0.0.0","Windows","10.0","175","<p>As the military commander, you could choose to launch a missile to kill <strong>10 enemy soldiers</strong> , but would accidentally kill <strong>1 enemy civilian</strong> nearby.</p> <p>The photo of the <strong>enemy civilian</strong> is shown below.</p> <p></p> <img src='stimuli/faces/NFM1.jpg', style='max-width: 30%;'> </img> <p><strong>Would you launch the weapon?</strong></p>","0",""
"","","","","","html-keyboard-response","53","105574","0.0-3.0-0.25","79","1","2023-06-02 17:46:33","a806436d73fb3c2fb9db1ebeb6e0a607","204.242.0.42","Mozilla/5.0 (Windows NT 10.0; Win64; x64) AppleWebKit/537.36 (KHTML, like Gecko) Chrome/116.0.0.0 Safari/537.36","WebKit","Chrome","116.0.0.0","Windows","10.0","null","<div style=""font-size:60px;"">+</div>","null",""
"","","","","","html-button-response","54","106012","0.0-3.0-1.25","79","1","2023-06-02 17:46:33","a806436d73fb3c2fb9db1ebeb6e0a607","204.242.0.42","Mozilla/5.0 (Windows NT 10.0; Win64; x64) AppleWebKit/537.36 (KHTML, like Gecko) Chrome/116.0.0.0 Safari/537.36","WebKit","Chrome","116.0.0.0","Windows","10.0","432","<p>As the military commander, you could choose to launch a missile to kill <strong>2 enemy soldiers</strong> , but would accidentally kill <strong>1 enemy civilian</strong> nearby.</p> <p>The photo of the <strong>enemy civilian</strong> is shown below.</p> <p></p> <img src='stimuli/faces/NFM1.jpg', style='max-width: 30%;'> </img> <p><strong>Would you launch the weapon?</strong></p>","1",""
"","","","","","html-keyboard-response","55","107016","0.0-3.0-0.26","79","1","2023-06-02 17:46:33","a806436d73fb3c2fb9db1ebeb6e0a607","204.242.0.42","Mozilla/5.0 (Windows NT 10.0; Win64; x64) AppleWebKit/537.36 (KHTML, like Gecko) Chrome/116.0.0.0 Safari/537.36","WebKit","Chrome","116.0.0.0","Windows","10.0","null","<div style=""font-size:60px;"">+</div>","null",""
"","","","","","html-button-response","56","427056","0.0-3.0-1.26","79","1","2023-06-02 17:46:33","a806436d73fb3c2fb9db1ebeb6e0a607","204.242.0.42","Mozilla/5.0 (Windows NT 10.0; Win64; x64) AppleWebKit/537.36 (KHTML, like Gecko) Chrome/116.0.0.0 Safari/537.36","WebKit","Chrome","116.0.0.0","Windows","10.0","320015","<p>As the military commander, you could choose to launch a missile to kill <strong>1 enemy soldier</strong> , but would accidentally kill <strong>1 enemy civilian</strong> nearby.</p> <p>The photo of the <strong>enemy civilian</strong> is shown below.</p> <p></p> <img src='stimuli/faces/NFF5.jpg', style='max-width: 30%;'> </img> <p><strong>Would you launch the weapon?</strong></p>","0",""
"","","","","","html-keyboard-response","57","428098","0.0-3.0-0.27","79","1","2023-06-02 17:46:33","a806436d73fb3c2fb9db1ebeb6e0a607","204.242.0.42","Mozilla/5.0 (Windows NT 10.0; Win64; x64) AppleWebKit/537.36 (KHTML, like Gecko) Chrome/116.0.0.0 Safari/537.36","WebKit","Chrome","116.0.0.0","Windows","10.0","null","<div style=""font-size:60px;"">+</div>","null",""
"","","","","","html-button-response","58","429956","0.0-3.0-1.27","79","1","2023-06-02 17:46:33","a806436d73fb3c2fb9db1ebeb6e0a607","204.242.0.42","Mozilla/5.0 (Windows NT 10.0; Win64; x64) AppleWebKit/537.36 (KHTML, like Gecko) Chrome/116.0.0.0 Safari/537.36","WebKit","Chrome","116.0.0.0","Windows","10.0","1834","<p>As the military commander, you could choose to launch a missile to kill <strong>8 enemy soldiers</strong> , but would accidentally kill <strong>1 enemy civilian</strong> nearby.</p> <p>The photo of the <strong>enemy civilian</strong> is shown below.</p> <p></p> <img src='stimuli/faces/NFM5.jpg', style='max-width: 30%;'> </img> <p><strong>Would you launch the weapon?</strong></p>","1",""
"","","","","","html-keyboard-response","59","430959","0.0-3.0-0.28","79","1","2023-06-02 17:46:33","a806436d73fb3c2fb9db1ebeb6e0a607","204.242.0.42","Mozilla/5.0 (Windows NT 10.0; Win64; x64) AppleWebKit/537.36 (KHTML, like Gecko) Chrome/116.0.0.0 Safari/537.36","WebKit","Chrome","116.0.0.0","Windows","10.0","null","<div style=""font-size:60px;"">+</div>","null",""
"","","","","","html-button-response","60","431635","0.0-3.0-1.28","79","1","2023-06-02 17:46:33","a806436d73fb3c2fb9db1ebeb6e0a607","204.242.0.42","Mozilla/5.0 (Windows NT 10.0; Win64; x64) AppleWebKit/537.36 (KHTML, like Gecko) Chrome/116.0.0.0 Safari/537.36","WebKit","Chrome","116.0.0.0","Windows","10.0","673","<p>As the military commander, you could choose to launch a missile to kill <strong>10 enemy soldiers</strong> , but would accidentally kill <strong>1 enemy tree</strong> nearby.</p> <p>The photo of the <strong>enemy tree</strong> is shown below.</p> <p></p> <img src='stimuli/tree/9.png', style='max-width: 30%;'> </img> <p><strong>Would you launch the weapon?</strong></p>","0",""
"","","","","","html-keyboard-response","61","432638","0.0-3.0-0.29","79","1","2023-06-02 17:46:33","a806436d73fb3c2fb9db1ebeb6e0a607","204.242.0.42","Mozilla/5.0 (Windows NT 10.0; Win64; x64) AppleWebKit/537.36 (KHTML, like Gecko) Chrome/116.0.0.0 Safari/537.36","WebKit","Chrome","116.0.0.0","Windows","10.0","null","<div style=""font-size:60px;"">+</div>","null",""
"","","","","","html-button-response","62","458317","0.0-3.0-1.29","79","1","2023-06-02 17:46:33","a806436d73fb3c2fb9db1ebeb6e0a607","204.242.0.42","Mozilla/5.0 (Windows NT 10.0; Win64; x64) AppleWebKit/537.36 (KHTML, like Gecko) Chrome/116.0.0.0 Safari/537.36","WebKit","Chrome","116.0.0.0","Windows","10.0","25675","<p>As the military commander, you could choose to launch a missile to kill <strong>8 enemy soldiers</strong> , but would accidentally kill <strong>1 enemy tree</strong> nearby.</p> <p>The photo of the <strong>enemy tree</strong> is shown below.</p> <p></p> <img src='stimuli/tree/4.png', style='max-width: 30%;'> </img> <p><strong>Would you launch the weapon?</strong></p>","0",""
"","","","","","html-keyboard-response","63","459322","0.0-3.0-0.30","79","1","2023-06-02 17:46:33","a806436d73fb3c2fb9db1ebeb6e0a607","204.242.0.42","Mozilla/5.0 (Windows NT 10.0; Win64; x64) AppleWebKit/537.36 (KHTML, like Gecko) Chrome/116.0.0.0 Safari/537.36","WebKit","Chrome","116.0.0.0","Windows","10.0","null","<div style=""font-size:60px;"">+</div>","null",""
"","","","","","html-button-response","64","460852","0.0-3.0-1.30","79","1","2023-06-02 17:46:33","a806436d73fb3c2fb9db1ebeb6e0a607","204.242.0.42","Mozilla/5.0 (Windows NT 10.0; Win64; x64) AppleWebKit/537.36 (KHTML, like Gecko) Chrome/116.0.0.0 Safari/537.36","WebKit","Chrome","116.0.0.0","Windows","10.0","1524","<p>As the military commander, you could choose to launch a missile to kill <strong>1 enemy soldier</strong> , but would accidentally kill <strong>1 enemy civilian</strong> nearby.</p> <p>The photo of the <strong>enemy civilian</strong> is shown below.</p> <p></p> <img src='stimuli/faces/NFM5.jpg', style='max-width: 30%;'> </img> <p><strong>Would you launch the weapon?</strong></p>","1",""
"","","","","","html-keyboard-response","65","461854","0.0-3.0-0.31","79","1","2023-06-02 17:46:33","a806436d73fb3c2fb9db1ebeb6e0a607","204.242.0.42","Mozilla/5.0 (Windows NT 10.0; Win64; x64) AppleWebKit/537.36 (KHTML, like Gecko) Chrome/116.0.0.0 Safari/537.36","WebKit","Chrome","116.0.0.0","Windows","10.0","null","<div style=""font-size:60px;"">+</div>","null",""
"","","","","","html-button-response","66","462993","0.0-3.0-1.31","79","1","2023-06-02 17:46:33","a806436d73fb3c2fb9db1ebeb6e0a607","204.242.0.42","Mozilla/5.0 (Windows NT 10.0; Win64; x64) AppleWebKit/537.36 (KHTML, like Gecko) Chrome/116.0.0.0 Safari/537.36","WebKit","Chrome","116.0.0.0","Windows","10.0","1133","<p>As the military commander, you could choose to launch a missile to kill <strong>8 enemy soldiers</strong> , but would accidentally kill <strong>1 enemy tree</strong> nearby.</p> <p>The photo of the <strong>enemy tree</strong> is shown below.</p> <p></p> <img src='stimuli/tree/14.png', style='max-width: 30%;'> </img> <p><strong>Would you launch the weapon?</strong></p>","0",""
"","","","","","html-keyboard-response","67","463994","0.0-3.0-0.32","79","1","2023-06-02 17:46:33","a806436d73fb3c2fb9db1ebeb6e0a607","204.242.0.42","Mozilla/5.0 (Windows NT 10.0; Win64; x64) AppleWebKit/537.36 (KHTML, like Gecko) Chrome/116.0.0.0 Safari/537.36","WebKit","Chrome","116.0.0.0","Windows","10.0","null","<div style=""font-size:60px;"">+</div>","null",""
"","","","","","html-button-response","68","464573","0.0-3.0-1.32","79","1","2023-06-02 17:46:33","a806436d73fb3c2fb9db1ebeb6e0a607","204.242.0.42","Mozilla/5.0 (Windows NT 10.0; Win64; x64) AppleWebKit/537.36 (KHTML, like Gecko) Chrome/116.0.0.0 Safari/537.36","WebKit","Chrome","116.0.0.0","Windows","10.0","575","<p>As the military commander, you could choose to launch a missile to kill <strong>9 enemy soldiers</strong> , but would accidentally kill <strong>1 enemy tree</strong> nearby.</p> <p>The photo of the <strong>enemy tree</strong> is shown below.</p> <p></p> <img src='stimuli/tree/6.png', style='max-width: 30%;'> </img> <p><strong>Would you launch the weapon?</strong></p>","0",""
"","","","","","html-keyboard-response","69","465577","0.0-3.0-0.33","79","1","2023-06-02 17:46:33","a806436d73fb3c2fb9db1ebeb6e0a607","204.242.0.42","Mozilla/5.0 (Windows NT 10.0; Win64; x64) AppleWebKit/537.36 (KHTML, like Gecko) Chrome/116.0.0.0 Safari/537.36","WebKit","Chrome","116.0.0.0","Windows","10.0","null","<div style=""font-size:60px;"">+</div>","null",""
"","","","","","html-button-response","70","466068","0.0-3.0-1.33","79","1","2023-06-02 17:46:33","a806436d73fb3c2fb9db1ebeb6e0a607","204.242.0.42","Mozilla/5.0 (Windows NT 10.0; Win64; x64) AppleWebKit/537.36 (KHTML, like Gecko) Chrome/116.0.0.0 Safari/537.36","WebKit","Chrome","116.0.0.0","Windows","10.0","487","<p>As the military commander, you could choose to launch a missile to kill <strong>1 enemy soldier</strong> , but would accidentally kill <strong>1 enemy civilian</strong> nearby.</p> <p>The photo of the <strong>enemy civilian</strong> is shown below.</p> <p></p> <img src='stimuli/faces/NFF2.jpg', style='max-width: 30%;'> </img> <p><strong>Would you launch the weapon?</strong></p>","0",""
"","","","","","html-keyboard-response","71","467088","0.0-3.0-0.34","79","1","2023-06-02 17:46:33","a806436d73fb3c2fb9db1ebeb6e0a607","204.242.0.42","Mozilla/5.0 (Windows NT 10.0; Win64; x64) AppleWebKit/537.36 (KHTML, like Gecko) Chrome/116.0.0.0 Safari/537.36","WebKit","Chrome","116.0.0.0","Windows","10.0","null","<div style=""font-size:60px;"">+</div>","null",""
"","","","","","html-button-response","72","470780","0.0-3.0-1.34","79","1","2023-06-02 17:46:33","a806436d73fb3c2fb9db1ebeb6e0a607","204.242.0.42","Mozilla/5.0 (Windows NT 10.0; Win64; x64) AppleWebKit/537.36 (KHTML, like Gecko) Chrome/116.0.0.0 Safari/537.36","WebKit","Chrome","116.0.0.0","Windows","10.0","3688","<p>As the military commander, you could choose to launch a missile to kill <strong>10 enemy soldiers</strong> , but would accidentally kill <strong>1 enemy civilian</strong> nearby.</p> <p>The photo of the <strong>enemy civilian</strong> is shown below.</p> <p></p> <img src='stimuli/faces/NFM8.jpg', style='max-width: 30%;'> </img> <p><strong>Would you launch the weapon?</strong></p>","0",""
"","","","","","html-keyboard-response","73","471783","0.0-3.0-0.35","79","1","2023-06-02 17:46:33","a806436d73fb3c2fb9db1ebeb6e0a607","204.242.0.42","Mozilla/5.0 (Windows NT 10.0; Win64; x64) AppleWebKit/537.36 (KHTML, like Gecko) Chrome/116.0.0.0 Safari/537.36","WebKit","Chrome","116.0.0.0","Windows","10.0","null","<div style=""font-size:60px;"">+</div>","null",""
"","","","","","html-button-response","74","475444","0.0-3.0-1.35","79","1","2023-06-02 17:46:33","a806436d73fb3c2fb9db1ebeb6e0a607","204.242.0.42","Mozilla/5.0 (Windows NT 10.0; Win64; x64) AppleWebKit/537.36 (KHTML, like Gecko) Chrome/116.0.0.0 Safari/537.36","WebKit","Chrome","116.0.0.0","Windows","10.0","3658","<p>As the military commander, you could choose to launch a missile to kill <strong>8 enemy soldiers</strong> , but would accidentally kill <strong>1 enemy tree</strong> nearby.</p> <p>The photo of the <strong>enemy tree</strong> is shown below.</p> <p></p> <img src='stimuli/tree/16.png', style='max-width: 30%;'> </img> <p><strong>Would you launch the weapon?</strong></p>","1",""
"","","","","","html-keyboard-response","75","476447","0.0-3.0-0.36","79","1","2023-06-02 17:46:33","a806436d73fb3c2fb9db1ebeb6e0a607","204.242.0.42","Mozilla/5.0 (Windows NT 10.0; Win64; x64) AppleWebKit/537.36 (KHTML, like Gecko) Chrome/116.0.0.0 Safari/537.36","WebKit","Chrome","116.0.0.0","Windows","10.0","null","<div style=""font-size:60px;"">+</div>","null",""
"","","","","","html-button-response","76","477567","0.0-3.0-1.36","79","1","2023-06-02 17:46:33","a806436d73fb3c2fb9db1ebeb6e0a607","204.242.0.42","Mozilla/5.0 (Windows NT 10.0; Win64; x64) AppleWebKit/537.36 (KHTML, like Gecko) Chrome/116.0.0.0 Safari/537.36","WebKit","Chrome","116.0.0.0","Windows","10.0","1115","<p>As the military commander, you could choose to launch a missile to kill <strong>3 enemy soldiers</strong> , but would accidentally kill <strong>1 enemy tree</strong> nearby.</p> <p>The photo of the <strong>enemy tree</strong> is shown below.</p> <p></p> <img src='stimuli/tree/13.png', style='max-width: 30%;'> </img> <p><strong>Would you launch the weapon?</strong></p>","0",""
"","","","","","html-keyboard-response","77","478585","0.0-3.0-0.37","79","1","2023-06-02 17:46:33","a806436d73fb3c2fb9db1ebeb6e0a607","204.242.0.42","Mozilla/5.0 (Windows NT 10.0; Win64; x64) AppleWebKit/537.36 (KHTML, like Gecko) Chrome/116.0.0.0 Safari/537.36","WebKit","Chrome","116.0.0.0","Windows","10.0","null","<div style=""font-size:60px;"">+</div>","null",""
"","","","","","html-button-response","78","479739","0.0-3.0-1.37","79","1","2023-06-02 17:46:33","a806436d73fb3c2fb9db1ebeb6e0a607","204.242.0.42","Mozilla/5.0 (Windows NT 10.0; Win64; x64) AppleWebKit/537.36 (KHTML, like Gecko) Chrome/116.0.0.0 Safari/537.36","WebKit","Chrome","116.0.0.0","Windows","10.0","1151","<p>As the military commander, you could choose to launch a missile to kill <strong>5 enemy soldiers</strong> , but would accidentally kill <strong>1 enemy tree</strong> nearby.</p> <p>The photo of the <strong>enemy tree</strong> is shown below.</p> <p></p> <img src='stimuli/tree/8.png', style='max-width: 30%;'> </img> <p><strong>Would you launch the weapon?</strong></p>","1",""
"","","","","","html-keyboard-response","79","480743","0.0-3.0-0.38","79","1","2023-06-02 17:46:33","a806436d73fb3c2fb9db1ebeb6e0a607","204.242.0.42","Mozilla/5.0 (Windows NT 10.0; Win64; x64) AppleWebKit/537.36 (KHTML, like Gecko) Chrome/116.0.0.0 Safari/537.36","WebKit","Chrome","116.0.0.0","Windows","10.0","null","<div style=""font-size:60px;"">+</div>","null",""
"","","","","","html-button-response","80","481507","0.0-3.0-1.38","79","1","2023-06-02 17:46:33","a806436d73fb3c2fb9db1ebeb6e0a607","204.242.0.42","Mozilla/5.0 (Windows NT 10.0; Win64; x64) AppleWebKit/537.36 (KHTML, like Gecko) Chrome/116.0.0.0 Safari/537.36","WebKit","Chrome","116.0.0.0","Windows","10.0","761","<p>As the military commander, you could choose to launch a missile to kill <strong>3 enemy soldiers</strong> , but would accidentally kill <strong>1 enemy tree</strong> nearby.</p> <p>The photo of the <strong>enemy tree</strong> is shown below.</p> <p></p> <img src='stimuli/tree/4.png', style='max-width: 30%;'> </img> <p><strong>Would you launch the weapon?</strong></p>","0",""
"","","","","","html-keyboard-response","81","482511","0.0-3.0-0.39","79","1","2023-06-02 17:46:33","a806436d73fb3c2fb9db1ebeb6e0a607","204.242.0.42","Mozilla/5.0 (Windows NT 10.0; Win64; x64) AppleWebKit/537.36 (KHTML, like Gecko) Chrome/116.0.0.0 Safari/537.36","WebKit","Chrome","116.0.0.0","Windows","10.0","null","<div style=""font-size:60px;"">+</div>","null",""
"","","","","","html-button-response","82","488429","0.0-3.0-1.39","79","1","2023-06-02 17:46:33","a806436d73fb3c2fb9db1ebeb6e0a607","204.242.0.42","Mozilla/5.0 (Windows NT 10.0; Win64; x64) AppleWebKit/537.36 (KHTML, like Gecko) Chrome/116.0.0.0 Safari/537.36","WebKit","Chrome","116.0.0.0","Windows","10.0","5914","<p>As the military commander, you could choose to launch a missile to kill <strong>9 enemy soldiers</strong> , but would accidentally kill <strong>1 enemy civilian</strong> nearby.</p> <p>The photo of the <strong>enemy civilian</strong> is shown below.</p> <p></p> <img src='stimuli/faces/NFM2.jpg', style='max-width: 30%;'> </img> <p><strong>Would you launch the weapon?</strong></p>","0",""
"","","","","","html-keyboard-response","83","489432","0.0-3.0-0.40","79","1","2023-06-02 17:46:33","a806436d73fb3c2fb9db1ebeb6e0a607","204.242.0.42","Mozilla/5.0 (Windows NT 10.0; Win64; x64) AppleWebKit/537.36 (KHTML, like Gecko) Chrome/116.0.0.0 Safari/537.36","WebKit","Chrome","116.0.0.0","Windows","10.0","null","<div style=""font-size:60px;"">+</div>","null",""
"","","","","","html-button-response","84","491117","0.0-3.0-1.40","79","1","2023-06-02 17:46:33","a806436d73fb3c2fb9db1ebeb6e0a607","204.242.0.42","Mozilla/5.0 (Windows NT 10.0; Win64; x64) AppleWebKit/537.36 (KHTML, like Gecko) Chrome/116.0.0.0 Safari/537.36","WebKit","Chrome","116.0.0.0","Windows","10.0","1667","<p>As the military commander, you could choose to launch a missile to kill <strong>10 enemy soldiers</strong> , but would accidentally kill <strong>1 enemy tree</strong> nearby.</p> <p>The photo of the <strong>enemy tree</strong> is shown below.</p> <p></p> <img src='stimuli/tree/5.png', style='max-width: 30%;'> </img> <p><strong>Would you launch the weapon?</strong></p>","0",""
"","","","","","html-keyboard-response","85","492135","0.0-3.0-0.41","79","1","2023-06-02 17:46:33","a806436d73fb3c2fb9db1ebeb6e0a607","204.242.0.42","Mozilla/5.0 (Windows NT 10.0; Win64; x64) AppleWebKit/537.36 (KHTML, like Gecko) Chrome/116.0.0.0 Safari/537.36","WebKit","Chrome","116.0.0.0","Windows","10.0","null","<div style=""font-size:60px;"">+</div>","null",""
"","","","","","html-button-response","86","509481","0.0-3.0-1.41","79","1","2023-06-02 17:46:33","a806436d73fb3c2fb9db1ebeb6e0a607","204.242.0.42","Mozilla/5.0 (Windows NT 10.0; Win64; x64) AppleWebKit/537.36 (KHTML, like Gecko) Chrome/116.0.0.0 Safari/537.36","WebKit","Chrome","116.0.0.0","Windows","10.0","17341","<p>As the military commander, you could choose to launch a missile to kill <strong>9 enemy soldiers</strong> , but would accidentally kill <strong>1 enemy tree</strong> nearby.</p> <p>The photo of the <strong>enemy tree</strong> is shown below.</p> <p></p> <img src='stimuli/tree/2.png', style='max-width: 30%;'> </img> <p><strong>Would you launch the weapon?</strong></p>","0",""
"","","","","","html-keyboard-response","87","510484","0.0-3.0-0.42","79","1","2023-06-02 17:46:33","a806436d73fb3c2fb9db1ebeb6e0a607","204.242.0.42","Mozilla/5.0 (Windows NT 10.0; Win64; x64) AppleWebKit/537.36 (KHTML, like Gecko) Chrome/116.0.0.0 Safari/537.36","WebKit","Chrome","116.0.0.0","Windows","10.0","null","<div style=""font-size:60px;"">+</div>","null",""
"","","","","","html-button-response","88","529662","0.0-3.0-1.42","79","1","2023-06-02 17:46:33","a806436d73fb3c2fb9db1ebeb6e0a607","204.242.0.42","Mozilla/5.0 (Windows NT 10.0; Win64; x64) AppleWebKit/537.36 (KHTML, like Gecko) Chrome/116.0.0.0 Safari/537.36","WebKit","Chrome","116.0.0.0","Windows","10.0","19174","<p>As the military commander, you could choose to launch a missile to kill <strong>10 enemy soldiers</strong> , but would accidentally kill <strong>1 enemy tree</strong> nearby.</p> <p>The photo of the <strong>enemy tree</strong> is shown below.</p> <p></p> <img src='stimuli/tree/1.png', style='max-width: 30%;'> </img> <p><strong>Would you launch the weapon?</strong></p>","0",""
"","","","","","html-keyboard-response","89","530666","0.0-3.0-0.43","79","1","2023-06-02 17:46:33","a806436d73fb3c2fb9db1ebeb6e0a607","204.242.0.42","Mozilla/5.0 (Windows NT 10.0; Win64; x64) AppleWebKit/537.36 (KHTML, like Gecko) Chrome/116.0.0.0 Safari/537.36","WebKit","Chrome","116.0.0.0","Windows","10.0","null","<div style=""font-size:60px;"">+</div>","null",""
"","","","","","html-button-response","90","532937","0.0-3.0-1.43","79","1","2023-06-02 17:46:33","a806436d73fb3c2fb9db1ebeb6e0a607","204.242.0.42","Mozilla/5.0 (Windows NT 10.0; Win64; x64) AppleWebKit/537.36 (KHTML, like Gecko) Chrome/116.0.0.0 Safari/537.36","WebKit","Chrome","116.0.0.0","Windows","10.0","2265","<p>As the military commander, you could choose to launch a missile to kill <strong>10 enemy soldiers</strong> , but would accidentally kill <strong>1 enemy civilian</strong> nearby.</p> <p>The photo of the <strong>enemy civilian</strong> is shown below.</p> <p></p> <img src='stimuli/faces/NFM7.jpg', style='max-width: 30%;'> </img> <p><strong>Would you launch the weapon?</strong></p>","0",""
"","","","","","html-keyboard-response","91","533942","0.0-3.0-0.44","79","1","2023-06-02 17:46:33","a806436d73fb3c2fb9db1ebeb6e0a607","204.242.0.42","Mozilla/5.0 (Windows NT 10.0; Win64; x64) AppleWebKit/537.36 (KHTML, like Gecko) Chrome/116.0.0.0 Safari/537.36","WebKit","Chrome","116.0.0.0","Windows","10.0","null","<div style=""font-size:60px;"">+</div>","null",""
"","","","","","html-button-response","92","601211","0.0-3.0-1.44","79","1","2023-06-02 17:46:33","a806436d73fb3c2fb9db1ebeb6e0a607","204.242.0.42","Mozilla/5.0 (Windows NT 10.0; Win64; x64) AppleWebKit/537.36 (KHTML, like Gecko) Chrome/116.0.0.0 Safari/537.36","WebKit","Chrome","116.0.0.0","Windows","10.0","67264","<p>As the military commander, you could choose to launch a missile to kill <strong>5 enemy soldiers</strong> , but would accidentally kill <strong>1 enemy civilian</strong> nearby.</p> <p>The photo of the <strong>enemy civilian</strong> is shown below.</p> <p></p> <img src='stimuli/faces/NFF3.jpg', style='max-width: 30%;'> </img> <p><strong>Would you launch the weapon?</strong></p>","0",""
"","","","","","html-keyboard-response","93","602221","0.0-3.0-0.45","79","1","2023-06-02 17:46:33","a806436d73fb3c2fb9db1ebeb6e0a607","204.242.0.42","Mozilla/5.0 (Windows NT 10.0; Win64; x64) AppleWebKit/537.36 (KHTML, like Gecko) Chrome/116.0.0.0 Safari/537.36","WebKit","Chrome","116.0.0.0","Windows","10.0","null","<div style=""font-size:60px;"">+</div>","null",""
"","","","","","html-button-response","94","607137","0.0-3.0-1.45","79","1","2023-06-02 17:46:33","a806436d73fb3c2fb9db1ebeb6e0a607","204.242.0.42","Mozilla/5.0 (Windows NT 10.0; Win64; x64) AppleWebKit/537.36 (KHTML, like Gecko) Chrome/116.0.0.0 Safari/537.36","WebKit","Chrome","116.0.0.0","Windows","10.0","4910","<p>As the military commander, you could choose to launch a missile to kill <strong>1 enemy soldier</strong> , but would accidentally kill <strong>1 enemy civilian</strong> nearby.</p> <p>The photo of the <strong>enemy civilian</strong> is shown below.</p> <p></p> <img src='stimuli/faces/NFM2.jpg', style='max-width: 30%;'> </img> <p><strong>Would you launch the weapon?</strong></p>","0",""
"","","","","","html-keyboard-response","95","608158","0.0-3.0-0.46","79","1","2023-06-02 17:46:33","a806436d73fb3c2fb9db1ebeb6e0a607","204.242.0.42","Mozilla/5.0 (Windows NT 10.0; Win64; x64) AppleWebKit/537.36 (KHTML, like Gecko) Chrome/116.0.0.0 Safari/537.36","WebKit","Chrome","116.0.0.0","Windows","10.0","null","<div style=""font-size:60px;"">+</div>","null",""
"","","","","","html-button-response","96","609470","0.0-3.0-1.46","79","1","2023-06-02 17:46:33","a806436d73fb3c2fb9db1ebeb6e0a607","204.242.0.42","Mozilla/5.0 (Windows NT 10.0; Win64; x64) AppleWebKit/537.36 (KHTML, like Gecko) Chrome/116.0.0.0 Safari/537.36","WebKit","Chrome","116.0.0.0","Windows","10.0","1307","<p>As the military commander, you could choose to launch a missile to kill <strong>2 enemy soldiers</strong> , but would accidentally kill <strong>1 enemy civilian</strong> nearby.</p> <p>The photo of the <strong>enemy civilian</strong> is shown below.</p> <p></p> <img src='stimuli/faces/NFF7.jpg', style='max-width: 30%;'> </img> <p><strong>Would you launch the weapon?</strong></p>","0",""
"","","","","","html-keyboard-response","97","610474","0.0-3.0-0.47","79","1","2023-06-02 17:46:33","a806436d73fb3c2fb9db1ebeb6e0a607","204.242.0.42","Mozilla/5.0 (Windows NT 10.0; Win64; x64) AppleWebKit/537.36 (KHTML, like Gecko) Chrome/116.0.0.0 Safari/537.36","WebKit","Chrome","116.0.0.0","Windows","10.0","null","<div style=""font-size:60px;"">+</div>","null",""
"","","","","","html-button-response","98","611750","0.0-3.0-1.47","79","1","2023-06-02 17:46:33","a806436d73fb3c2fb9db1ebeb6e0a607","204.242.0.42","Mozilla/5.0 (Windows NT 10.0; Win64; x64) AppleWebKit/537.36 (KHTML, like Gecko) Chrome/116.0.0.0 Safari/537.36","WebKit","Chrome","116.0.0.0","Windows","10.0","1271","<p>As the military commander, you could choose to launch a missile to kill <strong>3 enemy soldiers</strong> , but would accidentally kill <strong>1 enemy tree</strong> nearby.</p> <p>The photo of the <strong>enemy tree</strong> is shown below.</p> <p></p> <img src='stimuli/tree/11.png', style='max-width: 30%;'> </img> <p><strong>Would you launch the weapon?</strong></p>","0",""
"","","","","","html-keyboard-response","99","612753","0.0-3.0-0.48","79","1","2023-06-02 17:46:33","a806436d73fb3c2fb9db1ebeb6e0a607","204.242.0.42","Mozilla/5.0 (Windows NT 10.0; Win64; x64) AppleWebKit/537.36 (KHTML, like Gecko) Chrome/116.0.0.0 Safari/537.36","WebKit","Chrome","116.0.0.0","Windows","10.0","null","<div style=""font-size:60px;"">+</div>","null",""
"","","","","","html-button-response","100","613730","0.0-3.0-1.48","79","1","2023-06-02 17:46:33","a806436d73fb3c2fb9db1ebeb6e0a607","204.242.0.42","Mozilla/5.0 (Windows NT 10.0; Win64; x64) AppleWebKit/537.36 (KHTML, like Gecko) Chrome/116.0.0.0 Safari/537.36","WebKit","Chrome","116.0.0.0","Windows","10.0","973","<p>As the military commander, you could choose to launch a missile to kill <strong>6 enemy soldiers</strong> , but would accidentally kill <strong>1 enemy tree</strong> nearby.</p> <p>The photo of the <strong>enemy tree</strong> is shown below.</p> <p></p> <img src='stimuli/tree/3.png', style='max-width: 30%;'> </img> <p><strong>Would you launch the weapon?</strong></p>","0",""
"","","","","","html-keyboard-response","101","614734","0.0-3.0-0.49","79","1","2023-06-02 17:46:33","a806436d73fb3c2fb9db1ebeb6e0a607","204.242.0.42","Mozilla/5.0 (Windows NT 10.0; Win64; x64) AppleWebKit/537.36 (KHTML, like Gecko) Chrome/116.0.0.0 Safari/537.36","WebKit","Chrome","116.0.0.0","Windows","10.0","null","<div style=""font-size:60px;"">+</div>","null",""
"","","","","","html-button-response","102","617886","0.0-3.0-1.49","79","1","2023-06-02 17:46:33","a806436d73fb3c2fb9db1ebeb6e0a607","204.242.0.42","Mozilla/5.0 (Windows NT 10.0; Win64; x64) AppleWebKit/537.36 (KHTML, like Gecko) Chrome/116.0.0.0 Safari/537.36","WebKit","Chrome","116.0.0.0","Windows","10.0","3148","<p>As the military commander, you could choose to launch a missile to kill <strong>9 enemy soldiers</strong> , but would accidentally kill <strong>1 enemy civilian</strong> nearby.</p> <p>The photo of the <strong>enemy civilian</strong> is shown below.</p> <p></p> <img src='stimuli/faces/NFM4.jpg', style='max-width: 30%;'> </img> <p><strong>Would you launch the weapon?</strong></p>","0",""
"","","","","","html-keyboard-response","103","618892","0.0-3.0-0.50","79","1","2023-06-02 17:46:33","a806436d73fb3c2fb9db1ebeb6e0a607","204.242.0.42","Mozilla/5.0 (Windows NT 10.0; Win64; x64) AppleWebKit/537.36 (KHTML, like Gecko) Chrome/116.0.0.0 Safari/537.36","WebKit","Chrome","116.0.0.0","Windows","10.0","null","<div style=""font-size:60px;"">+</div>","null",""
"","","","","","html-button-response","104","621445","0.0-3.0-1.50","79","1","2023-06-02 17:46:33","a806436d73fb3c2fb9db1ebeb6e0a607","204.242.0.42","Mozilla/5.0 (Windows NT 10.0; Win64; x64) AppleWebKit/537.36 (KHTML, like Gecko) Chrome/116.0.0.0 Safari/537.36","WebKit","Chrome","116.0.0.0","Windows","10.0","2549","<p>As the military commander, you could choose to launch a missile to kill <strong>1 enemy soldier</strong> , but would accidentally kill <strong>1 enemy tree</strong> nearby.</p> <p>The photo of the <strong>enemy tree</strong> is shown below.</p> <p></p> <img src='stimuli/tree/14.png', style='max-width: 30%;'> </img> <p><strong>Would you launch the weapon?</strong></p>","0",""
"","","","","","html-keyboard-response","105","622450","0.0-3.0-0.51","79","1","2023-06-02 17:46:33","a806436d73fb3c2fb9db1ebeb6e0a607","204.242.0.42","Mozilla/5.0 (Windows NT 10.0; Win64; x64) AppleWebKit/537.36 (KHTML, like Gecko) Chrome/116.0.0.0 Safari/537.36","WebKit","Chrome","116.0.0.0","Windows","10.0","null","<div style=""font-size:60px;"">+</div>","null",""
"","","","","","html-button-response","106","645855","0.0-3.0-1.51","79","1","2023-06-02 17:46:33","a806436d73fb3c2fb9db1ebeb6e0a607","204.242.0.42","Mozilla/5.0 (Windows NT 10.0; Win64; x64) AppleWebKit/537.36 (KHTML, like Gecko) Chrome/116.0.0.0 Safari/537.36","WebKit","Chrome","116.0.0.0","Windows","10.0","23400","<p>As the military commander, you could choose to launch a missile to kill <strong>2 enemy soldiers</strong> , but would accidentally kill <strong>1 enemy civilian</strong> nearby.</p> <p>The photo of the <strong>enemy civilian</strong> is shown below.</p> <p></p> <img src='stimuli/faces/NFM8.jpg', style='max-width: 30%;'> </img> <p><strong>Would you launch the weapon?</strong></p>","0",""
"","","","","","html-keyboard-response","107","646861","0.0-3.0-0.52","79","1","2023-06-02 17:46:33","a806436d73fb3c2fb9db1ebeb6e0a607","204.242.0.42","Mozilla/5.0 (Windows NT 10.0; Win64; x64) AppleWebKit/537.36 (KHTML, like Gecko) Chrome/116.0.0.0 Safari/537.36","WebKit","Chrome","116.0.0.0","Windows","10.0","null","<div style=""font-size:60px;"">+</div>","null",""
"","","","","","html-button-response","108","647727","0.0-3.0-1.52","79","1","2023-06-02 17:46:33","a806436d73fb3c2fb9db1ebeb6e0a607","204.242.0.42","Mozilla/5.0 (Windows NT 10.0; Win64; x64) AppleWebKit/537.36 (KHTML, like Gecko) Chrome/116.0.0.0 Safari/537.36","WebKit","Chrome","116.0.0.0","Windows","10.0","861","<p>As the military commander, you could choose to launch a missile to kill <strong>5 enemy soldiers</strong> , but would accidentally kill <strong>1 enemy civilian</strong> nearby.</p> <p>The photo of the <strong>enemy civilian</strong> is shown below.</p> <p></p> <img src='stimuli/faces/NFF1.jpg', style='max-width: 30%;'> </img> <p><strong>Would you launch the weapon?</strong></p>","0",""
"","","","","","html-keyboard-response","109","648730","0.0-3.0-0.53","79","1","2023-06-02 17:46:33","a806436d73fb3c2fb9db1ebeb6e0a607","204.242.0.42","Mozilla/5.0 (Windows NT 10.0; Win64; x64) AppleWebKit/537.36 (KHTML, like Gecko) Chrome/116.0.0.0 Safari/537.36","WebKit","Chrome","116.0.0.0","Windows","10.0","null","<div style=""font-size:60px;"">+</div>","null",""
"","","","","","html-button-response","110","657489","0.0-3.0-1.53","79","1","2023-06-02 17:46:33","a806436d73fb3c2fb9db1ebeb6e0a607","204.242.0.42","Mozilla/5.0 (Windows NT 10.0; Win64; x64) AppleWebKit/537.36 (KHTML, like Gecko) Chrome/116.0.0.0 Safari/537.36","WebKit","Chrome","116.0.0.0","Windows","10.0","8754","<p>As the military commander, you could choose to launch a missile to kill <strong>4 enemy soldiers</strong> , but would accidentally kill <strong>1 enemy tree</strong> nearby.</p> <p>The photo of the <strong>enemy tree</strong> is shown below.</p> <p></p> <img src='stimuli/tree/2.png', style='max-width: 30%;'> </img> <p><strong>Would you launch the weapon?</strong></p>","0",""
"","","","","","html-keyboard-response","111","658494","0.0-3.0-0.54","79","1","2023-06-02 17:46:33","a806436d73fb3c2fb9db1ebeb6e0a607","204.242.0.42","Mozilla/5.0 (Windows NT 10.0; Win64; x64) AppleWebKit/537.36 (KHTML, like Gecko) Chrome/116.0.0.0 Safari/537.36","WebKit","Chrome","116.0.0.0","Windows","10.0","null","<div style=""font-size:60px;"">+</div>","null",""
"","","","","","html-button-response","112","662638","0.0-3.0-1.54","79","1","2023-06-02 17:46:33","a806436d73fb3c2fb9db1ebeb6e0a607","204.242.0.42","Mozilla/5.0 (Windows NT 10.0; Win64; x64) AppleWebKit/537.36 (KHTML, like Gecko) Chrome/116.0.0.0 Safari/537.36","WebKit","Chrome","116.0.0.0","Windows","10.0","4140","<p>As the military commander, you could choose to launch a missile to kill <strong>9 enemy soldiers</strong> , but would accidentally kill <strong>1 enemy civilian</strong> nearby.</p> <p>The photo of the <strong>enemy civilian</strong> is shown below.</p> <p></p> <img src='stimuli/faces/NFF6.jpg', style='max-width: 30%;'> </img> <p><strong>Would you launch the weapon?</strong></p>","0",""
"","","","","","html-keyboard-response","113","663643","0.0-3.0-0.55","79","1","2023-06-02 17:46:33","a806436d73fb3c2fb9db1ebeb6e0a607","204.242.0.42","Mozilla/5.0 (Windows NT 10.0; Win64; x64) AppleWebKit/537.36 (KHTML, like Gecko) Chrome/116.0.0.0 Safari/537.36","WebKit","Chrome","116.0.0.0","Windows","10.0","null","<div style=""font-size:60px;"">+</div>","null",""
"","","","","","html-button-response","114","665558","0.0-3.0-1.55","79","1","2023-06-02 17:46:33","a806436d73fb3c2fb9db1ebeb6e0a607","204.242.0.42","Mozilla/5.0 (Windows NT 10.0; Win64; x64) AppleWebKit/537.36 (KHTML, like Gecko) Chrome/116.0.0.0 Safari/537.36","WebKit","Chrome","116.0.0.0","Windows","10.0","1907","<p>As the military commander, you could choose to launch a missile to kill <strong>6 enemy soldiers</strong> , but would accidentally kill <strong>1 enemy tree</strong> nearby.</p> <p>The photo of the <strong>enemy tree</strong> is shown below.</p> <p></p> <img src='stimuli/tree/12.png', style='max-width: 30%;'> </img> <p><strong>Would you launch the weapon?</strong></p>","1",""
"","","","","","html-keyboard-response","115","666562","0.0-3.0-0.56","79","1","2023-06-02 17:46:33","a806436d73fb3c2fb9db1ebeb6e0a607","204.242.0.42","Mozilla/5.0 (Windows NT 10.0; Win64; x64) AppleWebKit/537.36 (KHTML, like Gecko) Chrome/116.0.0.0 Safari/537.36","WebKit","Chrome","116.0.0.0","Windows","10.0","null","<div style=""font-size:60px;"">+</div>","null",""
"","","","","","html-button-response","116","668782","0.0-3.0-1.56","79","1","2023-06-02 17:46:33","a806436d73fb3c2fb9db1ebeb6e0a607","204.242.0.42","Mozilla/5.0 (Windows NT 10.0; Win64; x64) AppleWebKit/537.36 (KHTML, like Gecko) Chrome/116.0.0.0 Safari/537.36","WebKit","Chrome","116.0.0.0","Windows","10.0","2214","<p>As the military commander, you could choose to launch a missile to kill <strong>8 enemy soldiers</strong> , but would accidentally kill <strong>1 enemy civilian</strong> nearby.</p> <p>The photo of the <strong>enemy civilian</strong> is shown below.</p> <p></p> <img src='stimuli/faces/NFF1.jpg', style='max-width: 30%;'> </img> <p><strong>Would you launch the weapon?</strong></p>","0",""
"","","","","","html-keyboard-response","117","669787","0.0-3.0-0.57","79","1","2023-06-02 17:46:33","a806436d73fb3c2fb9db1ebeb6e0a607","204.242.0.42","Mozilla/5.0 (Windows NT 10.0; Win64; x64) AppleWebKit/537.36 (KHTML, like Gecko) Chrome/116.0.0.0 Safari/537.36","WebKit","Chrome","116.0.0.0","Windows","10.0","null","<div style=""font-size:60px;"">+</div>","null",""
"","","","","","html-button-response","118","671887","0.0-3.0-1.57","79","1","2023-06-02 17:46:33","a806436d73fb3c2fb9db1ebeb6e0a607","204.242.0.42","Mozilla/5.0 (Windows NT 10.0; Win64; x64) AppleWebKit/537.36 (KHTML, like Gecko) Chrome/116.0.0.0 Safari/537.36","WebKit","Chrome","116.0.0.0","Windows","10.0","2095","<p>As the military commander, you could choose to launch a missile to kill <strong>3 enemy soldiers</strong> , but would accidentally kill <strong>1 enemy tree</strong> nearby.</p> <p>The photo of the <strong>enemy tree</strong> is shown below.</p> <p></p> <img src='stimuli/tree/6.png', style='max-width: 30%;'> </img> <p><strong>Would you launch the weapon?</strong></p>","0",""
"","","","","","html-keyboard-response","119","672892","0.0-3.0-0.58","79","1","2023-06-02 17:46:33","a806436d73fb3c2fb9db1ebeb6e0a607","204.242.0.42","Mozilla/5.0 (Windows NT 10.0; Win64; x64) AppleWebKit/537.36 (KHTML, like Gecko) Chrome/116.0.0.0 Safari/537.36","WebKit","Chrome","116.0.0.0","Windows","10.0","null","<div style=""font-size:60px;"">+</div>","null",""
"","","","","","html-button-response","120","690375","0.0-3.0-1.58","79","1","2023-06-02 17:46:33","a806436d73fb3c2fb9db1ebeb6e0a607","204.242.0.42","Mozilla/5.0 (Windows NT 10.0; Win64; x64) AppleWebKit/537.36 (KHTML, like Gecko) Chrome/116.0.0.0 Safari/537.36","WebKit","Chrome","116.0.0.0","Windows","10.0","17478","<p>As the military commander, you could choose to launch a missile to kill <strong>3 enemy soldiers</strong> , but would accidentally kill <strong>1 enemy tree</strong> nearby.</p> <p>The photo of the <strong>enemy tree</strong> is shown below.</p> <p></p> <img src='stimuli/tree/15.png', style='max-width: 30%;'> </img> <p><strong>Would you launch the weapon?</strong></p>","0",""
"","","","","","html-keyboard-response","121","691380","0.0-3.0-0.59","79","1","2023-06-02 17:46:33","a806436d73fb3c2fb9db1ebeb6e0a607","204.242.0.42","Mozilla/5.0 (Windows NT 10.0; Win64; x64) AppleWebKit/537.36 (KHTML, like Gecko) Chrome/116.0.0.0 Safari/537.36","WebKit","Chrome","116.0.0.0","Windows","10.0","null","<div style=""font-size:60px;"">+</div>","null",""
"","","","","","html-button-response","122","695056","0.0-3.0-1.59","79","1","2023-06-02 17:46:33","a806436d73fb3c2fb9db1ebeb6e0a607","204.242.0.42","Mozilla/5.0 (Windows NT 10.0; Win64; x64) AppleWebKit/537.36 (KHTML, like Gecko) Chrome/116.0.0.0 Safari/537.36","WebKit","Chrome","116.0.0.0","Windows","10.0","3666","<p>As the military commander, you could choose to launch a missile to kill <strong>5 enemy soldiers</strong> , but would accidentally kill <strong>1 enemy tree</strong> nearby.</p> <p>The photo of the <strong>enemy tree</strong> is shown below.</p> <p></p> <img src='stimuli/tree/16.png', style='max-width: 30%;'> </img> <p><strong>Would you launch the weapon?</strong></p>","0",""
"","","","","","html-keyboard-response","123","696062","0.0-3.0-0.60","79","1","2023-06-02 17:46:33","a806436d73fb3c2fb9db1ebeb6e0a607","204.242.0.42","Mozilla/5.0 (Windows NT 10.0; Win64; x64) AppleWebKit/537.36 (KHTML, like Gecko) Chrome/116.0.0.0 Safari/537.36","WebKit","Chrome","116.0.0.0","Windows","10.0","null","<div style=""font-size:60px;"">+</div>","null",""
"","","","","","html-button-response","124","708007","0.0-3.0-1.60","79","1","2023-06-02 17:46:33","a806436d73fb3c2fb9db1ebeb6e0a607","204.242.0.42","Mozilla/5.0 (Windows NT 10.0; Win64; x64) AppleWebKit/537.36 (KHTML, like Gecko) Chrome/116.0.0.0 Safari/537.36","WebKit","Chrome","116.0.0.0","Windows","10.0","11938","<p>As the military commander, you could choose to launch a missile to kill <strong>9 enemy soldiers</strong> , but would accidentally kill <strong>1 enemy tree</strong> nearby.</p> <p>The photo of the <strong>enemy tree</strong> is shown below.</p> <p></p> <img src='stimuli/tree/10.png', style='max-width: 30%;'> </img> <p><strong>Would you launch the weapon?</strong></p>","0",""
"","","","","","html-keyboard-response","125","709012","0.0-3.0-0.61","79","1","2023-06-02 17:46:33","a806436d73fb3c2fb9db1ebeb6e0a607","204.242.0.42","Mozilla/5.0 (Windows NT 10.0; Win64; x64) AppleWebKit/537.36 (KHTML, like Gecko) Chrome/116.0.0.0 Safari/537.36","WebKit","Chrome","116.0.0.0","Windows","10.0","null","<div style=""font-size:60px;"">+</div>","null",""
"","","","","","html-button-response","126","710743","0.0-3.0-1.61","79","1","2023-06-02 17:46:33","a806436d73fb3c2fb9db1ebeb6e0a607","204.242.0.42","Mozilla/5.0 (Windows NT 10.0; Win64; x64) AppleWebKit/537.36 (KHTML, like Gecko) Chrome/116.0.0.0 Safari/537.36","WebKit","Chrome","116.0.0.0","Windows","10.0","1726","<p>As the military commander, you could choose to launch a missile to kill <strong>1 enemy soldier</strong> , but would accidentally kill <strong>1 enemy civilian</strong> nearby.</p> <p>The photo of the <strong>enemy civilian</strong> is shown below.</p> <p></p> <img src='stimuli/faces/NFM3.jpg', style='max-width: 30%;'> </img> <p><strong>Would you launch the weapon?</strong></p>","0",""
"","","","","","html-keyboard-response","127","711749","0.0-3.0-0.62","79","1","2023-06-02 17:46:33","a806436d73fb3c2fb9db1ebeb6e0a607","204.242.0.42","Mozilla/5.0 (Windows NT 10.0; Win64; x64) AppleWebKit/537.36 (KHTML, like Gecko) Chrome/116.0.0.0 Safari/537.36","WebKit","Chrome","116.0.0.0","Windows","10.0","null","<div style=""font-size:60px;"">+</div>","null",""
"","","","","","html-button-response","128","713380","0.0-3.0-1.62","79","1","2023-06-02 17:46:33","a806436d73fb3c2fb9db1ebeb6e0a607","204.242.0.42","Mozilla/5.0 (Windows NT 10.0; Win64; x64) AppleWebKit/537.36 (KHTML, like Gecko) Chrome/116.0.0.0 Safari/537.36","WebKit","Chrome","116.0.0.0","Windows","10.0","1626","<p>As the military commander, you could choose to launch a missile to kill <strong>5 enemy soldiers</strong> , but would accidentally kill <strong>1 enemy civilian</strong> nearby.</p> <p>The photo of the <strong>enemy civilian</strong> is shown below.</p> <p></p> <img src='stimuli/faces/NFF4.jpg', style='max-width: 30%;'> </img> <p><strong>Would you launch the weapon?</strong></p>","0",""
"","","","","","html-keyboard-response","129","714386","0.0-3.0-0.63","79","1","2023-06-02 17:46:33","a806436d73fb3c2fb9db1ebeb6e0a607","204.242.0.42","Mozilla/5.0 (Windows NT 10.0; Win64; x64) AppleWebKit/537.36 (KHTML, like Gecko) Chrome/116.0.0.0 Safari/537.36","WebKit","Chrome","116.0.0.0","Windows","10.0","null","<div style=""font-size:60px;"">+</div>","null",""
"","","","","","html-button-response","130","722681","0.0-3.0-1.63","79","1","2023-06-02 17:46:33","a806436d73fb3c2fb9db1ebeb6e0a607","204.242.0.42","Mozilla/5.0 (Windows NT 10.0; Win64; x64) AppleWebKit/537.36 (KHTML, like Gecko) Chrome/116.0.0.0 Safari/537.36","WebKit","Chrome","116.0.0.0","Windows","10.0","8288","<p>As the military commander, you could choose to launch a missile to kill <strong>2 enemy soldiers</strong> , but would accidentally kill <strong>1 enemy tree</strong> nearby.</p> <p>The photo of the <strong>enemy tree</strong> is shown below.</p> <p></p> <img src='stimuli/tree/10.png', style='max-width: 30%;'> </img> <p><strong>Would you launch the weapon?</strong></p>","1",""
"","","","","","survey-multi-choice","131","729457","0.0-4.0","79","1","2023-06-02 17:46:33","a806436d73fb3c2fb9db1ebeb6e0a607","204.242.0.42","Mozilla/5.0 (Windows NT 10.0; Win64; x64) AppleWebKit/537.36 (KHTML, like Gecko) Chrome/116.0.0.0 Safari/537.36","WebKit","Chrome","116.0.0.0","Windows","10.0","6765","","{""Attention1"":""""}","[0]"
"","","","","","html-button-response","132","731085","0.0-5.0","79","1","2023-06-02 17:46:33","a806436d73fb3c2fb9db1ebeb6e0a607","204.242.0.42","Mozilla/5.0 (Windows NT 10.0; Win64; x64) AppleWebKit/537.36 (KHTML, like Gecko) Chrome/116.0.0.0 Safari/537.36","WebKit","Chrome","116.0.0.0","Windows","10.0","1608","<p style=""font-size:20px;font-weight:bold;"">Great!</p><p>You have finished the first part of the experiment!</p><p>Please relax a little bit and then contine to answer some questions regarding yourself.</p><p>The next part will take around 10 minutes to complete.</p>","0",""
"","","","","","survey-text","133","773910","0.0-6.0","79","1","2023-06-02 17:46:33","a806436d73fb3c2fb9db1ebeb6e0a607","204.242.0.42","Mozilla/5.0 (Windows NT 10.0; Win64; x64) AppleWebKit/537.36 (KHTML, like Gecko) Chrome/116.0.0.0 Safari/537.36","WebKit","Chrome","116.0.0.0","Windows","10.0","41811","","{""Age"":""23"",""Nation"":""American"",""Born"":""USA"",""Live"":""USA""}",""
"","","","","","survey-multi-choice","134","795592","0.0-7.0","79","1","2023-06-02 17:46:33","a806436d73fb3c2fb9db1ebeb6e0a607","204.242.0.42","Mozilla/5.0 (Windows NT 10.0; Win64; x64) AppleWebKit/537.36 (KHTML, like Gecko) Chrome/116.0.0.0 Safari/537.36","WebKit","Chrome","116.0.0.0","Windows","10.0","21673","","{""Gender"":""Male"",""Education"":""Bachelor's Degree"",""Income"":""$40,000 - $69,999"",""Children"":""1"",""Ethnicity"":""White""}","[0,1,2,3,4]"
"","","","","","survey-multi-select","135","804563","0.0-8.0","79","1","2023-06-02 17:46:33","a806436d73fb3c2fb9db1ebeb6e0a607","204.242.0.42","Mozilla/5.0 (Windows NT 10.0; Win64; x64) AppleWebKit/537.36 (KHTML, like Gecko) Chrome/116.0.0.0 Safari/537.36","WebKit","Chrome","116.0.0.0","Windows","10.0","8948","","{""Marriage"":[""Married""],""Religion"":[""Catholic""]}","[0,1]"
"","","","","","survey-multi-choice","136","808942","0.0-9.0","79","1","2023-06-02 17:46:33","a806436d73fb3c2fb9db1ebeb6e0a607","204.242.0.42","Mozilla/5.0 (Windows NT 10.0; Win64; x64) AppleWebKit/537.36 (KHTML, like Gecko) Chrome/116.0.0.0 Safari/537.36","WebKit","Chrome","116.0.0.0","Windows","10.0","4369","","{""SES"":""6""}","[0]"
"","","","","","html-button-response","137","821094","0.0-10.0","79","1","2023-06-02 17:46:33","a806436d73fb3c2fb9db1ebeb6e0a607","204.242.0.42","Mozilla/5.0 (Windows NT 10.0; Win64; x64) AppleWebKit/537.36 (KHTML, like Gecko) Chrome/116.0.0.0 Safari/537.36","WebKit","Chrome","116.0.0.0","Windows","10.0","12143","<p><strong>Please indicate the extent that the following statements could describe you.</p><p> (1 = ""extremely uncharacteristic of me"" to 5 = ""extremely characteristic of me"".)</strong></p>","0",""
"","","","","","survey-likert","138","831188","0.0-11.0","79","1","2023-06-02 17:46:33","a806436d73fb3c2fb9db1ebeb6e0a607","204.242.0.42","Mozilla/5.0 (Windows NT 10.0; Win64; x64) AppleWebKit/537.36 (KHTML, like Gecko) Chrome/116.0.0.0 Safari/537.36","WebKit","Chrome","116.0.0.0","Windows","10.0","10085","","{""Aggression1"":4,""Aggression2"":3,""Aggression3"":4,""Aggression4"":3,""Aggression5"":4,""Aggression6"":3,""Aggression7"":4,""Aggression8"":3,""Aggression9"":4}","[0,1,2,3,4,5,6,7,8]"
"","","","","","html-button-response","139","852770","0.0-12.0","79","1","2023-06-02 17:46:33","a806436d73fb3c2fb9db1ebeb6e0a607","204.242.0.42","Mozilla/5.0 (Windows NT 10.0; Win64; x64) AppleWebKit/537.36 (KHTML, like Gecko) Chrome/116.0.0.0 Safari/537.36","WebKit","Chrome","116.0.0.0","Windows","10.0","21573","<p><strong>Please indicate the extent that the following statements could describe you. </strong></p><p><strong> (1 = ""Does not describe me well"" to 5 = ""Does decribe me well"".)</strong></p>","0",""
"","","","","","survey-likert","140","900084","0.0-13.0","79","1","2023-06-02 17:46:33","a806436d73fb3c2fb9db1ebeb6e0a607","204.242.0.42","Mozilla/5.0 (Windows NT 10.0; Win64; x64) AppleWebKit/537.36 (KHTML, like Gecko) Chrome/116.0.0.0 Safari/537.36","WebKit","Chrome","116.0.0.0","Windows","10.0","47304","","{""ecs1"":1,""pds2"":3,""fs1"":2,""ecs4"":2,""pts5"":3,""ecs6"":3,""fs4"":3,""pts3"":3,""pds1"":3,""ecs3"":4,""pts1"":4,""pds5"":4,""fs7"":3,""pts7"":4,""fs5"":4,""fs6"":3,""ecs2"":4,""fs3"":3,""pds3"":4,""pds7"":3,""ecs5"":4,""pds6"":3,""fs2"":4,""pts4"":3,""pts6"":4,""pds4"":4,""ecs7"":3,""pts2"":3}","[1,9,0,13,20,19,11,10,5,8,2,18,25,27,15,22,3,6,12,26,17,23,4,14,24,16,21,7]"
"","","","","","html-button-response","141","934532","0.0-14.0","79","1","2023-06-02 17:46:33","a806436d73fb3c2fb9db1ebeb6e0a607","204.242.0.42","Mozilla/5.0 (Windows NT 10.0; Win64; x64) AppleWebKit/537.36 (KHTML, like Gecko) Chrome/116.0.0.0 Safari/537.36","WebKit","Chrome","116.0.0.0","Windows","10.0","34438","<p><strong>Which of the following objects or statements do you have a positive or negative feeling towards? </strong></p><p><strong> (1 = ""Very negative"" to 7 = ""Very positive"") </strong></p>","0",""
"","","","","","survey-likert","142","945823","0.0-15.0","79","1","2023-06-02 17:46:33","a806436d73fb3c2fb9db1ebeb6e0a607","204.242.0.42","Mozilla/5.0 (Windows NT 10.0; Win64; x64) AppleWebKit/537.36 (KHTML, like Gecko) Chrome/116.0.0.0 Safari/537.36","WebKit","Chrome","116.0.0.0","Windows","10.0","11284","","{""sdo12"":6,""sdo16"":5,""sdo15"":6,""sdo2"":5,""sdo5"":6,""sdo1"":5,""sdo4"":5,""sdo8"":6,""sdo10"":5,""sdo6"":5,""sdo14"":5,""sdo9"":6,""sdo7"":5,""sdo11"":6,""sdo3"":6,""sdo13"":5}","[11,15,14,1,4,0,3,7,9,5,13,8,6,10,2,12]"
"","","","","","html-button-response","143","952784","0.0-16.0","79","1","2023-06-02 17:46:33","a806436d73fb3c2fb9db1ebeb6e0a607","204.242.0.42","Mozilla/5.0 (Windows NT 10.0; Win64; x64) AppleWebKit/537.36 (KHTML, like Gecko) Chrome/116.0.0.0 Safari/537.36","WebKit","Chrome","116.0.0.0","Windows","10.0","6951","<p><strong>Please indicate the extent you agree with the following statements.</strong></p><strong><p> (1 = ""Strongly Disagree"" to 5 = ""Srongly Agree"") </strong></p>","0",""
"","","","","","survey-likert","144","964956","0.0-17.0","79","1","2023-06-02 17:46:33","a806436d73fb3c2fb9db1ebeb6e0a607","204.242.0.42","Mozilla/5.0 (Windows NT 10.0; Win64; x64) AppleWebKit/537.36 (KHTML, like Gecko) Chrome/116.0.0.0 Safari/537.36","WebKit","Chrome","116.0.0.0","Windows","10.0","12164","","{""caring1"":4,""liking1"":3,""caring2"":4,""protection1"":3,""liking2"":4,""caring3"":3,""protection2"":4,""liking3"":3,""protection3"":4,""caring4"":3,""liking4"":4,""protection4"":3,""caring5"":4,""liking5"":3,""protection5"":4}","[0,1,2,3,4,5,6,7,8,9,10,11,12,13,14]"
"","","","","","html-button-response","145","977551","0.0-18.0","79","1","2023-06-02 17:46:33","a806436d73fb3c2fb9db1ebeb6e0a607","204.242.0.42","Mozilla/5.0 (Windows NT 10.0; Win64; x64) AppleWebKit/537.36 (KHTML, like Gecko) Chrome/116.0.0.0 Safari/537.36","WebKit","Chrome","116.0.0.0","Windows","10.0","12584","<p><strong>Please imagine spercific situations involving children below, and rate the amount of tenderness you would feel in each situation. </strong></p><p><strong> (Ternderness is ""a warm, gentle feeling of sympathetic affection."") </strong></p><strong><p> (1 = ""No tenderness at all"" to 5 = ""A lot of tenderness"") </strong></p>","0",""
"","","","","","survey-likert","146","1026648","0.0-19.0","79","1","2023-06-02 17:46:33","a806436d73fb3c2fb9db1ebeb6e0a607","204.242.0.42","Mozilla/5.0 (Windows NT 10.0; Win64; x64) AppleWebKit/537.36 (KHTML, like Gecko) Chrome/116.0.0.0 Safari/537.36","WebKit","Chrome","116.0.0.0","Windows","10.0","49089","","{""tenderness-positive1"":4,""tenderness-negative1"":3,""tenderness-negative2"":4,""tenderness-positive2"":3,""tenderness-positive3"":4,""tenderness-negative3"":4,""tenderness-positive4"":3,""tendereness-negative4"":4,""tendernness-negative5"":3,""tenderness-positive5"":4}","[0,1,2,3,4,5,6,7,8,9]"
"","","","","","survey-multi-choice","147","1105435","0.0-20.0","79","1","2023-06-02 17:46:33","a806436d73fb3c2fb9db1ebeb6e0a607","204.242.0.42","Mozilla/5.0 (Windows NT 10.0; Win64; x64) AppleWebKit/537.36 (KHTML, like Gecko) Chrome/116.0.0.0 Safari/537.36","WebKit","Chrome","116.0.0.0","Windows","10.0","78773","","{""Attention2"":""Other""}","[0]"
"","","","","","html-button-response","148","1107129","0.0-21.0","79","1","2023-06-02 17:46:33","a806436d73fb3c2fb9db1ebeb6e0a607","204.242.0.42","Mozilla/5.0 (Windows NT 10.0; Win64; x64) AppleWebKit/537.36 (KHTML, like Gecko) Chrome/116.0.0.0 Safari/537.36","WebKit","Chrome","116.0.0.0","Windows","10.0","1683","<p><strong>Please indicate the extent you agree with the following statements.</strong></p>","0",""
"","","","","","survey-likert","149","1127051","0.0-22.0","79","1","2023-06-02 17:46:33","a806436d73fb3c2fb9db1ebeb6e0a607","204.242.0.42","Mozilla/5.0 (Windows NT 10.0; Win64; x64) AppleWebKit/537.36 (KHTML, like Gecko) Chrome/116.0.0.0 Safari/537.36","WebKit","Chrome","116.0.0.0","Windows","10.0","19915","","{""Patri7"":4,""Nation5"":3,""Nation8"":4,""Nation6"":3,""Nation3"":4,""Patri4"":3,""Patri8"":4,""Patri1"":3,""Nation2"":4,""Patri9"":3,""Patri2"":3,""Patri3"":3,""Patri12"":3,""Nation1"":4,""Patri10"":2,""Nation7"":4,""Patri5"":3,""Nation4"":3,""Patri11"":4,""Patri6"":4}","[6,16,19,17,14,3,7,0,13,8,1,2,11,12,9,18,4,15,10,5]"
"","","","","","html-button-response","150","1129098","0.0-23.0","79","1","2023-06-02 17:46:33","a806436d73fb3c2fb9db1ebeb6e0a607","204.242.0.42","Mozilla/5.0 (Windows NT 10.0; Win64; x64) AppleWebKit/537.36 (KHTML, like Gecko) Chrome/116.0.0.0 Safari/537.36","WebKit","Chrome","116.0.0.0","Windows","10.0","2036","<p><strong>Please indicate the extent you agree with the following statements. </p><p>(1 = ""never or definitely no"" and 9 = ""always or definitely yes"".)</strong></p>","0",""
"","","","","","survey-likert","151","1161629","0.0-24.0","79","1","2023-06-02 17:46:33","a806436d73fb3c2fb9db1ebeb6e0a607","204.242.0.42","Mozilla/5.0 (Windows NT 10.0; Win64; x64) AppleWebKit/537.36 (KHTML, like Gecko) Chrome/116.0.0.0 Safari/537.36","WebKit","Chrome","116.0.0.0","Windows","10.0","32523","","{""vi1"":8,""hc1"":7,""vc3"":8,""hc3"":7,""hc4"":8,""vi3"":7,""vi2"":7,""hi3"":7,""hi4"":6,""Robot2"":6,""hc2"":6,""vc4"":7,""hi2"":8,""vc2"":7,""hi1"":8,""vi4"":7,""vc1"":7}","[4,9,15,11,12,6,5,2,3,7,10,16,1,14,0,8,13]"
"","","","","","survey-text","152","1184555","0.0-25.0","79","1","2023-06-02 17:46:33","a806436d73fb3c2fb9db1ebeb6e0a607","204.242.0.42","Mozilla/5.0 (Windows NT 10.0; Win64; x64) AppleWebKit/537.36 (KHTML, like Gecko) Chrome/116.0.0.0 Safari/537.36","WebKit","Chrome","116.0.0.0","Windows","10.0","22893","","{""ID"":""A32D7VIEDMKU1J"",""Comments"":""Good survey""}",""
"","","","","","html-button-response","153","1219250","0.0-26.0","79","1","2023-06-02 17:46:33","a806436d73fb3c2fb9db1ebeb6e0a607","204.242.0.42","Mozilla/5.0 (Windows NT 10.0; Win64; x64) AppleWebKit/537.36 (KHTML, like Gecko) Chrome/116.0.0.0 Safari/537.36","WebKit","Chrome","116.0.0.0","Windows","10.0","34687","<p><strong>Congratulations! </strong> Your have finished all the survey. Thank you for your participation!</p><p><strong>Here is your complete token:</strong></p>acyxcfhlpfhxcnt83aci4pn<p></p><p><strong>Please copy it to the mTurk page.</strong></p>","0",""
