"success","timeout","failed_images","failed_audio","failed_video","trial_type","trial_index","time_elapsed","internal_node_id","run_id","condition","recorded_at","source_code_version","ip","user_agent","device","browser","browser_version","platform","platform_version","rt","stimulus","response","question_order"
"true","false","[]","[]","[]","preload","0","874","0.0-0.0","80","1","2023-06-02 17:49:39","a806436d73fb3c2fb9db1ebeb6e0a607","204.242.0.223","Mozilla/5.0 (Windows NT 10.0; Win64; x64) AppleWebKit/537.36 (KHTML, like Gecko) Chrome/116.0.0.0 Safari/537.36","WebKit","Chrome","116.0.0.0","Windows","10.0","","","",""
"true","","","","","fullscreen","1","3425","0.0-1.0","80","1","2023-06-02 17:49:39","a806436d73fb3c2fb9db1ebeb6e0a607","204.242.0.223","Mozilla/5.0 (Windows NT 10.0; Win64; x64) AppleWebKit/537.36 (KHTML, like Gecko) Chrome/116.0.0.0 Safari/537.36","WebKit","Chrome","116.0.0.0","Windows","10.0","","","",""
"","","","","","html-button-response","2","4854","0.0-2.0","80","1","2023-06-02 17:49:39","a806436d73fb3c2fb9db1ebeb6e0a607","204.242.0.223","Mozilla/5.0 (Windows NT 10.0; Win64; x64) AppleWebKit/537.36 (KHTML, like Gecko) Chrome/116.0.0.0 Safari/537.36","WebKit","Chrome","116.0.0.0","Windows","10.0","1427","<p ><strong>Welcome to the experiment!</strong></p><p ><strong>In the first task, please imagine:</strong></p><p>Your country is involved in a military conflict with another country.</p><p>You are the commander of your army and must make decisions in the conflict.</p><p>Specifically, as the military commander, you must decide whether to launch a missile to strike enemy.</p><p>You will face a series of scenarios. Please read each scenario carefully and make a decision.</p><p>The task will take around 10 minutes to complete.</p><p><strong>Please pay your attention during the experiment.</strong></p>","0",""
"","","","","","html-keyboard-response","3","5855","0.0-3.0-0.0","80","1","2023-06-02 17:49:39","a806436d73fb3c2fb9db1ebeb6e0a607","204.242.0.223","Mozilla/5.0 (Windows NT 10.0; Win64; x64) AppleWebKit/537.36 (KHTML, like Gecko) Chrome/116.0.0.0 Safari/537.36","WebKit","Chrome","116.0.0.0","Windows","10.0","null","<div style=""font-size:60px;"">+</div>","null",""
"","","","","","html-button-response","4","7030","0.0-3.0-1.0","80","1","2023-06-02 17:49:39","a806436d73fb3c2fb9db1ebeb6e0a607","204.242.0.223","Mozilla/5.0 (Windows NT 10.0; Win64; x64) AppleWebKit/537.36 (KHTML, like Gecko) Chrome/116.0.0.0 Safari/537.36","WebKit","Chrome","116.0.0.0","Windows","10.0","1174","<p>As the military commander, you could choose to launch a missile to kill <strong>2 enemy soldiers</strong> , but would accidentally kill <strong>1 enemy civilian</strong> nearby.</p> <p>The photo of the <strong>enemy civilian</strong> is shown below.</p> <p></p> <img src='stimuli/faces/NFM2.jpg', style='max-width: 30%;'> </img> <p><strong>Would you launch the weapon?</strong></p>","0",""
"","","","","","html-keyboard-response","5","8032","0.0-3.0-0.1","80","1","2023-06-02 17:49:39","a806436d73fb3c2fb9db1ebeb6e0a607","204.242.0.223","Mozilla/5.0 (Windows NT 10.0; Win64; x64) AppleWebKit/537.36 (KHTML, like Gecko) Chrome/116.0.0.0 Safari/537.36","WebKit","Chrome","116.0.0.0","Windows","10.0","null","<div style=""font-size:60px;"">+</div>","null",""
"","","","","","html-button-response","6","8895","0.0-3.0-1.1","80","1","2023-06-02 17:49:39","a806436d73fb3c2fb9db1ebeb6e0a607","204.242.0.223","Mozilla/5.0 (Windows NT 10.0; Win64; x64) AppleWebKit/537.36 (KHTML, like Gecko) Chrome/116.0.0.0 Safari/537.36","WebKit","Chrome","116.0.0.0","Windows","10.0","861","<p>As the military commander, you could choose to launch a missile to kill <strong>4 enemy soldiers</strong> , but would accidentally kill <strong>1 enemy tree</strong> nearby.</p> <p>The photo of the <strong>enemy tree</strong> is shown below.</p> <p></p> <img src='stimuli/tree/6.png', style='max-width: 30%;'> </img> <p><strong>Would you launch the weapon?</strong></p>","0",""
"","","","","","html-keyboard-response","7","9896","0.0-3.0-0.2","80","1","2023-06-02 17:49:39","a806436d73fb3c2fb9db1ebeb6e0a607","204.242.0.223","Mozilla/5.0 (Windows NT 10.0; Win64; x64) AppleWebKit/537.36 (KHTML, like Gecko) Chrome/116.0.0.0 Safari/537.36","WebKit","Chrome","116.0.0.0","Windows","10.0","null","<div style=""font-size:60px;"">+</div>","null",""
"","","","","","html-button-response","8","10886","0.0-3.0-1.2","80","1","2023-06-02 17:49:39","a806436d73fb3c2fb9db1ebeb6e0a607","204.242.0.223","Mozilla/5.0 (Windows NT 10.0; Win64; x64) AppleWebKit/537.36 (KHTML, like Gecko) Chrome/116.0.0.0 Safari/537.36","WebKit","Chrome","116.0.0.0","Windows","10.0","987","<p>As the military commander, you could choose to launch a missile to kill <strong>7 enemy soldiers</strong> , but would accidentally kill <strong>1 enemy civilian</strong> nearby.</p> <p>The photo of the <strong>enemy civilian</strong> is shown below.</p> <p></p> <img src='stimuli/faces/NFF8.jpg', style='max-width: 30%;'> </img> <p><strong>Would you launch the weapon?</strong></p>","0",""
"","","","","","html-keyboard-response","9","11888","0.0-3.0-0.3","80","1","2023-06-02 17:49:39","a806436d73fb3c2fb9db1ebeb6e0a607","204.242.0.223","Mozilla/5.0 (Windows NT 10.0; Win64; x64) AppleWebKit/537.36 (KHTML, like Gecko) Chrome/116.0.0.0 Safari/537.36","WebKit","Chrome","116.0.0.0","Windows","10.0","null","<div style=""font-size:60px;"">+</div>","null",""
"","","","","","html-button-response","10","12709","0.0-3.0-1.3","80","1","2023-06-02 17:49:39","a806436d73fb3c2fb9db1ebeb6e0a607","204.242.0.223","Mozilla/5.0 (Windows NT 10.0; Win64; x64) AppleWebKit/537.36 (KHTML, like Gecko) Chrome/116.0.0.0 Safari/537.36","WebKit","Chrome","116.0.0.0","Windows","10.0","820","<p>As the military commander, you could choose to launch a missile to kill <strong>6 enemy soldiers</strong> , but would accidentally kill <strong>1 enemy tree</strong> nearby.</p> <p>The photo of the <strong>enemy tree</strong> is shown below.</p> <p></p> <img src='stimuli/tree/13.png', style='max-width: 30%;'> </img> <p><strong>Would you launch the weapon?</strong></p>","0",""
"","","","","","html-keyboard-response","11","13711","0.0-3.0-0.4","80","1","2023-06-02 17:49:39","a806436d73fb3c2fb9db1ebeb6e0a607","204.242.0.223","Mozilla/5.0 (Windows NT 10.0; Win64; x64) AppleWebKit/537.36 (KHTML, like Gecko) Chrome/116.0.0.0 Safari/537.36","WebKit","Chrome","116.0.0.0","Windows","10.0","null","<div style=""font-size:60px;"">+</div>","null",""
"","","","","","html-button-response","12","14382","0.0-3.0-1.4","80","1","2023-06-02 17:49:39","a806436d73fb3c2fb9db1ebeb6e0a607","204.242.0.223","Mozilla/5.0 (Windows NT 10.0; Win64; x64) AppleWebKit/537.36 (KHTML, like Gecko) Chrome/116.0.0.0 Safari/537.36","WebKit","Chrome","116.0.0.0","Windows","10.0","669","<p>As the military commander, you could choose to launch a missile to kill <strong>7 enemy soldiers</strong> , but would accidentally kill <strong>1 enemy civilian</strong> nearby.</p> <p>The photo of the <strong>enemy civilian</strong> is shown below.</p> <p></p> <img src='stimuli/faces/NFF5.jpg', style='max-width: 30%;'> </img> <p><strong>Would you launch the weapon?</strong></p>","0",""
"","","","","","html-keyboard-response","13","15383","0.0-3.0-0.5","80","1","2023-06-02 17:49:39","a806436d73fb3c2fb9db1ebeb6e0a607","204.242.0.223","Mozilla/5.0 (Windows NT 10.0; Win64; x64) AppleWebKit/537.36 (KHTML, like Gecko) Chrome/116.0.0.0 Safari/537.36","WebKit","Chrome","116.0.0.0","Windows","10.0","null","<div style=""font-size:60px;"">+</div>","null",""
"","","","","","html-button-response","14","16191","0.0-3.0-1.5","80","1","2023-06-02 17:49:39","a806436d73fb3c2fb9db1ebeb6e0a607","204.242.0.223","Mozilla/5.0 (Windows NT 10.0; Win64; x64) AppleWebKit/537.36 (KHTML, like Gecko) Chrome/116.0.0.0 Safari/537.36","WebKit","Chrome","116.0.0.0","Windows","10.0","806","<p>As the military commander, you could choose to launch a missile to kill <strong>4 enemy soldiers</strong> , but would accidentally kill <strong>1 enemy tree</strong> nearby.</p> <p>The photo of the <strong>enemy tree</strong> is shown below.</p> <p></p> <img src='stimuli/tree/9.png', style='max-width: 30%;'> </img> <p><strong>Would you launch the weapon?</strong></p>","0",""
"","","","","","html-keyboard-response","15","17192","0.0-3.0-0.6","80","1","2023-06-02 17:49:39","a806436d73fb3c2fb9db1ebeb6e0a607","204.242.0.223","Mozilla/5.0 (Windows NT 10.0; Win64; x64) AppleWebKit/537.36 (KHTML, like Gecko) Chrome/116.0.0.0 Safari/537.36","WebKit","Chrome","116.0.0.0","Windows","10.0","null","<div style=""font-size:60px;"">+</div>","null",""
"","","","","","html-button-response","16","17958","0.0-3.0-1.6","80","1","2023-06-02 17:49:39","a806436d73fb3c2fb9db1ebeb6e0a607","204.242.0.223","Mozilla/5.0 (Windows NT 10.0; Win64; x64) AppleWebKit/537.36 (KHTML, like Gecko) Chrome/116.0.0.0 Safari/537.36","WebKit","Chrome","116.0.0.0","Windows","10.0","763","<p>As the military commander, you could choose to launch a missile to kill <strong>2 enemy soldiers</strong> , but would accidentally kill <strong>1 enemy tree</strong> nearby.</p> <p>The photo of the <strong>enemy tree</strong> is shown below.</p> <p></p> <img src='stimuli/tree/15.png', style='max-width: 30%;'> </img> <p><strong>Would you launch the weapon?</strong></p>","0",""
"","","","","","html-keyboard-response","17","18960","0.0-3.0-0.7","80","1","2023-06-02 17:49:39","a806436d73fb3c2fb9db1ebeb6e0a607","204.242.0.223","Mozilla/5.0 (Windows NT 10.0; Win64; x64) AppleWebKit/537.36 (KHTML, like Gecko) Chrome/116.0.0.0 Safari/537.36","WebKit","Chrome","116.0.0.0","Windows","10.0","null","<div style=""font-size:60px;"">+</div>","null",""
"","","","","","html-button-response","18","19798","0.0-3.0-1.7","80","1","2023-06-02 17:49:39","a806436d73fb3c2fb9db1ebeb6e0a607","204.242.0.223","Mozilla/5.0 (Windows NT 10.0; Win64; x64) AppleWebKit/537.36 (KHTML, like Gecko) Chrome/116.0.0.0 Safari/537.36","WebKit","Chrome","116.0.0.0","Windows","10.0","837","<p>As the military commander, you could choose to launch a missile to kill <strong>10 enemy soldiers</strong> , but would accidentally kill <strong>1 enemy civilian</strong> nearby.</p> <p>The photo of the <strong>enemy civilian</strong> is shown below.</p> <p></p> <img src='stimuli/faces/NFF2.jpg', style='max-width: 30%;'> </img> <p><strong>Would you launch the weapon?</strong></p>","0",""
"","","","","","html-keyboard-response","19","20800","0.0-3.0-0.8","80","1","2023-06-02 17:49:39","a806436d73fb3c2fb9db1ebeb6e0a607","204.242.0.223","Mozilla/5.0 (Windows NT 10.0; Win64; x64) AppleWebKit/537.36 (KHTML, like Gecko) Chrome/116.0.0.0 Safari/537.36","WebKit","Chrome","116.0.0.0","Windows","10.0","null","<div style=""font-size:60px;"">+</div>","null",""
"","","","","","html-button-response","20","21862","0.0-3.0-1.8","80","1","2023-06-02 17:49:39","a806436d73fb3c2fb9db1ebeb6e0a607","204.242.0.223","Mozilla/5.0 (Windows NT 10.0; Win64; x64) AppleWebKit/537.36 (KHTML, like Gecko) Chrome/116.0.0.0 Safari/537.36","WebKit","Chrome","116.0.0.0","Windows","10.0","1059","<p>As the military commander, you could choose to launch a missile to kill <strong>3 enemy soldiers</strong> , but would accidentally kill <strong>1 enemy civilian</strong> nearby.</p> <p>The photo of the <strong>enemy civilian</strong> is shown below.</p> <p></p> <img src='stimuli/faces/NFM5.jpg', style='max-width: 30%;'> </img> <p><strong>Would you launch the weapon?</strong></p>","0",""
"","","","","","html-keyboard-response","21","22863","0.0-3.0-0.9","80","1","2023-06-02 17:49:39","a806436d73fb3c2fb9db1ebeb6e0a607","204.242.0.223","Mozilla/5.0 (Windows NT 10.0; Win64; x64) AppleWebKit/537.36 (KHTML, like Gecko) Chrome/116.0.0.0 Safari/537.36","WebKit","Chrome","116.0.0.0","Windows","10.0","null","<div style=""font-size:60px;"">+</div>","null",""
"","","","","","html-button-response","22","23711","0.0-3.0-1.9","80","1","2023-06-02 17:49:39","a806436d73fb3c2fb9db1ebeb6e0a607","204.242.0.223","Mozilla/5.0 (Windows NT 10.0; Win64; x64) AppleWebKit/537.36 (KHTML, like Gecko) Chrome/116.0.0.0 Safari/537.36","WebKit","Chrome","116.0.0.0","Windows","10.0","845","<p>As the military commander, you could choose to launch a missile to kill <strong>10 enemy soldiers</strong> , but would accidentally kill <strong>1 enemy tree</strong> nearby.</p> <p>The photo of the <strong>enemy tree</strong> is shown below.</p> <p></p> <img src='stimuli/tree/15.png', style='max-width: 30%;'> </img> <p><strong>Would you launch the weapon?</strong></p>","0",""
"","","","","","html-keyboard-response","23","24712","0.0-3.0-0.10","80","1","2023-06-02 17:49:39","a806436d73fb3c2fb9db1ebeb6e0a607","204.242.0.223","Mozilla/5.0 (Windows NT 10.0; Win64; x64) AppleWebKit/537.36 (KHTML, like Gecko) Chrome/116.0.0.0 Safari/537.36","WebKit","Chrome","116.0.0.0","Windows","10.0","null","<div style=""font-size:60px;"">+</div>","null",""
"","","","","","html-button-response","24","25630","0.0-3.0-1.10","80","1","2023-06-02 17:49:39","a806436d73fb3c2fb9db1ebeb6e0a607","204.242.0.223","Mozilla/5.0 (Windows NT 10.0; Win64; x64) AppleWebKit/537.36 (KHTML, like Gecko) Chrome/116.0.0.0 Safari/537.36","WebKit","Chrome","116.0.0.0","Windows","10.0","916","<p>As the military commander, you could choose to launch a missile to kill <strong>7 enemy soldiers</strong> , but would accidentally kill <strong>1 enemy civilian</strong> nearby.</p> <p>The photo of the <strong>enemy civilian</strong> is shown below.</p> <p></p> <img src='stimuli/faces/NFM6.jpg', style='max-width: 30%;'> </img> <p><strong>Would you launch the weapon?</strong></p>","0",""
"","","","","","html-keyboard-response","25","26637","0.0-3.0-0.11","80","1","2023-06-02 17:49:39","a806436d73fb3c2fb9db1ebeb6e0a607","204.242.0.223","Mozilla/5.0 (Windows NT 10.0; Win64; x64) AppleWebKit/537.36 (KHTML, like Gecko) Chrome/116.0.0.0 Safari/537.36","WebKit","Chrome","116.0.0.0","Windows","10.0","null","<div style=""font-size:60px;"">+</div>","null",""
"","","","","","html-button-response","26","27503","0.0-3.0-1.11","80","1","2023-06-02 17:49:39","a806436d73fb3c2fb9db1ebeb6e0a607","204.242.0.223","Mozilla/5.0 (Windows NT 10.0; Win64; x64) AppleWebKit/537.36 (KHTML, like Gecko) Chrome/116.0.0.0 Safari/537.36","WebKit","Chrome","116.0.0.0","Windows","10.0","864","<p>As the military commander, you could choose to launch a missile to kill <strong>6 enemy soldiers</strong> , but would accidentally kill <strong>1 enemy civilian</strong> nearby.</p> <p>The photo of the <strong>enemy civilian</strong> is shown below.</p> <p></p> <img src='stimuli/faces/NFF3.jpg', style='max-width: 30%;'> </img> <p><strong>Would you launch the weapon?</strong></p>","0",""
"","","","","","html-keyboard-response","27","28505","0.0-3.0-0.12","80","1","2023-06-02 17:49:39","a806436d73fb3c2fb9db1ebeb6e0a607","204.242.0.223","Mozilla/5.0 (Windows NT 10.0; Win64; x64) AppleWebKit/537.36 (KHTML, like Gecko) Chrome/116.0.0.0 Safari/537.36","WebKit","Chrome","116.0.0.0","Windows","10.0","null","<div style=""font-size:60px;"">+</div>","null",""
"","","","","","html-button-response","28","29599","0.0-3.0-1.12","80","1","2023-06-02 17:49:39","a806436d73fb3c2fb9db1ebeb6e0a607","204.242.0.223","Mozilla/5.0 (Windows NT 10.0; Win64; x64) AppleWebKit/537.36 (KHTML, like Gecko) Chrome/116.0.0.0 Safari/537.36","WebKit","Chrome","116.0.0.0","Windows","10.0","1091","<p>As the military commander, you could choose to launch a missile to kill <strong>4 enemy soldiers</strong> , but would accidentally kill <strong>1 enemy tree</strong> nearby.</p> <p>The photo of the <strong>enemy tree</strong> is shown below.</p> <p></p> <img src='stimuli/tree/1.png', style='max-width: 30%;'> </img> <p><strong>Would you launch the weapon?</strong></p>","0",""
"","","","","","html-keyboard-response","29","30600","0.0-3.0-0.13","80","1","2023-06-02 17:49:39","a806436d73fb3c2fb9db1ebeb6e0a607","204.242.0.223","Mozilla/5.0 (Windows NT 10.0; Win64; x64) AppleWebKit/537.36 (KHTML, like Gecko) Chrome/116.0.0.0 Safari/537.36","WebKit","Chrome","116.0.0.0","Windows","10.0","null","<div style=""font-size:60px;"">+</div>","null",""
"","","","","","html-button-response","30","30918","0.0-3.0-1.13","80","1","2023-06-02 17:49:39","a806436d73fb3c2fb9db1ebeb6e0a607","204.242.0.223","Mozilla/5.0 (Windows NT 10.0; Win64; x64) AppleWebKit/537.36 (KHTML, like Gecko) Chrome/116.0.0.0 Safari/537.36","WebKit","Chrome","116.0.0.0","Windows","10.0","315","<p>As the military commander, you could choose to launch a missile to kill <strong>4 enemy soldiers</strong> , but would accidentally kill <strong>1 enemy civilian</strong> nearby.</p> <p>The photo of the <strong>enemy civilian</strong> is shown below.</p> <p></p> <img src='stimuli/faces/NFF6.jpg', style='max-width: 30%;'> </img> <p><strong>Would you launch the weapon?</strong></p>","0",""
"","","","","","html-keyboard-response","31","31920","0.0-3.0-0.14","80","1","2023-06-02 17:49:39","a806436d73fb3c2fb9db1ebeb6e0a607","204.242.0.223","Mozilla/5.0 (Windows NT 10.0; Win64; x64) AppleWebKit/537.36 (KHTML, like Gecko) Chrome/116.0.0.0 Safari/537.36","WebKit","Chrome","116.0.0.0","Windows","10.0","null","<div style=""font-size:60px;"">+</div>","null",""
"","","","","","html-button-response","32","32806","0.0-3.0-1.14","80","1","2023-06-02 17:49:39","a806436d73fb3c2fb9db1ebeb6e0a607","204.242.0.223","Mozilla/5.0 (Windows NT 10.0; Win64; x64) AppleWebKit/537.36 (KHTML, like Gecko) Chrome/116.0.0.0 Safari/537.36","WebKit","Chrome","116.0.0.0","Windows","10.0","883","<p>As the military commander, you could choose to launch a missile to kill <strong>9 enemy soldiers</strong> , but would accidentally kill <strong>1 enemy civilian</strong> nearby.</p> <p>The photo of the <strong>enemy civilian</strong> is shown below.</p> <p></p> <img src='stimuli/faces/NFM3.jpg', style='max-width: 30%;'> </img> <p><strong>Would you launch the weapon?</strong></p>","0",""
"","","","","","html-keyboard-response","33","33808","0.0-3.0-0.15","80","1","2023-06-02 17:49:39","a806436d73fb3c2fb9db1ebeb6e0a607","204.242.0.223","Mozilla/5.0 (Windows NT 10.0; Win64; x64) AppleWebKit/537.36 (KHTML, like Gecko) Chrome/116.0.0.0 Safari/537.36","WebKit","Chrome","116.0.0.0","Windows","10.0","null","<div style=""font-size:60px;"">+</div>","null",""
"","","","","","html-button-response","34","34341","0.0-3.0-1.15","80","1","2023-06-02 17:49:39","a806436d73fb3c2fb9db1ebeb6e0a607","204.242.0.223","Mozilla/5.0 (Windows NT 10.0; Win64; x64) AppleWebKit/537.36 (KHTML, like Gecko) Chrome/116.0.0.0 Safari/537.36","WebKit","Chrome","116.0.0.0","Windows","10.0","531","<p>As the military commander, you could choose to launch a missile to kill <strong>6 enemy soldiers</strong> , but would accidentally kill <strong>1 enemy civilian</strong> nearby.</p> <p>The photo of the <strong>enemy civilian</strong> is shown below.</p> <p></p> <img src='stimuli/faces/NFM4.jpg', style='max-width: 30%;'> </img> <p><strong>Would you launch the weapon?</strong></p>","0",""
"","","","","","html-keyboard-response","35","35343","0.0-3.0-0.16","80","1","2023-06-02 17:49:39","a806436d73fb3c2fb9db1ebeb6e0a607","204.242.0.223","Mozilla/5.0 (Windows NT 10.0; Win64; x64) AppleWebKit/537.36 (KHTML, like Gecko) Chrome/116.0.0.0 Safari/537.36","WebKit","Chrome","116.0.0.0","Windows","10.0","null","<div style=""font-size:60px;"">+</div>","null",""
"","","","","","html-button-response","36","35830","0.0-3.0-1.16","80","1","2023-06-02 17:49:39","a806436d73fb3c2fb9db1ebeb6e0a607","204.242.0.223","Mozilla/5.0 (Windows NT 10.0; Win64; x64) AppleWebKit/537.36 (KHTML, like Gecko) Chrome/116.0.0.0 Safari/537.36","WebKit","Chrome","116.0.0.0","Windows","10.0","485","<p>As the military commander, you could choose to launch a missile to kill <strong>2 enemy soldiers</strong> , but would accidentally kill <strong>1 enemy civilian</strong> nearby.</p> <p>The photo of the <strong>enemy civilian</strong> is shown below.</p> <p></p> <img src='stimuli/faces/NFM4.jpg', style='max-width: 30%;'> </img> <p><strong>Would you launch the weapon?</strong></p>","0",""
"","","","","","html-keyboard-response","37","36831","0.0-3.0-0.17","80","1","2023-06-02 17:49:39","a806436d73fb3c2fb9db1ebeb6e0a607","204.242.0.223","Mozilla/5.0 (Windows NT 10.0; Win64; x64) AppleWebKit/537.36 (KHTML, like Gecko) Chrome/116.0.0.0 Safari/537.36","WebKit","Chrome","116.0.0.0","Windows","10.0","null","<div style=""font-size:60px;"">+</div>","null",""
"","","","","","html-button-response","38","37702","0.0-3.0-1.17","80","1","2023-06-02 17:49:39","a806436d73fb3c2fb9db1ebeb6e0a607","204.242.0.223","Mozilla/5.0 (Windows NT 10.0; Win64; x64) AppleWebKit/537.36 (KHTML, like Gecko) Chrome/116.0.0.0 Safari/537.36","WebKit","Chrome","116.0.0.0","Windows","10.0","867","<p>As the military commander, you could choose to launch a missile to kill <strong>4 enemy soldiers</strong> , but would accidentally kill <strong>1 enemy civilian</strong> nearby.</p> <p>The photo of the <strong>enemy civilian</strong> is shown below.</p> <p></p> <img src='stimuli/faces/NFF1.jpg', style='max-width: 30%;'> </img> <p><strong>Would you launch the weapon?</strong></p>","0",""
"","","","","","html-keyboard-response","39","38704","0.0-3.0-0.18","80","1","2023-06-02 17:49:39","a806436d73fb3c2fb9db1ebeb6e0a607","204.242.0.223","Mozilla/5.0 (Windows NT 10.0; Win64; x64) AppleWebKit/537.36 (KHTML, like Gecko) Chrome/116.0.0.0 Safari/537.36","WebKit","Chrome","116.0.0.0","Windows","10.0","null","<div style=""font-size:60px;"">+</div>","null",""
"","","","","","html-button-response","40","39470","0.0-3.0-1.18","80","1","2023-06-02 17:49:39","a806436d73fb3c2fb9db1ebeb6e0a607","204.242.0.223","Mozilla/5.0 (Windows NT 10.0; Win64; x64) AppleWebKit/537.36 (KHTML, like Gecko) Chrome/116.0.0.0 Safari/537.36","WebKit","Chrome","116.0.0.0","Windows","10.0","764","<p>As the military commander, you could choose to launch a missile to kill <strong>4 enemy soldiers</strong> , but would accidentally kill <strong>1 enemy civilian</strong> nearby.</p> <p>The photo of the <strong>enemy civilian</strong> is shown below.</p> <p></p> <img src='stimuli/faces/NFF3.jpg', style='max-width: 30%;'> </img> <p><strong>Would you launch the weapon?</strong></p>","0",""
"","","","","","html-keyboard-response","41","40473","0.0-3.0-0.19","80","1","2023-06-02 17:49:39","a806436d73fb3c2fb9db1ebeb6e0a607","204.242.0.223","Mozilla/5.0 (Windows NT 10.0; Win64; x64) AppleWebKit/537.36 (KHTML, like Gecko) Chrome/116.0.0.0 Safari/537.36","WebKit","Chrome","116.0.0.0","Windows","10.0","null","<div style=""font-size:60px;"">+</div>","null",""
"","","","","","html-button-response","42","41006","0.0-3.0-1.19","80","1","2023-06-02 17:49:39","a806436d73fb3c2fb9db1ebeb6e0a607","204.242.0.223","Mozilla/5.0 (Windows NT 10.0; Win64; x64) AppleWebKit/537.36 (KHTML, like Gecko) Chrome/116.0.0.0 Safari/537.36","WebKit","Chrome","116.0.0.0","Windows","10.0","530","<p>As the military commander, you could choose to launch a missile to kill <strong>2 enemy soldiers</strong> , but would accidentally kill <strong>1 enemy civilian</strong> nearby.</p> <p>The photo of the <strong>enemy civilian</strong> is shown below.</p> <p></p> <img src='stimuli/faces/NFM6.jpg', style='max-width: 30%;'> </img> <p><strong>Would you launch the weapon?</strong></p>","0",""
"","","","","","html-keyboard-response","43","42007","0.0-3.0-0.20","80","1","2023-06-02 17:49:39","a806436d73fb3c2fb9db1ebeb6e0a607","204.242.0.223","Mozilla/5.0 (Windows NT 10.0; Win64; x64) AppleWebKit/537.36 (KHTML, like Gecko) Chrome/116.0.0.0 Safari/537.36","WebKit","Chrome","116.0.0.0","Windows","10.0","null","<div style=""font-size:60px;"">+</div>","null",""
"","","","","","html-button-response","44","42846","0.0-3.0-1.20","80","1","2023-06-02 17:49:39","a806436d73fb3c2fb9db1ebeb6e0a607","204.242.0.223","Mozilla/5.0 (Windows NT 10.0; Win64; x64) AppleWebKit/537.36 (KHTML, like Gecko) Chrome/116.0.0.0 Safari/537.36","WebKit","Chrome","116.0.0.0","Windows","10.0","836","<p>As the military commander, you could choose to launch a missile to kill <strong>10 enemy soldiers</strong> , but would accidentally kill <strong>1 enemy civilian</strong> nearby.</p> <p>The photo of the <strong>enemy civilian</strong> is shown below.</p> <p></p> <img src='stimuli/faces/NFM8.jpg', style='max-width: 30%;'> </img> <p><strong>Would you launch the weapon?</strong></p>","0",""
"","","","","","html-keyboard-response","45","43848","0.0-3.0-0.21","80","1","2023-06-02 17:49:39","a806436d73fb3c2fb9db1ebeb6e0a607","204.242.0.223","Mozilla/5.0 (Windows NT 10.0; Win64; x64) AppleWebKit/537.36 (KHTML, like Gecko) Chrome/116.0.0.0 Safari/537.36","WebKit","Chrome","116.0.0.0","Windows","10.0","null","<div style=""font-size:60px;"">+</div>","null",""
"","","","","","html-button-response","46","44665","0.0-3.0-1.21","80","1","2023-06-02 17:49:39","a806436d73fb3c2fb9db1ebeb6e0a607","204.242.0.223","Mozilla/5.0 (Windows NT 10.0; Win64; x64) AppleWebKit/537.36 (KHTML, like Gecko) Chrome/116.0.0.0 Safari/537.36","WebKit","Chrome","116.0.0.0","Windows","10.0","815","<p>As the military commander, you could choose to launch a missile to kill <strong>8 enemy soldiers</strong> , but would accidentally kill <strong>1 enemy tree</strong> nearby.</p> <p>The photo of the <strong>enemy tree</strong> is shown below.</p> <p></p> <img src='stimuli/tree/11.png', style='max-width: 30%;'> </img> <p><strong>Would you launch the weapon?</strong></p>","0",""
"","","","","","html-keyboard-response","47","45668","0.0-3.0-0.22","80","1","2023-06-02 17:49:39","a806436d73fb3c2fb9db1ebeb6e0a607","204.242.0.223","Mozilla/5.0 (Windows NT 10.0; Win64; x64) AppleWebKit/537.36 (KHTML, like Gecko) Chrome/116.0.0.0 Safari/537.36","WebKit","Chrome","116.0.0.0","Windows","10.0","null","<div style=""font-size:60px;"">+</div>","null",""
"","","","","","html-button-response","48","46374","0.0-3.0-1.22","80","1","2023-06-02 17:49:39","a806436d73fb3c2fb9db1ebeb6e0a607","204.242.0.223","Mozilla/5.0 (Windows NT 10.0; Win64; x64) AppleWebKit/537.36 (KHTML, like Gecko) Chrome/116.0.0.0 Safari/537.36","WebKit","Chrome","116.0.0.0","Windows","10.0","703","<p>As the military commander, you could choose to launch a missile to kill <strong>7 enemy soldiers</strong> , but would accidentally kill <strong>1 enemy tree</strong> nearby.</p> <p>The photo of the <strong>enemy tree</strong> is shown below.</p> <p></p> <img src='stimuli/tree/9.png', style='max-width: 30%;'> </img> <p><strong>Would you launch the weapon?</strong></p>","0",""
"","","","","","html-keyboard-response","49","47376","0.0-3.0-0.23","80","1","2023-06-02 17:49:39","a806436d73fb3c2fb9db1ebeb6e0a607","204.242.0.223","Mozilla/5.0 (Windows NT 10.0; Win64; x64) AppleWebKit/537.36 (KHTML, like Gecko) Chrome/116.0.0.0 Safari/537.36","WebKit","Chrome","116.0.0.0","Windows","10.0","null","<div style=""font-size:60px;"">+</div>","null",""
"","","","","","html-button-response","50","48237","0.0-3.0-1.23","80","1","2023-06-02 17:49:39","a806436d73fb3c2fb9db1ebeb6e0a607","204.242.0.223","Mozilla/5.0 (Windows NT 10.0; Win64; x64) AppleWebKit/537.36 (KHTML, like Gecko) Chrome/116.0.0.0 Safari/537.36","WebKit","Chrome","116.0.0.0","Windows","10.0","858","<p>As the military commander, you could choose to launch a missile to kill <strong>1 enemy soldier</strong> , but would accidentally kill <strong>1 enemy tree</strong> nearby.</p> <p>The photo of the <strong>enemy tree</strong> is shown below.</p> <p></p> <img src='stimuli/tree/16.png', style='max-width: 30%;'> </img> <p><strong>Would you launch the weapon?</strong></p>","0",""
"","","","","","html-keyboard-response","51","49239","0.0-3.0-0.24","80","1","2023-06-02 17:49:39","a806436d73fb3c2fb9db1ebeb6e0a607","204.242.0.223","Mozilla/5.0 (Windows NT 10.0; Win64; x64) AppleWebKit/537.36 (KHTML, like Gecko) Chrome/116.0.0.0 Safari/537.36","WebKit","Chrome","116.0.0.0","Windows","10.0","null","<div style=""font-size:60px;"">+</div>","null",""
"","","","","","html-button-response","52","50062","0.0-3.0-1.24","80","1","2023-06-02 17:49:39","a806436d73fb3c2fb9db1ebeb6e0a607","204.242.0.223","Mozilla/5.0 (Windows NT 10.0; Win64; x64) AppleWebKit/537.36 (KHTML, like Gecko) Chrome/116.0.0.0 Safari/537.36","WebKit","Chrome","116.0.0.0","Windows","10.0","820","<p>As the military commander, you could choose to launch a missile to kill <strong>1 enemy soldier</strong> , but would accidentally kill <strong>1 enemy tree</strong> nearby.</p> <p>The photo of the <strong>enemy tree</strong> is shown below.</p> <p></p> <img src='stimuli/tree/7.png', style='max-width: 30%;'> </img> <p><strong>Would you launch the weapon?</strong></p>","0",""
"","","","","","html-keyboard-response","53","51063","0.0-3.0-0.25","80","1","2023-06-02 17:49:39","a806436d73fb3c2fb9db1ebeb6e0a607","204.242.0.223","Mozilla/5.0 (Windows NT 10.0; Win64; x64) AppleWebKit/537.36 (KHTML, like Gecko) Chrome/116.0.0.0 Safari/537.36","WebKit","Chrome","116.0.0.0","Windows","10.0","null","<div style=""font-size:60px;"">+</div>","null",""
"","","","","","html-button-response","54","51934","0.0-3.0-1.25","80","1","2023-06-02 17:49:39","a806436d73fb3c2fb9db1ebeb6e0a607","204.242.0.223","Mozilla/5.0 (Windows NT 10.0; Win64; x64) AppleWebKit/537.36 (KHTML, like Gecko) Chrome/116.0.0.0 Safari/537.36","WebKit","Chrome","116.0.0.0","Windows","10.0","868","<p>As the military commander, you could choose to launch a missile to kill <strong>1 enemy soldier</strong> , but would accidentally kill <strong>1 enemy civilian</strong> nearby.</p> <p>The photo of the <strong>enemy civilian</strong> is shown below.</p> <p></p> <img src='stimuli/faces/NFF5.jpg', style='max-width: 30%;'> </img> <p><strong>Would you launch the weapon?</strong></p>","0",""
"","","","","","html-keyboard-response","55","52936","0.0-3.0-0.26","80","1","2023-06-02 17:49:39","a806436d73fb3c2fb9db1ebeb6e0a607","204.242.0.223","Mozilla/5.0 (Windows NT 10.0; Win64; x64) AppleWebKit/537.36 (KHTML, like Gecko) Chrome/116.0.0.0 Safari/537.36","WebKit","Chrome","116.0.0.0","Windows","10.0","null","<div style=""font-size:60px;"">+</div>","null",""
"","","","","","html-button-response","56","53670","0.0-3.0-1.26","80","1","2023-06-02 17:49:39","a806436d73fb3c2fb9db1ebeb6e0a607","204.242.0.223","Mozilla/5.0 (Windows NT 10.0; Win64; x64) AppleWebKit/537.36 (KHTML, like Gecko) Chrome/116.0.0.0 Safari/537.36","WebKit","Chrome","116.0.0.0","Windows","10.0","730","<p>As the military commander, you could choose to launch a missile to kill <strong>6 enemy soldiers</strong> , but would accidentally kill <strong>1 enemy civilian</strong> nearby.</p> <p>The photo of the <strong>enemy civilian</strong> is shown below.</p> <p></p> <img src='stimuli/faces/NFM5.jpg', style='max-width: 30%;'> </img> <p><strong>Would you launch the weapon?</strong></p>","0",""
"","","","","","html-keyboard-response","57","54672","0.0-3.0-0.27","80","1","2023-06-02 17:49:39","a806436d73fb3c2fb9db1ebeb6e0a607","204.242.0.223","Mozilla/5.0 (Windows NT 10.0; Win64; x64) AppleWebKit/537.36 (KHTML, like Gecko) Chrome/116.0.0.0 Safari/537.36","WebKit","Chrome","116.0.0.0","Windows","10.0","null","<div style=""font-size:60px;"">+</div>","null",""
"","","","","","html-button-response","58","55391","0.0-3.0-1.27","80","1","2023-06-02 17:49:39","a806436d73fb3c2fb9db1ebeb6e0a607","204.242.0.223","Mozilla/5.0 (Windows NT 10.0; Win64; x64) AppleWebKit/537.36 (KHTML, like Gecko) Chrome/116.0.0.0 Safari/537.36","WebKit","Chrome","116.0.0.0","Windows","10.0","716","<p>As the military commander, you could choose to launch a missile to kill <strong>4 enemy soldiers</strong> , but would accidentally kill <strong>1 enemy civilian</strong> nearby.</p> <p>The photo of the <strong>enemy civilian</strong> is shown below.</p> <p></p> <img src='stimuli/faces/NFF7.jpg', style='max-width: 30%;'> </img> <p><strong>Would you launch the weapon?</strong></p>","0",""
"","","","","","html-keyboard-response","59","56393","0.0-3.0-0.28","80","1","2023-06-02 17:49:39","a806436d73fb3c2fb9db1ebeb6e0a607","204.242.0.223","Mozilla/5.0 (Windows NT 10.0; Win64; x64) AppleWebKit/537.36 (KHTML, like Gecko) Chrome/116.0.0.0 Safari/537.36","WebKit","Chrome","116.0.0.0","Windows","10.0","null","<div style=""font-size:60px;"">+</div>","null",""
"","","","","","html-button-response","60","57215","0.0-3.0-1.28","80","1","2023-06-02 17:49:39","a806436d73fb3c2fb9db1ebeb6e0a607","204.242.0.223","Mozilla/5.0 (Windows NT 10.0; Win64; x64) AppleWebKit/537.36 (KHTML, like Gecko) Chrome/116.0.0.0 Safari/537.36","WebKit","Chrome","116.0.0.0","Windows","10.0","819","<p>As the military commander, you could choose to launch a missile to kill <strong>1 enemy soldier</strong> , but would accidentally kill <strong>1 enemy civilian</strong> nearby.</p> <p>The photo of the <strong>enemy civilian</strong> is shown below.</p> <p></p> <img src='stimuli/faces/NFM8.jpg', style='max-width: 30%;'> </img> <p><strong>Would you launch the weapon?</strong></p>","0",""
"","","","","","html-keyboard-response","61","58218","0.0-3.0-0.29","80","1","2023-06-02 17:49:39","a806436d73fb3c2fb9db1ebeb6e0a607","204.242.0.223","Mozilla/5.0 (Windows NT 10.0; Win64; x64) AppleWebKit/537.36 (KHTML, like Gecko) Chrome/116.0.0.0 Safari/537.36","WebKit","Chrome","116.0.0.0","Windows","10.0","null","<div style=""font-size:60px;"">+</div>","null",""
"","","","","","html-button-response","62","59125","0.0-3.0-1.29","80","1","2023-06-02 17:49:39","a806436d73fb3c2fb9db1ebeb6e0a607","204.242.0.223","Mozilla/5.0 (Windows NT 10.0; Win64; x64) AppleWebKit/537.36 (KHTML, like Gecko) Chrome/116.0.0.0 Safari/537.36","WebKit","Chrome","116.0.0.0","Windows","10.0","905","<p>As the military commander, you could choose to launch a missile to kill <strong>8 enemy soldiers</strong> , but would accidentally kill <strong>1 enemy tree</strong> nearby.</p> <p>The photo of the <strong>enemy tree</strong> is shown below.</p> <p></p> <img src='stimuli/tree/3.png', style='max-width: 30%;'> </img> <p><strong>Would you launch the weapon?</strong></p>","0",""
"","","","","","html-keyboard-response","63","60129","0.0-3.0-0.30","80","1","2023-06-02 17:49:39","a806436d73fb3c2fb9db1ebeb6e0a607","204.242.0.223","Mozilla/5.0 (Windows NT 10.0; Win64; x64) AppleWebKit/537.36 (KHTML, like Gecko) Chrome/116.0.0.0 Safari/537.36","WebKit","Chrome","116.0.0.0","Windows","10.0","null","<div style=""font-size:60px;"">+</div>","null",""
"","","","","","html-button-response","64","60974","0.0-3.0-1.30","80","1","2023-06-02 17:49:39","a806436d73fb3c2fb9db1ebeb6e0a607","204.242.0.223","Mozilla/5.0 (Windows NT 10.0; Win64; x64) AppleWebKit/537.36 (KHTML, like Gecko) Chrome/116.0.0.0 Safari/537.36","WebKit","Chrome","116.0.0.0","Windows","10.0","843","<p>As the military commander, you could choose to launch a missile to kill <strong>2 enemy soldiers</strong> , but would accidentally kill <strong>1 enemy tree</strong> nearby.</p> <p>The photo of the <strong>enemy tree</strong> is shown below.</p> <p></p> <img src='stimuli/tree/12.png', style='max-width: 30%;'> </img> <p><strong>Would you launch the weapon?</strong></p>","0",""
"","","","","","html-keyboard-response","65","61977","0.0-3.0-0.31","80","1","2023-06-02 17:49:39","a806436d73fb3c2fb9db1ebeb6e0a607","204.242.0.223","Mozilla/5.0 (Windows NT 10.0; Win64; x64) AppleWebKit/537.36 (KHTML, like Gecko) Chrome/116.0.0.0 Safari/537.36","WebKit","Chrome","116.0.0.0","Windows","10.0","null","<div style=""font-size:60px;"">+</div>","null",""
"","","","","","html-button-response","66","62951","0.0-3.0-1.31","80","1","2023-06-02 17:49:39","a806436d73fb3c2fb9db1ebeb6e0a607","204.242.0.223","Mozilla/5.0 (Windows NT 10.0; Win64; x64) AppleWebKit/537.36 (KHTML, like Gecko) Chrome/116.0.0.0 Safari/537.36","WebKit","Chrome","116.0.0.0","Windows","10.0","970","<p>As the military commander, you could choose to launch a missile to kill <strong>4 enemy soldiers</strong> , but would accidentally kill <strong>1 enemy civilian</strong> nearby.</p> <p>The photo of the <strong>enemy civilian</strong> is shown below.</p> <p></p> <img src='stimuli/faces/NFM7.jpg', style='max-width: 30%;'> </img> <p><strong>Would you launch the weapon?</strong></p>","0",""
"","","","","","html-keyboard-response","67","63956","0.0-3.0-0.32","80","1","2023-06-02 17:49:39","a806436d73fb3c2fb9db1ebeb6e0a607","204.242.0.223","Mozilla/5.0 (Windows NT 10.0; Win64; x64) AppleWebKit/537.36 (KHTML, like Gecko) Chrome/116.0.0.0 Safari/537.36","WebKit","Chrome","116.0.0.0","Windows","10.0","null","<div style=""font-size:60px;"">+</div>","null",""
"","","","","","html-button-response","68","65086","0.0-3.0-1.32","80","1","2023-06-02 17:49:39","a806436d73fb3c2fb9db1ebeb6e0a607","204.242.0.223","Mozilla/5.0 (Windows NT 10.0; Win64; x64) AppleWebKit/537.36 (KHTML, like Gecko) Chrome/116.0.0.0 Safari/537.36","WebKit","Chrome","116.0.0.0","Windows","10.0","1127","<p>As the military commander, you could choose to launch a missile to kill <strong>10 enemy soldiers</strong> , but would accidentally kill <strong>1 enemy civilian</strong> nearby.</p> <p>The photo of the <strong>enemy civilian</strong> is shown below.</p> <p></p> <img src='stimuli/faces/NFM7.jpg', style='max-width: 30%;'> </img> <p><strong>Would you launch the weapon?</strong></p>","0",""
"","","","","","html-keyboard-response","69","66089","0.0-3.0-0.33","80","1","2023-06-02 17:49:39","a806436d73fb3c2fb9db1ebeb6e0a607","204.242.0.223","Mozilla/5.0 (Windows NT 10.0; Win64; x64) AppleWebKit/537.36 (KHTML, like Gecko) Chrome/116.0.0.0 Safari/537.36","WebKit","Chrome","116.0.0.0","Windows","10.0","null","<div style=""font-size:60px;"">+</div>","null",""
"","","","","","html-button-response","70","67102","0.0-3.0-1.33","80","1","2023-06-02 17:49:39","a806436d73fb3c2fb9db1ebeb6e0a607","204.242.0.223","Mozilla/5.0 (Windows NT 10.0; Win64; x64) AppleWebKit/537.36 (KHTML, like Gecko) Chrome/116.0.0.0 Safari/537.36","WebKit","Chrome","116.0.0.0","Windows","10.0","1009","<p>As the military commander, you could choose to launch a missile to kill <strong>8 enemy soldiers</strong> , but would accidentally kill <strong>1 enemy tree</strong> nearby.</p> <p>The photo of the <strong>enemy tree</strong> is shown below.</p> <p></p> <img src='stimuli/tree/7.png', style='max-width: 30%;'> </img> <p><strong>Would you launch the weapon?</strong></p>","0",""
"","","","","","html-keyboard-response","71","68105","0.0-3.0-0.34","80","1","2023-06-02 17:49:39","a806436d73fb3c2fb9db1ebeb6e0a607","204.242.0.223","Mozilla/5.0 (Windows NT 10.0; Win64; x64) AppleWebKit/537.36 (KHTML, like Gecko) Chrome/116.0.0.0 Safari/537.36","WebKit","Chrome","116.0.0.0","Windows","10.0","null","<div style=""font-size:60px;"">+</div>","null",""
"","","","","","html-button-response","72","68918","0.0-3.0-1.34","80","1","2023-06-02 17:49:39","a806436d73fb3c2fb9db1ebeb6e0a607","204.242.0.223","Mozilla/5.0 (Windows NT 10.0; Win64; x64) AppleWebKit/537.36 (KHTML, like Gecko) Chrome/116.0.0.0 Safari/537.36","WebKit","Chrome","116.0.0.0","Windows","10.0","809","<p>As the military commander, you could choose to launch a missile to kill <strong>4 enemy soldiers</strong> , but would accidentally kill <strong>1 enemy tree</strong> nearby.</p> <p>The photo of the <strong>enemy tree</strong> is shown below.</p> <p></p> <img src='stimuli/tree/8.png', style='max-width: 30%;'> </img> <p><strong>Would you launch the weapon?</strong></p>","0",""
"","","","","","html-keyboard-response","73","69921","0.0-3.0-0.35","80","1","2023-06-02 17:49:39","a806436d73fb3c2fb9db1ebeb6e0a607","204.242.0.223","Mozilla/5.0 (Windows NT 10.0; Win64; x64) AppleWebKit/537.36 (KHTML, like Gecko) Chrome/116.0.0.0 Safari/537.36","WebKit","Chrome","116.0.0.0","Windows","10.0","null","<div style=""font-size:60px;"">+</div>","null",""
"","","","","","html-button-response","74","70768","0.0-3.0-1.35","80","1","2023-06-02 17:49:39","a806436d73fb3c2fb9db1ebeb6e0a607","204.242.0.223","Mozilla/5.0 (Windows NT 10.0; Win64; x64) AppleWebKit/537.36 (KHTML, like Gecko) Chrome/116.0.0.0 Safari/537.36","WebKit","Chrome","116.0.0.0","Windows","10.0","843","<p>As the military commander, you could choose to launch a missile to kill <strong>2 enemy soldiers</strong> , but would accidentally kill <strong>1 enemy tree</strong> nearby.</p> <p>The photo of the <strong>enemy tree</strong> is shown below.</p> <p></p> <img src='stimuli/tree/11.png', style='max-width: 30%;'> </img> <p><strong>Would you launch the weapon?</strong></p>","0",""
"","","","","","html-keyboard-response","75","71770","0.0-3.0-0.36","80","1","2023-06-02 17:49:39","a806436d73fb3c2fb9db1ebeb6e0a607","204.242.0.223","Mozilla/5.0 (Windows NT 10.0; Win64; x64) AppleWebKit/537.36 (KHTML, like Gecko) Chrome/116.0.0.0 Safari/537.36","WebKit","Chrome","116.0.0.0","Windows","10.0","null","<div style=""font-size:60px;"">+</div>","null",""
"","","","","","html-button-response","76","72782","0.0-3.0-1.36","80","1","2023-06-02 17:49:39","a806436d73fb3c2fb9db1ebeb6e0a607","204.242.0.223","Mozilla/5.0 (Windows NT 10.0; Win64; x64) AppleWebKit/537.36 (KHTML, like Gecko) Chrome/116.0.0.0 Safari/537.36","WebKit","Chrome","116.0.0.0","Windows","10.0","1010","<p>As the military commander, you could choose to launch a missile to kill <strong>9 enemy soldiers</strong> , but would accidentally kill <strong>1 enemy civilian</strong> nearby.</p> <p>The photo of the <strong>enemy civilian</strong> is shown below.</p> <p></p> <img src='stimuli/faces/NFM1.jpg', style='max-width: 30%;'> </img> <p><strong>Would you launch the weapon?</strong></p>","0",""
"","","","","","html-keyboard-response","77","73785","0.0-3.0-0.37","80","1","2023-06-02 17:49:39","a806436d73fb3c2fb9db1ebeb6e0a607","204.242.0.223","Mozilla/5.0 (Windows NT 10.0; Win64; x64) AppleWebKit/537.36 (KHTML, like Gecko) Chrome/116.0.0.0 Safari/537.36","WebKit","Chrome","116.0.0.0","Windows","10.0","null","<div style=""font-size:60px;"">+</div>","null",""
"","","","","","html-button-response","78","74726","0.0-3.0-1.37","80","1","2023-06-02 17:49:39","a806436d73fb3c2fb9db1ebeb6e0a607","204.242.0.223","Mozilla/5.0 (Windows NT 10.0; Win64; x64) AppleWebKit/537.36 (KHTML, like Gecko) Chrome/116.0.0.0 Safari/537.36","WebKit","Chrome","116.0.0.0","Windows","10.0","936","<p>As the military commander, you could choose to launch a missile to kill <strong>3 enemy soldiers</strong> , but would accidentally kill <strong>1 enemy tree</strong> nearby.</p> <p>The photo of the <strong>enemy tree</strong> is shown below.</p> <p></p> <img src='stimuli/tree/13.png', style='max-width: 30%;'> </img> <p><strong>Would you launch the weapon?</strong></p>","0",""
"","","","","","html-keyboard-response","79","75728","0.0-3.0-0.38","80","1","2023-06-02 17:49:39","a806436d73fb3c2fb9db1ebeb6e0a607","204.242.0.223","Mozilla/5.0 (Windows NT 10.0; Win64; x64) AppleWebKit/537.36 (KHTML, like Gecko) Chrome/116.0.0.0 Safari/537.36","WebKit","Chrome","116.0.0.0","Windows","10.0","null","<div style=""font-size:60px;"">+</div>","null",""
"","","","","","html-button-response","80","76502","0.0-3.0-1.38","80","1","2023-06-02 17:49:39","a806436d73fb3c2fb9db1ebeb6e0a607","204.242.0.223","Mozilla/5.0 (Windows NT 10.0; Win64; x64) AppleWebKit/537.36 (KHTML, like Gecko) Chrome/116.0.0.0 Safari/537.36","WebKit","Chrome","116.0.0.0","Windows","10.0","769","<p>As the military commander, you could choose to launch a missile to kill <strong>6 enemy soldiers</strong> , but would accidentally kill <strong>1 enemy tree</strong> nearby.</p> <p>The photo of the <strong>enemy tree</strong> is shown below.</p> <p></p> <img src='stimuli/tree/2.png', style='max-width: 30%;'> </img> <p><strong>Would you launch the weapon?</strong></p>","0",""
"","","","","","html-keyboard-response","81","77505","0.0-3.0-0.39","80","1","2023-06-02 17:49:39","a806436d73fb3c2fb9db1ebeb6e0a607","204.242.0.223","Mozilla/5.0 (Windows NT 10.0; Win64; x64) AppleWebKit/537.36 (KHTML, like Gecko) Chrome/116.0.0.0 Safari/537.36","WebKit","Chrome","116.0.0.0","Windows","10.0","null","<div style=""font-size:60px;"">+</div>","null",""
"","","","","","html-button-response","82","78294","0.0-3.0-1.39","80","1","2023-06-02 17:49:39","a806436d73fb3c2fb9db1ebeb6e0a607","204.242.0.223","Mozilla/5.0 (Windows NT 10.0; Win64; x64) AppleWebKit/537.36 (KHTML, like Gecko) Chrome/116.0.0.0 Safari/537.36","WebKit","Chrome","116.0.0.0","Windows","10.0","785","<p>As the military commander, you could choose to launch a missile to kill <strong>7 enemy soldiers</strong> , but would accidentally kill <strong>1 enemy tree</strong> nearby.</p> <p>The photo of the <strong>enemy tree</strong> is shown below.</p> <p></p> <img src='stimuli/tree/16.png', style='max-width: 30%;'> </img> <p><strong>Would you launch the weapon?</strong></p>","0",""
"","","","","","html-keyboard-response","83","79297","0.0-3.0-0.40","80","1","2023-06-02 17:49:39","a806436d73fb3c2fb9db1ebeb6e0a607","204.242.0.223","Mozilla/5.0 (Windows NT 10.0; Win64; x64) AppleWebKit/537.36 (KHTML, like Gecko) Chrome/116.0.0.0 Safari/537.36","WebKit","Chrome","116.0.0.0","Windows","10.0","null","<div style=""font-size:60px;"">+</div>","null",""
"","","","","","html-button-response","84","80205","0.0-3.0-1.40","80","1","2023-06-02 17:49:39","a806436d73fb3c2fb9db1ebeb6e0a607","204.242.0.223","Mozilla/5.0 (Windows NT 10.0; Win64; x64) AppleWebKit/537.36 (KHTML, like Gecko) Chrome/116.0.0.0 Safari/537.36","WebKit","Chrome","116.0.0.0","Windows","10.0","905","<p>As the military commander, you could choose to launch a missile to kill <strong>7 enemy soldiers</strong> , but would accidentally kill <strong>1 enemy tree</strong> nearby.</p> <p>The photo of the <strong>enemy tree</strong> is shown below.</p> <p></p> <img src='stimuli/tree/5.png', style='max-width: 30%;'> </img> <p><strong>Would you launch the weapon?</strong></p>","0",""
"","","","","","html-keyboard-response","85","81209","0.0-3.0-0.41","80","1","2023-06-02 17:49:39","a806436d73fb3c2fb9db1ebeb6e0a607","204.242.0.223","Mozilla/5.0 (Windows NT 10.0; Win64; x64) AppleWebKit/537.36 (KHTML, like Gecko) Chrome/116.0.0.0 Safari/537.36","WebKit","Chrome","116.0.0.0","Windows","10.0","null","<div style=""font-size:60px;"">+</div>","null",""
"","","","","","html-button-response","86","82277","0.0-3.0-1.41","80","1","2023-06-02 17:49:39","a806436d73fb3c2fb9db1ebeb6e0a607","204.242.0.223","Mozilla/5.0 (Windows NT 10.0; Win64; x64) AppleWebKit/537.36 (KHTML, like Gecko) Chrome/116.0.0.0 Safari/537.36","WebKit","Chrome","116.0.0.0","Windows","10.0","1065","<p>As the military commander, you could choose to launch a missile to kill <strong>10 enemy soldiers</strong> , but would accidentally kill <strong>1 enemy civilian</strong> nearby.</p> <p>The photo of the <strong>enemy civilian</strong> is shown below.</p> <p></p> <img src='stimuli/faces/NFF7.jpg', style='max-width: 30%;'> </img> <p><strong>Would you launch the weapon?</strong></p>","0",""
"","","","","","html-keyboard-response","87","83280","0.0-3.0-0.42","80","1","2023-06-02 17:49:39","a806436d73fb3c2fb9db1ebeb6e0a607","204.242.0.223","Mozilla/5.0 (Windows NT 10.0; Win64; x64) AppleWebKit/537.36 (KHTML, like Gecko) Chrome/116.0.0.0 Safari/537.36","WebKit","Chrome","116.0.0.0","Windows","10.0","null","<div style=""font-size:60px;"">+</div>","null",""
"","","","","","html-button-response","88","84230","0.0-3.0-1.42","80","1","2023-06-02 17:49:39","a806436d73fb3c2fb9db1ebeb6e0a607","204.242.0.223","Mozilla/5.0 (Windows NT 10.0; Win64; x64) AppleWebKit/537.36 (KHTML, like Gecko) Chrome/116.0.0.0 Safari/537.36","WebKit","Chrome","116.0.0.0","Windows","10.0","944","<p>As the military commander, you could choose to launch a missile to kill <strong>2 enemy soldiers</strong> , but would accidentally kill <strong>1 enemy civilian</strong> nearby.</p> <p>The photo of the <strong>enemy civilian</strong> is shown below.</p> <p></p> <img src='stimuli/faces/NFM3.jpg', style='max-width: 30%;'> </img> <p><strong>Would you launch the weapon?</strong></p>","0",""
"","","","","","html-keyboard-response","89","85232","0.0-3.0-0.43","80","1","2023-06-02 17:49:39","a806436d73fb3c2fb9db1ebeb6e0a607","204.242.0.223","Mozilla/5.0 (Windows NT 10.0; Win64; x64) AppleWebKit/537.36 (KHTML, like Gecko) Chrome/116.0.0.0 Safari/537.36","WebKit","Chrome","116.0.0.0","Windows","10.0","null","<div style=""font-size:60px;"">+</div>","null",""
"","","","","","html-button-response","90","85774","0.0-3.0-1.43","80","1","2023-06-02 17:49:39","a806436d73fb3c2fb9db1ebeb6e0a607","204.242.0.223","Mozilla/5.0 (Windows NT 10.0; Win64; x64) AppleWebKit/537.36 (KHTML, like Gecko) Chrome/116.0.0.0 Safari/537.36","WebKit","Chrome","116.0.0.0","Windows","10.0","538","<p>As the military commander, you could choose to launch a missile to kill <strong>6 enemy soldiers</strong> , but would accidentally kill <strong>1 enemy civilian</strong> nearby.</p> <p>The photo of the <strong>enemy civilian</strong> is shown below.</p> <p></p> <img src='stimuli/faces/NFF6.jpg', style='max-width: 30%;'> </img> <p><strong>Would you launch the weapon?</strong></p>","0",""
"","","","","","html-keyboard-response","91","86777","0.0-3.0-0.44","80","1","2023-06-02 17:49:39","a806436d73fb3c2fb9db1ebeb6e0a607","204.242.0.223","Mozilla/5.0 (Windows NT 10.0; Win64; x64) AppleWebKit/537.36 (KHTML, like Gecko) Chrome/116.0.0.0 Safari/537.36","WebKit","Chrome","116.0.0.0","Windows","10.0","null","<div style=""font-size:60px;"">+</div>","null",""
"","","","","","html-button-response","92","87670","0.0-3.0-1.44","80","1","2023-06-02 17:49:39","a806436d73fb3c2fb9db1ebeb6e0a607","204.242.0.223","Mozilla/5.0 (Windows NT 10.0; Win64; x64) AppleWebKit/537.36 (KHTML, like Gecko) Chrome/116.0.0.0 Safari/537.36","WebKit","Chrome","116.0.0.0","Windows","10.0","890","<p>As the military commander, you could choose to launch a missile to kill <strong>6 enemy soldiers</strong> , but would accidentally kill <strong>1 enemy tree</strong> nearby.</p> <p>The photo of the <strong>enemy tree</strong> is shown below.</p> <p></p> <img src='stimuli/tree/8.png', style='max-width: 30%;'> </img> <p><strong>Would you launch the weapon?</strong></p>","0",""
"","","","","","html-keyboard-response","93","88674","0.0-3.0-0.45","80","1","2023-06-02 17:49:39","a806436d73fb3c2fb9db1ebeb6e0a607","204.242.0.223","Mozilla/5.0 (Windows NT 10.0; Win64; x64) AppleWebKit/537.36 (KHTML, like Gecko) Chrome/116.0.0.0 Safari/537.36","WebKit","Chrome","116.0.0.0","Windows","10.0","null","<div style=""font-size:60px;"">+</div>","null",""
"","","","","","html-button-response","94","89574","0.0-3.0-1.45","80","1","2023-06-02 17:49:39","a806436d73fb3c2fb9db1ebeb6e0a607","204.242.0.223","Mozilla/5.0 (Windows NT 10.0; Win64; x64) AppleWebKit/537.36 (KHTML, like Gecko) Chrome/116.0.0.0 Safari/537.36","WebKit","Chrome","116.0.0.0","Windows","10.0","897","<p>As the military commander, you could choose to launch a missile to kill <strong>2 enemy soldiers</strong> , but would accidentally kill <strong>1 enemy tree</strong> nearby.</p> <p>The photo of the <strong>enemy tree</strong> is shown below.</p> <p></p> <img src='stimuli/tree/10.png', style='max-width: 30%;'> </img> <p><strong>Would you launch the weapon?</strong></p>","0",""
"","","","","","html-keyboard-response","95","90578","0.0-3.0-0.46","80","1","2023-06-02 17:49:39","a806436d73fb3c2fb9db1ebeb6e0a607","204.242.0.223","Mozilla/5.0 (Windows NT 10.0; Win64; x64) AppleWebKit/537.36 (KHTML, like Gecko) Chrome/116.0.0.0 Safari/537.36","WebKit","Chrome","116.0.0.0","Windows","10.0","null","<div style=""font-size:60px;"">+</div>","null",""
"","","","","","html-button-response","96","91294","0.0-3.0-1.46","80","1","2023-06-02 17:49:39","a806436d73fb3c2fb9db1ebeb6e0a607","204.242.0.223","Mozilla/5.0 (Windows NT 10.0; Win64; x64) AppleWebKit/537.36 (KHTML, like Gecko) Chrome/116.0.0.0 Safari/537.36","WebKit","Chrome","116.0.0.0","Windows","10.0","711","<p>As the military commander, you could choose to launch a missile to kill <strong>8 enemy soldiers</strong> , but would accidentally kill <strong>1 enemy tree</strong> nearby.</p> <p>The photo of the <strong>enemy tree</strong> is shown below.</p> <p></p> <img src='stimuli/tree/6.png', style='max-width: 30%;'> </img> <p><strong>Would you launch the weapon?</strong></p>","0",""
"","","","","","html-keyboard-response","97","92298","0.0-3.0-0.47","80","1","2023-06-02 17:49:39","a806436d73fb3c2fb9db1ebeb6e0a607","204.242.0.223","Mozilla/5.0 (Windows NT 10.0; Win64; x64) AppleWebKit/537.36 (KHTML, like Gecko) Chrome/116.0.0.0 Safari/537.36","WebKit","Chrome","116.0.0.0","Windows","10.0","null","<div style=""font-size:60px;"">+</div>","null",""
"","","","","","html-button-response","98","92806","0.0-3.0-1.47","80","1","2023-06-02 17:49:39","a806436d73fb3c2fb9db1ebeb6e0a607","204.242.0.223","Mozilla/5.0 (Windows NT 10.0; Win64; x64) AppleWebKit/537.36 (KHTML, like Gecko) Chrome/116.0.0.0 Safari/537.36","WebKit","Chrome","116.0.0.0","Windows","10.0","502","<p>As the military commander, you could choose to launch a missile to kill <strong>7 enemy soldiers</strong> , but would accidentally kill <strong>1 enemy civilian</strong> nearby.</p> <p>The photo of the <strong>enemy civilian</strong> is shown below.</p> <p></p> <img src='stimuli/faces/NFM2.jpg', style='max-width: 30%;'> </img> <p><strong>Would you launch the weapon?</strong></p>","0",""
"","","","","","html-keyboard-response","99","93809","0.0-3.0-0.48","80","1","2023-06-02 17:49:39","a806436d73fb3c2fb9db1ebeb6e0a607","204.242.0.223","Mozilla/5.0 (Windows NT 10.0; Win64; x64) AppleWebKit/537.36 (KHTML, like Gecko) Chrome/116.0.0.0 Safari/537.36","WebKit","Chrome","116.0.0.0","Windows","10.0","null","<div style=""font-size:60px;"">+</div>","null",""
"","","","","","html-button-response","100","94838","0.0-3.0-1.48","80","1","2023-06-02 17:49:39","a806436d73fb3c2fb9db1ebeb6e0a607","204.242.0.223","Mozilla/5.0 (Windows NT 10.0; Win64; x64) AppleWebKit/537.36 (KHTML, like Gecko) Chrome/116.0.0.0 Safari/537.36","WebKit","Chrome","116.0.0.0","Windows","10.0","1024","<p>As the military commander, you could choose to launch a missile to kill <strong>7 enemy soldiers</strong> , but would accidentally kill <strong>1 enemy tree</strong> nearby.</p> <p>The photo of the <strong>enemy tree</strong> is shown below.</p> <p></p> <img src='stimuli/tree/1.png', style='max-width: 30%;'> </img> <p><strong>Would you launch the weapon?</strong></p>","0",""
"","","","","","html-keyboard-response","101","95841","0.0-3.0-0.49","80","1","2023-06-02 17:49:39","a806436d73fb3c2fb9db1ebeb6e0a607","204.242.0.223","Mozilla/5.0 (Windows NT 10.0; Win64; x64) AppleWebKit/537.36 (KHTML, like Gecko) Chrome/116.0.0.0 Safari/537.36","WebKit","Chrome","116.0.0.0","Windows","10.0","null","<div style=""font-size:60px;"">+</div>","null",""
"","","","","","html-button-response","102","96262","0.0-3.0-1.49","80","1","2023-06-02 17:49:39","a806436d73fb3c2fb9db1ebeb6e0a607","204.242.0.223","Mozilla/5.0 (Windows NT 10.0; Win64; x64) AppleWebKit/537.36 (KHTML, like Gecko) Chrome/116.0.0.0 Safari/537.36","WebKit","Chrome","116.0.0.0","Windows","10.0","417","<p>As the military commander, you could choose to launch a missile to kill <strong>2 enemy soldiers</strong> , but would accidentally kill <strong>1 enemy civilian</strong> nearby.</p> <p>The photo of the <strong>enemy civilian</strong> is shown below.</p> <p></p> <img src='stimuli/faces/NFM1.jpg', style='max-width: 30%;'> </img> <p><strong>Would you launch the weapon?</strong></p>","0",""
"","","","","","html-keyboard-response","103","97266","0.0-3.0-0.50","80","1","2023-06-02 17:49:39","a806436d73fb3c2fb9db1ebeb6e0a607","204.242.0.223","Mozilla/5.0 (Windows NT 10.0; Win64; x64) AppleWebKit/537.36 (KHTML, like Gecko) Chrome/116.0.0.0 Safari/537.36","WebKit","Chrome","116.0.0.0","Windows","10.0","null","<div style=""font-size:60px;"">+</div>","null",""
"","","","","","html-button-response","104","97943","0.0-3.0-1.50","80","1","2023-06-02 17:49:39","a806436d73fb3c2fb9db1ebeb6e0a607","204.242.0.223","Mozilla/5.0 (Windows NT 10.0; Win64; x64) AppleWebKit/537.36 (KHTML, like Gecko) Chrome/116.0.0.0 Safari/537.36","WebKit","Chrome","116.0.0.0","Windows","10.0","671","<p>As the military commander, you could choose to launch a missile to kill <strong>5 enemy soldiers</strong> , but would accidentally kill <strong>1 enemy civilian</strong> nearby.</p> <p>The photo of the <strong>enemy civilian</strong> is shown below.</p> <p></p> <img src='stimuli/faces/NFF4.jpg', style='max-width: 30%;'> </img> <p><strong>Would you launch the weapon?</strong></p>","0",""
"","","","","","html-keyboard-response","105","98946","0.0-3.0-0.51","80","1","2023-06-02 17:49:39","a806436d73fb3c2fb9db1ebeb6e0a607","204.242.0.223","Mozilla/5.0 (Windows NT 10.0; Win64; x64) AppleWebKit/537.36 (KHTML, like Gecko) Chrome/116.0.0.0 Safari/537.36","WebKit","Chrome","116.0.0.0","Windows","10.0","null","<div style=""font-size:60px;"">+</div>","null",""
"","","","","","html-button-response","106","99670","0.0-3.0-1.51","80","1","2023-06-02 17:49:39","a806436d73fb3c2fb9db1ebeb6e0a607","204.242.0.223","Mozilla/5.0 (Windows NT 10.0; Win64; x64) AppleWebKit/537.36 (KHTML, like Gecko) Chrome/116.0.0.0 Safari/537.36","WebKit","Chrome","116.0.0.0","Windows","10.0","720","<p>As the military commander, you could choose to launch a missile to kill <strong>4 enemy soldiers</strong> , but would accidentally kill <strong>1 enemy civilian</strong> nearby.</p> <p>The photo of the <strong>enemy civilian</strong> is shown below.</p> <p></p> <img src='stimuli/faces/NFF2.jpg', style='max-width: 30%;'> </img> <p><strong>Would you launch the weapon?</strong></p>","0",""
"","","","","","html-keyboard-response","107","100673","0.0-3.0-0.52","80","1","2023-06-02 17:49:39","a806436d73fb3c2fb9db1ebeb6e0a607","204.242.0.223","Mozilla/5.0 (Windows NT 10.0; Win64; x64) AppleWebKit/537.36 (KHTML, like Gecko) Chrome/116.0.0.0 Safari/537.36","WebKit","Chrome","116.0.0.0","Windows","10.0","null","<div style=""font-size:60px;"">+</div>","null",""
"","","","","","html-button-response","108","101117","0.0-3.0-1.52","80","1","2023-06-02 17:49:39","a806436d73fb3c2fb9db1ebeb6e0a607","204.242.0.223","Mozilla/5.0 (Windows NT 10.0; Win64; x64) AppleWebKit/537.36 (KHTML, like Gecko) Chrome/116.0.0.0 Safari/537.36","WebKit","Chrome","116.0.0.0","Windows","10.0","440","<p>As the military commander, you could choose to launch a missile to kill <strong>7 enemy soldiers</strong> , but would accidentally kill <strong>1 enemy civilian</strong> nearby.</p> <p>The photo of the <strong>enemy civilian</strong> is shown below.</p> <p></p> <img src='stimuli/faces/NFF4.jpg', style='max-width: 30%;'> </img> <p><strong>Would you launch the weapon?</strong></p>","0",""
"","","","","","html-keyboard-response","109","102121","0.0-3.0-0.53","80","1","2023-06-02 17:49:39","a806436d73fb3c2fb9db1ebeb6e0a607","204.242.0.223","Mozilla/5.0 (Windows NT 10.0; Win64; x64) AppleWebKit/537.36 (KHTML, like Gecko) Chrome/116.0.0.0 Safari/537.36","WebKit","Chrome","116.0.0.0","Windows","10.0","null","<div style=""font-size:60px;"">+</div>","null",""
"","","","","","html-button-response","110","103454","0.0-3.0-1.53","80","1","2023-06-02 17:49:39","a806436d73fb3c2fb9db1ebeb6e0a607","204.242.0.223","Mozilla/5.0 (Windows NT 10.0; Win64; x64) AppleWebKit/537.36 (KHTML, like Gecko) Chrome/116.0.0.0 Safari/537.36","WebKit","Chrome","116.0.0.0","Windows","10.0","1318","<p>As the military commander, you could choose to launch a missile to kill <strong>3 enemy soldiers</strong> , but would accidentally kill <strong>1 enemy tree</strong> nearby.</p> <p>The photo of the <strong>enemy tree</strong> is shown below.</p> <p></p> <img src='stimuli/tree/14.png', style='max-width: 30%;'> </img> <p><strong>Would you launch the weapon?</strong></p>","0",""
"","","","","","html-keyboard-response","111","104458","0.0-3.0-0.54","80","1","2023-06-02 17:49:39","a806436d73fb3c2fb9db1ebeb6e0a607","204.242.0.223","Mozilla/5.0 (Windows NT 10.0; Win64; x64) AppleWebKit/537.36 (KHTML, like Gecko) Chrome/116.0.0.0 Safari/537.36","WebKit","Chrome","116.0.0.0","Windows","10.0","null","<div style=""font-size:60px;"">+</div>","null",""
"","","","","","html-button-response","112","105310","0.0-3.0-1.54","80","1","2023-06-02 17:49:39","a806436d73fb3c2fb9db1ebeb6e0a607","204.242.0.223","Mozilla/5.0 (Windows NT 10.0; Win64; x64) AppleWebKit/537.36 (KHTML, like Gecko) Chrome/116.0.0.0 Safari/537.36","WebKit","Chrome","116.0.0.0","Windows","10.0","847","<p>As the military commander, you could choose to launch a missile to kill <strong>4 enemy soldiers</strong> , but would accidentally kill <strong>1 enemy tree</strong> nearby.</p> <p>The photo of the <strong>enemy tree</strong> is shown below.</p> <p></p> <img src='stimuli/tree/2.png', style='max-width: 30%;'> </img> <p><strong>Would you launch the weapon?</strong></p>","0",""
"","","","","","html-keyboard-response","113","106313","0.0-3.0-0.55","80","1","2023-06-02 17:49:39","a806436d73fb3c2fb9db1ebeb6e0a607","204.242.0.223","Mozilla/5.0 (Windows NT 10.0; Win64; x64) AppleWebKit/537.36 (KHTML, like Gecko) Chrome/116.0.0.0 Safari/537.36","WebKit","Chrome","116.0.0.0","Windows","10.0","null","<div style=""font-size:60px;"">+</div>","null",""
"","","","","","html-button-response","114","107271","0.0-3.0-1.55","80","1","2023-06-02 17:49:39","a806436d73fb3c2fb9db1ebeb6e0a607","204.242.0.223","Mozilla/5.0 (Windows NT 10.0; Win64; x64) AppleWebKit/537.36 (KHTML, like Gecko) Chrome/116.0.0.0 Safari/537.36","WebKit","Chrome","116.0.0.0","Windows","10.0","954","<p>As the military commander, you could choose to launch a missile to kill <strong>3 enemy soldiers</strong> , but would accidentally kill <strong>1 enemy tree</strong> nearby.</p> <p>The photo of the <strong>enemy tree</strong> is shown below.</p> <p></p> <img src='stimuli/tree/3.png', style='max-width: 30%;'> </img> <p><strong>Would you launch the weapon?</strong></p>","1",""
"","","","","","html-keyboard-response","115","108277","0.0-3.0-0.56","80","1","2023-06-02 17:49:39","a806436d73fb3c2fb9db1ebeb6e0a607","204.242.0.223","Mozilla/5.0 (Windows NT 10.0; Win64; x64) AppleWebKit/537.36 (KHTML, like Gecko) Chrome/116.0.0.0 Safari/537.36","WebKit","Chrome","116.0.0.0","Windows","10.0","null","<div style=""font-size:60px;"">+</div>","null",""
"","","","","","html-button-response","116","109070","0.0-3.0-1.56","80","1","2023-06-02 17:49:39","a806436d73fb3c2fb9db1ebeb6e0a607","204.242.0.223","Mozilla/5.0 (Windows NT 10.0; Win64; x64) AppleWebKit/537.36 (KHTML, like Gecko) Chrome/116.0.0.0 Safari/537.36","WebKit","Chrome","116.0.0.0","Windows","10.0","788","<p>As the military commander, you could choose to launch a missile to kill <strong>10 enemy soldiers</strong> , but would accidentally kill <strong>1 enemy tree</strong> nearby.</p> <p>The photo of the <strong>enemy tree</strong> is shown below.</p> <p></p> <img src='stimuli/tree/12.png', style='max-width: 30%;'> </img> <p><strong>Would you launch the weapon?</strong></p>","0",""
"","","","","","html-keyboard-response","117","110074","0.0-3.0-0.57","80","1","2023-06-02 17:49:39","a806436d73fb3c2fb9db1ebeb6e0a607","204.242.0.223","Mozilla/5.0 (Windows NT 10.0; Win64; x64) AppleWebKit/537.36 (KHTML, like Gecko) Chrome/116.0.0.0 Safari/537.36","WebKit","Chrome","116.0.0.0","Windows","10.0","null","<div style=""font-size:60px;"">+</div>","null",""
"","","","","","html-button-response","118","110975","0.0-3.0-1.57","80","1","2023-06-02 17:49:39","a806436d73fb3c2fb9db1ebeb6e0a607","204.242.0.223","Mozilla/5.0 (Windows NT 10.0; Win64; x64) AppleWebKit/537.36 (KHTML, like Gecko) Chrome/116.0.0.0 Safari/537.36","WebKit","Chrome","116.0.0.0","Windows","10.0","896","<p>As the military commander, you could choose to launch a missile to kill <strong>6 enemy soldiers</strong> , but would accidentally kill <strong>1 enemy tree</strong> nearby.</p> <p>The photo of the <strong>enemy tree</strong> is shown below.</p> <p></p> <img src='stimuli/tree/14.png', style='max-width: 30%;'> </img> <p><strong>Would you launch the weapon?</strong></p>","0",""
"","","","","","html-keyboard-response","119","111979","0.0-3.0-0.58","80","1","2023-06-02 17:49:39","a806436d73fb3c2fb9db1ebeb6e0a607","204.242.0.223","Mozilla/5.0 (Windows NT 10.0; Win64; x64) AppleWebKit/537.36 (KHTML, like Gecko) Chrome/116.0.0.0 Safari/537.36","WebKit","Chrome","116.0.0.0","Windows","10.0","null","<div style=""font-size:60px;"">+</div>","null",""
"","","","","","html-button-response","120","112854","0.0-3.0-1.58","80","1","2023-06-02 17:49:39","a806436d73fb3c2fb9db1ebeb6e0a607","204.242.0.223","Mozilla/5.0 (Windows NT 10.0; Win64; x64) AppleWebKit/537.36 (KHTML, like Gecko) Chrome/116.0.0.0 Safari/537.36","WebKit","Chrome","116.0.0.0","Windows","10.0","871","<p>As the military commander, you could choose to launch a missile to kill <strong>5 enemy soldiers</strong> , but would accidentally kill <strong>1 enemy tree</strong> nearby.</p> <p>The photo of the <strong>enemy tree</strong> is shown below.</p> <p></p> <img src='stimuli/tree/5.png', style='max-width: 30%;'> </img> <p><strong>Would you launch the weapon?</strong></p>","0",""
"","","","","","html-keyboard-response","121","113857","0.0-3.0-0.59","80","1","2023-06-02 17:49:39","a806436d73fb3c2fb9db1ebeb6e0a607","204.242.0.223","Mozilla/5.0 (Windows NT 10.0; Win64; x64) AppleWebKit/537.36 (KHTML, like Gecko) Chrome/116.0.0.0 Safari/537.36","WebKit","Chrome","116.0.0.0","Windows","10.0","null","<div style=""font-size:60px;"">+</div>","null",""
"","","","","","html-button-response","122","114926","0.0-3.0-1.59","80","1","2023-06-02 17:49:39","a806436d73fb3c2fb9db1ebeb6e0a607","204.242.0.223","Mozilla/5.0 (Windows NT 10.0; Win64; x64) AppleWebKit/537.36 (KHTML, like Gecko) Chrome/116.0.0.0 Safari/537.36","WebKit","Chrome","116.0.0.0","Windows","10.0","1063","<p>As the military commander, you could choose to launch a missile to kill <strong>6 enemy soldiers</strong> , but would accidentally kill <strong>1 enemy civilian</strong> nearby.</p> <p>The photo of the <strong>enemy civilian</strong> is shown below.</p> <p></p> <img src='stimuli/faces/NFF1.jpg', style='max-width: 30%;'> </img> <p><strong>Would you launch the weapon?</strong></p>","0",""
"","","","","","html-keyboard-response","123","115930","0.0-3.0-0.60","80","1","2023-06-02 17:49:39","a806436d73fb3c2fb9db1ebeb6e0a607","204.242.0.223","Mozilla/5.0 (Windows NT 10.0; Win64; x64) AppleWebKit/537.36 (KHTML, like Gecko) Chrome/116.0.0.0 Safari/537.36","WebKit","Chrome","116.0.0.0","Windows","10.0","null","<div style=""font-size:60px;"">+</div>","null",""
"","","","","","html-button-response","124","116813","0.0-3.0-1.60","80","1","2023-06-02 17:49:39","a806436d73fb3c2fb9db1ebeb6e0a607","204.242.0.223","Mozilla/5.0 (Windows NT 10.0; Win64; x64) AppleWebKit/537.36 (KHTML, like Gecko) Chrome/116.0.0.0 Safari/537.36","WebKit","Chrome","116.0.0.0","Windows","10.0","879","<p>As the military commander, you could choose to launch a missile to kill <strong>8 enemy soldiers</strong> , but would accidentally kill <strong>1 enemy tree</strong> nearby.</p> <p>The photo of the <strong>enemy tree</strong> is shown below.</p> <p></p> <img src='stimuli/tree/4.png', style='max-width: 30%;'> </img> <p><strong>Would you launch the weapon?</strong></p>","0",""
"","","","","","html-keyboard-response","125","117818","0.0-3.0-0.61","80","1","2023-06-02 17:49:39","a806436d73fb3c2fb9db1ebeb6e0a607","204.242.0.223","Mozilla/5.0 (Windows NT 10.0; Win64; x64) AppleWebKit/537.36 (KHTML, like Gecko) Chrome/116.0.0.0 Safari/537.36","WebKit","Chrome","116.0.0.0","Windows","10.0","null","<div style=""font-size:60px;"">+</div>","null",""
"","","","","","html-button-response","126","118821","0.0-3.0-1.61","80","1","2023-06-02 17:49:39","a806436d73fb3c2fb9db1ebeb6e0a607","204.242.0.223","Mozilla/5.0 (Windows NT 10.0; Win64; x64) AppleWebKit/537.36 (KHTML, like Gecko) Chrome/116.0.0.0 Safari/537.36","WebKit","Chrome","116.0.0.0","Windows","10.0","994","<p>As the military commander, you could choose to launch a missile to kill <strong>5 enemy soldiers</strong> , but would accidentally kill <strong>1 enemy tree</strong> nearby.</p> <p>The photo of the <strong>enemy tree</strong> is shown below.</p> <p></p> <img src='stimuli/tree/4.png', style='max-width: 30%;'> </img> <p><strong>Would you launch the weapon?</strong></p>","0",""
"","","","","","html-keyboard-response","127","119826","0.0-3.0-0.62","80","1","2023-06-02 17:49:39","a806436d73fb3c2fb9db1ebeb6e0a607","204.242.0.223","Mozilla/5.0 (Windows NT 10.0; Win64; x64) AppleWebKit/537.36 (KHTML, like Gecko) Chrome/116.0.0.0 Safari/537.36","WebKit","Chrome","116.0.0.0","Windows","10.0","null","<div style=""font-size:60px;"">+</div>","null",""
"","","","","","html-button-response","128","120800","0.0-3.0-1.62","80","1","2023-06-02 17:49:39","a806436d73fb3c2fb9db1ebeb6e0a607","204.242.0.223","Mozilla/5.0 (Windows NT 10.0; Win64; x64) AppleWebKit/537.36 (KHTML, like Gecko) Chrome/116.0.0.0 Safari/537.36","WebKit","Chrome","116.0.0.0","Windows","10.0","970","<p>As the military commander, you could choose to launch a missile to kill <strong>1 enemy soldier</strong> , but would accidentally kill <strong>1 enemy civilian</strong> nearby.</p> <p>The photo of the <strong>enemy civilian</strong> is shown below.</p> <p></p> <img src='stimuli/faces/NFF8.jpg', style='max-width: 30%;'> </img> <p><strong>Would you launch the weapon?</strong></p>","0",""
"","","","","","html-keyboard-response","129","121803","0.0-3.0-0.63","80","1","2023-06-02 17:49:39","a806436d73fb3c2fb9db1ebeb6e0a607","204.242.0.223","Mozilla/5.0 (Windows NT 10.0; Win64; x64) AppleWebKit/537.36 (KHTML, like Gecko) Chrome/116.0.0.0 Safari/537.36","WebKit","Chrome","116.0.0.0","Windows","10.0","null","<div style=""font-size:60px;"">+</div>","null",""
"","","","","","html-button-response","130","122598","0.0-3.0-1.63","80","1","2023-06-02 17:49:39","a806436d73fb3c2fb9db1ebeb6e0a607","204.242.0.223","Mozilla/5.0 (Windows NT 10.0; Win64; x64) AppleWebKit/537.36 (KHTML, like Gecko) Chrome/116.0.0.0 Safari/537.36","WebKit","Chrome","116.0.0.0","Windows","10.0","791","<p>As the military commander, you could choose to launch a missile to kill <strong>10 enemy soldiers</strong> , but would accidentally kill <strong>1 enemy tree</strong> nearby.</p> <p>The photo of the <strong>enemy tree</strong> is shown below.</p> <p></p> <img src='stimuli/tree/10.png', style='max-width: 30%;'> </img> <p><strong>Would you launch the weapon?</strong></p>","0",""
"","","","","","survey-multi-choice","131","124992","0.0-4.0","80","1","2023-06-02 17:49:39","a806436d73fb3c2fb9db1ebeb6e0a607","204.242.0.223","Mozilla/5.0 (Windows NT 10.0; Win64; x64) AppleWebKit/537.36 (KHTML, like Gecko) Chrome/116.0.0.0 Safari/537.36","WebKit","Chrome","116.0.0.0","Windows","10.0","2389","","{""Attention1"":""""}","[0]"
"","","","","","html-button-response","132","126871","0.0-5.0","80","1","2023-06-02 17:49:39","a806436d73fb3c2fb9db1ebeb6e0a607","204.242.0.223","Mozilla/5.0 (Windows NT 10.0; Win64; x64) AppleWebKit/537.36 (KHTML, like Gecko) Chrome/116.0.0.0 Safari/537.36","WebKit","Chrome","116.0.0.0","Windows","10.0","1872","<p style=""font-size:20px;font-weight:bold;"">Great!</p><p>You have finished the first part of the experiment!</p><p>Please relax a little bit and then contine to answer some questions regarding yourself.</p><p>The next part will take around 10 minutes to complete.</p>","0",""
"","","","","","survey-text","133","140688","0.0-6.0","80","1","2023-06-02 17:49:39","a806436d73fb3c2fb9db1ebeb6e0a607","204.242.0.223","Mozilla/5.0 (Windows NT 10.0; Win64; x64) AppleWebKit/537.36 (KHTML, like Gecko) Chrome/116.0.0.0 Safari/537.36","WebKit","Chrome","116.0.0.0","Windows","10.0","12803","","{""Age"":""23"",""Nation"":""american"",""Born"":""USA"",""Live"":""USA""}",""
"","","","","","survey-multi-choice","134","150708","0.0-7.0","80","1","2023-06-02 17:49:39","a806436d73fb3c2fb9db1ebeb6e0a607","204.242.0.223","Mozilla/5.0 (Windows NT 10.0; Win64; x64) AppleWebKit/537.36 (KHTML, like Gecko) Chrome/116.0.0.0 Safari/537.36","WebKit","Chrome","116.0.0.0","Windows","10.0","10016","","{""Gender"":""Male"",""Education"":""Bachelor's Degree"",""Income"":""$40,000 - $69,999"",""Children"":""1"",""Ethnicity"":""White""}","[0,1,2,3,4]"
"","","","","","survey-multi-select","135","155249","0.0-8.0","80","1","2023-06-02 17:49:39","a806436d73fb3c2fb9db1ebeb6e0a607","204.242.0.223","Mozilla/5.0 (Windows NT 10.0; Win64; x64) AppleWebKit/537.36 (KHTML, like Gecko) Chrome/116.0.0.0 Safari/537.36","WebKit","Chrome","116.0.0.0","Windows","10.0","4527","","{""Marriage"":[""Married""],""Religion"":[""Catholic""]}","[0,1]"
"","","","","","survey-multi-choice","136","159240","0.0-9.0","80","1","2023-06-02 17:49:39","a806436d73fb3c2fb9db1ebeb6e0a607","204.242.0.223","Mozilla/5.0 (Windows NT 10.0; Win64; x64) AppleWebKit/537.36 (KHTML, like Gecko) Chrome/116.0.0.0 Safari/537.36","WebKit","Chrome","116.0.0.0","Windows","10.0","3982","","{""SES"":""10""}","[0]"
"","","","","","html-button-response","137","160860","0.0-10.0","80","1","2023-06-02 17:49:39","a806436d73fb3c2fb9db1ebeb6e0a607","204.242.0.223","Mozilla/5.0 (Windows NT 10.0; Win64; x64) AppleWebKit/537.36 (KHTML, like Gecko) Chrome/116.0.0.0 Safari/537.36","WebKit","Chrome","116.0.0.0","Windows","10.0","1612","<p><strong>Please indicate the extent that the following statements could describe you.</p><p> (1 = ""extremely uncharacteristic of me"" to 5 = ""extremely characteristic of me"".)</strong></p>","0",""
"","","","","","survey-likert","138","168376","0.0-11.0","80","1","2023-06-02 17:49:39","a806436d73fb3c2fb9db1ebeb6e0a607","204.242.0.223","Mozilla/5.0 (Windows NT 10.0; Win64; x64) AppleWebKit/537.36 (KHTML, like Gecko) Chrome/116.0.0.0 Safari/537.36","WebKit","Chrome","116.0.0.0","Windows","10.0","7511","","{""Aggression1"":4,""Aggression2"":4,""Aggression3"":4,""Aggression4"":4,""Aggression5"":4,""Aggression6"":3,""Aggression7"":4,""Aggression8"":4,""Aggression9"":4}","[0,1,2,3,4,5,6,7,8]"
"","","","","","html-button-response","139","170247","0.0-12.0","80","1","2023-06-02 17:49:39","a806436d73fb3c2fb9db1ebeb6e0a607","204.242.0.223","Mozilla/5.0 (Windows NT 10.0; Win64; x64) AppleWebKit/537.36 (KHTML, like Gecko) Chrome/116.0.0.0 Safari/537.36","WebKit","Chrome","116.0.0.0","Windows","10.0","1862","<p><strong>Please indicate the extent that the following statements could describe you. </strong></p><p><strong> (1 = ""Does not describe me well"" to 5 = ""Does decribe me well"".)</strong></p>","0",""
"","","","","","survey-likert","140","184995","0.0-13.0","80","1","2023-06-02 17:49:39","a806436d73fb3c2fb9db1ebeb6e0a607","204.242.0.223","Mozilla/5.0 (Windows NT 10.0; Win64; x64) AppleWebKit/537.36 (KHTML, like Gecko) Chrome/116.0.0.0 Safari/537.36","WebKit","Chrome","116.0.0.0","Windows","10.0","14739","","{""fs3"":2,""ecs3"":3,""pds5"":3,""pts4"":4,""ecs2"":4,""pds2"":2,""fs2"":3,""pts6"":4,""pds6"":4,""ecs7"":3,""pts3"":4,""ecs4"":3,""pds3"":3,""fs5"":4,""fs4"":3,""ecs5"":4,""pts7"":4,""pds4"":3,""pts2"":4,""pts1"":3,""fs7"":4,""ecs6"":4,""pds7"":3,""fs6"":4,""ecs1"":4,""pds1"":4,""fs1"":3,""pts5"":4}","[6,8,18,14,3,9,4,24,23,21,10,13,12,15,11,17,27,16,7,2,25,19,26,22,1,5,0,20]"
"","","","","","html-button-response","141","186407","0.0-14.0","80","1","2023-06-02 17:49:39","a806436d73fb3c2fb9db1ebeb6e0a607","204.242.0.223","Mozilla/5.0 (Windows NT 10.0; Win64; x64) AppleWebKit/537.36 (KHTML, like Gecko) Chrome/116.0.0.0 Safari/537.36","WebKit","Chrome","116.0.0.0","Windows","10.0","1403","<p><strong>Which of the following objects or statements do you have a positive or negative feeling towards? </strong></p><p><strong> (1 = ""Very negative"" to 7 = ""Very positive"") </strong></p>","0",""
"","","","","","survey-likert","142","195939","0.0-15.0","80","1","2023-06-02 17:49:39","a806436d73fb3c2fb9db1ebeb6e0a607","204.242.0.223","Mozilla/5.0 (Windows NT 10.0; Win64; x64) AppleWebKit/537.36 (KHTML, like Gecko) Chrome/116.0.0.0 Safari/537.36","WebKit","Chrome","116.0.0.0","Windows","10.0","9524","","{""sdo9"":5,""sdo5"":5,""sdo3"":6,""sdo4"":6,""sdo11"":6,""sdo12"":6,""sdo16"":5,""sdo15"":6,""sdo6"":6,""sdo14"":6,""sdo1"":6,""sdo8"":6,""sdo2"":5,""sdo13"":6,""sdo10"":6,""sdo7"":6}","[8,4,2,3,10,11,15,14,5,13,0,7,1,12,9,6]"
"","","","","","html-button-response","143","197707","0.0-16.0","80","1","2023-06-02 17:49:39","a806436d73fb3c2fb9db1ebeb6e0a607","204.242.0.223","Mozilla/5.0 (Windows NT 10.0; Win64; x64) AppleWebKit/537.36 (KHTML, like Gecko) Chrome/116.0.0.0 Safari/537.36","WebKit","Chrome","116.0.0.0","Windows","10.0","1758","<p><strong>Please indicate the extent you agree with the following statements.</strong></p><strong><p> (1 = ""Strongly Disagree"" to 5 = ""Srongly Agree"") </strong></p>","0",""
"","","","","","survey-likert","144","203890","0.0-17.0","80","1","2023-06-02 17:49:39","a806436d73fb3c2fb9db1ebeb6e0a607","204.242.0.223","Mozilla/5.0 (Windows NT 10.0; Win64; x64) AppleWebKit/537.36 (KHTML, like Gecko) Chrome/116.0.0.0 Safari/537.36","WebKit","Chrome","116.0.0.0","Windows","10.0","6176","","{""caring1"":4,""liking1"":3,""caring2"":4,""protection1"":4,""liking2"":4,""caring3"":4,""protection2"":4,""liking3"":3,""protection3"":4,""caring4"":4,""liking4"":4,""protection4"":3,""caring5"":4,""liking5"":4,""protection5"":4}","[0,1,2,3,4,5,6,7,8,9,10,11,12,13,14]"
"","","","","","html-button-response","145","205274","0.0-18.0","80","1","2023-06-02 17:49:39","a806436d73fb3c2fb9db1ebeb6e0a607","204.242.0.223","Mozilla/5.0 (Windows NT 10.0; Win64; x64) AppleWebKit/537.36 (KHTML, like Gecko) Chrome/116.0.0.0 Safari/537.36","WebKit","Chrome","116.0.0.0","Windows","10.0","1375","<p><strong>Please imagine spercific situations involving children below, and rate the amount of tenderness you would feel in each situation. </strong></p><p><strong> (Ternderness is ""a warm, gentle feeling of sympathetic affection."") </strong></p><strong><p> (1 = ""No tenderness at all"" to 5 = ""A lot of tenderness"") </strong></p>","0",""
"","","","","","survey-likert","146","212416","0.0-19.0","80","1","2023-06-02 17:49:39","a806436d73fb3c2fb9db1ebeb6e0a607","204.242.0.223","Mozilla/5.0 (Windows NT 10.0; Win64; x64) AppleWebKit/537.36 (KHTML, like Gecko) Chrome/116.0.0.0 Safari/537.36","WebKit","Chrome","116.0.0.0","Windows","10.0","7135","","{""tenderness-positive1"":3,""tenderness-negative1"":3,""tenderness-negative2"":3,""tenderness-positive2"":4,""tenderness-positive3"":4,""tenderness-negative3"":4,""tenderness-positive4"":3,""tendereness-negative4"":4,""tendernness-negative5"":4,""tenderness-positive5"":4}","[0,1,2,3,4,5,6,7,8,9]"
"","","","","","survey-multi-choice","147","215199","0.0-20.0","80","1","2023-06-02 17:49:39","a806436d73fb3c2fb9db1ebeb6e0a607","204.242.0.223","Mozilla/5.0 (Windows NT 10.0; Win64; x64) AppleWebKit/537.36 (KHTML, like Gecko) Chrome/116.0.0.0 Safari/537.36","WebKit","Chrome","116.0.0.0","Windows","10.0","2776","","{""Attention2"":""Other""}","[0]"
"","","","","","html-button-response","148","216759","0.0-21.0","80","1","2023-06-02 17:49:39","a806436d73fb3c2fb9db1ebeb6e0a607","204.242.0.223","Mozilla/5.0 (Windows NT 10.0; Win64; x64) AppleWebKit/537.36 (KHTML, like Gecko) Chrome/116.0.0.0 Safari/537.36","WebKit","Chrome","116.0.0.0","Windows","10.0","1550","<p><strong>Please indicate the extent you agree with the following statements.</strong></p>","0",""
"","","","","","survey-likert","149","231977","0.0-22.0","80","1","2023-06-02 17:49:39","a806436d73fb3c2fb9db1ebeb6e0a607","204.242.0.223","Mozilla/5.0 (Windows NT 10.0; Win64; x64) AppleWebKit/537.36 (KHTML, like Gecko) Chrome/116.0.0.0 Safari/537.36","WebKit","Chrome","116.0.0.0","Windows","10.0","15209","","{""Nation4"":4,""Patri4"":3,""Patri9"":1,""Patri12"":3,""Patri5"":4,""Nation1"":3,""Patri3"":4,""Patri1"":4,""Nation6"":4,""Nation2"":3,""Patri8"":4,""Nation5"":4,""Patri10"":4,""Nation3"":4,""Nation7"":3,""Patri6"":4,""Nation8"":3,""Patri2"":4,""Patri7"":4,""Patri11"":3}","[15,3,8,11,4,12,2,0,17,13,7,16,9,14,18,5,19,1,6,10]"
"","","","","","html-button-response","150","233386","0.0-23.0","80","1","2023-06-02 17:49:39","a806436d73fb3c2fb9db1ebeb6e0a607","204.242.0.223","Mozilla/5.0 (Windows NT 10.0; Win64; x64) AppleWebKit/537.36 (KHTML, like Gecko) Chrome/116.0.0.0 Safari/537.36","WebKit","Chrome","116.0.0.0","Windows","10.0","1399","<p><strong>Please indicate the extent you agree with the following statements. </p><p>(1 = ""never or definitely no"" and 9 = ""always or definitely yes"".)</strong></p>","0",""
"","","","","","survey-likert","151","244985","0.0-24.0","80","1","2023-06-02 17:49:39","a806436d73fb3c2fb9db1ebeb6e0a607","204.242.0.223","Mozilla/5.0 (Windows NT 10.0; Win64; x64) AppleWebKit/537.36 (KHTML, like Gecko) Chrome/116.0.0.0 Safari/537.36","WebKit","Chrome","116.0.0.0","Windows","10.0","11591","","{""hc4"":6,""hc2"":7,""hi1"":8,""vi2"":8,""vc3"":8,""hi3"":8,""hi4"":7,""vc2"":8,""vc1"":8,""hi2"":8,""vc4"":8,""vi4"":7,""vi3"":8,""hc1"":8,""hc3"":8,""Robot2"":6,""vi1"":8}","[12,10,0,5,15,2,3,14,13,1,16,8,6,9,11,7,4]"
"","","","","","survey-text","152","256623","0.0-25.0","80","1","2023-06-02 17:49:39","a806436d73fb3c2fb9db1ebeb6e0a607","204.242.0.223","Mozilla/5.0 (Windows NT 10.0; Win64; x64) AppleWebKit/537.36 (KHTML, like Gecko) Chrome/116.0.0.0 Safari/537.36","WebKit","Chrome","116.0.0.0","Windows","10.0","11615","","{""ID"":""A3NGHYHVIOR0ET"",""Comments"":""good survey""}",""
"","","","","","html-button-response","153","263670","0.0-26.0","80","1","2023-06-02 17:49:39","a806436d73fb3c2fb9db1ebeb6e0a607","204.242.0.223","Mozilla/5.0 (Windows NT 10.0; Win64; x64) AppleWebKit/537.36 (KHTML, like Gecko) Chrome/116.0.0.0 Safari/537.36","WebKit","Chrome","116.0.0.0","Windows","10.0","7042","<p><strong>Congratulations! </strong> Your have finished all the survey. Thank you for your participation!</p><p><strong>Here is your complete token:</strong></p>gwyy3aikahhxcsnydo45fa9n<p></p><p><strong>Please copy it to the mTurk page.</strong></p>","0",""
