"success","timeout","failed_images","failed_audio","failed_video","trial_type","trial_index","time_elapsed","internal_node_id","run_id","condition","recorded_at","source_code_version","ip","user_agent","device","browser","browser_version","platform","platform_version","rt","stimulus","response","question_order"
"true","false","[]","[]","[]","preload","0","1057","0.0-0.0","81","1","2023-06-03 00:23:26","a806436d73fb3c2fb9db1ebeb6e0a607","208.202.242.219","Mozilla/5.0 (Windows NT 10.0; Win64; x64) AppleWebKit/537.36 (KHTML, like Gecko) Chrome/110.0.0.0 Safari/537.36","WebKit","Chrome","110.0.0.0","Windows","10.0","","","",""
"true","","","","","fullscreen","1","7301","0.0-1.0","81","1","2023-06-03 00:23:26","a806436d73fb3c2fb9db1ebeb6e0a607","208.202.242.219","Mozilla/5.0 (Windows NT 10.0; Win64; x64) AppleWebKit/537.36 (KHTML, like Gecko) Chrome/110.0.0.0 Safari/537.36","WebKit","Chrome","110.0.0.0","Windows","10.0","","","",""
"","","","","","html-button-response","2","49852","0.0-2.0","81","1","2023-06-03 00:23:26","a806436d73fb3c2fb9db1ebeb6e0a607","208.202.242.219","Mozilla/5.0 (Windows NT 10.0; Win64; x64) AppleWebKit/537.36 (KHTML, like Gecko) Chrome/110.0.0.0 Safari/537.36","WebKit","Chrome","110.0.0.0","Windows","10.0","42548","<p ><strong>Welcome to the experiment!</strong></p><p ><strong>In the first task, please imagine:</strong></p><p>Your country is involved in a military conflict with another country.</p><p>You are the commander of your army and must make decisions in the conflict.</p><p>Specifically, as the military commander, you must decide whether to launch a missile to strike enemy.</p><p>You will face a series of scenarios. Please read each scenario carefully and make a decision.</p><p>The task will take around 10 minutes to complete.</p><p><strong>Please pay your attention during the experiment.</strong></p>","0",""
"","","","","","html-keyboard-response","3","50855","0.0-3.0-0.0","81","1","2023-06-03 00:23:26","a806436d73fb3c2fb9db1ebeb6e0a607","208.202.242.219","Mozilla/5.0 (Windows NT 10.0; Win64; x64) AppleWebKit/537.36 (KHTML, like Gecko) Chrome/110.0.0.0 Safari/537.36","WebKit","Chrome","110.0.0.0","Windows","10.0","null","<div style=""font-size:60px;"">+</div>","null",""
"","","","","","html-button-response","4","69372","0.0-3.0-1.0","81","1","2023-06-03 00:23:26","a806436d73fb3c2fb9db1ebeb6e0a607","208.202.242.219","Mozilla/5.0 (Windows NT 10.0; Win64; x64) AppleWebKit/537.36 (KHTML, like Gecko) Chrome/110.0.0.0 Safari/537.36","WebKit","Chrome","110.0.0.0","Windows","10.0","18515","<p>As the military commander, you could choose to launch a missile to kill <strong>1 enemy soldier</strong> , but would accidentally kill <strong>1 enemy civilian</strong> nearby.</p> <p>The photo of the <strong>enemy civilian</strong> is shown below.</p> <p></p> <img src='stimuli/faces/NFM6.jpg', style='max-width: 30%;'> </img> <p><strong>Would you launch the weapon?</strong></p>","1",""
"","","","","","html-keyboard-response","5","70377","0.0-3.0-0.1","81","1","2023-06-03 00:23:26","a806436d73fb3c2fb9db1ebeb6e0a607","208.202.242.219","Mozilla/5.0 (Windows NT 10.0; Win64; x64) AppleWebKit/537.36 (KHTML, like Gecko) Chrome/110.0.0.0 Safari/537.36","WebKit","Chrome","110.0.0.0","Windows","10.0","null","<div style=""font-size:60px;"">+</div>","null",""
"","","","","","html-button-response","6","72300","0.0-3.0-1.1","81","1","2023-06-03 00:23:26","a806436d73fb3c2fb9db1ebeb6e0a607","208.202.242.219","Mozilla/5.0 (Windows NT 10.0; Win64; x64) AppleWebKit/537.36 (KHTML, like Gecko) Chrome/110.0.0.0 Safari/537.36","WebKit","Chrome","110.0.0.0","Windows","10.0","1920","<p>As the military commander, you could choose to launch a missile to kill <strong>2 enemy soldiers</strong> , but would accidentally kill <strong>1 enemy civilian</strong> nearby.</p> <p>The photo of the <strong>enemy civilian</strong> is shown below.</p> <p></p> <img src='stimuli/faces/NFF7.jpg', style='max-width: 30%;'> </img> <p><strong>Would you launch the weapon?</strong></p>","1",""
"","","","","","html-keyboard-response","7","73303","0.0-3.0-0.2","81","1","2023-06-03 00:23:26","a806436d73fb3c2fb9db1ebeb6e0a607","208.202.242.219","Mozilla/5.0 (Windows NT 10.0; Win64; x64) AppleWebKit/537.36 (KHTML, like Gecko) Chrome/110.0.0.0 Safari/537.36","WebKit","Chrome","110.0.0.0","Windows","10.0","null","<div style=""font-size:60px;"">+</div>","null",""
"","","","","","html-button-response","8","92339","0.0-3.0-1.2","81","1","2023-06-03 00:23:26","a806436d73fb3c2fb9db1ebeb6e0a607","208.202.242.219","Mozilla/5.0 (Windows NT 10.0; Win64; x64) AppleWebKit/537.36 (KHTML, like Gecko) Chrome/110.0.0.0 Safari/537.36","WebKit","Chrome","110.0.0.0","Windows","10.0","19034","<p>As the military commander, you could choose to launch a missile to kill <strong>6 enemy soldiers</strong> , but would accidentally kill <strong>1 enemy civilian</strong> nearby.</p> <p>The photo of the <strong>enemy civilian</strong> is shown below.</p> <p></p> <img src='stimuli/faces/NFF6.jpg', style='max-width: 30%;'> </img> <p><strong>Would you launch the weapon?</strong></p>","0",""
"","","","","","html-keyboard-response","9","93342","0.0-3.0-0.3","81","1","2023-06-03 00:23:26","a806436d73fb3c2fb9db1ebeb6e0a607","208.202.242.219","Mozilla/5.0 (Windows NT 10.0; Win64; x64) AppleWebKit/537.36 (KHTML, like Gecko) Chrome/110.0.0.0 Safari/537.36","WebKit","Chrome","110.0.0.0","Windows","10.0","null","<div style=""font-size:60px;"">+</div>","null",""
"","","","","","html-button-response","10","96458","0.0-3.0-1.3","81","1","2023-06-03 00:23:26","a806436d73fb3c2fb9db1ebeb6e0a607","208.202.242.219","Mozilla/5.0 (Windows NT 10.0; Win64; x64) AppleWebKit/537.36 (KHTML, like Gecko) Chrome/110.0.0.0 Safari/537.36","WebKit","Chrome","110.0.0.0","Windows","10.0","3114","<p>As the military commander, you could choose to launch a missile to kill <strong>4 enemy soldiers</strong> , but would accidentally kill <strong>1 enemy civilian</strong> nearby.</p> <p>The photo of the <strong>enemy civilian</strong> is shown below.</p> <p></p> <img src='stimuli/faces/NFM4.jpg', style='max-width: 30%;'> </img> <p><strong>Would you launch the weapon?</strong></p>","0",""
"","","","","","html-keyboard-response","11","97461","0.0-3.0-0.4","81","1","2023-06-03 00:23:26","a806436d73fb3c2fb9db1ebeb6e0a607","208.202.242.219","Mozilla/5.0 (Windows NT 10.0; Win64; x64) AppleWebKit/537.36 (KHTML, like Gecko) Chrome/110.0.0.0 Safari/537.36","WebKit","Chrome","110.0.0.0","Windows","10.0","null","<div style=""font-size:60px;"">+</div>","null",""
"","","","","","html-button-response","12","104964","0.0-3.0-1.4","81","1","2023-06-03 00:23:26","a806436d73fb3c2fb9db1ebeb6e0a607","208.202.242.219","Mozilla/5.0 (Windows NT 10.0; Win64; x64) AppleWebKit/537.36 (KHTML, like Gecko) Chrome/110.0.0.0 Safari/537.36","WebKit","Chrome","110.0.0.0","Windows","10.0","7499","<p>As the military commander, you could choose to launch a missile to kill <strong>1 enemy soldier</strong> , but would accidentally kill <strong>1 enemy tree</strong> nearby.</p> <p>The photo of the <strong>enemy tree</strong> is shown below.</p> <p></p> <img src='stimuli/tree/7.png', style='max-width: 30%;'> </img> <p><strong>Would you launch the weapon?</strong></p>","0",""
"","","","","","html-keyboard-response","13","105968","0.0-3.0-0.5","81","1","2023-06-03 00:23:26","a806436d73fb3c2fb9db1ebeb6e0a607","208.202.242.219","Mozilla/5.0 (Windows NT 10.0; Win64; x64) AppleWebKit/537.36 (KHTML, like Gecko) Chrome/110.0.0.0 Safari/537.36","WebKit","Chrome","110.0.0.0","Windows","10.0","null","<div style=""font-size:60px;"">+</div>","null",""
"","","","","","html-button-response","14","107434","0.0-3.0-1.5","81","1","2023-06-03 00:23:26","a806436d73fb3c2fb9db1ebeb6e0a607","208.202.242.219","Mozilla/5.0 (Windows NT 10.0; Win64; x64) AppleWebKit/537.36 (KHTML, like Gecko) Chrome/110.0.0.0 Safari/537.36","WebKit","Chrome","110.0.0.0","Windows","10.0","1464","<p>As the military commander, you could choose to launch a missile to kill <strong>2 enemy soldiers</strong> , but would accidentally kill <strong>1 enemy tree</strong> nearby.</p> <p>The photo of the <strong>enemy tree</strong> is shown below.</p> <p></p> <img src='stimuli/tree/16.png', style='max-width: 30%;'> </img> <p><strong>Would you launch the weapon?</strong></p>","0",""
"","","","","","html-keyboard-response","15","108437","0.0-3.0-0.6","81","1","2023-06-03 00:23:26","a806436d73fb3c2fb9db1ebeb6e0a607","208.202.242.219","Mozilla/5.0 (Windows NT 10.0; Win64; x64) AppleWebKit/537.36 (KHTML, like Gecko) Chrome/110.0.0.0 Safari/537.36","WebKit","Chrome","110.0.0.0","Windows","10.0","null","<div style=""font-size:60px;"">+</div>","null",""
"","","","","","html-button-response","16","109900","0.0-3.0-1.6","81","1","2023-06-03 00:23:26","a806436d73fb3c2fb9db1ebeb6e0a607","208.202.242.219","Mozilla/5.0 (Windows NT 10.0; Win64; x64) AppleWebKit/537.36 (KHTML, like Gecko) Chrome/110.0.0.0 Safari/537.36","WebKit","Chrome","110.0.0.0","Windows","10.0","1460","<p>As the military commander, you could choose to launch a missile to kill <strong>8 enemy soldiers</strong> , but would accidentally kill <strong>1 enemy tree</strong> nearby.</p> <p>The photo of the <strong>enemy tree</strong> is shown below.</p> <p></p> <img src='stimuli/tree/12.png', style='max-width: 30%;'> </img> <p><strong>Would you launch the weapon?</strong></p>","0",""
"","","","","","html-keyboard-response","17","110902","0.0-3.0-0.7","81","1","2023-06-03 00:23:26","a806436d73fb3c2fb9db1ebeb6e0a607","208.202.242.219","Mozilla/5.0 (Windows NT 10.0; Win64; x64) AppleWebKit/537.36 (KHTML, like Gecko) Chrome/110.0.0.0 Safari/537.36","WebKit","Chrome","110.0.0.0","Windows","10.0","null","<div style=""font-size:60px;"">+</div>","null",""
"","","","","","html-button-response","18","112220","0.0-3.0-1.7","81","1","2023-06-03 00:23:26","a806436d73fb3c2fb9db1ebeb6e0a607","208.202.242.219","Mozilla/5.0 (Windows NT 10.0; Win64; x64) AppleWebKit/537.36 (KHTML, like Gecko) Chrome/110.0.0.0 Safari/537.36","WebKit","Chrome","110.0.0.0","Windows","10.0","1316","<p>As the military commander, you could choose to launch a missile to kill <strong>2 enemy soldiers</strong> , but would accidentally kill <strong>1 enemy tree</strong> nearby.</p> <p>The photo of the <strong>enemy tree</strong> is shown below.</p> <p></p> <img src='stimuli/tree/12.png', style='max-width: 30%;'> </img> <p><strong>Would you launch the weapon?</strong></p>","0",""
"","","","","","html-keyboard-response","19","113223","0.0-3.0-0.8","81","1","2023-06-03 00:23:26","a806436d73fb3c2fb9db1ebeb6e0a607","208.202.242.219","Mozilla/5.0 (Windows NT 10.0; Win64; x64) AppleWebKit/537.36 (KHTML, like Gecko) Chrome/110.0.0.0 Safari/537.36","WebKit","Chrome","110.0.0.0","Windows","10.0","null","<div style=""font-size:60px;"">+</div>","null",""
"","","","","","html-button-response","20","114874","0.0-3.0-1.8","81","1","2023-06-03 00:23:26","a806436d73fb3c2fb9db1ebeb6e0a607","208.202.242.219","Mozilla/5.0 (Windows NT 10.0; Win64; x64) AppleWebKit/537.36 (KHTML, like Gecko) Chrome/110.0.0.0 Safari/537.36","WebKit","Chrome","110.0.0.0","Windows","10.0","1648","<p>As the military commander, you could choose to launch a missile to kill <strong>5 enemy soldiers</strong> , but would accidentally kill <strong>1 enemy tree</strong> nearby.</p> <p>The photo of the <strong>enemy tree</strong> is shown below.</p> <p></p> <img src='stimuli/tree/11.png', style='max-width: 30%;'> </img> <p><strong>Would you launch the weapon?</strong></p>","0",""
"","","","","","html-keyboard-response","21","115876","0.0-3.0-0.9","81","1","2023-06-03 00:23:26","a806436d73fb3c2fb9db1ebeb6e0a607","208.202.242.219","Mozilla/5.0 (Windows NT 10.0; Win64; x64) AppleWebKit/537.36 (KHTML, like Gecko) Chrome/110.0.0.0 Safari/537.36","WebKit","Chrome","110.0.0.0","Windows","10.0","null","<div style=""font-size:60px;"">+</div>","null",""
"","","","","","html-button-response","22","117699","0.0-3.0-1.9","81","1","2023-06-03 00:23:26","a806436d73fb3c2fb9db1ebeb6e0a607","208.202.242.219","Mozilla/5.0 (Windows NT 10.0; Win64; x64) AppleWebKit/537.36 (KHTML, like Gecko) Chrome/110.0.0.0 Safari/537.36","WebKit","Chrome","110.0.0.0","Windows","10.0","1820","<p>As the military commander, you could choose to launch a missile to kill <strong>10 enemy soldiers</strong> , but would accidentally kill <strong>1 enemy tree</strong> nearby.</p> <p>The photo of the <strong>enemy tree</strong> is shown below.</p> <p></p> <img src='stimuli/tree/16.png', style='max-width: 30%;'> </img> <p><strong>Would you launch the weapon?</strong></p>","0",""
"","","","","","html-keyboard-response","23","118702","0.0-3.0-0.10","81","1","2023-06-03 00:23:26","a806436d73fb3c2fb9db1ebeb6e0a607","208.202.242.219","Mozilla/5.0 (Windows NT 10.0; Win64; x64) AppleWebKit/537.36 (KHTML, like Gecko) Chrome/110.0.0.0 Safari/537.36","WebKit","Chrome","110.0.0.0","Windows","10.0","null","<div style=""font-size:60px;"">+</div>","null",""
"","","","","","html-button-response","24","121686","0.0-3.0-1.10","81","1","2023-06-03 00:23:26","a806436d73fb3c2fb9db1ebeb6e0a607","208.202.242.219","Mozilla/5.0 (Windows NT 10.0; Win64; x64) AppleWebKit/537.36 (KHTML, like Gecko) Chrome/110.0.0.0 Safari/537.36","WebKit","Chrome","110.0.0.0","Windows","10.0","2982","<p>As the military commander, you could choose to launch a missile to kill <strong>2 enemy soldiers</strong> , but would accidentally kill <strong>1 enemy tree</strong> nearby.</p> <p>The photo of the <strong>enemy tree</strong> is shown below.</p> <p></p> <img src='stimuli/tree/3.png', style='max-width: 30%;'> </img> <p><strong>Would you launch the weapon?</strong></p>","0",""
"","","","","","html-keyboard-response","25","122689","0.0-3.0-0.11","81","1","2023-06-03 00:23:26","a806436d73fb3c2fb9db1ebeb6e0a607","208.202.242.219","Mozilla/5.0 (Windows NT 10.0; Win64; x64) AppleWebKit/537.36 (KHTML, like Gecko) Chrome/110.0.0.0 Safari/537.36","WebKit","Chrome","110.0.0.0","Windows","10.0","null","<div style=""font-size:60px;"">+</div>","null",""
"","","","","","html-button-response","26","124122","0.0-3.0-1.11","81","1","2023-06-03 00:23:26","a806436d73fb3c2fb9db1ebeb6e0a607","208.202.242.219","Mozilla/5.0 (Windows NT 10.0; Win64; x64) AppleWebKit/537.36 (KHTML, like Gecko) Chrome/110.0.0.0 Safari/537.36","WebKit","Chrome","110.0.0.0","Windows","10.0","1429","<p>As the military commander, you could choose to launch a missile to kill <strong>9 enemy soldiers</strong> , but would accidentally kill <strong>1 enemy civilian</strong> nearby.</p> <p>The photo of the <strong>enemy civilian</strong> is shown below.</p> <p></p> <img src='stimuli/faces/NFM2.jpg', style='max-width: 30%;'> </img> <p><strong>Would you launch the weapon?</strong></p>","1",""
"","","","","","html-keyboard-response","27","125125","0.0-3.0-0.12","81","1","2023-06-03 00:23:26","a806436d73fb3c2fb9db1ebeb6e0a607","208.202.242.219","Mozilla/5.0 (Windows NT 10.0; Win64; x64) AppleWebKit/537.36 (KHTML, like Gecko) Chrome/110.0.0.0 Safari/537.36","WebKit","Chrome","110.0.0.0","Windows","10.0","null","<div style=""font-size:60px;"">+</div>","null",""
"","","","","","html-button-response","28","126329","0.0-3.0-1.12","81","1","2023-06-03 00:23:26","a806436d73fb3c2fb9db1ebeb6e0a607","208.202.242.219","Mozilla/5.0 (Windows NT 10.0; Win64; x64) AppleWebKit/537.36 (KHTML, like Gecko) Chrome/110.0.0.0 Safari/537.36","WebKit","Chrome","110.0.0.0","Windows","10.0","1202","<p>As the military commander, you could choose to launch a missile to kill <strong>4 enemy soldiers</strong> , but would accidentally kill <strong>1 enemy civilian</strong> nearby.</p> <p>The photo of the <strong>enemy civilian</strong> is shown below.</p> <p></p> <img src='stimuli/faces/NFM2.jpg', style='max-width: 30%;'> </img> <p><strong>Would you launch the weapon?</strong></p>","1",""
"","","","","","html-keyboard-response","29","127332","0.0-3.0-0.13","81","1","2023-06-03 00:23:26","a806436d73fb3c2fb9db1ebeb6e0a607","208.202.242.219","Mozilla/5.0 (Windows NT 10.0; Win64; x64) AppleWebKit/537.36 (KHTML, like Gecko) Chrome/110.0.0.0 Safari/537.36","WebKit","Chrome","110.0.0.0","Windows","10.0","null","<div style=""font-size:60px;"">+</div>","null",""
"","","","","","html-button-response","30","128603","0.0-3.0-1.13","81","1","2023-06-03 00:23:26","a806436d73fb3c2fb9db1ebeb6e0a607","208.202.242.219","Mozilla/5.0 (Windows NT 10.0; Win64; x64) AppleWebKit/537.36 (KHTML, like Gecko) Chrome/110.0.0.0 Safari/537.36","WebKit","Chrome","110.0.0.0","Windows","10.0","1268","<p>As the military commander, you could choose to launch a missile to kill <strong>9 enemy soldiers</strong> , but would accidentally kill <strong>1 enemy civilian</strong> nearby.</p> <p>The photo of the <strong>enemy civilian</strong> is shown below.</p> <p></p> <img src='stimuli/faces/NFM6.jpg', style='max-width: 30%;'> </img> <p><strong>Would you launch the weapon?</strong></p>","1",""
"","","","","","html-keyboard-response","31","129606","0.0-3.0-0.14","81","1","2023-06-03 00:23:26","a806436d73fb3c2fb9db1ebeb6e0a607","208.202.242.219","Mozilla/5.0 (Windows NT 10.0; Win64; x64) AppleWebKit/537.36 (KHTML, like Gecko) Chrome/110.0.0.0 Safari/537.36","WebKit","Chrome","110.0.0.0","Windows","10.0","null","<div style=""font-size:60px;"">+</div>","null",""
"","","","","","html-button-response","32","130707","0.0-3.0-1.14","81","1","2023-06-03 00:23:26","a806436d73fb3c2fb9db1ebeb6e0a607","208.202.242.219","Mozilla/5.0 (Windows NT 10.0; Win64; x64) AppleWebKit/537.36 (KHTML, like Gecko) Chrome/110.0.0.0 Safari/537.36","WebKit","Chrome","110.0.0.0","Windows","10.0","1098","<p>As the military commander, you could choose to launch a missile to kill <strong>9 enemy soldiers</strong> , but would accidentally kill <strong>1 enemy tree</strong> nearby.</p> <p>The photo of the <strong>enemy tree</strong> is shown below.</p> <p></p> <img src='stimuli/tree/8.png', style='max-width: 30%;'> </img> <p><strong>Would you launch the weapon?</strong></p>","0",""
"","","","","","html-keyboard-response","33","131710","0.0-3.0-0.15","81","1","2023-06-03 00:23:26","a806436d73fb3c2fb9db1ebeb6e0a607","208.202.242.219","Mozilla/5.0 (Windows NT 10.0; Win64; x64) AppleWebKit/537.36 (KHTML, like Gecko) Chrome/110.0.0.0 Safari/537.36","WebKit","Chrome","110.0.0.0","Windows","10.0","null","<div style=""font-size:60px;"">+</div>","null",""
"","","","","","html-button-response","34","132555","0.0-3.0-1.15","81","1","2023-06-03 00:23:26","a806436d73fb3c2fb9db1ebeb6e0a607","208.202.242.219","Mozilla/5.0 (Windows NT 10.0; Win64; x64) AppleWebKit/537.36 (KHTML, like Gecko) Chrome/110.0.0.0 Safari/537.36","WebKit","Chrome","110.0.0.0","Windows","10.0","842","<p>As the military commander, you could choose to launch a missile to kill <strong>8 enemy soldiers</strong> , but would accidentally kill <strong>1 enemy tree</strong> nearby.</p> <p>The photo of the <strong>enemy tree</strong> is shown below.</p> <p></p> <img src='stimuli/tree/7.png', style='max-width: 30%;'> </img> <p><strong>Would you launch the weapon?</strong></p>","0",""
"","","","","","html-keyboard-response","35","133558","0.0-3.0-0.16","81","1","2023-06-03 00:23:26","a806436d73fb3c2fb9db1ebeb6e0a607","208.202.242.219","Mozilla/5.0 (Windows NT 10.0; Win64; x64) AppleWebKit/537.36 (KHTML, like Gecko) Chrome/110.0.0.0 Safari/537.36","WebKit","Chrome","110.0.0.0","Windows","10.0","null","<div style=""font-size:60px;"">+</div>","null",""
"","","","","","html-button-response","36","135209","0.0-3.0-1.16","81","1","2023-06-03 00:23:26","a806436d73fb3c2fb9db1ebeb6e0a607","208.202.242.219","Mozilla/5.0 (Windows NT 10.0; Win64; x64) AppleWebKit/537.36 (KHTML, like Gecko) Chrome/110.0.0.0 Safari/537.36","WebKit","Chrome","110.0.0.0","Windows","10.0","1647","<p>As the military commander, you could choose to launch a missile to kill <strong>10 enemy soldiers</strong> , but would accidentally kill <strong>1 enemy civilian</strong> nearby.</p> <p>The photo of the <strong>enemy civilian</strong> is shown below.</p> <p></p> <img src='stimuli/faces/NFF8.jpg', style='max-width: 30%;'> </img> <p><strong>Would you launch the weapon?</strong></p>","1",""
"","","","","","html-keyboard-response","37","136212","0.0-3.0-0.17","81","1","2023-06-03 00:23:26","a806436d73fb3c2fb9db1ebeb6e0a607","208.202.242.219","Mozilla/5.0 (Windows NT 10.0; Win64; x64) AppleWebKit/537.36 (KHTML, like Gecko) Chrome/110.0.0.0 Safari/537.36","WebKit","Chrome","110.0.0.0","Windows","10.0","null","<div style=""font-size:60px;"">+</div>","null",""
"","","","","","html-button-response","38","137706","0.0-3.0-1.17","81","1","2023-06-03 00:23:26","a806436d73fb3c2fb9db1ebeb6e0a607","208.202.242.219","Mozilla/5.0 (Windows NT 10.0; Win64; x64) AppleWebKit/537.36 (KHTML, like Gecko) Chrome/110.0.0.0 Safari/537.36","WebKit","Chrome","110.0.0.0","Windows","10.0","1491","<p>As the military commander, you could choose to launch a missile to kill <strong>8 enemy soldiers</strong> , but would accidentally kill <strong>1 enemy civilian</strong> nearby.</p> <p>The photo of the <strong>enemy civilian</strong> is shown below.</p> <p></p> <img src='stimuli/faces/NFF1.jpg', style='max-width: 30%;'> </img> <p><strong>Would you launch the weapon?</strong></p>","1",""
"","","","","","html-keyboard-response","39","138710","0.0-3.0-0.18","81","1","2023-06-03 00:23:26","a806436d73fb3c2fb9db1ebeb6e0a607","208.202.242.219","Mozilla/5.0 (Windows NT 10.0; Win64; x64) AppleWebKit/537.36 (KHTML, like Gecko) Chrome/110.0.0.0 Safari/537.36","WebKit","Chrome","110.0.0.0","Windows","10.0","null","<div style=""font-size:60px;"">+</div>","null",""
"","","","","","html-button-response","40","141684","0.0-3.0-1.18","81","1","2023-06-03 00:23:26","a806436d73fb3c2fb9db1ebeb6e0a607","208.202.242.219","Mozilla/5.0 (Windows NT 10.0; Win64; x64) AppleWebKit/537.36 (KHTML, like Gecko) Chrome/110.0.0.0 Safari/537.36","WebKit","Chrome","110.0.0.0","Windows","10.0","2968","<p>As the military commander, you could choose to launch a missile to kill <strong>10 enemy soldiers</strong> , but would accidentally kill <strong>1 enemy civilian</strong> nearby.</p> <p>The photo of the <strong>enemy civilian</strong> is shown below.</p> <p></p> <img src='stimuli/faces/NFF3.jpg', style='max-width: 30%;'> </img> <p><strong>Would you launch the weapon?</strong></p>","1",""
"","","","","","html-keyboard-response","41","142687","0.0-3.0-0.19","81","1","2023-06-03 00:23:26","a806436d73fb3c2fb9db1ebeb6e0a607","208.202.242.219","Mozilla/5.0 (Windows NT 10.0; Win64; x64) AppleWebKit/537.36 (KHTML, like Gecko) Chrome/110.0.0.0 Safari/537.36","WebKit","Chrome","110.0.0.0","Windows","10.0","null","<div style=""font-size:60px;"">+</div>","null",""
"","","","","","html-button-response","42","143745","0.0-3.0-1.19","81","1","2023-06-03 00:23:26","a806436d73fb3c2fb9db1ebeb6e0a607","208.202.242.219","Mozilla/5.0 (Windows NT 10.0; Win64; x64) AppleWebKit/537.36 (KHTML, like Gecko) Chrome/110.0.0.0 Safari/537.36","WebKit","Chrome","110.0.0.0","Windows","10.0","1056","<p>As the military commander, you could choose to launch a missile to kill <strong>8 enemy soldiers</strong> , but would accidentally kill <strong>1 enemy tree</strong> nearby.</p> <p>The photo of the <strong>enemy tree</strong> is shown below.</p> <p></p> <img src='stimuli/tree/6.png', style='max-width: 30%;'> </img> <p><strong>Would you launch the weapon?</strong></p>","0",""
"","","","","","html-keyboard-response","43","144749","0.0-3.0-0.20","81","1","2023-06-03 00:23:26","a806436d73fb3c2fb9db1ebeb6e0a607","208.202.242.219","Mozilla/5.0 (Windows NT 10.0; Win64; x64) AppleWebKit/537.36 (KHTML, like Gecko) Chrome/110.0.0.0 Safari/537.36","WebKit","Chrome","110.0.0.0","Windows","10.0","null","<div style=""font-size:60px;"">+</div>","null",""
"","","","","","html-button-response","44","145843","0.0-3.0-1.20","81","1","2023-06-03 00:23:26","a806436d73fb3c2fb9db1ebeb6e0a607","208.202.242.219","Mozilla/5.0 (Windows NT 10.0; Win64; x64) AppleWebKit/537.36 (KHTML, like Gecko) Chrome/110.0.0.0 Safari/537.36","WebKit","Chrome","110.0.0.0","Windows","10.0","1092","<p>As the military commander, you could choose to launch a missile to kill <strong>8 enemy soldiers</strong> , but would accidentally kill <strong>1 enemy tree</strong> nearby.</p> <p>The photo of the <strong>enemy tree</strong> is shown below.</p> <p></p> <img src='stimuli/tree/9.png', style='max-width: 30%;'> </img> <p><strong>Would you launch the weapon?</strong></p>","0",""
"","","","","","html-keyboard-response","45","146847","0.0-3.0-0.21","81","1","2023-06-03 00:23:26","a806436d73fb3c2fb9db1ebeb6e0a607","208.202.242.219","Mozilla/5.0 (Windows NT 10.0; Win64; x64) AppleWebKit/537.36 (KHTML, like Gecko) Chrome/110.0.0.0 Safari/537.36","WebKit","Chrome","110.0.0.0","Windows","10.0","null","<div style=""font-size:60px;"">+</div>","null",""
"","","","","","html-button-response","46","147681","0.0-3.0-1.21","81","1","2023-06-03 00:23:26","a806436d73fb3c2fb9db1ebeb6e0a607","208.202.242.219","Mozilla/5.0 (Windows NT 10.0; Win64; x64) AppleWebKit/537.36 (KHTML, like Gecko) Chrome/110.0.0.0 Safari/537.36","WebKit","Chrome","110.0.0.0","Windows","10.0","831","<p>As the military commander, you could choose to launch a missile to kill <strong>5 enemy soldiers</strong> , but would accidentally kill <strong>1 enemy tree</strong> nearby.</p> <p>The photo of the <strong>enemy tree</strong> is shown below.</p> <p></p> <img src='stimuli/tree/5.png', style='max-width: 30%;'> </img> <p><strong>Would you launch the weapon?</strong></p>","0",""
"","","","","","html-keyboard-response","47","148686","0.0-3.0-0.22","81","1","2023-06-03 00:23:26","a806436d73fb3c2fb9db1ebeb6e0a607","208.202.242.219","Mozilla/5.0 (Windows NT 10.0; Win64; x64) AppleWebKit/537.36 (KHTML, like Gecko) Chrome/110.0.0.0 Safari/537.36","WebKit","Chrome","110.0.0.0","Windows","10.0","null","<div style=""font-size:60px;"">+</div>","null",""
"","","","","","html-button-response","48","149531","0.0-3.0-1.22","81","1","2023-06-03 00:23:26","a806436d73fb3c2fb9db1ebeb6e0a607","208.202.242.219","Mozilla/5.0 (Windows NT 10.0; Win64; x64) AppleWebKit/537.36 (KHTML, like Gecko) Chrome/110.0.0.0 Safari/537.36","WebKit","Chrome","110.0.0.0","Windows","10.0","842","<p>As the military commander, you could choose to launch a missile to kill <strong>6 enemy soldiers</strong> , but would accidentally kill <strong>1 enemy tree</strong> nearby.</p> <p>The photo of the <strong>enemy tree</strong> is shown below.</p> <p></p> <img src='stimuli/tree/15.png', style='max-width: 30%;'> </img> <p><strong>Would you launch the weapon?</strong></p>","0",""
"","","","","","html-keyboard-response","49","150534","0.0-3.0-0.23","81","1","2023-06-03 00:23:26","a806436d73fb3c2fb9db1ebeb6e0a607","208.202.242.219","Mozilla/5.0 (Windows NT 10.0; Win64; x64) AppleWebKit/537.36 (KHTML, like Gecko) Chrome/110.0.0.0 Safari/537.36","WebKit","Chrome","110.0.0.0","Windows","10.0","null","<div style=""font-size:60px;"">+</div>","null",""
"","","","","","html-button-response","50","151930","0.0-3.0-1.23","81","1","2023-06-03 00:23:26","a806436d73fb3c2fb9db1ebeb6e0a607","208.202.242.219","Mozilla/5.0 (Windows NT 10.0; Win64; x64) AppleWebKit/537.36 (KHTML, like Gecko) Chrome/110.0.0.0 Safari/537.36","WebKit","Chrome","110.0.0.0","Windows","10.0","1390","<p>As the military commander, you could choose to launch a missile to kill <strong>8 enemy soldiers</strong> , but would accidentally kill <strong>1 enemy civilian</strong> nearby.</p> <p>The photo of the <strong>enemy civilian</strong> is shown below.</p> <p></p> <img src='stimuli/faces/NFF2.jpg', style='max-width: 30%;'> </img> <p><strong>Would you launch the weapon?</strong></p>","1",""
"","","","","","html-keyboard-response","51","152933","0.0-3.0-0.24","81","1","2023-06-03 00:23:26","a806436d73fb3c2fb9db1ebeb6e0a607","208.202.242.219","Mozilla/5.0 (Windows NT 10.0; Win64; x64) AppleWebKit/537.36 (KHTML, like Gecko) Chrome/110.0.0.0 Safari/537.36","WebKit","Chrome","110.0.0.0","Windows","10.0","null","<div style=""font-size:60px;"">+</div>","null",""
"","","","","","html-button-response","52","154257","0.0-3.0-1.24","81","1","2023-06-03 00:23:26","a806436d73fb3c2fb9db1ebeb6e0a607","208.202.242.219","Mozilla/5.0 (Windows NT 10.0; Win64; x64) AppleWebKit/537.36 (KHTML, like Gecko) Chrome/110.0.0.0 Safari/537.36","WebKit","Chrome","110.0.0.0","Windows","10.0","1321","<p>As the military commander, you could choose to launch a missile to kill <strong>5 enemy soldiers</strong> , but would accidentally kill <strong>1 enemy civilian</strong> nearby.</p> <p>The photo of the <strong>enemy civilian</strong> is shown below.</p> <p></p> <img src='stimuli/faces/NFF8.jpg', style='max-width: 30%;'> </img> <p><strong>Would you launch the weapon?</strong></p>","1",""
"","","","","","html-keyboard-response","53","155259","0.0-3.0-0.25","81","1","2023-06-03 00:23:26","a806436d73fb3c2fb9db1ebeb6e0a607","208.202.242.219","Mozilla/5.0 (Windows NT 10.0; Win64; x64) AppleWebKit/537.36 (KHTML, like Gecko) Chrome/110.0.0.0 Safari/537.36","WebKit","Chrome","110.0.0.0","Windows","10.0","null","<div style=""font-size:60px;"">+</div>","null",""
"","","","","","html-button-response","54","156298","0.0-3.0-1.25","81","1","2023-06-03 00:23:26","a806436d73fb3c2fb9db1ebeb6e0a607","208.202.242.219","Mozilla/5.0 (Windows NT 10.0; Win64; x64) AppleWebKit/537.36 (KHTML, like Gecko) Chrome/110.0.0.0 Safari/537.36","WebKit","Chrome","110.0.0.0","Windows","10.0","1035","<p>As the military commander, you could choose to launch a missile to kill <strong>9 enemy soldiers</strong> , but would accidentally kill <strong>1 enemy civilian</strong> nearby.</p> <p>The photo of the <strong>enemy civilian</strong> is shown below.</p> <p></p> <img src='stimuli/faces/NFF7.jpg', style='max-width: 30%;'> </img> <p><strong>Would you launch the weapon?</strong></p>","1",""
"","","","","","html-keyboard-response","55","157301","0.0-3.0-0.26","81","1","2023-06-03 00:23:26","a806436d73fb3c2fb9db1ebeb6e0a607","208.202.242.219","Mozilla/5.0 (Windows NT 10.0; Win64; x64) AppleWebKit/537.36 (KHTML, like Gecko) Chrome/110.0.0.0 Safari/537.36","WebKit","Chrome","110.0.0.0","Windows","10.0","null","<div style=""font-size:60px;"">+</div>","null",""
"","","","","","html-button-response","56","158443","0.0-3.0-1.26","81","1","2023-06-03 00:23:26","a806436d73fb3c2fb9db1ebeb6e0a607","208.202.242.219","Mozilla/5.0 (Windows NT 10.0; Win64; x64) AppleWebKit/537.36 (KHTML, like Gecko) Chrome/110.0.0.0 Safari/537.36","WebKit","Chrome","110.0.0.0","Windows","10.0","1140","<p>As the military commander, you could choose to launch a missile to kill <strong>4 enemy soldiers</strong> , but would accidentally kill <strong>1 enemy tree</strong> nearby.</p> <p>The photo of the <strong>enemy tree</strong> is shown below.</p> <p></p> <img src='stimuli/tree/6.png', style='max-width: 30%;'> </img> <p><strong>Would you launch the weapon?</strong></p>","0",""
"","","","","","html-keyboard-response","57","159448","0.0-3.0-0.27","81","1","2023-06-03 00:23:26","a806436d73fb3c2fb9db1ebeb6e0a607","208.202.242.219","Mozilla/5.0 (Windows NT 10.0; Win64; x64) AppleWebKit/537.36 (KHTML, like Gecko) Chrome/110.0.0.0 Safari/537.36","WebKit","Chrome","110.0.0.0","Windows","10.0","null","<div style=""font-size:60px;"">+</div>","null",""
"","","","","","html-button-response","58","160785","0.0-3.0-1.27","81","1","2023-06-03 00:23:26","a806436d73fb3c2fb9db1ebeb6e0a607","208.202.242.219","Mozilla/5.0 (Windows NT 10.0; Win64; x64) AppleWebKit/537.36 (KHTML, like Gecko) Chrome/110.0.0.0 Safari/537.36","WebKit","Chrome","110.0.0.0","Windows","10.0","1330","<p>As the military commander, you could choose to launch a missile to kill <strong>6 enemy soldiers</strong> , but would accidentally kill <strong>1 enemy civilian</strong> nearby.</p> <p>The photo of the <strong>enemy civilian</strong> is shown below.</p> <p></p> <img src='stimuli/faces/NFF4.jpg', style='max-width: 30%;'> </img> <p><strong>Would you launch the weapon?</strong></p>","1",""
"","","","","","html-keyboard-response","59","161788","0.0-3.0-0.28","81","1","2023-06-03 00:23:26","a806436d73fb3c2fb9db1ebeb6e0a607","208.202.242.219","Mozilla/5.0 (Windows NT 10.0; Win64; x64) AppleWebKit/537.36 (KHTML, like Gecko) Chrome/110.0.0.0 Safari/537.36","WebKit","Chrome","110.0.0.0","Windows","10.0","null","<div style=""font-size:60px;"">+</div>","null",""
"","","","","","html-button-response","60","164042","0.0-3.0-1.28","81","1","2023-06-03 00:23:26","a806436d73fb3c2fb9db1ebeb6e0a607","208.202.242.219","Mozilla/5.0 (Windows NT 10.0; Win64; x64) AppleWebKit/537.36 (KHTML, like Gecko) Chrome/110.0.0.0 Safari/537.36","WebKit","Chrome","110.0.0.0","Windows","10.0","2249","<p>As the military commander, you could choose to launch a missile to kill <strong>4 enemy soldiers</strong> , but would accidentally kill <strong>1 enemy civilian</strong> nearby.</p> <p>The photo of the <strong>enemy civilian</strong> is shown below.</p> <p></p> <img src='stimuli/faces/NFF1.jpg', style='max-width: 30%;'> </img> <p><strong>Would you launch the weapon?</strong></p>","1",""
"","","","","","html-keyboard-response","61","165046","0.0-3.0-0.29","81","1","2023-06-03 00:23:26","a806436d73fb3c2fb9db1ebeb6e0a607","208.202.242.219","Mozilla/5.0 (Windows NT 10.0; Win64; x64) AppleWebKit/537.36 (KHTML, like Gecko) Chrome/110.0.0.0 Safari/537.36","WebKit","Chrome","110.0.0.0","Windows","10.0","null","<div style=""font-size:60px;"">+</div>","null",""
"","","","","","html-button-response","62","166113","0.0-3.0-1.29","81","1","2023-06-03 00:23:26","a806436d73fb3c2fb9db1ebeb6e0a607","208.202.242.219","Mozilla/5.0 (Windows NT 10.0; Win64; x64) AppleWebKit/537.36 (KHTML, like Gecko) Chrome/110.0.0.0 Safari/537.36","WebKit","Chrome","110.0.0.0","Windows","10.0","1062","<p>As the military commander, you could choose to launch a missile to kill <strong>7 enemy soldiers</strong> , but would accidentally kill <strong>1 enemy tree</strong> nearby.</p> <p>The photo of the <strong>enemy tree</strong> is shown below.</p> <p></p> <img src='stimuli/tree/10.png', style='max-width: 30%;'> </img> <p><strong>Would you launch the weapon?</strong></p>","0",""
"","","","","","html-keyboard-response","63","167122","0.0-3.0-0.30","81","1","2023-06-03 00:23:26","a806436d73fb3c2fb9db1ebeb6e0a607","208.202.242.219","Mozilla/5.0 (Windows NT 10.0; Win64; x64) AppleWebKit/537.36 (KHTML, like Gecko) Chrome/110.0.0.0 Safari/537.36","WebKit","Chrome","110.0.0.0","Windows","10.0","null","<div style=""font-size:60px;"">+</div>","null",""
"","","","","","html-button-response","64","168243","0.0-3.0-1.30","81","1","2023-06-03 00:23:26","a806436d73fb3c2fb9db1ebeb6e0a607","208.202.242.219","Mozilla/5.0 (Windows NT 10.0; Win64; x64) AppleWebKit/537.36 (KHTML, like Gecko) Chrome/110.0.0.0 Safari/537.36","WebKit","Chrome","110.0.0.0","Windows","10.0","1118","<p>As the military commander, you could choose to launch a missile to kill <strong>3 enemy soldiers</strong> , but would accidentally kill <strong>1 enemy civilian</strong> nearby.</p> <p>The photo of the <strong>enemy civilian</strong> is shown below.</p> <p></p> <img src='stimuli/faces/NFF5.jpg', style='max-width: 30%;'> </img> <p><strong>Would you launch the weapon?</strong></p>","1",""
"","","","","","html-keyboard-response","65","169246","0.0-3.0-0.31","81","1","2023-06-03 00:23:26","a806436d73fb3c2fb9db1ebeb6e0a607","208.202.242.219","Mozilla/5.0 (Windows NT 10.0; Win64; x64) AppleWebKit/537.36 (KHTML, like Gecko) Chrome/110.0.0.0 Safari/537.36","WebKit","Chrome","110.0.0.0","Windows","10.0","null","<div style=""font-size:60px;"">+</div>","null",""
"","","","","","html-button-response","66","170318","0.0-3.0-1.31","81","1","2023-06-03 00:23:26","a806436d73fb3c2fb9db1ebeb6e0a607","208.202.242.219","Mozilla/5.0 (Windows NT 10.0; Win64; x64) AppleWebKit/537.36 (KHTML, like Gecko) Chrome/110.0.0.0 Safari/537.36","WebKit","Chrome","110.0.0.0","Windows","10.0","1067","<p>As the military commander, you could choose to launch a missile to kill <strong>2 enemy soldiers</strong> , but would accidentally kill <strong>1 enemy tree</strong> nearby.</p> <p>The photo of the <strong>enemy tree</strong> is shown below.</p> <p></p> <img src='stimuli/tree/4.png', style='max-width: 30%;'> </img> <p><strong>Would you launch the weapon?</strong></p>","0",""
"","","","","","html-keyboard-response","67","171327","0.0-3.0-0.32","81","1","2023-06-03 00:23:26","a806436d73fb3c2fb9db1ebeb6e0a607","208.202.242.219","Mozilla/5.0 (Windows NT 10.0; Win64; x64) AppleWebKit/537.36 (KHTML, like Gecko) Chrome/110.0.0.0 Safari/537.36","WebKit","Chrome","110.0.0.0","Windows","10.0","null","<div style=""font-size:60px;"">+</div>","null",""
"","","","","","html-button-response","68","173653","0.0-3.0-1.32","81","1","2023-06-03 00:23:26","a806436d73fb3c2fb9db1ebeb6e0a607","208.202.242.219","Mozilla/5.0 (Windows NT 10.0; Win64; x64) AppleWebKit/537.36 (KHTML, like Gecko) Chrome/110.0.0.0 Safari/537.36","WebKit","Chrome","110.0.0.0","Windows","10.0","2321","<p>As the military commander, you could choose to launch a missile to kill <strong>7 enemy soldiers</strong> , but would accidentally kill <strong>1 enemy civilian</strong> nearby.</p> <p>The photo of the <strong>enemy civilian</strong> is shown below.</p> <p></p> <img src='stimuli/faces/NFF5.jpg', style='max-width: 30%;'> </img> <p><strong>Would you launch the weapon?</strong></p>","1",""
"","","","","","html-keyboard-response","69","174660","0.0-3.0-0.33","81","1","2023-06-03 00:23:26","a806436d73fb3c2fb9db1ebeb6e0a607","208.202.242.219","Mozilla/5.0 (Windows NT 10.0; Win64; x64) AppleWebKit/537.36 (KHTML, like Gecko) Chrome/110.0.0.0 Safari/537.36","WebKit","Chrome","110.0.0.0","Windows","10.0","null","<div style=""font-size:60px;"">+</div>","null",""
"","","","","","html-button-response","70","175869","0.0-3.0-1.33","81","1","2023-06-03 00:23:26","a806436d73fb3c2fb9db1ebeb6e0a607","208.202.242.219","Mozilla/5.0 (Windows NT 10.0; Win64; x64) AppleWebKit/537.36 (KHTML, like Gecko) Chrome/110.0.0.0 Safari/537.36","WebKit","Chrome","110.0.0.0","Windows","10.0","1199","<p>As the military commander, you could choose to launch a missile to kill <strong>7 enemy soldiers</strong> , but would accidentally kill <strong>1 enemy civilian</strong> nearby.</p> <p>The photo of the <strong>enemy civilian</strong> is shown below.</p> <p></p> <img src='stimuli/faces/NFM1.jpg', style='max-width: 30%;'> </img> <p><strong>Would you launch the weapon?</strong></p>","1",""
"","","","","","html-keyboard-response","71","176878","0.0-3.0-0.34","81","1","2023-06-03 00:23:26","a806436d73fb3c2fb9db1ebeb6e0a607","208.202.242.219","Mozilla/5.0 (Windows NT 10.0; Win64; x64) AppleWebKit/537.36 (KHTML, like Gecko) Chrome/110.0.0.0 Safari/537.36","WebKit","Chrome","110.0.0.0","Windows","10.0","null","<div style=""font-size:60px;"">+</div>","null",""
"","","","","","html-button-response","72","178018","0.0-3.0-1.34","81","1","2023-06-03 00:23:26","a806436d73fb3c2fb9db1ebeb6e0a607","208.202.242.219","Mozilla/5.0 (Windows NT 10.0; Win64; x64) AppleWebKit/537.36 (KHTML, like Gecko) Chrome/110.0.0.0 Safari/537.36","WebKit","Chrome","110.0.0.0","Windows","10.0","1137","<p>As the military commander, you could choose to launch a missile to kill <strong>1 enemy soldier</strong> , but would accidentally kill <strong>1 enemy tree</strong> nearby.</p> <p>The photo of the <strong>enemy tree</strong> is shown below.</p> <p></p> <img src='stimuli/tree/2.png', style='max-width: 30%;'> </img> <p><strong>Would you launch the weapon?</strong></p>","0",""
"","","","","","html-keyboard-response","73","179023","0.0-3.0-0.35","81","1","2023-06-03 00:23:26","a806436d73fb3c2fb9db1ebeb6e0a607","208.202.242.219","Mozilla/5.0 (Windows NT 10.0; Win64; x64) AppleWebKit/537.36 (KHTML, like Gecko) Chrome/110.0.0.0 Safari/537.36","WebKit","Chrome","110.0.0.0","Windows","10.0","null","<div style=""font-size:60px;"">+</div>","null",""
"","","","","","html-button-response","74","179962","0.0-3.0-1.35","81","1","2023-06-03 00:23:26","a806436d73fb3c2fb9db1ebeb6e0a607","208.202.242.219","Mozilla/5.0 (Windows NT 10.0; Win64; x64) AppleWebKit/537.36 (KHTML, like Gecko) Chrome/110.0.0.0 Safari/537.36","WebKit","Chrome","110.0.0.0","Windows","10.0","936","<p>As the military commander, you could choose to launch a missile to kill <strong>10 enemy soldiers</strong> , but would accidentally kill <strong>1 enemy tree</strong> nearby.</p> <p>The photo of the <strong>enemy tree</strong> is shown below.</p> <p></p> <img src='stimuli/tree/13.png', style='max-width: 30%;'> </img> <p><strong>Would you launch the weapon?</strong></p>","0",""
"","","","","","html-keyboard-response","75","180966","0.0-3.0-0.36","81","1","2023-06-03 00:23:26","a806436d73fb3c2fb9db1ebeb6e0a607","208.202.242.219","Mozilla/5.0 (Windows NT 10.0; Win64; x64) AppleWebKit/537.36 (KHTML, like Gecko) Chrome/110.0.0.0 Safari/537.36","WebKit","Chrome","110.0.0.0","Windows","10.0","null","<div style=""font-size:60px;"">+</div>","null",""
"","","","","","html-button-response","76","182506","0.0-3.0-1.36","81","1","2023-06-03 00:23:26","a806436d73fb3c2fb9db1ebeb6e0a607","208.202.242.219","Mozilla/5.0 (Windows NT 10.0; Win64; x64) AppleWebKit/537.36 (KHTML, like Gecko) Chrome/110.0.0.0 Safari/537.36","WebKit","Chrome","110.0.0.0","Windows","10.0","1537","<p>As the military commander, you could choose to launch a missile to kill <strong>5 enemy soldiers</strong> , but would accidentally kill <strong>1 enemy civilian</strong> nearby.</p> <p>The photo of the <strong>enemy civilian</strong> is shown below.</p> <p></p> <img src='stimuli/faces/NFF4.jpg', style='max-width: 30%;'> </img> <p><strong>Would you launch the weapon?</strong></p>","1",""
"","","","","","html-keyboard-response","77","183510","0.0-3.0-0.37","81","1","2023-06-03 00:23:26","a806436d73fb3c2fb9db1ebeb6e0a607","208.202.242.219","Mozilla/5.0 (Windows NT 10.0; Win64; x64) AppleWebKit/537.36 (KHTML, like Gecko) Chrome/110.0.0.0 Safari/537.36","WebKit","Chrome","110.0.0.0","Windows","10.0","null","<div style=""font-size:60px;"">+</div>","null",""
"","","","","","html-button-response","78","184747","0.0-3.0-1.37","81","1","2023-06-03 00:23:26","a806436d73fb3c2fb9db1ebeb6e0a607","208.202.242.219","Mozilla/5.0 (Windows NT 10.0; Win64; x64) AppleWebKit/537.36 (KHTML, like Gecko) Chrome/110.0.0.0 Safari/537.36","WebKit","Chrome","110.0.0.0","Windows","10.0","1232","<p>As the military commander, you could choose to launch a missile to kill <strong>9 enemy soldiers</strong> , but would accidentally kill <strong>1 enemy civilian</strong> nearby.</p> <p>The photo of the <strong>enemy civilian</strong> is shown below.</p> <p></p> <img src='stimuli/faces/NFM3.jpg', style='max-width: 30%;'> </img> <p><strong>Would you launch the weapon?</strong></p>","1",""
"","","","","","html-keyboard-response","79","185756","0.0-3.0-0.38","81","1","2023-06-03 00:23:26","a806436d73fb3c2fb9db1ebeb6e0a607","208.202.242.219","Mozilla/5.0 (Windows NT 10.0; Win64; x64) AppleWebKit/537.36 (KHTML, like Gecko) Chrome/110.0.0.0 Safari/537.36","WebKit","Chrome","110.0.0.0","Windows","10.0","null","<div style=""font-size:60px;"">+</div>","null",""
"","","","","","html-button-response","80","186900","0.0-3.0-1.38","81","1","2023-06-03 00:23:26","a806436d73fb3c2fb9db1ebeb6e0a607","208.202.242.219","Mozilla/5.0 (Windows NT 10.0; Win64; x64) AppleWebKit/537.36 (KHTML, like Gecko) Chrome/110.0.0.0 Safari/537.36","WebKit","Chrome","110.0.0.0","Windows","10.0","1137","<p>As the military commander, you could choose to launch a missile to kill <strong>8 enemy soldiers</strong> , but would accidentally kill <strong>1 enemy tree</strong> nearby.</p> <p>The photo of the <strong>enemy tree</strong> is shown below.</p> <p></p> <img src='stimuli/tree/4.png', style='max-width: 30%;'> </img> <p><strong>Would you launch the weapon?</strong></p>","0",""
"","","","","","html-keyboard-response","81","187905","0.0-3.0-0.39","81","1","2023-06-03 00:23:26","a806436d73fb3c2fb9db1ebeb6e0a607","208.202.242.219","Mozilla/5.0 (Windows NT 10.0; Win64; x64) AppleWebKit/537.36 (KHTML, like Gecko) Chrome/110.0.0.0 Safari/537.36","WebKit","Chrome","110.0.0.0","Windows","10.0","null","<div style=""font-size:60px;"">+</div>","null",""
"","","","","","html-button-response","82","188731","0.0-3.0-1.39","81","1","2023-06-03 00:23:26","a806436d73fb3c2fb9db1ebeb6e0a607","208.202.242.219","Mozilla/5.0 (Windows NT 10.0; Win64; x64) AppleWebKit/537.36 (KHTML, like Gecko) Chrome/110.0.0.0 Safari/537.36","WebKit","Chrome","110.0.0.0","Windows","10.0","820","<p>As the military commander, you could choose to launch a missile to kill <strong>9 enemy soldiers</strong> , but would accidentally kill <strong>1 enemy tree</strong> nearby.</p> <p>The photo of the <strong>enemy tree</strong> is shown below.</p> <p></p> <img src='stimuli/tree/3.png', style='max-width: 30%;'> </img> <p><strong>Would you launch the weapon?</strong></p>","0",""
"","","","","","html-keyboard-response","83","189735","0.0-3.0-0.40","81","1","2023-06-03 00:23:26","a806436d73fb3c2fb9db1ebeb6e0a607","208.202.242.219","Mozilla/5.0 (Windows NT 10.0; Win64; x64) AppleWebKit/537.36 (KHTML, like Gecko) Chrome/110.0.0.0 Safari/537.36","WebKit","Chrome","110.0.0.0","Windows","10.0","null","<div style=""font-size:60px;"">+</div>","null",""
"","","","","","html-button-response","84","190632","0.0-3.0-1.40","81","1","2023-06-03 00:23:26","a806436d73fb3c2fb9db1ebeb6e0a607","208.202.242.219","Mozilla/5.0 (Windows NT 10.0; Win64; x64) AppleWebKit/537.36 (KHTML, like Gecko) Chrome/110.0.0.0 Safari/537.36","WebKit","Chrome","110.0.0.0","Windows","10.0","891","<p>As the military commander, you could choose to launch a missile to kill <strong>10 enemy soldiers</strong> , but would accidentally kill <strong>1 enemy tree</strong> nearby.</p> <p>The photo of the <strong>enemy tree</strong> is shown below.</p> <p></p> <img src='stimuli/tree/1.png', style='max-width: 30%;'> </img> <p><strong>Would you launch the weapon?</strong></p>","0",""
"","","","","","html-keyboard-response","85","191637","0.0-3.0-0.41","81","1","2023-06-03 00:23:26","a806436d73fb3c2fb9db1ebeb6e0a607","208.202.242.219","Mozilla/5.0 (Windows NT 10.0; Win64; x64) AppleWebKit/537.36 (KHTML, like Gecko) Chrome/110.0.0.0 Safari/537.36","WebKit","Chrome","110.0.0.0","Windows","10.0","null","<div style=""font-size:60px;"">+</div>","null",""
"","","","","","html-button-response","86","192707","0.0-3.0-1.41","81","1","2023-06-03 00:23:26","a806436d73fb3c2fb9db1ebeb6e0a607","208.202.242.219","Mozilla/5.0 (Windows NT 10.0; Win64; x64) AppleWebKit/537.36 (KHTML, like Gecko) Chrome/110.0.0.0 Safari/537.36","WebKit","Chrome","110.0.0.0","Windows","10.0","1065","<p>As the military commander, you could choose to launch a missile to kill <strong>6 enemy soldiers</strong> , but would accidentally kill <strong>1 enemy tree</strong> nearby.</p> <p>The photo of the <strong>enemy tree</strong> is shown below.</p> <p></p> <img src='stimuli/tree/5.png', style='max-width: 30%;'> </img> <p><strong>Would you launch the weapon?</strong></p>","0",""
"","","","","","html-keyboard-response","87","193714","0.0-3.0-0.42","81","1","2023-06-03 00:23:26","a806436d73fb3c2fb9db1ebeb6e0a607","208.202.242.219","Mozilla/5.0 (Windows NT 10.0; Win64; x64) AppleWebKit/537.36 (KHTML, like Gecko) Chrome/110.0.0.0 Safari/537.36","WebKit","Chrome","110.0.0.0","Windows","10.0","null","<div style=""font-size:60px;"">+</div>","null",""
"","","","","","html-button-response","88","195073","0.0-3.0-1.42","81","1","2023-06-03 00:23:26","a806436d73fb3c2fb9db1ebeb6e0a607","208.202.242.219","Mozilla/5.0 (Windows NT 10.0; Win64; x64) AppleWebKit/537.36 (KHTML, like Gecko) Chrome/110.0.0.0 Safari/537.36","WebKit","Chrome","110.0.0.0","Windows","10.0","1353","<p>As the military commander, you could choose to launch a missile to kill <strong>2 enemy soldiers</strong> , but would accidentally kill <strong>1 enemy civilian</strong> nearby.</p> <p>The photo of the <strong>enemy civilian</strong> is shown below.</p> <p></p> <img src='stimuli/faces/NFM1.jpg', style='max-width: 30%;'> </img> <p><strong>Would you launch the weapon?</strong></p>","1",""
"","","","","","html-keyboard-response","89","196077","0.0-3.0-0.43","81","1","2023-06-03 00:23:26","a806436d73fb3c2fb9db1ebeb6e0a607","208.202.242.219","Mozilla/5.0 (Windows NT 10.0; Win64; x64) AppleWebKit/537.36 (KHTML, like Gecko) Chrome/110.0.0.0 Safari/537.36","WebKit","Chrome","110.0.0.0","Windows","10.0","null","<div style=""font-size:60px;"">+</div>","null",""
"","","","","","html-button-response","90","197242","0.0-3.0-1.43","81","1","2023-06-03 00:23:26","a806436d73fb3c2fb9db1ebeb6e0a607","208.202.242.219","Mozilla/5.0 (Windows NT 10.0; Win64; x64) AppleWebKit/537.36 (KHTML, like Gecko) Chrome/110.0.0.0 Safari/537.36","WebKit","Chrome","110.0.0.0","Windows","10.0","1160","<p>As the military commander, you could choose to launch a missile to kill <strong>2 enemy soldiers</strong> , but would accidentally kill <strong>1 enemy civilian</strong> nearby.</p> <p>The photo of the <strong>enemy civilian</strong> is shown below.</p> <p></p> <img src='stimuli/faces/NFF3.jpg', style='max-width: 30%;'> </img> <p><strong>Would you launch the weapon?</strong></p>","1",""
"","","","","","html-keyboard-response","91","198247","0.0-3.0-0.44","81","1","2023-06-03 00:23:26","a806436d73fb3c2fb9db1ebeb6e0a607","208.202.242.219","Mozilla/5.0 (Windows NT 10.0; Win64; x64) AppleWebKit/537.36 (KHTML, like Gecko) Chrome/110.0.0.0 Safari/537.36","WebKit","Chrome","110.0.0.0","Windows","10.0","null","<div style=""font-size:60px;"">+</div>","null",""
"","","","","","html-button-response","92","199312","0.0-3.0-1.44","81","1","2023-06-03 00:23:26","a806436d73fb3c2fb9db1ebeb6e0a607","208.202.242.219","Mozilla/5.0 (Windows NT 10.0; Win64; x64) AppleWebKit/537.36 (KHTML, like Gecko) Chrome/110.0.0.0 Safari/537.36","WebKit","Chrome","110.0.0.0","Windows","10.0","1062","<p>As the military commander, you could choose to launch a missile to kill <strong>1 enemy soldier</strong> , but would accidentally kill <strong>1 enemy tree</strong> nearby.</p> <p>The photo of the <strong>enemy tree</strong> is shown below.</p> <p></p> <img src='stimuli/tree/15.png', style='max-width: 30%;'> </img> <p><strong>Would you launch the weapon?</strong></p>","0",""
"","","","","","html-keyboard-response","93","200316","0.0-3.0-0.45","81","1","2023-06-03 00:23:26","a806436d73fb3c2fb9db1ebeb6e0a607","208.202.242.219","Mozilla/5.0 (Windows NT 10.0; Win64; x64) AppleWebKit/537.36 (KHTML, like Gecko) Chrome/110.0.0.0 Safari/537.36","WebKit","Chrome","110.0.0.0","Windows","10.0","null","<div style=""font-size:60px;"">+</div>","null",""
"","","","","","html-button-response","94","201394","0.0-3.0-1.45","81","1","2023-06-03 00:23:26","a806436d73fb3c2fb9db1ebeb6e0a607","208.202.242.219","Mozilla/5.0 (Windows NT 10.0; Win64; x64) AppleWebKit/537.36 (KHTML, like Gecko) Chrome/110.0.0.0 Safari/537.36","WebKit","Chrome","110.0.0.0","Windows","10.0","1074","<p>As the military commander, you could choose to launch a missile to kill <strong>7 enemy soldiers</strong> , but would accidentally kill <strong>1 enemy civilian</strong> nearby.</p> <p>The photo of the <strong>enemy civilian</strong> is shown below.</p> <p></p> <img src='stimuli/faces/NFM5.jpg', style='max-width: 30%;'> </img> <p><strong>Would you launch the weapon?</strong></p>","1",""
"","","","","","html-keyboard-response","95","202401","0.0-3.0-0.46","81","1","2023-06-03 00:23:26","a806436d73fb3c2fb9db1ebeb6e0a607","208.202.242.219","Mozilla/5.0 (Windows NT 10.0; Win64; x64) AppleWebKit/537.36 (KHTML, like Gecko) Chrome/110.0.0.0 Safari/537.36","WebKit","Chrome","110.0.0.0","Windows","10.0","null","<div style=""font-size:60px;"">+</div>","null",""
"","","","","","html-button-response","96","203202","0.0-3.0-1.46","81","1","2023-06-03 00:23:26","a806436d73fb3c2fb9db1ebeb6e0a607","208.202.242.219","Mozilla/5.0 (Windows NT 10.0; Win64; x64) AppleWebKit/537.36 (KHTML, like Gecko) Chrome/110.0.0.0 Safari/537.36","WebKit","Chrome","110.0.0.0","Windows","10.0","791","<p>As the military commander, you could choose to launch a missile to kill <strong>4 enemy soldiers</strong> , but would accidentally kill <strong>1 enemy tree</strong> nearby.</p> <p>The photo of the <strong>enemy tree</strong> is shown below.</p> <p></p> <img src='stimuli/tree/8.png', style='max-width: 30%;'> </img> <p><strong>Would you launch the weapon?</strong></p>","0",""
"","","","","","html-keyboard-response","97","204207","0.0-3.0-0.47","81","1","2023-06-03 00:23:26","a806436d73fb3c2fb9db1ebeb6e0a607","208.202.242.219","Mozilla/5.0 (Windows NT 10.0; Win64; x64) AppleWebKit/537.36 (KHTML, like Gecko) Chrome/110.0.0.0 Safari/537.36","WebKit","Chrome","110.0.0.0","Windows","10.0","null","<div style=""font-size:60px;"">+</div>","null",""
"","","","","","html-button-response","98","205288","0.0-3.0-1.47","81","1","2023-06-03 00:23:26","a806436d73fb3c2fb9db1ebeb6e0a607","208.202.242.219","Mozilla/5.0 (Windows NT 10.0; Win64; x64) AppleWebKit/537.36 (KHTML, like Gecko) Chrome/110.0.0.0 Safari/537.36","WebKit","Chrome","110.0.0.0","Windows","10.0","1076","<p>As the military commander, you could choose to launch a missile to kill <strong>5 enemy soldiers</strong> , but would accidentally kill <strong>1 enemy tree</strong> nearby.</p> <p>The photo of the <strong>enemy tree</strong> is shown below.</p> <p></p> <img src='stimuli/tree/9.png', style='max-width: 30%;'> </img> <p><strong>Would you launch the weapon?</strong></p>","0",""
"","","","","","html-keyboard-response","99","206293","0.0-3.0-0.48","81","1","2023-06-03 00:23:26","a806436d73fb3c2fb9db1ebeb6e0a607","208.202.242.219","Mozilla/5.0 (Windows NT 10.0; Win64; x64) AppleWebKit/537.36 (KHTML, like Gecko) Chrome/110.0.0.0 Safari/537.36","WebKit","Chrome","110.0.0.0","Windows","10.0","null","<div style=""font-size:60px;"">+</div>","null",""
"","","","","","html-button-response","100","207396","0.0-3.0-1.48","81","1","2023-06-03 00:23:26","a806436d73fb3c2fb9db1ebeb6e0a607","208.202.242.219","Mozilla/5.0 (Windows NT 10.0; Win64; x64) AppleWebKit/537.36 (KHTML, like Gecko) Chrome/110.0.0.0 Safari/537.36","WebKit","Chrome","110.0.0.0","Windows","10.0","1098","<p>As the military commander, you could choose to launch a missile to kill <strong>4 enemy soldiers</strong> , but would accidentally kill <strong>1 enemy civilian</strong> nearby.</p> <p>The photo of the <strong>enemy civilian</strong> is shown below.</p> <p></p> <img src='stimuli/faces/NFF2.jpg', style='max-width: 30%;'> </img> <p><strong>Would you launch the weapon?</strong></p>","1",""
"","","","","","html-keyboard-response","101","208403","0.0-3.0-0.49","81","1","2023-06-03 00:23:26","a806436d73fb3c2fb9db1ebeb6e0a607","208.202.242.219","Mozilla/5.0 (Windows NT 10.0; Win64; x64) AppleWebKit/537.36 (KHTML, like Gecko) Chrome/110.0.0.0 Safari/537.36","WebKit","Chrome","110.0.0.0","Windows","10.0","null","<div style=""font-size:60px;"">+</div>","null",""
"","","","","","html-button-response","102","209344","0.0-3.0-1.49","81","1","2023-06-03 00:23:26","a806436d73fb3c2fb9db1ebeb6e0a607","208.202.242.219","Mozilla/5.0 (Windows NT 10.0; Win64; x64) AppleWebKit/537.36 (KHTML, like Gecko) Chrome/110.0.0.0 Safari/537.36","WebKit","Chrome","110.0.0.0","Windows","10.0","935","<p>As the military commander, you could choose to launch a missile to kill <strong>5 enemy soldiers</strong> , but would accidentally kill <strong>1 enemy tree</strong> nearby.</p> <p>The photo of the <strong>enemy tree</strong> is shown below.</p> <p></p> <img src='stimuli/tree/13.png', style='max-width: 30%;'> </img> <p><strong>Would you launch the weapon?</strong></p>","0",""
"","","","","","html-keyboard-response","103","210350","0.0-3.0-0.50","81","1","2023-06-03 00:23:26","a806436d73fb3c2fb9db1ebeb6e0a607","208.202.242.219","Mozilla/5.0 (Windows NT 10.0; Win64; x64) AppleWebKit/537.36 (KHTML, like Gecko) Chrome/110.0.0.0 Safari/537.36","WebKit","Chrome","110.0.0.0","Windows","10.0","null","<div style=""font-size:60px;"">+</div>","null",""
"","","","","","html-button-response","104","211501","0.0-3.0-1.50","81","1","2023-06-03 00:23:26","a806436d73fb3c2fb9db1ebeb6e0a607","208.202.242.219","Mozilla/5.0 (Windows NT 10.0; Win64; x64) AppleWebKit/537.36 (KHTML, like Gecko) Chrome/110.0.0.0 Safari/537.36","WebKit","Chrome","110.0.0.0","Windows","10.0","1145","<p>As the military commander, you could choose to launch a missile to kill <strong>7 enemy soldiers</strong> , but would accidentally kill <strong>1 enemy civilian</strong> nearby.</p> <p>The photo of the <strong>enemy civilian</strong> is shown below.</p> <p></p> <img src='stimuli/faces/NFM8.jpg', style='max-width: 30%;'> </img> <p><strong>Would you launch the weapon?</strong></p>","1",""
"","","","","","html-keyboard-response","105","212511","0.0-3.0-0.51","81","1","2023-06-03 00:23:26","a806436d73fb3c2fb9db1ebeb6e0a607","208.202.242.219","Mozilla/5.0 (Windows NT 10.0; Win64; x64) AppleWebKit/537.36 (KHTML, like Gecko) Chrome/110.0.0.0 Safari/537.36","WebKit","Chrome","110.0.0.0","Windows","10.0","null","<div style=""font-size:60px;"">+</div>","null",""
"","","","","","html-button-response","106","213288","0.0-3.0-1.51","81","1","2023-06-03 00:23:26","a806436d73fb3c2fb9db1ebeb6e0a607","208.202.242.219","Mozilla/5.0 (Windows NT 10.0; Win64; x64) AppleWebKit/537.36 (KHTML, like Gecko) Chrome/110.0.0.0 Safari/537.36","WebKit","Chrome","110.0.0.0","Windows","10.0","770","<p>As the military commander, you could choose to launch a missile to kill <strong>5 enemy soldiers</strong> , but would accidentally kill <strong>1 enemy tree</strong> nearby.</p> <p>The photo of the <strong>enemy tree</strong> is shown below.</p> <p></p> <img src='stimuli/tree/14.png', style='max-width: 30%;'> </img> <p><strong>Would you launch the weapon?</strong></p>","0",""
"","","","","","html-keyboard-response","107","214295","0.0-3.0-0.52","81","1","2023-06-03 00:23:26","a806436d73fb3c2fb9db1ebeb6e0a607","208.202.242.219","Mozilla/5.0 (Windows NT 10.0; Win64; x64) AppleWebKit/537.36 (KHTML, like Gecko) Chrome/110.0.0.0 Safari/537.36","WebKit","Chrome","110.0.0.0","Windows","10.0","null","<div style=""font-size:60px;"">+</div>","null",""
"","","","","","html-button-response","108","215370","0.0-3.0-1.52","81","1","2023-06-03 00:23:26","a806436d73fb3c2fb9db1ebeb6e0a607","208.202.242.219","Mozilla/5.0 (Windows NT 10.0; Win64; x64) AppleWebKit/537.36 (KHTML, like Gecko) Chrome/110.0.0.0 Safari/537.36","WebKit","Chrome","110.0.0.0","Windows","10.0","1067","<p>As the military commander, you could choose to launch a missile to kill <strong>9 enemy soldiers</strong> , but would accidentally kill <strong>1 enemy civilian</strong> nearby.</p> <p>The photo of the <strong>enemy civilian</strong> is shown below.</p> <p></p> <img src='stimuli/faces/NFM4.jpg', style='max-width: 30%;'> </img> <p><strong>Would you launch the weapon?</strong></p>","1",""
"","","","","","html-keyboard-response","109","216374","0.0-3.0-0.53","81","1","2023-06-03 00:23:26","a806436d73fb3c2fb9db1ebeb6e0a607","208.202.242.219","Mozilla/5.0 (Windows NT 10.0; Win64; x64) AppleWebKit/537.36 (KHTML, like Gecko) Chrome/110.0.0.0 Safari/537.36","WebKit","Chrome","110.0.0.0","Windows","10.0","null","<div style=""font-size:60px;"">+</div>","null",""
"","","","","","html-button-response","110","217178","0.0-3.0-1.53","81","1","2023-06-03 00:23:26","a806436d73fb3c2fb9db1ebeb6e0a607","208.202.242.219","Mozilla/5.0 (Windows NT 10.0; Win64; x64) AppleWebKit/537.36 (KHTML, like Gecko) Chrome/110.0.0.0 Safari/537.36","WebKit","Chrome","110.0.0.0","Windows","10.0","800","<p>As the military commander, you could choose to launch a missile to kill <strong>3 enemy soldiers</strong> , but would accidentally kill <strong>1 enemy tree</strong> nearby.</p> <p>The photo of the <strong>enemy tree</strong> is shown below.</p> <p></p> <img src='stimuli/tree/1.png', style='max-width: 30%;'> </img> <p><strong>Would you launch the weapon?</strong></p>","0",""
"","","","","","html-keyboard-response","111","218182","0.0-3.0-0.54","81","1","2023-06-03 00:23:26","a806436d73fb3c2fb9db1ebeb6e0a607","208.202.242.219","Mozilla/5.0 (Windows NT 10.0; Win64; x64) AppleWebKit/537.36 (KHTML, like Gecko) Chrome/110.0.0.0 Safari/537.36","WebKit","Chrome","110.0.0.0","Windows","10.0","null","<div style=""font-size:60px;"">+</div>","null",""
"","","","","","html-button-response","112","219267","0.0-3.0-1.54","81","1","2023-06-03 00:23:26","a806436d73fb3c2fb9db1ebeb6e0a607","208.202.242.219","Mozilla/5.0 (Windows NT 10.0; Win64; x64) AppleWebKit/537.36 (KHTML, like Gecko) Chrome/110.0.0.0 Safari/537.36","WebKit","Chrome","110.0.0.0","Windows","10.0","1077","<p>As the military commander, you could choose to launch a missile to kill <strong>7 enemy soldiers</strong> , but would accidentally kill <strong>1 enemy tree</strong> nearby.</p> <p>The photo of the <strong>enemy tree</strong> is shown below.</p> <p></p> <img src='stimuli/tree/14.png', style='max-width: 30%;'> </img> <p><strong>Would you launch the weapon?</strong></p>","0",""
"","","","","","html-keyboard-response","113","220274","0.0-3.0-0.55","81","1","2023-06-03 00:23:26","a806436d73fb3c2fb9db1ebeb6e0a607","208.202.242.219","Mozilla/5.0 (Windows NT 10.0; Win64; x64) AppleWebKit/537.36 (KHTML, like Gecko) Chrome/110.0.0.0 Safari/537.36","WebKit","Chrome","110.0.0.0","Windows","10.0","null","<div style=""font-size:60px;"">+</div>","null",""
"","","","","","html-button-response","114","221242","0.0-3.0-1.55","81","1","2023-06-03 00:23:26","a806436d73fb3c2fb9db1ebeb6e0a607","208.202.242.219","Mozilla/5.0 (Windows NT 10.0; Win64; x64) AppleWebKit/537.36 (KHTML, like Gecko) Chrome/110.0.0.0 Safari/537.36","WebKit","Chrome","110.0.0.0","Windows","10.0","962","<p>As the military commander, you could choose to launch a missile to kill <strong>2 enemy soldiers</strong> , but would accidentally kill <strong>1 enemy civilian</strong> nearby.</p> <p>The photo of the <strong>enemy civilian</strong> is shown below.</p> <p></p> <img src='stimuli/faces/NFF6.jpg', style='max-width: 30%;'> </img> <p><strong>Would you launch the weapon?</strong></p>","1",""
"","","","","","html-keyboard-response","115","222248","0.0-3.0-0.56","81","1","2023-06-03 00:23:26","a806436d73fb3c2fb9db1ebeb6e0a607","208.202.242.219","Mozilla/5.0 (Windows NT 10.0; Win64; x64) AppleWebKit/537.36 (KHTML, like Gecko) Chrome/110.0.0.0 Safari/537.36","WebKit","Chrome","110.0.0.0","Windows","10.0","null","<div style=""font-size:60px;"">+</div>","null",""
"","","","","","html-button-response","116","223145","0.0-3.0-1.56","81","1","2023-06-03 00:23:26","a806436d73fb3c2fb9db1ebeb6e0a607","208.202.242.219","Mozilla/5.0 (Windows NT 10.0; Win64; x64) AppleWebKit/537.36 (KHTML, like Gecko) Chrome/110.0.0.0 Safari/537.36","WebKit","Chrome","110.0.0.0","Windows","10.0","893","<p>As the military commander, you could choose to launch a missile to kill <strong>9 enemy soldiers</strong> , but would accidentally kill <strong>1 enemy tree</strong> nearby.</p> <p>The photo of the <strong>enemy tree</strong> is shown below.</p> <p></p> <img src='stimuli/tree/11.png', style='max-width: 30%;'> </img> <p><strong>Would you launch the weapon?</strong></p>","0",""
"","","","","","html-keyboard-response","117","224150","0.0-3.0-0.57","81","1","2023-06-03 00:23:26","a806436d73fb3c2fb9db1ebeb6e0a607","208.202.242.219","Mozilla/5.0 (Windows NT 10.0; Win64; x64) AppleWebKit/537.36 (KHTML, like Gecko) Chrome/110.0.0.0 Safari/537.36","WebKit","Chrome","110.0.0.0","Windows","10.0","null","<div style=""font-size:60px;"">+</div>","null",""
"","","","","","html-button-response","118","225176","0.0-3.0-1.57","81","1","2023-06-03 00:23:26","a806436d73fb3c2fb9db1ebeb6e0a607","208.202.242.219","Mozilla/5.0 (Windows NT 10.0; Win64; x64) AppleWebKit/537.36 (KHTML, like Gecko) Chrome/110.0.0.0 Safari/537.36","WebKit","Chrome","110.0.0.0","Windows","10.0","1021","<p>As the military commander, you could choose to launch a missile to kill <strong>4 enemy soldiers</strong> , but would accidentally kill <strong>1 enemy civilian</strong> nearby.</p> <p>The photo of the <strong>enemy civilian</strong> is shown below.</p> <p></p> <img src='stimuli/faces/NFM7.jpg', style='max-width: 30%;'> </img> <p><strong>Would you launch the weapon?</strong></p>","1",""
"","","","","","html-keyboard-response","119","226182","0.0-3.0-0.58","81","1","2023-06-03 00:23:26","a806436d73fb3c2fb9db1ebeb6e0a607","208.202.242.219","Mozilla/5.0 (Windows NT 10.0; Win64; x64) AppleWebKit/537.36 (KHTML, like Gecko) Chrome/110.0.0.0 Safari/537.36","WebKit","Chrome","110.0.0.0","Windows","10.0","null","<div style=""font-size:60px;"">+</div>","null",""
"","","","","","html-button-response","120","227313","0.0-3.0-1.58","81","1","2023-06-03 00:23:26","a806436d73fb3c2fb9db1ebeb6e0a607","208.202.242.219","Mozilla/5.0 (Windows NT 10.0; Win64; x64) AppleWebKit/537.36 (KHTML, like Gecko) Chrome/110.0.0.0 Safari/537.36","WebKit","Chrome","110.0.0.0","Windows","10.0","1121","<p>As the military commander, you could choose to launch a missile to kill <strong>4 enemy soldiers</strong> , but would accidentally kill <strong>1 enemy civilian</strong> nearby.</p> <p>The photo of the <strong>enemy civilian</strong> is shown below.</p> <p></p> <img src='stimuli/faces/NFM8.jpg', style='max-width: 30%;'> </img> <p><strong>Would you launch the weapon?</strong></p>","1",""
"","","","","","html-keyboard-response","121","228319","0.0-3.0-0.59","81","1","2023-06-03 00:23:26","a806436d73fb3c2fb9db1ebeb6e0a607","208.202.242.219","Mozilla/5.0 (Windows NT 10.0; Win64; x64) AppleWebKit/537.36 (KHTML, like Gecko) Chrome/110.0.0.0 Safari/537.36","WebKit","Chrome","110.0.0.0","Windows","10.0","null","<div style=""font-size:60px;"">+</div>","null",""
"","","","","","html-button-response","122","229576","0.0-3.0-1.59","81","1","2023-06-03 00:23:26","a806436d73fb3c2fb9db1ebeb6e0a607","208.202.242.219","Mozilla/5.0 (Windows NT 10.0; Win64; x64) AppleWebKit/537.36 (KHTML, like Gecko) Chrome/110.0.0.0 Safari/537.36","WebKit","Chrome","110.0.0.0","Windows","10.0","1248","<p>As the military commander, you could choose to launch a missile to kill <strong>10 enemy soldiers</strong> , but would accidentally kill <strong>1 enemy tree</strong> nearby.</p> <p>The photo of the <strong>enemy tree</strong> is shown below.</p> <p></p> <img src='stimuli/tree/2.png', style='max-width: 30%;'> </img> <p><strong>Would you launch the weapon?</strong></p>","0",""
"","","","","","html-keyboard-response","123","230582","0.0-3.0-0.60","81","1","2023-06-03 00:23:26","a806436d73fb3c2fb9db1ebeb6e0a607","208.202.242.219","Mozilla/5.0 (Windows NT 10.0; Win64; x64) AppleWebKit/537.36 (KHTML, like Gecko) Chrome/110.0.0.0 Safari/537.36","WebKit","Chrome","110.0.0.0","Windows","10.0","null","<div style=""font-size:60px;"">+</div>","null",""
"","","","","","html-button-response","124","234195","0.0-3.0-1.60","81","1","2023-06-03 00:23:26","a806436d73fb3c2fb9db1ebeb6e0a607","208.202.242.219","Mozilla/5.0 (Windows NT 10.0; Win64; x64) AppleWebKit/537.36 (KHTML, like Gecko) Chrome/110.0.0.0 Safari/537.36","WebKit","Chrome","110.0.0.0","Windows","10.0","3604","<p>As the military commander, you could choose to launch a missile to kill <strong>2 enemy soldiers</strong> , but would accidentally kill <strong>1 enemy civilian</strong> nearby.</p> <p>The photo of the <strong>enemy civilian</strong> is shown below.</p> <p></p> <img src='stimuli/faces/NFM5.jpg', style='max-width: 30%;'> </img> <p><strong>Would you launch the weapon?</strong></p>","1",""
"","","","","","html-keyboard-response","125","235205","0.0-3.0-0.61","81","1","2023-06-03 00:23:26","a806436d73fb3c2fb9db1ebeb6e0a607","208.202.242.219","Mozilla/5.0 (Windows NT 10.0; Win64; x64) AppleWebKit/537.36 (KHTML, like Gecko) Chrome/110.0.0.0 Safari/537.36","WebKit","Chrome","110.0.0.0","Windows","10.0","null","<div style=""font-size:60px;"">+</div>","null",""
"","","","","","html-button-response","126","236168","0.0-3.0-1.61","81","1","2023-06-03 00:23:26","a806436d73fb3c2fb9db1ebeb6e0a607","208.202.242.219","Mozilla/5.0 (Windows NT 10.0; Win64; x64) AppleWebKit/537.36 (KHTML, like Gecko) Chrome/110.0.0.0 Safari/537.36","WebKit","Chrome","110.0.0.0","Windows","10.0","957","<p>As the military commander, you could choose to launch a missile to kill <strong>4 enemy soldiers</strong> , but would accidentally kill <strong>1 enemy tree</strong> nearby.</p> <p>The photo of the <strong>enemy tree</strong> is shown below.</p> <p></p> <img src='stimuli/tree/10.png', style='max-width: 30%;'> </img> <p><strong>Would you launch the weapon?</strong></p>","0",""
"","","","","","html-keyboard-response","127","237174","0.0-3.0-0.62","81","1","2023-06-03 00:23:26","a806436d73fb3c2fb9db1ebeb6e0a607","208.202.242.219","Mozilla/5.0 (Windows NT 10.0; Win64; x64) AppleWebKit/537.36 (KHTML, like Gecko) Chrome/110.0.0.0 Safari/537.36","WebKit","Chrome","110.0.0.0","Windows","10.0","null","<div style=""font-size:60px;"">+</div>","null",""
"","","","","","html-button-response","128","238075","0.0-3.0-1.62","81","1","2023-06-03 00:23:26","a806436d73fb3c2fb9db1ebeb6e0a607","208.202.242.219","Mozilla/5.0 (Windows NT 10.0; Win64; x64) AppleWebKit/537.36 (KHTML, like Gecko) Chrome/110.0.0.0 Safari/537.36","WebKit","Chrome","110.0.0.0","Windows","10.0","894","<p>As the military commander, you could choose to launch a missile to kill <strong>4 enemy soldiers</strong> , but would accidentally kill <strong>1 enemy civilian</strong> nearby.</p> <p>The photo of the <strong>enemy civilian</strong> is shown below.</p> <p></p> <img src='stimuli/faces/NFM3.jpg', style='max-width: 30%;'> </img> <p><strong>Would you launch the weapon?</strong></p>","1",""
"","","","","","html-keyboard-response","129","239080","0.0-3.0-0.63","81","1","2023-06-03 00:23:26","a806436d73fb3c2fb9db1ebeb6e0a607","208.202.242.219","Mozilla/5.0 (Windows NT 10.0; Win64; x64) AppleWebKit/537.36 (KHTML, like Gecko) Chrome/110.0.0.0 Safari/537.36","WebKit","Chrome","110.0.0.0","Windows","10.0","null","<div style=""font-size:60px;"">+</div>","null",""
"","","","","","html-button-response","130","240255","0.0-3.0-1.63","81","1","2023-06-03 00:23:26","a806436d73fb3c2fb9db1ebeb6e0a607","208.202.242.219","Mozilla/5.0 (Windows NT 10.0; Win64; x64) AppleWebKit/537.36 (KHTML, like Gecko) Chrome/110.0.0.0 Safari/537.36","WebKit","Chrome","110.0.0.0","Windows","10.0","1171","<p>As the military commander, you could choose to launch a missile to kill <strong>7 enemy soldiers</strong> , but would accidentally kill <strong>1 enemy civilian</strong> nearby.</p> <p>The photo of the <strong>enemy civilian</strong> is shown below.</p> <p></p> <img src='stimuli/faces/NFM7.jpg', style='max-width: 30%;'> </img> <p><strong>Would you launch the weapon?</strong></p>","1",""
"","","","","","survey-multi-choice","131","255400","0.0-4.0","81","1","2023-06-03 00:23:26","a806436d73fb3c2fb9db1ebeb6e0a607","208.202.242.219","Mozilla/5.0 (Windows NT 10.0; Win64; x64) AppleWebKit/537.36 (KHTML, like Gecko) Chrome/110.0.0.0 Safari/537.36","WebKit","Chrome","110.0.0.0","Windows","10.0","15136","","{""Attention1"":""4 = Maybe worth it""}","[0]"
"","","","","","html-button-response","132","262087","0.0-5.0","81","1","2023-06-03 00:23:26","a806436d73fb3c2fb9db1ebeb6e0a607","208.202.242.219","Mozilla/5.0 (Windows NT 10.0; Win64; x64) AppleWebKit/537.36 (KHTML, like Gecko) Chrome/110.0.0.0 Safari/537.36","WebKit","Chrome","110.0.0.0","Windows","10.0","6681","<p style=""font-size:20px;font-weight:bold;"">Great!</p><p>You have finished the first part of the experiment!</p><p>Please relax a little bit and then contine to answer some questions regarding yourself.</p><p>The next part will take around 10 minutes to complete.</p>","0",""
"","","","","","survey-text","133","329441","0.0-6.0","81","1","2023-06-03 00:23:26","a806436d73fb3c2fb9db1ebeb6e0a607","208.202.242.219","Mozilla/5.0 (Windows NT 10.0; Win64; x64) AppleWebKit/537.36 (KHTML, like Gecko) Chrome/110.0.0.0 Safari/537.36","WebKit","Chrome","110.0.0.0","Windows","10.0","66344","","{""Age"":""25"",""Nation"":""American"",""Born"":""USA"",""Live"":""USA""}",""
"","","","","","survey-multi-choice","134","348177","0.0-7.0","81","1","2023-06-03 00:23:26","a806436d73fb3c2fb9db1ebeb6e0a607","208.202.242.219","Mozilla/5.0 (Windows NT 10.0; Win64; x64) AppleWebKit/537.36 (KHTML, like Gecko) Chrome/110.0.0.0 Safari/537.36","WebKit","Chrome","110.0.0.0","Windows","10.0","18726","","{""Gender"":""Female"",""Education"":""Bachelor's Degree"",""Income"":""$70,000 - $99,999"",""Children"":""1"",""Ethnicity"":""White""}","[0,1,2,3,4]"
"","","","","","survey-multi-select","135","354516","0.0-8.0","81","1","2023-06-03 00:23:26","a806436d73fb3c2fb9db1ebeb6e0a607","208.202.242.219","Mozilla/5.0 (Windows NT 10.0; Win64; x64) AppleWebKit/537.36 (KHTML, like Gecko) Chrome/110.0.0.0 Safari/537.36","WebKit","Chrome","110.0.0.0","Windows","10.0","6321","","{""Marriage"":[""Married""],""Religion"":[""Catholic""]}","[0,1]"
"","","","","","survey-multi-choice","136","364886","0.0-9.0","81","1","2023-06-03 00:23:26","a806436d73fb3c2fb9db1ebeb6e0a607","208.202.242.219","Mozilla/5.0 (Windows NT 10.0; Win64; x64) AppleWebKit/537.36 (KHTML, like Gecko) Chrome/110.0.0.0 Safari/537.36","WebKit","Chrome","110.0.0.0","Windows","10.0","10357","","{""SES"":""8""}","[0]"
"","","","","","html-button-response","137","367301","0.0-10.0","81","1","2023-06-03 00:23:26","a806436d73fb3c2fb9db1ebeb6e0a607","208.202.242.219","Mozilla/5.0 (Windows NT 10.0; Win64; x64) AppleWebKit/537.36 (KHTML, like Gecko) Chrome/110.0.0.0 Safari/537.36","WebKit","Chrome","110.0.0.0","Windows","10.0","2406","<p><strong>Please indicate the extent that the following statements could describe you.</p><p> (1 = ""extremely uncharacteristic of me"" to 5 = ""extremely characteristic of me"".)</strong></p>","0",""
"","","","","","survey-likert","138","434780","0.0-11.0","81","1","2023-06-03 00:23:26","a806436d73fb3c2fb9db1ebeb6e0a607","208.202.242.219","Mozilla/5.0 (Windows NT 10.0; Win64; x64) AppleWebKit/537.36 (KHTML, like Gecko) Chrome/110.0.0.0 Safari/537.36","WebKit","Chrome","110.0.0.0","Windows","10.0","67473","","{""Aggression1"":0,""Aggression2"":0,""Aggression3"":3,""Aggression4"":1,""Aggression5"":2,""Aggression6"":3,""Aggression7"":2,""Aggression8"":0,""Aggression9"":0}","[0,1,2,3,4,5,6,7,8]"
"","","","","","html-button-response","139","437220","0.0-12.0","81","1","2023-06-03 00:23:26","a806436d73fb3c2fb9db1ebeb6e0a607","208.202.242.219","Mozilla/5.0 (Windows NT 10.0; Win64; x64) AppleWebKit/537.36 (KHTML, like Gecko) Chrome/110.0.0.0 Safari/537.36","WebKit","Chrome","110.0.0.0","Windows","10.0","2431","<p><strong>Please indicate the extent that the following statements could describe you. </strong></p><p><strong> (1 = ""Does not describe me well"" to 5 = ""Does decribe me well"".)</strong></p>","0",""
"","","","","","survey-likert","140","605110","0.0-13.0","81","1","2023-06-03 00:23:26","a806436d73fb3c2fb9db1ebeb6e0a607","208.202.242.219","Mozilla/5.0 (Windows NT 10.0; Win64; x64) AppleWebKit/537.36 (KHTML, like Gecko) Chrome/110.0.0.0 Safari/537.36","WebKit","Chrome","110.0.0.0","Windows","10.0","167881","","{""pts7"":4,""pds3"":2,""pts1"":3,""fs4"":2,""pts2"":3,""pts6"":0,""ecs7"":2,""fs2"":2,""pds2"":3,""ecs3"":3,""ecs2"":0,""fs7"":3,""pds7"":2,""fs6"":3,""pts5"":3,""pds6"":3,""fs5"":2,""ecs4"":2,""fs3"":2,""ecs6"":3,""pds5"":3,""pts3"":2,""ecs5"":2,""pts4"":3,""pds1"":3,""fs1"":2,""ecs1"":2,""pds4"":1}","[27,12,2,11,7,24,21,4,9,8,3,25,26,22,20,23,15,13,6,19,18,10,17,14,5,0,1,16]"
"","","","","","html-button-response","141","606617","0.0-14.0","81","1","2023-06-03 00:23:26","a806436d73fb3c2fb9db1ebeb6e0a607","208.202.242.219","Mozilla/5.0 (Windows NT 10.0; Win64; x64) AppleWebKit/537.36 (KHTML, like Gecko) Chrome/110.0.0.0 Safari/537.36","WebKit","Chrome","110.0.0.0","Windows","10.0","1500","<p><strong>Which of the following objects or statements do you have a positive or negative feeling towards? </strong></p><p><strong> (1 = ""Very negative"" to 7 = ""Very positive"") </strong></p>","0",""
"","","","","","survey-likert","142","675082","0.0-15.0","81","1","2023-06-03 00:23:26","a806436d73fb3c2fb9db1ebeb6e0a607","208.202.242.219","Mozilla/5.0 (Windows NT 10.0; Win64; x64) AppleWebKit/537.36 (KHTML, like Gecko) Chrome/110.0.0.0 Safari/537.36","WebKit","Chrome","110.0.0.0","Windows","10.0","68457","","{""sdo16"":5,""sdo13"":5,""sdo4"":3,""sdo7"":4,""sdo11"":5,""sdo9"":5,""sdo12"":6,""sdo10"":5,""sdo15"":3,""sdo8"":4,""sdo3"":3,""sdo1"":3,""sdo5"":4,""sdo14"":3,""sdo6"":3,""sdo2"":4}","[15,12,3,6,10,8,11,9,14,7,2,0,4,13,5,1]"
"","","","","","html-button-response","143","676734","0.0-16.0","81","1","2023-06-03 00:23:26","a806436d73fb3c2fb9db1ebeb6e0a607","208.202.242.219","Mozilla/5.0 (Windows NT 10.0; Win64; x64) AppleWebKit/537.36 (KHTML, like Gecko) Chrome/110.0.0.0 Safari/537.36","WebKit","Chrome","110.0.0.0","Windows","10.0","1644","<p><strong>Please indicate the extent you agree with the following statements.</strong></p><strong><p> (1 = ""Strongly Disagree"" to 5 = ""Srongly Agree"") </strong></p>","0",""
"","","","","","survey-likert","144","766999","0.0-17.0","81","1","2023-06-03 00:23:26","a806436d73fb3c2fb9db1ebeb6e0a607","208.202.242.219","Mozilla/5.0 (Windows NT 10.0; Win64; x64) AppleWebKit/537.36 (KHTML, like Gecko) Chrome/110.0.0.0 Safari/537.36","WebKit","Chrome","110.0.0.0","Windows","10.0","90249","","{""caring1"":2,""liking1"":3,""caring2"":2,""protection1"":3,""liking2"":1,""caring3"":4,""protection2"":2,""liking3"":2,""protection3"":0,""caring4"":4,""liking4"":0,""protection4"":2,""caring5"":3,""liking5"":1,""protection5"":3}","[0,1,2,3,4,5,6,7,8,9,10,11,12,13,14]"
"","","","","","html-button-response","145","768948","0.0-18.0","81","1","2023-06-03 00:23:26","a806436d73fb3c2fb9db1ebeb6e0a607","208.202.242.219","Mozilla/5.0 (Windows NT 10.0; Win64; x64) AppleWebKit/537.36 (KHTML, like Gecko) Chrome/110.0.0.0 Safari/537.36","WebKit","Chrome","110.0.0.0","Windows","10.0","1941","<p><strong>Please imagine spercific situations involving children below, and rate the amount of tenderness you would feel in each situation. </strong></p><p><strong> (Ternderness is ""a warm, gentle feeling of sympathetic affection."") </strong></p><strong><p> (1 = ""No tenderness at all"" to 5 = ""A lot of tenderness"") </strong></p>","0",""
"","","","","","survey-likert","146","802360","0.0-19.0","81","1","2023-06-03 00:23:26","a806436d73fb3c2fb9db1ebeb6e0a607","208.202.242.219","Mozilla/5.0 (Windows NT 10.0; Win64; x64) AppleWebKit/537.36 (KHTML, like Gecko) Chrome/110.0.0.0 Safari/537.36","WebKit","Chrome","110.0.0.0","Windows","10.0","33406","","{""tenderness-positive1"":3,""tenderness-negative1"":2,""tenderness-negative2"":2,""tenderness-positive2"":3,""tenderness-positive3"":2,""tenderness-negative3"":3,""tenderness-positive4"":3,""tendereness-negative4"":1,""tendernness-negative5"":2,""tenderness-positive5"":2}","[0,1,2,3,4,5,6,7,8,9]"
"","","","","","survey-multi-choice","147","813805","0.0-20.0","81","1","2023-06-03 00:23:26","a806436d73fb3c2fb9db1ebeb6e0a607","208.202.242.219","Mozilla/5.0 (Windows NT 10.0; Win64; x64) AppleWebKit/537.36 (KHTML, like Gecko) Chrome/110.0.0.0 Safari/537.36","WebKit","Chrome","110.0.0.0","Windows","10.0","11431","","{""Attention2"":""Yearly""}","[0]"
"","","","","","html-button-response","148","815540","0.0-21.0","81","1","2023-06-03 00:23:26","a806436d73fb3c2fb9db1ebeb6e0a607","208.202.242.219","Mozilla/5.0 (Windows NT 10.0; Win64; x64) AppleWebKit/537.36 (KHTML, like Gecko) Chrome/110.0.0.0 Safari/537.36","WebKit","Chrome","110.0.0.0","Windows","10.0","1727","<p><strong>Please indicate the extent you agree with the following statements.</strong></p>","0",""
"","","","","","survey-likert","149","903238","0.0-22.0","81","1","2023-06-03 00:23:26","a806436d73fb3c2fb9db1ebeb6e0a607","208.202.242.219","Mozilla/5.0 (Windows NT 10.0; Win64; x64) AppleWebKit/537.36 (KHTML, like Gecko) Chrome/110.0.0.0 Safari/537.36","WebKit","Chrome","110.0.0.0","Windows","10.0","87684","","{""Patri5"":4,""Nation3"":2,""Nation6"":2,""Nation7"":2,""Nation5"":2,""Patri8"":3,""Patri1"":4,""Patri2"":4,""Patri9"":2,""Patri12"":2,""Nation1"":2,""Patri11"":2,""Nation8"":1,""Nation2"":2,""Nation4"":2,""Patri3"":2,""Patri4"":2,""Patri6"":3,""Patri7"":4,""Patri10"":2}","[4,14,17,18,16,7,0,1,8,11,12,10,19,13,15,2,3,5,6,9]"
"","","","","","html-button-response","150","905026","0.0-23.0","81","1","2023-06-03 00:23:26","a806436d73fb3c2fb9db1ebeb6e0a607","208.202.242.219","Mozilla/5.0 (Windows NT 10.0; Win64; x64) AppleWebKit/537.36 (KHTML, like Gecko) Chrome/110.0.0.0 Safari/537.36","WebKit","Chrome","110.0.0.0","Windows","10.0","1780","<p><strong>Please indicate the extent you agree with the following statements. </p><p>(1 = ""never or definitely no"" and 9 = ""always or definitely yes"".)</strong></p>","0",""
"","","","","","survey-likert","151","956140","0.0-24.0","81","1","2023-06-03 00:23:26","a806436d73fb3c2fb9db1ebeb6e0a607","208.202.242.219","Mozilla/5.0 (Windows NT 10.0; Win64; x64) AppleWebKit/537.36 (KHTML, like Gecko) Chrome/110.0.0.0 Safari/537.36","WebKit","Chrome","110.0.0.0","Windows","10.0","51107","","{""vi4"":4,""hi2"":3,""vc1"":6,""hc4"":6,""vi1"":7,""hi3"":7,""vc3"":4,""vc4"":4,""vi2"":7,""hc2"":4,""vc2"":4,""hc1"":5,""Robot2"":6,""hi4"":4,""vi3"":4,""hc3"":6,""hi1"":5}","[8,1,13,12,4,2,15,16,5,10,14,9,7,3,6,11,0]"
"","","","","","survey-text","152","971771","0.0-25.0","81","1","2023-06-03 00:23:26","a806436d73fb3c2fb9db1ebeb6e0a607","208.202.242.219","Mozilla/5.0 (Windows NT 10.0; Win64; x64) AppleWebKit/537.36 (KHTML, like Gecko) Chrome/110.0.0.0 Safari/537.36","WebKit","Chrome","110.0.0.0","Windows","10.0","15614","","{""ID"":""A2CARGPM00NDIU"",""Comments"":""Nice study""}",""
"","","","","","html-button-response","153","983519","0.0-26.0","81","1","2023-06-03 00:23:26","a806436d73fb3c2fb9db1ebeb6e0a607","208.202.242.219","Mozilla/5.0 (Windows NT 10.0; Win64; x64) AppleWebKit/537.36 (KHTML, like Gecko) Chrome/110.0.0.0 Safari/537.36","WebKit","Chrome","110.0.0.0","Windows","10.0","11742","<p><strong>Congratulations! </strong> Your have finished all the survey. Thank you for your participation!</p><p><strong>Here is your complete token:</strong></p>91wkt5f5ngvhxcz2fiytxt0c<p></p><p><strong>Please copy it to the mTurk page.</strong></p>","0",""
