"success","timeout","failed_images","failed_audio","failed_video","trial_type","trial_index","time_elapsed","internal_node_id","run_id","condition","recorded_at","source_code_version","ip","user_agent","device","browser","browser_version","platform","platform_version","rt","stimulus","response","question_order"
"true","false","[]","[]","[]","preload","0","625","0.0-0.0","105","1","2023-05-30 04:53:19","c5e7288ef5abdde20c6cfc36967cae27","69.76.44.159","Mozilla/5.0 (X11; CrOS x86_64 14541.0.0) AppleWebKit/537.36 (KHTML, like Gecko) Chrome/113.0.0.0 Safari/537.36","WebKit","Chrome","113.0.0.0","ChromeOS","14541.0.0","","","",""
"true","","","","","fullscreen","1","5540","0.0-1.0","105","1","2023-05-30 04:53:19","c5e7288ef5abdde20c6cfc36967cae27","69.76.44.159","Mozilla/5.0 (X11; CrOS x86_64 14541.0.0) AppleWebKit/537.36 (KHTML, like Gecko) Chrome/113.0.0.0 Safari/537.36","WebKit","Chrome","113.0.0.0","ChromeOS","14541.0.0","","","",""
"","","","","","html-button-response","2","20427","0.0-2.0","105","1","2023-05-30 04:53:19","c5e7288ef5abdde20c6cfc36967cae27","69.76.44.159","Mozilla/5.0 (X11; CrOS x86_64 14541.0.0) AppleWebKit/537.36 (KHTML, like Gecko) Chrome/113.0.0.0 Safari/537.36","WebKit","Chrome","113.0.0.0","ChromeOS","14541.0.0","14884","<p ><strong>Welcome to the experiment!</strong></p><p ><strong>In the first task, please imagine:</strong></p><p>Your country is involved in a military conflict with another country.</p><p>You are the commander of your army and must make decisions in the conflict.</p><p>Specifically, as the military commander, you must decide whether to launch a missile to strike enemy.</p><p>You will face a series of scenarios. Please read each scenario carefully and make a decision.</p><p>The task will take around 10 minutes to complete.</p><p><strong>Please pay your attention during the experiment.</strong></p>","0",""
"","","","","","html-keyboard-response","3","21429","0.0-3.0-0.0","105","1","2023-05-30 04:53:19","c5e7288ef5abdde20c6cfc36967cae27","69.76.44.159","Mozilla/5.0 (X11; CrOS x86_64 14541.0.0) AppleWebKit/537.36 (KHTML, like Gecko) Chrome/113.0.0.0 Safari/537.36","WebKit","Chrome","113.0.0.0","ChromeOS","14541.0.0","null","<div style=""font-size:60px;"">+</div>","null",""
"","","","","","html-button-response","4","32554","0.0-3.0-1.0","105","1","2023-05-30 04:53:19","c5e7288ef5abdde20c6cfc36967cae27","69.76.44.159","Mozilla/5.0 (X11; CrOS x86_64 14541.0.0) AppleWebKit/537.36 (KHTML, like Gecko) Chrome/113.0.0.0 Safari/537.36","WebKit","Chrome","113.0.0.0","ChromeOS","14541.0.0","11123","<p>As the military commander, you could choose to launch a missile to kill <strong>4 enemy soldiers</strong> , but would accidentally kill <strong>1 enemy civilian</strong> nearby.</p> <p>The photo of the <strong>enemy civilian</strong> is shown below.</p> <p></p> <img src='stimuli/faces/NCM1.jpg', style='max-width: 30%;'> </img> <p><strong>Would you launch the weapon?</strong></p>","1",""
"","","","","","html-keyboard-response","5","33557","0.0-3.0-0.1","105","1","2023-05-30 04:53:19","c5e7288ef5abdde20c6cfc36967cae27","69.76.44.159","Mozilla/5.0 (X11; CrOS x86_64 14541.0.0) AppleWebKit/537.36 (KHTML, like Gecko) Chrome/113.0.0.0 Safari/537.36","WebKit","Chrome","113.0.0.0","ChromeOS","14541.0.0","null","<div style=""font-size:60px;"">+</div>","null",""
"","","","","","html-button-response","6","36770","0.0-3.0-1.1","105","1","2023-05-30 04:53:19","c5e7288ef5abdde20c6cfc36967cae27","69.76.44.159","Mozilla/5.0 (X11; CrOS x86_64 14541.0.0) AppleWebKit/537.36 (KHTML, like Gecko) Chrome/113.0.0.0 Safari/537.36","WebKit","Chrome","113.0.0.0","ChromeOS","14541.0.0","3211","<p>As the military commander, you could choose to launch a missile to kill <strong>3 enemy soldiers</strong> , but would accidentally kill <strong>1 enemy civilian</strong> nearby.</p> <p>The photo of the <strong>enemy civilian</strong> is shown below.</p> <p></p> <img src='stimuli/faces/NCF3.jpg', style='max-width: 30%;'> </img> <p><strong>Would you launch the weapon?</strong></p>","1",""
"","","","","","html-keyboard-response","7","37773","0.0-3.0-0.2","105","1","2023-05-30 04:53:19","c5e7288ef5abdde20c6cfc36967cae27","69.76.44.159","Mozilla/5.0 (X11; CrOS x86_64 14541.0.0) AppleWebKit/537.36 (KHTML, like Gecko) Chrome/113.0.0.0 Safari/537.36","WebKit","Chrome","113.0.0.0","ChromeOS","14541.0.0","null","<div style=""font-size:60px;"">+</div>","null",""
"","","","","","html-button-response","8","43076","0.0-3.0-1.2","105","1","2023-05-30 04:53:19","c5e7288ef5abdde20c6cfc36967cae27","69.76.44.159","Mozilla/5.0 (X11; CrOS x86_64 14541.0.0) AppleWebKit/537.36 (KHTML, like Gecko) Chrome/113.0.0.0 Safari/537.36","WebKit","Chrome","113.0.0.0","ChromeOS","14541.0.0","5301","<p>As the military commander, you could choose to launch a missile to kill <strong>8 enemy soldiers</strong> , but would accidentally kill <strong>1 enemy civilian</strong> nearby.</p> <p>The photo of the <strong>enemy civilian</strong> is shown below.</p> <p></p> <img src='stimuli/faces/NCF1.jpg', style='max-width: 30%;'> </img> <p><strong>Would you launch the weapon?</strong></p>","1",""
"","","","","","html-keyboard-response","9","44085","0.0-3.0-0.3","105","1","2023-05-30 04:53:19","c5e7288ef5abdde20c6cfc36967cae27","69.76.44.159","Mozilla/5.0 (X11; CrOS x86_64 14541.0.0) AppleWebKit/537.36 (KHTML, like Gecko) Chrome/113.0.0.0 Safari/537.36","WebKit","Chrome","113.0.0.0","ChromeOS","14541.0.0","null","<div style=""font-size:60px;"">+</div>","null",""
"","","","","","html-button-response","10","50850","0.0-3.0-1.3","105","1","2023-05-30 04:53:19","c5e7288ef5abdde20c6cfc36967cae27","69.76.44.159","Mozilla/5.0 (X11; CrOS x86_64 14541.0.0) AppleWebKit/537.36 (KHTML, like Gecko) Chrome/113.0.0.0 Safari/537.36","WebKit","Chrome","113.0.0.0","ChromeOS","14541.0.0","6762","<p>As the military commander, you could choose to launch a missile to kill <strong>5 enemy soldiers</strong> , but would accidentally kill <strong>1 enemy civilian</strong> nearby.</p> <p>The photo of the <strong>enemy civilian</strong> is shown below.</p> <p></p> <img src='stimuli/faces/NCM8.jpg', style='max-width: 30%;'> </img> <p><strong>Would you launch the weapon?</strong></p>","1",""
"","","","","","html-keyboard-response","11","51853","0.0-3.0-0.4","105","1","2023-05-30 04:53:19","c5e7288ef5abdde20c6cfc36967cae27","69.76.44.159","Mozilla/5.0 (X11; CrOS x86_64 14541.0.0) AppleWebKit/537.36 (KHTML, like Gecko) Chrome/113.0.0.0 Safari/537.36","WebKit","Chrome","113.0.0.0","ChromeOS","14541.0.0","null","<div style=""font-size:60px;"">+</div>","null",""
"","","","","","html-button-response","12","56644","0.0-3.0-1.4","105","1","2023-05-30 04:53:19","c5e7288ef5abdde20c6cfc36967cae27","69.76.44.159","Mozilla/5.0 (X11; CrOS x86_64 14541.0.0) AppleWebKit/537.36 (KHTML, like Gecko) Chrome/113.0.0.0 Safari/537.36","WebKit","Chrome","113.0.0.0","ChromeOS","14541.0.0","4789","<p>As the military commander, you could choose to launch a missile to kill <strong>10 enemy soldiers</strong> , but would accidentally kill <strong>1 enemy civilian</strong> nearby.</p> <p>The photo of the <strong>enemy civilian</strong> is shown below.</p> <p></p> <img src='stimuli/faces/NCM6.jpg', style='max-width: 30%;'> </img> <p><strong>Would you launch the weapon?</strong></p>","1",""
"","","","","","html-keyboard-response","13","57653","0.0-3.0-0.5","105","1","2023-05-30 04:53:19","c5e7288ef5abdde20c6cfc36967cae27","69.76.44.159","Mozilla/5.0 (X11; CrOS x86_64 14541.0.0) AppleWebKit/537.36 (KHTML, like Gecko) Chrome/113.0.0.0 Safari/537.36","WebKit","Chrome","113.0.0.0","ChromeOS","14541.0.0","null","<div style=""font-size:60px;"">+</div>","null",""
"","","","","","html-button-response","14","76018","0.0-3.0-1.5","105","1","2023-05-30 04:53:19","c5e7288ef5abdde20c6cfc36967cae27","69.76.44.159","Mozilla/5.0 (X11; CrOS x86_64 14541.0.0) AppleWebKit/537.36 (KHTML, like Gecko) Chrome/113.0.0.0 Safari/537.36","WebKit","Chrome","113.0.0.0","ChromeOS","14541.0.0","18362","<p>As the military commander, you could choose to launch a missile to kill <strong>8 enemy soldiers</strong> , but would accidentally kill <strong>1 enemy tree</strong> nearby.</p> <p>The photo of the <strong>enemy tree</strong> is shown below.</p> <p></p> <img src='stimuli/tree/11.png', style='max-width: 30%;'> </img> <p><strong>Would you launch the weapon?</strong></p>","0",""
"","","","","","html-keyboard-response","15","77020","0.0-3.0-0.6","105","1","2023-05-30 04:53:19","c5e7288ef5abdde20c6cfc36967cae27","69.76.44.159","Mozilla/5.0 (X11; CrOS x86_64 14541.0.0) AppleWebKit/537.36 (KHTML, like Gecko) Chrome/113.0.0.0 Safari/537.36","WebKit","Chrome","113.0.0.0","ChromeOS","14541.0.0","null","<div style=""font-size:60px;"">+</div>","null",""
"","","","","","html-button-response","16","79682","0.0-3.0-1.6","105","1","2023-05-30 04:53:19","c5e7288ef5abdde20c6cfc36967cae27","69.76.44.159","Mozilla/5.0 (X11; CrOS x86_64 14541.0.0) AppleWebKit/537.36 (KHTML, like Gecko) Chrome/113.0.0.0 Safari/537.36","WebKit","Chrome","113.0.0.0","ChromeOS","14541.0.0","2659","<p>As the military commander, you could choose to launch a missile to kill <strong>1 enemy soldier</strong> , but would accidentally kill <strong>1 enemy civilian</strong> nearby.</p> <p>The photo of the <strong>enemy civilian</strong> is shown below.</p> <p></p> <img src='stimuli/faces/NCM7.jpg', style='max-width: 30%;'> </img> <p><strong>Would you launch the weapon?</strong></p>","1",""
"","","","","","html-keyboard-response","17","80685","0.0-3.0-0.7","105","1","2023-05-30 04:53:19","c5e7288ef5abdde20c6cfc36967cae27","69.76.44.159","Mozilla/5.0 (X11; CrOS x86_64 14541.0.0) AppleWebKit/537.36 (KHTML, like Gecko) Chrome/113.0.0.0 Safari/537.36","WebKit","Chrome","113.0.0.0","ChromeOS","14541.0.0","null","<div style=""font-size:60px;"">+</div>","null",""
"","","","","","html-button-response","18","82054","0.0-3.0-1.7","105","1","2023-05-30 04:53:19","c5e7288ef5abdde20c6cfc36967cae27","69.76.44.159","Mozilla/5.0 (X11; CrOS x86_64 14541.0.0) AppleWebKit/537.36 (KHTML, like Gecko) Chrome/113.0.0.0 Safari/537.36","WebKit","Chrome","113.0.0.0","ChromeOS","14541.0.0","1366","<p>As the military commander, you could choose to launch a missile to kill <strong>4 enemy soldiers</strong> , but would accidentally kill <strong>1 enemy civilian</strong> nearby.</p> <p>The photo of the <strong>enemy civilian</strong> is shown below.</p> <p></p> <img src='stimuli/faces/NCF7.jpg', style='max-width: 30%;'> </img> <p><strong>Would you launch the weapon?</strong></p>","1",""
"","","","","","html-keyboard-response","19","83060","0.0-3.0-0.8","105","1","2023-05-30 04:53:19","c5e7288ef5abdde20c6cfc36967cae27","69.76.44.159","Mozilla/5.0 (X11; CrOS x86_64 14541.0.0) AppleWebKit/537.36 (KHTML, like Gecko) Chrome/113.0.0.0 Safari/537.36","WebKit","Chrome","113.0.0.0","ChromeOS","14541.0.0","null","<div style=""font-size:60px;"">+</div>","null",""
"","","","","","html-button-response","20","109654","0.0-3.0-1.8","105","1","2023-05-30 04:53:19","c5e7288ef5abdde20c6cfc36967cae27","69.76.44.159","Mozilla/5.0 (X11; CrOS x86_64 14541.0.0) AppleWebKit/537.36 (KHTML, like Gecko) Chrome/113.0.0.0 Safari/537.36","WebKit","Chrome","113.0.0.0","ChromeOS","14541.0.0","26591","<p>As the military commander, you could choose to launch a missile to kill <strong>5 enemy soldiers</strong> , but would accidentally kill <strong>1 enemy tree</strong> nearby.</p> <p>The photo of the <strong>enemy tree</strong> is shown below.</p> <p></p> <img src='stimuli/tree/1.png', style='max-width: 30%;'> </img> <p><strong>Would you launch the weapon?</strong></p>","0",""
"","","","","","html-keyboard-response","21","110661","0.0-3.0-0.9","105","1","2023-05-30 04:53:19","c5e7288ef5abdde20c6cfc36967cae27","69.76.44.159","Mozilla/5.0 (X11; CrOS x86_64 14541.0.0) AppleWebKit/537.36 (KHTML, like Gecko) Chrome/113.0.0.0 Safari/537.36","WebKit","Chrome","113.0.0.0","ChromeOS","14541.0.0","null","<div style=""font-size:60px;"">+</div>","null",""
"","","","","","html-button-response","22","113858","0.0-3.0-1.9","105","1","2023-05-30 04:53:19","c5e7288ef5abdde20c6cfc36967cae27","69.76.44.159","Mozilla/5.0 (X11; CrOS x86_64 14541.0.0) AppleWebKit/537.36 (KHTML, like Gecko) Chrome/113.0.0.0 Safari/537.36","WebKit","Chrome","113.0.0.0","ChromeOS","14541.0.0","3194","<p>As the military commander, you could choose to launch a missile to kill <strong>9 enemy soldiers</strong> , but would accidentally kill <strong>1 enemy tree</strong> nearby.</p> <p>The photo of the <strong>enemy tree</strong> is shown below.</p> <p></p> <img src='stimuli/tree/9.png', style='max-width: 30%;'> </img> <p><strong>Would you launch the weapon?</strong></p>","0",""
"","","","","","html-keyboard-response","23","114861","0.0-3.0-0.10","105","1","2023-05-30 04:53:19","c5e7288ef5abdde20c6cfc36967cae27","69.76.44.159","Mozilla/5.0 (X11; CrOS x86_64 14541.0.0) AppleWebKit/537.36 (KHTML, like Gecko) Chrome/113.0.0.0 Safari/537.36","WebKit","Chrome","113.0.0.0","ChromeOS","14541.0.0","null","<div style=""font-size:60px;"">+</div>","null",""
"","","","","","html-button-response","24","116662","0.0-3.0-1.10","105","1","2023-05-30 04:53:19","c5e7288ef5abdde20c6cfc36967cae27","69.76.44.159","Mozilla/5.0 (X11; CrOS x86_64 14541.0.0) AppleWebKit/537.36 (KHTML, like Gecko) Chrome/113.0.0.0 Safari/537.36","WebKit","Chrome","113.0.0.0","ChromeOS","14541.0.0","1798","<p>As the military commander, you could choose to launch a missile to kill <strong>7 enemy soldiers</strong> , but would accidentally kill <strong>1 enemy tree</strong> nearby.</p> <p>The photo of the <strong>enemy tree</strong> is shown below.</p> <p></p> <img src='stimuli/tree/3.png', style='max-width: 30%;'> </img> <p><strong>Would you launch the weapon?</strong></p>","0",""
"","","","","","html-keyboard-response","25","117669","0.0-3.0-0.11","105","1","2023-05-30 04:53:19","c5e7288ef5abdde20c6cfc36967cae27","69.76.44.159","Mozilla/5.0 (X11; CrOS x86_64 14541.0.0) AppleWebKit/537.36 (KHTML, like Gecko) Chrome/113.0.0.0 Safari/537.36","WebKit","Chrome","113.0.0.0","ChromeOS","14541.0.0","null","<div style=""font-size:60px;"">+</div>","null",""
"","","","","","html-button-response","26","119256","0.0-3.0-1.11","105","1","2023-05-30 04:53:19","c5e7288ef5abdde20c6cfc36967cae27","69.76.44.159","Mozilla/5.0 (X11; CrOS x86_64 14541.0.0) AppleWebKit/537.36 (KHTML, like Gecko) Chrome/113.0.0.0 Safari/537.36","WebKit","Chrome","113.0.0.0","ChromeOS","14541.0.0","1585","<p>As the military commander, you could choose to launch a missile to kill <strong>7 enemy soldiers</strong> , but would accidentally kill <strong>1 enemy tree</strong> nearby.</p> <p>The photo of the <strong>enemy tree</strong> is shown below.</p> <p></p> <img src='stimuli/tree/13.png', style='max-width: 30%;'> </img> <p><strong>Would you launch the weapon?</strong></p>","0",""
"","","","","","html-keyboard-response","27","120261","0.0-3.0-0.12","105","1","2023-05-30 04:53:19","c5e7288ef5abdde20c6cfc36967cae27","69.76.44.159","Mozilla/5.0 (X11; CrOS x86_64 14541.0.0) AppleWebKit/537.36 (KHTML, like Gecko) Chrome/113.0.0.0 Safari/537.36","WebKit","Chrome","113.0.0.0","ChromeOS","14541.0.0","null","<div style=""font-size:60px;"">+</div>","null",""
"","","","","","html-button-response","28","121778","0.0-3.0-1.12","105","1","2023-05-30 04:53:19","c5e7288ef5abdde20c6cfc36967cae27","69.76.44.159","Mozilla/5.0 (X11; CrOS x86_64 14541.0.0) AppleWebKit/537.36 (KHTML, like Gecko) Chrome/113.0.0.0 Safari/537.36","WebKit","Chrome","113.0.0.0","ChromeOS","14541.0.0","1514","<p>As the military commander, you could choose to launch a missile to kill <strong>6 enemy soldiers</strong> , but would accidentally kill <strong>1 enemy tree</strong> nearby.</p> <p>The photo of the <strong>enemy tree</strong> is shown below.</p> <p></p> <img src='stimuli/tree/2.png', style='max-width: 30%;'> </img> <p><strong>Would you launch the weapon?</strong></p>","0",""
"","","","","","html-keyboard-response","29","122781","0.0-3.0-0.13","105","1","2023-05-30 04:53:19","c5e7288ef5abdde20c6cfc36967cae27","69.76.44.159","Mozilla/5.0 (X11; CrOS x86_64 14541.0.0) AppleWebKit/537.36 (KHTML, like Gecko) Chrome/113.0.0.0 Safari/537.36","WebKit","Chrome","113.0.0.0","ChromeOS","14541.0.0","null","<div style=""font-size:60px;"">+</div>","null",""
"","","","","","html-button-response","30","132136","0.0-3.0-1.13","105","1","2023-05-30 04:53:19","c5e7288ef5abdde20c6cfc36967cae27","69.76.44.159","Mozilla/5.0 (X11; CrOS x86_64 14541.0.0) AppleWebKit/537.36 (KHTML, like Gecko) Chrome/113.0.0.0 Safari/537.36","WebKit","Chrome","113.0.0.0","ChromeOS","14541.0.0","9353","<p>As the military commander, you could choose to launch a missile to kill <strong>6 enemy soldiers</strong> , but would accidentally kill <strong>1 enemy civilian</strong> nearby.</p> <p>The photo of the <strong>enemy civilian</strong> is shown below.</p> <p></p> <img src='stimuli/faces/NCM1.jpg', style='max-width: 30%;'> </img> <p><strong>Would you launch the weapon?</strong></p>","0",""
"","","","","","html-keyboard-response","31","133141","0.0-3.0-0.14","105","1","2023-05-30 04:53:19","c5e7288ef5abdde20c6cfc36967cae27","69.76.44.159","Mozilla/5.0 (X11; CrOS x86_64 14541.0.0) AppleWebKit/537.36 (KHTML, like Gecko) Chrome/113.0.0.0 Safari/537.36","WebKit","Chrome","113.0.0.0","ChromeOS","14541.0.0","null","<div style=""font-size:60px;"">+</div>","null",""
"","","","","","html-button-response","32","135532","0.0-3.0-1.14","105","1","2023-05-30 04:53:19","c5e7288ef5abdde20c6cfc36967cae27","69.76.44.159","Mozilla/5.0 (X11; CrOS x86_64 14541.0.0) AppleWebKit/537.36 (KHTML, like Gecko) Chrome/113.0.0.0 Safari/537.36","WebKit","Chrome","113.0.0.0","ChromeOS","14541.0.0","2388","<p>As the military commander, you could choose to launch a missile to kill <strong>6 enemy soldiers</strong> , but would accidentally kill <strong>1 enemy tree</strong> nearby.</p> <p>The photo of the <strong>enemy tree</strong> is shown below.</p> <p></p> <img src='stimuli/tree/1.png', style='max-width: 30%;'> </img> <p><strong>Would you launch the weapon?</strong></p>","0",""
"","","","","","html-keyboard-response","33","136541","0.0-3.0-0.15","105","1","2023-05-30 04:53:19","c5e7288ef5abdde20c6cfc36967cae27","69.76.44.159","Mozilla/5.0 (X11; CrOS x86_64 14541.0.0) AppleWebKit/537.36 (KHTML, like Gecko) Chrome/113.0.0.0 Safari/537.36","WebKit","Chrome","113.0.0.0","ChromeOS","14541.0.0","null","<div style=""font-size:60px;"">+</div>","null",""
"","","","","","html-button-response","34","148700","0.0-3.0-1.15","105","1","2023-05-30 04:53:19","c5e7288ef5abdde20c6cfc36967cae27","69.76.44.159","Mozilla/5.0 (X11; CrOS x86_64 14541.0.0) AppleWebKit/537.36 (KHTML, like Gecko) Chrome/113.0.0.0 Safari/537.36","WebKit","Chrome","113.0.0.0","ChromeOS","14541.0.0","12157","<p>As the military commander, you could choose to launch a missile to kill <strong>9 enemy soldiers</strong> , but would accidentally kill <strong>1 enemy civilian</strong> nearby.</p> <p>The photo of the <strong>enemy civilian</strong> is shown below.</p> <p></p> <img src='stimuli/faces/NCF8.jpg', style='max-width: 30%;'> </img> <p><strong>Would you launch the weapon?</strong></p>","0",""
"","","","","","html-keyboard-response","35","149709","0.0-3.0-0.16","105","1","2023-05-30 04:53:19","c5e7288ef5abdde20c6cfc36967cae27","69.76.44.159","Mozilla/5.0 (X11; CrOS x86_64 14541.0.0) AppleWebKit/537.36 (KHTML, like Gecko) Chrome/113.0.0.0 Safari/537.36","WebKit","Chrome","113.0.0.0","ChromeOS","14541.0.0","null","<div style=""font-size:60px;"">+</div>","null",""
"","","","","","html-button-response","36","152962","0.0-3.0-1.16","105","1","2023-05-30 04:53:19","c5e7288ef5abdde20c6cfc36967cae27","69.76.44.159","Mozilla/5.0 (X11; CrOS x86_64 14541.0.0) AppleWebKit/537.36 (KHTML, like Gecko) Chrome/113.0.0.0 Safari/537.36","WebKit","Chrome","113.0.0.0","ChromeOS","14541.0.0","3250","<p>As the military commander, you could choose to launch a missile to kill <strong>1 enemy soldier</strong> , but would accidentally kill <strong>1 enemy tree</strong> nearby.</p> <p>The photo of the <strong>enemy tree</strong> is shown below.</p> <p></p> <img src='stimuli/tree/16.png', style='max-width: 30%;'> </img> <p><strong>Would you launch the weapon?</strong></p>","0",""
"","","","","","html-keyboard-response","37","153972","0.0-3.0-0.17","105","1","2023-05-30 04:53:19","c5e7288ef5abdde20c6cfc36967cae27","69.76.44.159","Mozilla/5.0 (X11; CrOS x86_64 14541.0.0) AppleWebKit/537.36 (KHTML, like Gecko) Chrome/113.0.0.0 Safari/537.36","WebKit","Chrome","113.0.0.0","ChromeOS","14541.0.0","null","<div style=""font-size:60px;"">+</div>","null",""
"","","","","","html-button-response","38","158278","0.0-3.0-1.17","105","1","2023-05-30 04:53:19","c5e7288ef5abdde20c6cfc36967cae27","69.76.44.159","Mozilla/5.0 (X11; CrOS x86_64 14541.0.0) AppleWebKit/537.36 (KHTML, like Gecko) Chrome/113.0.0.0 Safari/537.36","WebKit","Chrome","113.0.0.0","ChromeOS","14541.0.0","4303","<p>As the military commander, you could choose to launch a missile to kill <strong>7 enemy soldiers</strong> , but would accidentally kill <strong>1 enemy civilian</strong> nearby.</p> <p>The photo of the <strong>enemy civilian</strong> is shown below.</p> <p></p> <img src='stimuli/faces/NCF2.jpg', style='max-width: 30%;'> </img> <p><strong>Would you launch the weapon?</strong></p>","1",""
"","","","","","html-keyboard-response","39","159285","0.0-3.0-0.18","105","1","2023-05-30 04:53:19","c5e7288ef5abdde20c6cfc36967cae27","69.76.44.159","Mozilla/5.0 (X11; CrOS x86_64 14541.0.0) AppleWebKit/537.36 (KHTML, like Gecko) Chrome/113.0.0.0 Safari/537.36","WebKit","Chrome","113.0.0.0","ChromeOS","14541.0.0","null","<div style=""font-size:60px;"">+</div>","null",""
"","","","","","html-button-response","40","160993","0.0-3.0-1.18","105","1","2023-05-30 04:53:19","c5e7288ef5abdde20c6cfc36967cae27","69.76.44.159","Mozilla/5.0 (X11; CrOS x86_64 14541.0.0) AppleWebKit/537.36 (KHTML, like Gecko) Chrome/113.0.0.0 Safari/537.36","WebKit","Chrome","113.0.0.0","ChromeOS","14541.0.0","1704","<p>As the military commander, you could choose to launch a missile to kill <strong>6 enemy soldiers</strong> , but would accidentally kill <strong>1 enemy tree</strong> nearby.</p> <p>The photo of the <strong>enemy tree</strong> is shown below.</p> <p></p> <img src='stimuli/tree/10.png', style='max-width: 30%;'> </img> <p><strong>Would you launch the weapon?</strong></p>","0",""
"","","","","","html-keyboard-response","41","161997","0.0-3.0-0.19","105","1","2023-05-30 04:53:19","c5e7288ef5abdde20c6cfc36967cae27","69.76.44.159","Mozilla/5.0 (X11; CrOS x86_64 14541.0.0) AppleWebKit/537.36 (KHTML, like Gecko) Chrome/113.0.0.0 Safari/537.36","WebKit","Chrome","113.0.0.0","ChromeOS","14541.0.0","null","<div style=""font-size:60px;"">+</div>","null",""
"","","","","","html-button-response","42","163229","0.0-3.0-1.19","105","1","2023-05-30 04:53:19","c5e7288ef5abdde20c6cfc36967cae27","69.76.44.159","Mozilla/5.0 (X11; CrOS x86_64 14541.0.0) AppleWebKit/537.36 (KHTML, like Gecko) Chrome/113.0.0.0 Safari/537.36","WebKit","Chrome","113.0.0.0","ChromeOS","14541.0.0","1228","<p>As the military commander, you could choose to launch a missile to kill <strong>3 enemy soldiers</strong> , but would accidentally kill <strong>1 enemy tree</strong> nearby.</p> <p>The photo of the <strong>enemy tree</strong> is shown below.</p> <p></p> <img src='stimuli/tree/9.png', style='max-width: 30%;'> </img> <p><strong>Would you launch the weapon?</strong></p>","0",""
"","","","","","html-keyboard-response","43","164237","0.0-3.0-0.20","105","1","2023-05-30 04:53:19","c5e7288ef5abdde20c6cfc36967cae27","69.76.44.159","Mozilla/5.0 (X11; CrOS x86_64 14541.0.0) AppleWebKit/537.36 (KHTML, like Gecko) Chrome/113.0.0.0 Safari/537.36","WebKit","Chrome","113.0.0.0","ChromeOS","14541.0.0","null","<div style=""font-size:60px;"">+</div>","null",""
"","","","","","html-button-response","44","188352","0.0-3.0-1.20","105","1","2023-05-30 04:53:19","c5e7288ef5abdde20c6cfc36967cae27","69.76.44.159","Mozilla/5.0 (X11; CrOS x86_64 14541.0.0) AppleWebKit/537.36 (KHTML, like Gecko) Chrome/113.0.0.0 Safari/537.36","WebKit","Chrome","113.0.0.0","ChromeOS","14541.0.0","24113","<p>As the military commander, you could choose to launch a missile to kill <strong>1 enemy soldier</strong> , but would accidentally kill <strong>1 enemy tree</strong> nearby.</p> <p>The photo of the <strong>enemy tree</strong> is shown below.</p> <p></p> <img src='stimuli/tree/7.png', style='max-width: 30%;'> </img> <p><strong>Would you launch the weapon?</strong></p>","0",""
"","","","","","html-keyboard-response","45","189357","0.0-3.0-0.21","105","1","2023-05-30 04:53:19","c5e7288ef5abdde20c6cfc36967cae27","69.76.44.159","Mozilla/5.0 (X11; CrOS x86_64 14541.0.0) AppleWebKit/537.36 (KHTML, like Gecko) Chrome/113.0.0.0 Safari/537.36","WebKit","Chrome","113.0.0.0","ChromeOS","14541.0.0","null","<div style=""font-size:60px;"">+</div>","null",""
"","","","","","html-button-response","46","192932","0.0-3.0-1.21","105","1","2023-05-30 04:53:19","c5e7288ef5abdde20c6cfc36967cae27","69.76.44.159","Mozilla/5.0 (X11; CrOS x86_64 14541.0.0) AppleWebKit/537.36 (KHTML, like Gecko) Chrome/113.0.0.0 Safari/537.36","WebKit","Chrome","113.0.0.0","ChromeOS","14541.0.0","3572","<p>As the military commander, you could choose to launch a missile to kill <strong>9 enemy soldiers</strong> , but would accidentally kill <strong>1 enemy civilian</strong> nearby.</p> <p>The photo of the <strong>enemy civilian</strong> is shown below.</p> <p></p> <img src='stimuli/faces/NCM2.jpg', style='max-width: 30%;'> </img> <p><strong>Would you launch the weapon?</strong></p>","0",""
"","","","","","html-keyboard-response","47","193941","0.0-3.0-0.22","105","1","2023-05-30 04:53:19","c5e7288ef5abdde20c6cfc36967cae27","69.76.44.159","Mozilla/5.0 (X11; CrOS x86_64 14541.0.0) AppleWebKit/537.36 (KHTML, like Gecko) Chrome/113.0.0.0 Safari/537.36","WebKit","Chrome","113.0.0.0","ChromeOS","14541.0.0","null","<div style=""font-size:60px;"">+</div>","null",""
"","","","","","html-button-response","48","203250","0.0-3.0-1.22","105","1","2023-05-30 04:53:19","c5e7288ef5abdde20c6cfc36967cae27","69.76.44.159","Mozilla/5.0 (X11; CrOS x86_64 14541.0.0) AppleWebKit/537.36 (KHTML, like Gecko) Chrome/113.0.0.0 Safari/537.36","WebKit","Chrome","113.0.0.0","ChromeOS","14541.0.0","9306","<p>As the military commander, you could choose to launch a missile to kill <strong>5 enemy soldiers</strong> , but would accidentally kill <strong>1 enemy tree</strong> nearby.</p> <p>The photo of the <strong>enemy tree</strong> is shown below.</p> <p></p> <img src='stimuli/tree/3.png', style='max-width: 30%;'> </img> <p><strong>Would you launch the weapon?</strong></p>","0",""
"","","","","","html-keyboard-response","49","204253","0.0-3.0-0.23","105","1","2023-05-30 04:53:19","c5e7288ef5abdde20c6cfc36967cae27","69.76.44.159","Mozilla/5.0 (X11; CrOS x86_64 14541.0.0) AppleWebKit/537.36 (KHTML, like Gecko) Chrome/113.0.0.0 Safari/537.36","WebKit","Chrome","113.0.0.0","ChromeOS","14541.0.0","null","<div style=""font-size:60px;"">+</div>","null",""
"","","","","","html-button-response","50","210917","0.0-3.0-1.23","105","1","2023-05-30 04:53:19","c5e7288ef5abdde20c6cfc36967cae27","69.76.44.159","Mozilla/5.0 (X11; CrOS x86_64 14541.0.0) AppleWebKit/537.36 (KHTML, like Gecko) Chrome/113.0.0.0 Safari/537.36","WebKit","Chrome","113.0.0.0","ChromeOS","14541.0.0","6659","<p>As the military commander, you could choose to launch a missile to kill <strong>10 enemy soldiers</strong> , but would accidentally kill <strong>1 enemy civilian</strong> nearby.</p> <p>The photo of the <strong>enemy civilian</strong> is shown below.</p> <p></p> <img src='stimuli/faces/NCM4.jpg', style='max-width: 30%;'> </img> <p><strong>Would you launch the weapon?</strong></p>","0",""
"","","","","","html-keyboard-response","51","211924","0.0-3.0-0.24","105","1","2023-05-30 04:53:19","c5e7288ef5abdde20c6cfc36967cae27","69.76.44.159","Mozilla/5.0 (X11; CrOS x86_64 14541.0.0) AppleWebKit/537.36 (KHTML, like Gecko) Chrome/113.0.0.0 Safari/537.36","WebKit","Chrome","113.0.0.0","ChromeOS","14541.0.0","null","<div style=""font-size:60px;"">+</div>","null",""
"","","","","","html-button-response","52","213246","0.0-3.0-1.24","105","1","2023-05-30 04:53:19","c5e7288ef5abdde20c6cfc36967cae27","69.76.44.159","Mozilla/5.0 (X11; CrOS x86_64 14541.0.0) AppleWebKit/537.36 (KHTML, like Gecko) Chrome/113.0.0.0 Safari/537.36","WebKit","Chrome","113.0.0.0","ChromeOS","14541.0.0","1318","<p>As the military commander, you could choose to launch a missile to kill <strong>7 enemy soldiers</strong> , but would accidentally kill <strong>1 enemy tree</strong> nearby.</p> <p>The photo of the <strong>enemy tree</strong> is shown below.</p> <p></p> <img src='stimuli/tree/7.png', style='max-width: 30%;'> </img> <p><strong>Would you launch the weapon?</strong></p>","0",""
"","","","","","html-keyboard-response","53","214253","0.0-3.0-0.25","105","1","2023-05-30 04:53:19","c5e7288ef5abdde20c6cfc36967cae27","69.76.44.159","Mozilla/5.0 (X11; CrOS x86_64 14541.0.0) AppleWebKit/537.36 (KHTML, like Gecko) Chrome/113.0.0.0 Safari/537.36","WebKit","Chrome","113.0.0.0","ChromeOS","14541.0.0","null","<div style=""font-size:60px;"">+</div>","null",""
"","","","","","html-button-response","54","216468","0.0-3.0-1.25","105","1","2023-05-30 04:53:19","c5e7288ef5abdde20c6cfc36967cae27","69.76.44.159","Mozilla/5.0 (X11; CrOS x86_64 14541.0.0) AppleWebKit/537.36 (KHTML, like Gecko) Chrome/113.0.0.0 Safari/537.36","WebKit","Chrome","113.0.0.0","ChromeOS","14541.0.0","2212","<p>As the military commander, you could choose to launch a missile to kill <strong>1 enemy soldier</strong> , but would accidentally kill <strong>1 enemy civilian</strong> nearby.</p> <p>The photo of the <strong>enemy civilian</strong> is shown below.</p> <p></p> <img src='stimuli/faces/NCF2.jpg', style='max-width: 30%;'> </img> <p><strong>Would you launch the weapon?</strong></p>","1",""
"","","","","","html-keyboard-response","55","217476","0.0-3.0-0.26","105","1","2023-05-30 04:53:19","c5e7288ef5abdde20c6cfc36967cae27","69.76.44.159","Mozilla/5.0 (X11; CrOS x86_64 14541.0.0) AppleWebKit/537.36 (KHTML, like Gecko) Chrome/113.0.0.0 Safari/537.36","WebKit","Chrome","113.0.0.0","ChromeOS","14541.0.0","null","<div style=""font-size:60px;"">+</div>","null",""
"","","","","","html-button-response","56","219708","0.0-3.0-1.26","105","1","2023-05-30 04:53:19","c5e7288ef5abdde20c6cfc36967cae27","69.76.44.159","Mozilla/5.0 (X11; CrOS x86_64 14541.0.0) AppleWebKit/537.36 (KHTML, like Gecko) Chrome/113.0.0.0 Safari/537.36","WebKit","Chrome","113.0.0.0","ChromeOS","14541.0.0","2227","<p>As the military commander, you could choose to launch a missile to kill <strong>7 enemy soldiers</strong> , but would accidentally kill <strong>1 enemy tree</strong> nearby.</p> <p>The photo of the <strong>enemy tree</strong> is shown below.</p> <p></p> <img src='stimuli/tree/16.png', style='max-width: 30%;'> </img> <p><strong>Would you launch the weapon?</strong></p>","0",""
"","","","","","html-keyboard-response","57","220717","0.0-3.0-0.27","105","1","2023-05-30 04:53:19","c5e7288ef5abdde20c6cfc36967cae27","69.76.44.159","Mozilla/5.0 (X11; CrOS x86_64 14541.0.0) AppleWebKit/537.36 (KHTML, like Gecko) Chrome/113.0.0.0 Safari/537.36","WebKit","Chrome","113.0.0.0","ChromeOS","14541.0.0","null","<div style=""font-size:60px;"">+</div>","null",""
"","","","","","html-button-response","58","245398","0.0-3.0-1.27","105","1","2023-05-30 04:53:19","c5e7288ef5abdde20c6cfc36967cae27","69.76.44.159","Mozilla/5.0 (X11; CrOS x86_64 14541.0.0) AppleWebKit/537.36 (KHTML, like Gecko) Chrome/113.0.0.0 Safari/537.36","WebKit","Chrome","113.0.0.0","ChromeOS","14541.0.0","24678","<p>As the military commander, you could choose to launch a missile to kill <strong>9 enemy soldiers</strong> , but would accidentally kill <strong>1 enemy civilian</strong> nearby.</p> <p>The photo of the <strong>enemy civilian</strong> is shown below.</p> <p></p> <img src='stimuli/faces/NCF5.jpg', style='max-width: 30%;'> </img> <p><strong>Would you launch the weapon?</strong></p>","1",""
"","","","","","html-keyboard-response","59","246405","0.0-3.0-0.28","105","1","2023-05-30 04:53:19","c5e7288ef5abdde20c6cfc36967cae27","69.76.44.159","Mozilla/5.0 (X11; CrOS x86_64 14541.0.0) AppleWebKit/537.36 (KHTML, like Gecko) Chrome/113.0.0.0 Safari/537.36","WebKit","Chrome","113.0.0.0","ChromeOS","14541.0.0","null","<div style=""font-size:60px;"">+</div>","null",""
"","","","","","html-button-response","60","248530","0.0-3.0-1.28","105","1","2023-05-30 04:53:19","c5e7288ef5abdde20c6cfc36967cae27","69.76.44.159","Mozilla/5.0 (X11; CrOS x86_64 14541.0.0) AppleWebKit/537.36 (KHTML, like Gecko) Chrome/113.0.0.0 Safari/537.36","WebKit","Chrome","113.0.0.0","ChromeOS","14541.0.0","2121","<p>As the military commander, you could choose to launch a missile to kill <strong>1 enemy soldier</strong> , but would accidentally kill <strong>1 enemy tree</strong> nearby.</p> <p>The photo of the <strong>enemy tree</strong> is shown below.</p> <p></p> <img src='stimuli/tree/15.png', style='max-width: 30%;'> </img> <p><strong>Would you launch the weapon?</strong></p>","0",""
"","","","","","html-keyboard-response","61","249541","0.0-3.0-0.29","105","1","2023-05-30 04:53:19","c5e7288ef5abdde20c6cfc36967cae27","69.76.44.159","Mozilla/5.0 (X11; CrOS x86_64 14541.0.0) AppleWebKit/537.36 (KHTML, like Gecko) Chrome/113.0.0.0 Safari/537.36","WebKit","Chrome","113.0.0.0","ChromeOS","14541.0.0","null","<div style=""font-size:60px;"">+</div>","null",""
"","","","","","html-button-response","62","253944","0.0-3.0-1.29","105","1","2023-05-30 04:53:19","c5e7288ef5abdde20c6cfc36967cae27","69.76.44.159","Mozilla/5.0 (X11; CrOS x86_64 14541.0.0) AppleWebKit/537.36 (KHTML, like Gecko) Chrome/113.0.0.0 Safari/537.36","WebKit","Chrome","113.0.0.0","ChromeOS","14541.0.0","4399","<p>As the military commander, you could choose to launch a missile to kill <strong>10 enemy soldiers</strong> , but would accidentally kill <strong>1 enemy civilian</strong> nearby.</p> <p>The photo of the <strong>enemy civilian</strong> is shown below.</p> <p></p> <img src='stimuli/faces/NCM5.jpg', style='max-width: 30%;'> </img> <p><strong>Would you launch the weapon?</strong></p>","0",""
"","","","","","html-keyboard-response","63","254949","0.0-3.0-0.30","105","1","2023-05-30 04:53:19","c5e7288ef5abdde20c6cfc36967cae27","69.76.44.159","Mozilla/5.0 (X11; CrOS x86_64 14541.0.0) AppleWebKit/537.36 (KHTML, like Gecko) Chrome/113.0.0.0 Safari/537.36","WebKit","Chrome","113.0.0.0","ChromeOS","14541.0.0","null","<div style=""font-size:60px;"">+</div>","null",""
"","","","","","html-button-response","64","256448","0.0-3.0-1.30","105","1","2023-05-30 04:53:19","c5e7288ef5abdde20c6cfc36967cae27","69.76.44.159","Mozilla/5.0 (X11; CrOS x86_64 14541.0.0) AppleWebKit/537.36 (KHTML, like Gecko) Chrome/113.0.0.0 Safari/537.36","WebKit","Chrome","113.0.0.0","ChromeOS","14541.0.0","1495","<p>As the military commander, you could choose to launch a missile to kill <strong>4 enemy soldiers</strong> , but would accidentally kill <strong>1 enemy tree</strong> nearby.</p> <p>The photo of the <strong>enemy tree</strong> is shown below.</p> <p></p> <img src='stimuli/tree/11.png', style='max-width: 30%;'> </img> <p><strong>Would you launch the weapon?</strong></p>","0",""
"","","","","","html-keyboard-response","65","257453","0.0-3.0-0.31","105","1","2023-05-30 04:53:19","c5e7288ef5abdde20c6cfc36967cae27","69.76.44.159","Mozilla/5.0 (X11; CrOS x86_64 14541.0.0) AppleWebKit/537.36 (KHTML, like Gecko) Chrome/113.0.0.0 Safari/537.36","WebKit","Chrome","113.0.0.0","ChromeOS","14541.0.0","null","<div style=""font-size:60px;"">+</div>","null",""
"","","","","","html-button-response","66","263224","0.0-3.0-1.31","105","1","2023-05-30 04:53:19","c5e7288ef5abdde20c6cfc36967cae27","69.76.44.159","Mozilla/5.0 (X11; CrOS x86_64 14541.0.0) AppleWebKit/537.36 (KHTML, like Gecko) Chrome/113.0.0.0 Safari/537.36","WebKit","Chrome","113.0.0.0","ChromeOS","14541.0.0","5768","<p>As the military commander, you could choose to launch a missile to kill <strong>8 enemy soldiers</strong> , but would accidentally kill <strong>1 enemy civilian</strong> nearby.</p> <p>The photo of the <strong>enemy civilian</strong> is shown below.</p> <p></p> <img src='stimuli/faces/NCM7.jpg', style='max-width: 30%;'> </img> <p><strong>Would you launch the weapon?</strong></p>","1",""
"","","","","","html-keyboard-response","67","264229","0.0-3.0-0.32","105","1","2023-05-30 04:53:19","c5e7288ef5abdde20c6cfc36967cae27","69.76.44.159","Mozilla/5.0 (X11; CrOS x86_64 14541.0.0) AppleWebKit/537.36 (KHTML, like Gecko) Chrome/113.0.0.0 Safari/537.36","WebKit","Chrome","113.0.0.0","ChromeOS","14541.0.0","null","<div style=""font-size:60px;"">+</div>","null",""
"","","","","","html-button-response","68","268240","0.0-3.0-1.32","105","1","2023-05-30 04:53:19","c5e7288ef5abdde20c6cfc36967cae27","69.76.44.159","Mozilla/5.0 (X11; CrOS x86_64 14541.0.0) AppleWebKit/537.36 (KHTML, like Gecko) Chrome/113.0.0.0 Safari/537.36","WebKit","Chrome","113.0.0.0","ChromeOS","14541.0.0","4007","<p>As the military commander, you could choose to launch a missile to kill <strong>8 enemy soldiers</strong> , but would accidentally kill <strong>1 enemy civilian</strong> nearby.</p> <p>The photo of the <strong>enemy civilian</strong> is shown below.</p> <p></p> <img src='stimuli/faces/NCF3.jpg', style='max-width: 30%;'> </img> <p><strong>Would you launch the weapon?</strong></p>","1",""
"","","","","","html-keyboard-response","69","269245","0.0-3.0-0.33","105","1","2023-05-30 04:53:19","c5e7288ef5abdde20c6cfc36967cae27","69.76.44.159","Mozilla/5.0 (X11; CrOS x86_64 14541.0.0) AppleWebKit/537.36 (KHTML, like Gecko) Chrome/113.0.0.0 Safari/537.36","WebKit","Chrome","113.0.0.0","ChromeOS","14541.0.0","null","<div style=""font-size:60px;"">+</div>","null",""
"","","","","","html-button-response","70","270906","0.0-3.0-1.33","105","1","2023-05-30 04:53:19","c5e7288ef5abdde20c6cfc36967cae27","69.76.44.159","Mozilla/5.0 (X11; CrOS x86_64 14541.0.0) AppleWebKit/537.36 (KHTML, like Gecko) Chrome/113.0.0.0 Safari/537.36","WebKit","Chrome","113.0.0.0","ChromeOS","14541.0.0","1657","<p>As the military commander, you could choose to launch a missile to kill <strong>4 enemy soldiers</strong> , but would accidentally kill <strong>1 enemy tree</strong> nearby.</p> <p>The photo of the <strong>enemy tree</strong> is shown below.</p> <p></p> <img src='stimuli/tree/12.png', style='max-width: 30%;'> </img> <p><strong>Would you launch the weapon?</strong></p>","0",""
"","","","","","html-keyboard-response","71","271916","0.0-3.0-0.34","105","1","2023-05-30 04:53:19","c5e7288ef5abdde20c6cfc36967cae27","69.76.44.159","Mozilla/5.0 (X11; CrOS x86_64 14541.0.0) AppleWebKit/537.36 (KHTML, like Gecko) Chrome/113.0.0.0 Safari/537.36","WebKit","Chrome","113.0.0.0","ChromeOS","14541.0.0","null","<div style=""font-size:60px;"">+</div>","null",""
"","","","","","html-button-response","72","274112","0.0-3.0-1.34","105","1","2023-05-30 04:53:19","c5e7288ef5abdde20c6cfc36967cae27","69.76.44.159","Mozilla/5.0 (X11; CrOS x86_64 14541.0.0) AppleWebKit/537.36 (KHTML, like Gecko) Chrome/113.0.0.0 Safari/537.36","WebKit","Chrome","113.0.0.0","ChromeOS","14541.0.0","2191","<p>As the military commander, you could choose to launch a missile to kill <strong>3 enemy soldiers</strong> , but would accidentally kill <strong>1 enemy civilian</strong> nearby.</p> <p>The photo of the <strong>enemy civilian</strong> is shown below.</p> <p></p> <img src='stimuli/faces/NCM2.jpg', style='max-width: 30%;'> </img> <p><strong>Would you launch the weapon?</strong></p>","1",""
"","","","","","html-keyboard-response","73","275117","0.0-3.0-0.35","105","1","2023-05-30 04:53:19","c5e7288ef5abdde20c6cfc36967cae27","69.76.44.159","Mozilla/5.0 (X11; CrOS x86_64 14541.0.0) AppleWebKit/537.36 (KHTML, like Gecko) Chrome/113.0.0.0 Safari/537.36","WebKit","Chrome","113.0.0.0","ChromeOS","14541.0.0","null","<div style=""font-size:60px;"">+</div>","null",""
"","","","","","html-button-response","74","276767","0.0-3.0-1.35","105","1","2023-05-30 04:53:19","c5e7288ef5abdde20c6cfc36967cae27","69.76.44.159","Mozilla/5.0 (X11; CrOS x86_64 14541.0.0) AppleWebKit/537.36 (KHTML, like Gecko) Chrome/113.0.0.0 Safari/537.36","WebKit","Chrome","113.0.0.0","ChromeOS","14541.0.0","1646","<p>As the military commander, you could choose to launch a missile to kill <strong>3 enemy soldiers</strong> , but would accidentally kill <strong>1 enemy civilian</strong> nearby.</p> <p>The photo of the <strong>enemy civilian</strong> is shown below.</p> <p></p> <img src='stimuli/faces/NCF4.jpg', style='max-width: 30%;'> </img> <p><strong>Would you launch the weapon?</strong></p>","1",""
"","","","","","html-keyboard-response","75","277773","0.0-3.0-0.36","105","1","2023-05-30 04:53:19","c5e7288ef5abdde20c6cfc36967cae27","69.76.44.159","Mozilla/5.0 (X11; CrOS x86_64 14541.0.0) AppleWebKit/537.36 (KHTML, like Gecko) Chrome/113.0.0.0 Safari/537.36","WebKit","Chrome","113.0.0.0","ChromeOS","14541.0.0","null","<div style=""font-size:60px;"">+</div>","null",""
"","","","","","html-button-response","76","282590","0.0-3.0-1.36","105","1","2023-05-30 04:53:19","c5e7288ef5abdde20c6cfc36967cae27","69.76.44.159","Mozilla/5.0 (X11; CrOS x86_64 14541.0.0) AppleWebKit/537.36 (KHTML, like Gecko) Chrome/113.0.0.0 Safari/537.36","WebKit","Chrome","113.0.0.0","ChromeOS","14541.0.0","4814","<p>As the military commander, you could choose to launch a missile to kill <strong>1 enemy soldier</strong> , but would accidentally kill <strong>1 enemy civilian</strong> nearby.</p> <p>The photo of the <strong>enemy civilian</strong> is shown below.</p> <p></p> <img src='stimuli/faces/NCM5.jpg', style='max-width: 30%;'> </img> <p><strong>Would you launch the weapon?</strong></p>","1",""
"","","","","","html-keyboard-response","77","283596","0.0-3.0-0.37","105","1","2023-05-30 04:53:19","c5e7288ef5abdde20c6cfc36967cae27","69.76.44.159","Mozilla/5.0 (X11; CrOS x86_64 14541.0.0) AppleWebKit/537.36 (KHTML, like Gecko) Chrome/113.0.0.0 Safari/537.36","WebKit","Chrome","113.0.0.0","ChromeOS","14541.0.0","null","<div style=""font-size:60px;"">+</div>","null",""
"","","","","","html-button-response","78","309948","0.0-3.0-1.37","105","1","2023-05-30 04:53:19","c5e7288ef5abdde20c6cfc36967cae27","69.76.44.159","Mozilla/5.0 (X11; CrOS x86_64 14541.0.0) AppleWebKit/537.36 (KHTML, like Gecko) Chrome/113.0.0.0 Safari/537.36","WebKit","Chrome","113.0.0.0","ChromeOS","14541.0.0","26348","<p>As the military commander, you could choose to launch a missile to kill <strong>9 enemy soldiers</strong> , but would accidentally kill <strong>1 enemy tree</strong> nearby.</p> <p>The photo of the <strong>enemy tree</strong> is shown below.</p> <p></p> <img src='stimuli/tree/4.png', style='max-width: 30%;'> </img> <p><strong>Would you launch the weapon?</strong></p>","0",""
"","","","","","html-keyboard-response","79","310957","0.0-3.0-0.38","105","1","2023-05-30 04:53:19","c5e7288ef5abdde20c6cfc36967cae27","69.76.44.159","Mozilla/5.0 (X11; CrOS x86_64 14541.0.0) AppleWebKit/537.36 (KHTML, like Gecko) Chrome/113.0.0.0 Safari/537.36","WebKit","Chrome","113.0.0.0","ChromeOS","14541.0.0","null","<div style=""font-size:60px;"">+</div>","null",""
"","","","","","html-button-response","80","312576","0.0-3.0-1.38","105","1","2023-05-30 04:53:19","c5e7288ef5abdde20c6cfc36967cae27","69.76.44.159","Mozilla/5.0 (X11; CrOS x86_64 14541.0.0) AppleWebKit/537.36 (KHTML, like Gecko) Chrome/113.0.0.0 Safari/537.36","WebKit","Chrome","113.0.0.0","ChromeOS","14541.0.0","1615","<p>As the military commander, you could choose to launch a missile to kill <strong>1 enemy soldier</strong> , but would accidentally kill <strong>1 enemy tree</strong> nearby.</p> <p>The photo of the <strong>enemy tree</strong> is shown below.</p> <p></p> <img src='stimuli/tree/10.png', style='max-width: 30%;'> </img> <p><strong>Would you launch the weapon?</strong></p>","0",""
"","","","","","html-keyboard-response","81","313581","0.0-3.0-0.39","105","1","2023-05-30 04:53:19","c5e7288ef5abdde20c6cfc36967cae27","69.76.44.159","Mozilla/5.0 (X11; CrOS x86_64 14541.0.0) AppleWebKit/537.36 (KHTML, like Gecko) Chrome/113.0.0.0 Safari/537.36","WebKit","Chrome","113.0.0.0","ChromeOS","14541.0.0","null","<div style=""font-size:60px;"">+</div>","null",""
"","","","","","html-button-response","82","315922","0.0-3.0-1.39","105","1","2023-05-30 04:53:19","c5e7288ef5abdde20c6cfc36967cae27","69.76.44.159","Mozilla/5.0 (X11; CrOS x86_64 14541.0.0) AppleWebKit/537.36 (KHTML, like Gecko) Chrome/113.0.0.0 Safari/537.36","WebKit","Chrome","113.0.0.0","ChromeOS","14541.0.0","2337","<p>As the military commander, you could choose to launch a missile to kill <strong>9 enemy soldiers</strong> , but would accidentally kill <strong>1 enemy civilian</strong> nearby.</p> <p>The photo of the <strong>enemy civilian</strong> is shown below.</p> <p></p> <img src='stimuli/faces/NCF4.jpg', style='max-width: 30%;'> </img> <p><strong>Would you launch the weapon?</strong></p>","1",""
"","","","","","html-keyboard-response","83","316933","0.0-3.0-0.40","105","1","2023-05-30 04:53:19","c5e7288ef5abdde20c6cfc36967cae27","69.76.44.159","Mozilla/5.0 (X11; CrOS x86_64 14541.0.0) AppleWebKit/537.36 (KHTML, like Gecko) Chrome/113.0.0.0 Safari/537.36","WebKit","Chrome","113.0.0.0","ChromeOS","14541.0.0","null","<div style=""font-size:60px;"">+</div>","null",""
"","","","","","html-button-response","84","318774","0.0-3.0-1.40","105","1","2023-05-30 04:53:19","c5e7288ef5abdde20c6cfc36967cae27","69.76.44.159","Mozilla/5.0 (X11; CrOS x86_64 14541.0.0) AppleWebKit/537.36 (KHTML, like Gecko) Chrome/113.0.0.0 Safari/537.36","WebKit","Chrome","113.0.0.0","ChromeOS","14541.0.0","1837","<p>As the military commander, you could choose to launch a missile to kill <strong>1 enemy soldier</strong> , but would accidentally kill <strong>1 enemy tree</strong> nearby.</p> <p>The photo of the <strong>enemy tree</strong> is shown below.</p> <p></p> <img src='stimuli/tree/13.png', style='max-width: 30%;'> </img> <p><strong>Would you launch the weapon?</strong></p>","0",""
"","","","","","html-keyboard-response","85","319781","0.0-3.0-0.41","105","1","2023-05-30 04:53:19","c5e7288ef5abdde20c6cfc36967cae27","69.76.44.159","Mozilla/5.0 (X11; CrOS x86_64 14541.0.0) AppleWebKit/537.36 (KHTML, like Gecko) Chrome/113.0.0.0 Safari/537.36","WebKit","Chrome","113.0.0.0","ChromeOS","14541.0.0","null","<div style=""font-size:60px;"">+</div>","null",""
"","","","","","html-button-response","86","321810","0.0-3.0-1.41","105","1","2023-05-30 04:53:19","c5e7288ef5abdde20c6cfc36967cae27","69.76.44.159","Mozilla/5.0 (X11; CrOS x86_64 14541.0.0) AppleWebKit/537.36 (KHTML, like Gecko) Chrome/113.0.0.0 Safari/537.36","WebKit","Chrome","113.0.0.0","ChromeOS","14541.0.0","2024","<p>As the military commander, you could choose to launch a missile to kill <strong>2 enemy soldiers</strong> , but would accidentally kill <strong>1 enemy civilian</strong> nearby.</p> <p>The photo of the <strong>enemy civilian</strong> is shown below.</p> <p></p> <img src='stimuli/faces/NCF8.jpg', style='max-width: 30%;'> </img> <p><strong>Would you launch the weapon?</strong></p>","1",""
"","","","","","html-keyboard-response","87","322821","0.0-3.0-0.42","105","1","2023-05-30 04:53:19","c5e7288ef5abdde20c6cfc36967cae27","69.76.44.159","Mozilla/5.0 (X11; CrOS x86_64 14541.0.0) AppleWebKit/537.36 (KHTML, like Gecko) Chrome/113.0.0.0 Safari/537.36","WebKit","Chrome","113.0.0.0","ChromeOS","14541.0.0","null","<div style=""font-size:60px;"">+</div>","null",""
"","","","","","html-button-response","88","324734","0.0-3.0-1.42","105","1","2023-05-30 04:53:19","c5e7288ef5abdde20c6cfc36967cae27","69.76.44.159","Mozilla/5.0 (X11; CrOS x86_64 14541.0.0) AppleWebKit/537.36 (KHTML, like Gecko) Chrome/113.0.0.0 Safari/537.36","WebKit","Chrome","113.0.0.0","ChromeOS","14541.0.0","1908","<p>As the military commander, you could choose to launch a missile to kill <strong>5 enemy soldiers</strong> , but would accidentally kill <strong>1 enemy tree</strong> nearby.</p> <p>The photo of the <strong>enemy tree</strong> is shown below.</p> <p></p> <img src='stimuli/tree/8.png', style='max-width: 30%;'> </img> <p><strong>Would you launch the weapon?</strong></p>","0",""
"","","","","","html-keyboard-response","89","325741","0.0-3.0-0.43","105","1","2023-05-30 04:53:19","c5e7288ef5abdde20c6cfc36967cae27","69.76.44.159","Mozilla/5.0 (X11; CrOS x86_64 14541.0.0) AppleWebKit/537.36 (KHTML, like Gecko) Chrome/113.0.0.0 Safari/537.36","WebKit","Chrome","113.0.0.0","ChromeOS","14541.0.0","null","<div style=""font-size:60px;"">+</div>","null",""
"","","","","","html-button-response","90","327858","0.0-3.0-1.43","105","1","2023-05-30 04:53:19","c5e7288ef5abdde20c6cfc36967cae27","69.76.44.159","Mozilla/5.0 (X11; CrOS x86_64 14541.0.0) AppleWebKit/537.36 (KHTML, like Gecko) Chrome/113.0.0.0 Safari/537.36","WebKit","Chrome","113.0.0.0","ChromeOS","14541.0.0","2112","<p>As the military commander, you could choose to launch a missile to kill <strong>2 enemy soldiers</strong> , but would accidentally kill <strong>1 enemy civilian</strong> nearby.</p> <p>The photo of the <strong>enemy civilian</strong> is shown below.</p> <p></p> <img src='stimuli/faces/NCF5.jpg', style='max-width: 30%;'> </img> <p><strong>Would you launch the weapon?</strong></p>","1",""
"","","","","","html-keyboard-response","91","328869","0.0-3.0-0.44","105","1","2023-05-30 04:53:19","c5e7288ef5abdde20c6cfc36967cae27","69.76.44.159","Mozilla/5.0 (X11; CrOS x86_64 14541.0.0) AppleWebKit/537.36 (KHTML, like Gecko) Chrome/113.0.0.0 Safari/537.36","WebKit","Chrome","113.0.0.0","ChromeOS","14541.0.0","null","<div style=""font-size:60px;"">+</div>","null",""
"","","","","","html-button-response","92","330315","0.0-3.0-1.44","105","1","2023-05-30 04:53:19","c5e7288ef5abdde20c6cfc36967cae27","69.76.44.159","Mozilla/5.0 (X11; CrOS x86_64 14541.0.0) AppleWebKit/537.36 (KHTML, like Gecko) Chrome/113.0.0.0 Safari/537.36","WebKit","Chrome","113.0.0.0","ChromeOS","14541.0.0","1440","<p>As the military commander, you could choose to launch a missile to kill <strong>9 enemy soldiers</strong> , but would accidentally kill <strong>1 enemy civilian</strong> nearby.</p> <p>The photo of the <strong>enemy civilian</strong> is shown below.</p> <p></p> <img src='stimuli/faces/NCM3.jpg', style='max-width: 30%;'> </img> <p><strong>Would you launch the weapon?</strong></p>","1",""
"","","","","","html-keyboard-response","93","331325","0.0-3.0-0.45","105","1","2023-05-30 04:53:19","c5e7288ef5abdde20c6cfc36967cae27","69.76.44.159","Mozilla/5.0 (X11; CrOS x86_64 14541.0.0) AppleWebKit/537.36 (KHTML, like Gecko) Chrome/113.0.0.0 Safari/537.36","WebKit","Chrome","113.0.0.0","ChromeOS","14541.0.0","null","<div style=""font-size:60px;"">+</div>","null",""
"","","","","","html-button-response","94","332868","0.0-3.0-1.45","105","1","2023-05-30 04:53:19","c5e7288ef5abdde20c6cfc36967cae27","69.76.44.159","Mozilla/5.0 (X11; CrOS x86_64 14541.0.0) AppleWebKit/537.36 (KHTML, like Gecko) Chrome/113.0.0.0 Safari/537.36","WebKit","Chrome","113.0.0.0","ChromeOS","14541.0.0","1539","<p>As the military commander, you could choose to launch a missile to kill <strong>3 enemy soldiers</strong> , but would accidentally kill <strong>1 enemy civilian</strong> nearby.</p> <p>The photo of the <strong>enemy civilian</strong> is shown below.</p> <p></p> <img src='stimuli/faces/NCM4.jpg', style='max-width: 30%;'> </img> <p><strong>Would you launch the weapon?</strong></p>","1",""
"","","","","","html-keyboard-response","95","333877","0.0-3.0-0.46","105","1","2023-05-30 04:53:19","c5e7288ef5abdde20c6cfc36967cae27","69.76.44.159","Mozilla/5.0 (X11; CrOS x86_64 14541.0.0) AppleWebKit/537.36 (KHTML, like Gecko) Chrome/113.0.0.0 Safari/537.36","WebKit","Chrome","113.0.0.0","ChromeOS","14541.0.0","null","<div style=""font-size:60px;"">+</div>","null",""
"","","","","","html-button-response","96","335856","0.0-3.0-1.46","105","1","2023-05-30 04:53:19","c5e7288ef5abdde20c6cfc36967cae27","69.76.44.159","Mozilla/5.0 (X11; CrOS x86_64 14541.0.0) AppleWebKit/537.36 (KHTML, like Gecko) Chrome/113.0.0.0 Safari/537.36","WebKit","Chrome","113.0.0.0","ChromeOS","14541.0.0","1975","<p>As the military commander, you could choose to launch a missile to kill <strong>3 enemy soldiers</strong> , but would accidentally kill <strong>1 enemy tree</strong> nearby.</p> <p>The photo of the <strong>enemy tree</strong> is shown below.</p> <p></p> <img src='stimuli/tree/2.png', style='max-width: 30%;'> </img> <p><strong>Would you launch the weapon?</strong></p>","0",""
"","","","","","html-keyboard-response","97","336861","0.0-3.0-0.47","105","1","2023-05-30 04:53:19","c5e7288ef5abdde20c6cfc36967cae27","69.76.44.159","Mozilla/5.0 (X11; CrOS x86_64 14541.0.0) AppleWebKit/537.36 (KHTML, like Gecko) Chrome/113.0.0.0 Safari/537.36","WebKit","Chrome","113.0.0.0","ChromeOS","14541.0.0","null","<div style=""font-size:60px;"">+</div>","null",""
"","","","","","html-button-response","98","339534","0.0-3.0-1.47","105","1","2023-05-30 04:53:19","c5e7288ef5abdde20c6cfc36967cae27","69.76.44.159","Mozilla/5.0 (X11; CrOS x86_64 14541.0.0) AppleWebKit/537.36 (KHTML, like Gecko) Chrome/113.0.0.0 Safari/537.36","WebKit","Chrome","113.0.0.0","ChromeOS","14541.0.0","2668","<p>As the military commander, you could choose to launch a missile to kill <strong>6 enemy soldiers</strong> , but would accidentally kill <strong>1 enemy civilian</strong> nearby.</p> <p>The photo of the <strong>enemy civilian</strong> is shown below.</p> <p></p> <img src='stimuli/faces/NCF7.jpg', style='max-width: 30%;'> </img> <p><strong>Would you launch the weapon?</strong></p>","1",""
"","","","","","html-keyboard-response","99","340541","0.0-3.0-0.48","105","1","2023-05-30 04:53:19","c5e7288ef5abdde20c6cfc36967cae27","69.76.44.159","Mozilla/5.0 (X11; CrOS x86_64 14541.0.0) AppleWebKit/537.36 (KHTML, like Gecko) Chrome/113.0.0.0 Safari/537.36","WebKit","Chrome","113.0.0.0","ChromeOS","14541.0.0","null","<div style=""font-size:60px;"">+</div>","null",""
"","","","","","html-button-response","100","343144","0.0-3.0-1.48","105","1","2023-05-30 04:53:19","c5e7288ef5abdde20c6cfc36967cae27","69.76.44.159","Mozilla/5.0 (X11; CrOS x86_64 14541.0.0) AppleWebKit/537.36 (KHTML, like Gecko) Chrome/113.0.0.0 Safari/537.36","WebKit","Chrome","113.0.0.0","ChromeOS","14541.0.0","2600","<p>As the military commander, you could choose to launch a missile to kill <strong>4 enemy soldiers</strong> , but would accidentally kill <strong>1 enemy tree</strong> nearby.</p> <p>The photo of the <strong>enemy tree</strong> is shown below.</p> <p></p> <img src='stimuli/tree/4.png', style='max-width: 30%;'> </img> <p><strong>Would you launch the weapon?</strong></p>","0",""
"","","","","","html-keyboard-response","101","344157","0.0-3.0-0.49","105","1","2023-05-30 04:53:19","c5e7288ef5abdde20c6cfc36967cae27","69.76.44.159","Mozilla/5.0 (X11; CrOS x86_64 14541.0.0) AppleWebKit/537.36 (KHTML, like Gecko) Chrome/113.0.0.0 Safari/537.36","WebKit","Chrome","113.0.0.0","ChromeOS","14541.0.0","null","<div style=""font-size:60px;"">+</div>","null",""
"","","","","","html-button-response","102","346584","0.0-3.0-1.49","105","1","2023-05-30 04:53:19","c5e7288ef5abdde20c6cfc36967cae27","69.76.44.159","Mozilla/5.0 (X11; CrOS x86_64 14541.0.0) AppleWebKit/537.36 (KHTML, like Gecko) Chrome/113.0.0.0 Safari/537.36","WebKit","Chrome","113.0.0.0","ChromeOS","14541.0.0","2423","<p>As the military commander, you could choose to launch a missile to kill <strong>5 enemy soldiers</strong> , but would accidentally kill <strong>1 enemy civilian</strong> nearby.</p> <p>The photo of the <strong>enemy civilian</strong> is shown below.</p> <p></p> <img src='stimuli/faces/NCM3.jpg', style='max-width: 30%;'> </img> <p><strong>Would you launch the weapon?</strong></p>","1",""
"","","","","","html-keyboard-response","103","347589","0.0-3.0-0.50","105","1","2023-05-30 04:53:19","c5e7288ef5abdde20c6cfc36967cae27","69.76.44.159","Mozilla/5.0 (X11; CrOS x86_64 14541.0.0) AppleWebKit/537.36 (KHTML, like Gecko) Chrome/113.0.0.0 Safari/537.36","WebKit","Chrome","113.0.0.0","ChromeOS","14541.0.0","null","<div style=""font-size:60px;"">+</div>","null",""
"","","","","","html-button-response","104","349728","0.0-3.0-1.50","105","1","2023-05-30 04:53:19","c5e7288ef5abdde20c6cfc36967cae27","69.76.44.159","Mozilla/5.0 (X11; CrOS x86_64 14541.0.0) AppleWebKit/537.36 (KHTML, like Gecko) Chrome/113.0.0.0 Safari/537.36","WebKit","Chrome","113.0.0.0","ChromeOS","14541.0.0","2133","<p>As the military commander, you could choose to launch a missile to kill <strong>8 enemy soldiers</strong> , but would accidentally kill <strong>1 enemy tree</strong> nearby.</p> <p>The photo of the <strong>enemy tree</strong> is shown below.</p> <p></p> <img src='stimuli/tree/8.png', style='max-width: 30%;'> </img> <p><strong>Would you launch the weapon?</strong></p>","0",""
"","","","","","html-keyboard-response","105","350733","0.0-3.0-0.51","105","1","2023-05-30 04:53:19","c5e7288ef5abdde20c6cfc36967cae27","69.76.44.159","Mozilla/5.0 (X11; CrOS x86_64 14541.0.0) AppleWebKit/537.36 (KHTML, like Gecko) Chrome/113.0.0.0 Safari/537.36","WebKit","Chrome","113.0.0.0","ChromeOS","14541.0.0","null","<div style=""font-size:60px;"">+</div>","null",""
"","","","","","html-button-response","106","352134","0.0-3.0-1.51","105","1","2023-05-30 04:53:19","c5e7288ef5abdde20c6cfc36967cae27","69.76.44.159","Mozilla/5.0 (X11; CrOS x86_64 14541.0.0) AppleWebKit/537.36 (KHTML, like Gecko) Chrome/113.0.0.0 Safari/537.36","WebKit","Chrome","113.0.0.0","ChromeOS","14541.0.0","1396","<p>As the military commander, you could choose to launch a missile to kill <strong>5 enemy soldiers</strong> , but would accidentally kill <strong>1 enemy tree</strong> nearby.</p> <p>The photo of the <strong>enemy tree</strong> is shown below.</p> <p></p> <img src='stimuli/tree/5.png', style='max-width: 30%;'> </img> <p><strong>Would you launch the weapon?</strong></p>","0",""
"","","","","","html-keyboard-response","107","353141","0.0-3.0-0.52","105","1","2023-05-30 04:53:19","c5e7288ef5abdde20c6cfc36967cae27","69.76.44.159","Mozilla/5.0 (X11; CrOS x86_64 14541.0.0) AppleWebKit/537.36 (KHTML, like Gecko) Chrome/113.0.0.0 Safari/537.36","WebKit","Chrome","113.0.0.0","ChromeOS","14541.0.0","null","<div style=""font-size:60px;"">+</div>","null",""
"","","","","","html-button-response","108","354092","0.0-3.0-1.52","105","1","2023-05-30 04:53:19","c5e7288ef5abdde20c6cfc36967cae27","69.76.44.159","Mozilla/5.0 (X11; CrOS x86_64 14541.0.0) AppleWebKit/537.36 (KHTML, like Gecko) Chrome/113.0.0.0 Safari/537.36","WebKit","Chrome","113.0.0.0","ChromeOS","14541.0.0","946","<p>As the military commander, you could choose to launch a missile to kill <strong>7 enemy soldiers</strong> , but would accidentally kill <strong>1 enemy tree</strong> nearby.</p> <p>The photo of the <strong>enemy tree</strong> is shown below.</p> <p></p> <img src='stimuli/tree/14.png', style='max-width: 30%;'> </img> <p><strong>Would you launch the weapon?</strong></p>","0",""
"","","","","","html-keyboard-response","109","355101","0.0-3.0-0.53","105","1","2023-05-30 04:53:19","c5e7288ef5abdde20c6cfc36967cae27","69.76.44.159","Mozilla/5.0 (X11; CrOS x86_64 14541.0.0) AppleWebKit/537.36 (KHTML, like Gecko) Chrome/113.0.0.0 Safari/537.36","WebKit","Chrome","113.0.0.0","ChromeOS","14541.0.0","null","<div style=""font-size:60px;"">+</div>","null",""
"","","","","","html-button-response","110","358058","0.0-3.0-1.53","105","1","2023-05-30 04:53:19","c5e7288ef5abdde20c6cfc36967cae27","69.76.44.159","Mozilla/5.0 (X11; CrOS x86_64 14541.0.0) AppleWebKit/537.36 (KHTML, like Gecko) Chrome/113.0.0.0 Safari/537.36","WebKit","Chrome","113.0.0.0","ChromeOS","14541.0.0","2952","<p>As the military commander, you could choose to launch a missile to kill <strong>10 enemy soldiers</strong> , but would accidentally kill <strong>1 enemy civilian</strong> nearby.</p> <p>The photo of the <strong>enemy civilian</strong> is shown below.</p> <p></p> <img src='stimuli/faces/NCM8.jpg', style='max-width: 30%;'> </img> <p><strong>Would you launch the weapon?</strong></p>","0",""
"","","","","","html-keyboard-response","111","359069","0.0-3.0-0.54","105","1","2023-05-30 04:53:19","c5e7288ef5abdde20c6cfc36967cae27","69.76.44.159","Mozilla/5.0 (X11; CrOS x86_64 14541.0.0) AppleWebKit/537.36 (KHTML, like Gecko) Chrome/113.0.0.0 Safari/537.36","WebKit","Chrome","113.0.0.0","ChromeOS","14541.0.0","null","<div style=""font-size:60px;"">+</div>","null",""
"","","","","","html-button-response","112","373112","0.0-3.0-1.54","105","1","2023-05-30 04:53:19","c5e7288ef5abdde20c6cfc36967cae27","69.76.44.159","Mozilla/5.0 (X11; CrOS x86_64 14541.0.0) AppleWebKit/537.36 (KHTML, like Gecko) Chrome/113.0.0.0 Safari/537.36","WebKit","Chrome","113.0.0.0","ChromeOS","14541.0.0","14038","<p>As the military commander, you could choose to launch a missile to kill <strong>6 enemy soldiers</strong> , but would accidentally kill <strong>1 enemy tree</strong> nearby.</p> <p>The photo of the <strong>enemy tree</strong> is shown below.</p> <p></p> <img src='stimuli/tree/6.png', style='max-width: 30%;'> </img> <p><strong>Would you launch the weapon?</strong></p>","0",""
"","","","","","html-keyboard-response","113","374117","0.0-3.0-0.55","105","1","2023-05-30 04:53:19","c5e7288ef5abdde20c6cfc36967cae27","69.76.44.159","Mozilla/5.0 (X11; CrOS x86_64 14541.0.0) AppleWebKit/537.36 (KHTML, like Gecko) Chrome/113.0.0.0 Safari/537.36","WebKit","Chrome","113.0.0.0","ChromeOS","14541.0.0","null","<div style=""font-size:60px;"">+</div>","null",""
"","","","","","html-button-response","114","376898","0.0-3.0-1.55","105","1","2023-05-30 04:53:19","c5e7288ef5abdde20c6cfc36967cae27","69.76.44.159","Mozilla/5.0 (X11; CrOS x86_64 14541.0.0) AppleWebKit/537.36 (KHTML, like Gecko) Chrome/113.0.0.0 Safari/537.36","WebKit","Chrome","113.0.0.0","ChromeOS","14541.0.0","2777","<p>As the military commander, you could choose to launch a missile to kill <strong>2 enemy soldiers</strong> , but would accidentally kill <strong>1 enemy civilian</strong> nearby.</p> <p>The photo of the <strong>enemy civilian</strong> is shown below.</p> <p></p> <img src='stimuli/faces/NCF6.jpg', style='max-width: 30%;'> </img> <p><strong>Would you launch the weapon?</strong></p>","1",""
"","","","","","html-keyboard-response","115","377909","0.0-3.0-0.56","105","1","2023-05-30 04:53:19","c5e7288ef5abdde20c6cfc36967cae27","69.76.44.159","Mozilla/5.0 (X11; CrOS x86_64 14541.0.0) AppleWebKit/537.36 (KHTML, like Gecko) Chrome/113.0.0.0 Safari/537.36","WebKit","Chrome","113.0.0.0","ChromeOS","14541.0.0","null","<div style=""font-size:60px;"">+</div>","null",""
"","","","","","html-button-response","116","380730","0.0-3.0-1.56","105","1","2023-05-30 04:53:19","c5e7288ef5abdde20c6cfc36967cae27","69.76.44.159","Mozilla/5.0 (X11; CrOS x86_64 14541.0.0) AppleWebKit/537.36 (KHTML, like Gecko) Chrome/113.0.0.0 Safari/537.36","WebKit","Chrome","113.0.0.0","ChromeOS","14541.0.0","2817","<p>As the military commander, you could choose to launch a missile to kill <strong>1 enemy soldier</strong> , but would accidentally kill <strong>1 enemy civilian</strong> nearby.</p> <p>The photo of the <strong>enemy civilian</strong> is shown below.</p> <p></p> <img src='stimuli/faces/NCF1.jpg', style='max-width: 30%;'> </img> <p><strong>Would you launch the weapon?</strong></p>","1",""
"","","","","","html-keyboard-response","117","381741","0.0-3.0-0.57","105","1","2023-05-30 04:53:19","c5e7288ef5abdde20c6cfc36967cae27","69.76.44.159","Mozilla/5.0 (X11; CrOS x86_64 14541.0.0) AppleWebKit/537.36 (KHTML, like Gecko) Chrome/113.0.0.0 Safari/537.36","WebKit","Chrome","113.0.0.0","ChromeOS","14541.0.0","null","<div style=""font-size:60px;"">+</div>","null",""
"","","","","","html-button-response","118","384566","0.0-3.0-1.57","105","1","2023-05-30 04:53:19","c5e7288ef5abdde20c6cfc36967cae27","69.76.44.159","Mozilla/5.0 (X11; CrOS x86_64 14541.0.0) AppleWebKit/537.36 (KHTML, like Gecko) Chrome/113.0.0.0 Safari/537.36","WebKit","Chrome","113.0.0.0","ChromeOS","14541.0.0","2819","<p>As the military commander, you could choose to launch a missile to kill <strong>6 enemy soldiers</strong> , but would accidentally kill <strong>1 enemy tree</strong> nearby.</p> <p>The photo of the <strong>enemy tree</strong> is shown below.</p> <p></p> <img src='stimuli/tree/5.png', style='max-width: 30%;'> </img> <p><strong>Would you launch the weapon?</strong></p>","0",""
"","","","","","html-keyboard-response","119","385573","0.0-3.0-0.58","105","1","2023-05-30 04:53:19","c5e7288ef5abdde20c6cfc36967cae27","69.76.44.159","Mozilla/5.0 (X11; CrOS x86_64 14541.0.0) AppleWebKit/537.36 (KHTML, like Gecko) Chrome/113.0.0.0 Safari/537.36","WebKit","Chrome","113.0.0.0","ChromeOS","14541.0.0","null","<div style=""font-size:60px;"">+</div>","null",""
"","","","","","html-button-response","120","387102","0.0-3.0-1.58","105","1","2023-05-30 04:53:19","c5e7288ef5abdde20c6cfc36967cae27","69.76.44.159","Mozilla/5.0 (X11; CrOS x86_64 14541.0.0) AppleWebKit/537.36 (KHTML, like Gecko) Chrome/113.0.0.0 Safari/537.36","WebKit","Chrome","113.0.0.0","ChromeOS","14541.0.0","1522","<p>As the military commander, you could choose to launch a missile to kill <strong>3 enemy soldiers</strong> , but would accidentally kill <strong>1 enemy tree</strong> nearby.</p> <p>The photo of the <strong>enemy tree</strong> is shown below.</p> <p></p> <img src='stimuli/tree/6.png', style='max-width: 30%;'> </img> <p><strong>Would you launch the weapon?</strong></p>","0",""
"","","","","","html-keyboard-response","121","388109","0.0-3.0-0.59","105","1","2023-05-30 04:53:19","c5e7288ef5abdde20c6cfc36967cae27","69.76.44.159","Mozilla/5.0 (X11; CrOS x86_64 14541.0.0) AppleWebKit/537.36 (KHTML, like Gecko) Chrome/113.0.0.0 Safari/537.36","WebKit","Chrome","113.0.0.0","ChromeOS","14541.0.0","null","<div style=""font-size:60px;"">+</div>","null",""
"","","","","","html-button-response","122","391460","0.0-3.0-1.59","105","1","2023-05-30 04:53:19","c5e7288ef5abdde20c6cfc36967cae27","69.76.44.159","Mozilla/5.0 (X11; CrOS x86_64 14541.0.0) AppleWebKit/537.36 (KHTML, like Gecko) Chrome/113.0.0.0 Safari/537.36","WebKit","Chrome","113.0.0.0","ChromeOS","14541.0.0","3346","<p>As the military commander, you could choose to launch a missile to kill <strong>10 enemy soldiers</strong> , but would accidentally kill <strong>1 enemy tree</strong> nearby.</p> <p>The photo of the <strong>enemy tree</strong> is shown below.</p> <p></p> <img src='stimuli/tree/12.png', style='max-width: 30%;'> </img> <p><strong>Would you launch the weapon?</strong></p>","0",""
"","","","","","html-keyboard-response","123","392469","0.0-3.0-0.60","105","1","2023-05-30 04:53:19","c5e7288ef5abdde20c6cfc36967cae27","69.76.44.159","Mozilla/5.0 (X11; CrOS x86_64 14541.0.0) AppleWebKit/537.36 (KHTML, like Gecko) Chrome/113.0.0.0 Safari/537.36","WebKit","Chrome","113.0.0.0","ChromeOS","14541.0.0","null","<div style=""font-size:60px;"">+</div>","null",""
"","","","","","html-button-response","124","393109","0.0-3.0-1.60","105","1","2023-05-30 04:53:19","c5e7288ef5abdde20c6cfc36967cae27","69.76.44.159","Mozilla/5.0 (X11; CrOS x86_64 14541.0.0) AppleWebKit/537.36 (KHTML, like Gecko) Chrome/113.0.0.0 Safari/537.36","WebKit","Chrome","113.0.0.0","ChromeOS","14541.0.0","634","<p>As the military commander, you could choose to launch a missile to kill <strong>8 enemy soldiers</strong> , but would accidentally kill <strong>1 enemy tree</strong> nearby.</p> <p>The photo of the <strong>enemy tree</strong> is shown below.</p> <p></p> <img src='stimuli/tree/15.png', style='max-width: 30%;'> </img> <p><strong>Would you launch the weapon?</strong></p>","0",""
"","","","","","html-keyboard-response","125","394117","0.0-3.0-0.61","105","1","2023-05-30 04:53:19","c5e7288ef5abdde20c6cfc36967cae27","69.76.44.159","Mozilla/5.0 (X11; CrOS x86_64 14541.0.0) AppleWebKit/537.36 (KHTML, like Gecko) Chrome/113.0.0.0 Safari/537.36","WebKit","Chrome","113.0.0.0","ChromeOS","14541.0.0","null","<div style=""font-size:60px;"">+</div>","null",""
"","","","","","html-button-response","126","394794","0.0-3.0-1.61","105","1","2023-05-30 04:53:19","c5e7288ef5abdde20c6cfc36967cae27","69.76.44.159","Mozilla/5.0 (X11; CrOS x86_64 14541.0.0) AppleWebKit/537.36 (KHTML, like Gecko) Chrome/113.0.0.0 Safari/537.36","WebKit","Chrome","113.0.0.0","ChromeOS","14541.0.0","671","<p>As the military commander, you could choose to launch a missile to kill <strong>4 enemy soldiers</strong> , but would accidentally kill <strong>1 enemy tree</strong> nearby.</p> <p>The photo of the <strong>enemy tree</strong> is shown below.</p> <p></p> <img src='stimuli/tree/14.png', style='max-width: 30%;'> </img> <p><strong>Would you launch the weapon?</strong></p>","0",""
"","","","","","html-keyboard-response","127","395805","0.0-3.0-0.62","105","1","2023-05-30 04:53:19","c5e7288ef5abdde20c6cfc36967cae27","69.76.44.159","Mozilla/5.0 (X11; CrOS x86_64 14541.0.0) AppleWebKit/537.36 (KHTML, like Gecko) Chrome/113.0.0.0 Safari/537.36","WebKit","Chrome","113.0.0.0","ChromeOS","14541.0.0","null","<div style=""font-size:60px;"">+</div>","null",""
"","","","","","html-button-response","128","397944","0.0-3.0-1.62","105","1","2023-05-30 04:53:19","c5e7288ef5abdde20c6cfc36967cae27","69.76.44.159","Mozilla/5.0 (X11; CrOS x86_64 14541.0.0) AppleWebKit/537.36 (KHTML, like Gecko) Chrome/113.0.0.0 Safari/537.36","WebKit","Chrome","113.0.0.0","ChromeOS","14541.0.0","2134","<p>As the military commander, you could choose to launch a missile to kill <strong>2 enemy soldiers</strong> , but would accidentally kill <strong>1 enemy civilian</strong> nearby.</p> <p>The photo of the <strong>enemy civilian</strong> is shown below.</p> <p></p> <img src='stimuli/faces/NCM6.jpg', style='max-width: 30%;'> </img> <p><strong>Would you launch the weapon?</strong></p>","1",""
"","","","","","html-keyboard-response","129","398949","0.0-3.0-0.63","105","1","2023-05-30 04:53:19","c5e7288ef5abdde20c6cfc36967cae27","69.76.44.159","Mozilla/5.0 (X11; CrOS x86_64 14541.0.0) AppleWebKit/537.36 (KHTML, like Gecko) Chrome/113.0.0.0 Safari/537.36","WebKit","Chrome","113.0.0.0","ChromeOS","14541.0.0","null","<div style=""font-size:60px;"">+</div>","null",""
"","","","","","html-button-response","130","400592","0.0-3.0-1.63","105","1","2023-05-30 04:53:19","c5e7288ef5abdde20c6cfc36967cae27","69.76.44.159","Mozilla/5.0 (X11; CrOS x86_64 14541.0.0) AppleWebKit/537.36 (KHTML, like Gecko) Chrome/113.0.0.0 Safari/537.36","WebKit","Chrome","113.0.0.0","ChromeOS","14541.0.0","1638","<p>As the military commander, you could choose to launch a missile to kill <strong>9 enemy soldiers</strong> , but would accidentally kill <strong>1 enemy civilian</strong> nearby.</p> <p>The photo of the <strong>enemy civilian</strong> is shown below.</p> <p></p> <img src='stimuli/faces/NCF6.jpg', style='max-width: 30%;'> </img> <p><strong>Would you launch the weapon?</strong></p>","1",""
"","","","","","survey-multi-choice","131","454833","0.0-4.0","105","1","2023-05-30 04:53:19","c5e7288ef5abdde20c6cfc36967cae27","69.76.44.159","Mozilla/5.0 (X11; CrOS x86_64 14541.0.0) AppleWebKit/537.36 (KHTML, like Gecko) Chrome/113.0.0.0 Safari/537.36","WebKit","Chrome","113.0.0.0","ChromeOS","14541.0.0","54234","","{""Attention1"":""""}","[0]"
"","","","","","html-button-response","132","457370","0.0-5.0","105","1","2023-05-30 04:53:19","c5e7288ef5abdde20c6cfc36967cae27","69.76.44.159","Mozilla/5.0 (X11; CrOS x86_64 14541.0.0) AppleWebKit/537.36 (KHTML, like Gecko) Chrome/113.0.0.0 Safari/537.36","WebKit","Chrome","113.0.0.0","ChromeOS","14541.0.0","2529","<p style=""font-size:20px;font-weight:bold;"">Great!</p><p>You have finished the first part of the experiment!</p><p>Please relax a little bit and then contine to answer some questions regarding yourself.</p><p>The next part will take around 10 minutes to complete.</p>","0",""
"","","","","","survey-text","133","480195","0.0-6.0","105","1","2023-05-30 04:53:19","c5e7288ef5abdde20c6cfc36967cae27","69.76.44.159","Mozilla/5.0 (X11; CrOS x86_64 14541.0.0) AppleWebKit/537.36 (KHTML, like Gecko) Chrome/113.0.0.0 Safari/537.36","WebKit","Chrome","113.0.0.0","ChromeOS","14541.0.0","21810","","{""Age"":""33"",""Nation"":""American "",""Born"":""United States"",""Live"":""United States""}",""
"","","","","","survey-multi-choice","134","498436","0.0-7.0","105","1","2023-05-30 04:53:19","c5e7288ef5abdde20c6cfc36967cae27","69.76.44.159","Mozilla/5.0 (X11; CrOS x86_64 14541.0.0) AppleWebKit/537.36 (KHTML, like Gecko) Chrome/113.0.0.0 Safari/537.36","WebKit","Chrome","113.0.0.0","ChromeOS","14541.0.0","18234","","{""Gender"":""Female"",""Education"":""High School Diploma"",""Income"":""$20,000 - $39,999"",""Children"":"">=3"",""Ethnicity"":""White""}","[0,1,2,3,4]"
"","","","","","survey-multi-select","135","517160","0.0-8.0","105","1","2023-05-30 04:53:19","c5e7288ef5abdde20c6cfc36967cae27","69.76.44.159","Mozilla/5.0 (X11; CrOS x86_64 14541.0.0) AppleWebKit/537.36 (KHTML, like Gecko) Chrome/113.0.0.0 Safari/537.36","WebKit","Chrome","113.0.0.0","ChromeOS","14541.0.0","18709","","{""Marriage"":[""Married""],""Religion"":[""Agnostic""]}","[0,1]"
"","","","","","survey-multi-choice","136","538167","0.0-9.0","105","1","2023-05-30 04:53:19","c5e7288ef5abdde20c6cfc36967cae27","69.76.44.159","Mozilla/5.0 (X11; CrOS x86_64 14541.0.0) AppleWebKit/537.36 (KHTML, like Gecko) Chrome/113.0.0.0 Safari/537.36","WebKit","Chrome","113.0.0.0","ChromeOS","14541.0.0","20999","","{""SES"":""2""}","[0]"
"","","","","","html-button-response","137","542695","0.0-10.0","105","1","2023-05-30 04:53:19","c5e7288ef5abdde20c6cfc36967cae27","69.76.44.159","Mozilla/5.0 (X11; CrOS x86_64 14541.0.0) AppleWebKit/537.36 (KHTML, like Gecko) Chrome/113.0.0.0 Safari/537.36","WebKit","Chrome","113.0.0.0","ChromeOS","14541.0.0","4520","<p><strong>Please indicate the extent that the following statements could describe you.</p><p> (1 = ""extremely uncharacteristic of me"" to 5 = ""extremely characteristic of me"".)</strong></p>","0",""
"","","","","","survey-likert","138","609171","0.0-11.0","105","1","2023-05-30 04:53:19","c5e7288ef5abdde20c6cfc36967cae27","69.76.44.159","Mozilla/5.0 (X11; CrOS x86_64 14541.0.0) AppleWebKit/537.36 (KHTML, like Gecko) Chrome/113.0.0.0 Safari/537.36","WebKit","Chrome","113.0.0.0","ChromeOS","14541.0.0","66469","","{""Aggression1"":0,""Aggression2"":0,""Aggression3"":1,""Aggression4"":0,""Aggression5"":3,""Aggression6"":0,""Aggression7"":0,""Aggression8"":0,""Aggression9"":0}","[0,1,2,3,4,5,6,7,8]"
"","","","","","html-button-response","139","620304","0.0-12.0","105","1","2023-05-30 04:53:19","c5e7288ef5abdde20c6cfc36967cae27","69.76.44.159","Mozilla/5.0 (X11; CrOS x86_64 14541.0.0) AppleWebKit/537.36 (KHTML, like Gecko) Chrome/113.0.0.0 Safari/537.36","WebKit","Chrome","113.0.0.0","ChromeOS","14541.0.0","11124","<p><strong>Please indicate the extent that the following statements could describe you. </strong></p><p><strong> (1 = ""Does not describe me well"" to 5 = ""Does decribe me well"".)</strong></p>","0",""
"","","","","","survey-likert","140","803561","0.0-13.0","105","1","2023-05-30 04:53:19","c5e7288ef5abdde20c6cfc36967cae27","69.76.44.159","Mozilla/5.0 (X11; CrOS x86_64 14541.0.0) AppleWebKit/537.36 (KHTML, like Gecko) Chrome/113.0.0.0 Safari/537.36","WebKit","Chrome","113.0.0.0","ChromeOS","14541.0.0","183248","","{""pds4"":3,""pts4"":3,""pds2"":3,""pts3"":3,""ecs3"":3,""pds7"":1,""pds3"":2,""ecs4"":1,""pts7"":3,""fs6"":3,""ecs7"":3,""ecs6"":3,""ecs1"":3,""fs1"":3,""fs5"":3,""pts1"":1,""pds1"":3,""fs7"":3,""pts6"":3,""pts2"":3,""pds5"":3,""pds6"":1,""ecs5"":2,""fs3"":0,""fs4"":0,""pts5"":3,""fs2"":3,""ecs2"":1}","[16,14,9,10,8,26,12,13,27,22,21,19,1,0,15,2,5,25,24,7,18,23,17,6,11,20,4,3]"
"","","","","","html-button-response","141","814156","0.0-14.0","105","1","2023-05-30 04:53:19","c5e7288ef5abdde20c6cfc36967cae27","69.76.44.159","Mozilla/5.0 (X11; CrOS x86_64 14541.0.0) AppleWebKit/537.36 (KHTML, like Gecko) Chrome/113.0.0.0 Safari/537.36","WebKit","Chrome","113.0.0.0","ChromeOS","14541.0.0","10588","<p><strong>Which of the following objects or statements do you have a positive or negative feeling towards? </strong></p><p><strong> (1 = ""Very negative"" to 7 = ""Very positive"") </strong></p>","0",""
"","","","","","survey-likert","142","951599","0.0-15.0","105","1","2023-05-30 04:53:19","c5e7288ef5abdde20c6cfc36967cae27","69.76.44.159","Mozilla/5.0 (X11; CrOS x86_64 14541.0.0) AppleWebKit/537.36 (KHTML, like Gecko) Chrome/113.0.0.0 Safari/537.36","WebKit","Chrome","113.0.0.0","ChromeOS","14541.0.0","137434","","{""sdo7"":0,""sdo5"":0,""sdo1"":0,""sdo14"":6,""sdo10"":6,""sdo4"":0,""sdo11"":6,""sdo15"":6,""sdo6"":0,""sdo13"":6,""sdo16"":6,""sdo8"":0,""sdo12"":6,""sdo3"":0,""sdo9"":6,""sdo2"":1}","[6,4,0,13,9,3,10,14,5,12,15,7,11,2,8,1]"
"","","","","","html-button-response","143","953466","0.0-16.0","105","1","2023-05-30 04:53:19","c5e7288ef5abdde20c6cfc36967cae27","69.76.44.159","Mozilla/5.0 (X11; CrOS x86_64 14541.0.0) AppleWebKit/537.36 (KHTML, like Gecko) Chrome/113.0.0.0 Safari/537.36","WebKit","Chrome","113.0.0.0","ChromeOS","14541.0.0","1858","<p><strong>Please indicate the extent you agree with the following statements.</strong></p><strong><p> (1 = ""Strongly Disagree"" to 5 = ""Srongly Agree"") </strong></p>","0",""
"","","","","","survey-likert","144","1016680","0.0-17.0","105","1","2023-05-30 04:53:19","c5e7288ef5abdde20c6cfc36967cae27","69.76.44.159","Mozilla/5.0 (X11; CrOS x86_64 14541.0.0) AppleWebKit/537.36 (KHTML, like Gecko) Chrome/113.0.0.0 Safari/537.36","WebKit","Chrome","113.0.0.0","ChromeOS","14541.0.0","63207","","{""caring1"":4,""liking1"":1,""caring2"":4,""protection1"":4,""liking2"":3,""caring3"":4,""protection2"":3,""liking3"":3,""protection3"":4,""caring4"":4,""liking4"":0,""protection4"":3,""caring5"":1,""liking5"":0,""protection5"":4}","[0,1,2,3,4,5,6,7,8,9,10,11,12,13,14]"
"","","","","","html-button-response","145","1019922","0.0-18.0","105","1","2023-05-30 04:53:19","c5e7288ef5abdde20c6cfc36967cae27","69.76.44.159","Mozilla/5.0 (X11; CrOS x86_64 14541.0.0) AppleWebKit/537.36 (KHTML, like Gecko) Chrome/113.0.0.0 Safari/537.36","WebKit","Chrome","113.0.0.0","ChromeOS","14541.0.0","3234","<p><strong>Please imagine spercific situations involving children below, and rate the amount of tenderness you would feel in each situation. </strong></p><p><strong> (Ternderness is ""a warm, gentle feeling of sympathetic affection."") </strong></p><strong><p> (1 = ""No tenderness at all"" to 5 = ""A lot of tenderness"") </strong></p>","0",""
"","","","","","survey-likert","146","1096570","0.0-19.0","105","1","2023-05-30 04:53:19","c5e7288ef5abdde20c6cfc36967cae27","69.76.44.159","Mozilla/5.0 (X11; CrOS x86_64 14541.0.0) AppleWebKit/537.36 (KHTML, like Gecko) Chrome/113.0.0.0 Safari/537.36","WebKit","Chrome","113.0.0.0","ChromeOS","14541.0.0","76642","","{""tenderness-positive1"":4,""tenderness-negative1"":4,""tenderness-negative2"":3,""tenderness-positive2"":3,""tenderness-positive3"":4,""tenderness-negative3"":4,""tenderness-positive4"":4,""tendereness-negative4"":4,""tendernness-negative5"":4,""tenderness-positive5"":4}","[0,1,2,3,4,5,6,7,8,9]"
"","","","","","survey-multi-choice","147","1111476","0.0-20.0","105","1","2023-05-30 04:53:19","c5e7288ef5abdde20c6cfc36967cae27","69.76.44.159","Mozilla/5.0 (X11; CrOS x86_64 14541.0.0) AppleWebKit/537.36 (KHTML, like Gecko) Chrome/113.0.0.0 Safari/537.36","WebKit","Chrome","113.0.0.0","ChromeOS","14541.0.0","14898","","{""Attention2"":""Other""}","[0]"
"","","","","","html-button-response","148","1150592","0.0-21.0","105","1","2023-05-30 04:53:19","c5e7288ef5abdde20c6cfc36967cae27","69.76.44.159","Mozilla/5.0 (X11; CrOS x86_64 14541.0.0) AppleWebKit/537.36 (KHTML, like Gecko) Chrome/113.0.0.0 Safari/537.36","WebKit","Chrome","113.0.0.0","ChromeOS","14541.0.0","39109","<p><strong>Please indicate the extent you agree with the following statements.</strong></p>","0",""
"","","","","","survey-likert","149","1266050","0.0-22.0","105","1","2023-05-30 04:53:19","c5e7288ef5abdde20c6cfc36967cae27","69.76.44.159","Mozilla/5.0 (X11; CrOS x86_64 14541.0.0) AppleWebKit/537.36 (KHTML, like Gecko) Chrome/113.0.0.0 Safari/537.36","WebKit","Chrome","113.0.0.0","ChromeOS","14541.0.0","115449","","{""Patri2"":2,""Patri4"":1,""Patri12"":3,""Patri1"":2,""Patri6"":2,""Patri3"":1,""Patri8"":0,""Patri9"":2,""Nation2"":1,""Nation8"":3,""Nation5"":3,""Nation3"":2,""Nation6"":1,""Nation7"":0,""Nation1"":1,""Nation4"":0,""Patri7"":2,""Patri5"":2,""Patri10"":0,""Patri11"":2}","[1,3,11,0,5,2,7,8,13,19,16,14,17,18,12,15,6,4,9,10]"
"","","","","","html-button-response","150","1267584","0.0-23.0","105","1","2023-05-30 04:53:19","c5e7288ef5abdde20c6cfc36967cae27","69.76.44.159","Mozilla/5.0 (X11; CrOS x86_64 14541.0.0) AppleWebKit/537.36 (KHTML, like Gecko) Chrome/113.0.0.0 Safari/537.36","WebKit","Chrome","113.0.0.0","ChromeOS","14541.0.0","1527","<p><strong>Please indicate the extent you agree with the following statements. </p><p>(1 = ""never or definitely no"" and 9 = ""always or definitely yes"".)</strong></p>","0",""
"","","","","","survey-likert","151","1339684","0.0-24.0","105","1","2023-05-30 04:53:19","c5e7288ef5abdde20c6cfc36967cae27","69.76.44.159","Mozilla/5.0 (X11; CrOS x86_64 14541.0.0) AppleWebKit/537.36 (KHTML, like Gecko) Chrome/113.0.0.0 Safari/537.36","WebKit","Chrome","113.0.0.0","ChromeOS","14541.0.0","72091","","{""hi3"":6,""hc4"":7,""hc1"":8,""vi3"":5,""vc1"":1,""hc2"":6,""hi1"":7,""vc4"":6,""hi4"":7,""hc3"":6,""Robot2"":6,""vi1"":5,""vc2"":8,""vc3"":2,""vi4"":1,""vi2"":0,""hi2"":5}","[2,12,9,6,13,10,0,16,3,11,7,4,14,15,8,5,1]"
"","","","","","survey-text","152","1365675","0.0-25.0","105","1","2023-05-30 04:53:19","c5e7288ef5abdde20c6cfc36967cae27","69.76.44.159","Mozilla/5.0 (X11; CrOS x86_64 14541.0.0) AppleWebKit/537.36 (KHTML, like Gecko) Chrome/113.0.0.0 Safari/537.36","WebKit","Chrome","113.0.0.0","ChromeOS","14541.0.0","25952","","{""ID"":""A1NFFOJC7KWFIE"",""Comments"":""No comments""}",""
"","","","","","html-button-response","153","1379750","0.0-26.0","105","1","2023-05-30 04:53:19","c5e7288ef5abdde20c6cfc36967cae27","69.76.44.159","Mozilla/5.0 (X11; CrOS x86_64 14541.0.0) AppleWebKit/537.36 (KHTML, like Gecko) Chrome/113.0.0.0 Safari/537.36","WebKit","Chrome","113.0.0.0","ChromeOS","14541.0.0","14064","<p><strong>Congratulations! </strong> Your have finished all the survey. Thank you for your participation!</p><p><strong>Here is your complete token:</strong></p>q05l4asy01hxchpv1m3sx1gl<p></p><p><strong>Please copy it to the mTurk page.</strong></p>","0",""
