"success","timeout","failed_images","failed_audio","failed_video","trial_type","trial_index","time_elapsed","internal_node_id","run_id","condition","recorded_at","source_code_version","ip","user_agent","device","browser","browser_version","platform","platform_version","rt","stimulus","response","question_order"
"true","false","[]","[]","[]","preload","0","352","0.0-0.0","12","1","2023-05-22 23:51:09","c5e7288ef5abdde20c6cfc36967cae27","97.97.31.17","Mozilla/5.0 (Macintosh; Intel Mac OS X 10_15_7) AppleWebKit/605.1.15 (KHTML, like Gecko) Version/16.4 Safari/605.1.15","Macintosh","Safari","16.4","OS X","10_15_7","","","",""
"true","","","","","fullscreen","1","50474","0.0-1.0","12","1","2023-05-22 23:51:09","c5e7288ef5abdde20c6cfc36967cae27","97.97.31.17","Mozilla/5.0 (Macintosh; Intel Mac OS X 10_15_7) AppleWebKit/605.1.15 (KHTML, like Gecko) Version/16.4 Safari/605.1.15","Macintosh","Safari","16.4","OS X","10_15_7","","","",""
"","","","","","html-button-response","2","51251","0.0-2.0","12","1","2023-05-22 23:51:09","c5e7288ef5abdde20c6cfc36967cae27","97.97.31.17","Mozilla/5.0 (Macintosh; Intel Mac OS X 10_15_7) AppleWebKit/605.1.15 (KHTML, like Gecko) Version/16.4 Safari/605.1.15","Macintosh","Safari","16.4","OS X","10_15_7","755","<p ><strong>Welcome to the experiment!</strong></p><p ><strong>In the first task, please imagine:</strong></p><p>Your country is involved in a military conflict with another country.</p><p>You are the commander of your army and must make decisions in the conflict.</p><p>Specifically, as the military commander, you must decide whether to launch a missile to strike enemy.</p><p>You will face a series of scenarios. Please read each scenario carefully and make a decision.</p><p>The task will take around 10 minutes to complete.</p><p><strong>Please pay your attention during the experiment.</strong></p>","0",""
"","","","","","html-keyboard-response","3","52257","0.0-3.0-0.0","12","1","2023-05-22 23:51:09","c5e7288ef5abdde20c6cfc36967cae27","97.97.31.17","Mozilla/5.0 (Macintosh; Intel Mac OS X 10_15_7) AppleWebKit/605.1.15 (KHTML, like Gecko) Version/16.4 Safari/605.1.15","Macintosh","Safari","16.4","OS X","10_15_7","null","<div style=""font-size:60px;"">+</div>","null",""
"","","","","","html-button-response","4","63341","0.0-3.0-1.0","12","1","2023-05-22 23:51:09","c5e7288ef5abdde20c6cfc36967cae27","97.97.31.17","Mozilla/5.0 (Macintosh; Intel Mac OS X 10_15_7) AppleWebKit/605.1.15 (KHTML, like Gecko) Version/16.4 Safari/605.1.15","Macintosh","Safari","16.4","OS X","10_15_7","11079","<p>As the military commander, you could choose to launch a missile to kill <strong>5 enemy soldiers</strong> , but would accidentally kill <strong>1 enemy tree</strong> nearby.</p> <p>The photo of the <strong>enemy tree</strong> is shown below.</p> <p></p> <img src='stimuli/tree/8.png', style='max-width: 30%;'> </img> <p><strong>Would you launch the weapon?</strong></p>","0",""
"","","","","","html-keyboard-response","5","64346","0.0-3.0-0.1","12","1","2023-05-22 23:51:09","c5e7288ef5abdde20c6cfc36967cae27","97.97.31.17","Mozilla/5.0 (Macintosh; Intel Mac OS X 10_15_7) AppleWebKit/605.1.15 (KHTML, like Gecko) Version/16.4 Safari/605.1.15","Macintosh","Safari","16.4","OS X","10_15_7","null","<div style=""font-size:60px;"">+</div>","null",""
"","","","","","html-button-response","6","68388","0.0-3.0-1.1","12","1","2023-05-22 23:51:09","c5e7288ef5abdde20c6cfc36967cae27","97.97.31.17","Mozilla/5.0 (Macintosh; Intel Mac OS X 10_15_7) AppleWebKit/605.1.15 (KHTML, like Gecko) Version/16.4 Safari/605.1.15","Macintosh","Safari","16.4","OS X","10_15_7","4040","<p>As the military commander, you could choose to launch a missile to kill <strong>7 enemy soldiers</strong> , but would accidentally kill <strong>1 enemy civilian</strong> nearby.</p> <p>The photo of the <strong>enemy civilian</strong> is shown below.</p> <p></p> <img src='stimuli/faces/NCF2.jpg', style='max-width: 30%;'> </img> <p><strong>Would you launch the weapon?</strong></p>","1",""
"","","","","","html-keyboard-response","7","69390","0.0-3.0-0.2","12","1","2023-05-22 23:51:09","c5e7288ef5abdde20c6cfc36967cae27","97.97.31.17","Mozilla/5.0 (Macintosh; Intel Mac OS X 10_15_7) AppleWebKit/605.1.15 (KHTML, like Gecko) Version/16.4 Safari/605.1.15","Macintosh","Safari","16.4","OS X","10_15_7","null","<div style=""font-size:60px;"">+</div>","null",""
"","","","","","html-button-response","8","71126","0.0-3.0-1.2","12","1","2023-05-22 23:51:09","c5e7288ef5abdde20c6cfc36967cae27","97.97.31.17","Mozilla/5.0 (Macintosh; Intel Mac OS X 10_15_7) AppleWebKit/605.1.15 (KHTML, like Gecko) Version/16.4 Safari/605.1.15","Macintosh","Safari","16.4","OS X","10_15_7","1735","<p>As the military commander, you could choose to launch a missile to kill <strong>2 enemy soldiers</strong> , but would accidentally kill <strong>1 enemy tree</strong> nearby.</p> <p>The photo of the <strong>enemy tree</strong> is shown below.</p> <p></p> <img src='stimuli/tree/3.png', style='max-width: 30%;'> </img> <p><strong>Would you launch the weapon?</strong></p>","0",""
"","","","","","html-keyboard-response","9","72129","0.0-3.0-0.3","12","1","2023-05-22 23:51:09","c5e7288ef5abdde20c6cfc36967cae27","97.97.31.17","Mozilla/5.0 (Macintosh; Intel Mac OS X 10_15_7) AppleWebKit/605.1.15 (KHTML, like Gecko) Version/16.4 Safari/605.1.15","Macintosh","Safari","16.4","OS X","10_15_7","null","<div style=""font-size:60px;"">+</div>","null",""
"","","","","","html-button-response","10","74045","0.0-3.0-1.3","12","1","2023-05-22 23:51:09","c5e7288ef5abdde20c6cfc36967cae27","97.97.31.17","Mozilla/5.0 (Macintosh; Intel Mac OS X 10_15_7) AppleWebKit/605.1.15 (KHTML, like Gecko) Version/16.4 Safari/605.1.15","Macintosh","Safari","16.4","OS X","10_15_7","1909","<p>As the military commander, you could choose to launch a missile to kill <strong>9 enemy soldiers</strong> , but would accidentally kill <strong>1 enemy tree</strong> nearby.</p> <p>The photo of the <strong>enemy tree</strong> is shown below.</p> <p></p> <img src='stimuli/tree/3.png', style='max-width: 30%;'> </img> <p><strong>Would you launch the weapon?</strong></p>","0",""
"","","","","","html-keyboard-response","11","75048","0.0-3.0-0.4","12","1","2023-05-22 23:51:09","c5e7288ef5abdde20c6cfc36967cae27","97.97.31.17","Mozilla/5.0 (Macintosh; Intel Mac OS X 10_15_7) AppleWebKit/605.1.15 (KHTML, like Gecko) Version/16.4 Safari/605.1.15","Macintosh","Safari","16.4","OS X","10_15_7","null","<div style=""font-size:60px;"">+</div>","null",""
"","","","","","html-button-response","12","76845","0.0-3.0-1.4","12","1","2023-05-22 23:51:09","c5e7288ef5abdde20c6cfc36967cae27","97.97.31.17","Mozilla/5.0 (Macintosh; Intel Mac OS X 10_15_7) AppleWebKit/605.1.15 (KHTML, like Gecko) Version/16.4 Safari/605.1.15","Macintosh","Safari","16.4","OS X","10_15_7","1791","<p>As the military commander, you could choose to launch a missile to kill <strong>10 enemy soldiers</strong> , but would accidentally kill <strong>1 enemy tree</strong> nearby.</p> <p>The photo of the <strong>enemy tree</strong> is shown below.</p> <p></p> <img src='stimuli/tree/5.png', style='max-width: 30%;'> </img> <p><strong>Would you launch the weapon?</strong></p>","0",""
"","","","","","html-keyboard-response","13","77849","0.0-3.0-0.5","12","1","2023-05-22 23:51:09","c5e7288ef5abdde20c6cfc36967cae27","97.97.31.17","Mozilla/5.0 (Macintosh; Intel Mac OS X 10_15_7) AppleWebKit/605.1.15 (KHTML, like Gecko) Version/16.4 Safari/605.1.15","Macintosh","Safari","16.4","OS X","10_15_7","null","<div style=""font-size:60px;"">+</div>","null",""
"","","","","","html-button-response","14","78945","0.0-3.0-1.5","12","1","2023-05-22 23:51:09","c5e7288ef5abdde20c6cfc36967cae27","97.97.31.17","Mozilla/5.0 (Macintosh; Intel Mac OS X 10_15_7) AppleWebKit/605.1.15 (KHTML, like Gecko) Version/16.4 Safari/605.1.15","Macintosh","Safari","16.4","OS X","10_15_7","1089","<p>As the military commander, you could choose to launch a missile to kill <strong>1 enemy soldier</strong> , but would accidentally kill <strong>1 enemy civilian</strong> nearby.</p> <p>The photo of the <strong>enemy civilian</strong> is shown below.</p> <p></p> <img src='stimuli/faces/NCM6.jpg', style='max-width: 30%;'> </img> <p><strong>Would you launch the weapon?</strong></p>","1",""
"","","","","","html-keyboard-response","15","79949","0.0-3.0-0.6","12","1","2023-05-22 23:51:09","c5e7288ef5abdde20c6cfc36967cae27","97.97.31.17","Mozilla/5.0 (Macintosh; Intel Mac OS X 10_15_7) AppleWebKit/605.1.15 (KHTML, like Gecko) Version/16.4 Safari/605.1.15","Macintosh","Safari","16.4","OS X","10_15_7","null","<div style=""font-size:60px;"">+</div>","null",""
"","","","","","html-button-response","16","82521","0.0-3.0-1.6","12","1","2023-05-22 23:51:09","c5e7288ef5abdde20c6cfc36967cae27","97.97.31.17","Mozilla/5.0 (Macintosh; Intel Mac OS X 10_15_7) AppleWebKit/605.1.15 (KHTML, like Gecko) Version/16.4 Safari/605.1.15","Macintosh","Safari","16.4","OS X","10_15_7","2568","<p>As the military commander, you could choose to launch a missile to kill <strong>7 enemy soldiers</strong> , but would accidentally kill <strong>1 enemy tree</strong> nearby.</p> <p>The photo of the <strong>enemy tree</strong> is shown below.</p> <p></p> <img src='stimuli/tree/1.png', style='max-width: 30%;'> </img> <p><strong>Would you launch the weapon?</strong></p>","0",""
"","","","","","html-keyboard-response","17","83525","0.0-3.0-0.7","12","1","2023-05-22 23:51:09","c5e7288ef5abdde20c6cfc36967cae27","97.97.31.17","Mozilla/5.0 (Macintosh; Intel Mac OS X 10_15_7) AppleWebKit/605.1.15 (KHTML, like Gecko) Version/16.4 Safari/605.1.15","Macintosh","Safari","16.4","OS X","10_15_7","null","<div style=""font-size:60px;"">+</div>","null",""
"","","","","","html-button-response","18","85092","0.0-3.0-1.7","12","1","2023-05-22 23:51:09","c5e7288ef5abdde20c6cfc36967cae27","97.97.31.17","Mozilla/5.0 (Macintosh; Intel Mac OS X 10_15_7) AppleWebKit/605.1.15 (KHTML, like Gecko) Version/16.4 Safari/605.1.15","Macintosh","Safari","16.4","OS X","10_15_7","1561","<p>As the military commander, you could choose to launch a missile to kill <strong>10 enemy soldiers</strong> , but would accidentally kill <strong>1 enemy civilian</strong> nearby.</p> <p>The photo of the <strong>enemy civilian</strong> is shown below.</p> <p></p> <img src='stimuli/faces/NCM4.jpg', style='max-width: 30%;'> </img> <p><strong>Would you launch the weapon?</strong></p>","1",""
"","","","","","html-keyboard-response","19","86097","0.0-3.0-0.8","12","1","2023-05-22 23:51:09","c5e7288ef5abdde20c6cfc36967cae27","97.97.31.17","Mozilla/5.0 (Macintosh; Intel Mac OS X 10_15_7) AppleWebKit/605.1.15 (KHTML, like Gecko) Version/16.4 Safari/605.1.15","Macintosh","Safari","16.4","OS X","10_15_7","null","<div style=""font-size:60px;"">+</div>","null",""
"","","","","","html-button-response","20","88088","0.0-3.0-1.8","12","1","2023-05-22 23:51:09","c5e7288ef5abdde20c6cfc36967cae27","97.97.31.17","Mozilla/5.0 (Macintosh; Intel Mac OS X 10_15_7) AppleWebKit/605.1.15 (KHTML, like Gecko) Version/16.4 Safari/605.1.15","Macintosh","Safari","16.4","OS X","10_15_7","1984","<p>As the military commander, you could choose to launch a missile to kill <strong>3 enemy soldiers</strong> , but would accidentally kill <strong>1 enemy tree</strong> nearby.</p> <p>The photo of the <strong>enemy tree</strong> is shown below.</p> <p></p> <img src='stimuli/tree/5.png', style='max-width: 30%;'> </img> <p><strong>Would you launch the weapon?</strong></p>","0",""
"","","","","","html-keyboard-response","21","89092","0.0-3.0-0.9","12","1","2023-05-22 23:51:09","c5e7288ef5abdde20c6cfc36967cae27","97.97.31.17","Mozilla/5.0 (Macintosh; Intel Mac OS X 10_15_7) AppleWebKit/605.1.15 (KHTML, like Gecko) Version/16.4 Safari/605.1.15","Macintosh","Safari","16.4","OS X","10_15_7","null","<div style=""font-size:60px;"">+</div>","null",""
"","","","","","html-button-response","22","91872","0.0-3.0-1.9","12","1","2023-05-22 23:51:09","c5e7288ef5abdde20c6cfc36967cae27","97.97.31.17","Mozilla/5.0 (Macintosh; Intel Mac OS X 10_15_7) AppleWebKit/605.1.15 (KHTML, like Gecko) Version/16.4 Safari/605.1.15","Macintosh","Safari","16.4","OS X","10_15_7","2774","<p>As the military commander, you could choose to launch a missile to kill <strong>5 enemy soldiers</strong> , but would accidentally kill <strong>1 enemy tree</strong> nearby.</p> <p>The photo of the <strong>enemy tree</strong> is shown below.</p> <p></p> <img src='stimuli/tree/4.png', style='max-width: 30%;'> </img> <p><strong>Would you launch the weapon?</strong></p>","1",""
"","","","","","html-keyboard-response","23","92878","0.0-3.0-0.10","12","1","2023-05-22 23:51:09","c5e7288ef5abdde20c6cfc36967cae27","97.97.31.17","Mozilla/5.0 (Macintosh; Intel Mac OS X 10_15_7) AppleWebKit/605.1.15 (KHTML, like Gecko) Version/16.4 Safari/605.1.15","Macintosh","Safari","16.4","OS X","10_15_7","null","<div style=""font-size:60px;"">+</div>","null",""
"","","","","","html-button-response","24","93939","0.0-3.0-1.10","12","1","2023-05-22 23:51:09","c5e7288ef5abdde20c6cfc36967cae27","97.97.31.17","Mozilla/5.0 (Macintosh; Intel Mac OS X 10_15_7) AppleWebKit/605.1.15 (KHTML, like Gecko) Version/16.4 Safari/605.1.15","Macintosh","Safari","16.4","OS X","10_15_7","1054","<p>As the military commander, you could choose to launch a missile to kill <strong>1 enemy soldier</strong> , but would accidentally kill <strong>1 enemy tree</strong> nearby.</p> <p>The photo of the <strong>enemy tree</strong> is shown below.</p> <p></p> <img src='stimuli/tree/15.png', style='max-width: 30%;'> </img> <p><strong>Would you launch the weapon?</strong></p>","0",""
"","","","","","html-keyboard-response","25","94945","0.0-3.0-0.11","12","1","2023-05-22 23:51:09","c5e7288ef5abdde20c6cfc36967cae27","97.97.31.17","Mozilla/5.0 (Macintosh; Intel Mac OS X 10_15_7) AppleWebKit/605.1.15 (KHTML, like Gecko) Version/16.4 Safari/605.1.15","Macintosh","Safari","16.4","OS X","10_15_7","null","<div style=""font-size:60px;"">+</div>","null",""
"","","","","","html-button-response","26","96971","0.0-3.0-1.11","12","1","2023-05-22 23:51:09","c5e7288ef5abdde20c6cfc36967cae27","97.97.31.17","Mozilla/5.0 (Macintosh; Intel Mac OS X 10_15_7) AppleWebKit/605.1.15 (KHTML, like Gecko) Version/16.4 Safari/605.1.15","Macintosh","Safari","16.4","OS X","10_15_7","2019","<p>As the military commander, you could choose to launch a missile to kill <strong>1 enemy soldier</strong> , but would accidentally kill <strong>1 enemy tree</strong> nearby.</p> <p>The photo of the <strong>enemy tree</strong> is shown below.</p> <p></p> <img src='stimuli/tree/11.png', style='max-width: 30%;'> </img> <p><strong>Would you launch the weapon?</strong></p>","0",""
"","","","","","html-keyboard-response","27","97977","0.0-3.0-0.12","12","1","2023-05-22 23:51:09","c5e7288ef5abdde20c6cfc36967cae27","97.97.31.17","Mozilla/5.0 (Macintosh; Intel Mac OS X 10_15_7) AppleWebKit/605.1.15 (KHTML, like Gecko) Version/16.4 Safari/605.1.15","Macintosh","Safari","16.4","OS X","10_15_7","null","<div style=""font-size:60px;"">+</div>","null",""
"","","","","","html-button-response","28","99437","0.0-3.0-1.12","12","1","2023-05-22 23:51:09","c5e7288ef5abdde20c6cfc36967cae27","97.97.31.17","Mozilla/5.0 (Macintosh; Intel Mac OS X 10_15_7) AppleWebKit/605.1.15 (KHTML, like Gecko) Version/16.4 Safari/605.1.15","Macintosh","Safari","16.4","OS X","10_15_7","1454","<p>As the military commander, you could choose to launch a missile to kill <strong>9 enemy soldiers</strong> , but would accidentally kill <strong>1 enemy tree</strong> nearby.</p> <p>The photo of the <strong>enemy tree</strong> is shown below.</p> <p></p> <img src='stimuli/tree/6.png', style='max-width: 30%;'> </img> <p><strong>Would you launch the weapon?</strong></p>","0",""
"","","","","","html-keyboard-response","29","100442","0.0-3.0-0.13","12","1","2023-05-22 23:51:09","c5e7288ef5abdde20c6cfc36967cae27","97.97.31.17","Mozilla/5.0 (Macintosh; Intel Mac OS X 10_15_7) AppleWebKit/605.1.15 (KHTML, like Gecko) Version/16.4 Safari/605.1.15","Macintosh","Safari","16.4","OS X","10_15_7","null","<div style=""font-size:60px;"">+</div>","null",""
"","","","","","html-button-response","30","102467","0.0-3.0-1.13","12","1","2023-05-22 23:51:09","c5e7288ef5abdde20c6cfc36967cae27","97.97.31.17","Mozilla/5.0 (Macintosh; Intel Mac OS X 10_15_7) AppleWebKit/605.1.15 (KHTML, like Gecko) Version/16.4 Safari/605.1.15","Macintosh","Safari","16.4","OS X","10_15_7","2019","<p>As the military commander, you could choose to launch a missile to kill <strong>8 enemy soldiers</strong> , but would accidentally kill <strong>1 enemy tree</strong> nearby.</p> <p>The photo of the <strong>enemy tree</strong> is shown below.</p> <p></p> <img src='stimuli/tree/12.png', style='max-width: 30%;'> </img> <p><strong>Would you launch the weapon?</strong></p>","0",""
"","","","","","html-keyboard-response","31","103471","0.0-3.0-0.14","12","1","2023-05-22 23:51:09","c5e7288ef5abdde20c6cfc36967cae27","97.97.31.17","Mozilla/5.0 (Macintosh; Intel Mac OS X 10_15_7) AppleWebKit/605.1.15 (KHTML, like Gecko) Version/16.4 Safari/605.1.15","Macintosh","Safari","16.4","OS X","10_15_7","null","<div style=""font-size:60px;"">+</div>","null",""
"","","","","","html-button-response","32","104497","0.0-3.0-1.14","12","1","2023-05-22 23:51:09","c5e7288ef5abdde20c6cfc36967cae27","97.97.31.17","Mozilla/5.0 (Macintosh; Intel Mac OS X 10_15_7) AppleWebKit/605.1.15 (KHTML, like Gecko) Version/16.4 Safari/605.1.15","Macintosh","Safari","16.4","OS X","10_15_7","1019","<p>As the military commander, you could choose to launch a missile to kill <strong>5 enemy soldiers</strong> , but would accidentally kill <strong>1 enemy civilian</strong> nearby.</p> <p>The photo of the <strong>enemy civilian</strong> is shown below.</p> <p></p> <img src='stimuli/faces/NCM1.jpg', style='max-width: 30%;'> </img> <p><strong>Would you launch the weapon?</strong></p>","1",""
"","","","","","html-keyboard-response","33","105501","0.0-3.0-0.15","12","1","2023-05-22 23:51:09","c5e7288ef5abdde20c6cfc36967cae27","97.97.31.17","Mozilla/5.0 (Macintosh; Intel Mac OS X 10_15_7) AppleWebKit/605.1.15 (KHTML, like Gecko) Version/16.4 Safari/605.1.15","Macintosh","Safari","16.4","OS X","10_15_7","null","<div style=""font-size:60px;"">+</div>","null",""
"","","","","","html-button-response","34","108348","0.0-3.0-1.15","12","1","2023-05-22 23:51:09","c5e7288ef5abdde20c6cfc36967cae27","97.97.31.17","Mozilla/5.0 (Macintosh; Intel Mac OS X 10_15_7) AppleWebKit/605.1.15 (KHTML, like Gecko) Version/16.4 Safari/605.1.15","Macintosh","Safari","16.4","OS X","10_15_7","2840","<p>As the military commander, you could choose to launch a missile to kill <strong>10 enemy soldiers</strong> , but would accidentally kill <strong>1 enemy tree</strong> nearby.</p> <p>The photo of the <strong>enemy tree</strong> is shown below.</p> <p></p> <img src='stimuli/tree/9.png', style='max-width: 30%;'> </img> <p><strong>Would you launch the weapon?</strong></p>","0",""
"","","","","","html-keyboard-response","35","109352","0.0-3.0-0.16","12","1","2023-05-22 23:51:09","c5e7288ef5abdde20c6cfc36967cae27","97.97.31.17","Mozilla/5.0 (Macintosh; Intel Mac OS X 10_15_7) AppleWebKit/605.1.15 (KHTML, like Gecko) Version/16.4 Safari/605.1.15","Macintosh","Safari","16.4","OS X","10_15_7","null","<div style=""font-size:60px;"">+</div>","null",""
"","","","","","html-button-response","36","110580","0.0-3.0-1.16","12","1","2023-05-22 23:51:09","c5e7288ef5abdde20c6cfc36967cae27","97.97.31.17","Mozilla/5.0 (Macintosh; Intel Mac OS X 10_15_7) AppleWebKit/605.1.15 (KHTML, like Gecko) Version/16.4 Safari/605.1.15","Macintosh","Safari","16.4","OS X","10_15_7","1222","<p>As the military commander, you could choose to launch a missile to kill <strong>2 enemy soldiers</strong> , but would accidentally kill <strong>1 enemy civilian</strong> nearby.</p> <p>The photo of the <strong>enemy civilian</strong> is shown below.</p> <p></p> <img src='stimuli/faces/NCM4.jpg', style='max-width: 30%;'> </img> <p><strong>Would you launch the weapon?</strong></p>","1",""
"","","","","","html-keyboard-response","37","111585","0.0-3.0-0.17","12","1","2023-05-22 23:51:09","c5e7288ef5abdde20c6cfc36967cae27","97.97.31.17","Mozilla/5.0 (Macintosh; Intel Mac OS X 10_15_7) AppleWebKit/605.1.15 (KHTML, like Gecko) Version/16.4 Safari/605.1.15","Macintosh","Safari","16.4","OS X","10_15_7","null","<div style=""font-size:60px;"">+</div>","null",""
"","","","","","html-button-response","38","112799","0.0-3.0-1.17","12","1","2023-05-22 23:51:09","c5e7288ef5abdde20c6cfc36967cae27","97.97.31.17","Mozilla/5.0 (Macintosh; Intel Mac OS X 10_15_7) AppleWebKit/605.1.15 (KHTML, like Gecko) Version/16.4 Safari/605.1.15","Macintosh","Safari","16.4","OS X","10_15_7","1207","<p>As the military commander, you could choose to launch a missile to kill <strong>7 enemy soldiers</strong> , but would accidentally kill <strong>1 enemy civilian</strong> nearby.</p> <p>The photo of the <strong>enemy civilian</strong> is shown below.</p> <p></p> <img src='stimuli/faces/NCM8.jpg', style='max-width: 30%;'> </img> <p><strong>Would you launch the weapon?</strong></p>","1",""
"","","","","","html-keyboard-response","39","113804","0.0-3.0-0.18","12","1","2023-05-22 23:51:09","c5e7288ef5abdde20c6cfc36967cae27","97.97.31.17","Mozilla/5.0 (Macintosh; Intel Mac OS X 10_15_7) AppleWebKit/605.1.15 (KHTML, like Gecko) Version/16.4 Safari/605.1.15","Macintosh","Safari","16.4","OS X","10_15_7","null","<div style=""font-size:60px;"">+</div>","null",""
"","","","","","html-button-response","40","114899","0.0-3.0-1.18","12","1","2023-05-22 23:51:09","c5e7288ef5abdde20c6cfc36967cae27","97.97.31.17","Mozilla/5.0 (Macintosh; Intel Mac OS X 10_15_7) AppleWebKit/605.1.15 (KHTML, like Gecko) Version/16.4 Safari/605.1.15","Macintosh","Safari","16.4","OS X","10_15_7","1088","<p>As the military commander, you could choose to launch a missile to kill <strong>10 enemy soldiers</strong> , but would accidentally kill <strong>1 enemy civilian</strong> nearby.</p> <p>The photo of the <strong>enemy civilian</strong> is shown below.</p> <p></p> <img src='stimuli/faces/NCF1.jpg', style='max-width: 30%;'> </img> <p><strong>Would you launch the weapon?</strong></p>","1",""
"","","","","","html-keyboard-response","41","115904","0.0-3.0-0.19","12","1","2023-05-22 23:51:09","c5e7288ef5abdde20c6cfc36967cae27","97.97.31.17","Mozilla/5.0 (Macintosh; Intel Mac OS X 10_15_7) AppleWebKit/605.1.15 (KHTML, like Gecko) Version/16.4 Safari/605.1.15","Macintosh","Safari","16.4","OS X","10_15_7","null","<div style=""font-size:60px;"">+</div>","null",""
"","","","","","html-button-response","42","117213","0.0-3.0-1.19","12","1","2023-05-22 23:51:09","c5e7288ef5abdde20c6cfc36967cae27","97.97.31.17","Mozilla/5.0 (Macintosh; Intel Mac OS X 10_15_7) AppleWebKit/605.1.15 (KHTML, like Gecko) Version/16.4 Safari/605.1.15","Macintosh","Safari","16.4","OS X","10_15_7","1303","<p>As the military commander, you could choose to launch a missile to kill <strong>2 enemy soldiers</strong> , but would accidentally kill <strong>1 enemy civilian</strong> nearby.</p> <p>The photo of the <strong>enemy civilian</strong> is shown below.</p> <p></p> <img src='stimuli/faces/NCM3.jpg', style='max-width: 30%;'> </img> <p><strong>Would you launch the weapon?</strong></p>","1",""
"","","","","","html-keyboard-response","43","118218","0.0-3.0-0.20","12","1","2023-05-22 23:51:09","c5e7288ef5abdde20c6cfc36967cae27","97.97.31.17","Mozilla/5.0 (Macintosh; Intel Mac OS X 10_15_7) AppleWebKit/605.1.15 (KHTML, like Gecko) Version/16.4 Safari/605.1.15","Macintosh","Safari","16.4","OS X","10_15_7","null","<div style=""font-size:60px;"">+</div>","null",""
"","","","","","html-button-response","44","119581","0.0-3.0-1.20","12","1","2023-05-22 23:51:09","c5e7288ef5abdde20c6cfc36967cae27","97.97.31.17","Mozilla/5.0 (Macintosh; Intel Mac OS X 10_15_7) AppleWebKit/605.1.15 (KHTML, like Gecko) Version/16.4 Safari/605.1.15","Macintosh","Safari","16.4","OS X","10_15_7","1356","<p>As the military commander, you could choose to launch a missile to kill <strong>2 enemy soldiers</strong> , but would accidentally kill <strong>1 enemy tree</strong> nearby.</p> <p>The photo of the <strong>enemy tree</strong> is shown below.</p> <p></p> <img src='stimuli/tree/12.png', style='max-width: 30%;'> </img> <p><strong>Would you launch the weapon?</strong></p>","0",""
"","","","","","html-keyboard-response","45","120585","0.0-3.0-0.21","12","1","2023-05-22 23:51:09","c5e7288ef5abdde20c6cfc36967cae27","97.97.31.17","Mozilla/5.0 (Macintosh; Intel Mac OS X 10_15_7) AppleWebKit/605.1.15 (KHTML, like Gecko) Version/16.4 Safari/605.1.15","Macintosh","Safari","16.4","OS X","10_15_7","null","<div style=""font-size:60px;"">+</div>","null",""
"","","","","","html-button-response","46","121230","0.0-3.0-1.21","12","1","2023-05-22 23:51:09","c5e7288ef5abdde20c6cfc36967cae27","97.97.31.17","Mozilla/5.0 (Macintosh; Intel Mac OS X 10_15_7) AppleWebKit/605.1.15 (KHTML, like Gecko) Version/16.4 Safari/605.1.15","Macintosh","Safari","16.4","OS X","10_15_7","638","<p>As the military commander, you could choose to launch a missile to kill <strong>1 enemy soldier</strong> , but would accidentally kill <strong>1 enemy tree</strong> nearby.</p> <p>The photo of the <strong>enemy tree</strong> is shown below.</p> <p></p> <img src='stimuli/tree/9.png', style='max-width: 30%;'> </img> <p><strong>Would you launch the weapon?</strong></p>","0",""
"","","","","","html-keyboard-response","47","122235","0.0-3.0-0.22","12","1","2023-05-22 23:51:09","c5e7288ef5abdde20c6cfc36967cae27","97.97.31.17","Mozilla/5.0 (Macintosh; Intel Mac OS X 10_15_7) AppleWebKit/605.1.15 (KHTML, like Gecko) Version/16.4 Safari/605.1.15","Macintosh","Safari","16.4","OS X","10_15_7","null","<div style=""font-size:60px;"">+</div>","null",""
"","","","","","html-button-response","48","122846","0.0-3.0-1.22","12","1","2023-05-22 23:51:09","c5e7288ef5abdde20c6cfc36967cae27","97.97.31.17","Mozilla/5.0 (Macintosh; Intel Mac OS X 10_15_7) AppleWebKit/605.1.15 (KHTML, like Gecko) Version/16.4 Safari/605.1.15","Macintosh","Safari","16.4","OS X","10_15_7","604","<p>As the military commander, you could choose to launch a missile to kill <strong>9 enemy soldiers</strong> , but would accidentally kill <strong>1 enemy civilian</strong> nearby.</p> <p>The photo of the <strong>enemy civilian</strong> is shown below.</p> <p></p> <img src='stimuli/faces/NCF5.jpg', style='max-width: 30%;'> </img> <p><strong>Would you launch the weapon?</strong></p>","0",""
"","","","","","html-keyboard-response","49","123851","0.0-3.0-0.23","12","1","2023-05-22 23:51:09","c5e7288ef5abdde20c6cfc36967cae27","97.97.31.17","Mozilla/5.0 (Macintosh; Intel Mac OS X 10_15_7) AppleWebKit/605.1.15 (KHTML, like Gecko) Version/16.4 Safari/605.1.15","Macintosh","Safari","16.4","OS X","10_15_7","null","<div style=""font-size:60px;"">+</div>","null",""
"","","","","","html-button-response","50","124613","0.0-3.0-1.23","12","1","2023-05-22 23:51:09","c5e7288ef5abdde20c6cfc36967cae27","97.97.31.17","Mozilla/5.0 (Macintosh; Intel Mac OS X 10_15_7) AppleWebKit/605.1.15 (KHTML, like Gecko) Version/16.4 Safari/605.1.15","Macintosh","Safari","16.4","OS X","10_15_7","756","<p>As the military commander, you could choose to launch a missile to kill <strong>7 enemy soldiers</strong> , but would accidentally kill <strong>1 enemy tree</strong> nearby.</p> <p>The photo of the <strong>enemy tree</strong> is shown below.</p> <p></p> <img src='stimuli/tree/11.png', style='max-width: 30%;'> </img> <p><strong>Would you launch the weapon?</strong></p>","0",""
"","","","","","html-keyboard-response","51","125617","0.0-3.0-0.24","12","1","2023-05-22 23:51:09","c5e7288ef5abdde20c6cfc36967cae27","97.97.31.17","Mozilla/5.0 (Macintosh; Intel Mac OS X 10_15_7) AppleWebKit/605.1.15 (KHTML, like Gecko) Version/16.4 Safari/605.1.15","Macintosh","Safari","16.4","OS X","10_15_7","null","<div style=""font-size:60px;"">+</div>","null",""
"","","","","","html-button-response","52","126326","0.0-3.0-1.24","12","1","2023-05-22 23:51:09","c5e7288ef5abdde20c6cfc36967cae27","97.97.31.17","Mozilla/5.0 (Macintosh; Intel Mac OS X 10_15_7) AppleWebKit/605.1.15 (KHTML, like Gecko) Version/16.4 Safari/605.1.15","Macintosh","Safari","16.4","OS X","10_15_7","702","<p>As the military commander, you could choose to launch a missile to kill <strong>5 enemy soldiers</strong> , but would accidentally kill <strong>1 enemy civilian</strong> nearby.</p> <p>The photo of the <strong>enemy civilian</strong> is shown below.</p> <p></p> <img src='stimuli/faces/NCM8.jpg', style='max-width: 30%;'> </img> <p><strong>Would you launch the weapon?</strong></p>","1",""
"","","","","","html-keyboard-response","53","127330","0.0-3.0-0.25","12","1","2023-05-22 23:51:09","c5e7288ef5abdde20c6cfc36967cae27","97.97.31.17","Mozilla/5.0 (Macintosh; Intel Mac OS X 10_15_7) AppleWebKit/605.1.15 (KHTML, like Gecko) Version/16.4 Safari/605.1.15","Macintosh","Safari","16.4","OS X","10_15_7","null","<div style=""font-size:60px;"">+</div>","null",""
"","","","","","html-button-response","54","127961","0.0-3.0-1.25","12","1","2023-05-22 23:51:09","c5e7288ef5abdde20c6cfc36967cae27","97.97.31.17","Mozilla/5.0 (Macintosh; Intel Mac OS X 10_15_7) AppleWebKit/605.1.15 (KHTML, like Gecko) Version/16.4 Safari/605.1.15","Macintosh","Safari","16.4","OS X","10_15_7","624","<p>As the military commander, you could choose to launch a missile to kill <strong>4 enemy soldiers</strong> , but would accidentally kill <strong>1 enemy civilian</strong> nearby.</p> <p>The photo of the <strong>enemy civilian</strong> is shown below.</p> <p></p> <img src='stimuli/faces/NCF4.jpg', style='max-width: 30%;'> </img> <p><strong>Would you launch the weapon?</strong></p>","1",""
"","","","","","html-keyboard-response","55","128967","0.0-3.0-0.26","12","1","2023-05-22 23:51:09","c5e7288ef5abdde20c6cfc36967cae27","97.97.31.17","Mozilla/5.0 (Macintosh; Intel Mac OS X 10_15_7) AppleWebKit/605.1.15 (KHTML, like Gecko) Version/16.4 Safari/605.1.15","Macintosh","Safari","16.4","OS X","10_15_7","null","<div style=""font-size:60px;"">+</div>","null",""
"","","","","","html-button-response","56","129711","0.0-3.0-1.26","12","1","2023-05-22 23:51:09","c5e7288ef5abdde20c6cfc36967cae27","97.97.31.17","Mozilla/5.0 (Macintosh; Intel Mac OS X 10_15_7) AppleWebKit/605.1.15 (KHTML, like Gecko) Version/16.4 Safari/605.1.15","Macintosh","Safari","16.4","OS X","10_15_7","736","<p>As the military commander, you could choose to launch a missile to kill <strong>4 enemy soldiers</strong> , but would accidentally kill <strong>1 enemy tree</strong> nearby.</p> <p>The photo of the <strong>enemy tree</strong> is shown below.</p> <p></p> <img src='stimuli/tree/16.png', style='max-width: 30%;'> </img> <p><strong>Would you launch the weapon?</strong></p>","0",""
"","","","","","html-keyboard-response","57","130716","0.0-3.0-0.27","12","1","2023-05-22 23:51:09","c5e7288ef5abdde20c6cfc36967cae27","97.97.31.17","Mozilla/5.0 (Macintosh; Intel Mac OS X 10_15_7) AppleWebKit/605.1.15 (KHTML, like Gecko) Version/16.4 Safari/605.1.15","Macintosh","Safari","16.4","OS X","10_15_7","null","<div style=""font-size:60px;"">+</div>","null",""
"","","","","","html-button-response","58","131342","0.0-3.0-1.27","12","1","2023-05-22 23:51:09","c5e7288ef5abdde20c6cfc36967cae27","97.97.31.17","Mozilla/5.0 (Macintosh; Intel Mac OS X 10_15_7) AppleWebKit/605.1.15 (KHTML, like Gecko) Version/16.4 Safari/605.1.15","Macintosh","Safari","16.4","OS X","10_15_7","619","<p>As the military commander, you could choose to launch a missile to kill <strong>6 enemy soldiers</strong> , but would accidentally kill <strong>1 enemy tree</strong> nearby.</p> <p>The photo of the <strong>enemy tree</strong> is shown below.</p> <p></p> <img src='stimuli/tree/13.png', style='max-width: 30%;'> </img> <p><strong>Would you launch the weapon?</strong></p>","0",""
"","","","","","html-keyboard-response","59","132348","0.0-3.0-0.28","12","1","2023-05-22 23:51:09","c5e7288ef5abdde20c6cfc36967cae27","97.97.31.17","Mozilla/5.0 (Macintosh; Intel Mac OS X 10_15_7) AppleWebKit/605.1.15 (KHTML, like Gecko) Version/16.4 Safari/605.1.15","Macintosh","Safari","16.4","OS X","10_15_7","null","<div style=""font-size:60px;"">+</div>","null",""
"","","","","","html-button-response","60","132974","0.0-3.0-1.28","12","1","2023-05-22 23:51:09","c5e7288ef5abdde20c6cfc36967cae27","97.97.31.17","Mozilla/5.0 (Macintosh; Intel Mac OS X 10_15_7) AppleWebKit/605.1.15 (KHTML, like Gecko) Version/16.4 Safari/605.1.15","Macintosh","Safari","16.4","OS X","10_15_7","620","<p>As the military commander, you could choose to launch a missile to kill <strong>10 enemy soldiers</strong> , but would accidentally kill <strong>1 enemy tree</strong> nearby.</p> <p>The photo of the <strong>enemy tree</strong> is shown below.</p> <p></p> <img src='stimuli/tree/8.png', style='max-width: 30%;'> </img> <p><strong>Would you launch the weapon?</strong></p>","0",""
"","","","","","html-keyboard-response","61","133979","0.0-3.0-0.29","12","1","2023-05-22 23:51:09","c5e7288ef5abdde20c6cfc36967cae27","97.97.31.17","Mozilla/5.0 (Macintosh; Intel Mac OS X 10_15_7) AppleWebKit/605.1.15 (KHTML, like Gecko) Version/16.4 Safari/605.1.15","Macintosh","Safari","16.4","OS X","10_15_7","null","<div style=""font-size:60px;"">+</div>","null",""
"","","","","","html-button-response","62","134559","0.0-3.0-1.29","12","1","2023-05-22 23:51:09","c5e7288ef5abdde20c6cfc36967cae27","97.97.31.17","Mozilla/5.0 (Macintosh; Intel Mac OS X 10_15_7) AppleWebKit/605.1.15 (KHTML, like Gecko) Version/16.4 Safari/605.1.15","Macintosh","Safari","16.4","OS X","10_15_7","572","<p>As the military commander, you could choose to launch a missile to kill <strong>2 enemy soldiers</strong> , but would accidentally kill <strong>1 enemy tree</strong> nearby.</p> <p>The photo of the <strong>enemy tree</strong> is shown below.</p> <p></p> <img src='stimuli/tree/1.png', style='max-width: 30%;'> </img> <p><strong>Would you launch the weapon?</strong></p>","0",""
"","","","","","html-keyboard-response","63","135565","0.0-3.0-0.30","12","1","2023-05-22 23:51:09","c5e7288ef5abdde20c6cfc36967cae27","97.97.31.17","Mozilla/5.0 (Macintosh; Intel Mac OS X 10_15_7) AppleWebKit/605.1.15 (KHTML, like Gecko) Version/16.4 Safari/605.1.15","Macintosh","Safari","16.4","OS X","10_15_7","null","<div style=""font-size:60px;"">+</div>","null",""
"","","","","","html-button-response","64","136156","0.0-3.0-1.30","12","1","2023-05-22 23:51:09","c5e7288ef5abdde20c6cfc36967cae27","97.97.31.17","Mozilla/5.0 (Macintosh; Intel Mac OS X 10_15_7) AppleWebKit/605.1.15 (KHTML, like Gecko) Version/16.4 Safari/605.1.15","Macintosh","Safari","16.4","OS X","10_15_7","583","<p>As the military commander, you could choose to launch a missile to kill <strong>10 enemy soldiers</strong> , but would accidentally kill <strong>1 enemy civilian</strong> nearby.</p> <p>The photo of the <strong>enemy civilian</strong> is shown below.</p> <p></p> <img src='stimuli/faces/NCM7.jpg', style='max-width: 30%;'> </img> <p><strong>Would you launch the weapon?</strong></p>","1",""
"","","","","","html-keyboard-response","65","137161","0.0-3.0-0.31","12","1","2023-05-22 23:51:09","c5e7288ef5abdde20c6cfc36967cae27","97.97.31.17","Mozilla/5.0 (Macintosh; Intel Mac OS X 10_15_7) AppleWebKit/605.1.15 (KHTML, like Gecko) Version/16.4 Safari/605.1.15","Macintosh","Safari","16.4","OS X","10_15_7","null","<div style=""font-size:60px;"">+</div>","null",""
"","","","","","html-button-response","66","137690","0.0-3.0-1.31","12","1","2023-05-22 23:51:09","c5e7288ef5abdde20c6cfc36967cae27","97.97.31.17","Mozilla/5.0 (Macintosh; Intel Mac OS X 10_15_7) AppleWebKit/605.1.15 (KHTML, like Gecko) Version/16.4 Safari/605.1.15","Macintosh","Safari","16.4","OS X","10_15_7","521","<p>As the military commander, you could choose to launch a missile to kill <strong>1 enemy soldier</strong> , but would accidentally kill <strong>1 enemy civilian</strong> nearby.</p> <p>The photo of the <strong>enemy civilian</strong> is shown below.</p> <p></p> <img src='stimuli/faces/NCF3.jpg', style='max-width: 30%;'> </img> <p><strong>Would you launch the weapon?</strong></p>","1",""
"","","","","","html-keyboard-response","67","138694","0.0-3.0-0.32","12","1","2023-05-22 23:51:09","c5e7288ef5abdde20c6cfc36967cae27","97.97.31.17","Mozilla/5.0 (Macintosh; Intel Mac OS X 10_15_7) AppleWebKit/605.1.15 (KHTML, like Gecko) Version/16.4 Safari/605.1.15","Macintosh","Safari","16.4","OS X","10_15_7","null","<div style=""font-size:60px;"">+</div>","null",""
"","","","","","html-button-response","68","139420","0.0-3.0-1.32","12","1","2023-05-22 23:51:09","c5e7288ef5abdde20c6cfc36967cae27","97.97.31.17","Mozilla/5.0 (Macintosh; Intel Mac OS X 10_15_7) AppleWebKit/605.1.15 (KHTML, like Gecko) Version/16.4 Safari/605.1.15","Macintosh","Safari","16.4","OS X","10_15_7","718","<p>As the military commander, you could choose to launch a missile to kill <strong>4 enemy soldiers</strong> , but would accidentally kill <strong>1 enemy tree</strong> nearby.</p> <p>The photo of the <strong>enemy tree</strong> is shown below.</p> <p></p> <img src='stimuli/tree/7.png', style='max-width: 30%;'> </img> <p><strong>Would you launch the weapon?</strong></p>","0",""
"","","","","","html-keyboard-response","69","140425","0.0-3.0-0.33","12","1","2023-05-22 23:51:09","c5e7288ef5abdde20c6cfc36967cae27","97.97.31.17","Mozilla/5.0 (Macintosh; Intel Mac OS X 10_15_7) AppleWebKit/605.1.15 (KHTML, like Gecko) Version/16.4 Safari/605.1.15","Macintosh","Safari","16.4","OS X","10_15_7","null","<div style=""font-size:60px;"">+</div>","null",""
"","","","","","html-button-response","70","140923","0.0-3.0-1.33","12","1","2023-05-22 23:51:09","c5e7288ef5abdde20c6cfc36967cae27","97.97.31.17","Mozilla/5.0 (Macintosh; Intel Mac OS X 10_15_7) AppleWebKit/605.1.15 (KHTML, like Gecko) Version/16.4 Safari/605.1.15","Macintosh","Safari","16.4","OS X","10_15_7","491","<p>As the military commander, you could choose to launch a missile to kill <strong>8 enemy soldiers</strong> , but would accidentally kill <strong>1 enemy tree</strong> nearby.</p> <p>The photo of the <strong>enemy tree</strong> is shown below.</p> <p></p> <img src='stimuli/tree/7.png', style='max-width: 30%;'> </img> <p><strong>Would you launch the weapon?</strong></p>","0",""
"","","","","","html-keyboard-response","71","141929","0.0-3.0-0.34","12","1","2023-05-22 23:51:09","c5e7288ef5abdde20c6cfc36967cae27","97.97.31.17","Mozilla/5.0 (Macintosh; Intel Mac OS X 10_15_7) AppleWebKit/605.1.15 (KHTML, like Gecko) Version/16.4 Safari/605.1.15","Macintosh","Safari","16.4","OS X","10_15_7","null","<div style=""font-size:60px;"">+</div>","null",""
"","","","","","html-button-response","72","143040","0.0-3.0-1.34","12","1","2023-05-22 23:51:09","c5e7288ef5abdde20c6cfc36967cae27","97.97.31.17","Mozilla/5.0 (Macintosh; Intel Mac OS X 10_15_7) AppleWebKit/605.1.15 (KHTML, like Gecko) Version/16.4 Safari/605.1.15","Macintosh","Safari","16.4","OS X","10_15_7","1103","<p>As the military commander, you could choose to launch a missile to kill <strong>5 enemy soldiers</strong> , but would accidentally kill <strong>1 enemy tree</strong> nearby.</p> <p>The photo of the <strong>enemy tree</strong> is shown below.</p> <p></p> <img src='stimuli/tree/2.png', style='max-width: 30%;'> </img> <p><strong>Would you launch the weapon?</strong></p>","0",""
"","","","","","html-keyboard-response","73","144046","0.0-3.0-0.35","12","1","2023-05-22 23:51:09","c5e7288ef5abdde20c6cfc36967cae27","97.97.31.17","Mozilla/5.0 (Macintosh; Intel Mac OS X 10_15_7) AppleWebKit/605.1.15 (KHTML, like Gecko) Version/16.4 Safari/605.1.15","Macintosh","Safari","16.4","OS X","10_15_7","null","<div style=""font-size:60px;"">+</div>","null",""
"","","","","","html-button-response","74","144986","0.0-3.0-1.35","12","1","2023-05-22 23:51:09","c5e7288ef5abdde20c6cfc36967cae27","97.97.31.17","Mozilla/5.0 (Macintosh; Intel Mac OS X 10_15_7) AppleWebKit/605.1.15 (KHTML, like Gecko) Version/16.4 Safari/605.1.15","Macintosh","Safari","16.4","OS X","10_15_7","931","<p>As the military commander, you could choose to launch a missile to kill <strong>3 enemy soldiers</strong> , but would accidentally kill <strong>1 enemy civilian</strong> nearby.</p> <p>The photo of the <strong>enemy civilian</strong> is shown below.</p> <p></p> <img src='stimuli/faces/NCF1.jpg', style='max-width: 30%;'> </img> <p><strong>Would you launch the weapon?</strong></p>","1",""
"","","","","","html-keyboard-response","75","145992","0.0-3.0-0.36","12","1","2023-05-22 23:51:09","c5e7288ef5abdde20c6cfc36967cae27","97.97.31.17","Mozilla/5.0 (Macintosh; Intel Mac OS X 10_15_7) AppleWebKit/605.1.15 (KHTML, like Gecko) Version/16.4 Safari/605.1.15","Macintosh","Safari","16.4","OS X","10_15_7","null","<div style=""font-size:60px;"">+</div>","null",""
"","","","","","html-button-response","76","146705","0.0-3.0-1.36","12","1","2023-05-22 23:51:09","c5e7288ef5abdde20c6cfc36967cae27","97.97.31.17","Mozilla/5.0 (Macintosh; Intel Mac OS X 10_15_7) AppleWebKit/605.1.15 (KHTML, like Gecko) Version/16.4 Safari/605.1.15","Macintosh","Safari","16.4","OS X","10_15_7","705","<p>As the military commander, you could choose to launch a missile to kill <strong>6 enemy soldiers</strong> , but would accidentally kill <strong>1 enemy tree</strong> nearby.</p> <p>The photo of the <strong>enemy tree</strong> is shown below.</p> <p></p> <img src='stimuli/tree/14.png', style='max-width: 30%;'> </img> <p><strong>Would you launch the weapon?</strong></p>","0",""
"","","","","","html-keyboard-response","77","147711","0.0-3.0-0.37","12","1","2023-05-22 23:51:09","c5e7288ef5abdde20c6cfc36967cae27","97.97.31.17","Mozilla/5.0 (Macintosh; Intel Mac OS X 10_15_7) AppleWebKit/605.1.15 (KHTML, like Gecko) Version/16.4 Safari/605.1.15","Macintosh","Safari","16.4","OS X","10_15_7","null","<div style=""font-size:60px;"">+</div>","null",""
"","","","","","html-button-response","78","148281","0.0-3.0-1.37","12","1","2023-05-22 23:51:09","c5e7288ef5abdde20c6cfc36967cae27","97.97.31.17","Mozilla/5.0 (Macintosh; Intel Mac OS X 10_15_7) AppleWebKit/605.1.15 (KHTML, like Gecko) Version/16.4 Safari/605.1.15","Macintosh","Safari","16.4","OS X","10_15_7","566","<p>As the military commander, you could choose to launch a missile to kill <strong>7 enemy soldiers</strong> , but would accidentally kill <strong>1 enemy civilian</strong> nearby.</p> <p>The photo of the <strong>enemy civilian</strong> is shown below.</p> <p></p> <img src='stimuli/faces/NCF3.jpg', style='max-width: 30%;'> </img> <p><strong>Would you launch the weapon?</strong></p>","1",""
"","","","","","html-keyboard-response","79","149284","0.0-3.0-0.38","12","1","2023-05-22 23:51:09","c5e7288ef5abdde20c6cfc36967cae27","97.97.31.17","Mozilla/5.0 (Macintosh; Intel Mac OS X 10_15_7) AppleWebKit/605.1.15 (KHTML, like Gecko) Version/16.4 Safari/605.1.15","Macintosh","Safari","16.4","OS X","10_15_7","null","<div style=""font-size:60px;"">+</div>","null",""
"","","","","","html-button-response","80","150205","0.0-3.0-1.38","12","1","2023-05-22 23:51:09","c5e7288ef5abdde20c6cfc36967cae27","97.97.31.17","Mozilla/5.0 (Macintosh; Intel Mac OS X 10_15_7) AppleWebKit/605.1.15 (KHTML, like Gecko) Version/16.4 Safari/605.1.15","Macintosh","Safari","16.4","OS X","10_15_7","896","<p>As the military commander, you could choose to launch a missile to kill <strong>5 enemy soldiers</strong> , but would accidentally kill <strong>1 enemy civilian</strong> nearby.</p> <p>The photo of the <strong>enemy civilian</strong> is shown below.</p> <p></p> <img src='stimuli/faces/NCM5.jpg', style='max-width: 30%;'> </img> <p><strong>Would you launch the weapon?</strong></p>","1",""
"","","","","","html-keyboard-response","81","151212","0.0-3.0-0.39","12","1","2023-05-22 23:51:09","c5e7288ef5abdde20c6cfc36967cae27","97.97.31.17","Mozilla/5.0 (Macintosh; Intel Mac OS X 10_15_7) AppleWebKit/605.1.15 (KHTML, like Gecko) Version/16.4 Safari/605.1.15","Macintosh","Safari","16.4","OS X","10_15_7","null","<div style=""font-size:60px;"">+</div>","null",""
"","","","","","html-button-response","82","151904","0.0-3.0-1.39","12","1","2023-05-22 23:51:09","c5e7288ef5abdde20c6cfc36967cae27","97.97.31.17","Mozilla/5.0 (Macintosh; Intel Mac OS X 10_15_7) AppleWebKit/605.1.15 (KHTML, like Gecko) Version/16.4 Safari/605.1.15","Macintosh","Safari","16.4","OS X","10_15_7","682","<p>As the military commander, you could choose to launch a missile to kill <strong>8 enemy soldiers</strong> , but would accidentally kill <strong>1 enemy tree</strong> nearby.</p> <p>The photo of the <strong>enemy tree</strong> is shown below.</p> <p></p> <img src='stimuli/tree/2.png', style='max-width: 30%;'> </img> <p><strong>Would you launch the weapon?</strong></p>","0",""
"","","","","","html-keyboard-response","83","152911","0.0-3.0-0.40","12","1","2023-05-22 23:51:09","c5e7288ef5abdde20c6cfc36967cae27","97.97.31.17","Mozilla/5.0 (Macintosh; Intel Mac OS X 10_15_7) AppleWebKit/605.1.15 (KHTML, like Gecko) Version/16.4 Safari/605.1.15","Macintosh","Safari","16.4","OS X","10_15_7","null","<div style=""font-size:60px;"">+</div>","null",""
"","","","","","html-button-response","84","154137","0.0-3.0-1.40","12","1","2023-05-22 23:51:09","c5e7288ef5abdde20c6cfc36967cae27","97.97.31.17","Mozilla/5.0 (Macintosh; Intel Mac OS X 10_15_7) AppleWebKit/605.1.15 (KHTML, like Gecko) Version/16.4 Safari/605.1.15","Macintosh","Safari","16.4","OS X","10_15_7","1216","<p>As the military commander, you could choose to launch a missile to kill <strong>7 enemy soldiers</strong> , but would accidentally kill <strong>1 enemy civilian</strong> nearby.</p> <p>The photo of the <strong>enemy civilian</strong> is shown below.</p> <p></p> <img src='stimuli/faces/NCM6.jpg', style='max-width: 30%;'> </img> <p><strong>Would you launch the weapon?</strong></p>","1",""
"","","","","","html-keyboard-response","85","155143","0.0-3.0-0.41","12","1","2023-05-22 23:51:09","c5e7288ef5abdde20c6cfc36967cae27","97.97.31.17","Mozilla/5.0 (Macintosh; Intel Mac OS X 10_15_7) AppleWebKit/605.1.15 (KHTML, like Gecko) Version/16.4 Safari/605.1.15","Macintosh","Safari","16.4","OS X","10_15_7","null","<div style=""font-size:60px;"">+</div>","null",""
"","","","","","html-button-response","86","155952","0.0-3.0-1.41","12","1","2023-05-22 23:51:09","c5e7288ef5abdde20c6cfc36967cae27","97.97.31.17","Mozilla/5.0 (Macintosh; Intel Mac OS X 10_15_7) AppleWebKit/605.1.15 (KHTML, like Gecko) Version/16.4 Safari/605.1.15","Macintosh","Safari","16.4","OS X","10_15_7","799","<p>As the military commander, you could choose to launch a missile to kill <strong>9 enemy soldiers</strong> , but would accidentally kill <strong>1 enemy civilian</strong> nearby.</p> <p>The photo of the <strong>enemy civilian</strong> is shown below.</p> <p></p> <img src='stimuli/faces/NCF7.jpg', style='max-width: 30%;'> </img> <p><strong>Would you launch the weapon?</strong></p>","1",""
"","","","","","html-keyboard-response","87","156958","0.0-3.0-0.42","12","1","2023-05-22 23:51:09","c5e7288ef5abdde20c6cfc36967cae27","97.97.31.17","Mozilla/5.0 (Macintosh; Intel Mac OS X 10_15_7) AppleWebKit/605.1.15 (KHTML, like Gecko) Version/16.4 Safari/605.1.15","Macintosh","Safari","16.4","OS X","10_15_7","null","<div style=""font-size:60px;"">+</div>","null",""
"","","","","","html-button-response","88","158402","0.0-3.0-1.42","12","1","2023-05-22 23:51:09","c5e7288ef5abdde20c6cfc36967cae27","97.97.31.17","Mozilla/5.0 (Macintosh; Intel Mac OS X 10_15_7) AppleWebKit/605.1.15 (KHTML, like Gecko) Version/16.4 Safari/605.1.15","Macintosh","Safari","16.4","OS X","10_15_7","1433","<p>As the military commander, you could choose to launch a missile to kill <strong>8 enemy soldiers</strong> , but would accidentally kill <strong>1 enemy tree</strong> nearby.</p> <p>The photo of the <strong>enemy tree</strong> is shown below.</p> <p></p> <img src='stimuli/tree/10.png', style='max-width: 30%;'> </img> <p><strong>Would you launch the weapon?</strong></p>","0",""
"","","","","","html-keyboard-response","89","159409","0.0-3.0-0.43","12","1","2023-05-22 23:51:09","c5e7288ef5abdde20c6cfc36967cae27","97.97.31.17","Mozilla/5.0 (Macintosh; Intel Mac OS X 10_15_7) AppleWebKit/605.1.15 (KHTML, like Gecko) Version/16.4 Safari/605.1.15","Macintosh","Safari","16.4","OS X","10_15_7","null","<div style=""font-size:60px;"">+</div>","null",""
"","","","","","html-button-response","90","160300","0.0-3.0-1.43","12","1","2023-05-22 23:51:09","c5e7288ef5abdde20c6cfc36967cae27","97.97.31.17","Mozilla/5.0 (Macintosh; Intel Mac OS X 10_15_7) AppleWebKit/605.1.15 (KHTML, like Gecko) Version/16.4 Safari/605.1.15","Macintosh","Safari","16.4","OS X","10_15_7","882","<p>As the military commander, you could choose to launch a missile to kill <strong>4 enemy soldiers</strong> , but would accidentally kill <strong>1 enemy tree</strong> nearby.</p> <p>The photo of the <strong>enemy tree</strong> is shown below.</p> <p></p> <img src='stimuli/tree/10.png', style='max-width: 30%;'> </img> <p><strong>Would you launch the weapon?</strong></p>","0",""
"","","","","","html-keyboard-response","91","161307","0.0-3.0-0.44","12","1","2023-05-22 23:51:09","c5e7288ef5abdde20c6cfc36967cae27","97.97.31.17","Mozilla/5.0 (Macintosh; Intel Mac OS X 10_15_7) AppleWebKit/605.1.15 (KHTML, like Gecko) Version/16.4 Safari/605.1.15","Macintosh","Safari","16.4","OS X","10_15_7","null","<div style=""font-size:60px;"">+</div>","null",""
"","","","","","html-button-response","92","161900","0.0-3.0-1.44","12","1","2023-05-22 23:51:09","c5e7288ef5abdde20c6cfc36967cae27","97.97.31.17","Mozilla/5.0 (Macintosh; Intel Mac OS X 10_15_7) AppleWebKit/605.1.15 (KHTML, like Gecko) Version/16.4 Safari/605.1.15","Macintosh","Safari","16.4","OS X","10_15_7","584","<p>As the military commander, you could choose to launch a missile to kill <strong>1 enemy soldier</strong> , but would accidentally kill <strong>1 enemy tree</strong> nearby.</p> <p>The photo of the <strong>enemy tree</strong> is shown below.</p> <p></p> <img src='stimuli/tree/14.png', style='max-width: 30%;'> </img> <p><strong>Would you launch the weapon?</strong></p>","0",""
"","","","","","html-keyboard-response","93","162906","0.0-3.0-0.45","12","1","2023-05-22 23:51:09","c5e7288ef5abdde20c6cfc36967cae27","97.97.31.17","Mozilla/5.0 (Macintosh; Intel Mac OS X 10_15_7) AppleWebKit/605.1.15 (KHTML, like Gecko) Version/16.4 Safari/605.1.15","Macintosh","Safari","16.4","OS X","10_15_7","null","<div style=""font-size:60px;"">+</div>","null",""
"","","","","","html-button-response","94","163500","0.0-3.0-1.45","12","1","2023-05-22 23:51:09","c5e7288ef5abdde20c6cfc36967cae27","97.97.31.17","Mozilla/5.0 (Macintosh; Intel Mac OS X 10_15_7) AppleWebKit/605.1.15 (KHTML, like Gecko) Version/16.4 Safari/605.1.15","Macintosh","Safari","16.4","OS X","10_15_7","584","<p>As the military commander, you could choose to launch a missile to kill <strong>2 enemy soldiers</strong> , but would accidentally kill <strong>1 enemy civilian</strong> nearby.</p> <p>The photo of the <strong>enemy civilian</strong> is shown below.</p> <p></p> <img src='stimuli/faces/NCF7.jpg', style='max-width: 30%;'> </img> <p><strong>Would you launch the weapon?</strong></p>","1",""
"","","","","","html-keyboard-response","95","164506","0.0-3.0-0.46","12","1","2023-05-22 23:51:09","c5e7288ef5abdde20c6cfc36967cae27","97.97.31.17","Mozilla/5.0 (Macintosh; Intel Mac OS X 10_15_7) AppleWebKit/605.1.15 (KHTML, like Gecko) Version/16.4 Safari/605.1.15","Macintosh","Safari","16.4","OS X","10_15_7","null","<div style=""font-size:60px;"">+</div>","null",""
"","","","","","html-button-response","96","169715","0.0-3.0-1.46","12","1","2023-05-22 23:51:09","c5e7288ef5abdde20c6cfc36967cae27","97.97.31.17","Mozilla/5.0 (Macintosh; Intel Mac OS X 10_15_7) AppleWebKit/605.1.15 (KHTML, like Gecko) Version/16.4 Safari/605.1.15","Macintosh","Safari","16.4","OS X","10_15_7","5199","<p>As the military commander, you could choose to launch a missile to kill <strong>5 enemy soldiers</strong> , but would accidentally kill <strong>1 enemy civilian</strong> nearby.</p> <p>The photo of the <strong>enemy civilian</strong> is shown below.</p> <p></p> <img src='stimuli/faces/NCF5.jpg', style='max-width: 30%;'> </img> <p><strong>Would you launch the weapon?</strong></p>","1",""
"","","","","","html-keyboard-response","97","170720","0.0-3.0-0.47","12","1","2023-05-22 23:51:09","c5e7288ef5abdde20c6cfc36967cae27","97.97.31.17","Mozilla/5.0 (Macintosh; Intel Mac OS X 10_15_7) AppleWebKit/605.1.15 (KHTML, like Gecko) Version/16.4 Safari/605.1.15","Macintosh","Safari","16.4","OS X","10_15_7","null","<div style=""font-size:60px;"">+</div>","null",""
"","","","","","html-button-response","98","176663","0.0-3.0-1.47","12","1","2023-05-22 23:51:09","c5e7288ef5abdde20c6cfc36967cae27","97.97.31.17","Mozilla/5.0 (Macintosh; Intel Mac OS X 10_15_7) AppleWebKit/605.1.15 (KHTML, like Gecko) Version/16.4 Safari/605.1.15","Macintosh","Safari","16.4","OS X","10_15_7","5932","<p>As the military commander, you could choose to launch a missile to kill <strong>2 enemy soldiers</strong> , but would accidentally kill <strong>1 enemy civilian</strong> nearby.</p> <p>The photo of the <strong>enemy civilian</strong> is shown below.</p> <p></p> <img src='stimuli/faces/NCM2.jpg', style='max-width: 30%;'> </img> <p><strong>Would you launch the weapon?</strong></p>","1",""
"","","","","","html-keyboard-response","99","177670","0.0-3.0-0.48","12","1","2023-05-22 23:51:09","c5e7288ef5abdde20c6cfc36967cae27","97.97.31.17","Mozilla/5.0 (Macintosh; Intel Mac OS X 10_15_7) AppleWebKit/605.1.15 (KHTML, like Gecko) Version/16.4 Safari/605.1.15","Macintosh","Safari","16.4","OS X","10_15_7","null","<div style=""font-size:60px;"">+</div>","null",""
"","","","","","html-button-response","100","178261","0.0-3.0-1.48","12","1","2023-05-22 23:51:09","c5e7288ef5abdde20c6cfc36967cae27","97.97.31.17","Mozilla/5.0 (Macintosh; Intel Mac OS X 10_15_7) AppleWebKit/605.1.15 (KHTML, like Gecko) Version/16.4 Safari/605.1.15","Macintosh","Safari","16.4","OS X","10_15_7","587","<p>As the military commander, you could choose to launch a missile to kill <strong>7 enemy soldiers</strong> , but would accidentally kill <strong>1 enemy civilian</strong> nearby.</p> <p>The photo of the <strong>enemy civilian</strong> is shown below.</p> <p></p> <img src='stimuli/faces/NCM3.jpg', style='max-width: 30%;'> </img> <p><strong>Would you launch the weapon?</strong></p>","1",""
"","","","","","html-keyboard-response","101","179268","0.0-3.0-0.49","12","1","2023-05-22 23:51:09","c5e7288ef5abdde20c6cfc36967cae27","97.97.31.17","Mozilla/5.0 (Macintosh; Intel Mac OS X 10_15_7) AppleWebKit/605.1.15 (KHTML, like Gecko) Version/16.4 Safari/605.1.15","Macintosh","Safari","16.4","OS X","10_15_7","null","<div style=""font-size:60px;"">+</div>","null",""
"","","","","","html-button-response","102","181158","0.0-3.0-1.49","12","1","2023-05-22 23:51:09","c5e7288ef5abdde20c6cfc36967cae27","97.97.31.17","Mozilla/5.0 (Macintosh; Intel Mac OS X 10_15_7) AppleWebKit/605.1.15 (KHTML, like Gecko) Version/16.4 Safari/605.1.15","Macintosh","Safari","16.4","OS X","10_15_7","1880","<p>As the military commander, you could choose to launch a missile to kill <strong>8 enemy soldiers</strong> , but would accidentally kill <strong>1 enemy civilian</strong> nearby.</p> <p>The photo of the <strong>enemy civilian</strong> is shown below.</p> <p></p> <img src='stimuli/faces/NCF8.jpg', style='max-width: 30%;'> </img> <p><strong>Would you launch the weapon?</strong></p>","1",""
"","","","","","html-keyboard-response","103","182164","0.0-3.0-0.50","12","1","2023-05-22 23:51:09","c5e7288ef5abdde20c6cfc36967cae27","97.97.31.17","Mozilla/5.0 (Macintosh; Intel Mac OS X 10_15_7) AppleWebKit/605.1.15 (KHTML, like Gecko) Version/16.4 Safari/605.1.15","Macintosh","Safari","16.4","OS X","10_15_7","null","<div style=""font-size:60px;"">+</div>","null",""
"","","","","","html-button-response","104","182726","0.0-3.0-1.50","12","1","2023-05-22 23:51:09","c5e7288ef5abdde20c6cfc36967cae27","97.97.31.17","Mozilla/5.0 (Macintosh; Intel Mac OS X 10_15_7) AppleWebKit/605.1.15 (KHTML, like Gecko) Version/16.4 Safari/605.1.15","Macintosh","Safari","16.4","OS X","10_15_7","553","<p>As the military commander, you could choose to launch a missile to kill <strong>9 enemy soldiers</strong> , but would accidentally kill <strong>1 enemy civilian</strong> nearby.</p> <p>The photo of the <strong>enemy civilian</strong> is shown below.</p> <p></p> <img src='stimuli/faces/NCM1.jpg', style='max-width: 30%;'> </img> <p><strong>Would you launch the weapon?</strong></p>","1",""
"","","","","","html-keyboard-response","105","183733","0.0-3.0-0.51","12","1","2023-05-22 23:51:09","c5e7288ef5abdde20c6cfc36967cae27","97.97.31.17","Mozilla/5.0 (Macintosh; Intel Mac OS X 10_15_7) AppleWebKit/605.1.15 (KHTML, like Gecko) Version/16.4 Safari/605.1.15","Macintosh","Safari","16.4","OS X","10_15_7","null","<div style=""font-size:60px;"">+</div>","null",""
"","","","","","html-button-response","106","184473","0.0-3.0-1.51","12","1","2023-05-22 23:51:09","c5e7288ef5abdde20c6cfc36967cae27","97.97.31.17","Mozilla/5.0 (Macintosh; Intel Mac OS X 10_15_7) AppleWebKit/605.1.15 (KHTML, like Gecko) Version/16.4 Safari/605.1.15","Macintosh","Safari","16.4","OS X","10_15_7","726","<p>As the military commander, you could choose to launch a missile to kill <strong>10 enemy soldiers</strong> , but would accidentally kill <strong>1 enemy tree</strong> nearby.</p> <p>The photo of the <strong>enemy tree</strong> is shown below.</p> <p></p> <img src='stimuli/tree/15.png', style='max-width: 30%;'> </img> <p><strong>Would you launch the weapon?</strong></p>","0",""
"","","","","","html-keyboard-response","107","185479","0.0-3.0-0.52","12","1","2023-05-22 23:51:09","c5e7288ef5abdde20c6cfc36967cae27","97.97.31.17","Mozilla/5.0 (Macintosh; Intel Mac OS X 10_15_7) AppleWebKit/605.1.15 (KHTML, like Gecko) Version/16.4 Safari/605.1.15","Macintosh","Safari","16.4","OS X","10_15_7","null","<div style=""font-size:60px;"">+</div>","null",""
"","","","","","html-button-response","108","186209","0.0-3.0-1.52","12","1","2023-05-22 23:51:09","c5e7288ef5abdde20c6cfc36967cae27","97.97.31.17","Mozilla/5.0 (Macintosh; Intel Mac OS X 10_15_7) AppleWebKit/605.1.15 (KHTML, like Gecko) Version/16.4 Safari/605.1.15","Macintosh","Safari","16.4","OS X","10_15_7","719","<p>As the military commander, you could choose to launch a missile to kill <strong>7 enemy soldiers</strong> , but would accidentally kill <strong>1 enemy civilian</strong> nearby.</p> <p>The photo of the <strong>enemy civilian</strong> is shown below.</p> <p></p> <img src='stimuli/faces/NCM2.jpg', style='max-width: 30%;'> </img> <p><strong>Would you launch the weapon?</strong></p>","1",""
"","","","","","html-keyboard-response","109","187216","0.0-3.0-0.53","12","1","2023-05-22 23:51:09","c5e7288ef5abdde20c6cfc36967cae27","97.97.31.17","Mozilla/5.0 (Macintosh; Intel Mac OS X 10_15_7) AppleWebKit/605.1.15 (KHTML, like Gecko) Version/16.4 Safari/605.1.15","Macintosh","Safari","16.4","OS X","10_15_7","null","<div style=""font-size:60px;"">+</div>","null",""
"","","","","","html-button-response","110","187841","0.0-3.0-1.53","12","1","2023-05-22 23:51:09","c5e7288ef5abdde20c6cfc36967cae27","97.97.31.17","Mozilla/5.0 (Macintosh; Intel Mac OS X 10_15_7) AppleWebKit/605.1.15 (KHTML, like Gecko) Version/16.4 Safari/605.1.15","Macintosh","Safari","16.4","OS X","10_15_7","615","<p>As the military commander, you could choose to launch a missile to kill <strong>1 enemy soldier</strong> , but would accidentally kill <strong>1 enemy civilian</strong> nearby.</p> <p>The photo of the <strong>enemy civilian</strong> is shown below.</p> <p></p> <img src='stimuli/faces/NCF8.jpg', style='max-width: 30%;'> </img> <p><strong>Would you launch the weapon?</strong></p>","1",""
"","","","","","html-keyboard-response","111","188847","0.0-3.0-0.54","12","1","2023-05-22 23:51:09","c5e7288ef5abdde20c6cfc36967cae27","97.97.31.17","Mozilla/5.0 (Macintosh; Intel Mac OS X 10_15_7) AppleWebKit/605.1.15 (KHTML, like Gecko) Version/16.4 Safari/605.1.15","Macintosh","Safari","16.4","OS X","10_15_7","null","<div style=""font-size:60px;"">+</div>","null",""
"","","","","","html-button-response","112","189357","0.0-3.0-1.54","12","1","2023-05-22 23:51:09","c5e7288ef5abdde20c6cfc36967cae27","97.97.31.17","Mozilla/5.0 (Macintosh; Intel Mac OS X 10_15_7) AppleWebKit/605.1.15 (KHTML, like Gecko) Version/16.4 Safari/605.1.15","Macintosh","Safari","16.4","OS X","10_15_7","495","<p>As the military commander, you could choose to launch a missile to kill <strong>10 enemy soldiers</strong> , but would accidentally kill <strong>1 enemy civilian</strong> nearby.</p> <p>The photo of the <strong>enemy civilian</strong> is shown below.</p> <p></p> <img src='stimuli/faces/NCM5.jpg', style='max-width: 30%;'> </img> <p><strong>Would you launch the weapon?</strong></p>","1",""
"","","","","","html-keyboard-response","113","190365","0.0-3.0-0.55","12","1","2023-05-22 23:51:09","c5e7288ef5abdde20c6cfc36967cae27","97.97.31.17","Mozilla/5.0 (Macintosh; Intel Mac OS X 10_15_7) AppleWebKit/605.1.15 (KHTML, like Gecko) Version/16.4 Safari/605.1.15","Macintosh","Safari","16.4","OS X","10_15_7","null","<div style=""font-size:60px;"">+</div>","null",""
"","","","","","html-button-response","114","190957","0.0-3.0-1.55","12","1","2023-05-22 23:51:09","c5e7288ef5abdde20c6cfc36967cae27","97.97.31.17","Mozilla/5.0 (Macintosh; Intel Mac OS X 10_15_7) AppleWebKit/605.1.15 (KHTML, like Gecko) Version/16.4 Safari/605.1.15","Macintosh","Safari","16.4","OS X","10_15_7","582","<p>As the military commander, you could choose to launch a missile to kill <strong>1 enemy soldier</strong> , but would accidentally kill <strong>1 enemy civilian</strong> nearby.</p> <p>The photo of the <strong>enemy civilian</strong> is shown below.</p> <p></p> <img src='stimuli/faces/NCF6.jpg', style='max-width: 30%;'> </img> <p><strong>Would you launch the weapon?</strong></p>","1",""
"","","","","","html-keyboard-response","115","191965","0.0-3.0-0.56","12","1","2023-05-22 23:51:09","c5e7288ef5abdde20c6cfc36967cae27","97.97.31.17","Mozilla/5.0 (Macintosh; Intel Mac OS X 10_15_7) AppleWebKit/605.1.15 (KHTML, like Gecko) Version/16.4 Safari/605.1.15","Macintosh","Safari","16.4","OS X","10_15_7","null","<div style=""font-size:60px;"">+</div>","null",""
"","","","","","html-button-response","116","192725","0.0-3.0-1.56","12","1","2023-05-22 23:51:09","c5e7288ef5abdde20c6cfc36967cae27","97.97.31.17","Mozilla/5.0 (Macintosh; Intel Mac OS X 10_15_7) AppleWebKit/605.1.15 (KHTML, like Gecko) Version/16.4 Safari/605.1.15","Macintosh","Safari","16.4","OS X","10_15_7","745","<p>As the military commander, you could choose to launch a missile to kill <strong>4 enemy soldiers</strong> , but would accidentally kill <strong>1 enemy civilian</strong> nearby.</p> <p>The photo of the <strong>enemy civilian</strong> is shown below.</p> <p></p> <img src='stimuli/faces/NCF2.jpg', style='max-width: 30%;'> </img> <p><strong>Would you launch the weapon?</strong></p>","1",""
"","","","","","html-keyboard-response","117","193733","0.0-3.0-0.57","12","1","2023-05-22 23:51:09","c5e7288ef5abdde20c6cfc36967cae27","97.97.31.17","Mozilla/5.0 (Macintosh; Intel Mac OS X 10_15_7) AppleWebKit/605.1.15 (KHTML, like Gecko) Version/16.4 Safari/605.1.15","Macintosh","Safari","16.4","OS X","10_15_7","null","<div style=""font-size:60px;"">+</div>","null",""
"","","","","","html-button-response","118","194623","0.0-3.0-1.57","12","1","2023-05-22 23:51:09","c5e7288ef5abdde20c6cfc36967cae27","97.97.31.17","Mozilla/5.0 (Macintosh; Intel Mac OS X 10_15_7) AppleWebKit/605.1.15 (KHTML, like Gecko) Version/16.4 Safari/605.1.15","Macintosh","Safari","16.4","OS X","10_15_7","879","<p>As the military commander, you could choose to launch a missile to kill <strong>2 enemy soldiers</strong> , but would accidentally kill <strong>1 enemy civilian</strong> nearby.</p> <p>The photo of the <strong>enemy civilian</strong> is shown below.</p> <p></p> <img src='stimuli/faces/NCM7.jpg', style='max-width: 30%;'> </img> <p><strong>Would you launch the weapon?</strong></p>","1",""
"","","","","","html-keyboard-response","119","195630","0.0-3.0-0.58","12","1","2023-05-22 23:51:09","c5e7288ef5abdde20c6cfc36967cae27","97.97.31.17","Mozilla/5.0 (Macintosh; Intel Mac OS X 10_15_7) AppleWebKit/605.1.15 (KHTML, like Gecko) Version/16.4 Safari/605.1.15","Macintosh","Safari","16.4","OS X","10_15_7","null","<div style=""font-size:60px;"">+</div>","null",""
"","","","","","html-button-response","120","196205","0.0-3.0-1.58","12","1","2023-05-22 23:51:09","c5e7288ef5abdde20c6cfc36967cae27","97.97.31.17","Mozilla/5.0 (Macintosh; Intel Mac OS X 10_15_7) AppleWebKit/605.1.15 (KHTML, like Gecko) Version/16.4 Safari/605.1.15","Macintosh","Safari","16.4","OS X","10_15_7","567","<p>As the military commander, you could choose to launch a missile to kill <strong>9 enemy soldiers</strong> , but would accidentally kill <strong>1 enemy tree</strong> nearby.</p> <p>The photo of the <strong>enemy tree</strong> is shown below.</p> <p></p> <img src='stimuli/tree/4.png', style='max-width: 30%;'> </img> <p><strong>Would you launch the weapon?</strong></p>","1",""
"","","","","","html-keyboard-response","121","197212","0.0-3.0-0.59","12","1","2023-05-22 23:51:09","c5e7288ef5abdde20c6cfc36967cae27","97.97.31.17","Mozilla/5.0 (Macintosh; Intel Mac OS X 10_15_7) AppleWebKit/605.1.15 (KHTML, like Gecko) Version/16.4 Safari/605.1.15","Macintosh","Safari","16.4","OS X","10_15_7","null","<div style=""font-size:60px;"">+</div>","null",""
"","","","","","html-button-response","122","197805","0.0-3.0-1.59","12","1","2023-05-22 23:51:09","c5e7288ef5abdde20c6cfc36967cae27","97.97.31.17","Mozilla/5.0 (Macintosh; Intel Mac OS X 10_15_7) AppleWebKit/605.1.15 (KHTML, like Gecko) Version/16.4 Safari/605.1.15","Macintosh","Safari","16.4","OS X","10_15_7","581","<p>As the military commander, you could choose to launch a missile to kill <strong>6 enemy soldiers</strong> , but would accidentally kill <strong>1 enemy civilian</strong> nearby.</p> <p>The photo of the <strong>enemy civilian</strong> is shown below.</p> <p></p> <img src='stimuli/faces/NCF6.jpg', style='max-width: 30%;'> </img> <p><strong>Would you launch the weapon?</strong></p>","1",""
"","","","","","html-keyboard-response","123","198815","0.0-3.0-0.60","12","1","2023-05-22 23:51:09","c5e7288ef5abdde20c6cfc36967cae27","97.97.31.17","Mozilla/5.0 (Macintosh; Intel Mac OS X 10_15_7) AppleWebKit/605.1.15 (KHTML, like Gecko) Version/16.4 Safari/605.1.15","Macintosh","Safari","16.4","OS X","10_15_7","null","<div style=""font-size:60px;"">+</div>","null",""
"","","","","","html-button-response","124","199888","0.0-3.0-1.60","12","1","2023-05-22 23:51:09","c5e7288ef5abdde20c6cfc36967cae27","97.97.31.17","Mozilla/5.0 (Macintosh; Intel Mac OS X 10_15_7) AppleWebKit/605.1.15 (KHTML, like Gecko) Version/16.4 Safari/605.1.15","Macintosh","Safari","16.4","OS X","10_15_7","1062","<p>As the military commander, you could choose to launch a missile to kill <strong>2 enemy soldiers</strong> , but would accidentally kill <strong>1 enemy tree</strong> nearby.</p> <p>The photo of the <strong>enemy tree</strong> is shown below.</p> <p></p> <img src='stimuli/tree/13.png', style='max-width: 30%;'> </img> <p><strong>Would you launch the weapon?</strong></p>","0",""
"","","","","","html-keyboard-response","125","200895","0.0-3.0-0.61","12","1","2023-05-22 23:51:09","c5e7288ef5abdde20c6cfc36967cae27","97.97.31.17","Mozilla/5.0 (Macintosh; Intel Mac OS X 10_15_7) AppleWebKit/605.1.15 (KHTML, like Gecko) Version/16.4 Safari/605.1.15","Macintosh","Safari","16.4","OS X","10_15_7","null","<div style=""font-size:60px;"">+</div>","null",""
"","","","","","html-button-response","126","201503","0.0-3.0-1.61","12","1","2023-05-22 23:51:09","c5e7288ef5abdde20c6cfc36967cae27","97.97.31.17","Mozilla/5.0 (Macintosh; Intel Mac OS X 10_15_7) AppleWebKit/605.1.15 (KHTML, like Gecko) Version/16.4 Safari/605.1.15","Macintosh","Safari","16.4","OS X","10_15_7","598","<p>As the military commander, you could choose to launch a missile to kill <strong>10 enemy soldiers</strong> , but would accidentally kill <strong>1 enemy tree</strong> nearby.</p> <p>The photo of the <strong>enemy tree</strong> is shown below.</p> <p></p> <img src='stimuli/tree/16.png', style='max-width: 30%;'> </img> <p><strong>Would you launch the weapon?</strong></p>","0",""
"","","","","","html-keyboard-response","127","202510","0.0-3.0-0.62","12","1","2023-05-22 23:51:09","c5e7288ef5abdde20c6cfc36967cae27","97.97.31.17","Mozilla/5.0 (Macintosh; Intel Mac OS X 10_15_7) AppleWebKit/605.1.15 (KHTML, like Gecko) Version/16.4 Safari/605.1.15","Macintosh","Safari","16.4","OS X","10_15_7","null","<div style=""font-size:60px;"">+</div>","null",""
"","","","","","html-button-response","128","203741","0.0-3.0-1.62","12","1","2023-05-22 23:51:09","c5e7288ef5abdde20c6cfc36967cae27","97.97.31.17","Mozilla/5.0 (Macintosh; Intel Mac OS X 10_15_7) AppleWebKit/605.1.15 (KHTML, like Gecko) Version/16.4 Safari/605.1.15","Macintosh","Safari","16.4","OS X","10_15_7","1219","<p>As the military commander, you could choose to launch a missile to kill <strong>6 enemy soldiers</strong> , but would accidentally kill <strong>1 enemy civilian</strong> nearby.</p> <p>The photo of the <strong>enemy civilian</strong> is shown below.</p> <p></p> <img src='stimuli/faces/NCF4.jpg', style='max-width: 30%;'> </img> <p><strong>Would you launch the weapon?</strong></p>","1",""
"","","","","","html-keyboard-response","129","204748","0.0-3.0-0.63","12","1","2023-05-22 23:51:09","c5e7288ef5abdde20c6cfc36967cae27","97.97.31.17","Mozilla/5.0 (Macintosh; Intel Mac OS X 10_15_7) AppleWebKit/605.1.15 (KHTML, like Gecko) Version/16.4 Safari/605.1.15","Macintosh","Safari","16.4","OS X","10_15_7","null","<div style=""font-size:60px;"">+</div>","null",""
"","","","","","html-button-response","130","205417","0.0-3.0-1.63","12","1","2023-05-22 23:51:09","c5e7288ef5abdde20c6cfc36967cae27","97.97.31.17","Mozilla/5.0 (Macintosh; Intel Mac OS X 10_15_7) AppleWebKit/605.1.15 (KHTML, like Gecko) Version/16.4 Safari/605.1.15","Macintosh","Safari","16.4","OS X","10_15_7","656","<p>As the military commander, you could choose to launch a missile to kill <strong>3 enemy soldiers</strong> , but would accidentally kill <strong>1 enemy tree</strong> nearby.</p> <p>The photo of the <strong>enemy tree</strong> is shown below.</p> <p></p> <img src='stimuli/tree/6.png', style='max-width: 30%;'> </img> <p><strong>Would you launch the weapon?</strong></p>","0",""
"","","","","","survey-multi-choice","131","230809","0.0-4.0","12","1","2023-05-22 23:51:09","c5e7288ef5abdde20c6cfc36967cae27","97.97.31.17","Mozilla/5.0 (Macintosh; Intel Mac OS X 10_15_7) AppleWebKit/605.1.15 (KHTML, like Gecko) Version/16.4 Safari/605.1.15","Macintosh","Safari","16.4","OS X","10_15_7","25376","","{""Attention1"":""""}","[0]"
"","","","","","html-button-response","132","232024","0.0-5.0","12","1","2023-05-22 23:51:09","c5e7288ef5abdde20c6cfc36967cae27","97.97.31.17","Mozilla/5.0 (Macintosh; Intel Mac OS X 10_15_7) AppleWebKit/605.1.15 (KHTML, like Gecko) Version/16.4 Safari/605.1.15","Macintosh","Safari","16.4","OS X","10_15_7","1208","<p style=""font-size:20px;font-weight:bold;"">Great!</p><p>You have finished the first part of the experiment!</p><p>Please relax a little bit and then contine to answer some questions regarding yourself.</p><p>The next part will take around 10 minutes to complete.</p>","0",""
"","","","","","survey-text","133","259307","0.0-6.0","12","1","2023-05-22 23:51:09","c5e7288ef5abdde20c6cfc36967cae27","97.97.31.17","Mozilla/5.0 (Macintosh; Intel Mac OS X 10_15_7) AppleWebKit/605.1.15 (KHTML, like Gecko) Version/16.4 Safari/605.1.15","Macintosh","Safari","16.4","OS X","10_15_7","26257","","{""Age"":""28"",""Nation"":""american"",""Born"":""usa"",""Live"":""usa""}",""
"","","","","","survey-multi-choice","134","270703","0.0-7.0","12","1","2023-05-22 23:51:09","c5e7288ef5abdde20c6cfc36967cae27","97.97.31.17","Mozilla/5.0 (Macintosh; Intel Mac OS X 10_15_7) AppleWebKit/605.1.15 (KHTML, like Gecko) Version/16.4 Safari/605.1.15","Macintosh","Safari","16.4","OS X","10_15_7","11387","","{""Gender"":""Female"",""Education"":""Associate Degree"",""Income"":""$70,000 - $99,999"",""Children"":""0"",""Ethnicity"":""White""}","[0,1,2,3,4]"
"","","","","","survey-multi-select","135","279592","0.0-8.0","12","1","2023-05-22 23:51:09","c5e7288ef5abdde20c6cfc36967cae27","97.97.31.17","Mozilla/5.0 (Macintosh; Intel Mac OS X 10_15_7) AppleWebKit/605.1.15 (KHTML, like Gecko) Version/16.4 Safari/605.1.15","Macintosh","Safari","16.4","OS X","10_15_7","8873","","{""Marriage"":[""Single""],""Religion"":[""Catholic""]}","[0,1]"
"","","","","","survey-multi-choice","136","282827","0.0-9.0","12","1","2023-05-22 23:51:09","c5e7288ef5abdde20c6cfc36967cae27","97.97.31.17","Mozilla/5.0 (Macintosh; Intel Mac OS X 10_15_7) AppleWebKit/605.1.15 (KHTML, like Gecko) Version/16.4 Safari/605.1.15","Macintosh","Safari","16.4","OS X","10_15_7","3228","","{""SES"":""5""}","[0]"
"","","","","","html-button-response","137","283840","0.0-10.0","12","1","2023-05-22 23:51:09","c5e7288ef5abdde20c6cfc36967cae27","97.97.31.17","Mozilla/5.0 (Macintosh; Intel Mac OS X 10_15_7) AppleWebKit/605.1.15 (KHTML, like Gecko) Version/16.4 Safari/605.1.15","Macintosh","Safari","16.4","OS X","10_15_7","1006","<p><strong>Please indicate the extent that the following statements could describe you.</p><p> (1 = ""extremely uncharacteristic of me"" to 5 = ""extremely characteristic of me"".)</strong></p>","0",""
"","","","","","survey-likert","138","303253","0.0-11.0","12","1","2023-05-22 23:51:09","c5e7288ef5abdde20c6cfc36967cae27","97.97.31.17","Mozilla/5.0 (Macintosh; Intel Mac OS X 10_15_7) AppleWebKit/605.1.15 (KHTML, like Gecko) Version/16.4 Safari/605.1.15","Macintosh","Safari","16.4","OS X","10_15_7","19401","","{""Aggression1"":0,""Aggression2"":0,""Aggression3"":0,""Aggression4"":0,""Aggression5"":0,""Aggression6"":0,""Aggression7"":4,""Aggression8"":0,""Aggression9"":0}","[0,1,2,3,4,5,6,7,8]"
"","","","","","html-button-response","139","304151","0.0-12.0","12","1","2023-05-22 23:51:09","c5e7288ef5abdde20c6cfc36967cae27","97.97.31.17","Mozilla/5.0 (Macintosh; Intel Mac OS X 10_15_7) AppleWebKit/605.1.15 (KHTML, like Gecko) Version/16.4 Safari/605.1.15","Macintosh","Safari","16.4","OS X","10_15_7","893","<p><strong>Please indicate the extent that the following statements could describe you. </strong></p><p><strong> (1 = ""Does not describe me well"" to 5 = ""Does decribe me well"".)</strong></p>","0",""
"","","","","","survey-likert","140","409485","0.0-13.0","12","1","2023-05-22 23:51:09","c5e7288ef5abdde20c6cfc36967cae27","97.97.31.17","Mozilla/5.0 (Macintosh; Intel Mac OS X 10_15_7) AppleWebKit/605.1.15 (KHTML, like Gecko) Version/16.4 Safari/605.1.15","Macintosh","Safari","16.4","OS X","10_15_7","105318","","{""pts6"":3,""pts2"":3,""ecs5"":3,""fs7"":2,""pds5"":3,""ecs4"":1,""pds1"":1,""fs5"":3,""ecs3"":3,""ecs2"":0,""ecs6"":3,""pds3"":3,""fs1"":2,""pds4"":1,""fs3"":1,""pts1"":0,""ecs1"":3,""pts7"":3,""fs4"":1,""pts5"":3,""ecs7"":3,""pts3"":3,""fs6"":3,""pds6"":0,""pds7"":3,""fs2"":3,""pds2"":1,""pts4"":0}","[24,7,17,25,18,13,5,15,8,3,19,12,0,16,6,2,1,27,11,20,21,10,22,23,26,4,9,14]"
"","","","","","html-button-response","141","417115","0.0-14.0","12","1","2023-05-22 23:51:09","c5e7288ef5abdde20c6cfc36967cae27","97.97.31.17","Mozilla/5.0 (Macintosh; Intel Mac OS X 10_15_7) AppleWebKit/605.1.15 (KHTML, like Gecko) Version/16.4 Safari/605.1.15","Macintosh","Safari","16.4","OS X","10_15_7","7617","<p><strong>Which of the following objects or statements do you have a positive or negative feeling towards? </strong></p><p><strong> (1 = ""Very negative"" to 7 = ""Very positive"") </strong></p>","0",""
"","","","","","survey-likert","142","458677","0.0-15.0","12","1","2023-05-22 23:51:09","c5e7288ef5abdde20c6cfc36967cae27","97.97.31.17","Mozilla/5.0 (Macintosh; Intel Mac OS X 10_15_7) AppleWebKit/605.1.15 (KHTML, like Gecko) Version/16.4 Safari/605.1.15","Macintosh","Safari","16.4","OS X","10_15_7","41552","","{""sdo9"":6,""sdo11"":6,""sdo15"":6,""sdo14"":6,""sdo1"":0,""sdo13"":6,""sdo16"":6,""sdo6"":0,""sdo3"":0,""sdo2"":0,""sdo8"":0,""sdo12"":6,""sdo7"":0,""sdo5"":0,""sdo4"":0,""sdo10"":6}","[8,10,14,13,0,12,15,5,2,1,7,11,6,4,3,9]"
"","","","","","html-button-response","143","459784","0.0-16.0","12","1","2023-05-22 23:51:09","c5e7288ef5abdde20c6cfc36967cae27","97.97.31.17","Mozilla/5.0 (Macintosh; Intel Mac OS X 10_15_7) AppleWebKit/605.1.15 (KHTML, like Gecko) Version/16.4 Safari/605.1.15","Macintosh","Safari","16.4","OS X","10_15_7","1101","<p><strong>Please indicate the extent you agree with the following statements.</strong></p><strong><p> (1 = ""Strongly Disagree"" to 5 = ""Srongly Agree"") </strong></p>","0",""
"","","","","","survey-likert","144","514888","0.0-17.0","12","1","2023-05-22 23:51:09","c5e7288ef5abdde20c6cfc36967cae27","97.97.31.17","Mozilla/5.0 (Macintosh; Intel Mac OS X 10_15_7) AppleWebKit/605.1.15 (KHTML, like Gecko) Version/16.4 Safari/605.1.15","Macintosh","Safari","16.4","OS X","10_15_7","55091","","{""caring1"":3,""liking1"":0,""caring2"":3,""protection1"":4,""liking2"":0,""caring3"":3,""protection2"":4,""liking3"":0,""protection3"":4,""caring4"":3,""liking4"":1,""protection4"":4,""caring5"":3,""liking5"":0,""protection5"":4}","[0,1,2,3,4,5,6,7,8,9,10,11,12,13,14]"
"","","","","","html-button-response","145","522766","0.0-18.0","12","1","2023-05-22 23:51:09","c5e7288ef5abdde20c6cfc36967cae27","97.97.31.17","Mozilla/5.0 (Macintosh; Intel Mac OS X 10_15_7) AppleWebKit/605.1.15 (KHTML, like Gecko) Version/16.4 Safari/605.1.15","Macintosh","Safari","16.4","OS X","10_15_7","7872","<p><strong>Please imagine spercific situations involving children below, and rate the amount of tenderness you would feel in each situation. </strong></p><p><strong> (Ternderness is ""a warm, gentle feeling of sympathetic affection."") </strong></p><strong><p> (1 = ""No tenderness at all"" to 5 = ""A lot of tenderness"") </strong></p>","0",""
"","","","","","survey-likert","146","550119","0.0-19.0","12","1","2023-05-22 23:51:09","c5e7288ef5abdde20c6cfc36967cae27","97.97.31.17","Mozilla/5.0 (Macintosh; Intel Mac OS X 10_15_7) AppleWebKit/605.1.15 (KHTML, like Gecko) Version/16.4 Safari/605.1.15","Macintosh","Safari","16.4","OS X","10_15_7","27345","","{""tenderness-positive1"":4,""tenderness-negative1"":4,""tenderness-negative2"":3,""tenderness-positive2"":4,""tenderness-positive3"":4,""tenderness-negative3"":0,""tenderness-positive4"":4,""tendereness-negative4"":3,""tendernness-negative5"":4,""tenderness-positive5"":4}","[0,1,2,3,4,5,6,7,8,9]"
"","","","","","survey-multi-choice","147","560024","0.0-20.0","12","1","2023-05-22 23:51:09","c5e7288ef5abdde20c6cfc36967cae27","97.97.31.17","Mozilla/5.0 (Macintosh; Intel Mac OS X 10_15_7) AppleWebKit/605.1.15 (KHTML, like Gecko) Version/16.4 Safari/605.1.15","Macintosh","Safari","16.4","OS X","10_15_7","9899","","{""Attention2"":""Other""}","[0]"
"","","","","","html-button-response","148","562016","0.0-21.0","12","1","2023-05-22 23:51:09","c5e7288ef5abdde20c6cfc36967cae27","97.97.31.17","Mozilla/5.0 (Macintosh; Intel Mac OS X 10_15_7) AppleWebKit/605.1.15 (KHTML, like Gecko) Version/16.4 Safari/605.1.15","Macintosh","Safari","16.4","OS X","10_15_7","1986","<p><strong>Please indicate the extent you agree with the following statements.</strong></p>","0",""
"","","","","","survey-likert","149","758685","0.0-22.0","12","1","2023-05-22 23:51:09","c5e7288ef5abdde20c6cfc36967cae27","97.97.31.17","Mozilla/5.0 (Macintosh; Intel Mac OS X 10_15_7) AppleWebKit/605.1.15 (KHTML, like Gecko) Version/16.4 Safari/605.1.15","Macintosh","Safari","16.4","OS X","10_15_7","196659","","{""Patri7"":4,""Patri5"":4,""Patri10"":0,""Patri4"":4,""Patri6"":0,""Nation8"":0,""Nation2"":4,""Nation1"":3,""Patri12"":1,""Patri2"":4,""Patri11"":0,""Patri3"":4,""Nation7"":4,""Patri8"":3,""Nation3"":4,""Patri9"":0,""Nation5"":4,""Patri1"":4,""Nation4"":0,""Nation6"":3}","[6,4,9,3,5,19,13,12,11,1,10,2,18,7,14,8,16,0,15,17]"
"","","","","","html-button-response","150","759524","0.0-23.0","12","1","2023-05-22 23:51:09","c5e7288ef5abdde20c6cfc36967cae27","97.97.31.17","Mozilla/5.0 (Macintosh; Intel Mac OS X 10_15_7) AppleWebKit/605.1.15 (KHTML, like Gecko) Version/16.4 Safari/605.1.15","Macintosh","Safari","16.4","OS X","10_15_7","826","<p><strong>Please indicate the extent you agree with the following statements. </p><p>(1 = ""never or definitely no"" and 9 = ""always or definitely yes"".)</strong></p>","0",""
"","","","","","survey-likert","151","847435","0.0-24.0","12","1","2023-05-22 23:51:09","c5e7288ef5abdde20c6cfc36967cae27","97.97.31.17","Mozilla/5.0 (Macintosh; Intel Mac OS X 10_15_7) AppleWebKit/605.1.15 (KHTML, like Gecko) Version/16.4 Safari/605.1.15","Macintosh","Safari","16.4","OS X","10_15_7","87896","","{""vc4"":8,""hc4"":8,""vc1"":8,""vc3"":8,""vi1"":8,""hi4"":3,""Robot2"":6,""hc1"":8,""hi3"":2,""vc2"":7,""hi2"":2,""hi1"":8,""vi2"":3,""hc2"":7,""hc3"":5,""vi4"":3,""vi3"":2}","[16,12,13,15,4,3,7,9,2,14,1,0,5,10,11,8,6]"
"","","","","","survey-text","152","854089","0.0-25.0","12","1","2023-05-22 23:51:09","c5e7288ef5abdde20c6cfc36967cae27","97.97.31.17","Mozilla/5.0 (Macintosh; Intel Mac OS X 10_15_7) AppleWebKit/605.1.15 (KHTML, like Gecko) Version/16.4 Safari/605.1.15","Macintosh","Safari","16.4","OS X","10_15_7","6631","","{""ID"":""A235DXY5FJN0IW"",""Comments"":""""}",""
"","","","","","html-button-response","153","864600","0.0-26.0","12","1","2023-05-22 23:51:09","c5e7288ef5abdde20c6cfc36967cae27","97.97.31.17","Mozilla/5.0 (Macintosh; Intel Mac OS X 10_15_7) AppleWebKit/605.1.15 (KHTML, like Gecko) Version/16.4 Safari/605.1.15","Macintosh","Safari","16.4","OS X","10_15_7","10498","<p><strong>Congratulations! </strong> Your have finished all the survey. Thank you for your participation!</p><p><strong>Here is your complete token:</strong></p>d1pqstm8rn5hxc57gcfkc8gkf<p></p><p><strong>Please copy it to the mTurk page.</strong></p>","0",""
