"success","timeout","failed_images","failed_audio","failed_video","trial_type","trial_index","time_elapsed","internal_node_id","run_id","condition","recorded_at","source_code_version","ip","user_agent","device","browser","browser_version","platform","platform_version","rt","stimulus","response","question_order"
"true","false","[]","[]","[]","preload","0","5295","0.0-0.0","13","1","2023-05-19 16:15:37","c5e7288ef5abdde20c6cfc36967cae27","172.84.188.26","Mozilla/5.0 (Windows NT 10.0; Win64; x64) AppleWebKit/537.36 (KHTML, like Gecko) Chrome/111.0.0.0 Safari/537.36","WebKit","Chrome","111.0.0.0","Windows","10.0","","","",""
"true","","","","","fullscreen","1","65555","0.0-1.0","13","1","2023-05-19 16:15:37","c5e7288ef5abdde20c6cfc36967cae27","172.84.188.26","Mozilla/5.0 (Windows NT 10.0; Win64; x64) AppleWebKit/537.36 (KHTML, like Gecko) Chrome/111.0.0.0 Safari/537.36","WebKit","Chrome","111.0.0.0","Windows","10.0","","","",""
"","","","","","html-button-response","2","525505","0.0-2.0","13","1","2023-05-19 16:15:37","c5e7288ef5abdde20c6cfc36967cae27","172.84.188.26","Mozilla/5.0 (Windows NT 10.0; Win64; x64) AppleWebKit/537.36 (KHTML, like Gecko) Chrome/111.0.0.0 Safari/537.36","WebKit","Chrome","111.0.0.0","Windows","10.0","459942","<p ><strong>Welcome to the experiment!</strong></p><p ><strong>In the first task, please imagine:</strong></p><p>Your country is involved in a military conflict with another country.</p><p>You are the commander of your army and must make decisions in the conflict.</p><p>Specifically, as the military commander, you must decide whether to launch a missile to strike enemy.</p><p>You will face a series of scenarios. Please read each scenario carefully and make a decision.</p><p>The task will take around 10 minutes to complete.</p><p><strong>Please pay your attention during the experiment.</strong></p>","0",""
"","","","","","html-keyboard-response","3","526507","0.0-3.0-0.0","13","1","2023-05-19 16:15:37","c5e7288ef5abdde20c6cfc36967cae27","172.84.188.26","Mozilla/5.0 (Windows NT 10.0; Win64; x64) AppleWebKit/537.36 (KHTML, like Gecko) Chrome/111.0.0.0 Safari/537.36","WebKit","Chrome","111.0.0.0","Windows","10.0","null","<div style=""font-size:60px;"">+</div>","null",""
"","","","","","html-button-response","4","554663","0.0-3.0-1.0","13","1","2023-05-19 16:15:37","c5e7288ef5abdde20c6cfc36967cae27","172.84.188.26","Mozilla/5.0 (Windows NT 10.0; Win64; x64) AppleWebKit/537.36 (KHTML, like Gecko) Chrome/111.0.0.0 Safari/537.36","WebKit","Chrome","111.0.0.0","Windows","10.0","28154","<p>As the military commander, you could choose to launch a missile to kill <strong>1 enemy soldier</strong> , but would accidentally kill <strong>1 enemy tree</strong> nearby.</p> <p>The photo of the <strong>enemy tree</strong> is shown below.</p> <p></p> <img src='stimuli/tree/8.png', style='max-width: 30%;'> </img> <p><strong>Would you launch the weapon?</strong></p>","1",""
"","","","","","html-keyboard-response","5","555667","0.0-3.0-0.1","13","1","2023-05-19 16:15:37","c5e7288ef5abdde20c6cfc36967cae27","172.84.188.26","Mozilla/5.0 (Windows NT 10.0; Win64; x64) AppleWebKit/537.36 (KHTML, like Gecko) Chrome/111.0.0.0 Safari/537.36","WebKit","Chrome","111.0.0.0","Windows","10.0","null","<div style=""font-size:60px;"">+</div>","null",""
"","","","","","html-button-response","6","628080","0.0-3.0-1.1","13","1","2023-05-19 16:15:37","c5e7288ef5abdde20c6cfc36967cae27","172.84.188.26","Mozilla/5.0 (Windows NT 10.0; Win64; x64) AppleWebKit/537.36 (KHTML, like Gecko) Chrome/111.0.0.0 Safari/537.36","WebKit","Chrome","111.0.0.0","Windows","10.0","72410","<p>As the military commander, you could choose to launch a missile to kill <strong>5 enemy soldiers</strong> , but would accidentally kill <strong>1 enemy civilian</strong> nearby.</p> <p>The photo of the <strong>enemy civilian</strong> is shown below.</p> <p></p> <img src='stimuli/faces/NCF6.jpg', style='max-width: 30%;'> </img> <p><strong>Would you launch the weapon?</strong></p>","0",""
"","","","","","html-keyboard-response","7","629082","0.0-3.0-0.2","13","1","2023-05-19 16:15:37","c5e7288ef5abdde20c6cfc36967cae27","172.84.188.26","Mozilla/5.0 (Windows NT 10.0; Win64; x64) AppleWebKit/537.36 (KHTML, like Gecko) Chrome/111.0.0.0 Safari/537.36","WebKit","Chrome","111.0.0.0","Windows","10.0","null","<div style=""font-size:60px;"">+</div>","null",""
"","","","","","html-button-response","8","635760","0.0-3.0-1.2","13","1","2023-05-19 16:15:37","c5e7288ef5abdde20c6cfc36967cae27","172.84.188.26","Mozilla/5.0 (Windows NT 10.0; Win64; x64) AppleWebKit/537.36 (KHTML, like Gecko) Chrome/111.0.0.0 Safari/537.36","WebKit","Chrome","111.0.0.0","Windows","10.0","6676","<p>As the military commander, you could choose to launch a missile to kill <strong>2 enemy soldiers</strong> , but would accidentally kill <strong>1 enemy tree</strong> nearby.</p> <p>The photo of the <strong>enemy tree</strong> is shown below.</p> <p></p> <img src='stimuli/tree/3.png', style='max-width: 30%;'> </img> <p><strong>Would you launch the weapon?</strong></p>","1",""
"","","","","","html-keyboard-response","9","636761","0.0-3.0-0.3","13","1","2023-05-19 16:15:37","c5e7288ef5abdde20c6cfc36967cae27","172.84.188.26","Mozilla/5.0 (Windows NT 10.0; Win64; x64) AppleWebKit/537.36 (KHTML, like Gecko) Chrome/111.0.0.0 Safari/537.36","WebKit","Chrome","111.0.0.0","Windows","10.0","null","<div style=""font-size:60px;"">+</div>","null",""
"","","","","","html-button-response","10","639135","0.0-3.0-1.3","13","1","2023-05-19 16:15:37","c5e7288ef5abdde20c6cfc36967cae27","172.84.188.26","Mozilla/5.0 (Windows NT 10.0; Win64; x64) AppleWebKit/537.36 (KHTML, like Gecko) Chrome/111.0.0.0 Safari/537.36","WebKit","Chrome","111.0.0.0","Windows","10.0","2372","<p>As the military commander, you could choose to launch a missile to kill <strong>9 enemy soldiers</strong> , but would accidentally kill <strong>1 enemy civilian</strong> nearby.</p> <p>The photo of the <strong>enemy civilian</strong> is shown below.</p> <p></p> <img src='stimuli/faces/NCM7.jpg', style='max-width: 30%;'> </img> <p><strong>Would you launch the weapon?</strong></p>","0",""
"","","","","","html-keyboard-response","11","640136","0.0-3.0-0.4","13","1","2023-05-19 16:15:37","c5e7288ef5abdde20c6cfc36967cae27","172.84.188.26","Mozilla/5.0 (Windows NT 10.0; Win64; x64) AppleWebKit/537.36 (KHTML, like Gecko) Chrome/111.0.0.0 Safari/537.36","WebKit","Chrome","111.0.0.0","Windows","10.0","null","<div style=""font-size:60px;"">+</div>","null",""
"","","","","","html-button-response","12","642599","0.0-3.0-1.4","13","1","2023-05-19 16:15:37","c5e7288ef5abdde20c6cfc36967cae27","172.84.188.26","Mozilla/5.0 (Windows NT 10.0; Win64; x64) AppleWebKit/537.36 (KHTML, like Gecko) Chrome/111.0.0.0 Safari/537.36","WebKit","Chrome","111.0.0.0","Windows","10.0","2462","<p>As the military commander, you could choose to launch a missile to kill <strong>2 enemy soldiers</strong> , but would accidentally kill <strong>1 enemy civilian</strong> nearby.</p> <p>The photo of the <strong>enemy civilian</strong> is shown below.</p> <p></p> <img src='stimuli/faces/NCM6.jpg', style='max-width: 30%;'> </img> <p><strong>Would you launch the weapon?</strong></p>","1",""
"","","","","","html-keyboard-response","13","643602","0.0-3.0-0.5","13","1","2023-05-19 16:15:37","c5e7288ef5abdde20c6cfc36967cae27","172.84.188.26","Mozilla/5.0 (Windows NT 10.0; Win64; x64) AppleWebKit/537.36 (KHTML, like Gecko) Chrome/111.0.0.0 Safari/537.36","WebKit","Chrome","111.0.0.0","Windows","10.0","null","<div style=""font-size:60px;"">+</div>","null",""
"","","","","","html-button-response","14","645320","0.0-3.0-1.5","13","1","2023-05-19 16:15:37","c5e7288ef5abdde20c6cfc36967cae27","172.84.188.26","Mozilla/5.0 (Windows NT 10.0; Win64; x64) AppleWebKit/537.36 (KHTML, like Gecko) Chrome/111.0.0.0 Safari/537.36","WebKit","Chrome","111.0.0.0","Windows","10.0","1717","<p>As the military commander, you could choose to launch a missile to kill <strong>8 enemy soldiers</strong> , but would accidentally kill <strong>1 enemy civilian</strong> nearby.</p> <p>The photo of the <strong>enemy civilian</strong> is shown below.</p> <p></p> <img src='stimuli/faces/NCF6.jpg', style='max-width: 30%;'> </img> <p><strong>Would you launch the weapon?</strong></p>","0",""
"","","","","","html-keyboard-response","15","646322","0.0-3.0-0.6","13","1","2023-05-19 16:15:37","c5e7288ef5abdde20c6cfc36967cae27","172.84.188.26","Mozilla/5.0 (Windows NT 10.0; Win64; x64) AppleWebKit/537.36 (KHTML, like Gecko) Chrome/111.0.0.0 Safari/537.36","WebKit","Chrome","111.0.0.0","Windows","10.0","null","<div style=""font-size:60px;"">+</div>","null",""
"","","","","","html-button-response","16","648864","0.0-3.0-1.6","13","1","2023-05-19 16:15:37","c5e7288ef5abdde20c6cfc36967cae27","172.84.188.26","Mozilla/5.0 (Windows NT 10.0; Win64; x64) AppleWebKit/537.36 (KHTML, like Gecko) Chrome/111.0.0.0 Safari/537.36","WebKit","Chrome","111.0.0.0","Windows","10.0","2540","<p>As the military commander, you could choose to launch a missile to kill <strong>6 enemy soldiers</strong> , but would accidentally kill <strong>1 enemy tree</strong> nearby.</p> <p>The photo of the <strong>enemy tree</strong> is shown below.</p> <p></p> <img src='stimuli/tree/3.png', style='max-width: 30%;'> </img> <p><strong>Would you launch the weapon?</strong></p>","0",""
"","","","","","html-keyboard-response","17","649865","0.0-3.0-0.7","13","1","2023-05-19 16:15:37","c5e7288ef5abdde20c6cfc36967cae27","172.84.188.26","Mozilla/5.0 (Windows NT 10.0; Win64; x64) AppleWebKit/537.36 (KHTML, like Gecko) Chrome/111.0.0.0 Safari/537.36","WebKit","Chrome","111.0.0.0","Windows","10.0","null","<div style=""font-size:60px;"">+</div>","null",""
"","","","","","html-button-response","18","652280","0.0-3.0-1.7","13","1","2023-05-19 16:15:37","c5e7288ef5abdde20c6cfc36967cae27","172.84.188.26","Mozilla/5.0 (Windows NT 10.0; Win64; x64) AppleWebKit/537.36 (KHTML, like Gecko) Chrome/111.0.0.0 Safari/537.36","WebKit","Chrome","111.0.0.0","Windows","10.0","2413","<p>As the military commander, you could choose to launch a missile to kill <strong>6 enemy soldiers</strong> , but would accidentally kill <strong>1 enemy tree</strong> nearby.</p> <p>The photo of the <strong>enemy tree</strong> is shown below.</p> <p></p> <img src='stimuli/tree/16.png', style='max-width: 30%;'> </img> <p><strong>Would you launch the weapon?</strong></p>","1",""
"","","","","","html-keyboard-response","19","653281","0.0-3.0-0.8","13","1","2023-05-19 16:15:37","c5e7288ef5abdde20c6cfc36967cae27","172.84.188.26","Mozilla/5.0 (Windows NT 10.0; Win64; x64) AppleWebKit/537.36 (KHTML, like Gecko) Chrome/111.0.0.0 Safari/537.36","WebKit","Chrome","111.0.0.0","Windows","10.0","null","<div style=""font-size:60px;"">+</div>","null",""
"","","","","","html-button-response","20","655928","0.0-3.0-1.8","13","1","2023-05-19 16:15:37","c5e7288ef5abdde20c6cfc36967cae27","172.84.188.26","Mozilla/5.0 (Windows NT 10.0; Win64; x64) AppleWebKit/537.36 (KHTML, like Gecko) Chrome/111.0.0.0 Safari/537.36","WebKit","Chrome","111.0.0.0","Windows","10.0","2645","<p>As the military commander, you could choose to launch a missile to kill <strong>4 enemy soldiers</strong> , but would accidentally kill <strong>1 enemy tree</strong> nearby.</p> <p>The photo of the <strong>enemy tree</strong> is shown below.</p> <p></p> <img src='stimuli/tree/15.png', style='max-width: 30%;'> </img> <p><strong>Would you launch the weapon?</strong></p>","1",""
"","","","","","html-keyboard-response","21","656929","0.0-3.0-0.9","13","1","2023-05-19 16:15:37","c5e7288ef5abdde20c6cfc36967cae27","172.84.188.26","Mozilla/5.0 (Windows NT 10.0; Win64; x64) AppleWebKit/537.36 (KHTML, like Gecko) Chrome/111.0.0.0 Safari/537.36","WebKit","Chrome","111.0.0.0","Windows","10.0","null","<div style=""font-size:60px;"">+</div>","null",""
"","","","","","html-button-response","22","658559","0.0-3.0-1.9","13","1","2023-05-19 16:15:37","c5e7288ef5abdde20c6cfc36967cae27","172.84.188.26","Mozilla/5.0 (Windows NT 10.0; Win64; x64) AppleWebKit/537.36 (KHTML, like Gecko) Chrome/111.0.0.0 Safari/537.36","WebKit","Chrome","111.0.0.0","Windows","10.0","1628","<p>As the military commander, you could choose to launch a missile to kill <strong>1 enemy soldier</strong> , but would accidentally kill <strong>1 enemy civilian</strong> nearby.</p> <p>The photo of the <strong>enemy civilian</strong> is shown below.</p> <p></p> <img src='stimuli/faces/NCM4.jpg', style='max-width: 30%;'> </img> <p><strong>Would you launch the weapon?</strong></p>","0",""
"","","","","","html-keyboard-response","23","659560","0.0-3.0-0.10","13","1","2023-05-19 16:15:37","c5e7288ef5abdde20c6cfc36967cae27","172.84.188.26","Mozilla/5.0 (Windows NT 10.0; Win64; x64) AppleWebKit/537.36 (KHTML, like Gecko) Chrome/111.0.0.0 Safari/537.36","WebKit","Chrome","111.0.0.0","Windows","10.0","null","<div style=""font-size:60px;"">+</div>","null",""
"","","","","","html-button-response","24","661095","0.0-3.0-1.10","13","1","2023-05-19 16:15:37","c5e7288ef5abdde20c6cfc36967cae27","172.84.188.26","Mozilla/5.0 (Windows NT 10.0; Win64; x64) AppleWebKit/537.36 (KHTML, like Gecko) Chrome/111.0.0.0 Safari/537.36","WebKit","Chrome","111.0.0.0","Windows","10.0","1533","<p>As the military commander, you could choose to launch a missile to kill <strong>8 enemy soldiers</strong> , but would accidentally kill <strong>1 enemy tree</strong> nearby.</p> <p>The photo of the <strong>enemy tree</strong> is shown below.</p> <p></p> <img src='stimuli/tree/14.png', style='max-width: 30%;'> </img> <p><strong>Would you launch the weapon?</strong></p>","1",""
"","","","","","html-keyboard-response","25","662097","0.0-3.0-0.11","13","1","2023-05-19 16:15:37","c5e7288ef5abdde20c6cfc36967cae27","172.84.188.26","Mozilla/5.0 (Windows NT 10.0; Win64; x64) AppleWebKit/537.36 (KHTML, like Gecko) Chrome/111.0.0.0 Safari/537.36","WebKit","Chrome","111.0.0.0","Windows","10.0","null","<div style=""font-size:60px;"">+</div>","null",""
"","","","","","html-button-response","26","665311","0.0-3.0-1.11","13","1","2023-05-19 16:15:37","c5e7288ef5abdde20c6cfc36967cae27","172.84.188.26","Mozilla/5.0 (Windows NT 10.0; Win64; x64) AppleWebKit/537.36 (KHTML, like Gecko) Chrome/111.0.0.0 Safari/537.36","WebKit","Chrome","111.0.0.0","Windows","10.0","3213","<p>As the military commander, you could choose to launch a missile to kill <strong>3 enemy soldiers</strong> , but would accidentally kill <strong>1 enemy tree</strong> nearby.</p> <p>The photo of the <strong>enemy tree</strong> is shown below.</p> <p></p> <img src='stimuli/tree/2.png', style='max-width: 30%;'> </img> <p><strong>Would you launch the weapon?</strong></p>","1",""
"","","","","","html-keyboard-response","27","666313","0.0-3.0-0.12","13","1","2023-05-19 16:15:37","c5e7288ef5abdde20c6cfc36967cae27","172.84.188.26","Mozilla/5.0 (Windows NT 10.0; Win64; x64) AppleWebKit/537.36 (KHTML, like Gecko) Chrome/111.0.0.0 Safari/537.36","WebKit","Chrome","111.0.0.0","Windows","10.0","null","<div style=""font-size:60px;"">+</div>","null",""
"","","","","","html-button-response","28","667886","0.0-3.0-1.12","13","1","2023-05-19 16:15:37","c5e7288ef5abdde20c6cfc36967cae27","172.84.188.26","Mozilla/5.0 (Windows NT 10.0; Win64; x64) AppleWebKit/537.36 (KHTML, like Gecko) Chrome/111.0.0.0 Safari/537.36","WebKit","Chrome","111.0.0.0","Windows","10.0","1572","<p>As the military commander, you could choose to launch a missile to kill <strong>9 enemy soldiers</strong> , but would accidentally kill <strong>1 enemy civilian</strong> nearby.</p> <p>The photo of the <strong>enemy civilian</strong> is shown below.</p> <p></p> <img src='stimuli/faces/NCM2.jpg', style='max-width: 30%;'> </img> <p><strong>Would you launch the weapon?</strong></p>","0",""
"","","","","","html-keyboard-response","29","668888","0.0-3.0-0.13","13","1","2023-05-19 16:15:37","c5e7288ef5abdde20c6cfc36967cae27","172.84.188.26","Mozilla/5.0 (Windows NT 10.0; Win64; x64) AppleWebKit/537.36 (KHTML, like Gecko) Chrome/111.0.0.0 Safari/537.36","WebKit","Chrome","111.0.0.0","Windows","10.0","null","<div style=""font-size:60px;"">+</div>","null",""
"","","","","","html-button-response","30","670671","0.0-3.0-1.13","13","1","2023-05-19 16:15:37","c5e7288ef5abdde20c6cfc36967cae27","172.84.188.26","Mozilla/5.0 (Windows NT 10.0; Win64; x64) AppleWebKit/537.36 (KHTML, like Gecko) Chrome/111.0.0.0 Safari/537.36","WebKit","Chrome","111.0.0.0","Windows","10.0","1782","<p>As the military commander, you could choose to launch a missile to kill <strong>1 enemy soldier</strong> , but would accidentally kill <strong>1 enemy civilian</strong> nearby.</p> <p>The photo of the <strong>enemy civilian</strong> is shown below.</p> <p></p> <img src='stimuli/faces/NCF7.jpg', style='max-width: 30%;'> </img> <p><strong>Would you launch the weapon?</strong></p>","0",""
"","","","","","html-keyboard-response","31","671672","0.0-3.0-0.14","13","1","2023-05-19 16:15:37","c5e7288ef5abdde20c6cfc36967cae27","172.84.188.26","Mozilla/5.0 (Windows NT 10.0; Win64; x64) AppleWebKit/537.36 (KHTML, like Gecko) Chrome/111.0.0.0 Safari/537.36","WebKit","Chrome","111.0.0.0","Windows","10.0","null","<div style=""font-size:60px;"">+</div>","null",""
"","","","","","html-button-response","32","673535","0.0-3.0-1.14","13","1","2023-05-19 16:15:37","c5e7288ef5abdde20c6cfc36967cae27","172.84.188.26","Mozilla/5.0 (Windows NT 10.0; Win64; x64) AppleWebKit/537.36 (KHTML, like Gecko) Chrome/111.0.0.0 Safari/537.36","WebKit","Chrome","111.0.0.0","Windows","10.0","1861","<p>As the military commander, you could choose to launch a missile to kill <strong>1 enemy soldier</strong> , but would accidentally kill <strong>1 enemy tree</strong> nearby.</p> <p>The photo of the <strong>enemy tree</strong> is shown below.</p> <p></p> <img src='stimuli/tree/9.png', style='max-width: 30%;'> </img> <p><strong>Would you launch the weapon?</strong></p>","1",""
"","","","","","html-keyboard-response","33","674537","0.0-3.0-0.15","13","1","2023-05-19 16:15:37","c5e7288ef5abdde20c6cfc36967cae27","172.84.188.26","Mozilla/5.0 (Windows NT 10.0; Win64; x64) AppleWebKit/537.36 (KHTML, like Gecko) Chrome/111.0.0.0 Safari/537.36","WebKit","Chrome","111.0.0.0","Windows","10.0","null","<div style=""font-size:60px;"">+</div>","null",""
"","","","","","html-button-response","34","675982","0.0-3.0-1.15","13","1","2023-05-19 16:15:37","c5e7288ef5abdde20c6cfc36967cae27","172.84.188.26","Mozilla/5.0 (Windows NT 10.0; Win64; x64) AppleWebKit/537.36 (KHTML, like Gecko) Chrome/111.0.0.0 Safari/537.36","WebKit","Chrome","111.0.0.0","Windows","10.0","1444","<p>As the military commander, you could choose to launch a missile to kill <strong>4 enemy soldiers</strong> , but would accidentally kill <strong>1 enemy tree</strong> nearby.</p> <p>The photo of the <strong>enemy tree</strong> is shown below.</p> <p></p> <img src='stimuli/tree/12.png', style='max-width: 30%;'> </img> <p><strong>Would you launch the weapon?</strong></p>","1",""
"","","","","","html-keyboard-response","35","676984","0.0-3.0-0.16","13","1","2023-05-19 16:15:37","c5e7288ef5abdde20c6cfc36967cae27","172.84.188.26","Mozilla/5.0 (Windows NT 10.0; Win64; x64) AppleWebKit/537.36 (KHTML, like Gecko) Chrome/111.0.0.0 Safari/537.36","WebKit","Chrome","111.0.0.0","Windows","10.0","null","<div style=""font-size:60px;"">+</div>","null",""
"","","","","","html-button-response","36","678743","0.0-3.0-1.16","13","1","2023-05-19 16:15:37","c5e7288ef5abdde20c6cfc36967cae27","172.84.188.26","Mozilla/5.0 (Windows NT 10.0; Win64; x64) AppleWebKit/537.36 (KHTML, like Gecko) Chrome/111.0.0.0 Safari/537.36","WebKit","Chrome","111.0.0.0","Windows","10.0","1757","<p>As the military commander, you could choose to launch a missile to kill <strong>7 enemy soldiers</strong> , but would accidentally kill <strong>1 enemy civilian</strong> nearby.</p> <p>The photo of the <strong>enemy civilian</strong> is shown below.</p> <p></p> <img src='stimuli/faces/NCF1.jpg', style='max-width: 30%;'> </img> <p><strong>Would you launch the weapon?</strong></p>","0",""
"","","","","","html-keyboard-response","37","679745","0.0-3.0-0.17","13","1","2023-05-19 16:15:37","c5e7288ef5abdde20c6cfc36967cae27","172.84.188.26","Mozilla/5.0 (Windows NT 10.0; Win64; x64) AppleWebKit/537.36 (KHTML, like Gecko) Chrome/111.0.0.0 Safari/537.36","WebKit","Chrome","111.0.0.0","Windows","10.0","null","<div style=""font-size:60px;"">+</div>","null",""
"","","","","","html-button-response","38","682183","0.0-3.0-1.17","13","1","2023-05-19 16:15:37","c5e7288ef5abdde20c6cfc36967cae27","172.84.188.26","Mozilla/5.0 (Windows NT 10.0; Win64; x64) AppleWebKit/537.36 (KHTML, like Gecko) Chrome/111.0.0.0 Safari/537.36","WebKit","Chrome","111.0.0.0","Windows","10.0","2436","<p>As the military commander, you could choose to launch a missile to kill <strong>10 enemy soldiers</strong> , but would accidentally kill <strong>1 enemy tree</strong> nearby.</p> <p>The photo of the <strong>enemy tree</strong> is shown below.</p> <p></p> <img src='stimuli/tree/8.png', style='max-width: 30%;'> </img> <p><strong>Would you launch the weapon?</strong></p>","1",""
"","","","","","html-keyboard-response","39","683185","0.0-3.0-0.18","13","1","2023-05-19 16:15:37","c5e7288ef5abdde20c6cfc36967cae27","172.84.188.26","Mozilla/5.0 (Windows NT 10.0; Win64; x64) AppleWebKit/537.36 (KHTML, like Gecko) Chrome/111.0.0.0 Safari/537.36","WebKit","Chrome","111.0.0.0","Windows","10.0","null","<div style=""font-size:60px;"">+</div>","null",""
"","","","","","html-button-response","40","684743","0.0-3.0-1.18","13","1","2023-05-19 16:15:37","c5e7288ef5abdde20c6cfc36967cae27","172.84.188.26","Mozilla/5.0 (Windows NT 10.0; Win64; x64) AppleWebKit/537.36 (KHTML, like Gecko) Chrome/111.0.0.0 Safari/537.36","WebKit","Chrome","111.0.0.0","Windows","10.0","1556","<p>As the military commander, you could choose to launch a missile to kill <strong>9 enemy soldiers</strong> , but would accidentally kill <strong>1 enemy civilian</strong> nearby.</p> <p>The photo of the <strong>enemy civilian</strong> is shown below.</p> <p></p> <img src='stimuli/faces/NCM1.jpg', style='max-width: 30%;'> </img> <p><strong>Would you launch the weapon?</strong></p>","0",""
"","","","","","html-keyboard-response","41","685746","0.0-3.0-0.19","13","1","2023-05-19 16:15:37","c5e7288ef5abdde20c6cfc36967cae27","172.84.188.26","Mozilla/5.0 (Windows NT 10.0; Win64; x64) AppleWebKit/537.36 (KHTML, like Gecko) Chrome/111.0.0.0 Safari/537.36","WebKit","Chrome","111.0.0.0","Windows","10.0","null","<div style=""font-size:60px;"">+</div>","null",""
"","","","","","html-button-response","42","691233","0.0-3.0-1.19","13","1","2023-05-19 16:15:37","c5e7288ef5abdde20c6cfc36967cae27","172.84.188.26","Mozilla/5.0 (Windows NT 10.0; Win64; x64) AppleWebKit/537.36 (KHTML, like Gecko) Chrome/111.0.0.0 Safari/537.36","WebKit","Chrome","111.0.0.0","Windows","10.0","5484","<p>As the military commander, you could choose to launch a missile to kill <strong>3 enemy soldiers</strong> , but would accidentally kill <strong>1 enemy civilian</strong> nearby.</p> <p>The photo of the <strong>enemy civilian</strong> is shown below.</p> <p></p> <img src='stimuli/faces/NCM3.jpg', style='max-width: 30%;'> </img> <p><strong>Would you launch the weapon?</strong></p>","0",""
"","","","","","html-keyboard-response","43","692235","0.0-3.0-0.20","13","1","2023-05-19 16:15:37","c5e7288ef5abdde20c6cfc36967cae27","172.84.188.26","Mozilla/5.0 (Windows NT 10.0; Win64; x64) AppleWebKit/537.36 (KHTML, like Gecko) Chrome/111.0.0.0 Safari/537.36","WebKit","Chrome","111.0.0.0","Windows","10.0","null","<div style=""font-size:60px;"">+</div>","null",""
"","","","","","html-button-response","44","696904","0.0-3.0-1.20","13","1","2023-05-19 16:15:37","c5e7288ef5abdde20c6cfc36967cae27","172.84.188.26","Mozilla/5.0 (Windows NT 10.0; Win64; x64) AppleWebKit/537.36 (KHTML, like Gecko) Chrome/111.0.0.0 Safari/537.36","WebKit","Chrome","111.0.0.0","Windows","10.0","4667","<p>As the military commander, you could choose to launch a missile to kill <strong>8 enemy soldiers</strong> , but would accidentally kill <strong>1 enemy civilian</strong> nearby.</p> <p>The photo of the <strong>enemy civilian</strong> is shown below.</p> <p></p> <img src='stimuli/faces/NCM3.jpg', style='max-width: 30%;'> </img> <p><strong>Would you launch the weapon?</strong></p>","0",""
"","","","","","html-keyboard-response","45","697906","0.0-3.0-0.21","13","1","2023-05-19 16:15:37","c5e7288ef5abdde20c6cfc36967cae27","172.84.188.26","Mozilla/5.0 (Windows NT 10.0; Win64; x64) AppleWebKit/537.36 (KHTML, like Gecko) Chrome/111.0.0.0 Safari/537.36","WebKit","Chrome","111.0.0.0","Windows","10.0","null","<div style=""font-size:60px;"">+</div>","null",""
"","","","","","html-button-response","46","699336","0.0-3.0-1.21","13","1","2023-05-19 16:15:37","c5e7288ef5abdde20c6cfc36967cae27","172.84.188.26","Mozilla/5.0 (Windows NT 10.0; Win64; x64) AppleWebKit/537.36 (KHTML, like Gecko) Chrome/111.0.0.0 Safari/537.36","WebKit","Chrome","111.0.0.0","Windows","10.0","1428","<p>As the military commander, you could choose to launch a missile to kill <strong>4 enemy soldiers</strong> , but would accidentally kill <strong>1 enemy civilian</strong> nearby.</p> <p>The photo of the <strong>enemy civilian</strong> is shown below.</p> <p></p> <img src='stimuli/faces/NCF1.jpg', style='max-width: 30%;'> </img> <p><strong>Would you launch the weapon?</strong></p>","1",""
"","","","","","html-keyboard-response","47","700337","0.0-3.0-0.22","13","1","2023-05-19 16:15:37","c5e7288ef5abdde20c6cfc36967cae27","172.84.188.26","Mozilla/5.0 (Windows NT 10.0; Win64; x64) AppleWebKit/537.36 (KHTML, like Gecko) Chrome/111.0.0.0 Safari/537.36","WebKit","Chrome","111.0.0.0","Windows","10.0","null","<div style=""font-size:60px;"">+</div>","null",""
"","","","","","html-button-response","48","702160","0.0-3.0-1.22","13","1","2023-05-19 16:15:37","c5e7288ef5abdde20c6cfc36967cae27","172.84.188.26","Mozilla/5.0 (Windows NT 10.0; Win64; x64) AppleWebKit/537.36 (KHTML, like Gecko) Chrome/111.0.0.0 Safari/537.36","WebKit","Chrome","111.0.0.0","Windows","10.0","1820","<p>As the military commander, you could choose to launch a missile to kill <strong>2 enemy soldiers</strong> , but would accidentally kill <strong>1 enemy tree</strong> nearby.</p> <p>The photo of the <strong>enemy tree</strong> is shown below.</p> <p></p> <img src='stimuli/tree/13.png', style='max-width: 30%;'> </img> <p><strong>Would you launch the weapon?</strong></p>","1",""
"","","","","","html-keyboard-response","49","703162","0.0-3.0-0.23","13","1","2023-05-19 16:15:37","c5e7288ef5abdde20c6cfc36967cae27","172.84.188.26","Mozilla/5.0 (Windows NT 10.0; Win64; x64) AppleWebKit/537.36 (KHTML, like Gecko) Chrome/111.0.0.0 Safari/537.36","WebKit","Chrome","111.0.0.0","Windows","10.0","null","<div style=""font-size:60px;"">+</div>","null",""
"","","","","","html-button-response","50","705400","0.0-3.0-1.23","13","1","2023-05-19 16:15:37","c5e7288ef5abdde20c6cfc36967cae27","172.84.188.26","Mozilla/5.0 (Windows NT 10.0; Win64; x64) AppleWebKit/537.36 (KHTML, like Gecko) Chrome/111.0.0.0 Safari/537.36","WebKit","Chrome","111.0.0.0","Windows","10.0","2237","<p>As the military commander, you could choose to launch a missile to kill <strong>6 enemy soldiers</strong> , but would accidentally kill <strong>1 enemy tree</strong> nearby.</p> <p>The photo of the <strong>enemy tree</strong> is shown below.</p> <p></p> <img src='stimuli/tree/13.png', style='max-width: 30%;'> </img> <p><strong>Would you launch the weapon?</strong></p>","1",""
"","","","","","html-keyboard-response","51","706402","0.0-3.0-0.24","13","1","2023-05-19 16:15:37","c5e7288ef5abdde20c6cfc36967cae27","172.84.188.26","Mozilla/5.0 (Windows NT 10.0; Win64; x64) AppleWebKit/537.36 (KHTML, like Gecko) Chrome/111.0.0.0 Safari/537.36","WebKit","Chrome","111.0.0.0","Windows","10.0","null","<div style=""font-size:60px;"">+</div>","null",""
"","","","","","html-button-response","52","708384","0.0-3.0-1.24","13","1","2023-05-19 16:15:37","c5e7288ef5abdde20c6cfc36967cae27","172.84.188.26","Mozilla/5.0 (Windows NT 10.0; Win64; x64) AppleWebKit/537.36 (KHTML, like Gecko) Chrome/111.0.0.0 Safari/537.36","WebKit","Chrome","111.0.0.0","Windows","10.0","1980","<p>As the military commander, you could choose to launch a missile to kill <strong>3 enemy soldiers</strong> , but would accidentally kill <strong>1 enemy tree</strong> nearby.</p> <p>The photo of the <strong>enemy tree</strong> is shown below.</p> <p></p> <img src='stimuli/tree/7.png', style='max-width: 30%;'> </img> <p><strong>Would you launch the weapon?</strong></p>","1",""
"","","","","","html-keyboard-response","53","709387","0.0-3.0-0.25","13","1","2023-05-19 16:15:37","c5e7288ef5abdde20c6cfc36967cae27","172.84.188.26","Mozilla/5.0 (Windows NT 10.0; Win64; x64) AppleWebKit/537.36 (KHTML, like Gecko) Chrome/111.0.0.0 Safari/537.36","WebKit","Chrome","111.0.0.0","Windows","10.0","null","<div style=""font-size:60px;"">+</div>","null",""
"","","","","","html-button-response","54","711056","0.0-3.0-1.25","13","1","2023-05-19 16:15:37","c5e7288ef5abdde20c6cfc36967cae27","172.84.188.26","Mozilla/5.0 (Windows NT 10.0; Win64; x64) AppleWebKit/537.36 (KHTML, like Gecko) Chrome/111.0.0.0 Safari/537.36","WebKit","Chrome","111.0.0.0","Windows","10.0","1667","<p>As the military commander, you could choose to launch a missile to kill <strong>7 enemy soldiers</strong> , but would accidentally kill <strong>1 enemy tree</strong> nearby.</p> <p>The photo of the <strong>enemy tree</strong> is shown below.</p> <p></p> <img src='stimuli/tree/9.png', style='max-width: 30%;'> </img> <p><strong>Would you launch the weapon?</strong></p>","1",""
"","","","","","html-keyboard-response","55","712058","0.0-3.0-0.26","13","1","2023-05-19 16:15:37","c5e7288ef5abdde20c6cfc36967cae27","172.84.188.26","Mozilla/5.0 (Windows NT 10.0; Win64; x64) AppleWebKit/537.36 (KHTML, like Gecko) Chrome/111.0.0.0 Safari/537.36","WebKit","Chrome","111.0.0.0","Windows","10.0","null","<div style=""font-size:60px;"">+</div>","null",""
"","","","","","html-button-response","56","713520","0.0-3.0-1.26","13","1","2023-05-19 16:15:37","c5e7288ef5abdde20c6cfc36967cae27","172.84.188.26","Mozilla/5.0 (Windows NT 10.0; Win64; x64) AppleWebKit/537.36 (KHTML, like Gecko) Chrome/111.0.0.0 Safari/537.36","WebKit","Chrome","111.0.0.0","Windows","10.0","1460","<p>As the military commander, you could choose to launch a missile to kill <strong>3 enemy soldiers</strong> , but would accidentally kill <strong>1 enemy tree</strong> nearby.</p> <p>The photo of the <strong>enemy tree</strong> is shown below.</p> <p></p> <img src='stimuli/tree/1.png', style='max-width: 30%;'> </img> <p><strong>Would you launch the weapon?</strong></p>","0",""
"","","","","","html-keyboard-response","57","714522","0.0-3.0-0.27","13","1","2023-05-19 16:15:37","c5e7288ef5abdde20c6cfc36967cae27","172.84.188.26","Mozilla/5.0 (Windows NT 10.0; Win64; x64) AppleWebKit/537.36 (KHTML, like Gecko) Chrome/111.0.0.0 Safari/537.36","WebKit","Chrome","111.0.0.0","Windows","10.0","null","<div style=""font-size:60px;"">+</div>","null",""
"","","","","","html-button-response","58","715808","0.0-3.0-1.27","13","1","2023-05-19 16:15:37","c5e7288ef5abdde20c6cfc36967cae27","172.84.188.26","Mozilla/5.0 (Windows NT 10.0; Win64; x64) AppleWebKit/537.36 (KHTML, like Gecko) Chrome/111.0.0.0 Safari/537.36","WebKit","Chrome","111.0.0.0","Windows","10.0","1285","<p>As the military commander, you could choose to launch a missile to kill <strong>5 enemy soldiers</strong> , but would accidentally kill <strong>1 enemy civilian</strong> nearby.</p> <p>The photo of the <strong>enemy civilian</strong> is shown below.</p> <p></p> <img src='stimuli/faces/NCM1.jpg', style='max-width: 30%;'> </img> <p><strong>Would you launch the weapon?</strong></p>","0",""
"","","","","","html-keyboard-response","59","716810","0.0-3.0-0.28","13","1","2023-05-19 16:15:37","c5e7288ef5abdde20c6cfc36967cae27","172.84.188.26","Mozilla/5.0 (Windows NT 10.0; Win64; x64) AppleWebKit/537.36 (KHTML, like Gecko) Chrome/111.0.0.0 Safari/537.36","WebKit","Chrome","111.0.0.0","Windows","10.0","null","<div style=""font-size:60px;"">+</div>","null",""
"","","","","","html-button-response","60","718488","0.0-3.0-1.28","13","1","2023-05-19 16:15:37","c5e7288ef5abdde20c6cfc36967cae27","172.84.188.26","Mozilla/5.0 (Windows NT 10.0; Win64; x64) AppleWebKit/537.36 (KHTML, like Gecko) Chrome/111.0.0.0 Safari/537.36","WebKit","Chrome","111.0.0.0","Windows","10.0","1676","<p>As the military commander, you could choose to launch a missile to kill <strong>3 enemy soldiers</strong> , but would accidentally kill <strong>1 enemy civilian</strong> nearby.</p> <p>The photo of the <strong>enemy civilian</strong> is shown below.</p> <p></p> <img src='stimuli/faces/NCM2.jpg', style='max-width: 30%;'> </img> <p><strong>Would you launch the weapon?</strong></p>","0",""
"","","","","","html-keyboard-response","61","719490","0.0-3.0-0.29","13","1","2023-05-19 16:15:37","c5e7288ef5abdde20c6cfc36967cae27","172.84.188.26","Mozilla/5.0 (Windows NT 10.0; Win64; x64) AppleWebKit/537.36 (KHTML, like Gecko) Chrome/111.0.0.0 Safari/537.36","WebKit","Chrome","111.0.0.0","Windows","10.0","null","<div style=""font-size:60px;"">+</div>","null",""
"","","","","","html-button-response","62","721128","0.0-3.0-1.29","13","1","2023-05-19 16:15:37","c5e7288ef5abdde20c6cfc36967cae27","172.84.188.26","Mozilla/5.0 (Windows NT 10.0; Win64; x64) AppleWebKit/537.36 (KHTML, like Gecko) Chrome/111.0.0.0 Safari/537.36","WebKit","Chrome","111.0.0.0","Windows","10.0","1636","<p>As the military commander, you could choose to launch a missile to kill <strong>8 enemy soldiers</strong> , but would accidentally kill <strong>1 enemy civilian</strong> nearby.</p> <p>The photo of the <strong>enemy civilian</strong> is shown below.</p> <p></p> <img src='stimuli/faces/NCM5.jpg', style='max-width: 30%;'> </img> <p><strong>Would you launch the weapon?</strong></p>","0",""
"","","","","","html-keyboard-response","63","722131","0.0-3.0-0.30","13","1","2023-05-19 16:15:37","c5e7288ef5abdde20c6cfc36967cae27","172.84.188.26","Mozilla/5.0 (Windows NT 10.0; Win64; x64) AppleWebKit/537.36 (KHTML, like Gecko) Chrome/111.0.0.0 Safari/537.36","WebKit","Chrome","111.0.0.0","Windows","10.0","null","<div style=""font-size:60px;"">+</div>","null",""
"","","","","","html-button-response","64","723327","0.0-3.0-1.30","13","1","2023-05-19 16:15:37","c5e7288ef5abdde20c6cfc36967cae27","172.84.188.26","Mozilla/5.0 (Windows NT 10.0; Win64; x64) AppleWebKit/537.36 (KHTML, like Gecko) Chrome/111.0.0.0 Safari/537.36","WebKit","Chrome","111.0.0.0","Windows","10.0","1195","<p>As the military commander, you could choose to launch a missile to kill <strong>7 enemy soldiers</strong> , but would accidentally kill <strong>1 enemy tree</strong> nearby.</p> <p>The photo of the <strong>enemy tree</strong> is shown below.</p> <p></p> <img src='stimuli/tree/6.png', style='max-width: 30%;'> </img> <p><strong>Would you launch the weapon?</strong></p>","1",""
"","","","","","html-keyboard-response","65","724330","0.0-3.0-0.31","13","1","2023-05-19 16:15:37","c5e7288ef5abdde20c6cfc36967cae27","172.84.188.26","Mozilla/5.0 (Windows NT 10.0; Win64; x64) AppleWebKit/537.36 (KHTML, like Gecko) Chrome/111.0.0.0 Safari/537.36","WebKit","Chrome","111.0.0.0","Windows","10.0","null","<div style=""font-size:60px;"">+</div>","null",""
"","","","","","html-button-response","66","726224","0.0-3.0-1.31","13","1","2023-05-19 16:15:37","c5e7288ef5abdde20c6cfc36967cae27","172.84.188.26","Mozilla/5.0 (Windows NT 10.0; Win64; x64) AppleWebKit/537.36 (KHTML, like Gecko) Chrome/111.0.0.0 Safari/537.36","WebKit","Chrome","111.0.0.0","Windows","10.0","1892","<p>As the military commander, you could choose to launch a missile to kill <strong>5 enemy soldiers</strong> , but would accidentally kill <strong>1 enemy civilian</strong> nearby.</p> <p>The photo of the <strong>enemy civilian</strong> is shown below.</p> <p></p> <img src='stimuli/faces/NCF2.jpg', style='max-width: 30%;'> </img> <p><strong>Would you launch the weapon?</strong></p>","0",""
"","","","","","html-keyboard-response","67","727227","0.0-3.0-0.32","13","1","2023-05-19 16:15:37","c5e7288ef5abdde20c6cfc36967cae27","172.84.188.26","Mozilla/5.0 (Windows NT 10.0; Win64; x64) AppleWebKit/537.36 (KHTML, like Gecko) Chrome/111.0.0.0 Safari/537.36","WebKit","Chrome","111.0.0.0","Windows","10.0","null","<div style=""font-size:60px;"">+</div>","null",""
"","","","","","html-button-response","68","728504","0.0-3.0-1.32","13","1","2023-05-19 16:15:37","c5e7288ef5abdde20c6cfc36967cae27","172.84.188.26","Mozilla/5.0 (Windows NT 10.0; Win64; x64) AppleWebKit/537.36 (KHTML, like Gecko) Chrome/111.0.0.0 Safari/537.36","WebKit","Chrome","111.0.0.0","Windows","10.0","1275","<p>As the military commander, you could choose to launch a missile to kill <strong>6 enemy soldiers</strong> , but would accidentally kill <strong>1 enemy civilian</strong> nearby.</p> <p>The photo of the <strong>enemy civilian</strong> is shown below.</p> <p></p> <img src='stimuli/faces/NCM4.jpg', style='max-width: 30%;'> </img> <p><strong>Would you launch the weapon?</strong></p>","0",""
"","","","","","html-keyboard-response","69","729506","0.0-3.0-0.33","13","1","2023-05-19 16:15:37","c5e7288ef5abdde20c6cfc36967cae27","172.84.188.26","Mozilla/5.0 (Windows NT 10.0; Win64; x64) AppleWebKit/537.36 (KHTML, like Gecko) Chrome/111.0.0.0 Safari/537.36","WebKit","Chrome","111.0.0.0","Windows","10.0","null","<div style=""font-size:60px;"">+</div>","null",""
"","","","","","html-button-response","70","731135","0.0-3.0-1.33","13","1","2023-05-19 16:15:37","c5e7288ef5abdde20c6cfc36967cae27","172.84.188.26","Mozilla/5.0 (Windows NT 10.0; Win64; x64) AppleWebKit/537.36 (KHTML, like Gecko) Chrome/111.0.0.0 Safari/537.36","WebKit","Chrome","111.0.0.0","Windows","10.0","1627","<p>As the military commander, you could choose to launch a missile to kill <strong>2 enemy soldiers</strong> , but would accidentally kill <strong>1 enemy civilian</strong> nearby.</p> <p>The photo of the <strong>enemy civilian</strong> is shown below.</p> <p></p> <img src='stimuli/faces/NCF4.jpg', style='max-width: 30%;'> </img> <p><strong>Would you launch the weapon?</strong></p>","0",""
"","","","","","html-keyboard-response","71","732138","0.0-3.0-0.34","13","1","2023-05-19 16:15:37","c5e7288ef5abdde20c6cfc36967cae27","172.84.188.26","Mozilla/5.0 (Windows NT 10.0; Win64; x64) AppleWebKit/537.36 (KHTML, like Gecko) Chrome/111.0.0.0 Safari/537.36","WebKit","Chrome","111.0.0.0","Windows","10.0","null","<div style=""font-size:60px;"">+</div>","null",""
"","","","","","html-button-response","72","734335","0.0-3.0-1.34","13","1","2023-05-19 16:15:37","c5e7288ef5abdde20c6cfc36967cae27","172.84.188.26","Mozilla/5.0 (Windows NT 10.0; Win64; x64) AppleWebKit/537.36 (KHTML, like Gecko) Chrome/111.0.0.0 Safari/537.36","WebKit","Chrome","111.0.0.0","Windows","10.0","2195","<p>As the military commander, you could choose to launch a missile to kill <strong>6 enemy soldiers</strong> , but would accidentally kill <strong>1 enemy civilian</strong> nearby.</p> <p>The photo of the <strong>enemy civilian</strong> is shown below.</p> <p></p> <img src='stimuli/faces/NCF2.jpg', style='max-width: 30%;'> </img> <p><strong>Would you launch the weapon?</strong></p>","0",""
"","","","","","html-keyboard-response","73","735339","0.0-3.0-0.35","13","1","2023-05-19 16:15:37","c5e7288ef5abdde20c6cfc36967cae27","172.84.188.26","Mozilla/5.0 (Windows NT 10.0; Win64; x64) AppleWebKit/537.36 (KHTML, like Gecko) Chrome/111.0.0.0 Safari/537.36","WebKit","Chrome","111.0.0.0","Windows","10.0","null","<div style=""font-size:60px;"">+</div>","null",""
"","","","","","html-button-response","74","736591","0.0-3.0-1.35","13","1","2023-05-19 16:15:37","c5e7288ef5abdde20c6cfc36967cae27","172.84.188.26","Mozilla/5.0 (Windows NT 10.0; Win64; x64) AppleWebKit/537.36 (KHTML, like Gecko) Chrome/111.0.0.0 Safari/537.36","WebKit","Chrome","111.0.0.0","Windows","10.0","1250","<p>As the military commander, you could choose to launch a missile to kill <strong>6 enemy soldiers</strong> , but would accidentally kill <strong>1 enemy tree</strong> nearby.</p> <p>The photo of the <strong>enemy tree</strong> is shown below.</p> <p></p> <img src='stimuli/tree/12.png', style='max-width: 30%;'> </img> <p><strong>Would you launch the weapon?</strong></p>","1",""
"","","","","","html-keyboard-response","75","737594","0.0-3.0-0.36","13","1","2023-05-19 16:15:37","c5e7288ef5abdde20c6cfc36967cae27","172.84.188.26","Mozilla/5.0 (Windows NT 10.0; Win64; x64) AppleWebKit/537.36 (KHTML, like Gecko) Chrome/111.0.0.0 Safari/537.36","WebKit","Chrome","111.0.0.0","Windows","10.0","null","<div style=""font-size:60px;"">+</div>","null",""
"","","","","","html-button-response","76","739263","0.0-3.0-1.36","13","1","2023-05-19 16:15:37","c5e7288ef5abdde20c6cfc36967cae27","172.84.188.26","Mozilla/5.0 (Windows NT 10.0; Win64; x64) AppleWebKit/537.36 (KHTML, like Gecko) Chrome/111.0.0.0 Safari/537.36","WebKit","Chrome","111.0.0.0","Windows","10.0","1667","<p>As the military commander, you could choose to launch a missile to kill <strong>1 enemy soldier</strong> , but would accidentally kill <strong>1 enemy civilian</strong> nearby.</p> <p>The photo of the <strong>enemy civilian</strong> is shown below.</p> <p></p> <img src='stimuli/faces/NCF8.jpg', style='max-width: 30%;'> </img> <p><strong>Would you launch the weapon?</strong></p>","0",""
"","","","","","html-keyboard-response","77","740266","0.0-3.0-0.37","13","1","2023-05-19 16:15:37","c5e7288ef5abdde20c6cfc36967cae27","172.84.188.26","Mozilla/5.0 (Windows NT 10.0; Win64; x64) AppleWebKit/537.36 (KHTML, like Gecko) Chrome/111.0.0.0 Safari/537.36","WebKit","Chrome","111.0.0.0","Windows","10.0","null","<div style=""font-size:60px;"">+</div>","null",""
"","","","","","html-button-response","78","805064","0.0-3.0-1.37","13","1","2023-05-19 16:15:37","c5e7288ef5abdde20c6cfc36967cae27","172.84.188.26","Mozilla/5.0 (Windows NT 10.0; Win64; x64) AppleWebKit/537.36 (KHTML, like Gecko) Chrome/111.0.0.0 Safari/537.36","WebKit","Chrome","111.0.0.0","Windows","10.0","64795","<p>As the military commander, you could choose to launch a missile to kill <strong>4 enemy soldiers</strong> , but would accidentally kill <strong>1 enemy tree</strong> nearby.</p> <p>The photo of the <strong>enemy tree</strong> is shown below.</p> <p></p> <img src='stimuli/tree/11.png', style='max-width: 30%;'> </img> <p><strong>Would you launch the weapon?</strong></p>","0",""
"","","","","","html-keyboard-response","79","806066","0.0-3.0-0.38","13","1","2023-05-19 16:15:37","c5e7288ef5abdde20c6cfc36967cae27","172.84.188.26","Mozilla/5.0 (Windows NT 10.0; Win64; x64) AppleWebKit/537.36 (KHTML, like Gecko) Chrome/111.0.0.0 Safari/537.36","WebKit","Chrome","111.0.0.0","Windows","10.0","null","<div style=""font-size:60px;"">+</div>","null",""
"","","","","","html-button-response","80","808672","0.0-3.0-1.38","13","1","2023-05-19 16:15:37","c5e7288ef5abdde20c6cfc36967cae27","172.84.188.26","Mozilla/5.0 (Windows NT 10.0; Win64; x64) AppleWebKit/537.36 (KHTML, like Gecko) Chrome/111.0.0.0 Safari/537.36","WebKit","Chrome","111.0.0.0","Windows","10.0","2602","<p>As the military commander, you could choose to launch a missile to kill <strong>10 enemy soldiers</strong> , but would accidentally kill <strong>1 enemy tree</strong> nearby.</p> <p>The photo of the <strong>enemy tree</strong> is shown below.</p> <p></p> <img src='stimuli/tree/10.png', style='max-width: 30%;'> </img> <p><strong>Would you launch the weapon?</strong></p>","1",""
"","","","","","html-keyboard-response","81","809674","0.0-3.0-0.39","13","1","2023-05-19 16:15:37","c5e7288ef5abdde20c6cfc36967cae27","172.84.188.26","Mozilla/5.0 (Windows NT 10.0; Win64; x64) AppleWebKit/537.36 (KHTML, like Gecko) Chrome/111.0.0.0 Safari/537.36","WebKit","Chrome","111.0.0.0","Windows","10.0","null","<div style=""font-size:60px;"">+</div>","null",""
"","","","","","html-button-response","82","811817","0.0-3.0-1.39","13","1","2023-05-19 16:15:37","c5e7288ef5abdde20c6cfc36967cae27","172.84.188.26","Mozilla/5.0 (Windows NT 10.0; Win64; x64) AppleWebKit/537.36 (KHTML, like Gecko) Chrome/111.0.0.0 Safari/537.36","WebKit","Chrome","111.0.0.0","Windows","10.0","2140","<p>As the military commander, you could choose to launch a missile to kill <strong>8 enemy soldiers</strong> , but would accidentally kill <strong>1 enemy tree</strong> nearby.</p> <p>The photo of the <strong>enemy tree</strong> is shown below.</p> <p></p> <img src='stimuli/tree/4.png', style='max-width: 30%;'> </img> <p><strong>Would you launch the weapon?</strong></p>","1",""
"","","","","","html-keyboard-response","83","812819","0.0-3.0-0.40","13","1","2023-05-19 16:15:37","c5e7288ef5abdde20c6cfc36967cae27","172.84.188.26","Mozilla/5.0 (Windows NT 10.0; Win64; x64) AppleWebKit/537.36 (KHTML, like Gecko) Chrome/111.0.0.0 Safari/537.36","WebKit","Chrome","111.0.0.0","Windows","10.0","null","<div style=""font-size:60px;"">+</div>","null",""
"","","","","","html-button-response","84","814665","0.0-3.0-1.40","13","1","2023-05-19 16:15:37","c5e7288ef5abdde20c6cfc36967cae27","172.84.188.26","Mozilla/5.0 (Windows NT 10.0; Win64; x64) AppleWebKit/537.36 (KHTML, like Gecko) Chrome/111.0.0.0 Safari/537.36","WebKit","Chrome","111.0.0.0","Windows","10.0","1844","<p>As the military commander, you could choose to launch a missile to kill <strong>4 enemy soldiers</strong> , but would accidentally kill <strong>1 enemy tree</strong> nearby.</p> <p>The photo of the <strong>enemy tree</strong> is shown below.</p> <p></p> <img src='stimuli/tree/6.png', style='max-width: 30%;'> </img> <p><strong>Would you launch the weapon?</strong></p>","1",""
"","","","","","html-keyboard-response","85","815668","0.0-3.0-0.41","13","1","2023-05-19 16:15:37","c5e7288ef5abdde20c6cfc36967cae27","172.84.188.26","Mozilla/5.0 (Windows NT 10.0; Win64; x64) AppleWebKit/537.36 (KHTML, like Gecko) Chrome/111.0.0.0 Safari/537.36","WebKit","Chrome","111.0.0.0","Windows","10.0","null","<div style=""font-size:60px;"">+</div>","null",""
"","","","","","html-button-response","86","817554","0.0-3.0-1.41","13","1","2023-05-19 16:15:37","c5e7288ef5abdde20c6cfc36967cae27","172.84.188.26","Mozilla/5.0 (Windows NT 10.0; Win64; x64) AppleWebKit/537.36 (KHTML, like Gecko) Chrome/111.0.0.0 Safari/537.36","WebKit","Chrome","111.0.0.0","Windows","10.0","1884","<p>As the military commander, you could choose to launch a missile to kill <strong>2 enemy soldiers</strong> , but would accidentally kill <strong>1 enemy civilian</strong> nearby.</p> <p>The photo of the <strong>enemy civilian</strong> is shown below.</p> <p></p> <img src='stimuli/faces/NCM7.jpg', style='max-width: 30%;'> </img> <p><strong>Would you launch the weapon?</strong></p>","0",""
"","","","","","html-keyboard-response","87","818558","0.0-3.0-0.42","13","1","2023-05-19 16:15:37","c5e7288ef5abdde20c6cfc36967cae27","172.84.188.26","Mozilla/5.0 (Windows NT 10.0; Win64; x64) AppleWebKit/537.36 (KHTML, like Gecko) Chrome/111.0.0.0 Safari/537.36","WebKit","Chrome","111.0.0.0","Windows","10.0","null","<div style=""font-size:60px;"">+</div>","null",""
"","","","","","html-button-response","88","822905","0.0-3.0-1.42","13","1","2023-05-19 16:15:37","c5e7288ef5abdde20c6cfc36967cae27","172.84.188.26","Mozilla/5.0 (Windows NT 10.0; Win64; x64) AppleWebKit/537.36 (KHTML, like Gecko) Chrome/111.0.0.0 Safari/537.36","WebKit","Chrome","111.0.0.0","Windows","10.0","4344","<p>As the military commander, you could choose to launch a missile to kill <strong>10 enemy soldiers</strong> , but would accidentally kill <strong>1 enemy civilian</strong> nearby.</p> <p>The photo of the <strong>enemy civilian</strong> is shown below.</p> <p></p> <img src='stimuli/faces/NCM6.jpg', style='max-width: 30%;'> </img> <p><strong>Would you launch the weapon?</strong></p>","0",""
"","","","","","html-keyboard-response","89","823907","0.0-3.0-0.43","13","1","2023-05-19 16:15:37","c5e7288ef5abdde20c6cfc36967cae27","172.84.188.26","Mozilla/5.0 (Windows NT 10.0; Win64; x64) AppleWebKit/537.36 (KHTML, like Gecko) Chrome/111.0.0.0 Safari/537.36","WebKit","Chrome","111.0.0.0","Windows","10.0","null","<div style=""font-size:60px;"">+</div>","null",""
"","","","","","html-button-response","90","826008","0.0-3.0-1.43","13","1","2023-05-19 16:15:37","c5e7288ef5abdde20c6cfc36967cae27","172.84.188.26","Mozilla/5.0 (Windows NT 10.0; Win64; x64) AppleWebKit/537.36 (KHTML, like Gecko) Chrome/111.0.0.0 Safari/537.36","WebKit","Chrome","111.0.0.0","Windows","10.0","2097","<p>As the military commander, you could choose to launch a missile to kill <strong>8 enemy soldiers</strong> , but would accidentally kill <strong>1 enemy civilian</strong> nearby.</p> <p>The photo of the <strong>enemy civilian</strong> is shown below.</p> <p></p> <img src='stimuli/faces/NCF3.jpg', style='max-width: 30%;'> </img> <p><strong>Would you launch the weapon?</strong></p>","0",""
"","","","","","html-keyboard-response","91","827010","0.0-3.0-0.44","13","1","2023-05-19 16:15:37","c5e7288ef5abdde20c6cfc36967cae27","172.84.188.26","Mozilla/5.0 (Windows NT 10.0; Win64; x64) AppleWebKit/537.36 (KHTML, like Gecko) Chrome/111.0.0.0 Safari/537.36","WebKit","Chrome","111.0.0.0","Windows","10.0","null","<div style=""font-size:60px;"">+</div>","null",""
"","","","","","html-button-response","92","829360","0.0-3.0-1.44","13","1","2023-05-19 16:15:37","c5e7288ef5abdde20c6cfc36967cae27","172.84.188.26","Mozilla/5.0 (Windows NT 10.0; Win64; x64) AppleWebKit/537.36 (KHTML, like Gecko) Chrome/111.0.0.0 Safari/537.36","WebKit","Chrome","111.0.0.0","Windows","10.0","2347","<p>As the military commander, you could choose to launch a missile to kill <strong>3 enemy soldiers</strong> , but would accidentally kill <strong>1 enemy civilian</strong> nearby.</p> <p>The photo of the <strong>enemy civilian</strong> is shown below.</p> <p></p> <img src='stimuli/faces/NCM8.jpg', style='max-width: 30%;'> </img> <p><strong>Would you launch the weapon?</strong></p>","1",""
"","","","","","html-keyboard-response","93","830363","0.0-3.0-0.45","13","1","2023-05-19 16:15:37","c5e7288ef5abdde20c6cfc36967cae27","172.84.188.26","Mozilla/5.0 (Windows NT 10.0; Win64; x64) AppleWebKit/537.36 (KHTML, like Gecko) Chrome/111.0.0.0 Safari/537.36","WebKit","Chrome","111.0.0.0","Windows","10.0","null","<div style=""font-size:60px;"">+</div>","null",""
"","","","","","html-button-response","94","831712","0.0-3.0-1.45","13","1","2023-05-19 16:15:37","c5e7288ef5abdde20c6cfc36967cae27","172.84.188.26","Mozilla/5.0 (Windows NT 10.0; Win64; x64) AppleWebKit/537.36 (KHTML, like Gecko) Chrome/111.0.0.0 Safari/537.36","WebKit","Chrome","111.0.0.0","Windows","10.0","1346","<p>As the military commander, you could choose to launch a missile to kill <strong>6 enemy soldiers</strong> , but would accidentally kill <strong>1 enemy tree</strong> nearby.</p> <p>The photo of the <strong>enemy tree</strong> is shown below.</p> <p></p> <img src='stimuli/tree/11.png', style='max-width: 30%;'> </img> <p><strong>Would you launch the weapon?</strong></p>","1",""
"","","","","","html-keyboard-response","95","832714","0.0-3.0-0.46","13","1","2023-05-19 16:15:37","c5e7288ef5abdde20c6cfc36967cae27","172.84.188.26","Mozilla/5.0 (Windows NT 10.0; Win64; x64) AppleWebKit/537.36 (KHTML, like Gecko) Chrome/111.0.0.0 Safari/537.36","WebKit","Chrome","111.0.0.0","Windows","10.0","null","<div style=""font-size:60px;"">+</div>","null",""
"","","","","","html-button-response","96","834369","0.0-3.0-1.46","13","1","2023-05-19 16:15:37","c5e7288ef5abdde20c6cfc36967cae27","172.84.188.26","Mozilla/5.0 (Windows NT 10.0; Win64; x64) AppleWebKit/537.36 (KHTML, like Gecko) Chrome/111.0.0.0 Safari/537.36","WebKit","Chrome","111.0.0.0","Windows","10.0","1652","<p>As the military commander, you could choose to launch a missile to kill <strong>9 enemy soldiers</strong> , but would accidentally kill <strong>1 enemy tree</strong> nearby.</p> <p>The photo of the <strong>enemy tree</strong> is shown below.</p> <p></p> <img src='stimuli/tree/5.png', style='max-width: 30%;'> </img> <p><strong>Would you launch the weapon?</strong></p>","0",""
"","","","","","html-keyboard-response","97","835372","0.0-3.0-0.47","13","1","2023-05-19 16:15:37","c5e7288ef5abdde20c6cfc36967cae27","172.84.188.26","Mozilla/5.0 (Windows NT 10.0; Win64; x64) AppleWebKit/537.36 (KHTML, like Gecko) Chrome/111.0.0.0 Safari/537.36","WebKit","Chrome","111.0.0.0","Windows","10.0","null","<div style=""font-size:60px;"">+</div>","null",""
"","","","","","html-button-response","98","836824","0.0-3.0-1.47","13","1","2023-05-19 16:15:37","c5e7288ef5abdde20c6cfc36967cae27","172.84.188.26","Mozilla/5.0 (Windows NT 10.0; Win64; x64) AppleWebKit/537.36 (KHTML, like Gecko) Chrome/111.0.0.0 Safari/537.36","WebKit","Chrome","111.0.0.0","Windows","10.0","1450","<p>As the military commander, you could choose to launch a missile to kill <strong>3 enemy soldiers</strong> , but would accidentally kill <strong>1 enemy tree</strong> nearby.</p> <p>The photo of the <strong>enemy tree</strong> is shown below.</p> <p></p> <img src='stimuli/tree/14.png', style='max-width: 30%;'> </img> <p><strong>Would you launch the weapon?</strong></p>","1",""
"","","","","","html-keyboard-response","99","837827","0.0-3.0-0.48","13","1","2023-05-19 16:15:37","c5e7288ef5abdde20c6cfc36967cae27","172.84.188.26","Mozilla/5.0 (Windows NT 10.0; Win64; x64) AppleWebKit/537.36 (KHTML, like Gecko) Chrome/111.0.0.0 Safari/537.36","WebKit","Chrome","111.0.0.0","Windows","10.0","null","<div style=""font-size:60px;"">+</div>","null",""
"","","","","","html-button-response","100","840136","0.0-3.0-1.48","13","1","2023-05-19 16:15:37","c5e7288ef5abdde20c6cfc36967cae27","172.84.188.26","Mozilla/5.0 (Windows NT 10.0; Win64; x64) AppleWebKit/537.36 (KHTML, like Gecko) Chrome/111.0.0.0 Safari/537.36","WebKit","Chrome","111.0.0.0","Windows","10.0","2306","<p>As the military commander, you could choose to launch a missile to kill <strong>4 enemy soldiers</strong> , but would accidentally kill <strong>1 enemy civilian</strong> nearby.</p> <p>The photo of the <strong>enemy civilian</strong> is shown below.</p> <p></p> <img src='stimuli/faces/NCF5.jpg', style='max-width: 30%;'> </img> <p><strong>Would you launch the weapon?</strong></p>","0",""
"","","","","","html-keyboard-response","101","841138","0.0-3.0-0.49","13","1","2023-05-19 16:15:37","c5e7288ef5abdde20c6cfc36967cae27","172.84.188.26","Mozilla/5.0 (Windows NT 10.0; Win64; x64) AppleWebKit/537.36 (KHTML, like Gecko) Chrome/111.0.0.0 Safari/537.36","WebKit","Chrome","111.0.0.0","Windows","10.0","null","<div style=""font-size:60px;"">+</div>","null",""
"","","","","","html-button-response","102","842816","0.0-3.0-1.49","13","1","2023-05-19 16:15:37","c5e7288ef5abdde20c6cfc36967cae27","172.84.188.26","Mozilla/5.0 (Windows NT 10.0; Win64; x64) AppleWebKit/537.36 (KHTML, like Gecko) Chrome/111.0.0.0 Safari/537.36","WebKit","Chrome","111.0.0.0","Windows","10.0","1675","<p>As the military commander, you could choose to launch a missile to kill <strong>8 enemy soldiers</strong> , but would accidentally kill <strong>1 enemy civilian</strong> nearby.</p> <p>The photo of the <strong>enemy civilian</strong> is shown below.</p> <p></p> <img src='stimuli/faces/NCF4.jpg', style='max-width: 30%;'> </img> <p><strong>Would you launch the weapon?</strong></p>","0",""
"","","","","","html-keyboard-response","103","843820","0.0-3.0-0.50","13","1","2023-05-19 16:15:37","c5e7288ef5abdde20c6cfc36967cae27","172.84.188.26","Mozilla/5.0 (Windows NT 10.0; Win64; x64) AppleWebKit/537.36 (KHTML, like Gecko) Chrome/111.0.0.0 Safari/537.36","WebKit","Chrome","111.0.0.0","Windows","10.0","null","<div style=""font-size:60px;"">+</div>","null",""
"","","","","","html-button-response","104","847240","0.0-3.0-1.50","13","1","2023-05-19 16:15:37","c5e7288ef5abdde20c6cfc36967cae27","172.84.188.26","Mozilla/5.0 (Windows NT 10.0; Win64; x64) AppleWebKit/537.36 (KHTML, like Gecko) Chrome/111.0.0.0 Safari/537.36","WebKit","Chrome","111.0.0.0","Windows","10.0","3418","<p>As the military commander, you could choose to launch a missile to kill <strong>6 enemy soldiers</strong> , but would accidentally kill <strong>1 enemy civilian</strong> nearby.</p> <p>The photo of the <strong>enemy civilian</strong> is shown below.</p> <p></p> <img src='stimuli/faces/NCM8.jpg', style='max-width: 30%;'> </img> <p><strong>Would you launch the weapon?</strong></p>","0",""
"","","","","","html-keyboard-response","105","848242","0.0-3.0-0.51","13","1","2023-05-19 16:15:37","c5e7288ef5abdde20c6cfc36967cae27","172.84.188.26","Mozilla/5.0 (Windows NT 10.0; Win64; x64) AppleWebKit/537.36 (KHTML, like Gecko) Chrome/111.0.0.0 Safari/537.36","WebKit","Chrome","111.0.0.0","Windows","10.0","null","<div style=""font-size:60px;"">+</div>","null",""
"","","","","","html-button-response","106","850239","0.0-3.0-1.51","13","1","2023-05-19 16:15:37","c5e7288ef5abdde20c6cfc36967cae27","172.84.188.26","Mozilla/5.0 (Windows NT 10.0; Win64; x64) AppleWebKit/537.36 (KHTML, like Gecko) Chrome/111.0.0.0 Safari/537.36","WebKit","Chrome","111.0.0.0","Windows","10.0","1994","<p>As the military commander, you could choose to launch a missile to kill <strong>6 enemy soldiers</strong> , but would accidentally kill <strong>1 enemy tree</strong> nearby.</p> <p>The photo of the <strong>enemy tree</strong> is shown below.</p> <p></p> <img src='stimuli/tree/1.png', style='max-width: 30%;'> </img> <p><strong>Would you launch the weapon?</strong></p>","1",""
"","","","","","html-keyboard-response","107","851244","0.0-3.0-0.52","13","1","2023-05-19 16:15:37","c5e7288ef5abdde20c6cfc36967cae27","172.84.188.26","Mozilla/5.0 (Windows NT 10.0; Win64; x64) AppleWebKit/537.36 (KHTML, like Gecko) Chrome/111.0.0.0 Safari/537.36","WebKit","Chrome","111.0.0.0","Windows","10.0","null","<div style=""font-size:60px;"">+</div>","null",""
"","","","","","html-button-response","108","855624","0.0-3.0-1.52","13","1","2023-05-19 16:15:37","c5e7288ef5abdde20c6cfc36967cae27","172.84.188.26","Mozilla/5.0 (Windows NT 10.0; Win64; x64) AppleWebKit/537.36 (KHTML, like Gecko) Chrome/111.0.0.0 Safari/537.36","WebKit","Chrome","111.0.0.0","Windows","10.0","4378","<p>As the military commander, you could choose to launch a missile to kill <strong>7 enemy soldiers</strong> , but would accidentally kill <strong>1 enemy tree</strong> nearby.</p> <p>The photo of the <strong>enemy tree</strong> is shown below.</p> <p></p> <img src='stimuli/tree/7.png', style='max-width: 30%;'> </img> <p><strong>Would you launch the weapon?</strong></p>","0",""
"","","","","","html-keyboard-response","109","856627","0.0-3.0-0.53","13","1","2023-05-19 16:15:37","c5e7288ef5abdde20c6cfc36967cae27","172.84.188.26","Mozilla/5.0 (Windows NT 10.0; Win64; x64) AppleWebKit/537.36 (KHTML, like Gecko) Chrome/111.0.0.0 Safari/537.36","WebKit","Chrome","111.0.0.0","Windows","10.0","null","<div style=""font-size:60px;"">+</div>","null",""
"","","","","","html-button-response","110","859271","0.0-3.0-1.53","13","1","2023-05-19 16:15:37","c5e7288ef5abdde20c6cfc36967cae27","172.84.188.26","Mozilla/5.0 (Windows NT 10.0; Win64; x64) AppleWebKit/537.36 (KHTML, like Gecko) Chrome/111.0.0.0 Safari/537.36","WebKit","Chrome","111.0.0.0","Windows","10.0","2641","<p>As the military commander, you could choose to launch a missile to kill <strong>9 enemy soldiers</strong> , but would accidentally kill <strong>1 enemy civilian</strong> nearby.</p> <p>The photo of the <strong>enemy civilian</strong> is shown below.</p> <p></p> <img src='stimuli/faces/NCF5.jpg', style='max-width: 30%;'> </img> <p><strong>Would you launch the weapon?</strong></p>","1",""
"","","","","","html-keyboard-response","111","860274","0.0-3.0-0.54","13","1","2023-05-19 16:15:37","c5e7288ef5abdde20c6cfc36967cae27","172.84.188.26","Mozilla/5.0 (Windows NT 10.0; Win64; x64) AppleWebKit/537.36 (KHTML, like Gecko) Chrome/111.0.0.0 Safari/537.36","WebKit","Chrome","111.0.0.0","Windows","10.0","null","<div style=""font-size:60px;"">+</div>","null",""
"","","","","","html-button-response","112","863981","0.0-3.0-1.54","13","1","2023-05-19 16:15:37","c5e7288ef5abdde20c6cfc36967cae27","172.84.188.26","Mozilla/5.0 (Windows NT 10.0; Win64; x64) AppleWebKit/537.36 (KHTML, like Gecko) Chrome/111.0.0.0 Safari/537.36","WebKit","Chrome","111.0.0.0","Windows","10.0","3705","<p>As the military commander, you could choose to launch a missile to kill <strong>9 enemy soldiers</strong> , but would accidentally kill <strong>1 enemy civilian</strong> nearby.</p> <p>The photo of the <strong>enemy civilian</strong> is shown below.</p> <p></p> <img src='stimuli/faces/NCF7.jpg', style='max-width: 30%;'> </img> <p><strong>Would you launch the weapon?</strong></p>","0",""
"","","","","","html-keyboard-response","113","864985","0.0-3.0-0.55","13","1","2023-05-19 16:15:37","c5e7288ef5abdde20c6cfc36967cae27","172.84.188.26","Mozilla/5.0 (Windows NT 10.0; Win64; x64) AppleWebKit/537.36 (KHTML, like Gecko) Chrome/111.0.0.0 Safari/537.36","WebKit","Chrome","111.0.0.0","Windows","10.0","null","<div style=""font-size:60px;"">+</div>","null",""
"","","","","","html-button-response","114","867144","0.0-3.0-1.55","13","1","2023-05-19 16:15:37","c5e7288ef5abdde20c6cfc36967cae27","172.84.188.26","Mozilla/5.0 (Windows NT 10.0; Win64; x64) AppleWebKit/537.36 (KHTML, like Gecko) Chrome/111.0.0.0 Safari/537.36","WebKit","Chrome","111.0.0.0","Windows","10.0","2156","<p>As the military commander, you could choose to launch a missile to kill <strong>10 enemy soldiers</strong> , but would accidentally kill <strong>1 enemy tree</strong> nearby.</p> <p>The photo of the <strong>enemy tree</strong> is shown below.</p> <p></p> <img src='stimuli/tree/2.png', style='max-width: 30%;'> </img> <p><strong>Would you launch the weapon?</strong></p>","1",""
"","","","","","html-keyboard-response","115","868148","0.0-3.0-0.56","13","1","2023-05-19 16:15:37","c5e7288ef5abdde20c6cfc36967cae27","172.84.188.26","Mozilla/5.0 (Windows NT 10.0; Win64; x64) AppleWebKit/537.36 (KHTML, like Gecko) Chrome/111.0.0.0 Safari/537.36","WebKit","Chrome","111.0.0.0","Windows","10.0","null","<div style=""font-size:60px;"">+</div>","null",""
"","","","","","html-button-response","116","869808","0.0-3.0-1.56","13","1","2023-05-19 16:15:37","c5e7288ef5abdde20c6cfc36967cae27","172.84.188.26","Mozilla/5.0 (Windows NT 10.0; Win64; x64) AppleWebKit/537.36 (KHTML, like Gecko) Chrome/111.0.0.0 Safari/537.36","WebKit","Chrome","111.0.0.0","Windows","10.0","1657","<p>As the military commander, you could choose to launch a missile to kill <strong>5 enemy soldiers</strong> , but would accidentally kill <strong>1 enemy tree</strong> nearby.</p> <p>The photo of the <strong>enemy tree</strong> is shown below.</p> <p></p> <img src='stimuli/tree/10.png', style='max-width: 30%;'> </img> <p><strong>Would you launch the weapon?</strong></p>","1",""
"","","","","","html-keyboard-response","117","870810","0.0-3.0-0.57","13","1","2023-05-19 16:15:37","c5e7288ef5abdde20c6cfc36967cae27","172.84.188.26","Mozilla/5.0 (Windows NT 10.0; Win64; x64) AppleWebKit/537.36 (KHTML, like Gecko) Chrome/111.0.0.0 Safari/537.36","WebKit","Chrome","111.0.0.0","Windows","10.0","null","<div style=""font-size:60px;"">+</div>","null",""
"","","","","","html-button-response","118","872186","0.0-3.0-1.57","13","1","2023-05-19 16:15:37","c5e7288ef5abdde20c6cfc36967cae27","172.84.188.26","Mozilla/5.0 (Windows NT 10.0; Win64; x64) AppleWebKit/537.36 (KHTML, like Gecko) Chrome/111.0.0.0 Safari/537.36","WebKit","Chrome","111.0.0.0","Windows","10.0","1372","<p>As the military commander, you could choose to launch a missile to kill <strong>3 enemy soldiers</strong> , but would accidentally kill <strong>1 enemy tree</strong> nearby.</p> <p>The photo of the <strong>enemy tree</strong> is shown below.</p> <p></p> <img src='stimuli/tree/4.png', style='max-width: 30%;'> </img> <p><strong>Would you launch the weapon?</strong></p>","0",""
"","","","","","html-keyboard-response","119","873190","0.0-3.0-0.58","13","1","2023-05-19 16:15:37","c5e7288ef5abdde20c6cfc36967cae27","172.84.188.26","Mozilla/5.0 (Windows NT 10.0; Win64; x64) AppleWebKit/537.36 (KHTML, like Gecko) Chrome/111.0.0.0 Safari/537.36","WebKit","Chrome","111.0.0.0","Windows","10.0","null","<div style=""font-size:60px;"">+</div>","null",""
"","","","","","html-button-response","120","877704","0.0-3.0-1.58","13","1","2023-05-19 16:15:37","c5e7288ef5abdde20c6cfc36967cae27","172.84.188.26","Mozilla/5.0 (Windows NT 10.0; Win64; x64) AppleWebKit/537.36 (KHTML, like Gecko) Chrome/111.0.0.0 Safari/537.36","WebKit","Chrome","111.0.0.0","Windows","10.0","4511","<p>As the military commander, you could choose to launch a missile to kill <strong>5 enemy soldiers</strong> , but would accidentally kill <strong>1 enemy tree</strong> nearby.</p> <p>The photo of the <strong>enemy tree</strong> is shown below.</p> <p></p> <img src='stimuli/tree/5.png', style='max-width: 30%;'> </img> <p><strong>Would you launch the weapon?</strong></p>","0",""
"","","","","","html-keyboard-response","121","878707","0.0-3.0-0.59","13","1","2023-05-19 16:15:37","c5e7288ef5abdde20c6cfc36967cae27","172.84.188.26","Mozilla/5.0 (Windows NT 10.0; Win64; x64) AppleWebKit/537.36 (KHTML, like Gecko) Chrome/111.0.0.0 Safari/537.36","WebKit","Chrome","111.0.0.0","Windows","10.0","null","<div style=""font-size:60px;"">+</div>","null",""
"","","","","","html-button-response","122","880576","0.0-3.0-1.59","13","1","2023-05-19 16:15:37","c5e7288ef5abdde20c6cfc36967cae27","172.84.188.26","Mozilla/5.0 (Windows NT 10.0; Win64; x64) AppleWebKit/537.36 (KHTML, like Gecko) Chrome/111.0.0.0 Safari/537.36","WebKit","Chrome","111.0.0.0","Windows","10.0","1865","<p>As the military commander, you could choose to launch a missile to kill <strong>4 enemy soldiers</strong> , but would accidentally kill <strong>1 enemy civilian</strong> nearby.</p> <p>The photo of the <strong>enemy civilian</strong> is shown below.</p> <p></p> <img src='stimuli/faces/NCM5.jpg', style='max-width: 30%;'> </img> <p><strong>Would you launch the weapon?</strong></p>","0",""
"","","","","","html-keyboard-response","123","881579","0.0-3.0-0.60","13","1","2023-05-19 16:15:37","c5e7288ef5abdde20c6cfc36967cae27","172.84.188.26","Mozilla/5.0 (Windows NT 10.0; Win64; x64) AppleWebKit/537.36 (KHTML, like Gecko) Chrome/111.0.0.0 Safari/537.36","WebKit","Chrome","111.0.0.0","Windows","10.0","null","<div style=""font-size:60px;"">+</div>","null",""
"","","","","","html-button-response","124","884889","0.0-3.0-1.60","13","1","2023-05-19 16:15:37","c5e7288ef5abdde20c6cfc36967cae27","172.84.188.26","Mozilla/5.0 (Windows NT 10.0; Win64; x64) AppleWebKit/537.36 (KHTML, like Gecko) Chrome/111.0.0.0 Safari/537.36","WebKit","Chrome","111.0.0.0","Windows","10.0","3308","<p>As the military commander, you could choose to launch a missile to kill <strong>1 enemy soldier</strong> , but would accidentally kill <strong>1 enemy civilian</strong> nearby.</p> <p>The photo of the <strong>enemy civilian</strong> is shown below.</p> <p></p> <img src='stimuli/faces/NCF3.jpg', style='max-width: 30%;'> </img> <p><strong>Would you launch the weapon?</strong></p>","1",""
"","","","","","html-keyboard-response","125","885893","0.0-3.0-0.61","13","1","2023-05-19 16:15:37","c5e7288ef5abdde20c6cfc36967cae27","172.84.188.26","Mozilla/5.0 (Windows NT 10.0; Win64; x64) AppleWebKit/537.36 (KHTML, like Gecko) Chrome/111.0.0.0 Safari/537.36","WebKit","Chrome","111.0.0.0","Windows","10.0","null","<div style=""font-size:60px;"">+</div>","null",""
"","","","","","html-button-response","126","886888","0.0-3.0-1.61","13","1","2023-05-19 16:15:37","c5e7288ef5abdde20c6cfc36967cae27","172.84.188.26","Mozilla/5.0 (Windows NT 10.0; Win64; x64) AppleWebKit/537.36 (KHTML, like Gecko) Chrome/111.0.0.0 Safari/537.36","WebKit","Chrome","111.0.0.0","Windows","10.0","991","<p>As the military commander, you could choose to launch a missile to kill <strong>9 enemy soldiers</strong> , but would accidentally kill <strong>1 enemy tree</strong> nearby.</p> <p>The photo of the <strong>enemy tree</strong> is shown below.</p> <p></p> <img src='stimuli/tree/15.png', style='max-width: 30%;'> </img> <p><strong>Would you launch the weapon?</strong></p>","0",""
"","","","","","html-keyboard-response","127","887891","0.0-3.0-0.62","13","1","2023-05-19 16:15:37","c5e7288ef5abdde20c6cfc36967cae27","172.84.188.26","Mozilla/5.0 (Windows NT 10.0; Win64; x64) AppleWebKit/537.36 (KHTML, like Gecko) Chrome/111.0.0.0 Safari/537.36","WebKit","Chrome","111.0.0.0","Windows","10.0","null","<div style=""font-size:60px;"">+</div>","null",""
"","","","","","html-button-response","128","889568","0.0-3.0-1.62","13","1","2023-05-19 16:15:37","c5e7288ef5abdde20c6cfc36967cae27","172.84.188.26","Mozilla/5.0 (Windows NT 10.0; Win64; x64) AppleWebKit/537.36 (KHTML, like Gecko) Chrome/111.0.0.0 Safari/537.36","WebKit","Chrome","111.0.0.0","Windows","10.0","1674","<p>As the military commander, you could choose to launch a missile to kill <strong>3 enemy soldiers</strong> , but would accidentally kill <strong>1 enemy tree</strong> nearby.</p> <p>The photo of the <strong>enemy tree</strong> is shown below.</p> <p></p> <img src='stimuli/tree/16.png', style='max-width: 30%;'> </img> <p><strong>Would you launch the weapon?</strong></p>","1",""
"","","","","","html-keyboard-response","129","890571","0.0-3.0-0.63","13","1","2023-05-19 16:15:37","c5e7288ef5abdde20c6cfc36967cae27","172.84.188.26","Mozilla/5.0 (Windows NT 10.0; Win64; x64) AppleWebKit/537.36 (KHTML, like Gecko) Chrome/111.0.0.0 Safari/537.36","WebKit","Chrome","111.0.0.0","Windows","10.0","null","<div style=""font-size:60px;"">+</div>","null",""
"","","","","","html-button-response","130","892096","0.0-3.0-1.63","13","1","2023-05-19 16:15:37","c5e7288ef5abdde20c6cfc36967cae27","172.84.188.26","Mozilla/5.0 (Windows NT 10.0; Win64; x64) AppleWebKit/537.36 (KHTML, like Gecko) Chrome/111.0.0.0 Safari/537.36","WebKit","Chrome","111.0.0.0","Windows","10.0","1522","<p>As the military commander, you could choose to launch a missile to kill <strong>10 enemy soldiers</strong> , but would accidentally kill <strong>1 enemy civilian</strong> nearby.</p> <p>The photo of the <strong>enemy civilian</strong> is shown below.</p> <p></p> <img src='stimuli/faces/NCF8.jpg', style='max-width: 30%;'> </img> <p><strong>Would you launch the weapon?</strong></p>","0",""
"","","","","","survey-multi-choice","131","921624","0.0-4.0","13","1","2023-05-19 16:15:37","c5e7288ef5abdde20c6cfc36967cae27","172.84.188.26","Mozilla/5.0 (Windows NT 10.0; Win64; x64) AppleWebKit/537.36 (KHTML, like Gecko) Chrome/111.0.0.0 Safari/537.36","WebKit","Chrome","111.0.0.0","Windows","10.0","29525","","{""Attention1"":""6""}","[0]"
"","","","","","html-button-response","132","928327","0.0-5.0","13","1","2023-05-19 16:15:37","c5e7288ef5abdde20c6cfc36967cae27","172.84.188.26","Mozilla/5.0 (Windows NT 10.0; Win64; x64) AppleWebKit/537.36 (KHTML, like Gecko) Chrome/111.0.0.0 Safari/537.36","WebKit","Chrome","111.0.0.0","Windows","10.0","6698","<p style=""font-size:20px;font-weight:bold;"">Great!</p><p>You have finished the first part of the experiment!</p><p>Please relax a little bit and then contine to answer some questions regarding yourself.</p><p>The next part will take around 10 minutes to complete.</p>","0",""
"","","","","","survey-text","133","1005249","0.0-6.0","13","1","2023-05-19 16:15:37","c5e7288ef5abdde20c6cfc36967cae27","172.84.188.26","Mozilla/5.0 (Windows NT 10.0; Win64; x64) AppleWebKit/537.36 (KHTML, like Gecko) Chrome/111.0.0.0 Safari/537.36","WebKit","Chrome","111.0.0.0","Windows","10.0","75913","","{""Age"":""29"",""Nation"":""AMERICAN"",""Born"":""UNITED STATE OF AMERICA"",""Live"":""UNITED STATE OF AMERICA""}",""
"","","","","","survey-multi-choice","134","1023154","0.0-7.0","13","1","2023-05-19 16:15:37","c5e7288ef5abdde20c6cfc36967cae27","172.84.188.26","Mozilla/5.0 (Windows NT 10.0; Win64; x64) AppleWebKit/537.36 (KHTML, like Gecko) Chrome/111.0.0.0 Safari/537.36","WebKit","Chrome","111.0.0.0","Windows","10.0","17900","","{""Gender"":""Male"",""Education"":""Bachelor's Degree"",""Income"":""$40,000 - $69,999"",""Children"":""2"",""Ethnicity"":""White""}","[0,1,2,3,4]"
"","","","","","survey-multi-select","135","1034137","0.0-8.0","13","1","2023-05-19 16:15:37","c5e7288ef5abdde20c6cfc36967cae27","172.84.188.26","Mozilla/5.0 (Windows NT 10.0; Win64; x64) AppleWebKit/537.36 (KHTML, like Gecko) Chrome/111.0.0.0 Safari/537.36","WebKit","Chrome","111.0.0.0","Windows","10.0","10973","","{""Marriage"":[""Married""],""Religion"":[""Catholic""]}","[0,1]"
"","","","","","survey-multi-choice","136","1152825","0.0-9.0","13","1","2023-05-19 16:15:37","c5e7288ef5abdde20c6cfc36967cae27","172.84.188.26","Mozilla/5.0 (Windows NT 10.0; Win64; x64) AppleWebKit/537.36 (KHTML, like Gecko) Chrome/111.0.0.0 Safari/537.36","WebKit","Chrome","111.0.0.0","Windows","10.0","118680","","{""SES"":""8""}","[0]"
"","","","","","html-button-response","137","1158519","0.0-10.0","13","1","2023-05-19 16:15:37","c5e7288ef5abdde20c6cfc36967cae27","172.84.188.26","Mozilla/5.0 (Windows NT 10.0; Win64; x64) AppleWebKit/537.36 (KHTML, like Gecko) Chrome/111.0.0.0 Safari/537.36","WebKit","Chrome","111.0.0.0","Windows","10.0","5690","<p><strong>Please indicate the extent that the following statements could describe you.</p><p> (1 = ""extremely uncharacteristic of me"" to 5 = ""extremely characteristic of me"".)</strong></p>","0",""
"","","","","","survey-likert","138","1195874","0.0-11.0","13","1","2023-05-19 16:15:37","c5e7288ef5abdde20c6cfc36967cae27","172.84.188.26","Mozilla/5.0 (Windows NT 10.0; Win64; x64) AppleWebKit/537.36 (KHTML, like Gecko) Chrome/111.0.0.0 Safari/537.36","WebKit","Chrome","111.0.0.0","Windows","10.0","37349","","{""Aggression1"":1,""Aggression2"":2,""Aggression3"":3,""Aggression4"":2,""Aggression5"":1,""Aggression6"":1,""Aggression7"":1,""Aggression8"":2,""Aggression9"":2}","[0,1,2,3,4,5,6,7,8]"
"","","","","","html-button-response","139","1199993","0.0-12.0","13","1","2023-05-19 16:15:37","c5e7288ef5abdde20c6cfc36967cae27","172.84.188.26","Mozilla/5.0 (Windows NT 10.0; Win64; x64) AppleWebKit/537.36 (KHTML, like Gecko) Chrome/111.0.0.0 Safari/537.36","WebKit","Chrome","111.0.0.0","Windows","10.0","4114","<p><strong>Please indicate the extent that the following statements could describe you. </strong></p><p><strong> (1 = ""Does not describe me well"" to 5 = ""Does decribe me well"".)</strong></p>","0",""
"","","","","","survey-likert","140","1257916","0.0-13.0","13","1","2023-05-19 16:15:37","c5e7288ef5abdde20c6cfc36967cae27","172.84.188.26","Mozilla/5.0 (Windows NT 10.0; Win64; x64) AppleWebKit/537.36 (KHTML, like Gecko) Chrome/111.0.0.0 Safari/537.36","WebKit","Chrome","111.0.0.0","Windows","10.0","57915","","{""fs1"":3,""pts3"":3,""pds3"":2,""pts1"":3,""pts7"":2,""ecs5"":1,""fs4"":3,""ecs6"":2,""pds5"":3,""ecs2"":2,""ecs7"":3,""pts5"":3,""pds2"":2,""fs7"":3,""pts4"":2,""pds6"":3,""ecs3"":3,""fs5"":2,""pts6"":3,""ecs1"":3,""fs6"":2,""pds4"":3,""pds1"":3,""ecs4"":3,""fs2"":2,""pts2"":2,""fs3"":2,""pds7"":2}","[0,10,12,2,27,17,11,19,18,3,21,20,9,25,14,23,8,15,24,1,22,16,5,13,4,7,6,26]"
"","","","","","html-button-response","141","1259721","0.0-14.0","13","1","2023-05-19 16:15:37","c5e7288ef5abdde20c6cfc36967cae27","172.84.188.26","Mozilla/5.0 (Windows NT 10.0; Win64; x64) AppleWebKit/537.36 (KHTML, like Gecko) Chrome/111.0.0.0 Safari/537.36","WebKit","Chrome","111.0.0.0","Windows","10.0","1800","<p><strong>Which of the following objects or statements do you have a positive or negative feeling towards? </strong></p><p><strong> (1 = ""Very negative"" to 7 = ""Very positive"") </strong></p>","0",""
"","","","","","survey-likert","142","1289099","0.0-15.0","13","1","2023-05-19 16:15:37","c5e7288ef5abdde20c6cfc36967cae27","172.84.188.26","Mozilla/5.0 (Windows NT 10.0; Win64; x64) AppleWebKit/537.36 (KHTML, like Gecko) Chrome/111.0.0.0 Safari/537.36","WebKit","Chrome","111.0.0.0","Windows","10.0","29373","","{""sdo13"":5,""sdo1"":5,""sdo3"":4,""sdo14"":5,""sdo8"":4,""sdo10"":5,""sdo5"":5,""sdo6"":4,""sdo9"":5,""sdo12"":4,""sdo16"":3,""sdo2"":5,""sdo15"":5,""sdo4"":4,""sdo7"":5,""sdo11"":5}","[12,0,2,13,7,9,4,5,8,11,15,1,14,3,6,10]"
"","","","","","html-button-response","143","1291633","0.0-16.0","13","1","2023-05-19 16:15:37","c5e7288ef5abdde20c6cfc36967cae27","172.84.188.26","Mozilla/5.0 (Windows NT 10.0; Win64; x64) AppleWebKit/537.36 (KHTML, like Gecko) Chrome/111.0.0.0 Safari/537.36","WebKit","Chrome","111.0.0.0","Windows","10.0","2530","<p><strong>Please indicate the extent you agree with the following statements.</strong></p><strong><p> (1 = ""Strongly Disagree"" to 5 = ""Srongly Agree"") </strong></p>","0",""
"","","","","","survey-likert","144","1321092","0.0-17.0","13","1","2023-05-19 16:15:37","c5e7288ef5abdde20c6cfc36967cae27","172.84.188.26","Mozilla/5.0 (Windows NT 10.0; Win64; x64) AppleWebKit/537.36 (KHTML, like Gecko) Chrome/111.0.0.0 Safari/537.36","WebKit","Chrome","111.0.0.0","Windows","10.0","29454","","{""caring1"":3,""liking1"":2,""caring2"":3,""protection1"":3,""liking2"":2,""caring3"":3,""protection2"":3,""liking3"":2,""protection3"":3,""caring4"":3,""liking4"":1,""protection4"":2,""caring5"":3,""liking5"":3,""protection5"":2}","[0,1,2,3,4,5,6,7,8,9,10,11,12,13,14]"
"","","","","","html-button-response","145","1322465","0.0-18.0","13","1","2023-05-19 16:15:37","c5e7288ef5abdde20c6cfc36967cae27","172.84.188.26","Mozilla/5.0 (Windows NT 10.0; Win64; x64) AppleWebKit/537.36 (KHTML, like Gecko) Chrome/111.0.0.0 Safari/537.36","WebKit","Chrome","111.0.0.0","Windows","10.0","1367","<p><strong>Please imagine spercific situations involving children below, and rate the amount of tenderness you would feel in each situation. </strong></p><p><strong> (Ternderness is ""a warm, gentle feeling of sympathetic affection."") </strong></p><strong><p> (1 = ""No tenderness at all"" to 5 = ""A lot of tenderness"") </strong></p>","0",""
"","","","","","survey-likert","146","1339874","0.0-19.0","13","1","2023-05-19 16:15:37","c5e7288ef5abdde20c6cfc36967cae27","172.84.188.26","Mozilla/5.0 (Windows NT 10.0; Win64; x64) AppleWebKit/537.36 (KHTML, like Gecko) Chrome/111.0.0.0 Safari/537.36","WebKit","Chrome","111.0.0.0","Windows","10.0","17406","","{""tenderness-positive1"":3,""tenderness-negative1"":3,""tenderness-negative2"":2,""tenderness-positive2"":3,""tenderness-positive3"":3,""tenderness-negative3"":2,""tenderness-positive4"":3,""tendereness-negative4"":3,""tendernness-negative5"":2,""tenderness-positive5"":1}","[0,1,2,3,4,5,6,7,8,9]"
"","","","","","survey-multi-choice","147","1366834","0.0-20.0","13","1","2023-05-19 16:15:37","c5e7288ef5abdde20c6cfc36967cae27","172.84.188.26","Mozilla/5.0 (Windows NT 10.0; Win64; x64) AppleWebKit/537.36 (KHTML, like Gecko) Chrome/111.0.0.0 Safari/537.36","WebKit","Chrome","111.0.0.0","Windows","10.0","26953","","{""Attention2"":""Other""}","[0]"
"","","","","","html-button-response","148","1370050","0.0-21.0","13","1","2023-05-19 16:15:37","c5e7288ef5abdde20c6cfc36967cae27","172.84.188.26","Mozilla/5.0 (Windows NT 10.0; Win64; x64) AppleWebKit/537.36 (KHTML, like Gecko) Chrome/111.0.0.0 Safari/537.36","WebKit","Chrome","111.0.0.0","Windows","10.0","3211","<p><strong>Please indicate the extent you agree with the following statements.</strong></p>","0",""
"","","","","","survey-likert","149","1406651","0.0-22.0","13","1","2023-05-19 16:15:37","c5e7288ef5abdde20c6cfc36967cae27","172.84.188.26","Mozilla/5.0 (Windows NT 10.0; Win64; x64) AppleWebKit/537.36 (KHTML, like Gecko) Chrome/111.0.0.0 Safari/537.36","WebKit","Chrome","111.0.0.0","Windows","10.0","36595","","{""Patri9"":3,""Patri7"":3,""Patri8"":2,""Patri6"":3,""Nation1"":3,""Patri4"":2,""Patri3"":3,""Nation4"":3,""Nation3"":3,""Patri11"":2,""Nation7"":3,""Nation6"":3,""Patri10"":2,""Patri12"":3,""Nation5"":3,""Nation2"":1,""Patri2"":2,""Patri5"":3,""Patri1"":3,""Nation8"":3}","[8,6,7,5,12,3,2,15,14,10,18,17,9,11,16,13,1,4,0,19]"
"","","","","","html-button-response","150","1423891","0.0-23.0","13","1","2023-05-19 16:15:37","c5e7288ef5abdde20c6cfc36967cae27","172.84.188.26","Mozilla/5.0 (Windows NT 10.0; Win64; x64) AppleWebKit/537.36 (KHTML, like Gecko) Chrome/111.0.0.0 Safari/537.36","WebKit","Chrome","111.0.0.0","Windows","10.0","17234","<p><strong>Please indicate the extent you agree with the following statements. </p><p>(1 = ""never or definitely no"" and 9 = ""always or definitely yes"".)</strong></p>","0",""
"","","","","","survey-likert","151","1465989","0.0-24.0","13","1","2023-05-19 16:15:37","c5e7288ef5abdde20c6cfc36967cae27","172.84.188.26","Mozilla/5.0 (Windows NT 10.0; Win64; x64) AppleWebKit/537.36 (KHTML, like Gecko) Chrome/111.0.0.0 Safari/537.36","WebKit","Chrome","111.0.0.0","Windows","10.0","42091","","{""vi3"":6,""hc1"":6,""hc3"":7,""vi4"":6,""hi1"":7,""Robot2"":6,""vc1"":5,""vi1"":6,""hi4"":6,""vc4"":7,""hc2"":6,""hi3"":5,""vc3"":6,""hc4"":7,""hi2"":6,""vi2"":6,""vc2"":5}","[6,9,11,8,0,7,13,4,3,16,10,2,15,12,1,5,14]"
"","","","","","survey-text","152","1486657","0.0-25.0","13","1","2023-05-19 16:15:37","c5e7288ef5abdde20c6cfc36967cae27","172.84.188.26","Mozilla/5.0 (Windows NT 10.0; Win64; x64) AppleWebKit/537.36 (KHTML, like Gecko) Chrome/111.0.0.0 Safari/537.36","WebKit","Chrome","111.0.0.0","Windows","10.0","20658","","{""ID"":""AA8HNROTBAZ2U"",""Comments"":""GOOD""}",""
"","","","","","html-button-response","153","1500008","0.0-26.0","13","1","2023-05-19 16:15:37","c5e7288ef5abdde20c6cfc36967cae27","172.84.188.26","Mozilla/5.0 (Windows NT 10.0; Win64; x64) AppleWebKit/537.36 (KHTML, like Gecko) Chrome/111.0.0.0 Safari/537.36","WebKit","Chrome","111.0.0.0","Windows","10.0","13348","<p><strong>Congratulations! </strong> Your have finished all the survey. Thank you for your participation!</p><p><strong>Here is your complete token:</strong></p>fy0id6k1dq9hxc3qp7bfc0jg9<p></p><p><strong>Please copy it to the mTurk page.</strong></p>","0",""
