"success","timeout","failed_images","failed_audio","failed_video","trial_type","trial_index","time_elapsed","internal_node_id","run_id","condition","recorded_at","source_code_version","ip","user_agent","device","browser","browser_version","platform","platform_version","rt","stimulus","response","question_order"
"true","false","[]","[]","[]","preload","0","8361","0.0-0.0","14","1","2023-05-22 23:52:33","c5e7288ef5abdde20c6cfc36967cae27","37.19.64.4","Mozilla/5.0 (Windows NT 10.0; Win64; x64) AppleWebKit/537.36 (KHTML, like Gecko) Chrome/109.0.0.0 Safari/537.36","WebKit","Chrome","109.0.0.0","Windows","10.0","","","",""
"true","","","","","fullscreen","1","11075","0.0-1.0","14","1","2023-05-22 23:52:33","c5e7288ef5abdde20c6cfc36967cae27","37.19.64.4","Mozilla/5.0 (Windows NT 10.0; Win64; x64) AppleWebKit/537.36 (KHTML, like Gecko) Chrome/109.0.0.0 Safari/537.36","WebKit","Chrome","109.0.0.0","Windows","10.0","","","",""
"","","","","","html-button-response","2","13449","0.0-2.0","14","1","2023-05-22 23:52:33","c5e7288ef5abdde20c6cfc36967cae27","37.19.64.4","Mozilla/5.0 (Windows NT 10.0; Win64; x64) AppleWebKit/537.36 (KHTML, like Gecko) Chrome/109.0.0.0 Safari/537.36","WebKit","Chrome","109.0.0.0","Windows","10.0","2370","<p ><strong>Welcome to the experiment!</strong></p><p ><strong>In the first task, please imagine:</strong></p><p>Your country is involved in a military conflict with another country.</p><p>You are the commander of your army and must make decisions in the conflict.</p><p>Specifically, as the military commander, you must decide whether to launch a missile to strike enemy.</p><p>You will face a series of scenarios. Please read each scenario carefully and make a decision.</p><p>The task will take around 10 minutes to complete.</p><p><strong>Please pay your attention during the experiment.</strong></p>","0",""
"","","","","","html-keyboard-response","3","14450","0.0-3.0-0.0","14","1","2023-05-22 23:52:33","c5e7288ef5abdde20c6cfc36967cae27","37.19.64.4","Mozilla/5.0 (Windows NT 10.0; Win64; x64) AppleWebKit/537.36 (KHTML, like Gecko) Chrome/109.0.0.0 Safari/537.36","WebKit","Chrome","109.0.0.0","Windows","10.0","null","<div style=""font-size:60px;"">+</div>","null",""
"","","","","","html-button-response","4","22817","0.0-3.0-1.0","14","1","2023-05-22 23:52:33","c5e7288ef5abdde20c6cfc36967cae27","37.19.64.4","Mozilla/5.0 (Windows NT 10.0; Win64; x64) AppleWebKit/537.36 (KHTML, like Gecko) Chrome/109.0.0.0 Safari/537.36","WebKit","Chrome","109.0.0.0","Windows","10.0","8362","<p>As the military commander, you could choose to launch a missile to kill <strong>6 enemy soldiers</strong> , but would accidentally kill <strong>1 enemy tree</strong> nearby.</p> <p>The photo of the <strong>enemy tree</strong> is shown below.</p> <p></p> <img src='stimuli/tree/5.png', style='max-width: 30%;'> </img> <p><strong>Would you launch the weapon?</strong></p>","0",""
"","","","","","html-keyboard-response","5","23824","0.0-3.0-0.1","14","1","2023-05-22 23:52:33","c5e7288ef5abdde20c6cfc36967cae27","37.19.64.4","Mozilla/5.0 (Windows NT 10.0; Win64; x64) AppleWebKit/537.36 (KHTML, like Gecko) Chrome/109.0.0.0 Safari/537.36","WebKit","Chrome","109.0.0.0","Windows","10.0","null","<div style=""font-size:60px;"">+</div>","null",""
"","","","","","html-button-response","6","39314","0.0-3.0-1.1","14","1","2023-05-22 23:52:33","c5e7288ef5abdde20c6cfc36967cae27","37.19.64.4","Mozilla/5.0 (Windows NT 10.0; Win64; x64) AppleWebKit/537.36 (KHTML, like Gecko) Chrome/109.0.0.0 Safari/537.36","WebKit","Chrome","109.0.0.0","Windows","10.0","15486","<p>As the military commander, you could choose to launch a missile to kill <strong>8 enemy soldiers</strong> , but would accidentally kill <strong>1 enemy tree</strong> nearby.</p> <p>The photo of the <strong>enemy tree</strong> is shown below.</p> <p></p> <img src='stimuli/tree/13.png', style='max-width: 30%;'> </img> <p><strong>Would you launch the weapon?</strong></p>","0",""
"","","","","","html-keyboard-response","7","40340","0.0-3.0-0.2","14","1","2023-05-22 23:52:33","c5e7288ef5abdde20c6cfc36967cae27","37.19.64.4","Mozilla/5.0 (Windows NT 10.0; Win64; x64) AppleWebKit/537.36 (KHTML, like Gecko) Chrome/109.0.0.0 Safari/537.36","WebKit","Chrome","109.0.0.0","Windows","10.0","null","<div style=""font-size:60px;"">+</div>","null",""
"","","","","","html-button-response","8","42394","0.0-3.0-1.2","14","1","2023-05-22 23:52:33","c5e7288ef5abdde20c6cfc36967cae27","37.19.64.4","Mozilla/5.0 (Windows NT 10.0; Win64; x64) AppleWebKit/537.36 (KHTML, like Gecko) Chrome/109.0.0.0 Safari/537.36","WebKit","Chrome","109.0.0.0","Windows","10.0","2051","<p>As the military commander, you could choose to launch a missile to kill <strong>5 enemy soldiers</strong> , but would accidentally kill <strong>1 enemy tree</strong> nearby.</p> <p>The photo of the <strong>enemy tree</strong> is shown below.</p> <p></p> <img src='stimuli/tree/3.png', style='max-width: 30%;'> </img> <p><strong>Would you launch the weapon?</strong></p>","1",""
"","","","","","html-keyboard-response","9","43403","0.0-3.0-0.3","14","1","2023-05-22 23:52:33","c5e7288ef5abdde20c6cfc36967cae27","37.19.64.4","Mozilla/5.0 (Windows NT 10.0; Win64; x64) AppleWebKit/537.36 (KHTML, like Gecko) Chrome/109.0.0.0 Safari/537.36","WebKit","Chrome","109.0.0.0","Windows","10.0","null","<div style=""font-size:60px;"">+</div>","null",""
"","","","","","html-button-response","10","46426","0.0-3.0-1.3","14","1","2023-05-22 23:52:33","c5e7288ef5abdde20c6cfc36967cae27","37.19.64.4","Mozilla/5.0 (Windows NT 10.0; Win64; x64) AppleWebKit/537.36 (KHTML, like Gecko) Chrome/109.0.0.0 Safari/537.36","WebKit","Chrome","109.0.0.0","Windows","10.0","3021","<p>As the military commander, you could choose to launch a missile to kill <strong>5 enemy soldiers</strong> , but would accidentally kill <strong>1 enemy civilian</strong> nearby.</p> <p>The photo of the <strong>enemy civilian</strong> is shown below.</p> <p></p> <img src='stimuli/faces/NCM6.jpg', style='max-width: 30%;'> </img> <p><strong>Would you launch the weapon?</strong></p>","0",""
"","","","","","html-keyboard-response","11","47438","0.0-3.0-0.4","14","1","2023-05-22 23:52:33","c5e7288ef5abdde20c6cfc36967cae27","37.19.64.4","Mozilla/5.0 (Windows NT 10.0; Win64; x64) AppleWebKit/537.36 (KHTML, like Gecko) Chrome/109.0.0.0 Safari/537.36","WebKit","Chrome","109.0.0.0","Windows","10.0","null","<div style=""font-size:60px;"">+</div>","null",""
"","","","","","html-button-response","12","50855","0.0-3.0-1.4","14","1","2023-05-22 23:52:33","c5e7288ef5abdde20c6cfc36967cae27","37.19.64.4","Mozilla/5.0 (Windows NT 10.0; Win64; x64) AppleWebKit/537.36 (KHTML, like Gecko) Chrome/109.0.0.0 Safari/537.36","WebKit","Chrome","109.0.0.0","Windows","10.0","3413","<p>As the military commander, you could choose to launch a missile to kill <strong>9 enemy soldiers</strong> , but would accidentally kill <strong>1 enemy civilian</strong> nearby.</p> <p>The photo of the <strong>enemy civilian</strong> is shown below.</p> <p></p> <img src='stimuli/faces/NCM6.jpg', style='max-width: 30%;'> </img> <p><strong>Would you launch the weapon?</strong></p>","0",""
"","","","","","html-keyboard-response","13","51865","0.0-3.0-0.5","14","1","2023-05-22 23:52:33","c5e7288ef5abdde20c6cfc36967cae27","37.19.64.4","Mozilla/5.0 (Windows NT 10.0; Win64; x64) AppleWebKit/537.36 (KHTML, like Gecko) Chrome/109.0.0.0 Safari/537.36","WebKit","Chrome","109.0.0.0","Windows","10.0","null","<div style=""font-size:60px;"">+</div>","null",""
"","","","","","html-button-response","14","52977","0.0-3.0-1.5","14","1","2023-05-22 23:52:33","c5e7288ef5abdde20c6cfc36967cae27","37.19.64.4","Mozilla/5.0 (Windows NT 10.0; Win64; x64) AppleWebKit/537.36 (KHTML, like Gecko) Chrome/109.0.0.0 Safari/537.36","WebKit","Chrome","109.0.0.0","Windows","10.0","1096","<p>As the military commander, you could choose to launch a missile to kill <strong>1 enemy soldier</strong> , but would accidentally kill <strong>1 enemy tree</strong> nearby.</p> <p>The photo of the <strong>enemy tree</strong> is shown below.</p> <p></p> <img src='stimuli/tree/8.png', style='max-width: 30%;'> </img> <p><strong>Would you launch the weapon?</strong></p>","1",""
"","","","","","html-keyboard-response","15","54011","0.0-3.0-0.6","14","1","2023-05-22 23:52:33","c5e7288ef5abdde20c6cfc36967cae27","37.19.64.4","Mozilla/5.0 (Windows NT 10.0; Win64; x64) AppleWebKit/537.36 (KHTML, like Gecko) Chrome/109.0.0.0 Safari/537.36","WebKit","Chrome","109.0.0.0","Windows","10.0","null","<div style=""font-size:60px;"">+</div>","null",""
"","","","","","html-button-response","16","54778","0.0-3.0-1.6","14","1","2023-05-22 23:52:33","c5e7288ef5abdde20c6cfc36967cae27","37.19.64.4","Mozilla/5.0 (Windows NT 10.0; Win64; x64) AppleWebKit/537.36 (KHTML, like Gecko) Chrome/109.0.0.0 Safari/537.36","WebKit","Chrome","109.0.0.0","Windows","10.0","763","<p>As the military commander, you could choose to launch a missile to kill <strong>6 enemy soldiers</strong> , but would accidentally kill <strong>1 enemy civilian</strong> nearby.</p> <p>The photo of the <strong>enemy civilian</strong> is shown below.</p> <p></p> <img src='stimuli/faces/NCM8.jpg', style='max-width: 30%;'> </img> <p><strong>Would you launch the weapon?</strong></p>","0",""
"","","","","","html-keyboard-response","17","55779","0.0-3.0-0.7","14","1","2023-05-22 23:52:33","c5e7288ef5abdde20c6cfc36967cae27","37.19.64.4","Mozilla/5.0 (Windows NT 10.0; Win64; x64) AppleWebKit/537.36 (KHTML, like Gecko) Chrome/109.0.0.0 Safari/537.36","WebKit","Chrome","109.0.0.0","Windows","10.0","null","<div style=""font-size:60px;"">+</div>","null",""
"","","","","","html-button-response","18","56706","0.0-3.0-1.7","14","1","2023-05-22 23:52:33","c5e7288ef5abdde20c6cfc36967cae27","37.19.64.4","Mozilla/5.0 (Windows NT 10.0; Win64; x64) AppleWebKit/537.36 (KHTML, like Gecko) Chrome/109.0.0.0 Safari/537.36","WebKit","Chrome","109.0.0.0","Windows","10.0","924","<p>As the military commander, you could choose to launch a missile to kill <strong>6 enemy soldiers</strong> , but would accidentally kill <strong>1 enemy civilian</strong> nearby.</p> <p>The photo of the <strong>enemy civilian</strong> is shown below.</p> <p></p> <img src='stimuli/faces/NCF1.jpg', style='max-width: 30%;'> </img> <p><strong>Would you launch the weapon?</strong></p>","0",""
"","","","","","html-keyboard-response","19","57726","0.0-3.0-0.8","14","1","2023-05-22 23:52:33","c5e7288ef5abdde20c6cfc36967cae27","37.19.64.4","Mozilla/5.0 (Windows NT 10.0; Win64; x64) AppleWebKit/537.36 (KHTML, like Gecko) Chrome/109.0.0.0 Safari/537.36","WebKit","Chrome","109.0.0.0","Windows","10.0","null","<div style=""font-size:60px;"">+</div>","null",""
"","","","","","html-button-response","20","58754","0.0-3.0-1.8","14","1","2023-05-22 23:52:33","c5e7288ef5abdde20c6cfc36967cae27","37.19.64.4","Mozilla/5.0 (Windows NT 10.0; Win64; x64) AppleWebKit/537.36 (KHTML, like Gecko) Chrome/109.0.0.0 Safari/537.36","WebKit","Chrome","109.0.0.0","Windows","10.0","1025","<p>As the military commander, you could choose to launch a missile to kill <strong>5 enemy soldiers</strong> , but would accidentally kill <strong>1 enemy civilian</strong> nearby.</p> <p>The photo of the <strong>enemy civilian</strong> is shown below.</p> <p></p> <img src='stimuli/faces/NCF7.jpg', style='max-width: 30%;'> </img> <p><strong>Would you launch the weapon?</strong></p>","0",""
"","","","","","html-keyboard-response","21","59786","0.0-3.0-0.9","14","1","2023-05-22 23:52:33","c5e7288ef5abdde20c6cfc36967cae27","37.19.64.4","Mozilla/5.0 (Windows NT 10.0; Win64; x64) AppleWebKit/537.36 (KHTML, like Gecko) Chrome/109.0.0.0 Safari/537.36","WebKit","Chrome","109.0.0.0","Windows","10.0","null","<div style=""font-size:60px;"">+</div>","null",""
"","","","","","html-button-response","22","61442","0.0-3.0-1.9","14","1","2023-05-22 23:52:33","c5e7288ef5abdde20c6cfc36967cae27","37.19.64.4","Mozilla/5.0 (Windows NT 10.0; Win64; x64) AppleWebKit/537.36 (KHTML, like Gecko) Chrome/109.0.0.0 Safari/537.36","WebKit","Chrome","109.0.0.0","Windows","10.0","1653","<p>As the military commander, you could choose to launch a missile to kill <strong>3 enemy soldiers</strong> , but would accidentally kill <strong>1 enemy tree</strong> nearby.</p> <p>The photo of the <strong>enemy tree</strong> is shown below.</p> <p></p> <img src='stimuli/tree/9.png', style='max-width: 30%;'> </img> <p><strong>Would you launch the weapon?</strong></p>","1",""
"","","","","","html-keyboard-response","23","62461","0.0-3.0-0.10","14","1","2023-05-22 23:52:33","c5e7288ef5abdde20c6cfc36967cae27","37.19.64.4","Mozilla/5.0 (Windows NT 10.0; Win64; x64) AppleWebKit/537.36 (KHTML, like Gecko) Chrome/109.0.0.0 Safari/537.36","WebKit","Chrome","109.0.0.0","Windows","10.0","null","<div style=""font-size:60px;"">+</div>","null",""
"","","","","","html-button-response","24","63673","0.0-3.0-1.10","14","1","2023-05-22 23:52:33","c5e7288ef5abdde20c6cfc36967cae27","37.19.64.4","Mozilla/5.0 (Windows NT 10.0; Win64; x64) AppleWebKit/537.36 (KHTML, like Gecko) Chrome/109.0.0.0 Safari/537.36","WebKit","Chrome","109.0.0.0","Windows","10.0","1210","<p>As the military commander, you could choose to launch a missile to kill <strong>10 enemy soldiers</strong> , but would accidentally kill <strong>1 enemy civilian</strong> nearby.</p> <p>The photo of the <strong>enemy civilian</strong> is shown below.</p> <p></p> <img src='stimuli/faces/NCF3.jpg', style='max-width: 30%;'> </img> <p><strong>Would you launch the weapon?</strong></p>","0",""
"","","","","","html-keyboard-response","25","64707","0.0-3.0-0.11","14","1","2023-05-22 23:52:33","c5e7288ef5abdde20c6cfc36967cae27","37.19.64.4","Mozilla/5.0 (Windows NT 10.0; Win64; x64) AppleWebKit/537.36 (KHTML, like Gecko) Chrome/109.0.0.0 Safari/537.36","WebKit","Chrome","109.0.0.0","Windows","10.0","null","<div style=""font-size:60px;"">+</div>","null",""
"","","","","","html-button-response","26","65873","0.0-3.0-1.11","14","1","2023-05-22 23:52:33","c5e7288ef5abdde20c6cfc36967cae27","37.19.64.4","Mozilla/5.0 (Windows NT 10.0; Win64; x64) AppleWebKit/537.36 (KHTML, like Gecko) Chrome/109.0.0.0 Safari/537.36","WebKit","Chrome","109.0.0.0","Windows","10.0","1164","<p>As the military commander, you could choose to launch a missile to kill <strong>6 enemy soldiers</strong> , but would accidentally kill <strong>1 enemy civilian</strong> nearby.</p> <p>The photo of the <strong>enemy civilian</strong> is shown below.</p> <p></p> <img src='stimuli/faces/NCF5.jpg', style='max-width: 30%;'> </img> <p><strong>Would you launch the weapon?</strong></p>","0",""
"","","","","","html-keyboard-response","27","66880","0.0-3.0-0.12","14","1","2023-05-22 23:52:33","c5e7288ef5abdde20c6cfc36967cae27","37.19.64.4","Mozilla/5.0 (Windows NT 10.0; Win64; x64) AppleWebKit/537.36 (KHTML, like Gecko) Chrome/109.0.0.0 Safari/537.36","WebKit","Chrome","109.0.0.0","Windows","10.0","null","<div style=""font-size:60px;"">+</div>","null",""
"","","","","","html-button-response","28","68609","0.0-3.0-1.12","14","1","2023-05-22 23:52:33","c5e7288ef5abdde20c6cfc36967cae27","37.19.64.4","Mozilla/5.0 (Windows NT 10.0; Win64; x64) AppleWebKit/537.36 (KHTML, like Gecko) Chrome/109.0.0.0 Safari/537.36","WebKit","Chrome","109.0.0.0","Windows","10.0","1727","<p>As the military commander, you could choose to launch a missile to kill <strong>9 enemy soldiers</strong> , but would accidentally kill <strong>1 enemy tree</strong> nearby.</p> <p>The photo of the <strong>enemy tree</strong> is shown below.</p> <p></p> <img src='stimuli/tree/7.png', style='max-width: 30%;'> </img> <p><strong>Would you launch the weapon?</strong></p>","1",""
"","","","","","html-keyboard-response","29","69620","0.0-3.0-0.13","14","1","2023-05-22 23:52:33","c5e7288ef5abdde20c6cfc36967cae27","37.19.64.4","Mozilla/5.0 (Windows NT 10.0; Win64; x64) AppleWebKit/537.36 (KHTML, like Gecko) Chrome/109.0.0.0 Safari/537.36","WebKit","Chrome","109.0.0.0","Windows","10.0","null","<div style=""font-size:60px;"">+</div>","null",""
"","","","","","html-button-response","30","70634","0.0-3.0-1.13","14","1","2023-05-22 23:52:33","c5e7288ef5abdde20c6cfc36967cae27","37.19.64.4","Mozilla/5.0 (Windows NT 10.0; Win64; x64) AppleWebKit/537.36 (KHTML, like Gecko) Chrome/109.0.0.0 Safari/537.36","WebKit","Chrome","109.0.0.0","Windows","10.0","1011","<p>As the military commander, you could choose to launch a missile to kill <strong>1 enemy soldier</strong> , but would accidentally kill <strong>1 enemy civilian</strong> nearby.</p> <p>The photo of the <strong>enemy civilian</strong> is shown below.</p> <p></p> <img src='stimuli/faces/NCF6.jpg', style='max-width: 30%;'> </img> <p><strong>Would you launch the weapon?</strong></p>","0",""
"","","","","","html-keyboard-response","31","71662","0.0-3.0-0.14","14","1","2023-05-22 23:52:33","c5e7288ef5abdde20c6cfc36967cae27","37.19.64.4","Mozilla/5.0 (Windows NT 10.0; Win64; x64) AppleWebKit/537.36 (KHTML, like Gecko) Chrome/109.0.0.0 Safari/537.36","WebKit","Chrome","109.0.0.0","Windows","10.0","null","<div style=""font-size:60px;"">+</div>","null",""
"","","","","","html-button-response","32","73226","0.0-3.0-1.14","14","1","2023-05-22 23:52:33","c5e7288ef5abdde20c6cfc36967cae27","37.19.64.4","Mozilla/5.0 (Windows NT 10.0; Win64; x64) AppleWebKit/537.36 (KHTML, like Gecko) Chrome/109.0.0.0 Safari/537.36","WebKit","Chrome","109.0.0.0","Windows","10.0","1561","<p>As the military commander, you could choose to launch a missile to kill <strong>9 enemy soldiers</strong> , but would accidentally kill <strong>1 enemy civilian</strong> nearby.</p> <p>The photo of the <strong>enemy civilian</strong> is shown below.</p> <p></p> <img src='stimuli/faces/NCF7.jpg', style='max-width: 30%;'> </img> <p><strong>Would you launch the weapon?</strong></p>","0",""
"","","","","","html-keyboard-response","33","74240","0.0-3.0-0.15","14","1","2023-05-22 23:52:33","c5e7288ef5abdde20c6cfc36967cae27","37.19.64.4","Mozilla/5.0 (Windows NT 10.0; Win64; x64) AppleWebKit/537.36 (KHTML, like Gecko) Chrome/109.0.0.0 Safari/537.36","WebKit","Chrome","109.0.0.0","Windows","10.0","null","<div style=""font-size:60px;"">+</div>","null",""
"","","","","","html-button-response","34","76233","0.0-3.0-1.15","14","1","2023-05-22 23:52:33","c5e7288ef5abdde20c6cfc36967cae27","37.19.64.4","Mozilla/5.0 (Windows NT 10.0; Win64; x64) AppleWebKit/537.36 (KHTML, like Gecko) Chrome/109.0.0.0 Safari/537.36","WebKit","Chrome","109.0.0.0","Windows","10.0","1990","<p>As the military commander, you could choose to launch a missile to kill <strong>4 enemy soldiers</strong> , but would accidentally kill <strong>1 enemy civilian</strong> nearby.</p> <p>The photo of the <strong>enemy civilian</strong> is shown below.</p> <p></p> <img src='stimuli/faces/NCF5.jpg', style='max-width: 30%;'> </img> <p><strong>Would you launch the weapon?</strong></p>","0",""
"","","","","","html-keyboard-response","35","77248","0.0-3.0-0.16","14","1","2023-05-22 23:52:33","c5e7288ef5abdde20c6cfc36967cae27","37.19.64.4","Mozilla/5.0 (Windows NT 10.0; Win64; x64) AppleWebKit/537.36 (KHTML, like Gecko) Chrome/109.0.0.0 Safari/537.36","WebKit","Chrome","109.0.0.0","Windows","10.0","null","<div style=""font-size:60px;"">+</div>","null",""
"","","","","","html-button-response","36","85153","0.0-3.0-1.16","14","1","2023-05-22 23:52:33","c5e7288ef5abdde20c6cfc36967cae27","37.19.64.4","Mozilla/5.0 (Windows NT 10.0; Win64; x64) AppleWebKit/537.36 (KHTML, like Gecko) Chrome/109.0.0.0 Safari/537.36","WebKit","Chrome","109.0.0.0","Windows","10.0","7902","<p>As the military commander, you could choose to launch a missile to kill <strong>7 enemy soldiers</strong> , but would accidentally kill <strong>1 enemy civilian</strong> nearby.</p> <p>The photo of the <strong>enemy civilian</strong> is shown below.</p> <p></p> <img src='stimuli/faces/NCF6.jpg', style='max-width: 30%;'> </img> <p><strong>Would you launch the weapon?</strong></p>","0",""
"","","","","","html-keyboard-response","37","86162","0.0-3.0-0.17","14","1","2023-05-22 23:52:33","c5e7288ef5abdde20c6cfc36967cae27","37.19.64.4","Mozilla/5.0 (Windows NT 10.0; Win64; x64) AppleWebKit/537.36 (KHTML, like Gecko) Chrome/109.0.0.0 Safari/537.36","WebKit","Chrome","109.0.0.0","Windows","10.0","null","<div style=""font-size:60px;"">+</div>","null",""
"","","","","","html-button-response","38","87233","0.0-3.0-1.17","14","1","2023-05-22 23:52:33","c5e7288ef5abdde20c6cfc36967cae27","37.19.64.4","Mozilla/5.0 (Windows NT 10.0; Win64; x64) AppleWebKit/537.36 (KHTML, like Gecko) Chrome/109.0.0.0 Safari/537.36","WebKit","Chrome","109.0.0.0","Windows","10.0","1068","<p>As the military commander, you could choose to launch a missile to kill <strong>9 enemy soldiers</strong> , but would accidentally kill <strong>1 enemy tree</strong> nearby.</p> <p>The photo of the <strong>enemy tree</strong> is shown below.</p> <p></p> <img src='stimuli/tree/9.png', style='max-width: 30%;'> </img> <p><strong>Would you launch the weapon?</strong></p>","1",""
"","","","","","html-keyboard-response","39","88243","0.0-3.0-0.18","14","1","2023-05-22 23:52:33","c5e7288ef5abdde20c6cfc36967cae27","37.19.64.4","Mozilla/5.0 (Windows NT 10.0; Win64; x64) AppleWebKit/537.36 (KHTML, like Gecko) Chrome/109.0.0.0 Safari/537.36","WebKit","Chrome","109.0.0.0","Windows","10.0","null","<div style=""font-size:60px;"">+</div>","null",""
"","","","","","html-button-response","40","88922","0.0-3.0-1.18","14","1","2023-05-22 23:52:33","c5e7288ef5abdde20c6cfc36967cae27","37.19.64.4","Mozilla/5.0 (Windows NT 10.0; Win64; x64) AppleWebKit/537.36 (KHTML, like Gecko) Chrome/109.0.0.0 Safari/537.36","WebKit","Chrome","109.0.0.0","Windows","10.0","675","<p>As the military commander, you could choose to launch a missile to kill <strong>9 enemy soldiers</strong> , but would accidentally kill <strong>1 enemy civilian</strong> nearby.</p> <p>The photo of the <strong>enemy civilian</strong> is shown below.</p> <p></p> <img src='stimuli/faces/NCF8.jpg', style='max-width: 30%;'> </img> <p><strong>Would you launch the weapon?</strong></p>","0",""
"","","","","","html-keyboard-response","41","89945","0.0-3.0-0.19","14","1","2023-05-22 23:52:33","c5e7288ef5abdde20c6cfc36967cae27","37.19.64.4","Mozilla/5.0 (Windows NT 10.0; Win64; x64) AppleWebKit/537.36 (KHTML, like Gecko) Chrome/109.0.0.0 Safari/537.36","WebKit","Chrome","109.0.0.0","Windows","10.0","null","<div style=""font-size:60px;"">+</div>","null",""
"","","","","","html-button-response","42","90877","0.0-3.0-1.19","14","1","2023-05-22 23:52:33","c5e7288ef5abdde20c6cfc36967cae27","37.19.64.4","Mozilla/5.0 (Windows NT 10.0; Win64; x64) AppleWebKit/537.36 (KHTML, like Gecko) Chrome/109.0.0.0 Safari/537.36","WebKit","Chrome","109.0.0.0","Windows","10.0","929","<p>As the military commander, you could choose to launch a missile to kill <strong>1 enemy soldier</strong> , but would accidentally kill <strong>1 enemy tree</strong> nearby.</p> <p>The photo of the <strong>enemy tree</strong> is shown below.</p> <p></p> <img src='stimuli/tree/5.png', style='max-width: 30%;'> </img> <p><strong>Would you launch the weapon?</strong></p>","1",""
"","","","","","html-keyboard-response","43","91882","0.0-3.0-0.20","14","1","2023-05-22 23:52:33","c5e7288ef5abdde20c6cfc36967cae27","37.19.64.4","Mozilla/5.0 (Windows NT 10.0; Win64; x64) AppleWebKit/537.36 (KHTML, like Gecko) Chrome/109.0.0.0 Safari/537.36","WebKit","Chrome","109.0.0.0","Windows","10.0","null","<div style=""font-size:60px;"">+</div>","null",""
"","","","","","html-button-response","44","92769","0.0-3.0-1.20","14","1","2023-05-22 23:52:33","c5e7288ef5abdde20c6cfc36967cae27","37.19.64.4","Mozilla/5.0 (Windows NT 10.0; Win64; x64) AppleWebKit/537.36 (KHTML, like Gecko) Chrome/109.0.0.0 Safari/537.36","WebKit","Chrome","109.0.0.0","Windows","10.0","883","<p>As the military commander, you could choose to launch a missile to kill <strong>6 enemy soldiers</strong> , but would accidentally kill <strong>1 enemy civilian</strong> nearby.</p> <p>The photo of the <strong>enemy civilian</strong> is shown below.</p> <p></p> <img src='stimuli/faces/NCM3.jpg', style='max-width: 30%;'> </img> <p><strong>Would you launch the weapon?</strong></p>","0",""
"","","","","","html-keyboard-response","45","93786","0.0-3.0-0.21","14","1","2023-05-22 23:52:33","c5e7288ef5abdde20c6cfc36967cae27","37.19.64.4","Mozilla/5.0 (Windows NT 10.0; Win64; x64) AppleWebKit/537.36 (KHTML, like Gecko) Chrome/109.0.0.0 Safari/537.36","WebKit","Chrome","109.0.0.0","Windows","10.0","null","<div style=""font-size:60px;"">+</div>","null",""
"","","","","","html-button-response","46","94577","0.0-3.0-1.21","14","1","2023-05-22 23:52:33","c5e7288ef5abdde20c6cfc36967cae27","37.19.64.4","Mozilla/5.0 (Windows NT 10.0; Win64; x64) AppleWebKit/537.36 (KHTML, like Gecko) Chrome/109.0.0.0 Safari/537.36","WebKit","Chrome","109.0.0.0","Windows","10.0","787","<p>As the military commander, you could choose to launch a missile to kill <strong>7 enemy soldiers</strong> , but would accidentally kill <strong>1 enemy civilian</strong> nearby.</p> <p>The photo of the <strong>enemy civilian</strong> is shown below.</p> <p></p> <img src='stimuli/faces/NCM5.jpg', style='max-width: 30%;'> </img> <p><strong>Would you launch the weapon?</strong></p>","0",""
"","","","","","html-keyboard-response","47","95586","0.0-3.0-0.22","14","1","2023-05-22 23:52:33","c5e7288ef5abdde20c6cfc36967cae27","37.19.64.4","Mozilla/5.0 (Windows NT 10.0; Win64; x64) AppleWebKit/537.36 (KHTML, like Gecko) Chrome/109.0.0.0 Safari/537.36","WebKit","Chrome","109.0.0.0","Windows","10.0","null","<div style=""font-size:60px;"">+</div>","null",""
"","","","","","html-button-response","48","96296","0.0-3.0-1.22","14","1","2023-05-22 23:52:33","c5e7288ef5abdde20c6cfc36967cae27","37.19.64.4","Mozilla/5.0 (Windows NT 10.0; Win64; x64) AppleWebKit/537.36 (KHTML, like Gecko) Chrome/109.0.0.0 Safari/537.36","WebKit","Chrome","109.0.0.0","Windows","10.0","707","<p>As the military commander, you could choose to launch a missile to kill <strong>9 enemy soldiers</strong> , but would accidentally kill <strong>1 enemy civilian</strong> nearby.</p> <p>The photo of the <strong>enemy civilian</strong> is shown below.</p> <p></p> <img src='stimuli/faces/NCF4.jpg', style='max-width: 30%;'> </img> <p><strong>Would you launch the weapon?</strong></p>","0",""
"","","","","","html-keyboard-response","49","97318","0.0-3.0-0.23","14","1","2023-05-22 23:52:33","c5e7288ef5abdde20c6cfc36967cae27","37.19.64.4","Mozilla/5.0 (Windows NT 10.0; Win64; x64) AppleWebKit/537.36 (KHTML, like Gecko) Chrome/109.0.0.0 Safari/537.36","WebKit","Chrome","109.0.0.0","Windows","10.0","null","<div style=""font-size:60px;"">+</div>","null",""
"","","","","","html-button-response","50","102139","0.0-3.0-1.23","14","1","2023-05-22 23:52:33","c5e7288ef5abdde20c6cfc36967cae27","37.19.64.4","Mozilla/5.0 (Windows NT 10.0; Win64; x64) AppleWebKit/537.36 (KHTML, like Gecko) Chrome/109.0.0.0 Safari/537.36","WebKit","Chrome","109.0.0.0","Windows","10.0","4817","<p>As the military commander, you could choose to launch a missile to kill <strong>7 enemy soldiers</strong> , but would accidentally kill <strong>1 enemy tree</strong> nearby.</p> <p>The photo of the <strong>enemy tree</strong> is shown below.</p> <p></p> <img src='stimuli/tree/14.png', style='max-width: 30%;'> </img> <p><strong>Would you launch the weapon?</strong></p>","0",""
"","","","","","html-keyboard-response","51","103159","0.0-3.0-0.24","14","1","2023-05-22 23:52:33","c5e7288ef5abdde20c6cfc36967cae27","37.19.64.4","Mozilla/5.0 (Windows NT 10.0; Win64; x64) AppleWebKit/537.36 (KHTML, like Gecko) Chrome/109.0.0.0 Safari/537.36","WebKit","Chrome","109.0.0.0","Windows","10.0","null","<div style=""font-size:60px;"">+</div>","null",""
"","","","","","html-button-response","52","104421","0.0-3.0-1.24","14","1","2023-05-22 23:52:33","c5e7288ef5abdde20c6cfc36967cae27","37.19.64.4","Mozilla/5.0 (Windows NT 10.0; Win64; x64) AppleWebKit/537.36 (KHTML, like Gecko) Chrome/109.0.0.0 Safari/537.36","WebKit","Chrome","109.0.0.0","Windows","10.0","1257","<p>As the military commander, you could choose to launch a missile to kill <strong>3 enemy soldiers</strong> , but would accidentally kill <strong>1 enemy tree</strong> nearby.</p> <p>The photo of the <strong>enemy tree</strong> is shown below.</p> <p></p> <img src='stimuli/tree/10.png', style='max-width: 30%;'> </img> <p><strong>Would you launch the weapon?</strong></p>","1",""
"","","","","","html-keyboard-response","53","105426","0.0-3.0-0.25","14","1","2023-05-22 23:52:33","c5e7288ef5abdde20c6cfc36967cae27","37.19.64.4","Mozilla/5.0 (Windows NT 10.0; Win64; x64) AppleWebKit/537.36 (KHTML, like Gecko) Chrome/109.0.0.0 Safari/537.36","WebKit","Chrome","109.0.0.0","Windows","10.0","null","<div style=""font-size:60px;"">+</div>","null",""
"","","","","","html-button-response","54","106745","0.0-3.0-1.25","14","1","2023-05-22 23:52:33","c5e7288ef5abdde20c6cfc36967cae27","37.19.64.4","Mozilla/5.0 (Windows NT 10.0; Win64; x64) AppleWebKit/537.36 (KHTML, like Gecko) Chrome/109.0.0.0 Safari/537.36","WebKit","Chrome","109.0.0.0","Windows","10.0","1315","<p>As the military commander, you could choose to launch a missile to kill <strong>7 enemy soldiers</strong> , but would accidentally kill <strong>1 enemy tree</strong> nearby.</p> <p>The photo of the <strong>enemy tree</strong> is shown below.</p> <p></p> <img src='stimuli/tree/3.png', style='max-width: 30%;'> </img> <p><strong>Would you launch the weapon?</strong></p>","1",""
"","","","","","html-keyboard-response","55","107748","0.0-3.0-0.26","14","1","2023-05-22 23:52:33","c5e7288ef5abdde20c6cfc36967cae27","37.19.64.4","Mozilla/5.0 (Windows NT 10.0; Win64; x64) AppleWebKit/537.36 (KHTML, like Gecko) Chrome/109.0.0.0 Safari/537.36","WebKit","Chrome","109.0.0.0","Windows","10.0","null","<div style=""font-size:60px;"">+</div>","null",""
"","","","","","html-button-response","56","108881","0.0-3.0-1.26","14","1","2023-05-22 23:52:33","c5e7288ef5abdde20c6cfc36967cae27","37.19.64.4","Mozilla/5.0 (Windows NT 10.0; Win64; x64) AppleWebKit/537.36 (KHTML, like Gecko) Chrome/109.0.0.0 Safari/537.36","WebKit","Chrome","109.0.0.0","Windows","10.0","1127","<p>As the military commander, you could choose to launch a missile to kill <strong>8 enemy soldiers</strong> , but would accidentally kill <strong>1 enemy tree</strong> nearby.</p> <p>The photo of the <strong>enemy tree</strong> is shown below.</p> <p></p> <img src='stimuli/tree/2.png', style='max-width: 30%;'> </img> <p><strong>Would you launch the weapon?</strong></p>","1",""
"","","","","","html-keyboard-response","57","109904","0.0-3.0-0.27","14","1","2023-05-22 23:52:33","c5e7288ef5abdde20c6cfc36967cae27","37.19.64.4","Mozilla/5.0 (Windows NT 10.0; Win64; x64) AppleWebKit/537.36 (KHTML, like Gecko) Chrome/109.0.0.0 Safari/537.36","WebKit","Chrome","109.0.0.0","Windows","10.0","null","<div style=""font-size:60px;"">+</div>","null",""
"","","","","","html-button-response","58","111153","0.0-3.0-1.27","14","1","2023-05-22 23:52:33","c5e7288ef5abdde20c6cfc36967cae27","37.19.64.4","Mozilla/5.0 (Windows NT 10.0; Win64; x64) AppleWebKit/537.36 (KHTML, like Gecko) Chrome/109.0.0.0 Safari/537.36","WebKit","Chrome","109.0.0.0","Windows","10.0","1245","<p>As the military commander, you could choose to launch a missile to kill <strong>3 enemy soldiers</strong> , but would accidentally kill <strong>1 enemy tree</strong> nearby.</p> <p>The photo of the <strong>enemy tree</strong> is shown below.</p> <p></p> <img src='stimuli/tree/1.png', style='max-width: 30%;'> </img> <p><strong>Would you launch the weapon?</strong></p>","1",""
"","","","","","html-keyboard-response","59","112192","0.0-3.0-0.28","14","1","2023-05-22 23:52:33","c5e7288ef5abdde20c6cfc36967cae27","37.19.64.4","Mozilla/5.0 (Windows NT 10.0; Win64; x64) AppleWebKit/537.36 (KHTML, like Gecko) Chrome/109.0.0.0 Safari/537.36","WebKit","Chrome","109.0.0.0","Windows","10.0","null","<div style=""font-size:60px;"">+</div>","null",""
"","","","","","html-button-response","60","113873","0.0-3.0-1.28","14","1","2023-05-22 23:52:33","c5e7288ef5abdde20c6cfc36967cae27","37.19.64.4","Mozilla/5.0 (Windows NT 10.0; Win64; x64) AppleWebKit/537.36 (KHTML, like Gecko) Chrome/109.0.0.0 Safari/537.36","WebKit","Chrome","109.0.0.0","Windows","10.0","1677","<p>As the military commander, you could choose to launch a missile to kill <strong>1 enemy soldier</strong> , but would accidentally kill <strong>1 enemy civilian</strong> nearby.</p> <p>The photo of the <strong>enemy civilian</strong> is shown below.</p> <p></p> <img src='stimuli/faces/NCM4.jpg', style='max-width: 30%;'> </img> <p><strong>Would you launch the weapon?</strong></p>","0",""
"","","","","","html-keyboard-response","61","114882","0.0-3.0-0.29","14","1","2023-05-22 23:52:33","c5e7288ef5abdde20c6cfc36967cae27","37.19.64.4","Mozilla/5.0 (Windows NT 10.0; Win64; x64) AppleWebKit/537.36 (KHTML, like Gecko) Chrome/109.0.0.0 Safari/537.36","WebKit","Chrome","109.0.0.0","Windows","10.0","null","<div style=""font-size:60px;"">+</div>","null",""
"","","","","","html-button-response","62","116180","0.0-3.0-1.29","14","1","2023-05-22 23:52:33","c5e7288ef5abdde20c6cfc36967cae27","37.19.64.4","Mozilla/5.0 (Windows NT 10.0; Win64; x64) AppleWebKit/537.36 (KHTML, like Gecko) Chrome/109.0.0.0 Safari/537.36","WebKit","Chrome","109.0.0.0","Windows","10.0","1294","<p>As the military commander, you could choose to launch a missile to kill <strong>3 enemy soldiers</strong> , but would accidentally kill <strong>1 enemy tree</strong> nearby.</p> <p>The photo of the <strong>enemy tree</strong> is shown below.</p> <p></p> <img src='stimuli/tree/11.png', style='max-width: 30%;'> </img> <p><strong>Would you launch the weapon?</strong></p>","1",""
"","","","","","html-keyboard-response","63","117199","0.0-3.0-0.30","14","1","2023-05-22 23:52:33","c5e7288ef5abdde20c6cfc36967cae27","37.19.64.4","Mozilla/5.0 (Windows NT 10.0; Win64; x64) AppleWebKit/537.36 (KHTML, like Gecko) Chrome/109.0.0.0 Safari/537.36","WebKit","Chrome","109.0.0.0","Windows","10.0","null","<div style=""font-size:60px;"">+</div>","null",""
"","","","","","html-button-response","64","118693","0.0-3.0-1.30","14","1","2023-05-22 23:52:33","c5e7288ef5abdde20c6cfc36967cae27","37.19.64.4","Mozilla/5.0 (Windows NT 10.0; Win64; x64) AppleWebKit/537.36 (KHTML, like Gecko) Chrome/109.0.0.0 Safari/537.36","WebKit","Chrome","109.0.0.0","Windows","10.0","1489","<p>As the military commander, you could choose to launch a missile to kill <strong>7 enemy soldiers</strong> , but would accidentally kill <strong>1 enemy tree</strong> nearby.</p> <p>The photo of the <strong>enemy tree</strong> is shown below.</p> <p></p> <img src='stimuli/tree/10.png', style='max-width: 30%;'> </img> <p><strong>Would you launch the weapon?</strong></p>","0",""
"","","","","","html-keyboard-response","65","119727","0.0-3.0-0.31","14","1","2023-05-22 23:52:33","c5e7288ef5abdde20c6cfc36967cae27","37.19.64.4","Mozilla/5.0 (Windows NT 10.0; Win64; x64) AppleWebKit/537.36 (KHTML, like Gecko) Chrome/109.0.0.0 Safari/537.36","WebKit","Chrome","109.0.0.0","Windows","10.0","null","<div style=""font-size:60px;"">+</div>","null",""
"","","","","","html-button-response","66","120656","0.0-3.0-1.31","14","1","2023-05-22 23:52:33","c5e7288ef5abdde20c6cfc36967cae27","37.19.64.4","Mozilla/5.0 (Windows NT 10.0; Win64; x64) AppleWebKit/537.36 (KHTML, like Gecko) Chrome/109.0.0.0 Safari/537.36","WebKit","Chrome","109.0.0.0","Windows","10.0","926","<p>As the military commander, you could choose to launch a missile to kill <strong>6 enemy soldiers</strong> , but would accidentally kill <strong>1 enemy civilian</strong> nearby.</p> <p>The photo of the <strong>enemy civilian</strong> is shown below.</p> <p></p> <img src='stimuli/faces/NCF2.jpg', style='max-width: 30%;'> </img> <p><strong>Would you launch the weapon?</strong></p>","0",""
"","","","","","html-keyboard-response","67","121693","0.0-3.0-0.32","14","1","2023-05-22 23:52:33","c5e7288ef5abdde20c6cfc36967cae27","37.19.64.4","Mozilla/5.0 (Windows NT 10.0; Win64; x64) AppleWebKit/537.36 (KHTML, like Gecko) Chrome/109.0.0.0 Safari/537.36","WebKit","Chrome","109.0.0.0","Windows","10.0","null","<div style=""font-size:60px;"">+</div>","null",""
"","","","","","html-button-response","68","123076","0.0-3.0-1.32","14","1","2023-05-22 23:52:33","c5e7288ef5abdde20c6cfc36967cae27","37.19.64.4","Mozilla/5.0 (Windows NT 10.0; Win64; x64) AppleWebKit/537.36 (KHTML, like Gecko) Chrome/109.0.0.0 Safari/537.36","WebKit","Chrome","109.0.0.0","Windows","10.0","1379","<p>As the military commander, you could choose to launch a missile to kill <strong>3 enemy soldiers</strong> , but would accidentally kill <strong>1 enemy tree</strong> nearby.</p> <p>The photo of the <strong>enemy tree</strong> is shown below.</p> <p></p> <img src='stimuli/tree/2.png', style='max-width: 30%;'> </img> <p><strong>Would you launch the weapon?</strong></p>","1",""
"","","","","","html-keyboard-response","69","124093","0.0-3.0-0.33","14","1","2023-05-22 23:52:33","c5e7288ef5abdde20c6cfc36967cae27","37.19.64.4","Mozilla/5.0 (Windows NT 10.0; Win64; x64) AppleWebKit/537.36 (KHTML, like Gecko) Chrome/109.0.0.0 Safari/537.36","WebKit","Chrome","109.0.0.0","Windows","10.0","null","<div style=""font-size:60px;"">+</div>","null",""
"","","","","","html-button-response","70","125033","0.0-3.0-1.33","14","1","2023-05-22 23:52:33","c5e7288ef5abdde20c6cfc36967cae27","37.19.64.4","Mozilla/5.0 (Windows NT 10.0; Win64; x64) AppleWebKit/537.36 (KHTML, like Gecko) Chrome/109.0.0.0 Safari/537.36","WebKit","Chrome","109.0.0.0","Windows","10.0","935","<p>As the military commander, you could choose to launch a missile to kill <strong>10 enemy soldiers</strong> , but would accidentally kill <strong>1 enemy tree</strong> nearby.</p> <p>The photo of the <strong>enemy tree</strong> is shown below.</p> <p></p> <img src='stimuli/tree/12.png', style='max-width: 30%;'> </img> <p><strong>Would you launch the weapon?</strong></p>","0",""
"","","","","","html-keyboard-response","71","126053","0.0-3.0-0.34","14","1","2023-05-22 23:52:33","c5e7288ef5abdde20c6cfc36967cae27","37.19.64.4","Mozilla/5.0 (Windows NT 10.0; Win64; x64) AppleWebKit/537.36 (KHTML, like Gecko) Chrome/109.0.0.0 Safari/537.36","WebKit","Chrome","109.0.0.0","Windows","10.0","null","<div style=""font-size:60px;"">+</div>","null",""
"","","","","","html-button-response","72","127121","0.0-3.0-1.34","14","1","2023-05-22 23:52:33","c5e7288ef5abdde20c6cfc36967cae27","37.19.64.4","Mozilla/5.0 (Windows NT 10.0; Win64; x64) AppleWebKit/537.36 (KHTML, like Gecko) Chrome/109.0.0.0 Safari/537.36","WebKit","Chrome","109.0.0.0","Windows","10.0","1063","<p>As the military commander, you could choose to launch a missile to kill <strong>4 enemy soldiers</strong> , but would accidentally kill <strong>1 enemy civilian</strong> nearby.</p> <p>The photo of the <strong>enemy civilian</strong> is shown below.</p> <p></p> <img src='stimuli/faces/NCM7.jpg', style='max-width: 30%;'> </img> <p><strong>Would you launch the weapon?</strong></p>","0",""
"","","","","","html-keyboard-response","73","128293","0.0-3.0-0.35","14","1","2023-05-22 23:52:33","c5e7288ef5abdde20c6cfc36967cae27","37.19.64.4","Mozilla/5.0 (Windows NT 10.0; Win64; x64) AppleWebKit/537.36 (KHTML, like Gecko) Chrome/109.0.0.0 Safari/537.36","WebKit","Chrome","109.0.0.0","Windows","10.0","null","<div style=""font-size:60px;"">+</div>","null",""
"","","","","","html-button-response","74","129490","0.0-3.0-1.35","14","1","2023-05-22 23:52:33","c5e7288ef5abdde20c6cfc36967cae27","37.19.64.4","Mozilla/5.0 (Windows NT 10.0; Win64; x64) AppleWebKit/537.36 (KHTML, like Gecko) Chrome/109.0.0.0 Safari/537.36","WebKit","Chrome","109.0.0.0","Windows","10.0","1192","<p>As the military commander, you could choose to launch a missile to kill <strong>6 enemy soldiers</strong> , but would accidentally kill <strong>1 enemy tree</strong> nearby.</p> <p>The photo of the <strong>enemy tree</strong> is shown below.</p> <p></p> <img src='stimuli/tree/16.png', style='max-width: 30%;'> </img> <p><strong>Would you launch the weapon?</strong></p>","1",""
"","","","","","html-keyboard-response","75","130513","0.0-3.0-0.36","14","1","2023-05-22 23:52:33","c5e7288ef5abdde20c6cfc36967cae27","37.19.64.4","Mozilla/5.0 (Windows NT 10.0; Win64; x64) AppleWebKit/537.36 (KHTML, like Gecko) Chrome/109.0.0.0 Safari/537.36","WebKit","Chrome","109.0.0.0","Windows","10.0","null","<div style=""font-size:60px;"">+</div>","null",""
"","","","","","html-button-response","76","131768","0.0-3.0-1.36","14","1","2023-05-22 23:52:33","c5e7288ef5abdde20c6cfc36967cae27","37.19.64.4","Mozilla/5.0 (Windows NT 10.0; Win64; x64) AppleWebKit/537.36 (KHTML, like Gecko) Chrome/109.0.0.0 Safari/537.36","WebKit","Chrome","109.0.0.0","Windows","10.0","1251","<p>As the military commander, you could choose to launch a missile to kill <strong>10 enemy soldiers</strong> , but would accidentally kill <strong>1 enemy tree</strong> nearby.</p> <p>The photo of the <strong>enemy tree</strong> is shown below.</p> <p></p> <img src='stimuli/tree/15.png', style='max-width: 30%;'> </img> <p><strong>Would you launch the weapon?</strong></p>","0",""
"","","","","","html-keyboard-response","77","132796","0.0-3.0-0.37","14","1","2023-05-22 23:52:33","c5e7288ef5abdde20c6cfc36967cae27","37.19.64.4","Mozilla/5.0 (Windows NT 10.0; Win64; x64) AppleWebKit/537.36 (KHTML, like Gecko) Chrome/109.0.0.0 Safari/537.36","WebKit","Chrome","109.0.0.0","Windows","10.0","null","<div style=""font-size:60px;"">+</div>","null",""
"","","","","","html-button-response","78","133577","0.0-3.0-1.37","14","1","2023-05-22 23:52:33","c5e7288ef5abdde20c6cfc36967cae27","37.19.64.4","Mozilla/5.0 (Windows NT 10.0; Win64; x64) AppleWebKit/537.36 (KHTML, like Gecko) Chrome/109.0.0.0 Safari/537.36","WebKit","Chrome","109.0.0.0","Windows","10.0","776","<p>As the military commander, you could choose to launch a missile to kill <strong>8 enemy soldiers</strong> , but would accidentally kill <strong>1 enemy civilian</strong> nearby.</p> <p>The photo of the <strong>enemy civilian</strong> is shown below.</p> <p></p> <img src='stimuli/faces/NCM2.jpg', style='max-width: 30%;'> </img> <p><strong>Would you launch the weapon?</strong></p>","0",""
"","","","","","html-keyboard-response","79","134626","0.0-3.0-0.38","14","1","2023-05-22 23:52:33","c5e7288ef5abdde20c6cfc36967cae27","37.19.64.4","Mozilla/5.0 (Windows NT 10.0; Win64; x64) AppleWebKit/537.36 (KHTML, like Gecko) Chrome/109.0.0.0 Safari/537.36","WebKit","Chrome","109.0.0.0","Windows","10.0","null","<div style=""font-size:60px;"">+</div>","null",""
"","","","","","html-button-response","80","135865","0.0-3.0-1.38","14","1","2023-05-22 23:52:33","c5e7288ef5abdde20c6cfc36967cae27","37.19.64.4","Mozilla/5.0 (Windows NT 10.0; Win64; x64) AppleWebKit/537.36 (KHTML, like Gecko) Chrome/109.0.0.0 Safari/537.36","WebKit","Chrome","109.0.0.0","Windows","10.0","1234","<p>As the military commander, you could choose to launch a missile to kill <strong>1 enemy soldier</strong> , but would accidentally kill <strong>1 enemy civilian</strong> nearby.</p> <p>The photo of the <strong>enemy civilian</strong> is shown below.</p> <p></p> <img src='stimuli/faces/NCM3.jpg', style='max-width: 30%;'> </img> <p><strong>Would you launch the weapon?</strong></p>","0",""
"","","","","","html-keyboard-response","81","136890","0.0-3.0-0.39","14","1","2023-05-22 23:52:33","c5e7288ef5abdde20c6cfc36967cae27","37.19.64.4","Mozilla/5.0 (Windows NT 10.0; Win64; x64) AppleWebKit/537.36 (KHTML, like Gecko) Chrome/109.0.0.0 Safari/537.36","WebKit","Chrome","109.0.0.0","Windows","10.0","null","<div style=""font-size:60px;"">+</div>","null",""
"","","","","","html-button-response","82","137680","0.0-3.0-1.39","14","1","2023-05-22 23:52:33","c5e7288ef5abdde20c6cfc36967cae27","37.19.64.4","Mozilla/5.0 (Windows NT 10.0; Win64; x64) AppleWebKit/537.36 (KHTML, like Gecko) Chrome/109.0.0.0 Safari/537.36","WebKit","Chrome","109.0.0.0","Windows","10.0","786","<p>As the military commander, you could choose to launch a missile to kill <strong>3 enemy soldiers</strong> , but would accidentally kill <strong>1 enemy tree</strong> nearby.</p> <p>The photo of the <strong>enemy tree</strong> is shown below.</p> <p></p> <img src='stimuli/tree/15.png', style='max-width: 30%;'> </img> <p><strong>Would you launch the weapon?</strong></p>","0",""
"","","","","","html-keyboard-response","83","138722","0.0-3.0-0.40","14","1","2023-05-22 23:52:33","c5e7288ef5abdde20c6cfc36967cae27","37.19.64.4","Mozilla/5.0 (Windows NT 10.0; Win64; x64) AppleWebKit/537.36 (KHTML, like Gecko) Chrome/109.0.0.0 Safari/537.36","WebKit","Chrome","109.0.0.0","Windows","10.0","null","<div style=""font-size:60px;"">+</div>","null",""
"","","","","","html-button-response","84","139492","0.0-3.0-1.40","14","1","2023-05-22 23:52:33","c5e7288ef5abdde20c6cfc36967cae27","37.19.64.4","Mozilla/5.0 (Windows NT 10.0; Win64; x64) AppleWebKit/537.36 (KHTML, like Gecko) Chrome/109.0.0.0 Safari/537.36","WebKit","Chrome","109.0.0.0","Windows","10.0","765","<p>As the military commander, you could choose to launch a missile to kill <strong>1 enemy soldier</strong> , but would accidentally kill <strong>1 enemy tree</strong> nearby.</p> <p>The photo of the <strong>enemy tree</strong> is shown below.</p> <p></p> <img src='stimuli/tree/13.png', style='max-width: 30%;'> </img> <p><strong>Would you launch the weapon?</strong></p>","0",""
"","","","","","html-keyboard-response","85","140529","0.0-3.0-0.41","14","1","2023-05-22 23:52:33","c5e7288ef5abdde20c6cfc36967cae27","37.19.64.4","Mozilla/5.0 (Windows NT 10.0; Win64; x64) AppleWebKit/537.36 (KHTML, like Gecko) Chrome/109.0.0.0 Safari/537.36","WebKit","Chrome","109.0.0.0","Windows","10.0","null","<div style=""font-size:60px;"">+</div>","null",""
"","","","","","html-button-response","86","141770","0.0-3.0-1.41","14","1","2023-05-22 23:52:33","c5e7288ef5abdde20c6cfc36967cae27","37.19.64.4","Mozilla/5.0 (Windows NT 10.0; Win64; x64) AppleWebKit/537.36 (KHTML, like Gecko) Chrome/109.0.0.0 Safari/537.36","WebKit","Chrome","109.0.0.0","Windows","10.0","1236","<p>As the military commander, you could choose to launch a missile to kill <strong>7 enemy soldiers</strong> , but would accidentally kill <strong>1 enemy tree</strong> nearby.</p> <p>The photo of the <strong>enemy tree</strong> is shown below.</p> <p></p> <img src='stimuli/tree/11.png', style='max-width: 30%;'> </img> <p><strong>Would you launch the weapon?</strong></p>","1",""
"","","","","","html-keyboard-response","87","142782","0.0-3.0-0.42","14","1","2023-05-22 23:52:33","c5e7288ef5abdde20c6cfc36967cae27","37.19.64.4","Mozilla/5.0 (Windows NT 10.0; Win64; x64) AppleWebKit/537.36 (KHTML, like Gecko) Chrome/109.0.0.0 Safari/537.36","WebKit","Chrome","109.0.0.0","Windows","10.0","null","<div style=""font-size:60px;"">+</div>","null",""
"","","","","","html-button-response","88","143691","0.0-3.0-1.42","14","1","2023-05-22 23:52:33","c5e7288ef5abdde20c6cfc36967cae27","37.19.64.4","Mozilla/5.0 (Windows NT 10.0; Win64; x64) AppleWebKit/537.36 (KHTML, like Gecko) Chrome/109.0.0.0 Safari/537.36","WebKit","Chrome","109.0.0.0","Windows","10.0","904","<p>As the military commander, you could choose to launch a missile to kill <strong>2 enemy soldiers</strong> , but would accidentally kill <strong>1 enemy civilian</strong> nearby.</p> <p>The photo of the <strong>enemy civilian</strong> is shown below.</p> <p></p> <img src='stimuli/faces/NCM2.jpg', style='max-width: 30%;'> </img> <p><strong>Would you launch the weapon?</strong></p>","0",""
"","","","","","html-keyboard-response","89","144713","0.0-3.0-0.43","14","1","2023-05-22 23:52:33","c5e7288ef5abdde20c6cfc36967cae27","37.19.64.4","Mozilla/5.0 (Windows NT 10.0; Win64; x64) AppleWebKit/537.36 (KHTML, like Gecko) Chrome/109.0.0.0 Safari/537.36","WebKit","Chrome","109.0.0.0","Windows","10.0","null","<div style=""font-size:60px;"">+</div>","null",""
"","","","","","html-button-response","90","145673","0.0-3.0-1.43","14","1","2023-05-22 23:52:33","c5e7288ef5abdde20c6cfc36967cae27","37.19.64.4","Mozilla/5.0 (Windows NT 10.0; Win64; x64) AppleWebKit/537.36 (KHTML, like Gecko) Chrome/109.0.0.0 Safari/537.36","WebKit","Chrome","109.0.0.0","Windows","10.0","954","<p>As the military commander, you could choose to launch a missile to kill <strong>5 enemy soldiers</strong> , but would accidentally kill <strong>1 enemy civilian</strong> nearby.</p> <p>The photo of the <strong>enemy civilian</strong> is shown below.</p> <p></p> <img src='stimuli/faces/NCF3.jpg', style='max-width: 30%;'> </img> <p><strong>Would you launch the weapon?</strong></p>","0",""
"","","","","","html-keyboard-response","91","146684","0.0-3.0-0.44","14","1","2023-05-22 23:52:33","c5e7288ef5abdde20c6cfc36967cae27","37.19.64.4","Mozilla/5.0 (Windows NT 10.0; Win64; x64) AppleWebKit/537.36 (KHTML, like Gecko) Chrome/109.0.0.0 Safari/537.36","WebKit","Chrome","109.0.0.0","Windows","10.0","null","<div style=""font-size:60px;"">+</div>","null",""
"","","","","","html-button-response","92","147468","0.0-3.0-1.44","14","1","2023-05-22 23:52:33","c5e7288ef5abdde20c6cfc36967cae27","37.19.64.4","Mozilla/5.0 (Windows NT 10.0; Win64; x64) AppleWebKit/537.36 (KHTML, like Gecko) Chrome/109.0.0.0 Safari/537.36","WebKit","Chrome","109.0.0.0","Windows","10.0","779","<p>As the military commander, you could choose to launch a missile to kill <strong>2 enemy soldiers</strong> , but would accidentally kill <strong>1 enemy tree</strong> nearby.</p> <p>The photo of the <strong>enemy tree</strong> is shown below.</p> <p></p> <img src='stimuli/tree/4.png', style='max-width: 30%;'> </img> <p><strong>Would you launch the weapon?</strong></p>","0",""
"","","","","","html-keyboard-response","93","148474","0.0-3.0-0.45","14","1","2023-05-22 23:52:33","c5e7288ef5abdde20c6cfc36967cae27","37.19.64.4","Mozilla/5.0 (Windows NT 10.0; Win64; x64) AppleWebKit/537.36 (KHTML, like Gecko) Chrome/109.0.0.0 Safari/537.36","WebKit","Chrome","109.0.0.0","Windows","10.0","null","<div style=""font-size:60px;"">+</div>","null",""
"","","","","","html-button-response","94","149601","0.0-3.0-1.45","14","1","2023-05-22 23:52:33","c5e7288ef5abdde20c6cfc36967cae27","37.19.64.4","Mozilla/5.0 (Windows NT 10.0; Win64; x64) AppleWebKit/537.36 (KHTML, like Gecko) Chrome/109.0.0.0 Safari/537.36","WebKit","Chrome","109.0.0.0","Windows","10.0","1121","<p>As the military commander, you could choose to launch a missile to kill <strong>3 enemy soldiers</strong> , but would accidentally kill <strong>1 enemy civilian</strong> nearby.</p> <p>The photo of the <strong>enemy civilian</strong> is shown below.</p> <p></p> <img src='stimuli/faces/NCF2.jpg', style='max-width: 30%;'> </img> <p><strong>Would you launch the weapon?</strong></p>","0",""
"","","","","","html-keyboard-response","95","150616","0.0-3.0-0.46","14","1","2023-05-22 23:52:33","c5e7288ef5abdde20c6cfc36967cae27","37.19.64.4","Mozilla/5.0 (Windows NT 10.0; Win64; x64) AppleWebKit/537.36 (KHTML, like Gecko) Chrome/109.0.0.0 Safari/537.36","WebKit","Chrome","109.0.0.0","Windows","10.0","null","<div style=""font-size:60px;"">+</div>","null",""
"","","","","","html-button-response","96","151546","0.0-3.0-1.46","14","1","2023-05-22 23:52:33","c5e7288ef5abdde20c6cfc36967cae27","37.19.64.4","Mozilla/5.0 (Windows NT 10.0; Win64; x64) AppleWebKit/537.36 (KHTML, like Gecko) Chrome/109.0.0.0 Safari/537.36","WebKit","Chrome","109.0.0.0","Windows","10.0","925","<p>As the military commander, you could choose to launch a missile to kill <strong>10 enemy soldiers</strong> , but would accidentally kill <strong>1 enemy civilian</strong> nearby.</p> <p>The photo of the <strong>enemy civilian</strong> is shown below.</p> <p></p> <img src='stimuli/faces/NCM7.jpg', style='max-width: 30%;'> </img> <p><strong>Would you launch the weapon?</strong></p>","0",""
"","","","","","html-keyboard-response","97","152551","0.0-3.0-0.47","14","1","2023-05-22 23:52:33","c5e7288ef5abdde20c6cfc36967cae27","37.19.64.4","Mozilla/5.0 (Windows NT 10.0; Win64; x64) AppleWebKit/537.36 (KHTML, like Gecko) Chrome/109.0.0.0 Safari/537.36","WebKit","Chrome","109.0.0.0","Windows","10.0","null","<div style=""font-size:60px;"">+</div>","null",""
"","","","","","html-button-response","98","158458","0.0-3.0-1.47","14","1","2023-05-22 23:52:33","c5e7288ef5abdde20c6cfc36967cae27","37.19.64.4","Mozilla/5.0 (Windows NT 10.0; Win64; x64) AppleWebKit/537.36 (KHTML, like Gecko) Chrome/109.0.0.0 Safari/537.36","WebKit","Chrome","109.0.0.0","Windows","10.0","5901","<p>As the military commander, you could choose to launch a missile to kill <strong>8 enemy soldiers</strong> , but would accidentally kill <strong>1 enemy tree</strong> nearby.</p> <p>The photo of the <strong>enemy tree</strong> is shown below.</p> <p></p> <img src='stimuli/tree/1.png', style='max-width: 30%;'> </img> <p><strong>Would you launch the weapon?</strong></p>","1",""
"","","","","","html-keyboard-response","99","159467","0.0-3.0-0.48","14","1","2023-05-22 23:52:33","c5e7288ef5abdde20c6cfc36967cae27","37.19.64.4","Mozilla/5.0 (Windows NT 10.0; Win64; x64) AppleWebKit/537.36 (KHTML, like Gecko) Chrome/109.0.0.0 Safari/537.36","WebKit","Chrome","109.0.0.0","Windows","10.0","null","<div style=""font-size:60px;"">+</div>","null",""
"","","","","","html-button-response","100","160283","0.0-3.0-1.48","14","1","2023-05-22 23:52:33","c5e7288ef5abdde20c6cfc36967cae27","37.19.64.4","Mozilla/5.0 (Windows NT 10.0; Win64; x64) AppleWebKit/537.36 (KHTML, like Gecko) Chrome/109.0.0.0 Safari/537.36","WebKit","Chrome","109.0.0.0","Windows","10.0","811","<p>As the military commander, you could choose to launch a missile to kill <strong>4 enemy soldiers</strong> , but would accidentally kill <strong>1 enemy civilian</strong> nearby.</p> <p>The photo of the <strong>enemy civilian</strong> is shown below.</p> <p></p> <img src='stimuli/faces/NCF1.jpg', style='max-width: 30%;'> </img> <p><strong>Would you launch the weapon?</strong></p>","0",""
"","","","","","html-keyboard-response","101","161312","0.0-3.0-0.49","14","1","2023-05-22 23:52:33","c5e7288ef5abdde20c6cfc36967cae27","37.19.64.4","Mozilla/5.0 (Windows NT 10.0; Win64; x64) AppleWebKit/537.36 (KHTML, like Gecko) Chrome/109.0.0.0 Safari/537.36","WebKit","Chrome","109.0.0.0","Windows","10.0","null","<div style=""font-size:60px;"">+</div>","null",""
"","","","","","html-button-response","102","162314","0.0-3.0-1.49","14","1","2023-05-22 23:52:33","c5e7288ef5abdde20c6cfc36967cae27","37.19.64.4","Mozilla/5.0 (Windows NT 10.0; Win64; x64) AppleWebKit/537.36 (KHTML, like Gecko) Chrome/109.0.0.0 Safari/537.36","WebKit","Chrome","109.0.0.0","Windows","10.0","996","<p>As the military commander, you could choose to launch a missile to kill <strong>1 enemy soldier</strong> , but would accidentally kill <strong>1 enemy civilian</strong> nearby.</p> <p>The photo of the <strong>enemy civilian</strong> is shown below.</p> <p></p> <img src='stimuli/faces/NCM8.jpg', style='max-width: 30%;'> </img> <p><strong>Would you launch the weapon?</strong></p>","0",""
"","","","","","html-keyboard-response","103","163353","0.0-3.0-0.50","14","1","2023-05-22 23:52:33","c5e7288ef5abdde20c6cfc36967cae27","37.19.64.4","Mozilla/5.0 (Windows NT 10.0; Win64; x64) AppleWebKit/537.36 (KHTML, like Gecko) Chrome/109.0.0.0 Safari/537.36","WebKit","Chrome","109.0.0.0","Windows","10.0","null","<div style=""font-size:60px;"">+</div>","null",""
"","","","","","html-button-response","104","164548","0.0-3.0-1.50","14","1","2023-05-22 23:52:33","c5e7288ef5abdde20c6cfc36967cae27","37.19.64.4","Mozilla/5.0 (Windows NT 10.0; Win64; x64) AppleWebKit/537.36 (KHTML, like Gecko) Chrome/109.0.0.0 Safari/537.36","WebKit","Chrome","109.0.0.0","Windows","10.0","1191","<p>As the military commander, you could choose to launch a missile to kill <strong>5 enemy soldiers</strong> , but would accidentally kill <strong>1 enemy tree</strong> nearby.</p> <p>The photo of the <strong>enemy tree</strong> is shown below.</p> <p></p> <img src='stimuli/tree/12.png', style='max-width: 30%;'> </img> <p><strong>Would you launch the weapon?</strong></p>","1",""
"","","","","","html-keyboard-response","105","165553","0.0-3.0-0.51","14","1","2023-05-22 23:52:33","c5e7288ef5abdde20c6cfc36967cae27","37.19.64.4","Mozilla/5.0 (Windows NT 10.0; Win64; x64) AppleWebKit/537.36 (KHTML, like Gecko) Chrome/109.0.0.0 Safari/537.36","WebKit","Chrome","109.0.0.0","Windows","10.0","null","<div style=""font-size:60px;"">+</div>","null",""
"","","","","","html-button-response","106","167299","0.0-3.0-1.51","14","1","2023-05-22 23:52:33","c5e7288ef5abdde20c6cfc36967cae27","37.19.64.4","Mozilla/5.0 (Windows NT 10.0; Win64; x64) AppleWebKit/537.36 (KHTML, like Gecko) Chrome/109.0.0.0 Safari/537.36","WebKit","Chrome","109.0.0.0","Windows","10.0","1740","<p>As the military commander, you could choose to launch a missile to kill <strong>3 enemy soldiers</strong> , but would accidentally kill <strong>1 enemy civilian</strong> nearby.</p> <p>The photo of the <strong>enemy civilian</strong> is shown below.</p> <p></p> <img src='stimuli/faces/NCM1.jpg', style='max-width: 30%;'> </img> <p><strong>Would you launch the weapon?</strong></p>","0",""
"","","","","","html-keyboard-response","107","168307","0.0-3.0-0.52","14","1","2023-05-22 23:52:33","c5e7288ef5abdde20c6cfc36967cae27","37.19.64.4","Mozilla/5.0 (Windows NT 10.0; Win64; x64) AppleWebKit/537.36 (KHTML, like Gecko) Chrome/109.0.0.0 Safari/537.36","WebKit","Chrome","109.0.0.0","Windows","10.0","null","<div style=""font-size:60px;"">+</div>","null",""
"","","","","","html-button-response","108","169562","0.0-3.0-1.52","14","1","2023-05-22 23:52:33","c5e7288ef5abdde20c6cfc36967cae27","37.19.64.4","Mozilla/5.0 (Windows NT 10.0; Win64; x64) AppleWebKit/537.36 (KHTML, like Gecko) Chrome/109.0.0.0 Safari/537.36","WebKit","Chrome","109.0.0.0","Windows","10.0","1248","<p>As the military commander, you could choose to launch a missile to kill <strong>9 enemy soldiers</strong> , but would accidentally kill <strong>1 enemy tree</strong> nearby.</p> <p>The photo of the <strong>enemy tree</strong> is shown below.</p> <p></p> <img src='stimuli/tree/4.png', style='max-width: 30%;'> </img> <p><strong>Would you launch the weapon?</strong></p>","1",""
"","","","","","html-keyboard-response","109","170571","0.0-3.0-0.53","14","1","2023-05-22 23:52:33","c5e7288ef5abdde20c6cfc36967cae27","37.19.64.4","Mozilla/5.0 (Windows NT 10.0; Win64; x64) AppleWebKit/537.36 (KHTML, like Gecko) Chrome/109.0.0.0 Safari/537.36","WebKit","Chrome","109.0.0.0","Windows","10.0","null","<div style=""font-size:60px;"">+</div>","null",""
"","","","","","html-button-response","110","171768","0.0-3.0-1.53","14","1","2023-05-22 23:52:33","c5e7288ef5abdde20c6cfc36967cae27","37.19.64.4","Mozilla/5.0 (Windows NT 10.0; Win64; x64) AppleWebKit/537.36 (KHTML, like Gecko) Chrome/109.0.0.0 Safari/537.36","WebKit","Chrome","109.0.0.0","Windows","10.0","1191","<p>As the military commander, you could choose to launch a missile to kill <strong>3 enemy soldiers</strong> , but would accidentally kill <strong>1 enemy civilian</strong> nearby.</p> <p>The photo of the <strong>enemy civilian</strong> is shown below.</p> <p></p> <img src='stimuli/faces/NCF4.jpg', style='max-width: 30%;'> </img> <p><strong>Would you launch the weapon?</strong></p>","0",""
"","","","","","html-keyboard-response","111","172805","0.0-3.0-0.54","14","1","2023-05-22 23:52:33","c5e7288ef5abdde20c6cfc36967cae27","37.19.64.4","Mozilla/5.0 (Windows NT 10.0; Win64; x64) AppleWebKit/537.36 (KHTML, like Gecko) Chrome/109.0.0.0 Safari/537.36","WebKit","Chrome","109.0.0.0","Windows","10.0","null","<div style=""font-size:60px;"">+</div>","null",""
"","","","","","html-button-response","112","174065","0.0-3.0-1.54","14","1","2023-05-22 23:52:33","c5e7288ef5abdde20c6cfc36967cae27","37.19.64.4","Mozilla/5.0 (Windows NT 10.0; Win64; x64) AppleWebKit/537.36 (KHTML, like Gecko) Chrome/109.0.0.0 Safari/537.36","WebKit","Chrome","109.0.0.0","Windows","10.0","1254","<p>As the military commander, you could choose to launch a missile to kill <strong>5 enemy soldiers</strong> , but would accidentally kill <strong>1 enemy civilian</strong> nearby.</p> <p>The photo of the <strong>enemy civilian</strong> is shown below.</p> <p></p> <img src='stimuli/faces/NCF8.jpg', style='max-width: 30%;'> </img> <p><strong>Would you launch the weapon?</strong></p>","0",""
"","","","","","html-keyboard-response","113","175075","0.0-3.0-0.55","14","1","2023-05-22 23:52:33","c5e7288ef5abdde20c6cfc36967cae27","37.19.64.4","Mozilla/5.0 (Windows NT 10.0; Win64; x64) AppleWebKit/537.36 (KHTML, like Gecko) Chrome/109.0.0.0 Safari/537.36","WebKit","Chrome","109.0.0.0","Windows","10.0","null","<div style=""font-size:60px;"">+</div>","null",""
"","","","","","html-button-response","114","176168","0.0-3.0-1.55","14","1","2023-05-22 23:52:33","c5e7288ef5abdde20c6cfc36967cae27","37.19.64.4","Mozilla/5.0 (Windows NT 10.0; Win64; x64) AppleWebKit/537.36 (KHTML, like Gecko) Chrome/109.0.0.0 Safari/537.36","WebKit","Chrome","109.0.0.0","Windows","10.0","1086","<p>As the military commander, you could choose to launch a missile to kill <strong>1 enemy soldier</strong> , but would accidentally kill <strong>1 enemy tree</strong> nearby.</p> <p>The photo of the <strong>enemy tree</strong> is shown below.</p> <p></p> <img src='stimuli/tree/7.png', style='max-width: 30%;'> </img> <p><strong>Would you launch the weapon?</strong></p>","1",""
"","","","","","html-keyboard-response","115","177243","0.0-3.0-0.56","14","1","2023-05-22 23:52:33","c5e7288ef5abdde20c6cfc36967cae27","37.19.64.4","Mozilla/5.0 (Windows NT 10.0; Win64; x64) AppleWebKit/537.36 (KHTML, like Gecko) Chrome/109.0.0.0 Safari/537.36","WebKit","Chrome","109.0.0.0","Windows","10.0","null","<div style=""font-size:60px;"">+</div>","null",""
"","","","","","html-button-response","116","178450","0.0-3.0-1.56","14","1","2023-05-22 23:52:33","c5e7288ef5abdde20c6cfc36967cae27","37.19.64.4","Mozilla/5.0 (Windows NT 10.0; Win64; x64) AppleWebKit/537.36 (KHTML, like Gecko) Chrome/109.0.0.0 Safari/537.36","WebKit","Chrome","109.0.0.0","Windows","10.0","1201","<p>As the military commander, you could choose to launch a missile to kill <strong>3 enemy soldiers</strong> , but would accidentally kill <strong>1 enemy tree</strong> nearby.</p> <p>The photo of the <strong>enemy tree</strong> is shown below.</p> <p></p> <img src='stimuli/tree/14.png', style='max-width: 30%;'> </img> <p><strong>Would you launch the weapon?</strong></p>","1",""
"","","","","","html-keyboard-response","117","179489","0.0-3.0-0.57","14","1","2023-05-22 23:52:33","c5e7288ef5abdde20c6cfc36967cae27","37.19.64.4","Mozilla/5.0 (Windows NT 10.0; Win64; x64) AppleWebKit/537.36 (KHTML, like Gecko) Chrome/109.0.0.0 Safari/537.36","WebKit","Chrome","109.0.0.0","Windows","10.0","null","<div style=""font-size:60px;"">+</div>","null",""
"","","","","","html-button-response","118","180371","0.0-3.0-1.57","14","1","2023-05-22 23:52:33","c5e7288ef5abdde20c6cfc36967cae27","37.19.64.4","Mozilla/5.0 (Windows NT 10.0; Win64; x64) AppleWebKit/537.36 (KHTML, like Gecko) Chrome/109.0.0.0 Safari/537.36","WebKit","Chrome","109.0.0.0","Windows","10.0","875","<p>As the military commander, you could choose to launch a missile to kill <strong>3 enemy soldiers</strong> , but would accidentally kill <strong>1 enemy civilian</strong> nearby.</p> <p>The photo of the <strong>enemy civilian</strong> is shown below.</p> <p></p> <img src='stimuli/faces/NCM5.jpg', style='max-width: 30%;'> </img> <p><strong>Would you launch the weapon?</strong></p>","0",""
"","","","","","html-keyboard-response","119","181402","0.0-3.0-0.58","14","1","2023-05-22 23:52:33","c5e7288ef5abdde20c6cfc36967cae27","37.19.64.4","Mozilla/5.0 (Windows NT 10.0; Win64; x64) AppleWebKit/537.36 (KHTML, like Gecko) Chrome/109.0.0.0 Safari/537.36","WebKit","Chrome","109.0.0.0","Windows","10.0","null","<div style=""font-size:60px;"">+</div>","null",""
"","","","","","html-button-response","120","182770","0.0-3.0-1.58","14","1","2023-05-22 23:52:33","c5e7288ef5abdde20c6cfc36967cae27","37.19.64.4","Mozilla/5.0 (Windows NT 10.0; Win64; x64) AppleWebKit/537.36 (KHTML, like Gecko) Chrome/109.0.0.0 Safari/537.36","WebKit","Chrome","109.0.0.0","Windows","10.0","1362","<p>As the military commander, you could choose to launch a missile to kill <strong>8 enemy soldiers</strong> , but would accidentally kill <strong>1 enemy civilian</strong> nearby.</p> <p>The photo of the <strong>enemy civilian</strong> is shown below.</p> <p></p> <img src='stimuli/faces/NCM4.jpg', style='max-width: 30%;'> </img> <p><strong>Would you launch the weapon?</strong></p>","1",""
"","","","","","html-keyboard-response","121","183779","0.0-3.0-0.59","14","1","2023-05-22 23:52:33","c5e7288ef5abdde20c6cfc36967cae27","37.19.64.4","Mozilla/5.0 (Windows NT 10.0; Win64; x64) AppleWebKit/537.36 (KHTML, like Gecko) Chrome/109.0.0.0 Safari/537.36","WebKit","Chrome","109.0.0.0","Windows","10.0","null","<div style=""font-size:60px;"">+</div>","null",""
"","","","","","html-button-response","122","184706","0.0-3.0-1.59","14","1","2023-05-22 23:52:33","c5e7288ef5abdde20c6cfc36967cae27","37.19.64.4","Mozilla/5.0 (Windows NT 10.0; Win64; x64) AppleWebKit/537.36 (KHTML, like Gecko) Chrome/109.0.0.0 Safari/537.36","WebKit","Chrome","109.0.0.0","Windows","10.0","921","<p>As the military commander, you could choose to launch a missile to kill <strong>4 enemy soldiers</strong> , but would accidentally kill <strong>1 enemy tree</strong> nearby.</p> <p>The photo of the <strong>enemy tree</strong> is shown below.</p> <p></p> <img src='stimuli/tree/6.png', style='max-width: 30%;'> </img> <p><strong>Would you launch the weapon?</strong></p>","1",""
"","","","","","html-keyboard-response","123","185725","0.0-3.0-0.60","14","1","2023-05-22 23:52:33","c5e7288ef5abdde20c6cfc36967cae27","37.19.64.4","Mozilla/5.0 (Windows NT 10.0; Win64; x64) AppleWebKit/537.36 (KHTML, like Gecko) Chrome/109.0.0.0 Safari/537.36","WebKit","Chrome","109.0.0.0","Windows","10.0","null","<div style=""font-size:60px;"">+</div>","null",""
"","","","","","html-button-response","124","187022","0.0-3.0-1.60","14","1","2023-05-22 23:52:33","c5e7288ef5abdde20c6cfc36967cae27","37.19.64.4","Mozilla/5.0 (Windows NT 10.0; Win64; x64) AppleWebKit/537.36 (KHTML, like Gecko) Chrome/109.0.0.0 Safari/537.36","WebKit","Chrome","109.0.0.0","Windows","10.0","1291","<p>As the military commander, you could choose to launch a missile to kill <strong>4 enemy soldiers</strong> , but would accidentally kill <strong>1 enemy tree</strong> nearby.</p> <p>The photo of the <strong>enemy tree</strong> is shown below.</p> <p></p> <img src='stimuli/tree/16.png', style='max-width: 30%;'> </img> <p><strong>Would you launch the weapon?</strong></p>","1",""
"","","","","","html-keyboard-response","125","188040","0.0-3.0-0.61","14","1","2023-05-22 23:52:33","c5e7288ef5abdde20c6cfc36967cae27","37.19.64.4","Mozilla/5.0 (Windows NT 10.0; Win64; x64) AppleWebKit/537.36 (KHTML, like Gecko) Chrome/109.0.0.0 Safari/537.36","WebKit","Chrome","109.0.0.0","Windows","10.0","null","<div style=""font-size:60px;"">+</div>","null",""
"","","","","","html-button-response","126","189185","0.0-3.0-1.61","14","1","2023-05-22 23:52:33","c5e7288ef5abdde20c6cfc36967cae27","37.19.64.4","Mozilla/5.0 (Windows NT 10.0; Win64; x64) AppleWebKit/537.36 (KHTML, like Gecko) Chrome/109.0.0.0 Safari/537.36","WebKit","Chrome","109.0.0.0","Windows","10.0","1138","<p>As the military commander, you could choose to launch a missile to kill <strong>6 enemy soldiers</strong> , but would accidentally kill <strong>1 enemy tree</strong> nearby.</p> <p>The photo of the <strong>enemy tree</strong> is shown below.</p> <p></p> <img src='stimuli/tree/6.png', style='max-width: 30%;'> </img> <p><strong>Would you launch the weapon?</strong></p>","1",""
"","","","","","html-keyboard-response","127","190195","0.0-3.0-0.62","14","1","2023-05-22 23:52:33","c5e7288ef5abdde20c6cfc36967cae27","37.19.64.4","Mozilla/5.0 (Windows NT 10.0; Win64; x64) AppleWebKit/537.36 (KHTML, like Gecko) Chrome/109.0.0.0 Safari/537.36","WebKit","Chrome","109.0.0.0","Windows","10.0","null","<div style=""font-size:60px;"">+</div>","null",""
"","","","","","html-button-response","128","191217","0.0-3.0-1.62","14","1","2023-05-22 23:52:33","c5e7288ef5abdde20c6cfc36967cae27","37.19.64.4","Mozilla/5.0 (Windows NT 10.0; Win64; x64) AppleWebKit/537.36 (KHTML, like Gecko) Chrome/109.0.0.0 Safari/537.36","WebKit","Chrome","109.0.0.0","Windows","10.0","1014","<p>As the military commander, you could choose to launch a missile to kill <strong>7 enemy soldiers</strong> , but would accidentally kill <strong>1 enemy tree</strong> nearby.</p> <p>The photo of the <strong>enemy tree</strong> is shown below.</p> <p></p> <img src='stimuli/tree/8.png', style='max-width: 30%;'> </img> <p><strong>Would you launch the weapon?</strong></p>","1",""
"","","","","","html-keyboard-response","129","192234","0.0-3.0-0.63","14","1","2023-05-22 23:52:33","c5e7288ef5abdde20c6cfc36967cae27","37.19.64.4","Mozilla/5.0 (Windows NT 10.0; Win64; x64) AppleWebKit/537.36 (KHTML, like Gecko) Chrome/109.0.0.0 Safari/537.36","WebKit","Chrome","109.0.0.0","Windows","10.0","null","<div style=""font-size:60px;"">+</div>","null",""
"","","","","","html-button-response","130","193410","0.0-3.0-1.63","14","1","2023-05-22 23:52:33","c5e7288ef5abdde20c6cfc36967cae27","37.19.64.4","Mozilla/5.0 (Windows NT 10.0; Win64; x64) AppleWebKit/537.36 (KHTML, like Gecko) Chrome/109.0.0.0 Safari/537.36","WebKit","Chrome","109.0.0.0","Windows","10.0","1171","<p>As the military commander, you could choose to launch a missile to kill <strong>9 enemy soldiers</strong> , but would accidentally kill <strong>1 enemy civilian</strong> nearby.</p> <p>The photo of the <strong>enemy civilian</strong> is shown below.</p> <p></p> <img src='stimuli/faces/NCM1.jpg', style='max-width: 30%;'> </img> <p><strong>Would you launch the weapon?</strong></p>","0",""
"","","","","","survey-multi-choice","131","205320","0.0-4.0","14","1","2023-05-22 23:52:33","c5e7288ef5abdde20c6cfc36967cae27","37.19.64.4","Mozilla/5.0 (Windows NT 10.0; Win64; x64) AppleWebKit/537.36 (KHTML, like Gecko) Chrome/109.0.0.0 Safari/537.36","WebKit","Chrome","109.0.0.0","Windows","10.0","11896","","{""Attention1"":""5""}","[0]"
"","","","","","html-button-response","132","207173","0.0-5.0","14","1","2023-05-22 23:52:33","c5e7288ef5abdde20c6cfc36967cae27","37.19.64.4","Mozilla/5.0 (Windows NT 10.0; Win64; x64) AppleWebKit/537.36 (KHTML, like Gecko) Chrome/109.0.0.0 Safari/537.36","WebKit","Chrome","109.0.0.0","Windows","10.0","1838","<p style=""font-size:20px;font-weight:bold;"">Great!</p><p>You have finished the first part of the experiment!</p><p>Please relax a little bit and then contine to answer some questions regarding yourself.</p><p>The next part will take around 10 minutes to complete.</p>","0",""
"","","","","","survey-text","133","240986","0.0-6.0","14","1","2023-05-22 23:52:33","c5e7288ef5abdde20c6cfc36967cae27","37.19.64.4","Mozilla/5.0 (Windows NT 10.0; Win64; x64) AppleWebKit/537.36 (KHTML, like Gecko) Chrome/109.0.0.0 Safari/537.36","WebKit","Chrome","109.0.0.0","Windows","10.0","32780","","{""Age"":""24"",""Nation"":""USA"",""Born"":""1999"",""Live"":""USA""}",""
"","","","","","survey-multi-choice","134","250284","0.0-7.0","14","1","2023-05-22 23:52:33","c5e7288ef5abdde20c6cfc36967cae27","37.19.64.4","Mozilla/5.0 (Windows NT 10.0; Win64; x64) AppleWebKit/537.36 (KHTML, like Gecko) Chrome/109.0.0.0 Safari/537.36","WebKit","Chrome","109.0.0.0","Windows","10.0","9289","","{""Gender"":""Female"",""Education"":""Bachelor's Degree"",""Income"":""$100,000 - $124,999"",""Children"":""1"",""Ethnicity"":""White""}","[0,1,2,3,4]"
"","","","","","survey-multi-select","135","255116","0.0-8.0","14","1","2023-05-22 23:52:33","c5e7288ef5abdde20c6cfc36967cae27","37.19.64.4","Mozilla/5.0 (Windows NT 10.0; Win64; x64) AppleWebKit/537.36 (KHTML, like Gecko) Chrome/109.0.0.0 Safari/537.36","WebKit","Chrome","109.0.0.0","Windows","10.0","4807","","{""Marriage"":[""Married""],""Religion"":[""Catholic""]}","[0,1]"
"","","","","","survey-multi-choice","136","260205","0.0-9.0","14","1","2023-05-22 23:52:33","c5e7288ef5abdde20c6cfc36967cae27","37.19.64.4","Mozilla/5.0 (Windows NT 10.0; Win64; x64) AppleWebKit/537.36 (KHTML, like Gecko) Chrome/109.0.0.0 Safari/537.36","WebKit","Chrome","109.0.0.0","Windows","10.0","5078","","{""SES"":""9""}","[0]"
"","","","","","html-button-response","137","262353","0.0-10.0","14","1","2023-05-22 23:52:33","c5e7288ef5abdde20c6cfc36967cae27","37.19.64.4","Mozilla/5.0 (Windows NT 10.0; Win64; x64) AppleWebKit/537.36 (KHTML, like Gecko) Chrome/109.0.0.0 Safari/537.36","WebKit","Chrome","109.0.0.0","Windows","10.0","2140","<p><strong>Please indicate the extent that the following statements could describe you.</p><p> (1 = ""extremely uncharacteristic of me"" to 5 = ""extremely characteristic of me"".)</strong></p>","0",""
"","","","","","survey-likert","138","289019","0.0-11.0","14","1","2023-05-22 23:52:33","c5e7288ef5abdde20c6cfc36967cae27","37.19.64.4","Mozilla/5.0 (Windows NT 10.0; Win64; x64) AppleWebKit/537.36 (KHTML, like Gecko) Chrome/109.0.0.0 Safari/537.36","WebKit","Chrome","109.0.0.0","Windows","10.0","26651","","{""Aggression1"":0,""Aggression2"":0,""Aggression3"":0,""Aggression4"":0,""Aggression5"":0,""Aggression6"":0,""Aggression7"":0,""Aggression8"":0,""Aggression9"":0}","[0,1,2,3,4,5,6,7,8]"
"","","","","","html-button-response","139","290296","0.0-12.0","14","1","2023-05-22 23:52:33","c5e7288ef5abdde20c6cfc36967cae27","37.19.64.4","Mozilla/5.0 (Windows NT 10.0; Win64; x64) AppleWebKit/537.36 (KHTML, like Gecko) Chrome/109.0.0.0 Safari/537.36","WebKit","Chrome","109.0.0.0","Windows","10.0","1264","<p><strong>Please indicate the extent that the following statements could describe you. </strong></p><p><strong> (1 = ""Does not describe me well"" to 5 = ""Does decribe me well"".)</strong></p>","0",""
"","","","","","survey-likert","140","346646","0.0-13.0","14","1","2023-05-22 23:52:33","c5e7288ef5abdde20c6cfc36967cae27","37.19.64.4","Mozilla/5.0 (Windows NT 10.0; Win64; x64) AppleWebKit/537.36 (KHTML, like Gecko) Chrome/109.0.0.0 Safari/537.36","WebKit","Chrome","109.0.0.0","Windows","10.0","56340","","{""fs2"":3,""ecs7"":3,""ecs2"":3,""pts2"":3,""pts1"":2,""fs5"":3,""pds5"":3,""pts5"":3,""fs6"":2,""fs3"":3,""pts6"":2,""pds6"":3,""fs1"":2,""pts4"":1,""ecs3"":3,""fs7"":2,""ecs4"":3,""ecs1"":2,""ecs6"":0,""pds3"":0,""pds2"":3,""pts3"":2,""fs4"":3,""pds4"":0,""pds1"":3,""ecs5"":1,""pds7"":0,""pts7"":2}","[4,21,3,7,2,15,18,20,22,6,24,23,0,14,8,25,13,1,19,12,9,10,11,16,5,17,26,27]"
"","","","","","html-button-response","141","348276","0.0-14.0","14","1","2023-05-22 23:52:33","c5e7288ef5abdde20c6cfc36967cae27","37.19.64.4","Mozilla/5.0 (Windows NT 10.0; Win64; x64) AppleWebKit/537.36 (KHTML, like Gecko) Chrome/109.0.0.0 Safari/537.36","WebKit","Chrome","109.0.0.0","Windows","10.0","1619","<p><strong>Which of the following objects or statements do you have a positive or negative feeling towards? </strong></p><p><strong> (1 = ""Very negative"" to 7 = ""Very positive"") </strong></p>","0",""
"","","","","","survey-likert","142","375590","0.0-15.0","14","1","2023-05-22 23:52:33","c5e7288ef5abdde20c6cfc36967cae27","37.19.64.4","Mozilla/5.0 (Windows NT 10.0; Win64; x64) AppleWebKit/537.36 (KHTML, like Gecko) Chrome/109.0.0.0 Safari/537.36","WebKit","Chrome","109.0.0.0","Windows","10.0","27302","","{""sdo11"":5,""sdo12"":6,""sdo10"":5,""sdo6"":6,""sdo1"":4,""sdo15"":6,""sdo2"":5,""sdo5"":6,""sdo16"":4,""sdo7"":6,""sdo8"":5,""sdo9"":6,""sdo14"":4,""sdo3"":6,""sdo13"":5,""sdo4"":6}","[10,11,9,5,0,14,1,4,15,6,7,8,13,2,12,3]"
"","","","","","html-button-response","143","377099","0.0-16.0","14","1","2023-05-22 23:52:33","c5e7288ef5abdde20c6cfc36967cae27","37.19.64.4","Mozilla/5.0 (Windows NT 10.0; Win64; x64) AppleWebKit/537.36 (KHTML, like Gecko) Chrome/109.0.0.0 Safari/537.36","WebKit","Chrome","109.0.0.0","Windows","10.0","1501","<p><strong>Please indicate the extent you agree with the following statements.</strong></p><strong><p> (1 = ""Strongly Disagree"" to 5 = ""Srongly Agree"") </strong></p>","0",""
"","","","","","survey-likert","144","423541","0.0-17.0","14","1","2023-05-22 23:52:33","c5e7288ef5abdde20c6cfc36967cae27","37.19.64.4","Mozilla/5.0 (Windows NT 10.0; Win64; x64) AppleWebKit/537.36 (KHTML, like Gecko) Chrome/109.0.0.0 Safari/537.36","WebKit","Chrome","109.0.0.0","Windows","10.0","46433","","{""caring1"":3,""liking1"":4,""caring2"":1,""protection1"":4,""liking2"":1,""caring3"":0,""protection2"":1,""liking3"":0,""protection3"":1,""caring4"":1,""liking4"":0,""protection4"":0,""caring5"":0,""liking5"":0,""protection5"":0}","[0,1,2,3,4,5,6,7,8,9,10,11,12,13,14]"
"","","","","","html-button-response","145","424681","0.0-18.0","14","1","2023-05-22 23:52:33","c5e7288ef5abdde20c6cfc36967cae27","37.19.64.4","Mozilla/5.0 (Windows NT 10.0; Win64; x64) AppleWebKit/537.36 (KHTML, like Gecko) Chrome/109.0.0.0 Safari/537.36","WebKit","Chrome","109.0.0.0","Windows","10.0","1131","<p><strong>Please imagine spercific situations involving children below, and rate the amount of tenderness you would feel in each situation. </strong></p><p><strong> (Ternderness is ""a warm, gentle feeling of sympathetic affection."") </strong></p><strong><p> (1 = ""No tenderness at all"" to 5 = ""A lot of tenderness"") </strong></p>","0",""
"","","","","","survey-likert","146","455083","0.0-19.0","14","1","2023-05-22 23:52:33","c5e7288ef5abdde20c6cfc36967cae27","37.19.64.4","Mozilla/5.0 (Windows NT 10.0; Win64; x64) AppleWebKit/537.36 (KHTML, like Gecko) Chrome/109.0.0.0 Safari/537.36","WebKit","Chrome","109.0.0.0","Windows","10.0","30394","","{""tenderness-positive1"":2,""tenderness-negative1"":1,""tenderness-negative2"":2,""tenderness-positive2"":1,""tenderness-positive3"":0,""tenderness-negative3"":0,""tenderness-positive4"":2,""tendereness-negative4"":1,""tendernness-negative5"":0,""tenderness-positive5"":1}","[0,1,2,3,4,5,6,7,8,9]"
"","","","","","survey-multi-choice","147","501122","0.0-20.0","14","1","2023-05-22 23:52:33","c5e7288ef5abdde20c6cfc36967cae27","37.19.64.4","Mozilla/5.0 (Windows NT 10.0; Win64; x64) AppleWebKit/537.36 (KHTML, like Gecko) Chrome/109.0.0.0 Safari/537.36","WebKit","Chrome","109.0.0.0","Windows","10.0","46024","","{""Attention2"":""Other""}","[0]"
"","","","","","html-button-response","148","502329","0.0-21.0","14","1","2023-05-22 23:52:33","c5e7288ef5abdde20c6cfc36967cae27","37.19.64.4","Mozilla/5.0 (Windows NT 10.0; Win64; x64) AppleWebKit/537.36 (KHTML, like Gecko) Chrome/109.0.0.0 Safari/537.36","WebKit","Chrome","109.0.0.0","Windows","10.0","1199","<p><strong>Please indicate the extent you agree with the following statements.</strong></p>","0",""
"","","","","","survey-likert","149","534318","0.0-22.0","14","1","2023-05-22 23:52:33","c5e7288ef5abdde20c6cfc36967cae27","37.19.64.4","Mozilla/5.0 (Windows NT 10.0; Win64; x64) AppleWebKit/537.36 (KHTML, like Gecko) Chrome/109.0.0.0 Safari/537.36","WebKit","Chrome","109.0.0.0","Windows","10.0","31981","","{""Nation7"":3,""Patri5"":2,""Nation8"":4,""Patri9"":3,""Patri12"":3,""Patri6"":2,""Patri7"":3,""Nation4"":2,""Nation2"":2,""Patri1"":4,""Patri11"":3,""Nation5"":4,""Patri8"":3,""Patri4"":4,""Nation3"":3,""Patri3"":4,""Patri10"":3,""Patri2"":4,""Nation6"":3,""Nation1"":4}","[18,4,19,8,11,5,6,15,13,0,10,16,7,3,14,2,9,1,17,12]"
"","","","","","html-button-response","150","535232","0.0-23.0","14","1","2023-05-22 23:52:33","c5e7288ef5abdde20c6cfc36967cae27","37.19.64.4","Mozilla/5.0 (Windows NT 10.0; Win64; x64) AppleWebKit/537.36 (KHTML, like Gecko) Chrome/109.0.0.0 Safari/537.36","WebKit","Chrome","109.0.0.0","Windows","10.0","907","<p><strong>Please indicate the extent you agree with the following statements. </p><p>(1 = ""never or definitely no"" and 9 = ""always or definitely yes"".)</strong></p>","0",""
"","","","","","survey-likert","151","563805","0.0-24.0","14","1","2023-05-22 23:52:33","c5e7288ef5abdde20c6cfc36967cae27","37.19.64.4","Mozilla/5.0 (Windows NT 10.0; Win64; x64) AppleWebKit/537.36 (KHTML, like Gecko) Chrome/109.0.0.0 Safari/537.36","WebKit","Chrome","109.0.0.0","Windows","10.0","28563","","{""vc4"":7,""hi4"":8,""hc1"":5,""vi3"":8,""hc3"":6,""vc1"":8,""vi2"":6,""vi1"":8,""hi1"":4,""hc2"":8,""vc3"":7,""hc4"":6,""vc2"":8,""vi4"":7,""hi3"":8,""hi2"":6,""Robot2"":6}","[16,3,9,6,11,13,5,4,0,10,15,12,14,8,2,1,7]"
"","","","","","survey-text","152","570098","0.0-25.0","14","1","2023-05-22 23:52:33","c5e7288ef5abdde20c6cfc36967cae27","37.19.64.4","Mozilla/5.0 (Windows NT 10.0; Win64; x64) AppleWebKit/537.36 (KHTML, like Gecko) Chrome/109.0.0.0 Safari/537.36","WebKit","Chrome","109.0.0.0","Windows","10.0","6274","","{""ID"":""AFZ8G8P7PYA53"",""Comments"":""GOOD""}",""
"","","","","","html-button-response","153","644418","0.0-26.0","14","1","2023-05-22 23:52:33","c5e7288ef5abdde20c6cfc36967cae27","37.19.64.4","Mozilla/5.0 (Windows NT 10.0; Win64; x64) AppleWebKit/537.36 (KHTML, like Gecko) Chrome/109.0.0.0 Safari/537.36","WebKit","Chrome","109.0.0.0","Windows","10.0","74314","<p><strong>Congratulations! </strong> Your have finished all the survey. Thank you for your participation!</p><p><strong>Here is your complete token:</strong></p>33f02b3gq1khxc7kbkh74jt7y<p></p><p><strong>Please copy it to the mTurk page.</strong></p>","0",""
