"success","timeout","failed_images","failed_audio","failed_video","trial_type","trial_index","time_elapsed","internal_node_id","run_id","condition","recorded_at","source_code_version","ip","user_agent","device","browser","browser_version","platform","platform_version","rt","stimulus","response","question_order"
"true","false","[]","[]","[]","preload","0","1151","0.0-0.0","28","1","2023-05-19 17:03:49","c5e7288ef5abdde20c6cfc36967cae27","208.195.166.199","Mozilla/5.0 (Windows NT 10.0; Win64; x64) AppleWebKit/537.36 (KHTML, like Gecko) Chrome/112.0.0.0 Safari/537.36","WebKit","Chrome","112.0.0.0","Windows","10.0","","","",""
"true","","","","","fullscreen","1","23633","0.0-1.0","28","1","2023-05-19 17:03:49","c5e7288ef5abdde20c6cfc36967cae27","208.195.166.199","Mozilla/5.0 (Windows NT 10.0; Win64; x64) AppleWebKit/537.36 (KHTML, like Gecko) Chrome/112.0.0.0 Safari/537.36","WebKit","Chrome","112.0.0.0","Windows","10.0","","","",""
"","","","","","html-button-response","2","43183","0.0-2.0","28","1","2023-05-19 17:03:49","c5e7288ef5abdde20c6cfc36967cae27","208.195.166.199","Mozilla/5.0 (Windows NT 10.0; Win64; x64) AppleWebKit/537.36 (KHTML, like Gecko) Chrome/112.0.0.0 Safari/537.36","WebKit","Chrome","112.0.0.0","Windows","10.0","19547","<p ><strong>Welcome to the experiment!</strong></p><p ><strong>In the first task, please imagine:</strong></p><p>Your country is involved in a military conflict with another country.</p><p>You are the commander of your army and must make decisions in the conflict.</p><p>Specifically, as the military commander, you must decide whether to launch a missile to strike enemy.</p><p>You will face a series of scenarios. Please read each scenario carefully and make a decision.</p><p>The task will take around 10 minutes to complete.</p><p><strong>Please pay your attention during the experiment.</strong></p>","0",""
"","","","","","html-keyboard-response","3","44186","0.0-3.0-0.0","28","1","2023-05-19 17:03:49","c5e7288ef5abdde20c6cfc36967cae27","208.195.166.199","Mozilla/5.0 (Windows NT 10.0; Win64; x64) AppleWebKit/537.36 (KHTML, like Gecko) Chrome/112.0.0.0 Safari/537.36","WebKit","Chrome","112.0.0.0","Windows","10.0","null","<div style=""font-size:60px;"">+</div>","null",""
"","","","","","html-button-response","4","71074","0.0-3.0-1.0","28","1","2023-05-19 17:03:49","c5e7288ef5abdde20c6cfc36967cae27","208.195.166.199","Mozilla/5.0 (Windows NT 10.0; Win64; x64) AppleWebKit/537.36 (KHTML, like Gecko) Chrome/112.0.0.0 Safari/537.36","WebKit","Chrome","112.0.0.0","Windows","10.0","26883","<p>As the military commander, you could choose to launch a missile to kill <strong>3 enemy soldiers</strong> , but would accidentally kill <strong>1 enemy civilian</strong> nearby.</p> <p>The photo of the <strong>enemy civilian</strong> is shown below.</p> <p></p> <img src='stimuli/faces/NCF6.jpg', style='max-width: 30%;'> </img> <p><strong>Would you launch the weapon?</strong></p>","1",""
"","","","","","html-keyboard-response","5","72078","0.0-3.0-0.1","28","1","2023-05-19 17:03:49","c5e7288ef5abdde20c6cfc36967cae27","208.195.166.199","Mozilla/5.0 (Windows NT 10.0; Win64; x64) AppleWebKit/537.36 (KHTML, like Gecko) Chrome/112.0.0.0 Safari/537.36","WebKit","Chrome","112.0.0.0","Windows","10.0","null","<div style=""font-size:60px;"">+</div>","null",""
"","","","","","html-button-response","6","75399","0.0-3.0-1.1","28","1","2023-05-19 17:03:49","c5e7288ef5abdde20c6cfc36967cae27","208.195.166.199","Mozilla/5.0 (Windows NT 10.0; Win64; x64) AppleWebKit/537.36 (KHTML, like Gecko) Chrome/112.0.0.0 Safari/537.36","WebKit","Chrome","112.0.0.0","Windows","10.0","3318","<p>As the military commander, you could choose to launch a missile to kill <strong>5 enemy soldiers</strong> , but would accidentally kill <strong>1 enemy civilian</strong> nearby.</p> <p>The photo of the <strong>enemy civilian</strong> is shown below.</p> <p></p> <img src='stimuli/faces/NCF3.jpg', style='max-width: 30%;'> </img> <p><strong>Would you launch the weapon?</strong></p>","0",""
"","","","","","html-keyboard-response","7","76401","0.0-3.0-0.2","28","1","2023-05-19 17:03:49","c5e7288ef5abdde20c6cfc36967cae27","208.195.166.199","Mozilla/5.0 (Windows NT 10.0; Win64; x64) AppleWebKit/537.36 (KHTML, like Gecko) Chrome/112.0.0.0 Safari/537.36","WebKit","Chrome","112.0.0.0","Windows","10.0","null","<div style=""font-size:60px;"">+</div>","null",""
"","","","","","html-button-response","8","109993","0.0-3.0-1.2","28","1","2023-05-19 17:03:49","c5e7288ef5abdde20c6cfc36967cae27","208.195.166.199","Mozilla/5.0 (Windows NT 10.0; Win64; x64) AppleWebKit/537.36 (KHTML, like Gecko) Chrome/112.0.0.0 Safari/537.36","WebKit","Chrome","112.0.0.0","Windows","10.0","33589","<p>As the military commander, you could choose to launch a missile to kill <strong>10 enemy soldiers</strong> , but would accidentally kill <strong>1 enemy civilian</strong> nearby.</p> <p>The photo of the <strong>enemy civilian</strong> is shown below.</p> <p></p> <img src='stimuli/faces/NCF1.jpg', style='max-width: 30%;'> </img> <p><strong>Would you launch the weapon?</strong></p>","1",""
"","","","","","html-keyboard-response","9","110996","0.0-3.0-0.3","28","1","2023-05-19 17:03:49","c5e7288ef5abdde20c6cfc36967cae27","208.195.166.199","Mozilla/5.0 (Windows NT 10.0; Win64; x64) AppleWebKit/537.36 (KHTML, like Gecko) Chrome/112.0.0.0 Safari/537.36","WebKit","Chrome","112.0.0.0","Windows","10.0","null","<div style=""font-size:60px;"">+</div>","null",""
"","","","","","html-button-response","10","116798","0.0-3.0-1.3","28","1","2023-05-19 17:03:49","c5e7288ef5abdde20c6cfc36967cae27","208.195.166.199","Mozilla/5.0 (Windows NT 10.0; Win64; x64) AppleWebKit/537.36 (KHTML, like Gecko) Chrome/112.0.0.0 Safari/537.36","WebKit","Chrome","112.0.0.0","Windows","10.0","5799","<p>As the military commander, you could choose to launch a missile to kill <strong>9 enemy soldiers</strong> , but would accidentally kill <strong>1 enemy tree</strong> nearby.</p> <p>The photo of the <strong>enemy tree</strong> is shown below.</p> <p></p> <img src='stimuli/tree/10.png', style='max-width: 30%;'> </img> <p><strong>Would you launch the weapon?</strong></p>","1",""
"","","","","","html-keyboard-response","11","117800","0.0-3.0-0.4","28","1","2023-05-19 17:03:49","c5e7288ef5abdde20c6cfc36967cae27","208.195.166.199","Mozilla/5.0 (Windows NT 10.0; Win64; x64) AppleWebKit/537.36 (KHTML, like Gecko) Chrome/112.0.0.0 Safari/537.36","WebKit","Chrome","112.0.0.0","Windows","10.0","null","<div style=""font-size:60px;"">+</div>","null",""
"","","","","","html-button-response","12","120403","0.0-3.0-1.4","28","1","2023-05-19 17:03:49","c5e7288ef5abdde20c6cfc36967cae27","208.195.166.199","Mozilla/5.0 (Windows NT 10.0; Win64; x64) AppleWebKit/537.36 (KHTML, like Gecko) Chrome/112.0.0.0 Safari/537.36","WebKit","Chrome","112.0.0.0","Windows","10.0","2598","<p>As the military commander, you could choose to launch a missile to kill <strong>7 enemy soldiers</strong> , but would accidentally kill <strong>1 enemy civilian</strong> nearby.</p> <p>The photo of the <strong>enemy civilian</strong> is shown below.</p> <p></p> <img src='stimuli/faces/NCM1.jpg', style='max-width: 30%;'> </img> <p><strong>Would you launch the weapon?</strong></p>","0",""
"","","","","","html-keyboard-response","13","121406","0.0-3.0-0.5","28","1","2023-05-19 17:03:49","c5e7288ef5abdde20c6cfc36967cae27","208.195.166.199","Mozilla/5.0 (Windows NT 10.0; Win64; x64) AppleWebKit/537.36 (KHTML, like Gecko) Chrome/112.0.0.0 Safari/537.36","WebKit","Chrome","112.0.0.0","Windows","10.0","null","<div style=""font-size:60px;"">+</div>","null",""
"","","","","","html-button-response","14","123337","0.0-3.0-1.5","28","1","2023-05-19 17:03:49","c5e7288ef5abdde20c6cfc36967cae27","208.195.166.199","Mozilla/5.0 (Windows NT 10.0; Win64; x64) AppleWebKit/537.36 (KHTML, like Gecko) Chrome/112.0.0.0 Safari/537.36","WebKit","Chrome","112.0.0.0","Windows","10.0","1928","<p>As the military commander, you could choose to launch a missile to kill <strong>2 enemy soldiers</strong> , but would accidentally kill <strong>1 enemy tree</strong> nearby.</p> <p>The photo of the <strong>enemy tree</strong> is shown below.</p> <p></p> <img src='stimuli/tree/12.png', style='max-width: 30%;'> </img> <p><strong>Would you launch the weapon?</strong></p>","1",""
"","","","","","html-keyboard-response","15","124341","0.0-3.0-0.6","28","1","2023-05-19 17:03:49","c5e7288ef5abdde20c6cfc36967cae27","208.195.166.199","Mozilla/5.0 (Windows NT 10.0; Win64; x64) AppleWebKit/537.36 (KHTML, like Gecko) Chrome/112.0.0.0 Safari/537.36","WebKit","Chrome","112.0.0.0","Windows","10.0","null","<div style=""font-size:60px;"">+</div>","null",""
"","","","","","html-button-response","16","126766","0.0-3.0-1.6","28","1","2023-05-19 17:03:49","c5e7288ef5abdde20c6cfc36967cae27","208.195.166.199","Mozilla/5.0 (Windows NT 10.0; Win64; x64) AppleWebKit/537.36 (KHTML, like Gecko) Chrome/112.0.0.0 Safari/537.36","WebKit","Chrome","112.0.0.0","Windows","10.0","2423","<p>As the military commander, you could choose to launch a missile to kill <strong>3 enemy soldiers</strong> , but would accidentally kill <strong>1 enemy civilian</strong> nearby.</p> <p>The photo of the <strong>enemy civilian</strong> is shown below.</p> <p></p> <img src='stimuli/faces/NCF5.jpg', style='max-width: 30%;'> </img> <p><strong>Would you launch the weapon?</strong></p>","0",""
"","","","","","html-keyboard-response","17","127769","0.0-3.0-0.7","28","1","2023-05-19 17:03:49","c5e7288ef5abdde20c6cfc36967cae27","208.195.166.199","Mozilla/5.0 (Windows NT 10.0; Win64; x64) AppleWebKit/537.36 (KHTML, like Gecko) Chrome/112.0.0.0 Safari/537.36","WebKit","Chrome","112.0.0.0","Windows","10.0","null","<div style=""font-size:60px;"">+</div>","null",""
"","","","","","html-button-response","18","129448","0.0-3.0-1.7","28","1","2023-05-19 17:03:49","c5e7288ef5abdde20c6cfc36967cae27","208.195.166.199","Mozilla/5.0 (Windows NT 10.0; Win64; x64) AppleWebKit/537.36 (KHTML, like Gecko) Chrome/112.0.0.0 Safari/537.36","WebKit","Chrome","112.0.0.0","Windows","10.0","1674","<p>As the military commander, you could choose to launch a missile to kill <strong>2 enemy soldiers</strong> , but would accidentally kill <strong>1 enemy tree</strong> nearby.</p> <p>The photo of the <strong>enemy tree</strong> is shown below.</p> <p></p> <img src='stimuli/tree/9.png', style='max-width: 30%;'> </img> <p><strong>Would you launch the weapon?</strong></p>","1",""
"","","","","","html-keyboard-response","19","130452","0.0-3.0-0.8","28","1","2023-05-19 17:03:49","c5e7288ef5abdde20c6cfc36967cae27","208.195.166.199","Mozilla/5.0 (Windows NT 10.0; Win64; x64) AppleWebKit/537.36 (KHTML, like Gecko) Chrome/112.0.0.0 Safari/537.36","WebKit","Chrome","112.0.0.0","Windows","10.0","null","<div style=""font-size:60px;"">+</div>","null",""
"","","","","","html-button-response","20","131976","0.0-3.0-1.8","28","1","2023-05-19 17:03:49","c5e7288ef5abdde20c6cfc36967cae27","208.195.166.199","Mozilla/5.0 (Windows NT 10.0; Win64; x64) AppleWebKit/537.36 (KHTML, like Gecko) Chrome/112.0.0.0 Safari/537.36","WebKit","Chrome","112.0.0.0","Windows","10.0","1522","<p>As the military commander, you could choose to launch a missile to kill <strong>8 enemy soldiers</strong> , but would accidentally kill <strong>1 enemy tree</strong> nearby.</p> <p>The photo of the <strong>enemy tree</strong> is shown below.</p> <p></p> <img src='stimuli/tree/8.png', style='max-width: 30%;'> </img> <p><strong>Would you launch the weapon?</strong></p>","1",""
"","","","","","html-keyboard-response","21","132979","0.0-3.0-0.9","28","1","2023-05-19 17:03:49","c5e7288ef5abdde20c6cfc36967cae27","208.195.166.199","Mozilla/5.0 (Windows NT 10.0; Win64; x64) AppleWebKit/537.36 (KHTML, like Gecko) Chrome/112.0.0.0 Safari/537.36","WebKit","Chrome","112.0.0.0","Windows","10.0","null","<div style=""font-size:60px;"">+</div>","null",""
"","","","","","html-button-response","22","134283","0.0-3.0-1.9","28","1","2023-05-19 17:03:49","c5e7288ef5abdde20c6cfc36967cae27","208.195.166.199","Mozilla/5.0 (Windows NT 10.0; Win64; x64) AppleWebKit/537.36 (KHTML, like Gecko) Chrome/112.0.0.0 Safari/537.36","WebKit","Chrome","112.0.0.0","Windows","10.0","1302","<p>As the military commander, you could choose to launch a missile to kill <strong>7 enemy soldiers</strong> , but would accidentally kill <strong>1 enemy tree</strong> nearby.</p> <p>The photo of the <strong>enemy tree</strong> is shown below.</p> <p></p> <img src='stimuli/tree/3.png', style='max-width: 30%;'> </img> <p><strong>Would you launch the weapon?</strong></p>","1",""
"","","","","","html-keyboard-response","23","135286","0.0-3.0-0.10","28","1","2023-05-19 17:03:49","c5e7288ef5abdde20c6cfc36967cae27","208.195.166.199","Mozilla/5.0 (Windows NT 10.0; Win64; x64) AppleWebKit/537.36 (KHTML, like Gecko) Chrome/112.0.0.0 Safari/537.36","WebKit","Chrome","112.0.0.0","Windows","10.0","null","<div style=""font-size:60px;"">+</div>","null",""
"","","","","","html-button-response","24","137320","0.0-3.0-1.10","28","1","2023-05-19 17:03:49","c5e7288ef5abdde20c6cfc36967cae27","208.195.166.199","Mozilla/5.0 (Windows NT 10.0; Win64; x64) AppleWebKit/537.36 (KHTML, like Gecko) Chrome/112.0.0.0 Safari/537.36","WebKit","Chrome","112.0.0.0","Windows","10.0","2030","<p>As the military commander, you could choose to launch a missile to kill <strong>7 enemy soldiers</strong> , but would accidentally kill <strong>1 enemy tree</strong> nearby.</p> <p>The photo of the <strong>enemy tree</strong> is shown below.</p> <p></p> <img src='stimuli/tree/9.png', style='max-width: 30%;'> </img> <p><strong>Would you launch the weapon?</strong></p>","1",""
"","","","","","html-keyboard-response","25","138323","0.0-3.0-0.11","28","1","2023-05-19 17:03:49","c5e7288ef5abdde20c6cfc36967cae27","208.195.166.199","Mozilla/5.0 (Windows NT 10.0; Win64; x64) AppleWebKit/537.36 (KHTML, like Gecko) Chrome/112.0.0.0 Safari/537.36","WebKit","Chrome","112.0.0.0","Windows","10.0","null","<div style=""font-size:60px;"">+</div>","null",""
"","","","","","html-button-response","26","140033","0.0-3.0-1.11","28","1","2023-05-19 17:03:49","c5e7288ef5abdde20c6cfc36967cae27","208.195.166.199","Mozilla/5.0 (Windows NT 10.0; Win64; x64) AppleWebKit/537.36 (KHTML, like Gecko) Chrome/112.0.0.0 Safari/537.36","WebKit","Chrome","112.0.0.0","Windows","10.0","1708","<p>As the military commander, you could choose to launch a missile to kill <strong>9 enemy soldiers</strong> , but would accidentally kill <strong>1 enemy tree</strong> nearby.</p> <p>The photo of the <strong>enemy tree</strong> is shown below.</p> <p></p> <img src='stimuli/tree/14.png', style='max-width: 30%;'> </img> <p><strong>Would you launch the weapon?</strong></p>","1",""
"","","","","","html-keyboard-response","27","141036","0.0-3.0-0.12","28","1","2023-05-19 17:03:49","c5e7288ef5abdde20c6cfc36967cae27","208.195.166.199","Mozilla/5.0 (Windows NT 10.0; Win64; x64) AppleWebKit/537.36 (KHTML, like Gecko) Chrome/112.0.0.0 Safari/537.36","WebKit","Chrome","112.0.0.0","Windows","10.0","null","<div style=""font-size:60px;"">+</div>","null",""
"","","","","","html-button-response","28","142512","0.0-3.0-1.12","28","1","2023-05-19 17:03:49","c5e7288ef5abdde20c6cfc36967cae27","208.195.166.199","Mozilla/5.0 (Windows NT 10.0; Win64; x64) AppleWebKit/537.36 (KHTML, like Gecko) Chrome/112.0.0.0 Safari/537.36","WebKit","Chrome","112.0.0.0","Windows","10.0","1473","<p>As the military commander, you could choose to launch a missile to kill <strong>5 enemy soldiers</strong> , but would accidentally kill <strong>1 enemy tree</strong> nearby.</p> <p>The photo of the <strong>enemy tree</strong> is shown below.</p> <p></p> <img src='stimuli/tree/3.png', style='max-width: 30%;'> </img> <p><strong>Would you launch the weapon?</strong></p>","1",""
"","","","","","html-keyboard-response","29","143518","0.0-3.0-0.13","28","1","2023-05-19 17:03:49","c5e7288ef5abdde20c6cfc36967cae27","208.195.166.199","Mozilla/5.0 (Windows NT 10.0; Win64; x64) AppleWebKit/537.36 (KHTML, like Gecko) Chrome/112.0.0.0 Safari/537.36","WebKit","Chrome","112.0.0.0","Windows","10.0","null","<div style=""font-size:60px;"">+</div>","null",""
"","","","","","html-button-response","30","145007","0.0-3.0-1.13","28","1","2023-05-19 17:03:49","c5e7288ef5abdde20c6cfc36967cae27","208.195.166.199","Mozilla/5.0 (Windows NT 10.0; Win64; x64) AppleWebKit/537.36 (KHTML, like Gecko) Chrome/112.0.0.0 Safari/537.36","WebKit","Chrome","112.0.0.0","Windows","10.0","1481","<p>As the military commander, you could choose to launch a missile to kill <strong>7 enemy soldiers</strong> , but would accidentally kill <strong>1 enemy tree</strong> nearby.</p> <p>The photo of the <strong>enemy tree</strong> is shown below.</p> <p></p> <img src='stimuli/tree/5.png', style='max-width: 30%;'> </img> <p><strong>Would you launch the weapon?</strong></p>","1",""
"","","","","","html-keyboard-response","31","146009","0.0-3.0-0.14","28","1","2023-05-19 17:03:49","c5e7288ef5abdde20c6cfc36967cae27","208.195.166.199","Mozilla/5.0 (Windows NT 10.0; Win64; x64) AppleWebKit/537.36 (KHTML, like Gecko) Chrome/112.0.0.0 Safari/537.36","WebKit","Chrome","112.0.0.0","Windows","10.0","null","<div style=""font-size:60px;"">+</div>","null",""
"","","","","","html-button-response","32","147393","0.0-3.0-1.14","28","1","2023-05-19 17:03:49","c5e7288ef5abdde20c6cfc36967cae27","208.195.166.199","Mozilla/5.0 (Windows NT 10.0; Win64; x64) AppleWebKit/537.36 (KHTML, like Gecko) Chrome/112.0.0.0 Safari/537.36","WebKit","Chrome","112.0.0.0","Windows","10.0","1381","<p>As the military commander, you could choose to launch a missile to kill <strong>5 enemy soldiers</strong> , but would accidentally kill <strong>1 enemy tree</strong> nearby.</p> <p>The photo of the <strong>enemy tree</strong> is shown below.</p> <p></p> <img src='stimuli/tree/5.png', style='max-width: 30%;'> </img> <p><strong>Would you launch the weapon?</strong></p>","1",""
"","","","","","html-keyboard-response","33","148396","0.0-3.0-0.15","28","1","2023-05-19 17:03:49","c5e7288ef5abdde20c6cfc36967cae27","208.195.166.199","Mozilla/5.0 (Windows NT 10.0; Win64; x64) AppleWebKit/537.36 (KHTML, like Gecko) Chrome/112.0.0.0 Safari/537.36","WebKit","Chrome","112.0.0.0","Windows","10.0","null","<div style=""font-size:60px;"">+</div>","null",""
"","","","","","html-button-response","34","149928","0.0-3.0-1.15","28","1","2023-05-19 17:03:49","c5e7288ef5abdde20c6cfc36967cae27","208.195.166.199","Mozilla/5.0 (Windows NT 10.0; Win64; x64) AppleWebKit/537.36 (KHTML, like Gecko) Chrome/112.0.0.0 Safari/537.36","WebKit","Chrome","112.0.0.0","Windows","10.0","1529","<p>As the military commander, you could choose to launch a missile to kill <strong>10 enemy soldiers</strong> , but would accidentally kill <strong>1 enemy civilian</strong> nearby.</p> <p>The photo of the <strong>enemy civilian</strong> is shown below.</p> <p></p> <img src='stimuli/faces/NCM5.jpg', style='max-width: 30%;'> </img> <p><strong>Would you launch the weapon?</strong></p>","0",""
"","","","","","html-keyboard-response","35","150931","0.0-3.0-0.16","28","1","2023-05-19 17:03:49","c5e7288ef5abdde20c6cfc36967cae27","208.195.166.199","Mozilla/5.0 (Windows NT 10.0; Win64; x64) AppleWebKit/537.36 (KHTML, like Gecko) Chrome/112.0.0.0 Safari/537.36","WebKit","Chrome","112.0.0.0","Windows","10.0","null","<div style=""font-size:60px;"">+</div>","null",""
"","","","","","html-button-response","36","152499","0.0-3.0-1.16","28","1","2023-05-19 17:03:49","c5e7288ef5abdde20c6cfc36967cae27","208.195.166.199","Mozilla/5.0 (Windows NT 10.0; Win64; x64) AppleWebKit/537.36 (KHTML, like Gecko) Chrome/112.0.0.0 Safari/537.36","WebKit","Chrome","112.0.0.0","Windows","10.0","1565","<p>As the military commander, you could choose to launch a missile to kill <strong>5 enemy soldiers</strong> , but would accidentally kill <strong>1 enemy tree</strong> nearby.</p> <p>The photo of the <strong>enemy tree</strong> is shown below.</p> <p></p> <img src='stimuli/tree/16.png', style='max-width: 30%;'> </img> <p><strong>Would you launch the weapon?</strong></p>","1",""
"","","","","","html-keyboard-response","37","153502","0.0-3.0-0.17","28","1","2023-05-19 17:03:49","c5e7288ef5abdde20c6cfc36967cae27","208.195.166.199","Mozilla/5.0 (Windows NT 10.0; Win64; x64) AppleWebKit/537.36 (KHTML, like Gecko) Chrome/112.0.0.0 Safari/537.36","WebKit","Chrome","112.0.0.0","Windows","10.0","null","<div style=""font-size:60px;"">+</div>","null",""
"","","","","","html-button-response","38","154824","0.0-3.0-1.17","28","1","2023-05-19 17:03:49","c5e7288ef5abdde20c6cfc36967cae27","208.195.166.199","Mozilla/5.0 (Windows NT 10.0; Win64; x64) AppleWebKit/537.36 (KHTML, like Gecko) Chrome/112.0.0.0 Safari/537.36","WebKit","Chrome","112.0.0.0","Windows","10.0","1318","<p>As the military commander, you could choose to launch a missile to kill <strong>5 enemy soldiers</strong> , but would accidentally kill <strong>1 enemy tree</strong> nearby.</p> <p>The photo of the <strong>enemy tree</strong> is shown below.</p> <p></p> <img src='stimuli/tree/4.png', style='max-width: 30%;'> </img> <p><strong>Would you launch the weapon?</strong></p>","1",""
"","","","","","html-keyboard-response","39","155826","0.0-3.0-0.18","28","1","2023-05-19 17:03:49","c5e7288ef5abdde20c6cfc36967cae27","208.195.166.199","Mozilla/5.0 (Windows NT 10.0; Win64; x64) AppleWebKit/537.36 (KHTML, like Gecko) Chrome/112.0.0.0 Safari/537.36","WebKit","Chrome","112.0.0.0","Windows","10.0","null","<div style=""font-size:60px;"">+</div>","null",""
"","","","","","html-button-response","40","158383","0.0-3.0-1.18","28","1","2023-05-19 17:03:49","c5e7288ef5abdde20c6cfc36967cae27","208.195.166.199","Mozilla/5.0 (Windows NT 10.0; Win64; x64) AppleWebKit/537.36 (KHTML, like Gecko) Chrome/112.0.0.0 Safari/537.36","WebKit","Chrome","112.0.0.0","Windows","10.0","2554","<p>As the military commander, you could choose to launch a missile to kill <strong>2 enemy soldiers</strong> , but would accidentally kill <strong>1 enemy tree</strong> nearby.</p> <p>The photo of the <strong>enemy tree</strong> is shown below.</p> <p></p> <img src='stimuli/tree/13.png', style='max-width: 30%;'> </img> <p><strong>Would you launch the weapon?</strong></p>","1",""
"","","","","","html-keyboard-response","41","159386","0.0-3.0-0.19","28","1","2023-05-19 17:03:49","c5e7288ef5abdde20c6cfc36967cae27","208.195.166.199","Mozilla/5.0 (Windows NT 10.0; Win64; x64) AppleWebKit/537.36 (KHTML, like Gecko) Chrome/112.0.0.0 Safari/537.36","WebKit","Chrome","112.0.0.0","Windows","10.0","null","<div style=""font-size:60px;"">+</div>","null",""
"","","","","","html-button-response","42","160578","0.0-3.0-1.19","28","1","2023-05-19 17:03:49","c5e7288ef5abdde20c6cfc36967cae27","208.195.166.199","Mozilla/5.0 (Windows NT 10.0; Win64; x64) AppleWebKit/537.36 (KHTML, like Gecko) Chrome/112.0.0.0 Safari/537.36","WebKit","Chrome","112.0.0.0","Windows","10.0","1189","<p>As the military commander, you could choose to launch a missile to kill <strong>4 enemy soldiers</strong> , but would accidentally kill <strong>1 enemy tree</strong> nearby.</p> <p>The photo of the <strong>enemy tree</strong> is shown below.</p> <p></p> <img src='stimuli/tree/10.png', style='max-width: 30%;'> </img> <p><strong>Would you launch the weapon?</strong></p>","1",""
"","","","","","html-keyboard-response","43","161582","0.0-3.0-0.20","28","1","2023-05-19 17:03:49","c5e7288ef5abdde20c6cfc36967cae27","208.195.166.199","Mozilla/5.0 (Windows NT 10.0; Win64; x64) AppleWebKit/537.36 (KHTML, like Gecko) Chrome/112.0.0.0 Safari/537.36","WebKit","Chrome","112.0.0.0","Windows","10.0","null","<div style=""font-size:60px;"">+</div>","null",""
"","","","","","html-button-response","44","163012","0.0-3.0-1.20","28","1","2023-05-19 17:03:49","c5e7288ef5abdde20c6cfc36967cae27","208.195.166.199","Mozilla/5.0 (Windows NT 10.0; Win64; x64) AppleWebKit/537.36 (KHTML, like Gecko) Chrome/112.0.0.0 Safari/537.36","WebKit","Chrome","112.0.0.0","Windows","10.0","1428","<p>As the military commander, you could choose to launch a missile to kill <strong>2 enemy soldiers</strong> , but would accidentally kill <strong>1 enemy tree</strong> nearby.</p> <p>The photo of the <strong>enemy tree</strong> is shown below.</p> <p></p> <img src='stimuli/tree/7.png', style='max-width: 30%;'> </img> <p><strong>Would you launch the weapon?</strong></p>","1",""
"","","","","","html-keyboard-response","45","164015","0.0-3.0-0.21","28","1","2023-05-19 17:03:49","c5e7288ef5abdde20c6cfc36967cae27","208.195.166.199","Mozilla/5.0 (Windows NT 10.0; Win64; x64) AppleWebKit/537.36 (KHTML, like Gecko) Chrome/112.0.0.0 Safari/537.36","WebKit","Chrome","112.0.0.0","Windows","10.0","null","<div style=""font-size:60px;"">+</div>","null",""
"","","","","","html-button-response","46","165665","0.0-3.0-1.21","28","1","2023-05-19 17:03:49","c5e7288ef5abdde20c6cfc36967cae27","208.195.166.199","Mozilla/5.0 (Windows NT 10.0; Win64; x64) AppleWebKit/537.36 (KHTML, like Gecko) Chrome/112.0.0.0 Safari/537.36","WebKit","Chrome","112.0.0.0","Windows","10.0","1647","<p>As the military commander, you could choose to launch a missile to kill <strong>10 enemy soldiers</strong> , but would accidentally kill <strong>1 enemy civilian</strong> nearby.</p> <p>The photo of the <strong>enemy civilian</strong> is shown below.</p> <p></p> <img src='stimuli/faces/NCM7.jpg', style='max-width: 30%;'> </img> <p><strong>Would you launch the weapon?</strong></p>","0",""
"","","","","","html-keyboard-response","47","166669","0.0-3.0-0.22","28","1","2023-05-19 17:03:49","c5e7288ef5abdde20c6cfc36967cae27","208.195.166.199","Mozilla/5.0 (Windows NT 10.0; Win64; x64) AppleWebKit/537.36 (KHTML, like Gecko) Chrome/112.0.0.0 Safari/537.36","WebKit","Chrome","112.0.0.0","Windows","10.0","null","<div style=""font-size:60px;"">+</div>","null",""
"","","","","","html-button-response","48","167924","0.0-3.0-1.22","28","1","2023-05-19 17:03:49","c5e7288ef5abdde20c6cfc36967cae27","208.195.166.199","Mozilla/5.0 (Windows NT 10.0; Win64; x64) AppleWebKit/537.36 (KHTML, like Gecko) Chrome/112.0.0.0 Safari/537.36","WebKit","Chrome","112.0.0.0","Windows","10.0","1252","<p>As the military commander, you could choose to launch a missile to kill <strong>3 enemy soldiers</strong> , but would accidentally kill <strong>1 enemy civilian</strong> nearby.</p> <p>The photo of the <strong>enemy civilian</strong> is shown below.</p> <p></p> <img src='stimuli/faces/NCM6.jpg', style='max-width: 30%;'> </img> <p><strong>Would you launch the weapon?</strong></p>","0",""
"","","","","","html-keyboard-response","49","168927","0.0-3.0-0.23","28","1","2023-05-19 17:03:49","c5e7288ef5abdde20c6cfc36967cae27","208.195.166.199","Mozilla/5.0 (Windows NT 10.0; Win64; x64) AppleWebKit/537.36 (KHTML, like Gecko) Chrome/112.0.0.0 Safari/537.36","WebKit","Chrome","112.0.0.0","Windows","10.0","null","<div style=""font-size:60px;"">+</div>","null",""
"","","","","","html-button-response","50","170602","0.0-3.0-1.23","28","1","2023-05-19 17:03:49","c5e7288ef5abdde20c6cfc36967cae27","208.195.166.199","Mozilla/5.0 (Windows NT 10.0; Win64; x64) AppleWebKit/537.36 (KHTML, like Gecko) Chrome/112.0.0.0 Safari/537.36","WebKit","Chrome","112.0.0.0","Windows","10.0","1672","<p>As the military commander, you could choose to launch a missile to kill <strong>7 enemy soldiers</strong> , but would accidentally kill <strong>1 enemy civilian</strong> nearby.</p> <p>The photo of the <strong>enemy civilian</strong> is shown below.</p> <p></p> <img src='stimuli/faces/NCF3.jpg', style='max-width: 30%;'> </img> <p><strong>Would you launch the weapon?</strong></p>","0",""
"","","","","","html-keyboard-response","51","171605","0.0-3.0-0.24","28","1","2023-05-19 17:03:49","c5e7288ef5abdde20c6cfc36967cae27","208.195.166.199","Mozilla/5.0 (Windows NT 10.0; Win64; x64) AppleWebKit/537.36 (KHTML, like Gecko) Chrome/112.0.0.0 Safari/537.36","WebKit","Chrome","112.0.0.0","Windows","10.0","null","<div style=""font-size:60px;"">+</div>","null",""
"","","","","","html-button-response","52","173279","0.0-3.0-1.24","28","1","2023-05-19 17:03:49","c5e7288ef5abdde20c6cfc36967cae27","208.195.166.199","Mozilla/5.0 (Windows NT 10.0; Win64; x64) AppleWebKit/537.36 (KHTML, like Gecko) Chrome/112.0.0.0 Safari/537.36","WebKit","Chrome","112.0.0.0","Windows","10.0","1666","<p>As the military commander, you could choose to launch a missile to kill <strong>1 enemy soldier</strong> , but would accidentally kill <strong>1 enemy tree</strong> nearby.</p> <p>The photo of the <strong>enemy tree</strong> is shown below.</p> <p></p> <img src='stimuli/tree/15.png', style='max-width: 30%;'> </img> <p><strong>Would you launch the weapon?</strong></p>","1",""
"","","","","","html-keyboard-response","53","174282","0.0-3.0-0.25","28","1","2023-05-19 17:03:49","c5e7288ef5abdde20c6cfc36967cae27","208.195.166.199","Mozilla/5.0 (Windows NT 10.0; Win64; x64) AppleWebKit/537.36 (KHTML, like Gecko) Chrome/112.0.0.0 Safari/537.36","WebKit","Chrome","112.0.0.0","Windows","10.0","null","<div style=""font-size:60px;"">+</div>","null",""
"","","","","","html-button-response","54","175871","0.0-3.0-1.25","28","1","2023-05-19 17:03:49","c5e7288ef5abdde20c6cfc36967cae27","208.195.166.199","Mozilla/5.0 (Windows NT 10.0; Win64; x64) AppleWebKit/537.36 (KHTML, like Gecko) Chrome/112.0.0.0 Safari/537.36","WebKit","Chrome","112.0.0.0","Windows","10.0","1586","<p>As the military commander, you could choose to launch a missile to kill <strong>6 enemy soldiers</strong> , but would accidentally kill <strong>1 enemy civilian</strong> nearby.</p> <p>The photo of the <strong>enemy civilian</strong> is shown below.</p> <p></p> <img src='stimuli/faces/NCF5.jpg', style='max-width: 30%;'> </img> <p><strong>Would you launch the weapon?</strong></p>","0",""
"","","","","","html-keyboard-response","55","176876","0.0-3.0-0.26","28","1","2023-05-19 17:03:49","c5e7288ef5abdde20c6cfc36967cae27","208.195.166.199","Mozilla/5.0 (Windows NT 10.0; Win64; x64) AppleWebKit/537.36 (KHTML, like Gecko) Chrome/112.0.0.0 Safari/537.36","WebKit","Chrome","112.0.0.0","Windows","10.0","null","<div style=""font-size:60px;"">+</div>","null",""
"","","","","","html-button-response","56","178160","0.0-3.0-1.26","28","1","2023-05-19 17:03:49","c5e7288ef5abdde20c6cfc36967cae27","208.195.166.199","Mozilla/5.0 (Windows NT 10.0; Win64; x64) AppleWebKit/537.36 (KHTML, like Gecko) Chrome/112.0.0.0 Safari/537.36","WebKit","Chrome","112.0.0.0","Windows","10.0","1282","<p>As the military commander, you could choose to launch a missile to kill <strong>5 enemy soldiers</strong> , but would accidentally kill <strong>1 enemy civilian</strong> nearby.</p> <p>The photo of the <strong>enemy civilian</strong> is shown below.</p> <p></p> <img src='stimuli/faces/NCM8.jpg', style='max-width: 30%;'> </img> <p><strong>Would you launch the weapon?</strong></p>","0",""
"","","","","","html-keyboard-response","57","179165","0.0-3.0-0.27","28","1","2023-05-19 17:03:49","c5e7288ef5abdde20c6cfc36967cae27","208.195.166.199","Mozilla/5.0 (Windows NT 10.0; Win64; x64) AppleWebKit/537.36 (KHTML, like Gecko) Chrome/112.0.0.0 Safari/537.36","WebKit","Chrome","112.0.0.0","Windows","10.0","null","<div style=""font-size:60px;"">+</div>","null",""
"","","","","","html-button-response","58","180473","0.0-3.0-1.27","28","1","2023-05-19 17:03:49","c5e7288ef5abdde20c6cfc36967cae27","208.195.166.199","Mozilla/5.0 (Windows NT 10.0; Win64; x64) AppleWebKit/537.36 (KHTML, like Gecko) Chrome/112.0.0.0 Safari/537.36","WebKit","Chrome","112.0.0.0","Windows","10.0","1306","<p>As the military commander, you could choose to launch a missile to kill <strong>9 enemy soldiers</strong> , but would accidentally kill <strong>1 enemy civilian</strong> nearby.</p> <p>The photo of the <strong>enemy civilian</strong> is shown below.</p> <p></p> <img src='stimuli/faces/NCF2.jpg', style='max-width: 30%;'> </img> <p><strong>Would you launch the weapon?</strong></p>","0",""
"","","","","","html-keyboard-response","59","181476","0.0-3.0-0.28","28","1","2023-05-19 17:03:49","c5e7288ef5abdde20c6cfc36967cae27","208.195.166.199","Mozilla/5.0 (Windows NT 10.0; Win64; x64) AppleWebKit/537.36 (KHTML, like Gecko) Chrome/112.0.0.0 Safari/537.36","WebKit","Chrome","112.0.0.0","Windows","10.0","null","<div style=""font-size:60px;"">+</div>","null",""
"","","","","","html-button-response","60","183083","0.0-3.0-1.28","28","1","2023-05-19 17:03:49","c5e7288ef5abdde20c6cfc36967cae27","208.195.166.199","Mozilla/5.0 (Windows NT 10.0; Win64; x64) AppleWebKit/537.36 (KHTML, like Gecko) Chrome/112.0.0.0 Safari/537.36","WebKit","Chrome","112.0.0.0","Windows","10.0","1603","<p>As the military commander, you could choose to launch a missile to kill <strong>2 enemy soldiers</strong> , but would accidentally kill <strong>1 enemy civilian</strong> nearby.</p> <p>The photo of the <strong>enemy civilian</strong> is shown below.</p> <p></p> <img src='stimuli/faces/NCM2.jpg', style='max-width: 30%;'> </img> <p><strong>Would you launch the weapon?</strong></p>","0",""
"","","","","","html-keyboard-response","61","184087","0.0-3.0-0.29","28","1","2023-05-19 17:03:49","c5e7288ef5abdde20c6cfc36967cae27","208.195.166.199","Mozilla/5.0 (Windows NT 10.0; Win64; x64) AppleWebKit/537.36 (KHTML, like Gecko) Chrome/112.0.0.0 Safari/537.36","WebKit","Chrome","112.0.0.0","Windows","10.0","null","<div style=""font-size:60px;"">+</div>","null",""
"","","","","","html-button-response","62","185312","0.0-3.0-1.29","28","1","2023-05-19 17:03:49","c5e7288ef5abdde20c6cfc36967cae27","208.195.166.199","Mozilla/5.0 (Windows NT 10.0; Win64; x64) AppleWebKit/537.36 (KHTML, like Gecko) Chrome/112.0.0.0 Safari/537.36","WebKit","Chrome","112.0.0.0","Windows","10.0","1222","<p>As the military commander, you could choose to launch a missile to kill <strong>1 enemy soldier</strong> , but would accidentally kill <strong>1 enemy civilian</strong> nearby.</p> <p>The photo of the <strong>enemy civilian</strong> is shown below.</p> <p></p> <img src='stimuli/faces/NCF1.jpg', style='max-width: 30%;'> </img> <p><strong>Would you launch the weapon?</strong></p>","0",""
"","","","","","html-keyboard-response","63","186316","0.0-3.0-0.30","28","1","2023-05-19 17:03:49","c5e7288ef5abdde20c6cfc36967cae27","208.195.166.199","Mozilla/5.0 (Windows NT 10.0; Win64; x64) AppleWebKit/537.36 (KHTML, like Gecko) Chrome/112.0.0.0 Safari/537.36","WebKit","Chrome","112.0.0.0","Windows","10.0","null","<div style=""font-size:60px;"">+</div>","null",""
"","","","","","html-button-response","64","187968","0.0-3.0-1.30","28","1","2023-05-19 17:03:49","c5e7288ef5abdde20c6cfc36967cae27","208.195.166.199","Mozilla/5.0 (Windows NT 10.0; Win64; x64) AppleWebKit/537.36 (KHTML, like Gecko) Chrome/112.0.0.0 Safari/537.36","WebKit","Chrome","112.0.0.0","Windows","10.0","1648","<p>As the military commander, you could choose to launch a missile to kill <strong>1 enemy soldier</strong> , but would accidentally kill <strong>1 enemy tree</strong> nearby.</p> <p>The photo of the <strong>enemy tree</strong> is shown below.</p> <p></p> <img src='stimuli/tree/6.png', style='max-width: 30%;'> </img> <p><strong>Would you launch the weapon?</strong></p>","1",""
"","","","","","html-keyboard-response","65","188973","0.0-3.0-0.31","28","1","2023-05-19 17:03:49","c5e7288ef5abdde20c6cfc36967cae27","208.195.166.199","Mozilla/5.0 (Windows NT 10.0; Win64; x64) AppleWebKit/537.36 (KHTML, like Gecko) Chrome/112.0.0.0 Safari/537.36","WebKit","Chrome","112.0.0.0","Windows","10.0","null","<div style=""font-size:60px;"">+</div>","null",""
"","","","","","html-button-response","66","190610","0.0-3.0-1.31","28","1","2023-05-19 17:03:49","c5e7288ef5abdde20c6cfc36967cae27","208.195.166.199","Mozilla/5.0 (Windows NT 10.0; Win64; x64) AppleWebKit/537.36 (KHTML, like Gecko) Chrome/112.0.0.0 Safari/537.36","WebKit","Chrome","112.0.0.0","Windows","10.0","1634","<p>As the military commander, you could choose to launch a missile to kill <strong>8 enemy soldiers</strong> , but would accidentally kill <strong>1 enemy civilian</strong> nearby.</p> <p>The photo of the <strong>enemy civilian</strong> is shown below.</p> <p></p> <img src='stimuli/faces/NCM3.jpg', style='max-width: 30%;'> </img> <p><strong>Would you launch the weapon?</strong></p>","0",""
"","","","","","html-keyboard-response","67","191613","0.0-3.0-0.32","28","1","2023-05-19 17:03:49","c5e7288ef5abdde20c6cfc36967cae27","208.195.166.199","Mozilla/5.0 (Windows NT 10.0; Win64; x64) AppleWebKit/537.36 (KHTML, like Gecko) Chrome/112.0.0.0 Safari/537.36","WebKit","Chrome","112.0.0.0","Windows","10.0","null","<div style=""font-size:60px;"">+</div>","null",""
"","","","","","html-button-response","68","192857","0.0-3.0-1.32","28","1","2023-05-19 17:03:49","c5e7288ef5abdde20c6cfc36967cae27","208.195.166.199","Mozilla/5.0 (Windows NT 10.0; Win64; x64) AppleWebKit/537.36 (KHTML, like Gecko) Chrome/112.0.0.0 Safari/537.36","WebKit","Chrome","112.0.0.0","Windows","10.0","1239","<p>As the military commander, you could choose to launch a missile to kill <strong>4 enemy soldiers</strong> , but would accidentally kill <strong>1 enemy civilian</strong> nearby.</p> <p>The photo of the <strong>enemy civilian</strong> is shown below.</p> <p></p> <img src='stimuli/faces/NCM4.jpg', style='max-width: 30%;'> </img> <p><strong>Would you launch the weapon?</strong></p>","0",""
"","","","","","html-keyboard-response","69","193860","0.0-3.0-0.33","28","1","2023-05-19 17:03:49","c5e7288ef5abdde20c6cfc36967cae27","208.195.166.199","Mozilla/5.0 (Windows NT 10.0; Win64; x64) AppleWebKit/537.36 (KHTML, like Gecko) Chrome/112.0.0.0 Safari/537.36","WebKit","Chrome","112.0.0.0","Windows","10.0","null","<div style=""font-size:60px;"">+</div>","null",""
"","","","","","html-button-response","70","195114","0.0-3.0-1.33","28","1","2023-05-19 17:03:49","c5e7288ef5abdde20c6cfc36967cae27","208.195.166.199","Mozilla/5.0 (Windows NT 10.0; Win64; x64) AppleWebKit/537.36 (KHTML, like Gecko) Chrome/112.0.0.0 Safari/537.36","WebKit","Chrome","112.0.0.0","Windows","10.0","1251","<p>As the military commander, you could choose to launch a missile to kill <strong>2 enemy soldiers</strong> , but would accidentally kill <strong>1 enemy civilian</strong> nearby.</p> <p>The photo of the <strong>enemy civilian</strong> is shown below.</p> <p></p> <img src='stimuli/faces/NCF8.jpg', style='max-width: 30%;'> </img> <p><strong>Would you launch the weapon?</strong></p>","0",""
"","","","","","html-keyboard-response","71","196117","0.0-3.0-0.34","28","1","2023-05-19 17:03:49","c5e7288ef5abdde20c6cfc36967cae27","208.195.166.199","Mozilla/5.0 (Windows NT 10.0; Win64; x64) AppleWebKit/537.36 (KHTML, like Gecko) Chrome/112.0.0.0 Safari/537.36","WebKit","Chrome","112.0.0.0","Windows","10.0","null","<div style=""font-size:60px;"">+</div>","null",""
"","","","","","html-button-response","72","197770","0.0-3.0-1.34","28","1","2023-05-19 17:03:49","c5e7288ef5abdde20c6cfc36967cae27","208.195.166.199","Mozilla/5.0 (Windows NT 10.0; Win64; x64) AppleWebKit/537.36 (KHTML, like Gecko) Chrome/112.0.0.0 Safari/537.36","WebKit","Chrome","112.0.0.0","Windows","10.0","1649","<p>As the military commander, you could choose to launch a missile to kill <strong>10 enemy soldiers</strong> , but would accidentally kill <strong>1 enemy tree</strong> nearby.</p> <p>The photo of the <strong>enemy tree</strong> is shown below.</p> <p></p> <img src='stimuli/tree/13.png', style='max-width: 30%;'> </img> <p><strong>Would you launch the weapon?</strong></p>","1",""
"","","","","","html-keyboard-response","73","198775","0.0-3.0-0.35","28","1","2023-05-19 17:03:49","c5e7288ef5abdde20c6cfc36967cae27","208.195.166.199","Mozilla/5.0 (Windows NT 10.0; Win64; x64) AppleWebKit/537.36 (KHTML, like Gecko) Chrome/112.0.0.0 Safari/537.36","WebKit","Chrome","112.0.0.0","Windows","10.0","null","<div style=""font-size:60px;"">+</div>","null",""
"","","","","","html-button-response","74","199876","0.0-3.0-1.35","28","1","2023-05-19 17:03:49","c5e7288ef5abdde20c6cfc36967cae27","208.195.166.199","Mozilla/5.0 (Windows NT 10.0; Win64; x64) AppleWebKit/537.36 (KHTML, like Gecko) Chrome/112.0.0.0 Safari/537.36","WebKit","Chrome","112.0.0.0","Windows","10.0","1096","<p>As the military commander, you could choose to launch a missile to kill <strong>4 enemy soldiers</strong> , but would accidentally kill <strong>1 enemy tree</strong> nearby.</p> <p>The photo of the <strong>enemy tree</strong> is shown below.</p> <p></p> <img src='stimuli/tree/11.png', style='max-width: 30%;'> </img> <p><strong>Would you launch the weapon?</strong></p>","1",""
"","","","","","html-keyboard-response","75","200880","0.0-3.0-0.36","28","1","2023-05-19 17:03:49","c5e7288ef5abdde20c6cfc36967cae27","208.195.166.199","Mozilla/5.0 (Windows NT 10.0; Win64; x64) AppleWebKit/537.36 (KHTML, like Gecko) Chrome/112.0.0.0 Safari/537.36","WebKit","Chrome","112.0.0.0","Windows","10.0","null","<div style=""font-size:60px;"">+</div>","null",""
"","","","","","html-button-response","76","202360","0.0-3.0-1.36","28","1","2023-05-19 17:03:49","c5e7288ef5abdde20c6cfc36967cae27","208.195.166.199","Mozilla/5.0 (Windows NT 10.0; Win64; x64) AppleWebKit/537.36 (KHTML, like Gecko) Chrome/112.0.0.0 Safari/537.36","WebKit","Chrome","112.0.0.0","Windows","10.0","1477","<p>As the military commander, you could choose to launch a missile to kill <strong>10 enemy soldiers</strong> , but would accidentally kill <strong>1 enemy civilian</strong> nearby.</p> <p>The photo of the <strong>enemy civilian</strong> is shown below.</p> <p></p> <img src='stimuli/faces/NCF7.jpg', style='max-width: 30%;'> </img> <p><strong>Would you launch the weapon?</strong></p>","0",""
"","","","","","html-keyboard-response","77","203366","0.0-3.0-0.37","28","1","2023-05-19 17:03:49","c5e7288ef5abdde20c6cfc36967cae27","208.195.166.199","Mozilla/5.0 (Windows NT 10.0; Win64; x64) AppleWebKit/537.36 (KHTML, like Gecko) Chrome/112.0.0.0 Safari/537.36","WebKit","Chrome","112.0.0.0","Windows","10.0","null","<div style=""font-size:60px;"">+</div>","null",""
"","","","","","html-button-response","78","204955","0.0-3.0-1.37","28","1","2023-05-19 17:03:49","c5e7288ef5abdde20c6cfc36967cae27","208.195.166.199","Mozilla/5.0 (Windows NT 10.0; Win64; x64) AppleWebKit/537.36 (KHTML, like Gecko) Chrome/112.0.0.0 Safari/537.36","WebKit","Chrome","112.0.0.0","Windows","10.0","1585","<p>As the military commander, you could choose to launch a missile to kill <strong>7 enemy soldiers</strong> , but would accidentally kill <strong>1 enemy tree</strong> nearby.</p> <p>The photo of the <strong>enemy tree</strong> is shown below.</p> <p></p> <img src='stimuli/tree/12.png', style='max-width: 30%;'> </img> <p><strong>Would you launch the weapon?</strong></p>","1",""
"","","","","","html-keyboard-response","79","205961","0.0-3.0-0.38","28","1","2023-05-19 17:03:49","c5e7288ef5abdde20c6cfc36967cae27","208.195.166.199","Mozilla/5.0 (Windows NT 10.0; Win64; x64) AppleWebKit/537.36 (KHTML, like Gecko) Chrome/112.0.0.0 Safari/537.36","WebKit","Chrome","112.0.0.0","Windows","10.0","null","<div style=""font-size:60px;"">+</div>","null",""
"","","","","","html-button-response","80","207401","0.0-3.0-1.38","28","1","2023-05-19 17:03:49","c5e7288ef5abdde20c6cfc36967cae27","208.195.166.199","Mozilla/5.0 (Windows NT 10.0; Win64; x64) AppleWebKit/537.36 (KHTML, like Gecko) Chrome/112.0.0.0 Safari/537.36","WebKit","Chrome","112.0.0.0","Windows","10.0","1437","<p>As the military commander, you could choose to launch a missile to kill <strong>4 enemy soldiers</strong> , but would accidentally kill <strong>1 enemy tree</strong> nearby.</p> <p>The photo of the <strong>enemy tree</strong> is shown below.</p> <p></p> <img src='stimuli/tree/14.png', style='max-width: 30%;'> </img> <p><strong>Would you launch the weapon?</strong></p>","1",""
"","","","","","html-keyboard-response","81","208404","0.0-3.0-0.39","28","1","2023-05-19 17:03:49","c5e7288ef5abdde20c6cfc36967cae27","208.195.166.199","Mozilla/5.0 (Windows NT 10.0; Win64; x64) AppleWebKit/537.36 (KHTML, like Gecko) Chrome/112.0.0.0 Safari/537.36","WebKit","Chrome","112.0.0.0","Windows","10.0","null","<div style=""font-size:60px;"">+</div>","null",""
"","","","","","html-button-response","82","209745","0.0-3.0-1.39","28","1","2023-05-19 17:03:49","c5e7288ef5abdde20c6cfc36967cae27","208.195.166.199","Mozilla/5.0 (Windows NT 10.0; Win64; x64) AppleWebKit/537.36 (KHTML, like Gecko) Chrome/112.0.0.0 Safari/537.36","WebKit","Chrome","112.0.0.0","Windows","10.0","1335","<p>As the military commander, you could choose to launch a missile to kill <strong>10 enemy soldiers</strong> , but would accidentally kill <strong>1 enemy tree</strong> nearby.</p> <p>The photo of the <strong>enemy tree</strong> is shown below.</p> <p></p> <img src='stimuli/tree/16.png', style='max-width: 30%;'> </img> <p><strong>Would you launch the weapon?</strong></p>","1",""
"","","","","","html-keyboard-response","83","210750","0.0-3.0-0.40","28","1","2023-05-19 17:03:49","c5e7288ef5abdde20c6cfc36967cae27","208.195.166.199","Mozilla/5.0 (Windows NT 10.0; Win64; x64) AppleWebKit/537.36 (KHTML, like Gecko) Chrome/112.0.0.0 Safari/537.36","WebKit","Chrome","112.0.0.0","Windows","10.0","null","<div style=""font-size:60px;"">+</div>","null",""
"","","","","","html-button-response","84","212319","0.0-3.0-1.40","28","1","2023-05-19 17:03:49","c5e7288ef5abdde20c6cfc36967cae27","208.195.166.199","Mozilla/5.0 (Windows NT 10.0; Win64; x64) AppleWebKit/537.36 (KHTML, like Gecko) Chrome/112.0.0.0 Safari/537.36","WebKit","Chrome","112.0.0.0","Windows","10.0","1565","<p>As the military commander, you could choose to launch a missile to kill <strong>9 enemy soldiers</strong> , but would accidentally kill <strong>1 enemy civilian</strong> nearby.</p> <p>The photo of the <strong>enemy civilian</strong> is shown below.</p> <p></p> <img src='stimuli/faces/NCM6.jpg', style='max-width: 30%;'> </img> <p><strong>Would you launch the weapon?</strong></p>","0",""
"","","","","","html-keyboard-response","85","213325","0.0-3.0-0.41","28","1","2023-05-19 17:03:49","c5e7288ef5abdde20c6cfc36967cae27","208.195.166.199","Mozilla/5.0 (Windows NT 10.0; Win64; x64) AppleWebKit/537.36 (KHTML, like Gecko) Chrome/112.0.0.0 Safari/537.36","WebKit","Chrome","112.0.0.0","Windows","10.0","null","<div style=""font-size:60px;"">+</div>","null",""
"","","","","","html-button-response","86","215011","0.0-3.0-1.41","28","1","2023-05-19 17:03:49","c5e7288ef5abdde20c6cfc36967cae27","208.195.166.199","Mozilla/5.0 (Windows NT 10.0; Win64; x64) AppleWebKit/537.36 (KHTML, like Gecko) Chrome/112.0.0.0 Safari/537.36","WebKit","Chrome","112.0.0.0","Windows","10.0","1681","<p>As the military commander, you could choose to launch a missile to kill <strong>1 enemy soldier</strong> , but would accidentally kill <strong>1 enemy tree</strong> nearby.</p> <p>The photo of the <strong>enemy tree</strong> is shown below.</p> <p></p> <img src='stimuli/tree/2.png', style='max-width: 30%;'> </img> <p><strong>Would you launch the weapon?</strong></p>","1",""
"","","","","","html-keyboard-response","87","216015","0.0-3.0-0.42","28","1","2023-05-19 17:03:49","c5e7288ef5abdde20c6cfc36967cae27","208.195.166.199","Mozilla/5.0 (Windows NT 10.0; Win64; x64) AppleWebKit/537.36 (KHTML, like Gecko) Chrome/112.0.0.0 Safari/537.36","WebKit","Chrome","112.0.0.0","Windows","10.0","null","<div style=""font-size:60px;"">+</div>","null",""
"","","","","","html-button-response","88","217272","0.0-3.0-1.42","28","1","2023-05-19 17:03:49","c5e7288ef5abdde20c6cfc36967cae27","208.195.166.199","Mozilla/5.0 (Windows NT 10.0; Win64; x64) AppleWebKit/537.36 (KHTML, like Gecko) Chrome/112.0.0.0 Safari/537.36","WebKit","Chrome","112.0.0.0","Windows","10.0","1254","<p>As the military commander, you could choose to launch a missile to kill <strong>6 enemy soldiers</strong> , but would accidentally kill <strong>1 enemy tree</strong> nearby.</p> <p>The photo of the <strong>enemy tree</strong> is shown below.</p> <p></p> <img src='stimuli/tree/15.png', style='max-width: 30%;'> </img> <p><strong>Would you launch the weapon?</strong></p>","1",""
"","","","","","html-keyboard-response","89","218276","0.0-3.0-0.43","28","1","2023-05-19 17:03:49","c5e7288ef5abdde20c6cfc36967cae27","208.195.166.199","Mozilla/5.0 (Windows NT 10.0; Win64; x64) AppleWebKit/537.36 (KHTML, like Gecko) Chrome/112.0.0.0 Safari/537.36","WebKit","Chrome","112.0.0.0","Windows","10.0","null","<div style=""font-size:60px;"">+</div>","null",""
"","","","","","html-button-response","90","219466","0.0-3.0-1.43","28","1","2023-05-19 17:03:49","c5e7288ef5abdde20c6cfc36967cae27","208.195.166.199","Mozilla/5.0 (Windows NT 10.0; Win64; x64) AppleWebKit/537.36 (KHTML, like Gecko) Chrome/112.0.0.0 Safari/537.36","WebKit","Chrome","112.0.0.0","Windows","10.0","1186","<p>As the military commander, you could choose to launch a missile to kill <strong>2 enemy soldiers</strong> , but would accidentally kill <strong>1 enemy tree</strong> nearby.</p> <p>The photo of the <strong>enemy tree</strong> is shown below.</p> <p></p> <img src='stimuli/tree/1.png', style='max-width: 30%;'> </img> <p><strong>Would you launch the weapon?</strong></p>","1",""
"","","","","","html-keyboard-response","91","220472","0.0-3.0-0.44","28","1","2023-05-19 17:03:49","c5e7288ef5abdde20c6cfc36967cae27","208.195.166.199","Mozilla/5.0 (Windows NT 10.0; Win64; x64) AppleWebKit/537.36 (KHTML, like Gecko) Chrome/112.0.0.0 Safari/537.36","WebKit","Chrome","112.0.0.0","Windows","10.0","null","<div style=""font-size:60px;"">+</div>","null",""
"","","","","","html-button-response","92","221632","0.0-3.0-1.44","28","1","2023-05-19 17:03:49","c5e7288ef5abdde20c6cfc36967cae27","208.195.166.199","Mozilla/5.0 (Windows NT 10.0; Win64; x64) AppleWebKit/537.36 (KHTML, like Gecko) Chrome/112.0.0.0 Safari/537.36","WebKit","Chrome","112.0.0.0","Windows","10.0","1154","<p>As the military commander, you could choose to launch a missile to kill <strong>1 enemy soldier</strong> , but would accidentally kill <strong>1 enemy tree</strong> nearby.</p> <p>The photo of the <strong>enemy tree</strong> is shown below.</p> <p></p> <img src='stimuli/tree/8.png', style='max-width: 30%;'> </img> <p><strong>Would you launch the weapon?</strong></p>","1",""
"","","","","","html-keyboard-response","93","222637","0.0-3.0-0.45","28","1","2023-05-19 17:03:49","c5e7288ef5abdde20c6cfc36967cae27","208.195.166.199","Mozilla/5.0 (Windows NT 10.0; Win64; x64) AppleWebKit/537.36 (KHTML, like Gecko) Chrome/112.0.0.0 Safari/537.36","WebKit","Chrome","112.0.0.0","Windows","10.0","null","<div style=""font-size:60px;"">+</div>","null",""
"","","","","","html-button-response","94","224154","0.0-3.0-1.45","28","1","2023-05-19 17:03:49","c5e7288ef5abdde20c6cfc36967cae27","208.195.166.199","Mozilla/5.0 (Windows NT 10.0; Win64; x64) AppleWebKit/537.36 (KHTML, like Gecko) Chrome/112.0.0.0 Safari/537.36","WebKit","Chrome","112.0.0.0","Windows","10.0","1514","<p>As the military commander, you could choose to launch a missile to kill <strong>5 enemy soldiers</strong> , but would accidentally kill <strong>1 enemy civilian</strong> nearby.</p> <p>The photo of the <strong>enemy civilian</strong> is shown below.</p> <p></p> <img src='stimuli/faces/NCM1.jpg', style='max-width: 30%;'> </img> <p><strong>Would you launch the weapon?</strong></p>","0",""
"","","","","","html-keyboard-response","95","225159","0.0-3.0-0.46","28","1","2023-05-19 17:03:49","c5e7288ef5abdde20c6cfc36967cae27","208.195.166.199","Mozilla/5.0 (Windows NT 10.0; Win64; x64) AppleWebKit/537.36 (KHTML, like Gecko) Chrome/112.0.0.0 Safari/537.36","WebKit","Chrome","112.0.0.0","Windows","10.0","null","<div style=""font-size:60px;"">+</div>","null",""
"","","","","","html-button-response","96","226574","0.0-3.0-1.46","28","1","2023-05-19 17:03:49","c5e7288ef5abdde20c6cfc36967cae27","208.195.166.199","Mozilla/5.0 (Windows NT 10.0; Win64; x64) AppleWebKit/537.36 (KHTML, like Gecko) Chrome/112.0.0.0 Safari/537.36","WebKit","Chrome","112.0.0.0","Windows","10.0","1411","<p>As the military commander, you could choose to launch a missile to kill <strong>9 enemy soldiers</strong> , but would accidentally kill <strong>1 enemy tree</strong> nearby.</p> <p>The photo of the <strong>enemy tree</strong> is shown below.</p> <p></p> <img src='stimuli/tree/11.png', style='max-width: 30%;'> </img> <p><strong>Would you launch the weapon?</strong></p>","1",""
"","","","","","html-keyboard-response","97","227579","0.0-3.0-0.47","28","1","2023-05-19 17:03:49","c5e7288ef5abdde20c6cfc36967cae27","208.195.166.199","Mozilla/5.0 (Windows NT 10.0; Win64; x64) AppleWebKit/537.36 (KHTML, like Gecko) Chrome/112.0.0.0 Safari/537.36","WebKit","Chrome","112.0.0.0","Windows","10.0","null","<div style=""font-size:60px;"">+</div>","null",""
"","","","","","html-button-response","98","228889","0.0-3.0-1.47","28","1","2023-05-19 17:03:49","c5e7288ef5abdde20c6cfc36967cae27","208.195.166.199","Mozilla/5.0 (Windows NT 10.0; Win64; x64) AppleWebKit/537.36 (KHTML, like Gecko) Chrome/112.0.0.0 Safari/537.36","WebKit","Chrome","112.0.0.0","Windows","10.0","1304","<p>As the military commander, you could choose to launch a missile to kill <strong>10 enemy soldiers</strong> , but would accidentally kill <strong>1 enemy tree</strong> nearby.</p> <p>The photo of the <strong>enemy tree</strong> is shown below.</p> <p></p> <img src='stimuli/tree/4.png', style='max-width: 30%;'> </img> <p><strong>Would you launch the weapon?</strong></p>","1",""
"","","","","","html-keyboard-response","99","229893","0.0-3.0-0.48","28","1","2023-05-19 17:03:49","c5e7288ef5abdde20c6cfc36967cae27","208.195.166.199","Mozilla/5.0 (Windows NT 10.0; Win64; x64) AppleWebKit/537.36 (KHTML, like Gecko) Chrome/112.0.0.0 Safari/537.36","WebKit","Chrome","112.0.0.0","Windows","10.0","null","<div style=""font-size:60px;"">+</div>","null",""
"","","","","","html-button-response","100","231424","0.0-3.0-1.48","28","1","2023-05-19 17:03:49","c5e7288ef5abdde20c6cfc36967cae27","208.195.166.199","Mozilla/5.0 (Windows NT 10.0; Win64; x64) AppleWebKit/537.36 (KHTML, like Gecko) Chrome/112.0.0.0 Safari/537.36","WebKit","Chrome","112.0.0.0","Windows","10.0","1527","<p>As the military commander, you could choose to launch a missile to kill <strong>8 enemy soldiers</strong> , but would accidentally kill <strong>1 enemy tree</strong> nearby.</p> <p>The photo of the <strong>enemy tree</strong> is shown below.</p> <p></p> <img src='stimuli/tree/7.png', style='max-width: 30%;'> </img> <p><strong>Would you launch the weapon?</strong></p>","1",""
"","","","","","html-keyboard-response","101","232431","0.0-3.0-0.49","28","1","2023-05-19 17:03:49","c5e7288ef5abdde20c6cfc36967cae27","208.195.166.199","Mozilla/5.0 (Windows NT 10.0; Win64; x64) AppleWebKit/537.36 (KHTML, like Gecko) Chrome/112.0.0.0 Safari/537.36","WebKit","Chrome","112.0.0.0","Windows","10.0","null","<div style=""font-size:60px;"">+</div>","null",""
"","","","","","html-button-response","102","234233","0.0-3.0-1.49","28","1","2023-05-19 17:03:49","c5e7288ef5abdde20c6cfc36967cae27","208.195.166.199","Mozilla/5.0 (Windows NT 10.0; Win64; x64) AppleWebKit/537.36 (KHTML, like Gecko) Chrome/112.0.0.0 Safari/537.36","WebKit","Chrome","112.0.0.0","Windows","10.0","1797","<p>As the military commander, you could choose to launch a missile to kill <strong>6 enemy soldiers</strong> , but would accidentally kill <strong>1 enemy civilian</strong> nearby.</p> <p>The photo of the <strong>enemy civilian</strong> is shown below.</p> <p></p> <img src='stimuli/faces/NCM2.jpg', style='max-width: 30%;'> </img> <p><strong>Would you launch the weapon?</strong></p>","0",""
"","","","","","html-keyboard-response","103","235238","0.0-3.0-0.50","28","1","2023-05-19 17:03:49","c5e7288ef5abdde20c6cfc36967cae27","208.195.166.199","Mozilla/5.0 (Windows NT 10.0; Win64; x64) AppleWebKit/537.36 (KHTML, like Gecko) Chrome/112.0.0.0 Safari/537.36","WebKit","Chrome","112.0.0.0","Windows","10.0","null","<div style=""font-size:60px;"">+</div>","null",""
"","","","","","html-button-response","104","236786","0.0-3.0-1.50","28","1","2023-05-19 17:03:49","c5e7288ef5abdde20c6cfc36967cae27","208.195.166.199","Mozilla/5.0 (Windows NT 10.0; Win64; x64) AppleWebKit/537.36 (KHTML, like Gecko) Chrome/112.0.0.0 Safari/537.36","WebKit","Chrome","112.0.0.0","Windows","10.0","1545","<p>As the military commander, you could choose to launch a missile to kill <strong>8 enemy soldiers</strong> , but would accidentally kill <strong>1 enemy tree</strong> nearby.</p> <p>The photo of the <strong>enemy tree</strong> is shown below.</p> <p></p> <img src='stimuli/tree/2.png', style='max-width: 30%;'> </img> <p><strong>Would you launch the weapon?</strong></p>","1",""
"","","","","","html-keyboard-response","105","237790","0.0-3.0-0.51","28","1","2023-05-19 17:03:49","c5e7288ef5abdde20c6cfc36967cae27","208.195.166.199","Mozilla/5.0 (Windows NT 10.0; Win64; x64) AppleWebKit/537.36 (KHTML, like Gecko) Chrome/112.0.0.0 Safari/537.36","WebKit","Chrome","112.0.0.0","Windows","10.0","null","<div style=""font-size:60px;"">+</div>","null",""
"","","","","","html-button-response","106","238880","0.0-3.0-1.51","28","1","2023-05-19 17:03:49","c5e7288ef5abdde20c6cfc36967cae27","208.195.166.199","Mozilla/5.0 (Windows NT 10.0; Win64; x64) AppleWebKit/537.36 (KHTML, like Gecko) Chrome/112.0.0.0 Safari/537.36","WebKit","Chrome","112.0.0.0","Windows","10.0","1086","<p>As the military commander, you could choose to launch a missile to kill <strong>6 enemy soldiers</strong> , but would accidentally kill <strong>1 enemy tree</strong> nearby.</p> <p>The photo of the <strong>enemy tree</strong> is shown below.</p> <p></p> <img src='stimuli/tree/6.png', style='max-width: 30%;'> </img> <p><strong>Would you launch the weapon?</strong></p>","1",""
"","","","","","html-keyboard-response","107","239885","0.0-3.0-0.52","28","1","2023-05-19 17:03:49","c5e7288ef5abdde20c6cfc36967cae27","208.195.166.199","Mozilla/5.0 (Windows NT 10.0; Win64; x64) AppleWebKit/537.36 (KHTML, like Gecko) Chrome/112.0.0.0 Safari/537.36","WebKit","Chrome","112.0.0.0","Windows","10.0","null","<div style=""font-size:60px;"">+</div>","null",""
"","","","","","html-button-response","108","241082","0.0-3.0-1.52","28","1","2023-05-19 17:03:49","c5e7288ef5abdde20c6cfc36967cae27","208.195.166.199","Mozilla/5.0 (Windows NT 10.0; Win64; x64) AppleWebKit/537.36 (KHTML, like Gecko) Chrome/112.0.0.0 Safari/537.36","WebKit","Chrome","112.0.0.0","Windows","10.0","1194","<p>As the military commander, you could choose to launch a missile to kill <strong>3 enemy soldiers</strong> , but would accidentally kill <strong>1 enemy civilian</strong> nearby.</p> <p>The photo of the <strong>enemy civilian</strong> is shown below.</p> <p></p> <img src='stimuli/faces/NCF4.jpg', style='max-width: 30%;'> </img> <p><strong>Would you launch the weapon?</strong></p>","0",""
"","","","","","html-keyboard-response","109","242087","0.0-3.0-0.53","28","1","2023-05-19 17:03:49","c5e7288ef5abdde20c6cfc36967cae27","208.195.166.199","Mozilla/5.0 (Windows NT 10.0; Win64; x64) AppleWebKit/537.36 (KHTML, like Gecko) Chrome/112.0.0.0 Safari/537.36","WebKit","Chrome","112.0.0.0","Windows","10.0","null","<div style=""font-size:60px;"">+</div>","null",""
"","","","","","html-button-response","110","243237","0.0-3.0-1.53","28","1","2023-05-19 17:03:49","c5e7288ef5abdde20c6cfc36967cae27","208.195.166.199","Mozilla/5.0 (Windows NT 10.0; Win64; x64) AppleWebKit/537.36 (KHTML, like Gecko) Chrome/112.0.0.0 Safari/537.36","WebKit","Chrome","112.0.0.0","Windows","10.0","1146","<p>As the military commander, you could choose to launch a missile to kill <strong>10 enemy soldiers</strong> , but would accidentally kill <strong>1 enemy civilian</strong> nearby.</p> <p>The photo of the <strong>enemy civilian</strong> is shown below.</p> <p></p> <img src='stimuli/faces/NCM4.jpg', style='max-width: 30%;'> </img> <p><strong>Would you launch the weapon?</strong></p>","0",""
"","","","","","html-keyboard-response","111","244241","0.0-3.0-0.54","28","1","2023-05-19 17:03:49","c5e7288ef5abdde20c6cfc36967cae27","208.195.166.199","Mozilla/5.0 (Windows NT 10.0; Win64; x64) AppleWebKit/537.36 (KHTML, like Gecko) Chrome/112.0.0.0 Safari/537.36","WebKit","Chrome","112.0.0.0","Windows","10.0","null","<div style=""font-size:60px;"">+</div>","null",""
"","","","","","html-button-response","112","245946","0.0-3.0-1.54","28","1","2023-05-19 17:03:49","c5e7288ef5abdde20c6cfc36967cae27","208.195.166.199","Mozilla/5.0 (Windows NT 10.0; Win64; x64) AppleWebKit/537.36 (KHTML, like Gecko) Chrome/112.0.0.0 Safari/537.36","WebKit","Chrome","112.0.0.0","Windows","10.0","1701","<p>As the military commander, you could choose to launch a missile to kill <strong>3 enemy soldiers</strong> , but would accidentally kill <strong>1 enemy civilian</strong> nearby.</p> <p>The photo of the <strong>enemy civilian</strong> is shown below.</p> <p></p> <img src='stimuli/faces/NCF2.jpg', style='max-width: 30%;'> </img> <p><strong>Would you launch the weapon?</strong></p>","0",""
"","","","","","html-keyboard-response","113","246952","0.0-3.0-0.55","28","1","2023-05-19 17:03:49","c5e7288ef5abdde20c6cfc36967cae27","208.195.166.199","Mozilla/5.0 (Windows NT 10.0; Win64; x64) AppleWebKit/537.36 (KHTML, like Gecko) Chrome/112.0.0.0 Safari/537.36","WebKit","Chrome","112.0.0.0","Windows","10.0","null","<div style=""font-size:60px;"">+</div>","null",""
"","","","","","html-button-response","114","248627","0.0-3.0-1.55","28","1","2023-05-19 17:03:49","c5e7288ef5abdde20c6cfc36967cae27","208.195.166.199","Mozilla/5.0 (Windows NT 10.0; Win64; x64) AppleWebKit/537.36 (KHTML, like Gecko) Chrome/112.0.0.0 Safari/537.36","WebKit","Chrome","112.0.0.0","Windows","10.0","1672","<p>As the military commander, you could choose to launch a missile to kill <strong>1 enemy soldier</strong> , but would accidentally kill <strong>1 enemy civilian</strong> nearby.</p> <p>The photo of the <strong>enemy civilian</strong> is shown below.</p> <p></p> <img src='stimuli/faces/NCM5.jpg', style='max-width: 30%;'> </img> <p><strong>Would you launch the weapon?</strong></p>","0",""
"","","","","","html-keyboard-response","115","249632","0.0-3.0-0.56","28","1","2023-05-19 17:03:49","c5e7288ef5abdde20c6cfc36967cae27","208.195.166.199","Mozilla/5.0 (Windows NT 10.0; Win64; x64) AppleWebKit/537.36 (KHTML, like Gecko) Chrome/112.0.0.0 Safari/537.36","WebKit","Chrome","112.0.0.0","Windows","10.0","null","<div style=""font-size:60px;"">+</div>","null",""
"","","","","","html-button-response","116","250771","0.0-3.0-1.56","28","1","2023-05-19 17:03:49","c5e7288ef5abdde20c6cfc36967cae27","208.195.166.199","Mozilla/5.0 (Windows NT 10.0; Win64; x64) AppleWebKit/537.36 (KHTML, like Gecko) Chrome/112.0.0.0 Safari/537.36","WebKit","Chrome","112.0.0.0","Windows","10.0","1135","<p>As the military commander, you could choose to launch a missile to kill <strong>7 enemy soldiers</strong> , but would accidentally kill <strong>1 enemy civilian</strong> nearby.</p> <p>The photo of the <strong>enemy civilian</strong> is shown below.</p> <p></p> <img src='stimuli/faces/NCF8.jpg', style='max-width: 30%;'> </img> <p><strong>Would you launch the weapon?</strong></p>","0",""
"","","","","","html-keyboard-response","117","251775","0.0-3.0-0.57","28","1","2023-05-19 17:03:49","c5e7288ef5abdde20c6cfc36967cae27","208.195.166.199","Mozilla/5.0 (Windows NT 10.0; Win64; x64) AppleWebKit/537.36 (KHTML, like Gecko) Chrome/112.0.0.0 Safari/537.36","WebKit","Chrome","112.0.0.0","Windows","10.0","null","<div style=""font-size:60px;"">+</div>","null",""
"","","","","","html-button-response","118","254657","0.0-3.0-1.57","28","1","2023-05-19 17:03:49","c5e7288ef5abdde20c6cfc36967cae27","208.195.166.199","Mozilla/5.0 (Windows NT 10.0; Win64; x64) AppleWebKit/537.36 (KHTML, like Gecko) Chrome/112.0.0.0 Safari/537.36","WebKit","Chrome","112.0.0.0","Windows","10.0","2878","<p>As the military commander, you could choose to launch a missile to kill <strong>3 enemy soldiers</strong> , but would accidentally kill <strong>1 enemy civilian</strong> nearby.</p> <p>The photo of the <strong>enemy civilian</strong> is shown below.</p> <p></p> <img src='stimuli/faces/NCF7.jpg', style='max-width: 30%;'> </img> <p><strong>Would you launch the weapon?</strong></p>","0",""
"","","","","","html-keyboard-response","119","255662","0.0-3.0-0.58","28","1","2023-05-19 17:03:49","c5e7288ef5abdde20c6cfc36967cae27","208.195.166.199","Mozilla/5.0 (Windows NT 10.0; Win64; x64) AppleWebKit/537.36 (KHTML, like Gecko) Chrome/112.0.0.0 Safari/537.36","WebKit","Chrome","112.0.0.0","Windows","10.0","null","<div style=""font-size:60px;"">+</div>","null",""
"","","","","","html-button-response","120","256872","0.0-3.0-1.58","28","1","2023-05-19 17:03:49","c5e7288ef5abdde20c6cfc36967cae27","208.195.166.199","Mozilla/5.0 (Windows NT 10.0; Win64; x64) AppleWebKit/537.36 (KHTML, like Gecko) Chrome/112.0.0.0 Safari/537.36","WebKit","Chrome","112.0.0.0","Windows","10.0","1204","<p>As the military commander, you could choose to launch a missile to kill <strong>8 enemy soldiers</strong> , but would accidentally kill <strong>1 enemy civilian</strong> nearby.</p> <p>The photo of the <strong>enemy civilian</strong> is shown below.</p> <p></p> <img src='stimuli/faces/NCF6.jpg', style='max-width: 30%;'> </img> <p><strong>Would you launch the weapon?</strong></p>","0",""
"","","","","","html-keyboard-response","121","257877","0.0-3.0-0.59","28","1","2023-05-19 17:03:49","c5e7288ef5abdde20c6cfc36967cae27","208.195.166.199","Mozilla/5.0 (Windows NT 10.0; Win64; x64) AppleWebKit/537.36 (KHTML, like Gecko) Chrome/112.0.0.0 Safari/537.36","WebKit","Chrome","112.0.0.0","Windows","10.0","null","<div style=""font-size:60px;"">+</div>","null",""
"","","","","","html-button-response","122","259315","0.0-3.0-1.59","28","1","2023-05-19 17:03:49","c5e7288ef5abdde20c6cfc36967cae27","208.195.166.199","Mozilla/5.0 (Windows NT 10.0; Win64; x64) AppleWebKit/537.36 (KHTML, like Gecko) Chrome/112.0.0.0 Safari/537.36","WebKit","Chrome","112.0.0.0","Windows","10.0","1434","<p>As the military commander, you could choose to launch a missile to kill <strong>9 enemy soldiers</strong> , but would accidentally kill <strong>1 enemy tree</strong> nearby.</p> <p>The photo of the <strong>enemy tree</strong> is shown below.</p> <p></p> <img src='stimuli/tree/1.png', style='max-width: 30%;'> </img> <p><strong>Would you launch the weapon?</strong></p>","1",""
"","","","","","html-keyboard-response","123","260319","0.0-3.0-0.60","28","1","2023-05-19 17:03:49","c5e7288ef5abdde20c6cfc36967cae27","208.195.166.199","Mozilla/5.0 (Windows NT 10.0; Win64; x64) AppleWebKit/537.36 (KHTML, like Gecko) Chrome/112.0.0.0 Safari/537.36","WebKit","Chrome","112.0.0.0","Windows","10.0","null","<div style=""font-size:60px;"">+</div>","null",""
"","","","","","html-button-response","124","261843","0.0-3.0-1.60","28","1","2023-05-19 17:03:49","c5e7288ef5abdde20c6cfc36967cae27","208.195.166.199","Mozilla/5.0 (Windows NT 10.0; Win64; x64) AppleWebKit/537.36 (KHTML, like Gecko) Chrome/112.0.0.0 Safari/537.36","WebKit","Chrome","112.0.0.0","Windows","10.0","1520","<p>As the military commander, you could choose to launch a missile to kill <strong>9 enemy soldiers</strong> , but would accidentally kill <strong>1 enemy civilian</strong> nearby.</p> <p>The photo of the <strong>enemy civilian</strong> is shown below.</p> <p></p> <img src='stimuli/faces/NCF4.jpg', style='max-width: 30%;'> </img> <p><strong>Would you launch the weapon?</strong></p>","0",""
"","","","","","html-keyboard-response","125","262848","0.0-3.0-0.61","28","1","2023-05-19 17:03:49","c5e7288ef5abdde20c6cfc36967cae27","208.195.166.199","Mozilla/5.0 (Windows NT 10.0; Win64; x64) AppleWebKit/537.36 (KHTML, like Gecko) Chrome/112.0.0.0 Safari/537.36","WebKit","Chrome","112.0.0.0","Windows","10.0","null","<div style=""font-size:60px;"">+</div>","null",""
"","","","","","html-button-response","126","264018","0.0-3.0-1.61","28","1","2023-05-19 17:03:49","c5e7288ef5abdde20c6cfc36967cae27","208.195.166.199","Mozilla/5.0 (Windows NT 10.0; Win64; x64) AppleWebKit/537.36 (KHTML, like Gecko) Chrome/112.0.0.0 Safari/537.36","WebKit","Chrome","112.0.0.0","Windows","10.0","1164","<p>As the military commander, you could choose to launch a missile to kill <strong>5 enemy soldiers</strong> , but would accidentally kill <strong>1 enemy civilian</strong> nearby.</p> <p>The photo of the <strong>enemy civilian</strong> is shown below.</p> <p></p> <img src='stimuli/faces/NCM7.jpg', style='max-width: 30%;'> </img> <p><strong>Would you launch the weapon?</strong></p>","0",""
"","","","","","html-keyboard-response","127","265023","0.0-3.0-0.62","28","1","2023-05-19 17:03:49","c5e7288ef5abdde20c6cfc36967cae27","208.195.166.199","Mozilla/5.0 (Windows NT 10.0; Win64; x64) AppleWebKit/537.36 (KHTML, like Gecko) Chrome/112.0.0.0 Safari/537.36","WebKit","Chrome","112.0.0.0","Windows","10.0","null","<div style=""font-size:60px;"">+</div>","null",""
"","","","","","html-button-response","128","266137","0.0-3.0-1.62","28","1","2023-05-19 17:03:49","c5e7288ef5abdde20c6cfc36967cae27","208.195.166.199","Mozilla/5.0 (Windows NT 10.0; Win64; x64) AppleWebKit/537.36 (KHTML, like Gecko) Chrome/112.0.0.0 Safari/537.36","WebKit","Chrome","112.0.0.0","Windows","10.0","1111","<p>As the military commander, you could choose to launch a missile to kill <strong>9 enemy soldiers</strong> , but would accidentally kill <strong>1 enemy civilian</strong> nearby.</p> <p>The photo of the <strong>enemy civilian</strong> is shown below.</p> <p></p> <img src='stimuli/faces/NCM8.jpg', style='max-width: 30%;'> </img> <p><strong>Would you launch the weapon?</strong></p>","0",""
"","","","","","html-keyboard-response","129","267142","0.0-3.0-0.63","28","1","2023-05-19 17:03:49","c5e7288ef5abdde20c6cfc36967cae27","208.195.166.199","Mozilla/5.0 (Windows NT 10.0; Win64; x64) AppleWebKit/537.36 (KHTML, like Gecko) Chrome/112.0.0.0 Safari/537.36","WebKit","Chrome","112.0.0.0","Windows","10.0","null","<div style=""font-size:60px;"">+</div>","null",""
"","","","","","html-button-response","130","268256","0.0-3.0-1.63","28","1","2023-05-19 17:03:49","c5e7288ef5abdde20c6cfc36967cae27","208.195.166.199","Mozilla/5.0 (Windows NT 10.0; Win64; x64) AppleWebKit/537.36 (KHTML, like Gecko) Chrome/112.0.0.0 Safari/537.36","WebKit","Chrome","112.0.0.0","Windows","10.0","1110","<p>As the military commander, you could choose to launch a missile to kill <strong>4 enemy soldiers</strong> , but would accidentally kill <strong>1 enemy civilian</strong> nearby.</p> <p>The photo of the <strong>enemy civilian</strong> is shown below.</p> <p></p> <img src='stimuli/faces/NCM3.jpg', style='max-width: 30%;'> </img> <p><strong>Would you launch the weapon?</strong></p>","0",""
"","","","","","survey-multi-choice","131","307970","0.0-4.0","28","1","2023-05-19 17:03:49","c5e7288ef5abdde20c6cfc36967cae27","208.195.166.199","Mozilla/5.0 (Windows NT 10.0; Win64; x64) AppleWebKit/537.36 (KHTML, like Gecko) Chrome/112.0.0.0 Safari/537.36","WebKit","Chrome","112.0.0.0","Windows","10.0","39706","","{""Attention1"":""""}","[0]"
"","","","","","html-button-response","132","311506","0.0-5.0","28","1","2023-05-19 17:03:49","c5e7288ef5abdde20c6cfc36967cae27","208.195.166.199","Mozilla/5.0 (Windows NT 10.0; Win64; x64) AppleWebKit/537.36 (KHTML, like Gecko) Chrome/112.0.0.0 Safari/537.36","WebKit","Chrome","112.0.0.0","Windows","10.0","3529","<p style=""font-size:20px;font-weight:bold;"">Great!</p><p>You have finished the first part of the experiment!</p><p>Please relax a little bit and then contine to answer some questions regarding yourself.</p><p>The next part will take around 10 minutes to complete.</p>","0",""
"","","","","","survey-text","133","337922","0.0-6.0","28","1","2023-05-19 17:03:49","c5e7288ef5abdde20c6cfc36967cae27","208.195.166.199","Mozilla/5.0 (Windows NT 10.0; Win64; x64) AppleWebKit/537.36 (KHTML, like Gecko) Chrome/112.0.0.0 Safari/537.36","WebKit","Chrome","112.0.0.0","Windows","10.0","25406","","{""Age"":""25"",""Nation"":""American"",""Born"":""USA"",""Live"":""USA""}",""
"","","","","","survey-multi-choice","134","421690","0.0-7.0","28","1","2023-05-19 17:03:49","c5e7288ef5abdde20c6cfc36967cae27","208.195.166.199","Mozilla/5.0 (Windows NT 10.0; Win64; x64) AppleWebKit/537.36 (KHTML, like Gecko) Chrome/112.0.0.0 Safari/537.36","WebKit","Chrome","112.0.0.0","Windows","10.0","83760","","{""Gender"":""Female"",""Education"":""Bachelor's Degree"",""Income"":""$70,000 - $99,999"",""Children"":""1"",""Ethnicity"":""White""}","[0,1,2,3,4]"
"","","","","","survey-multi-select","135","427122","0.0-8.0","28","1","2023-05-19 17:03:49","c5e7288ef5abdde20c6cfc36967cae27","208.195.166.199","Mozilla/5.0 (Windows NT 10.0; Win64; x64) AppleWebKit/537.36 (KHTML, like Gecko) Chrome/112.0.0.0 Safari/537.36","WebKit","Chrome","112.0.0.0","Windows","10.0","5414","","{""Marriage"":[""Married""],""Religion"":[""Catholic""]}","[0,1]"
"","","","","","survey-multi-choice","136","438697","0.0-9.0","28","1","2023-05-19 17:03:49","c5e7288ef5abdde20c6cfc36967cae27","208.195.166.199","Mozilla/5.0 (Windows NT 10.0; Win64; x64) AppleWebKit/537.36 (KHTML, like Gecko) Chrome/112.0.0.0 Safari/537.36","WebKit","Chrome","112.0.0.0","Windows","10.0","11566","","{""SES"":""8""}","[0]"
"","","","","","html-button-response","137","443890","0.0-10.0","28","1","2023-05-19 17:03:49","c5e7288ef5abdde20c6cfc36967cae27","208.195.166.199","Mozilla/5.0 (Windows NT 10.0; Win64; x64) AppleWebKit/537.36 (KHTML, like Gecko) Chrome/112.0.0.0 Safari/537.36","WebKit","Chrome","112.0.0.0","Windows","10.0","5185","<p><strong>Please indicate the extent that the following statements could describe you.</p><p> (1 = ""extremely uncharacteristic of me"" to 5 = ""extremely characteristic of me"".)</strong></p>","0",""
"","","","","","survey-likert","138","480014","0.0-11.0","28","1","2023-05-19 17:03:49","c5e7288ef5abdde20c6cfc36967cae27","208.195.166.199","Mozilla/5.0 (Windows NT 10.0; Win64; x64) AppleWebKit/537.36 (KHTML, like Gecko) Chrome/112.0.0.0 Safari/537.36","WebKit","Chrome","112.0.0.0","Windows","10.0","36115","","{""Aggression1"":2,""Aggression2"":2,""Aggression3"":2,""Aggression4"":1,""Aggression5"":2,""Aggression6"":2,""Aggression7"":2,""Aggression8"":3,""Aggression9"":2}","[0,1,2,3,4,5,6,7,8]"
"","","","","","html-button-response","139","482194","0.0-12.0","28","1","2023-05-19 17:03:49","c5e7288ef5abdde20c6cfc36967cae27","208.195.166.199","Mozilla/5.0 (Windows NT 10.0; Win64; x64) AppleWebKit/537.36 (KHTML, like Gecko) Chrome/112.0.0.0 Safari/537.36","WebKit","Chrome","112.0.0.0","Windows","10.0","2169","<p><strong>Please indicate the extent that the following statements could describe you. </strong></p><p><strong> (1 = ""Does not describe me well"" to 5 = ""Does decribe me well"".)</strong></p>","0",""
"","","","","","survey-likert","140","526966","0.0-13.0","28","1","2023-05-19 17:03:49","c5e7288ef5abdde20c6cfc36967cae27","208.195.166.199","Mozilla/5.0 (Windows NT 10.0; Win64; x64) AppleWebKit/537.36 (KHTML, like Gecko) Chrome/112.0.0.0 Safari/537.36","WebKit","Chrome","112.0.0.0","Windows","10.0","44758","","{""pds2"":3,""pts7"":2,""pds1"":3,""ecs4"":2,""pds4"":3,""fs4"":2,""ecs6"":3,""pds7"":2,""ecs1"":3,""pts1"":2,""fs2"":3,""pts4"":2,""ecs2"":3,""pts6"":2,""fs3"":3,""fs5"":2,""pts5"":3,""ecs5"":2,""pts2"":3,""ecs3"":2,""fs7"":3,""fs1"":2,""pds6"":3,""pts3"":2,""pds3"":3,""ecs7"":2,""pds5"":3,""fs6"":2}","[9,27,5,13,16,11,19,26,1,2,4,14,3,24,6,15,20,17,7,8,25,0,23,10,12,21,18,22]"
"","","","","","html-button-response","141","529468","0.0-14.0","28","1","2023-05-19 17:03:49","c5e7288ef5abdde20c6cfc36967cae27","208.195.166.199","Mozilla/5.0 (Windows NT 10.0; Win64; x64) AppleWebKit/537.36 (KHTML, like Gecko) Chrome/112.0.0.0 Safari/537.36","WebKit","Chrome","112.0.0.0","Windows","10.0","2492","<p><strong>Which of the following objects or statements do you have a positive or negative feeling towards? </strong></p><p><strong> (1 = ""Very negative"" to 7 = ""Very positive"") </strong></p>","0",""
"","","","","","survey-likert","142","563768","0.0-15.0","28","1","2023-05-19 17:03:49","c5e7288ef5abdde20c6cfc36967cae27","208.195.166.199","Mozilla/5.0 (Windows NT 10.0; Win64; x64) AppleWebKit/537.36 (KHTML, like Gecko) Chrome/112.0.0.0 Safari/537.36","WebKit","Chrome","112.0.0.0","Windows","10.0","34287","","{""sdo13"":5,""sdo6"":4,""sdo12"":5,""sdo10"":4,""sdo9"":5,""sdo16"":4,""sdo8"":5,""sdo2"":4,""sdo1"":5,""sdo5"":4,""sdo14"":5,""sdo3"":4,""sdo4"":4,""sdo11"":4,""sdo7"":5,""sdo15"":4}","[12,5,11,9,8,15,7,1,0,4,13,2,3,10,6,14]"
"","","","","","html-button-response","143","565452","0.0-16.0","28","1","2023-05-19 17:03:49","c5e7288ef5abdde20c6cfc36967cae27","208.195.166.199","Mozilla/5.0 (Windows NT 10.0; Win64; x64) AppleWebKit/537.36 (KHTML, like Gecko) Chrome/112.0.0.0 Safari/537.36","WebKit","Chrome","112.0.0.0","Windows","10.0","1673","<p><strong>Please indicate the extent you agree with the following statements.</strong></p><strong><p> (1 = ""Strongly Disagree"" to 5 = ""Srongly Agree"") </strong></p>","0",""
"","","","","","survey-likert","144","593775","0.0-17.0","28","1","2023-05-19 17:03:49","c5e7288ef5abdde20c6cfc36967cae27","208.195.166.199","Mozilla/5.0 (Windows NT 10.0; Win64; x64) AppleWebKit/537.36 (KHTML, like Gecko) Chrome/112.0.0.0 Safari/537.36","WebKit","Chrome","112.0.0.0","Windows","10.0","28313","","{""caring1"":2,""liking1"":2,""caring2"":3,""protection1"":2,""liking2"":3,""caring3"":2,""protection2"":3,""liking3"":2,""protection3"":3,""caring4"":2,""liking4"":3,""protection4"":2,""caring5"":3,""liking5"":2,""protection5"":3}","[0,1,2,3,4,5,6,7,8,9,10,11,12,13,14]"
"","","","","","html-button-response","145","596755","0.0-18.0","28","1","2023-05-19 17:03:49","c5e7288ef5abdde20c6cfc36967cae27","208.195.166.199","Mozilla/5.0 (Windows NT 10.0; Win64; x64) AppleWebKit/537.36 (KHTML, like Gecko) Chrome/112.0.0.0 Safari/537.36","WebKit","Chrome","112.0.0.0","Windows","10.0","2970","<p><strong>Please imagine spercific situations involving children below, and rate the amount of tenderness you would feel in each situation. </strong></p><p><strong> (Ternderness is ""a warm, gentle feeling of sympathetic affection."") </strong></p><strong><p> (1 = ""No tenderness at all"" to 5 = ""A lot of tenderness"") </strong></p>","0",""
"","","","","","survey-likert","146","621219","0.0-19.0","28","1","2023-05-19 17:03:49","c5e7288ef5abdde20c6cfc36967cae27","208.195.166.199","Mozilla/5.0 (Windows NT 10.0; Win64; x64) AppleWebKit/537.36 (KHTML, like Gecko) Chrome/112.0.0.0 Safari/537.36","WebKit","Chrome","112.0.0.0","Windows","10.0","24456","","{""tenderness-positive1"":3,""tenderness-negative1"":2,""tenderness-negative2"":2,""tenderness-positive2"":2,""tenderness-positive3"":2,""tenderness-negative3"":1,""tenderness-positive4"":2,""tendereness-negative4"":2,""tendernness-negative5"":3,""tenderness-positive5"":2}","[0,1,2,3,4,5,6,7,8,9]"
"","","","","","survey-multi-choice","147","645078","0.0-20.0","28","1","2023-05-19 17:03:49","c5e7288ef5abdde20c6cfc36967cae27","208.195.166.199","Mozilla/5.0 (Windows NT 10.0; Win64; x64) AppleWebKit/537.36 (KHTML, like Gecko) Chrome/112.0.0.0 Safari/537.36","WebKit","Chrome","112.0.0.0","Windows","10.0","23851","","{""Attention2"":""Other""}","[0]"
"","","","","","html-button-response","148","651004","0.0-21.0","28","1","2023-05-19 17:03:49","c5e7288ef5abdde20c6cfc36967cae27","208.195.166.199","Mozilla/5.0 (Windows NT 10.0; Win64; x64) AppleWebKit/537.36 (KHTML, like Gecko) Chrome/112.0.0.0 Safari/537.36","WebKit","Chrome","112.0.0.0","Windows","10.0","5919","<p><strong>Please indicate the extent you agree with the following statements.</strong></p>","0",""
"","","","","","survey-likert","149","687608","0.0-22.0","28","1","2023-05-19 17:03:49","c5e7288ef5abdde20c6cfc36967cae27","208.195.166.199","Mozilla/5.0 (Windows NT 10.0; Win64; x64) AppleWebKit/537.36 (KHTML, like Gecko) Chrome/112.0.0.0 Safari/537.36","WebKit","Chrome","112.0.0.0","Windows","10.0","36595","","{""Nation8"":2,""Patri5"":3,""Nation4"":2,""Nation5"":3,""Patri11"":2,""Patri8"":3,""Patri7"":2,""Patri4"":3,""Patri9"":2,""Patri1"":3,""Nation6"":2,""Patri12"":3,""Patri6"":2,""Patri2"":3,""Patri3"":2,""Nation3"":3,""Patri10"":2,""Nation7"":3,""Nation1"":2,""Nation2"":3}","[19,4,15,16,10,7,6,3,8,0,17,11,5,1,2,14,9,18,12,13]"
"","","","","","html-button-response","150","690212","0.0-23.0","28","1","2023-05-19 17:03:49","c5e7288ef5abdde20c6cfc36967cae27","208.195.166.199","Mozilla/5.0 (Windows NT 10.0; Win64; x64) AppleWebKit/537.36 (KHTML, like Gecko) Chrome/112.0.0.0 Safari/537.36","WebKit","Chrome","112.0.0.0","Windows","10.0","2596","<p><strong>Please indicate the extent you agree with the following statements. </p><p>(1 = ""never or definitely no"" and 9 = ""always or definitely yes"".)</strong></p>","0",""
"","","","","","survey-likert","151","733114","0.0-24.0","28","1","2023-05-19 17:03:49","c5e7288ef5abdde20c6cfc36967cae27","208.195.166.199","Mozilla/5.0 (Windows NT 10.0; Win64; x64) AppleWebKit/537.36 (KHTML, like Gecko) Chrome/112.0.0.0 Safari/537.36","WebKit","Chrome","112.0.0.0","Windows","10.0","42893","","{""hc4"":5,""Robot2"":6,""vi4"":5,""vi1"":6,""hc3"":5,""vi2"":5,""vc2"":5,""hi1"":6,""hc1"":5,""hi4"":5,""hi2"":5,""vc4"":5,""vc3"":5,""hc2"":6,""hi3"":5,""vi3"":6,""vc1"":5}","[12,7,8,4,11,5,14,0,9,3,1,16,15,10,2,6,13]"
"","","","","","survey-text","152","741364","0.0-25.0","28","1","2023-05-19 17:03:49","c5e7288ef5abdde20c6cfc36967cae27","208.195.166.199","Mozilla/5.0 (Windows NT 10.0; Win64; x64) AppleWebKit/537.36 (KHTML, like Gecko) Chrome/112.0.0.0 Safari/537.36","WebKit","Chrome","112.0.0.0","Windows","10.0","8233","","{""ID"":""ACUFOT3U8AS6T"",""Comments"":""good""}",""
"","","","","","html-button-response","153","762270","0.0-26.0","28","1","2023-05-19 17:03:49","c5e7288ef5abdde20c6cfc36967cae27","208.195.166.199","Mozilla/5.0 (Windows NT 10.0; Win64; x64) AppleWebKit/537.36 (KHTML, like Gecko) Chrome/112.0.0.0 Safari/537.36","WebKit","Chrome","112.0.0.0","Windows","10.0","20900","<p><strong>Congratulations! </strong> Your have finished all the survey. Thank you for your participation!</p><p><strong>Here is your complete token:</strong></p>kfon2ycpqbhhxcdvycx1ypphl<p></p><p><strong>Please copy it to the mTurk page.</strong></p>","0",""
