"success","timeout","failed_images","failed_audio","failed_video","trial_type","trial_index","time_elapsed","internal_node_id","run_id","condition","recorded_at","source_code_version","ip","user_agent","device","browser","browser_version","platform","platform_version","rt","stimulus","response","question_order"
"true","false","[]","[]","[]","preload","0","847","0.0-0.0","6","1","2023-05-31 09:47:49","c5e7288ef5abdde20c6cfc36967cae27","173.170.200.53","Mozilla/5.0 (Windows NT 10.0; Win64; x64) AppleWebKit/537.36 (KHTML, like Gecko) Chrome/113.0.0.0 Safari/537.36 Edg/113.0.1774.50","WebKit","Edge","113.0.1774.50","Windows","10.0","","","",""
"true","","","","","fullscreen","1","7885","0.0-1.0","6","1","2023-05-31 09:47:49","c5e7288ef5abdde20c6cfc36967cae27","173.170.200.53","Mozilla/5.0 (Windows NT 10.0; Win64; x64) AppleWebKit/537.36 (KHTML, like Gecko) Chrome/113.0.0.0 Safari/537.36 Edg/113.0.1774.50","WebKit","Edge","113.0.1774.50","Windows","10.0","","","",""
"","","","","","html-button-response","2","39404","0.0-2.0","6","1","2023-05-31 09:47:49","c5e7288ef5abdde20c6cfc36967cae27","173.170.200.53","Mozilla/5.0 (Windows NT 10.0; Win64; x64) AppleWebKit/537.36 (KHTML, like Gecko) Chrome/113.0.0.0 Safari/537.36 Edg/113.0.1774.50","WebKit","Edge","113.0.1774.50","Windows","10.0","31517","<p ><strong>Welcome to the experiment!</strong></p><p ><strong>In the first task, please imagine:</strong></p><p>Your country is involved in a military conflict with another country.</p><p>You are the commander of your army and must make decisions in the conflict.</p><p>Specifically, as the military commander, you must decide whether to launch a missile to strike enemy.</p><p>You will face a series of scenarios. Please read each scenario carefully and make a decision.</p><p>The task will take around 10 minutes to complete.</p><p><strong>Please pay your attention during the experiment.</strong></p>","0",""
"","","","","","html-keyboard-response","3","40412","0.0-3.0-0.0","6","1","2023-05-31 09:47:49","c5e7288ef5abdde20c6cfc36967cae27","173.170.200.53","Mozilla/5.0 (Windows NT 10.0; Win64; x64) AppleWebKit/537.36 (KHTML, like Gecko) Chrome/113.0.0.0 Safari/537.36 Edg/113.0.1774.50","WebKit","Edge","113.0.1774.50","Windows","10.0","null","<div style=""font-size:60px;"">+</div>","null",""
"","","","","","html-button-response","4","61312","0.0-3.0-1.0","6","1","2023-05-31 09:47:49","c5e7288ef5abdde20c6cfc36967cae27","173.170.200.53","Mozilla/5.0 (Windows NT 10.0; Win64; x64) AppleWebKit/537.36 (KHTML, like Gecko) Chrome/113.0.0.0 Safari/537.36 Edg/113.0.1774.50","WebKit","Edge","113.0.1774.50","Windows","10.0","20896","<p>As the military commander, you could choose to launch a missile to kill <strong>5 enemy soldiers</strong> , but would accidentally kill <strong>1 enemy civilian</strong> nearby.</p> <p>The photo of the <strong>enemy civilian</strong> is shown below.</p> <p></p> <img src='stimuli/faces/NCM2.jpg', style='max-width: 30%;'> </img> <p><strong>Would you launch the weapon?</strong></p>","0",""
"","","","","","html-keyboard-response","5","62322","0.0-3.0-0.1","6","1","2023-05-31 09:47:49","c5e7288ef5abdde20c6cfc36967cae27","173.170.200.53","Mozilla/5.0 (Windows NT 10.0; Win64; x64) AppleWebKit/537.36 (KHTML, like Gecko) Chrome/113.0.0.0 Safari/537.36 Edg/113.0.1774.50","WebKit","Edge","113.0.1774.50","Windows","10.0","null","<div style=""font-size:60px;"">+</div>","null",""
"","","","","","html-button-response","6","67902","0.0-3.0-1.1","6","1","2023-05-31 09:47:49","c5e7288ef5abdde20c6cfc36967cae27","173.170.200.53","Mozilla/5.0 (Windows NT 10.0; Win64; x64) AppleWebKit/537.36 (KHTML, like Gecko) Chrome/113.0.0.0 Safari/537.36 Edg/113.0.1774.50","WebKit","Edge","113.0.1774.50","Windows","10.0","5577","<p>As the military commander, you could choose to launch a missile to kill <strong>10 enemy soldiers</strong> , but would accidentally kill <strong>1 enemy civilian</strong> nearby.</p> <p>The photo of the <strong>enemy civilian</strong> is shown below.</p> <p></p> <img src='stimuli/faces/NCF7.jpg', style='max-width: 30%;'> </img> <p><strong>Would you launch the weapon?</strong></p>","0",""
"","","","","","html-keyboard-response","7","68908","0.0-3.0-0.2","6","1","2023-05-31 09:47:49","c5e7288ef5abdde20c6cfc36967cae27","173.170.200.53","Mozilla/5.0 (Windows NT 10.0; Win64; x64) AppleWebKit/537.36 (KHTML, like Gecko) Chrome/113.0.0.0 Safari/537.36 Edg/113.0.1774.50","WebKit","Edge","113.0.1774.50","Windows","10.0","null","<div style=""font-size:60px;"">+</div>","null",""
"","","","","","html-button-response","8","85394","0.0-3.0-1.2","6","1","2023-05-31 09:47:49","c5e7288ef5abdde20c6cfc36967cae27","173.170.200.53","Mozilla/5.0 (Windows NT 10.0; Win64; x64) AppleWebKit/537.36 (KHTML, like Gecko) Chrome/113.0.0.0 Safari/537.36 Edg/113.0.1774.50","WebKit","Edge","113.0.1774.50","Windows","10.0","16483","<p>As the military commander, you could choose to launch a missile to kill <strong>3 enemy soldiers</strong> , but would accidentally kill <strong>1 enemy tree</strong> nearby.</p> <p>The photo of the <strong>enemy tree</strong> is shown below.</p> <p></p> <img src='stimuli/tree/1.png', style='max-width: 30%;'> </img> <p><strong>Would you launch the weapon?</strong></p>","0",""
"","","","","","html-keyboard-response","9","86396","0.0-3.0-0.3","6","1","2023-05-31 09:47:49","c5e7288ef5abdde20c6cfc36967cae27","173.170.200.53","Mozilla/5.0 (Windows NT 10.0; Win64; x64) AppleWebKit/537.36 (KHTML, like Gecko) Chrome/113.0.0.0 Safari/537.36 Edg/113.0.1774.50","WebKit","Edge","113.0.1774.50","Windows","10.0","null","<div style=""font-size:60px;"">+</div>","null",""
"","","","","","html-button-response","10","94536","0.0-3.0-1.3","6","1","2023-05-31 09:47:49","c5e7288ef5abdde20c6cfc36967cae27","173.170.200.53","Mozilla/5.0 (Windows NT 10.0; Win64; x64) AppleWebKit/537.36 (KHTML, like Gecko) Chrome/113.0.0.0 Safari/537.36 Edg/113.0.1774.50","WebKit","Edge","113.0.1774.50","Windows","10.0","8138","<p>As the military commander, you could choose to launch a missile to kill <strong>3 enemy soldiers</strong> , but would accidentally kill <strong>1 enemy tree</strong> nearby.</p> <p>The photo of the <strong>enemy tree</strong> is shown below.</p> <p></p> <img src='stimuli/tree/3.png', style='max-width: 30%;'> </img> <p><strong>Would you launch the weapon?</strong></p>","0",""
"","","","","","html-keyboard-response","11","95538","0.0-3.0-0.4","6","1","2023-05-31 09:47:49","c5e7288ef5abdde20c6cfc36967cae27","173.170.200.53","Mozilla/5.0 (Windows NT 10.0; Win64; x64) AppleWebKit/537.36 (KHTML, like Gecko) Chrome/113.0.0.0 Safari/537.36 Edg/113.0.1774.50","WebKit","Edge","113.0.1774.50","Windows","10.0","null","<div style=""font-size:60px;"">+</div>","null",""
"","","","","","html-button-response","12","99500","0.0-3.0-1.4","6","1","2023-05-31 09:47:49","c5e7288ef5abdde20c6cfc36967cae27","173.170.200.53","Mozilla/5.0 (Windows NT 10.0; Win64; x64) AppleWebKit/537.36 (KHTML, like Gecko) Chrome/113.0.0.0 Safari/537.36 Edg/113.0.1774.50","WebKit","Edge","113.0.1774.50","Windows","10.0","3958","<p>As the military commander, you could choose to launch a missile to kill <strong>10 enemy soldiers</strong> , but would accidentally kill <strong>1 enemy tree</strong> nearby.</p> <p>The photo of the <strong>enemy tree</strong> is shown below.</p> <p></p> <img src='stimuli/tree/15.png', style='max-width: 30%;'> </img> <p><strong>Would you launch the weapon?</strong></p>","0",""
"","","","","","html-keyboard-response","13","100508","0.0-3.0-0.5","6","1","2023-05-31 09:47:49","c5e7288ef5abdde20c6cfc36967cae27","173.170.200.53","Mozilla/5.0 (Windows NT 10.0; Win64; x64) AppleWebKit/537.36 (KHTML, like Gecko) Chrome/113.0.0.0 Safari/537.36 Edg/113.0.1774.50","WebKit","Edge","113.0.1774.50","Windows","10.0","null","<div style=""font-size:60px;"">+</div>","null",""
"","","","","","html-button-response","14","106276","0.0-3.0-1.5","6","1","2023-05-31 09:47:49","c5e7288ef5abdde20c6cfc36967cae27","173.170.200.53","Mozilla/5.0 (Windows NT 10.0; Win64; x64) AppleWebKit/537.36 (KHTML, like Gecko) Chrome/113.0.0.0 Safari/537.36 Edg/113.0.1774.50","WebKit","Edge","113.0.1774.50","Windows","10.0","5765","<p>As the military commander, you could choose to launch a missile to kill <strong>10 enemy soldiers</strong> , but would accidentally kill <strong>1 enemy tree</strong> nearby.</p> <p>The photo of the <strong>enemy tree</strong> is shown below.</p> <p></p> <img src='stimuli/tree/2.png', style='max-width: 30%;'> </img> <p><strong>Would you launch the weapon?</strong></p>","0",""
"","","","","","html-keyboard-response","15","107281","0.0-3.0-0.6","6","1","2023-05-31 09:47:49","c5e7288ef5abdde20c6cfc36967cae27","173.170.200.53","Mozilla/5.0 (Windows NT 10.0; Win64; x64) AppleWebKit/537.36 (KHTML, like Gecko) Chrome/113.0.0.0 Safari/537.36 Edg/113.0.1774.50","WebKit","Edge","113.0.1774.50","Windows","10.0","null","<div style=""font-size:60px;"">+</div>","null",""
"","","","","","html-button-response","16","111450","0.0-3.0-1.6","6","1","2023-05-31 09:47:49","c5e7288ef5abdde20c6cfc36967cae27","173.170.200.53","Mozilla/5.0 (Windows NT 10.0; Win64; x64) AppleWebKit/537.36 (KHTML, like Gecko) Chrome/113.0.0.0 Safari/537.36 Edg/113.0.1774.50","WebKit","Edge","113.0.1774.50","Windows","10.0","4166","<p>As the military commander, you could choose to launch a missile to kill <strong>7 enemy soldiers</strong> , but would accidentally kill <strong>1 enemy tree</strong> nearby.</p> <p>The photo of the <strong>enemy tree</strong> is shown below.</p> <p></p> <img src='stimuli/tree/11.png', style='max-width: 30%;'> </img> <p><strong>Would you launch the weapon?</strong></p>","0",""
"","","","","","html-keyboard-response","17","112456","0.0-3.0-0.7","6","1","2023-05-31 09:47:49","c5e7288ef5abdde20c6cfc36967cae27","173.170.200.53","Mozilla/5.0 (Windows NT 10.0; Win64; x64) AppleWebKit/537.36 (KHTML, like Gecko) Chrome/113.0.0.0 Safari/537.36 Edg/113.0.1774.50","WebKit","Edge","113.0.1774.50","Windows","10.0","null","<div style=""font-size:60px;"">+</div>","null",""
"","","","","","html-button-response","18","119006","0.0-3.0-1.7","6","1","2023-05-31 09:47:49","c5e7288ef5abdde20c6cfc36967cae27","173.170.200.53","Mozilla/5.0 (Windows NT 10.0; Win64; x64) AppleWebKit/537.36 (KHTML, like Gecko) Chrome/113.0.0.0 Safari/537.36 Edg/113.0.1774.50","WebKit","Edge","113.0.1774.50","Windows","10.0","6547","<p>As the military commander, you could choose to launch a missile to kill <strong>10 enemy soldiers</strong> , but would accidentally kill <strong>1 enemy tree</strong> nearby.</p> <p>The photo of the <strong>enemy tree</strong> is shown below.</p> <p></p> <img src='stimuli/tree/14.png', style='max-width: 30%;'> </img> <p><strong>Would you launch the weapon?</strong></p>","0",""
"","","","","","html-keyboard-response","19","120015","0.0-3.0-0.8","6","1","2023-05-31 09:47:49","c5e7288ef5abdde20c6cfc36967cae27","173.170.200.53","Mozilla/5.0 (Windows NT 10.0; Win64; x64) AppleWebKit/537.36 (KHTML, like Gecko) Chrome/113.0.0.0 Safari/537.36 Edg/113.0.1774.50","WebKit","Edge","113.0.1774.50","Windows","10.0","null","<div style=""font-size:60px;"">+</div>","null",""
"","","","","","html-button-response","20","125502","0.0-3.0-1.8","6","1","2023-05-31 09:47:49","c5e7288ef5abdde20c6cfc36967cae27","173.170.200.53","Mozilla/5.0 (Windows NT 10.0; Win64; x64) AppleWebKit/537.36 (KHTML, like Gecko) Chrome/113.0.0.0 Safari/537.36 Edg/113.0.1774.50","WebKit","Edge","113.0.1774.50","Windows","10.0","5484","<p>As the military commander, you could choose to launch a missile to kill <strong>9 enemy soldiers</strong> , but would accidentally kill <strong>1 enemy tree</strong> nearby.</p> <p>The photo of the <strong>enemy tree</strong> is shown below.</p> <p></p> <img src='stimuli/tree/1.png', style='max-width: 30%;'> </img> <p><strong>Would you launch the weapon?</strong></p>","0",""
"","","","","","html-keyboard-response","21","126511","0.0-3.0-0.9","6","1","2023-05-31 09:47:49","c5e7288ef5abdde20c6cfc36967cae27","173.170.200.53","Mozilla/5.0 (Windows NT 10.0; Win64; x64) AppleWebKit/537.36 (KHTML, like Gecko) Chrome/113.0.0.0 Safari/537.36 Edg/113.0.1774.50","WebKit","Edge","113.0.1774.50","Windows","10.0","null","<div style=""font-size:60px;"">+</div>","null",""
"","","","","","html-button-response","22","130272","0.0-3.0-1.9","6","1","2023-05-31 09:47:49","c5e7288ef5abdde20c6cfc36967cae27","173.170.200.53","Mozilla/5.0 (Windows NT 10.0; Win64; x64) AppleWebKit/537.36 (KHTML, like Gecko) Chrome/113.0.0.0 Safari/537.36 Edg/113.0.1774.50","WebKit","Edge","113.0.1774.50","Windows","10.0","3759","<p>As the military commander, you could choose to launch a missile to kill <strong>4 enemy soldiers</strong> , but would accidentally kill <strong>1 enemy tree</strong> nearby.</p> <p>The photo of the <strong>enemy tree</strong> is shown below.</p> <p></p> <img src='stimuli/tree/11.png', style='max-width: 30%;'> </img> <p><strong>Would you launch the weapon?</strong></p>","0",""
"","","","","","html-keyboard-response","23","131277","0.0-3.0-0.10","6","1","2023-05-31 09:47:49","c5e7288ef5abdde20c6cfc36967cae27","173.170.200.53","Mozilla/5.0 (Windows NT 10.0; Win64; x64) AppleWebKit/537.36 (KHTML, like Gecko) Chrome/113.0.0.0 Safari/537.36 Edg/113.0.1774.50","WebKit","Edge","113.0.1774.50","Windows","10.0","null","<div style=""font-size:60px;"">+</div>","null",""
"","","","","","html-button-response","24","135162","0.0-3.0-1.10","6","1","2023-05-31 09:47:49","c5e7288ef5abdde20c6cfc36967cae27","173.170.200.53","Mozilla/5.0 (Windows NT 10.0; Win64; x64) AppleWebKit/537.36 (KHTML, like Gecko) Chrome/113.0.0.0 Safari/537.36 Edg/113.0.1774.50","WebKit","Edge","113.0.1774.50","Windows","10.0","3881","<p>As the military commander, you could choose to launch a missile to kill <strong>5 enemy soldiers</strong> , but would accidentally kill <strong>1 enemy tree</strong> nearby.</p> <p>The photo of the <strong>enemy tree</strong> is shown below.</p> <p></p> <img src='stimuli/tree/9.png', style='max-width: 30%;'> </img> <p><strong>Would you launch the weapon?</strong></p>","0",""
"","","","","","html-keyboard-response","25","136176","0.0-3.0-0.11","6","1","2023-05-31 09:47:49","c5e7288ef5abdde20c6cfc36967cae27","173.170.200.53","Mozilla/5.0 (Windows NT 10.0; Win64; x64) AppleWebKit/537.36 (KHTML, like Gecko) Chrome/113.0.0.0 Safari/537.36 Edg/113.0.1774.50","WebKit","Edge","113.0.1774.50","Windows","10.0","null","<div style=""font-size:60px;"">+</div>","null",""
"","","","","","html-button-response","26","143176","0.0-3.0-1.11","6","1","2023-05-31 09:47:49","c5e7288ef5abdde20c6cfc36967cae27","173.170.200.53","Mozilla/5.0 (Windows NT 10.0; Win64; x64) AppleWebKit/537.36 (KHTML, like Gecko) Chrome/113.0.0.0 Safari/537.36 Edg/113.0.1774.50","WebKit","Edge","113.0.1774.50","Windows","10.0","6997","<p>As the military commander, you could choose to launch a missile to kill <strong>6 enemy soldiers</strong> , but would accidentally kill <strong>1 enemy civilian</strong> nearby.</p> <p>The photo of the <strong>enemy civilian</strong> is shown below.</p> <p></p> <img src='stimuli/faces/NCF6.jpg', style='max-width: 30%;'> </img> <p><strong>Would you launch the weapon?</strong></p>","0",""
"","","","","","html-keyboard-response","27","144183","0.0-3.0-0.12","6","1","2023-05-31 09:47:49","c5e7288ef5abdde20c6cfc36967cae27","173.170.200.53","Mozilla/5.0 (Windows NT 10.0; Win64; x64) AppleWebKit/537.36 (KHTML, like Gecko) Chrome/113.0.0.0 Safari/537.36 Edg/113.0.1774.50","WebKit","Edge","113.0.1774.50","Windows","10.0","null","<div style=""font-size:60px;"">+</div>","null",""
"","","","","","html-button-response","28","146886","0.0-3.0-1.12","6","1","2023-05-31 09:47:49","c5e7288ef5abdde20c6cfc36967cae27","173.170.200.53","Mozilla/5.0 (Windows NT 10.0; Win64; x64) AppleWebKit/537.36 (KHTML, like Gecko) Chrome/113.0.0.0 Safari/537.36 Edg/113.0.1774.50","WebKit","Edge","113.0.1774.50","Windows","10.0","2700","<p>As the military commander, you could choose to launch a missile to kill <strong>8 enemy soldiers</strong> , but would accidentally kill <strong>1 enemy tree</strong> nearby.</p> <p>The photo of the <strong>enemy tree</strong> is shown below.</p> <p></p> <img src='stimuli/tree/13.png', style='max-width: 30%;'> </img> <p><strong>Would you launch the weapon?</strong></p>","0",""
"","","","","","html-keyboard-response","29","147898","0.0-3.0-0.13","6","1","2023-05-31 09:47:49","c5e7288ef5abdde20c6cfc36967cae27","173.170.200.53","Mozilla/5.0 (Windows NT 10.0; Win64; x64) AppleWebKit/537.36 (KHTML, like Gecko) Chrome/113.0.0.0 Safari/537.36 Edg/113.0.1774.50","WebKit","Edge","113.0.1774.50","Windows","10.0","null","<div style=""font-size:60px;"">+</div>","null",""
"","","","","","html-button-response","30","151310","0.0-3.0-1.13","6","1","2023-05-31 09:47:49","c5e7288ef5abdde20c6cfc36967cae27","173.170.200.53","Mozilla/5.0 (Windows NT 10.0; Win64; x64) AppleWebKit/537.36 (KHTML, like Gecko) Chrome/113.0.0.0 Safari/537.36 Edg/113.0.1774.50","WebKit","Edge","113.0.1774.50","Windows","10.0","3409","<p>As the military commander, you could choose to launch a missile to kill <strong>3 enemy soldiers</strong> , but would accidentally kill <strong>1 enemy civilian</strong> nearby.</p> <p>The photo of the <strong>enemy civilian</strong> is shown below.</p> <p></p> <img src='stimuli/faces/NCM1.jpg', style='max-width: 30%;'> </img> <p><strong>Would you launch the weapon?</strong></p>","1",""
"","","","","","html-keyboard-response","31","152316","0.0-3.0-0.14","6","1","2023-05-31 09:47:49","c5e7288ef5abdde20c6cfc36967cae27","173.170.200.53","Mozilla/5.0 (Windows NT 10.0; Win64; x64) AppleWebKit/537.36 (KHTML, like Gecko) Chrome/113.0.0.0 Safari/537.36 Edg/113.0.1774.50","WebKit","Edge","113.0.1774.50","Windows","10.0","null","<div style=""font-size:60px;"">+</div>","null",""
"","","","","","html-button-response","32","154534","0.0-3.0-1.14","6","1","2023-05-31 09:47:49","c5e7288ef5abdde20c6cfc36967cae27","173.170.200.53","Mozilla/5.0 (Windows NT 10.0; Win64; x64) AppleWebKit/537.36 (KHTML, like Gecko) Chrome/113.0.0.0 Safari/537.36 Edg/113.0.1774.50","WebKit","Edge","113.0.1774.50","Windows","10.0","2215","<p>As the military commander, you could choose to launch a missile to kill <strong>2 enemy soldiers</strong> , but would accidentally kill <strong>1 enemy civilian</strong> nearby.</p> <p>The photo of the <strong>enemy civilian</strong> is shown below.</p> <p></p> <img src='stimuli/faces/NCF6.jpg', style='max-width: 30%;'> </img> <p><strong>Would you launch the weapon?</strong></p>","1",""
"","","","","","html-keyboard-response","33","155537","0.0-3.0-0.15","6","1","2023-05-31 09:47:49","c5e7288ef5abdde20c6cfc36967cae27","173.170.200.53","Mozilla/5.0 (Windows NT 10.0; Win64; x64) AppleWebKit/537.36 (KHTML, like Gecko) Chrome/113.0.0.0 Safari/537.36 Edg/113.0.1774.50","WebKit","Edge","113.0.1774.50","Windows","10.0","null","<div style=""font-size:60px;"">+</div>","null",""
"","","","","","html-button-response","34","158092","0.0-3.0-1.15","6","1","2023-05-31 09:47:49","c5e7288ef5abdde20c6cfc36967cae27","173.170.200.53","Mozilla/5.0 (Windows NT 10.0; Win64; x64) AppleWebKit/537.36 (KHTML, like Gecko) Chrome/113.0.0.0 Safari/537.36 Edg/113.0.1774.50","WebKit","Edge","113.0.1774.50","Windows","10.0","2551","<p>As the military commander, you could choose to launch a missile to kill <strong>5 enemy soldiers</strong> , but would accidentally kill <strong>1 enemy tree</strong> nearby.</p> <p>The photo of the <strong>enemy tree</strong> is shown below.</p> <p></p> <img src='stimuli/tree/7.png', style='max-width: 30%;'> </img> <p><strong>Would you launch the weapon?</strong></p>","0",""
"","","","","","html-keyboard-response","35","159095","0.0-3.0-0.16","6","1","2023-05-31 09:47:49","c5e7288ef5abdde20c6cfc36967cae27","173.170.200.53","Mozilla/5.0 (Windows NT 10.0; Win64; x64) AppleWebKit/537.36 (KHTML, like Gecko) Chrome/113.0.0.0 Safari/537.36 Edg/113.0.1774.50","WebKit","Edge","113.0.1774.50","Windows","10.0","null","<div style=""font-size:60px;"">+</div>","null",""
"","","","","","html-button-response","36","164764","0.0-3.0-1.16","6","1","2023-05-31 09:47:49","c5e7288ef5abdde20c6cfc36967cae27","173.170.200.53","Mozilla/5.0 (Windows NT 10.0; Win64; x64) AppleWebKit/537.36 (KHTML, like Gecko) Chrome/113.0.0.0 Safari/537.36 Edg/113.0.1774.50","WebKit","Edge","113.0.1774.50","Windows","10.0","5666","<p>As the military commander, you could choose to launch a missile to kill <strong>5 enemy soldiers</strong> , but would accidentally kill <strong>1 enemy civilian</strong> nearby.</p> <p>The photo of the <strong>enemy civilian</strong> is shown below.</p> <p></p> <img src='stimuli/faces/NCM3.jpg', style='max-width: 30%;'> </img> <p><strong>Would you launch the weapon?</strong></p>","0",""
"","","","","","html-keyboard-response","37","165770","0.0-3.0-0.17","6","1","2023-05-31 09:47:49","c5e7288ef5abdde20c6cfc36967cae27","173.170.200.53","Mozilla/5.0 (Windows NT 10.0; Win64; x64) AppleWebKit/537.36 (KHTML, like Gecko) Chrome/113.0.0.0 Safari/537.36 Edg/113.0.1774.50","WebKit","Edge","113.0.1774.50","Windows","10.0","null","<div style=""font-size:60px;"">+</div>","null",""
"","","","","","html-button-response","38","168218","0.0-3.0-1.17","6","1","2023-05-31 09:47:49","c5e7288ef5abdde20c6cfc36967cae27","173.170.200.53","Mozilla/5.0 (Windows NT 10.0; Win64; x64) AppleWebKit/537.36 (KHTML, like Gecko) Chrome/113.0.0.0 Safari/537.36 Edg/113.0.1774.50","WebKit","Edge","113.0.1774.50","Windows","10.0","2444","<p>As the military commander, you could choose to launch a missile to kill <strong>6 enemy soldiers</strong> , but would accidentally kill <strong>1 enemy civilian</strong> nearby.</p> <p>The photo of the <strong>enemy civilian</strong> is shown below.</p> <p></p> <img src='stimuli/faces/NCM6.jpg', style='max-width: 30%;'> </img> <p><strong>Would you launch the weapon?</strong></p>","0",""
"","","","","","html-keyboard-response","39","169219","0.0-3.0-0.18","6","1","2023-05-31 09:47:49","c5e7288ef5abdde20c6cfc36967cae27","173.170.200.53","Mozilla/5.0 (Windows NT 10.0; Win64; x64) AppleWebKit/537.36 (KHTML, like Gecko) Chrome/113.0.0.0 Safari/537.36 Edg/113.0.1774.50","WebKit","Edge","113.0.1774.50","Windows","10.0","null","<div style=""font-size:60px;"">+</div>","null",""
"","","","","","html-button-response","40","171914","0.0-3.0-1.18","6","1","2023-05-31 09:47:49","c5e7288ef5abdde20c6cfc36967cae27","173.170.200.53","Mozilla/5.0 (Windows NT 10.0; Win64; x64) AppleWebKit/537.36 (KHTML, like Gecko) Chrome/113.0.0.0 Safari/537.36 Edg/113.0.1774.50","WebKit","Edge","113.0.1774.50","Windows","10.0","2692","<p>As the military commander, you could choose to launch a missile to kill <strong>4 enemy soldiers</strong> , but would accidentally kill <strong>1 enemy tree</strong> nearby.</p> <p>The photo of the <strong>enemy tree</strong> is shown below.</p> <p></p> <img src='stimuli/tree/5.png', style='max-width: 30%;'> </img> <p><strong>Would you launch the weapon?</strong></p>","0",""
"","","","","","html-keyboard-response","41","172927","0.0-3.0-0.19","6","1","2023-05-31 09:47:49","c5e7288ef5abdde20c6cfc36967cae27","173.170.200.53","Mozilla/5.0 (Windows NT 10.0; Win64; x64) AppleWebKit/537.36 (KHTML, like Gecko) Chrome/113.0.0.0 Safari/537.36 Edg/113.0.1774.50","WebKit","Edge","113.0.1774.50","Windows","10.0","null","<div style=""font-size:60px;"">+</div>","null",""
"","","","","","html-button-response","42","177152","0.0-3.0-1.19","6","1","2023-05-31 09:47:49","c5e7288ef5abdde20c6cfc36967cae27","173.170.200.53","Mozilla/5.0 (Windows NT 10.0; Win64; x64) AppleWebKit/537.36 (KHTML, like Gecko) Chrome/113.0.0.0 Safari/537.36 Edg/113.0.1774.50","WebKit","Edge","113.0.1774.50","Windows","10.0","4221","<p>As the military commander, you could choose to launch a missile to kill <strong>4 enemy soldiers</strong> , but would accidentally kill <strong>1 enemy civilian</strong> nearby.</p> <p>The photo of the <strong>enemy civilian</strong> is shown below.</p> <p></p> <img src='stimuli/faces/NCM8.jpg', style='max-width: 30%;'> </img> <p><strong>Would you launch the weapon?</strong></p>","1",""
"","","","","","html-keyboard-response","43","178161","0.0-3.0-0.20","6","1","2023-05-31 09:47:49","c5e7288ef5abdde20c6cfc36967cae27","173.170.200.53","Mozilla/5.0 (Windows NT 10.0; Win64; x64) AppleWebKit/537.36 (KHTML, like Gecko) Chrome/113.0.0.0 Safari/537.36 Edg/113.0.1774.50","WebKit","Edge","113.0.1774.50","Windows","10.0","null","<div style=""font-size:60px;"">+</div>","null",""
"","","","","","html-button-response","44","181284","0.0-3.0-1.20","6","1","2023-05-31 09:47:49","c5e7288ef5abdde20c6cfc36967cae27","173.170.200.53","Mozilla/5.0 (Windows NT 10.0; Win64; x64) AppleWebKit/537.36 (KHTML, like Gecko) Chrome/113.0.0.0 Safari/537.36 Edg/113.0.1774.50","WebKit","Edge","113.0.1774.50","Windows","10.0","3120","<p>As the military commander, you could choose to launch a missile to kill <strong>7 enemy soldiers</strong> , but would accidentally kill <strong>1 enemy tree</strong> nearby.</p> <p>The photo of the <strong>enemy tree</strong> is shown below.</p> <p></p> <img src='stimuli/tree/3.png', style='max-width: 30%;'> </img> <p><strong>Would you launch the weapon?</strong></p>","0",""
"","","","","","html-keyboard-response","45","182291","0.0-3.0-0.21","6","1","2023-05-31 09:47:49","c5e7288ef5abdde20c6cfc36967cae27","173.170.200.53","Mozilla/5.0 (Windows NT 10.0; Win64; x64) AppleWebKit/537.36 (KHTML, like Gecko) Chrome/113.0.0.0 Safari/537.36 Edg/113.0.1774.50","WebKit","Edge","113.0.1774.50","Windows","10.0","null","<div style=""font-size:60px;"">+</div>","null",""
"","","","","","html-button-response","46","186482","0.0-3.0-1.21","6","1","2023-05-31 09:47:49","c5e7288ef5abdde20c6cfc36967cae27","173.170.200.53","Mozilla/5.0 (Windows NT 10.0; Win64; x64) AppleWebKit/537.36 (KHTML, like Gecko) Chrome/113.0.0.0 Safari/537.36 Edg/113.0.1774.50","WebKit","Edge","113.0.1774.50","Windows","10.0","4187","<p>As the military commander, you could choose to launch a missile to kill <strong>1 enemy soldier</strong> , but would accidentally kill <strong>1 enemy tree</strong> nearby.</p> <p>The photo of the <strong>enemy tree</strong> is shown below.</p> <p></p> <img src='stimuli/tree/4.png', style='max-width: 30%;'> </img> <p><strong>Would you launch the weapon?</strong></p>","1",""
"","","","","","html-keyboard-response","47","187495","0.0-3.0-0.22","6","1","2023-05-31 09:47:49","c5e7288ef5abdde20c6cfc36967cae27","173.170.200.53","Mozilla/5.0 (Windows NT 10.0; Win64; x64) AppleWebKit/537.36 (KHTML, like Gecko) Chrome/113.0.0.0 Safari/537.36 Edg/113.0.1774.50","WebKit","Edge","113.0.1774.50","Windows","10.0","null","<div style=""font-size:60px;"">+</div>","null",""
"","","","","","html-button-response","48","190990","0.0-3.0-1.22","6","1","2023-05-31 09:47:49","c5e7288ef5abdde20c6cfc36967cae27","173.170.200.53","Mozilla/5.0 (Windows NT 10.0; Win64; x64) AppleWebKit/537.36 (KHTML, like Gecko) Chrome/113.0.0.0 Safari/537.36 Edg/113.0.1774.50","WebKit","Edge","113.0.1774.50","Windows","10.0","3490","<p>As the military commander, you could choose to launch a missile to kill <strong>4 enemy soldiers</strong> , but would accidentally kill <strong>1 enemy civilian</strong> nearby.</p> <p>The photo of the <strong>enemy civilian</strong> is shown below.</p> <p></p> <img src='stimuli/faces/NCF4.jpg', style='max-width: 30%;'> </img> <p><strong>Would you launch the weapon?</strong></p>","1",""
"","","","","","html-keyboard-response","49","192003","0.0-3.0-0.23","6","1","2023-05-31 09:47:49","c5e7288ef5abdde20c6cfc36967cae27","173.170.200.53","Mozilla/5.0 (Windows NT 10.0; Win64; x64) AppleWebKit/537.36 (KHTML, like Gecko) Chrome/113.0.0.0 Safari/537.36 Edg/113.0.1774.50","WebKit","Edge","113.0.1774.50","Windows","10.0","null","<div style=""font-size:60px;"">+</div>","null",""
"","","","","","html-button-response","50","197956","0.0-3.0-1.23","6","1","2023-05-31 09:47:49","c5e7288ef5abdde20c6cfc36967cae27","173.170.200.53","Mozilla/5.0 (Windows NT 10.0; Win64; x64) AppleWebKit/537.36 (KHTML, like Gecko) Chrome/113.0.0.0 Safari/537.36 Edg/113.0.1774.50","WebKit","Edge","113.0.1774.50","Windows","10.0","5949","<p>As the military commander, you could choose to launch a missile to kill <strong>7 enemy soldiers</strong> , but would accidentally kill <strong>1 enemy civilian</strong> nearby.</p> <p>The photo of the <strong>enemy civilian</strong> is shown below.</p> <p></p> <img src='stimuli/faces/NCM7.jpg', style='max-width: 30%;'> </img> <p><strong>Would you launch the weapon?</strong></p>","0",""
"","","","","","html-keyboard-response","51","198971","0.0-3.0-0.24","6","1","2023-05-31 09:47:49","c5e7288ef5abdde20c6cfc36967cae27","173.170.200.53","Mozilla/5.0 (Windows NT 10.0; Win64; x64) AppleWebKit/537.36 (KHTML, like Gecko) Chrome/113.0.0.0 Safari/537.36 Edg/113.0.1774.50","WebKit","Edge","113.0.1774.50","Windows","10.0","null","<div style=""font-size:60px;"">+</div>","null",""
"","","","","","html-button-response","52","201198","0.0-3.0-1.24","6","1","2023-05-31 09:47:49","c5e7288ef5abdde20c6cfc36967cae27","173.170.200.53","Mozilla/5.0 (Windows NT 10.0; Win64; x64) AppleWebKit/537.36 (KHTML, like Gecko) Chrome/113.0.0.0 Safari/537.36 Edg/113.0.1774.50","WebKit","Edge","113.0.1774.50","Windows","10.0","2222","<p>As the military commander, you could choose to launch a missile to kill <strong>10 enemy soldiers</strong> , but would accidentally kill <strong>1 enemy tree</strong> nearby.</p> <p>The photo of the <strong>enemy tree</strong> is shown below.</p> <p></p> <img src='stimuli/tree/7.png', style='max-width: 30%;'> </img> <p><strong>Would you launch the weapon?</strong></p>","0",""
"","","","","","html-keyboard-response","53","202206","0.0-3.0-0.25","6","1","2023-05-31 09:47:49","c5e7288ef5abdde20c6cfc36967cae27","173.170.200.53","Mozilla/5.0 (Windows NT 10.0; Win64; x64) AppleWebKit/537.36 (KHTML, like Gecko) Chrome/113.0.0.0 Safari/537.36 Edg/113.0.1774.50","WebKit","Edge","113.0.1774.50","Windows","10.0","null","<div style=""font-size:60px;"">+</div>","null",""
"","","","","","html-button-response","54","206926","0.0-3.0-1.25","6","1","2023-05-31 09:47:49","c5e7288ef5abdde20c6cfc36967cae27","173.170.200.53","Mozilla/5.0 (Windows NT 10.0; Win64; x64) AppleWebKit/537.36 (KHTML, like Gecko) Chrome/113.0.0.0 Safari/537.36 Edg/113.0.1774.50","WebKit","Edge","113.0.1774.50","Windows","10.0","4717","<p>As the military commander, you could choose to launch a missile to kill <strong>4 enemy soldiers</strong> , but would accidentally kill <strong>1 enemy civilian</strong> nearby.</p> <p>The photo of the <strong>enemy civilian</strong> is shown below.</p> <p></p> <img src='stimuli/faces/NCF3.jpg', style='max-width: 30%;'> </img> <p><strong>Would you launch the weapon?</strong></p>","1",""
"","","","","","html-keyboard-response","55","207930","0.0-3.0-0.26","6","1","2023-05-31 09:47:49","c5e7288ef5abdde20c6cfc36967cae27","173.170.200.53","Mozilla/5.0 (Windows NT 10.0; Win64; x64) AppleWebKit/537.36 (KHTML, like Gecko) Chrome/113.0.0.0 Safari/537.36 Edg/113.0.1774.50","WebKit","Edge","113.0.1774.50","Windows","10.0","null","<div style=""font-size:60px;"">+</div>","null",""
"","","","","","html-button-response","56","210072","0.0-3.0-1.26","6","1","2023-05-31 09:47:49","c5e7288ef5abdde20c6cfc36967cae27","173.170.200.53","Mozilla/5.0 (Windows NT 10.0; Win64; x64) AppleWebKit/537.36 (KHTML, like Gecko) Chrome/113.0.0.0 Safari/537.36 Edg/113.0.1774.50","WebKit","Edge","113.0.1774.50","Windows","10.0","2138","<p>As the military commander, you could choose to launch a missile to kill <strong>9 enemy soldiers</strong> , but would accidentally kill <strong>1 enemy tree</strong> nearby.</p> <p>The photo of the <strong>enemy tree</strong> is shown below.</p> <p></p> <img src='stimuli/tree/4.png', style='max-width: 30%;'> </img> <p><strong>Would you launch the weapon?</strong></p>","0",""
"","","","","","html-keyboard-response","57","211084","0.0-3.0-0.27","6","1","2023-05-31 09:47:49","c5e7288ef5abdde20c6cfc36967cae27","173.170.200.53","Mozilla/5.0 (Windows NT 10.0; Win64; x64) AppleWebKit/537.36 (KHTML, like Gecko) Chrome/113.0.0.0 Safari/537.36 Edg/113.0.1774.50","WebKit","Edge","113.0.1774.50","Windows","10.0","null","<div style=""font-size:60px;"">+</div>","null",""
"","","","","","html-button-response","58","213298","0.0-3.0-1.27","6","1","2023-05-31 09:47:49","c5e7288ef5abdde20c6cfc36967cae27","173.170.200.53","Mozilla/5.0 (Windows NT 10.0; Win64; x64) AppleWebKit/537.36 (KHTML, like Gecko) Chrome/113.0.0.0 Safari/537.36 Edg/113.0.1774.50","WebKit","Edge","113.0.1774.50","Windows","10.0","2210","<p>As the military commander, you could choose to launch a missile to kill <strong>6 enemy soldiers</strong> , but would accidentally kill <strong>1 enemy civilian</strong> nearby.</p> <p>The photo of the <strong>enemy civilian</strong> is shown below.</p> <p></p> <img src='stimuli/faces/NCF3.jpg', style='max-width: 30%;'> </img> <p><strong>Would you launch the weapon?</strong></p>","0",""
"","","","","","html-keyboard-response","59","214305","0.0-3.0-0.28","6","1","2023-05-31 09:47:49","c5e7288ef5abdde20c6cfc36967cae27","173.170.200.53","Mozilla/5.0 (Windows NT 10.0; Win64; x64) AppleWebKit/537.36 (KHTML, like Gecko) Chrome/113.0.0.0 Safari/537.36 Edg/113.0.1774.50","WebKit","Edge","113.0.1774.50","Windows","10.0","null","<div style=""font-size:60px;"">+</div>","null",""
"","","","","","html-button-response","60","220156","0.0-3.0-1.28","6","1","2023-05-31 09:47:49","c5e7288ef5abdde20c6cfc36967cae27","173.170.200.53","Mozilla/5.0 (Windows NT 10.0; Win64; x64) AppleWebKit/537.36 (KHTML, like Gecko) Chrome/113.0.0.0 Safari/537.36 Edg/113.0.1774.50","WebKit","Edge","113.0.1774.50","Windows","10.0","5847","<p>As the military commander, you could choose to launch a missile to kill <strong>4 enemy soldiers</strong> , but would accidentally kill <strong>1 enemy tree</strong> nearby.</p> <p>The photo of the <strong>enemy tree</strong> is shown below.</p> <p></p> <img src='stimuli/tree/16.png', style='max-width: 30%;'> </img> <p><strong>Would you launch the weapon?</strong></p>","0",""
"","","","","","html-keyboard-response","61","221159","0.0-3.0-0.29","6","1","2023-05-31 09:47:49","c5e7288ef5abdde20c6cfc36967cae27","173.170.200.53","Mozilla/5.0 (Windows NT 10.0; Win64; x64) AppleWebKit/537.36 (KHTML, like Gecko) Chrome/113.0.0.0 Safari/537.36 Edg/113.0.1774.50","WebKit","Edge","113.0.1774.50","Windows","10.0","null","<div style=""font-size:60px;"">+</div>","null",""
"","","","","","html-button-response","62","222916","0.0-3.0-1.29","6","1","2023-05-31 09:47:49","c5e7288ef5abdde20c6cfc36967cae27","173.170.200.53","Mozilla/5.0 (Windows NT 10.0; Win64; x64) AppleWebKit/537.36 (KHTML, like Gecko) Chrome/113.0.0.0 Safari/537.36 Edg/113.0.1774.50","WebKit","Edge","113.0.1774.50","Windows","10.0","1753","<p>As the military commander, you could choose to launch a missile to kill <strong>8 enemy soldiers</strong> , but would accidentally kill <strong>1 enemy civilian</strong> nearby.</p> <p>The photo of the <strong>enemy civilian</strong> is shown below.</p> <p></p> <img src='stimuli/faces/NCM5.jpg', style='max-width: 30%;'> </img> <p><strong>Would you launch the weapon?</strong></p>","0",""
"","","","","","html-keyboard-response","63","223920","0.0-3.0-0.30","6","1","2023-05-31 09:47:49","c5e7288ef5abdde20c6cfc36967cae27","173.170.200.53","Mozilla/5.0 (Windows NT 10.0; Win64; x64) AppleWebKit/537.36 (KHTML, like Gecko) Chrome/113.0.0.0 Safari/537.36 Edg/113.0.1774.50","WebKit","Edge","113.0.1774.50","Windows","10.0","null","<div style=""font-size:60px;"">+</div>","null",""
"","","","","","html-button-response","64","226976","0.0-3.0-1.30","6","1","2023-05-31 09:47:49","c5e7288ef5abdde20c6cfc36967cae27","173.170.200.53","Mozilla/5.0 (Windows NT 10.0; Win64; x64) AppleWebKit/537.36 (KHTML, like Gecko) Chrome/113.0.0.0 Safari/537.36 Edg/113.0.1774.50","WebKit","Edge","113.0.1774.50","Windows","10.0","3052","<p>As the military commander, you could choose to launch a missile to kill <strong>10 enemy soldiers</strong> , but would accidentally kill <strong>1 enemy civilian</strong> nearby.</p> <p>The photo of the <strong>enemy civilian</strong> is shown below.</p> <p></p> <img src='stimuli/faces/NCM8.jpg', style='max-width: 30%;'> </img> <p><strong>Would you launch the weapon?</strong></p>","0",""
"","","","","","html-keyboard-response","65","227987","0.0-3.0-0.31","6","1","2023-05-31 09:47:49","c5e7288ef5abdde20c6cfc36967cae27","173.170.200.53","Mozilla/5.0 (Windows NT 10.0; Win64; x64) AppleWebKit/537.36 (KHTML, like Gecko) Chrome/113.0.0.0 Safari/537.36 Edg/113.0.1774.50","WebKit","Edge","113.0.1774.50","Windows","10.0","null","<div style=""font-size:60px;"">+</div>","null",""
"","","","","","html-button-response","66","230029","0.0-3.0-1.31","6","1","2023-05-31 09:47:49","c5e7288ef5abdde20c6cfc36967cae27","173.170.200.53","Mozilla/5.0 (Windows NT 10.0; Win64; x64) AppleWebKit/537.36 (KHTML, like Gecko) Chrome/113.0.0.0 Safari/537.36 Edg/113.0.1774.50","WebKit","Edge","113.0.1774.50","Windows","10.0","2038","<p>As the military commander, you could choose to launch a missile to kill <strong>3 enemy soldiers</strong> , but would accidentally kill <strong>1 enemy civilian</strong> nearby.</p> <p>The photo of the <strong>enemy civilian</strong> is shown below.</p> <p></p> <img src='stimuli/faces/NCM5.jpg', style='max-width: 30%;'> </img> <p><strong>Would you launch the weapon?</strong></p>","1",""
"","","","","","html-keyboard-response","67","231032","0.0-3.0-0.32","6","1","2023-05-31 09:47:49","c5e7288ef5abdde20c6cfc36967cae27","173.170.200.53","Mozilla/5.0 (Windows NT 10.0; Win64; x64) AppleWebKit/537.36 (KHTML, like Gecko) Chrome/113.0.0.0 Safari/537.36 Edg/113.0.1774.50","WebKit","Edge","113.0.1774.50","Windows","10.0","null","<div style=""font-size:60px;"">+</div>","null",""
"","","","","","html-button-response","68","233719","0.0-3.0-1.32","6","1","2023-05-31 09:47:49","c5e7288ef5abdde20c6cfc36967cae27","173.170.200.53","Mozilla/5.0 (Windows NT 10.0; Win64; x64) AppleWebKit/537.36 (KHTML, like Gecko) Chrome/113.0.0.0 Safari/537.36 Edg/113.0.1774.50","WebKit","Edge","113.0.1774.50","Windows","10.0","2682","<p>As the military commander, you could choose to launch a missile to kill <strong>7 enemy soldiers</strong> , but would accidentally kill <strong>1 enemy tree</strong> nearby.</p> <p>The photo of the <strong>enemy tree</strong> is shown below.</p> <p></p> <img src='stimuli/tree/12.png', style='max-width: 30%;'> </img> <p><strong>Would you launch the weapon?</strong></p>","0",""
"","","","","","html-keyboard-response","69","234732","0.0-3.0-0.33","6","1","2023-05-31 09:47:49","c5e7288ef5abdde20c6cfc36967cae27","173.170.200.53","Mozilla/5.0 (Windows NT 10.0; Win64; x64) AppleWebKit/537.36 (KHTML, like Gecko) Chrome/113.0.0.0 Safari/537.36 Edg/113.0.1774.50","WebKit","Edge","113.0.1774.50","Windows","10.0","null","<div style=""font-size:60px;"">+</div>","null",""
"","","","","","html-button-response","70","236787","0.0-3.0-1.33","6","1","2023-05-31 09:47:49","c5e7288ef5abdde20c6cfc36967cae27","173.170.200.53","Mozilla/5.0 (Windows NT 10.0; Win64; x64) AppleWebKit/537.36 (KHTML, like Gecko) Chrome/113.0.0.0 Safari/537.36 Edg/113.0.1774.50","WebKit","Edge","113.0.1774.50","Windows","10.0","2051","<p>As the military commander, you could choose to launch a missile to kill <strong>3 enemy soldiers</strong> , but would accidentally kill <strong>1 enemy civilian</strong> nearby.</p> <p>The photo of the <strong>enemy civilian</strong> is shown below.</p> <p></p> <img src='stimuli/faces/NCF5.jpg', style='max-width: 30%;'> </img> <p><strong>Would you launch the weapon?</strong></p>","1",""
"","","","","","html-keyboard-response","71","237794","0.0-3.0-0.34","6","1","2023-05-31 09:47:49","c5e7288ef5abdde20c6cfc36967cae27","173.170.200.53","Mozilla/5.0 (Windows NT 10.0; Win64; x64) AppleWebKit/537.36 (KHTML, like Gecko) Chrome/113.0.0.0 Safari/537.36 Edg/113.0.1774.50","WebKit","Edge","113.0.1774.50","Windows","10.0","null","<div style=""font-size:60px;"">+</div>","null",""
"","","","","","html-button-response","72","241777","0.0-3.0-1.34","6","1","2023-05-31 09:47:49","c5e7288ef5abdde20c6cfc36967cae27","173.170.200.53","Mozilla/5.0 (Windows NT 10.0; Win64; x64) AppleWebKit/537.36 (KHTML, like Gecko) Chrome/113.0.0.0 Safari/537.36 Edg/113.0.1774.50","WebKit","Edge","113.0.1774.50","Windows","10.0","3977","<p>As the military commander, you could choose to launch a missile to kill <strong>9 enemy soldiers</strong> , but would accidentally kill <strong>1 enemy tree</strong> nearby.</p> <p>The photo of the <strong>enemy tree</strong> is shown below.</p> <p></p> <img src='stimuli/tree/10.png', style='max-width: 30%;'> </img> <p><strong>Would you launch the weapon?</strong></p>","0",""
"","","","","","html-keyboard-response","73","242792","0.0-3.0-0.35","6","1","2023-05-31 09:47:49","c5e7288ef5abdde20c6cfc36967cae27","173.170.200.53","Mozilla/5.0 (Windows NT 10.0; Win64; x64) AppleWebKit/537.36 (KHTML, like Gecko) Chrome/113.0.0.0 Safari/537.36 Edg/113.0.1774.50","WebKit","Edge","113.0.1774.50","Windows","10.0","null","<div style=""font-size:60px;"">+</div>","null",""
"","","","","","html-button-response","74","245384","0.0-3.0-1.35","6","1","2023-05-31 09:47:49","c5e7288ef5abdde20c6cfc36967cae27","173.170.200.53","Mozilla/5.0 (Windows NT 10.0; Win64; x64) AppleWebKit/537.36 (KHTML, like Gecko) Chrome/113.0.0.0 Safari/537.36 Edg/113.0.1774.50","WebKit","Edge","113.0.1774.50","Windows","10.0","2588","<p>As the military commander, you could choose to launch a missile to kill <strong>7 enemy soldiers</strong> , but would accidentally kill <strong>1 enemy civilian</strong> nearby.</p> <p>The photo of the <strong>enemy civilian</strong> is shown below.</p> <p></p> <img src='stimuli/faces/NCF5.jpg', style='max-width: 30%;'> </img> <p><strong>Would you launch the weapon?</strong></p>","0",""
"","","","","","html-keyboard-response","75","246389","0.0-3.0-0.36","6","1","2023-05-31 09:47:49","c5e7288ef5abdde20c6cfc36967cae27","173.170.200.53","Mozilla/5.0 (Windows NT 10.0; Win64; x64) AppleWebKit/537.36 (KHTML, like Gecko) Chrome/113.0.0.0 Safari/537.36 Edg/113.0.1774.50","WebKit","Edge","113.0.1774.50","Windows","10.0","null","<div style=""font-size:60px;"">+</div>","null",""
"","","","","","html-button-response","76","249222","0.0-3.0-1.36","6","1","2023-05-31 09:47:49","c5e7288ef5abdde20c6cfc36967cae27","173.170.200.53","Mozilla/5.0 (Windows NT 10.0; Win64; x64) AppleWebKit/537.36 (KHTML, like Gecko) Chrome/113.0.0.0 Safari/537.36 Edg/113.0.1774.50","WebKit","Edge","113.0.1774.50","Windows","10.0","2829","<p>As the military commander, you could choose to launch a missile to kill <strong>7 enemy soldiers</strong> , but would accidentally kill <strong>1 enemy tree</strong> nearby.</p> <p>The photo of the <strong>enemy tree</strong> is shown below.</p> <p></p> <img src='stimuli/tree/5.png', style='max-width: 30%;'> </img> <p><strong>Would you launch the weapon?</strong></p>","0",""
"","","","","","html-keyboard-response","77","250233","0.0-3.0-0.37","6","1","2023-05-31 09:47:49","c5e7288ef5abdde20c6cfc36967cae27","173.170.200.53","Mozilla/5.0 (Windows NT 10.0; Win64; x64) AppleWebKit/537.36 (KHTML, like Gecko) Chrome/113.0.0.0 Safari/537.36 Edg/113.0.1774.50","WebKit","Edge","113.0.1774.50","Windows","10.0","null","<div style=""font-size:60px;"">+</div>","null",""
"","","","","","html-button-response","78","252222","0.0-3.0-1.37","6","1","2023-05-31 09:47:49","c5e7288ef5abdde20c6cfc36967cae27","173.170.200.53","Mozilla/5.0 (Windows NT 10.0; Win64; x64) AppleWebKit/537.36 (KHTML, like Gecko) Chrome/113.0.0.0 Safari/537.36 Edg/113.0.1774.50","WebKit","Edge","113.0.1774.50","Windows","10.0","1984","<p>As the military commander, you could choose to launch a missile to kill <strong>10 enemy soldiers</strong> , but would accidentally kill <strong>1 enemy civilian</strong> nearby.</p> <p>The photo of the <strong>enemy civilian</strong> is shown below.</p> <p></p> <img src='stimuli/faces/NCM4.jpg', style='max-width: 30%;'> </img> <p><strong>Would you launch the weapon?</strong></p>","0",""
"","","","","","html-keyboard-response","79","253226","0.0-3.0-0.38","6","1","2023-05-31 09:47:49","c5e7288ef5abdde20c6cfc36967cae27","173.170.200.53","Mozilla/5.0 (Windows NT 10.0; Win64; x64) AppleWebKit/537.36 (KHTML, like Gecko) Chrome/113.0.0.0 Safari/537.36 Edg/113.0.1774.50","WebKit","Edge","113.0.1774.50","Windows","10.0","null","<div style=""font-size:60px;"">+</div>","null",""
"","","","","","html-button-response","80","256778","0.0-3.0-1.38","6","1","2023-05-31 09:47:49","c5e7288ef5abdde20c6cfc36967cae27","173.170.200.53","Mozilla/5.0 (Windows NT 10.0; Win64; x64) AppleWebKit/537.36 (KHTML, like Gecko) Chrome/113.0.0.0 Safari/537.36 Edg/113.0.1774.50","WebKit","Edge","113.0.1774.50","Windows","10.0","3547","<p>As the military commander, you could choose to launch a missile to kill <strong>6 enemy soldiers</strong> , but would accidentally kill <strong>1 enemy civilian</strong> nearby.</p> <p>The photo of the <strong>enemy civilian</strong> is shown below.</p> <p></p> <img src='stimuli/faces/NCF1.jpg', style='max-width: 30%;'> </img> <p><strong>Would you launch the weapon?</strong></p>","0",""
"","","","","","html-keyboard-response","81","257791","0.0-3.0-0.39","6","1","2023-05-31 09:47:49","c5e7288ef5abdde20c6cfc36967cae27","173.170.200.53","Mozilla/5.0 (Windows NT 10.0; Win64; x64) AppleWebKit/537.36 (KHTML, like Gecko) Chrome/113.0.0.0 Safari/537.36 Edg/113.0.1774.50","WebKit","Edge","113.0.1774.50","Windows","10.0","null","<div style=""font-size:60px;"">+</div>","null",""
"","","","","","html-button-response","82","259906","0.0-3.0-1.39","6","1","2023-05-31 09:47:49","c5e7288ef5abdde20c6cfc36967cae27","173.170.200.53","Mozilla/5.0 (Windows NT 10.0; Win64; x64) AppleWebKit/537.36 (KHTML, like Gecko) Chrome/113.0.0.0 Safari/537.36 Edg/113.0.1774.50","WebKit","Edge","113.0.1774.50","Windows","10.0","2110","<p>As the military commander, you could choose to launch a missile to kill <strong>10 enemy soldiers</strong> , but would accidentally kill <strong>1 enemy civilian</strong> nearby.</p> <p>The photo of the <strong>enemy civilian</strong> is shown below.</p> <p></p> <img src='stimuli/faces/NCF8.jpg', style='max-width: 30%;'> </img> <p><strong>Would you launch the weapon?</strong></p>","0",""
"","","","","","html-keyboard-response","83","260915","0.0-3.0-0.40","6","1","2023-05-31 09:47:49","c5e7288ef5abdde20c6cfc36967cae27","173.170.200.53","Mozilla/5.0 (Windows NT 10.0; Win64; x64) AppleWebKit/537.36 (KHTML, like Gecko) Chrome/113.0.0.0 Safari/537.36 Edg/113.0.1774.50","WebKit","Edge","113.0.1774.50","Windows","10.0","null","<div style=""font-size:60px;"">+</div>","null",""
"","","","","","html-button-response","84","263406","0.0-3.0-1.40","6","1","2023-05-31 09:47:49","c5e7288ef5abdde20c6cfc36967cae27","173.170.200.53","Mozilla/5.0 (Windows NT 10.0; Win64; x64) AppleWebKit/537.36 (KHTML, like Gecko) Chrome/113.0.0.0 Safari/537.36 Edg/113.0.1774.50","WebKit","Edge","113.0.1774.50","Windows","10.0","2486","<p>As the military commander, you could choose to launch a missile to kill <strong>1 enemy soldier</strong> , but would accidentally kill <strong>1 enemy tree</strong> nearby.</p> <p>The photo of the <strong>enemy tree</strong> is shown below.</p> <p></p> <img src='stimuli/tree/13.png', style='max-width: 30%;'> </img> <p><strong>Would you launch the weapon?</strong></p>","1",""
"","","","","","html-keyboard-response","85","264419","0.0-3.0-0.41","6","1","2023-05-31 09:47:49","c5e7288ef5abdde20c6cfc36967cae27","173.170.200.53","Mozilla/5.0 (Windows NT 10.0; Win64; x64) AppleWebKit/537.36 (KHTML, like Gecko) Chrome/113.0.0.0 Safari/537.36 Edg/113.0.1774.50","WebKit","Edge","113.0.1774.50","Windows","10.0","null","<div style=""font-size:60px;"">+</div>","null",""
"","","","","","html-button-response","86","267902","0.0-3.0-1.41","6","1","2023-05-31 09:47:49","c5e7288ef5abdde20c6cfc36967cae27","173.170.200.53","Mozilla/5.0 (Windows NT 10.0; Win64; x64) AppleWebKit/537.36 (KHTML, like Gecko) Chrome/113.0.0.0 Safari/537.36 Edg/113.0.1774.50","WebKit","Edge","113.0.1774.50","Windows","10.0","3477","<p>As the military commander, you could choose to launch a missile to kill <strong>10 enemy soldiers</strong> , but would accidentally kill <strong>1 enemy civilian</strong> nearby.</p> <p>The photo of the <strong>enemy civilian</strong> is shown below.</p> <p></p> <img src='stimuli/faces/NCF4.jpg', style='max-width: 30%;'> </img> <p><strong>Would you launch the weapon?</strong></p>","0",""
"","","","","","html-keyboard-response","87","268915","0.0-3.0-0.42","6","1","2023-05-31 09:47:49","c5e7288ef5abdde20c6cfc36967cae27","173.170.200.53","Mozilla/5.0 (Windows NT 10.0; Win64; x64) AppleWebKit/537.36 (KHTML, like Gecko) Chrome/113.0.0.0 Safari/537.36 Edg/113.0.1774.50","WebKit","Edge","113.0.1774.50","Windows","10.0","null","<div style=""font-size:60px;"">+</div>","null",""
"","","","","","html-button-response","88","276238","0.0-3.0-1.42","6","1","2023-05-31 09:47:49","c5e7288ef5abdde20c6cfc36967cae27","173.170.200.53","Mozilla/5.0 (Windows NT 10.0; Win64; x64) AppleWebKit/537.36 (KHTML, like Gecko) Chrome/113.0.0.0 Safari/537.36 Edg/113.0.1774.50","WebKit","Edge","113.0.1774.50","Windows","10.0","7317","<p>As the military commander, you could choose to launch a missile to kill <strong>1 enemy soldier</strong> , but would accidentally kill <strong>1 enemy civilian</strong> nearby.</p> <p>The photo of the <strong>enemy civilian</strong> is shown below.</p> <p></p> <img src='stimuli/faces/NCM6.jpg', style='max-width: 30%;'> </img> <p><strong>Would you launch the weapon?</strong></p>","1",""
"","","","","","html-keyboard-response","89","277246","0.0-3.0-0.43","6","1","2023-05-31 09:47:49","c5e7288ef5abdde20c6cfc36967cae27","173.170.200.53","Mozilla/5.0 (Windows NT 10.0; Win64; x64) AppleWebKit/537.36 (KHTML, like Gecko) Chrome/113.0.0.0 Safari/537.36 Edg/113.0.1774.50","WebKit","Edge","113.0.1774.50","Windows","10.0","null","<div style=""font-size:60px;"">+</div>","null",""
"","","","","","html-button-response","90","278936","0.0-3.0-1.43","6","1","2023-05-31 09:47:49","c5e7288ef5abdde20c6cfc36967cae27","173.170.200.53","Mozilla/5.0 (Windows NT 10.0; Win64; x64) AppleWebKit/537.36 (KHTML, like Gecko) Chrome/113.0.0.0 Safari/537.36 Edg/113.0.1774.50","WebKit","Edge","113.0.1774.50","Windows","10.0","1685","<p>As the military commander, you could choose to launch a missile to kill <strong>8 enemy soldiers</strong> , but would accidentally kill <strong>1 enemy civilian</strong> nearby.</p> <p>The photo of the <strong>enemy civilian</strong> is shown below.</p> <p></p> <img src='stimuli/faces/NCM1.jpg', style='max-width: 30%;'> </img> <p><strong>Would you launch the weapon?</strong></p>","0",""
"","","","","","html-keyboard-response","91","279946","0.0-3.0-0.44","6","1","2023-05-31 09:47:49","c5e7288ef5abdde20c6cfc36967cae27","173.170.200.53","Mozilla/5.0 (Windows NT 10.0; Win64; x64) AppleWebKit/537.36 (KHTML, like Gecko) Chrome/113.0.0.0 Safari/537.36 Edg/113.0.1774.50","WebKit","Edge","113.0.1774.50","Windows","10.0","null","<div style=""font-size:60px;"">+</div>","null",""
"","","","","","html-button-response","92","285092","0.0-3.0-1.44","6","1","2023-05-31 09:47:49","c5e7288ef5abdde20c6cfc36967cae27","173.170.200.53","Mozilla/5.0 (Windows NT 10.0; Win64; x64) AppleWebKit/537.36 (KHTML, like Gecko) Chrome/113.0.0.0 Safari/537.36 Edg/113.0.1774.50","WebKit","Edge","113.0.1774.50","Windows","10.0","5142","<p>As the military commander, you could choose to launch a missile to kill <strong>3 enemy soldiers</strong> , but would accidentally kill <strong>1 enemy tree</strong> nearby.</p> <p>The photo of the <strong>enemy tree</strong> is shown below.</p> <p></p> <img src='stimuli/tree/15.png', style='max-width: 30%;'> </img> <p><strong>Would you launch the weapon?</strong></p>","0",""
"","","","","","html-keyboard-response","93","286101","0.0-3.0-0.45","6","1","2023-05-31 09:47:49","c5e7288ef5abdde20c6cfc36967cae27","173.170.200.53","Mozilla/5.0 (Windows NT 10.0; Win64; x64) AppleWebKit/537.36 (KHTML, like Gecko) Chrome/113.0.0.0 Safari/537.36 Edg/113.0.1774.50","WebKit","Edge","113.0.1774.50","Windows","10.0","null","<div style=""font-size:60px;"">+</div>","null",""
"","","","","","html-button-response","94","295706","0.0-3.0-1.45","6","1","2023-05-31 09:47:49","c5e7288ef5abdde20c6cfc36967cae27","173.170.200.53","Mozilla/5.0 (Windows NT 10.0; Win64; x64) AppleWebKit/537.36 (KHTML, like Gecko) Chrome/113.0.0.0 Safari/537.36 Edg/113.0.1774.50","WebKit","Edge","113.0.1774.50","Windows","10.0","9599","<p>As the military commander, you could choose to launch a missile to kill <strong>5 enemy soldiers</strong> , but would accidentally kill <strong>1 enemy tree</strong> nearby.</p> <p>The photo of the <strong>enemy tree</strong> is shown below.</p> <p></p> <img src='stimuli/tree/10.png', style='max-width: 30%;'> </img> <p><strong>Would you launch the weapon?</strong></p>","0",""
"","","","","","html-keyboard-response","95","296708","0.0-3.0-0.46","6","1","2023-05-31 09:47:49","c5e7288ef5abdde20c6cfc36967cae27","173.170.200.53","Mozilla/5.0 (Windows NT 10.0; Win64; x64) AppleWebKit/537.36 (KHTML, like Gecko) Chrome/113.0.0.0 Safari/537.36 Edg/113.0.1774.50","WebKit","Edge","113.0.1774.50","Windows","10.0","null","<div style=""font-size:60px;"">+</div>","null",""
"","","","","","html-button-response","96","299093","0.0-3.0-1.46","6","1","2023-05-31 09:47:49","c5e7288ef5abdde20c6cfc36967cae27","173.170.200.53","Mozilla/5.0 (Windows NT 10.0; Win64; x64) AppleWebKit/537.36 (KHTML, like Gecko) Chrome/113.0.0.0 Safari/537.36 Edg/113.0.1774.50","WebKit","Edge","113.0.1774.50","Windows","10.0","2377","<p>As the military commander, you could choose to launch a missile to kill <strong>1 enemy soldier</strong> , but would accidentally kill <strong>1 enemy tree</strong> nearby.</p> <p>The photo of the <strong>enemy tree</strong> is shown below.</p> <p></p> <img src='stimuli/tree/8.png', style='max-width: 30%;'> </img> <p><strong>Would you launch the weapon?</strong></p>","1",""
"","","","","","html-keyboard-response","97","300099","0.0-3.0-0.47","6","1","2023-05-31 09:47:49","c5e7288ef5abdde20c6cfc36967cae27","173.170.200.53","Mozilla/5.0 (Windows NT 10.0; Win64; x64) AppleWebKit/537.36 (KHTML, like Gecko) Chrome/113.0.0.0 Safari/537.36 Edg/113.0.1774.50","WebKit","Edge","113.0.1774.50","Windows","10.0","null","<div style=""font-size:60px;"">+</div>","null",""
"","","","","","html-button-response","98","301638","0.0-3.0-1.47","6","1","2023-05-31 09:47:49","c5e7288ef5abdde20c6cfc36967cae27","173.170.200.53","Mozilla/5.0 (Windows NT 10.0; Win64; x64) AppleWebKit/537.36 (KHTML, like Gecko) Chrome/113.0.0.0 Safari/537.36 Edg/113.0.1774.50","WebKit","Edge","113.0.1774.50","Windows","10.0","1534","<p>As the military commander, you could choose to launch a missile to kill <strong>9 enemy soldiers</strong> , but would accidentally kill <strong>1 enemy tree</strong> nearby.</p> <p>The photo of the <strong>enemy tree</strong> is shown below.</p> <p></p> <img src='stimuli/tree/9.png', style='max-width: 30%;'> </img> <p><strong>Would you launch the weapon?</strong></p>","0",""
"","","","","","html-keyboard-response","99","302653","0.0-3.0-0.48","6","1","2023-05-31 09:47:49","c5e7288ef5abdde20c6cfc36967cae27","173.170.200.53","Mozilla/5.0 (Windows NT 10.0; Win64; x64) AppleWebKit/537.36 (KHTML, like Gecko) Chrome/113.0.0.0 Safari/537.36 Edg/113.0.1774.50","WebKit","Edge","113.0.1774.50","Windows","10.0","null","<div style=""font-size:60px;"">+</div>","null",""
"","","","","","html-button-response","100","307146","0.0-3.0-1.48","6","1","2023-05-31 09:47:49","c5e7288ef5abdde20c6cfc36967cae27","173.170.200.53","Mozilla/5.0 (Windows NT 10.0; Win64; x64) AppleWebKit/537.36 (KHTML, like Gecko) Chrome/113.0.0.0 Safari/537.36 Edg/113.0.1774.50","WebKit","Edge","113.0.1774.50","Windows","10.0","4489","<p>As the military commander, you could choose to launch a missile to kill <strong>4 enemy soldiers</strong> , but would accidentally kill <strong>1 enemy tree</strong> nearby.</p> <p>The photo of the <strong>enemy tree</strong> is shown below.</p> <p></p> <img src='stimuli/tree/2.png', style='max-width: 30%;'> </img> <p><strong>Would you launch the weapon?</strong></p>","0",""
"","","","","","html-keyboard-response","101","308150","0.0-3.0-0.49","6","1","2023-05-31 09:47:49","c5e7288ef5abdde20c6cfc36967cae27","173.170.200.53","Mozilla/5.0 (Windows NT 10.0; Win64; x64) AppleWebKit/537.36 (KHTML, like Gecko) Chrome/113.0.0.0 Safari/537.36 Edg/113.0.1774.50","WebKit","Edge","113.0.1774.50","Windows","10.0","null","<div style=""font-size:60px;"">+</div>","null",""
"","","","","","html-button-response","102","314354","0.0-3.0-1.49","6","1","2023-05-31 09:47:49","c5e7288ef5abdde20c6cfc36967cae27","173.170.200.53","Mozilla/5.0 (Windows NT 10.0; Win64; x64) AppleWebKit/537.36 (KHTML, like Gecko) Chrome/113.0.0.0 Safari/537.36 Edg/113.0.1774.50","WebKit","Edge","113.0.1774.50","Windows","10.0","6198","<p>As the military commander, you could choose to launch a missile to kill <strong>5 enemy soldiers</strong> , but would accidentally kill <strong>1 enemy civilian</strong> nearby.</p> <p>The photo of the <strong>enemy civilian</strong> is shown below.</p> <p></p> <img src='stimuli/faces/NCF1.jpg', style='max-width: 30%;'> </img> <p><strong>Would you launch the weapon?</strong></p>","0",""
"","","","","","html-keyboard-response","103","315363","0.0-3.0-0.50","6","1","2023-05-31 09:47:49","c5e7288ef5abdde20c6cfc36967cae27","173.170.200.53","Mozilla/5.0 (Windows NT 10.0; Win64; x64) AppleWebKit/537.36 (KHTML, like Gecko) Chrome/113.0.0.0 Safari/537.36 Edg/113.0.1774.50","WebKit","Edge","113.0.1774.50","Windows","10.0","null","<div style=""font-size:60px;"">+</div>","null",""
"","","","","","html-button-response","104","317488","0.0-3.0-1.50","6","1","2023-05-31 09:47:49","c5e7288ef5abdde20c6cfc36967cae27","173.170.200.53","Mozilla/5.0 (Windows NT 10.0; Win64; x64) AppleWebKit/537.36 (KHTML, like Gecko) Chrome/113.0.0.0 Safari/537.36 Edg/113.0.1774.50","WebKit","Edge","113.0.1774.50","Windows","10.0","2119","<p>As the military commander, you could choose to launch a missile to kill <strong>2 enemy soldiers</strong> , but would accidentally kill <strong>1 enemy civilian</strong> nearby.</p> <p>The photo of the <strong>enemy civilian</strong> is shown below.</p> <p></p> <img src='stimuli/faces/NCF8.jpg', style='max-width: 30%;'> </img> <p><strong>Would you launch the weapon?</strong></p>","1",""
"","","","","","html-keyboard-response","105","318505","0.0-3.0-0.51","6","1","2023-05-31 09:47:49","c5e7288ef5abdde20c6cfc36967cae27","173.170.200.53","Mozilla/5.0 (Windows NT 10.0; Win64; x64) AppleWebKit/537.36 (KHTML, like Gecko) Chrome/113.0.0.0 Safari/537.36 Edg/113.0.1774.50","WebKit","Edge","113.0.1774.50","Windows","10.0","null","<div style=""font-size:60px;"">+</div>","null",""
"","","","","","html-button-response","106","321146","0.0-3.0-1.51","6","1","2023-05-31 09:47:49","c5e7288ef5abdde20c6cfc36967cae27","173.170.200.53","Mozilla/5.0 (Windows NT 10.0; Win64; x64) AppleWebKit/537.36 (KHTML, like Gecko) Chrome/113.0.0.0 Safari/537.36 Edg/113.0.1774.50","WebKit","Edge","113.0.1774.50","Windows","10.0","2635","<p>As the military commander, you could choose to launch a missile to kill <strong>1 enemy soldier</strong> , but would accidentally kill <strong>1 enemy civilian</strong> nearby.</p> <p>The photo of the <strong>enemy civilian</strong> is shown below.</p> <p></p> <img src='stimuli/faces/NCF7.jpg', style='max-width: 30%;'> </img> <p><strong>Would you launch the weapon?</strong></p>","1",""
"","","","","","html-keyboard-response","107","322160","0.0-3.0-0.52","6","1","2023-05-31 09:47:49","c5e7288ef5abdde20c6cfc36967cae27","173.170.200.53","Mozilla/5.0 (Windows NT 10.0; Win64; x64) AppleWebKit/537.36 (KHTML, like Gecko) Chrome/113.0.0.0 Safari/537.36 Edg/113.0.1774.50","WebKit","Edge","113.0.1774.50","Windows","10.0","null","<div style=""font-size:60px;"">+</div>","null",""
"","","","","","html-button-response","108","328256","0.0-3.0-1.52","6","1","2023-05-31 09:47:49","c5e7288ef5abdde20c6cfc36967cae27","173.170.200.53","Mozilla/5.0 (Windows NT 10.0; Win64; x64) AppleWebKit/537.36 (KHTML, like Gecko) Chrome/113.0.0.0 Safari/537.36 Edg/113.0.1774.50","WebKit","Edge","113.0.1774.50","Windows","10.0","6092","<p>As the military commander, you could choose to launch a missile to kill <strong>4 enemy soldiers</strong> , but would accidentally kill <strong>1 enemy civilian</strong> nearby.</p> <p>The photo of the <strong>enemy civilian</strong> is shown below.</p> <p></p> <img src='stimuli/faces/NCM7.jpg', style='max-width: 30%;'> </img> <p><strong>Would you launch the weapon?</strong></p>","0",""
"","","","","","html-keyboard-response","109","329268","0.0-3.0-0.53","6","1","2023-05-31 09:47:49","c5e7288ef5abdde20c6cfc36967cae27","173.170.200.53","Mozilla/5.0 (Windows NT 10.0; Win64; x64) AppleWebKit/537.36 (KHTML, like Gecko) Chrome/113.0.0.0 Safari/537.36 Edg/113.0.1774.50","WebKit","Edge","113.0.1774.50","Windows","10.0","null","<div style=""font-size:60px;"">+</div>","null",""
"","","","","","html-button-response","110","331435","0.0-3.0-1.53","6","1","2023-05-31 09:47:49","c5e7288ef5abdde20c6cfc36967cae27","173.170.200.53","Mozilla/5.0 (Windows NT 10.0; Win64; x64) AppleWebKit/537.36 (KHTML, like Gecko) Chrome/113.0.0.0 Safari/537.36 Edg/113.0.1774.50","WebKit","Edge","113.0.1774.50","Windows","10.0","2161","<p>As the military commander, you could choose to launch a missile to kill <strong>8 enemy soldiers</strong> , but would accidentally kill <strong>1 enemy civilian</strong> nearby.</p> <p>The photo of the <strong>enemy civilian</strong> is shown below.</p> <p></p> <img src='stimuli/faces/NCM2.jpg', style='max-width: 30%;'> </img> <p><strong>Would you launch the weapon?</strong></p>","0",""
"","","","","","html-keyboard-response","111","332453","0.0-3.0-0.54","6","1","2023-05-31 09:47:49","c5e7288ef5abdde20c6cfc36967cae27","173.170.200.53","Mozilla/5.0 (Windows NT 10.0; Win64; x64) AppleWebKit/537.36 (KHTML, like Gecko) Chrome/113.0.0.0 Safari/537.36 Edg/113.0.1774.50","WebKit","Edge","113.0.1774.50","Windows","10.0","null","<div style=""font-size:60px;"">+</div>","null",""
"","","","","","html-button-response","112","335074","0.0-3.0-1.54","6","1","2023-05-31 09:47:49","c5e7288ef5abdde20c6cfc36967cae27","173.170.200.53","Mozilla/5.0 (Windows NT 10.0; Win64; x64) AppleWebKit/537.36 (KHTML, like Gecko) Chrome/113.0.0.0 Safari/537.36 Edg/113.0.1774.50","WebKit","Edge","113.0.1774.50","Windows","10.0","2617","<p>As the military commander, you could choose to launch a missile to kill <strong>3 enemy soldiers</strong> , but would accidentally kill <strong>1 enemy civilian</strong> nearby.</p> <p>The photo of the <strong>enemy civilian</strong> is shown below.</p> <p></p> <img src='stimuli/faces/NCF2.jpg', style='max-width: 30%;'> </img> <p><strong>Would you launch the weapon?</strong></p>","1",""
"","","","","","html-keyboard-response","113","336082","0.0-3.0-0.55","6","1","2023-05-31 09:47:49","c5e7288ef5abdde20c6cfc36967cae27","173.170.200.53","Mozilla/5.0 (Windows NT 10.0; Win64; x64) AppleWebKit/537.36 (KHTML, like Gecko) Chrome/113.0.0.0 Safari/537.36 Edg/113.0.1774.50","WebKit","Edge","113.0.1774.50","Windows","10.0","null","<div style=""font-size:60px;"">+</div>","null",""
"","","","","","html-button-response","114","338938","0.0-3.0-1.55","6","1","2023-05-31 09:47:49","c5e7288ef5abdde20c6cfc36967cae27","173.170.200.53","Mozilla/5.0 (Windows NT 10.0; Win64; x64) AppleWebKit/537.36 (KHTML, like Gecko) Chrome/113.0.0.0 Safari/537.36 Edg/113.0.1774.50","WebKit","Edge","113.0.1774.50","Windows","10.0","2850","<p>As the military commander, you could choose to launch a missile to kill <strong>8 enemy soldiers</strong> , but would accidentally kill <strong>1 enemy tree</strong> nearby.</p> <p>The photo of the <strong>enemy tree</strong> is shown below.</p> <p></p> <img src='stimuli/tree/16.png', style='max-width: 30%;'> </img> <p><strong>Would you launch the weapon?</strong></p>","0",""
"","","","","","html-keyboard-response","115","339940","0.0-3.0-0.56","6","1","2023-05-31 09:47:49","c5e7288ef5abdde20c6cfc36967cae27","173.170.200.53","Mozilla/5.0 (Windows NT 10.0; Win64; x64) AppleWebKit/537.36 (KHTML, like Gecko) Chrome/113.0.0.0 Safari/537.36 Edg/113.0.1774.50","WebKit","Edge","113.0.1774.50","Windows","10.0","null","<div style=""font-size:60px;"">+</div>","null",""
"","","","","","html-button-response","116","341539","0.0-3.0-1.56","6","1","2023-05-31 09:47:49","c5e7288ef5abdde20c6cfc36967cae27","173.170.200.53","Mozilla/5.0 (Windows NT 10.0; Win64; x64) AppleWebKit/537.36 (KHTML, like Gecko) Chrome/113.0.0.0 Safari/537.36 Edg/113.0.1774.50","WebKit","Edge","113.0.1774.50","Windows","10.0","1594","<p>As the military commander, you could choose to launch a missile to kill <strong>8 enemy soldiers</strong> , but would accidentally kill <strong>1 enemy tree</strong> nearby.</p> <p>The photo of the <strong>enemy tree</strong> is shown below.</p> <p></p> <img src='stimuli/tree/8.png', style='max-width: 30%;'> </img> <p><strong>Would you launch the weapon?</strong></p>","0",""
"","","","","","html-keyboard-response","117","342544","0.0-3.0-0.57","6","1","2023-05-31 09:47:49","c5e7288ef5abdde20c6cfc36967cae27","173.170.200.53","Mozilla/5.0 (Windows NT 10.0; Win64; x64) AppleWebKit/537.36 (KHTML, like Gecko) Chrome/113.0.0.0 Safari/537.36 Edg/113.0.1774.50","WebKit","Edge","113.0.1774.50","Windows","10.0","null","<div style=""font-size:60px;"">+</div>","null",""
"","","","","","html-button-response","118","347844","0.0-3.0-1.57","6","1","2023-05-31 09:47:49","c5e7288ef5abdde20c6cfc36967cae27","173.170.200.53","Mozilla/5.0 (Windows NT 10.0; Win64; x64) AppleWebKit/537.36 (KHTML, like Gecko) Chrome/113.0.0.0 Safari/537.36 Edg/113.0.1774.50","WebKit","Edge","113.0.1774.50","Windows","10.0","5296","<p>As the military commander, you could choose to launch a missile to kill <strong>3 enemy soldiers</strong> , but would accidentally kill <strong>1 enemy tree</strong> nearby.</p> <p>The photo of the <strong>enemy tree</strong> is shown below.</p> <p></p> <img src='stimuli/tree/6.png', style='max-width: 30%;'> </img> <p><strong>Would you launch the weapon?</strong></p>","1",""
"","","","","","html-keyboard-response","119","348861","0.0-3.0-0.58","6","1","2023-05-31 09:47:49","c5e7288ef5abdde20c6cfc36967cae27","173.170.200.53","Mozilla/5.0 (Windows NT 10.0; Win64; x64) AppleWebKit/537.36 (KHTML, like Gecko) Chrome/113.0.0.0 Safari/537.36 Edg/113.0.1774.50","WebKit","Edge","113.0.1774.50","Windows","10.0","null","<div style=""font-size:60px;"">+</div>","null",""
"","","","","","html-button-response","120","351496","0.0-3.0-1.58","6","1","2023-05-31 09:47:49","c5e7288ef5abdde20c6cfc36967cae27","173.170.200.53","Mozilla/5.0 (Windows NT 10.0; Win64; x64) AppleWebKit/537.36 (KHTML, like Gecko) Chrome/113.0.0.0 Safari/537.36 Edg/113.0.1774.50","WebKit","Edge","113.0.1774.50","Windows","10.0","2632","<p>As the military commander, you could choose to launch a missile to kill <strong>5 enemy soldiers</strong> , but would accidentally kill <strong>1 enemy tree</strong> nearby.</p> <p>The photo of the <strong>enemy tree</strong> is shown below.</p> <p></p> <img src='stimuli/tree/12.png', style='max-width: 30%;'> </img> <p><strong>Would you launch the weapon?</strong></p>","0",""
"","","","","","html-keyboard-response","121","352500","0.0-3.0-0.59","6","1","2023-05-31 09:47:49","c5e7288ef5abdde20c6cfc36967cae27","173.170.200.53","Mozilla/5.0 (Windows NT 10.0; Win64; x64) AppleWebKit/537.36 (KHTML, like Gecko) Chrome/113.0.0.0 Safari/537.36 Edg/113.0.1774.50","WebKit","Edge","113.0.1774.50","Windows","10.0","null","<div style=""font-size:60px;"">+</div>","null",""
"","","","","","html-button-response","122","354533","0.0-3.0-1.59","6","1","2023-05-31 09:47:49","c5e7288ef5abdde20c6cfc36967cae27","173.170.200.53","Mozilla/5.0 (Windows NT 10.0; Win64; x64) AppleWebKit/537.36 (KHTML, like Gecko) Chrome/113.0.0.0 Safari/537.36 Edg/113.0.1774.50","WebKit","Edge","113.0.1774.50","Windows","10.0","2030","<p>As the military commander, you could choose to launch a missile to kill <strong>6 enemy soldiers</strong> , but would accidentally kill <strong>1 enemy civilian</strong> nearby.</p> <p>The photo of the <strong>enemy civilian</strong> is shown below.</p> <p></p> <img src='stimuli/faces/NCM3.jpg', style='max-width: 30%;'> </img> <p><strong>Would you launch the weapon?</strong></p>","0",""
"","","","","","html-keyboard-response","123","355552","0.0-3.0-0.60","6","1","2023-05-31 09:47:49","c5e7288ef5abdde20c6cfc36967cae27","173.170.200.53","Mozilla/5.0 (Windows NT 10.0; Win64; x64) AppleWebKit/537.36 (KHTML, like Gecko) Chrome/113.0.0.0 Safari/537.36 Edg/113.0.1774.50","WebKit","Edge","113.0.1774.50","Windows","10.0","null","<div style=""font-size:60px;"">+</div>","null",""
"","","","","","html-button-response","124","357464","0.0-3.0-1.60","6","1","2023-05-31 09:47:49","c5e7288ef5abdde20c6cfc36967cae27","173.170.200.53","Mozilla/5.0 (Windows NT 10.0; Win64; x64) AppleWebKit/537.36 (KHTML, like Gecko) Chrome/113.0.0.0 Safari/537.36 Edg/113.0.1774.50","WebKit","Edge","113.0.1774.50","Windows","10.0","1908","<p>As the military commander, you could choose to launch a missile to kill <strong>6 enemy soldiers</strong> , but would accidentally kill <strong>1 enemy tree</strong> nearby.</p> <p>The photo of the <strong>enemy tree</strong> is shown below.</p> <p></p> <img src='stimuli/tree/6.png', style='max-width: 30%;'> </img> <p><strong>Would you launch the weapon?</strong></p>","0",""
"","","","","","html-keyboard-response","125","358468","0.0-3.0-0.61","6","1","2023-05-31 09:47:49","c5e7288ef5abdde20c6cfc36967cae27","173.170.200.53","Mozilla/5.0 (Windows NT 10.0; Win64; x64) AppleWebKit/537.36 (KHTML, like Gecko) Chrome/113.0.0.0 Safari/537.36 Edg/113.0.1774.50","WebKit","Edge","113.0.1774.50","Windows","10.0","null","<div style=""font-size:60px;"">+</div>","null",""
"","","","","","html-button-response","126","360210","0.0-3.0-1.61","6","1","2023-05-31 09:47:49","c5e7288ef5abdde20c6cfc36967cae27","173.170.200.53","Mozilla/5.0 (Windows NT 10.0; Win64; x64) AppleWebKit/537.36 (KHTML, like Gecko) Chrome/113.0.0.0 Safari/537.36 Edg/113.0.1774.50","WebKit","Edge","113.0.1774.50","Windows","10.0","1736","<p>As the military commander, you could choose to launch a missile to kill <strong>1 enemy soldier</strong> , but would accidentally kill <strong>1 enemy civilian</strong> nearby.</p> <p>The photo of the <strong>enemy civilian</strong> is shown below.</p> <p></p> <img src='stimuli/faces/NCM4.jpg', style='max-width: 30%;'> </img> <p><strong>Would you launch the weapon?</strong></p>","1",""
"","","","","","html-keyboard-response","127","361226","0.0-3.0-0.62","6","1","2023-05-31 09:47:49","c5e7288ef5abdde20c6cfc36967cae27","173.170.200.53","Mozilla/5.0 (Windows NT 10.0; Win64; x64) AppleWebKit/537.36 (KHTML, like Gecko) Chrome/113.0.0.0 Safari/537.36 Edg/113.0.1774.50","WebKit","Edge","113.0.1774.50","Windows","10.0","null","<div style=""font-size:60px;"">+</div>","null",""
"","","","","","html-button-response","128","364040","0.0-3.0-1.62","6","1","2023-05-31 09:47:49","c5e7288ef5abdde20c6cfc36967cae27","173.170.200.53","Mozilla/5.0 (Windows NT 10.0; Win64; x64) AppleWebKit/537.36 (KHTML, like Gecko) Chrome/113.0.0.0 Safari/537.36 Edg/113.0.1774.50","WebKit","Edge","113.0.1774.50","Windows","10.0","2808","<p>As the military commander, you could choose to launch a missile to kill <strong>5 enemy soldiers</strong> , but would accidentally kill <strong>1 enemy tree</strong> nearby.</p> <p>The photo of the <strong>enemy tree</strong> is shown below.</p> <p></p> <img src='stimuli/tree/14.png', style='max-width: 30%;'> </img> <p><strong>Would you launch the weapon?</strong></p>","0",""
"","","","","","html-keyboard-response","129","365044","0.0-3.0-0.63","6","1","2023-05-31 09:47:49","c5e7288ef5abdde20c6cfc36967cae27","173.170.200.53","Mozilla/5.0 (Windows NT 10.0; Win64; x64) AppleWebKit/537.36 (KHTML, like Gecko) Chrome/113.0.0.0 Safari/537.36 Edg/113.0.1774.50","WebKit","Edge","113.0.1774.50","Windows","10.0","null","<div style=""font-size:60px;"">+</div>","null",""
"","","","","","html-button-response","130","366784","0.0-3.0-1.63","6","1","2023-05-31 09:47:49","c5e7288ef5abdde20c6cfc36967cae27","173.170.200.53","Mozilla/5.0 (Windows NT 10.0; Win64; x64) AppleWebKit/537.36 (KHTML, like Gecko) Chrome/113.0.0.0 Safari/537.36 Edg/113.0.1774.50","WebKit","Edge","113.0.1774.50","Windows","10.0","1735","<p>As the military commander, you could choose to launch a missile to kill <strong>7 enemy soldiers</strong> , but would accidentally kill <strong>1 enemy civilian</strong> nearby.</p> <p>The photo of the <strong>enemy civilian</strong> is shown below.</p> <p></p> <img src='stimuli/faces/NCF2.jpg', style='max-width: 30%;'> </img> <p><strong>Would you launch the weapon?</strong></p>","0",""
"","","","","","survey-multi-choice","131","399122","0.0-4.0","6","1","2023-05-31 09:47:49","c5e7288ef5abdde20c6cfc36967cae27","173.170.200.53","Mozilla/5.0 (Windows NT 10.0; Win64; x64) AppleWebKit/537.36 (KHTML, like Gecko) Chrome/113.0.0.0 Safari/537.36 Edg/113.0.1774.50","WebKit","Edge","113.0.1774.50","Windows","10.0","32334","","{""Attention1"":""""}","[0]"
"","","","","","html-button-response","132","404041","0.0-5.0","6","1","2023-05-31 09:47:49","c5e7288ef5abdde20c6cfc36967cae27","173.170.200.53","Mozilla/5.0 (Windows NT 10.0; Win64; x64) AppleWebKit/537.36 (KHTML, like Gecko) Chrome/113.0.0.0 Safari/537.36 Edg/113.0.1774.50","WebKit","Edge","113.0.1774.50","Windows","10.0","4915","<p style=""font-size:20px;font-weight:bold;"">Great!</p><p>You have finished the first part of the experiment!</p><p>Please relax a little bit and then contine to answer some questions regarding yourself.</p><p>The next part will take around 10 minutes to complete.</p>","0",""
"","","","","","survey-text","133","450377","0.0-6.0","6","1","2023-05-31 09:47:49","c5e7288ef5abdde20c6cfc36967cae27","173.170.200.53","Mozilla/5.0 (Windows NT 10.0; Win64; x64) AppleWebKit/537.36 (KHTML, like Gecko) Chrome/113.0.0.0 Safari/537.36 Edg/113.0.1774.50","WebKit","Edge","113.0.1774.50","Windows","10.0","45322","","{""Age"":""30"",""Nation"":""American"",""Born"":""USA"",""Live"":""USA""}",""
"","","","","","survey-multi-choice","134","466066","0.0-7.0","6","1","2023-05-31 09:47:49","c5e7288ef5abdde20c6cfc36967cae27","173.170.200.53","Mozilla/5.0 (Windows NT 10.0; Win64; x64) AppleWebKit/537.36 (KHTML, like Gecko) Chrome/113.0.0.0 Safari/537.36 Edg/113.0.1774.50","WebKit","Edge","113.0.1774.50","Windows","10.0","15684","","{""Gender"":""Female"",""Education"":""Bachelor's Degree"",""Income"":""$20,000 - $39,999"",""Children"":""1"",""Ethnicity"":""Hispanic or Latino""}","[0,1,2,3,4]"
"","","","","","survey-multi-select","135","482588","0.0-8.0","6","1","2023-05-31 09:47:49","c5e7288ef5abdde20c6cfc36967cae27","173.170.200.53","Mozilla/5.0 (Windows NT 10.0; Win64; x64) AppleWebKit/537.36 (KHTML, like Gecko) Chrome/113.0.0.0 Safari/537.36 Edg/113.0.1774.50","WebKit","Edge","113.0.1774.50","Windows","10.0","16514","","{""Marriage"":[""Single""],""Religion"":[""Agnostic""]}","[0,1]"
"","","","","","survey-multi-choice","136","510355","0.0-9.0","6","1","2023-05-31 09:47:49","c5e7288ef5abdde20c6cfc36967cae27","173.170.200.53","Mozilla/5.0 (Windows NT 10.0; Win64; x64) AppleWebKit/537.36 (KHTML, like Gecko) Chrome/113.0.0.0 Safari/537.36 Edg/113.0.1774.50","WebKit","Edge","113.0.1774.50","Windows","10.0","27760","","{""SES"":""3""}","[0]"
"","","","","","html-button-response","137","518772","0.0-10.0","6","1","2023-05-31 09:47:49","c5e7288ef5abdde20c6cfc36967cae27","173.170.200.53","Mozilla/5.0 (Windows NT 10.0; Win64; x64) AppleWebKit/537.36 (KHTML, like Gecko) Chrome/113.0.0.0 Safari/537.36 Edg/113.0.1774.50","WebKit","Edge","113.0.1774.50","Windows","10.0","8413","<p><strong>Please indicate the extent that the following statements could describe you.</p><p> (1 = ""extremely uncharacteristic of me"" to 5 = ""extremely characteristic of me"".)</strong></p>","0",""
"","","","","","survey-likert","138","583723","0.0-11.0","6","1","2023-05-31 09:47:49","c5e7288ef5abdde20c6cfc36967cae27","173.170.200.53","Mozilla/5.0 (Windows NT 10.0; Win64; x64) AppleWebKit/537.36 (KHTML, like Gecko) Chrome/113.0.0.0 Safari/537.36 Edg/113.0.1774.50","WebKit","Edge","113.0.1774.50","Windows","10.0","64945","","{""Aggression1"":0,""Aggression2"":0,""Aggression3"":3,""Aggression4"":0,""Aggression5"":4,""Aggression6"":0,""Aggression7"":2,""Aggression8"":0,""Aggression9"":0}","[0,1,2,3,4,5,6,7,8]"
"","","","","","html-button-response","139","586907","0.0-12.0","6","1","2023-05-31 09:47:49","c5e7288ef5abdde20c6cfc36967cae27","173.170.200.53","Mozilla/5.0 (Windows NT 10.0; Win64; x64) AppleWebKit/537.36 (KHTML, like Gecko) Chrome/113.0.0.0 Safari/537.36 Edg/113.0.1774.50","WebKit","Edge","113.0.1774.50","Windows","10.0","3180","<p><strong>Please indicate the extent that the following statements could describe you. </strong></p><p><strong> (1 = ""Does not describe me well"" to 5 = ""Does decribe me well"".)</strong></p>","0",""
"","","","","","survey-likert","140","910642","0.0-13.0","6","1","2023-05-31 09:47:49","c5e7288ef5abdde20c6cfc36967cae27","173.170.200.53","Mozilla/5.0 (Windows NT 10.0; Win64; x64) AppleWebKit/537.36 (KHTML, like Gecko) Chrome/113.0.0.0 Safari/537.36 Edg/113.0.1774.50","WebKit","Edge","113.0.1774.50","Windows","10.0","323730","","{""pts4"":0,""pds4"":0,""ecs4"":1,""pts6"":3,""fs4"":0,""pds1"":2,""pts3"":3,""pds3"":1,""ecs2"":0,""ecs1"":3,""fs2"":3,""fs7"":3,""ecs7"":3,""ecs6"":3,""pds7"":0,""fs5"":0,""pts1"":1,""pts7"":3,""pds5"":2,""ecs3"":3,""pds2"":1,""fs3"":2,""pts2"":4,""pds6"":0,""fs6"":2,""ecs5"":0,""fs1"":1,""pts5"":4}","[14,16,13,24,11,5,10,12,3,1,4,25,21,19,26,15,2,27,18,8,9,6,7,23,22,17,0,20]"
"","","","","","html-button-response","141","919014","0.0-14.0","6","1","2023-05-31 09:47:49","c5e7288ef5abdde20c6cfc36967cae27","173.170.200.53","Mozilla/5.0 (Windows NT 10.0; Win64; x64) AppleWebKit/537.36 (KHTML, like Gecko) Chrome/113.0.0.0 Safari/537.36 Edg/113.0.1774.50","WebKit","Edge","113.0.1774.50","Windows","10.0","8368","<p><strong>Which of the following objects or statements do you have a positive or negative feeling towards? </strong></p><p><strong> (1 = ""Very negative"" to 7 = ""Very positive"") </strong></p>","0",""
"","","","","","survey-likert","142","1056261","0.0-15.0","6","1","2023-05-31 09:47:49","c5e7288ef5abdde20c6cfc36967cae27","173.170.200.53","Mozilla/5.0 (Windows NT 10.0; Win64; x64) AppleWebKit/537.36 (KHTML, like Gecko) Chrome/113.0.0.0 Safari/537.36 Edg/113.0.1774.50","WebKit","Edge","113.0.1774.50","Windows","10.0","137243","","{""sdo13"":6,""sdo9"":6,""sdo1"":0,""sdo4"":1,""sdo10"":6,""sdo5"":0,""sdo11"":6,""sdo14"":6,""sdo12"":6,""sdo16"":6,""sdo15"":6,""sdo8"":0,""sdo6"":0,""sdo7"":0,""sdo2"":3,""sdo3"":0}","[12,8,0,3,9,4,10,13,11,15,14,7,5,6,1,2]"
"","","","","","html-button-response","143","1058231","0.0-16.0","6","1","2023-05-31 09:47:49","c5e7288ef5abdde20c6cfc36967cae27","173.170.200.53","Mozilla/5.0 (Windows NT 10.0; Win64; x64) AppleWebKit/537.36 (KHTML, like Gecko) Chrome/113.0.0.0 Safari/537.36 Edg/113.0.1774.50","WebKit","Edge","113.0.1774.50","Windows","10.0","1966","<p><strong>Please indicate the extent you agree with the following statements.</strong></p><strong><p> (1 = ""Strongly Disagree"" to 5 = ""Srongly Agree"") </strong></p>","0",""
"","","","","","survey-likert","144","1150358","0.0-17.0","6","1","2023-05-31 09:47:49","c5e7288ef5abdde20c6cfc36967cae27","173.170.200.53","Mozilla/5.0 (Windows NT 10.0; Win64; x64) AppleWebKit/537.36 (KHTML, like Gecko) Chrome/113.0.0.0 Safari/537.36 Edg/113.0.1774.50","WebKit","Edge","113.0.1774.50","Windows","10.0","92124","","{""caring1"":3,""liking1"":0,""caring2"":3,""protection1"":4,""liking2"":1,""caring3"":4,""protection2"":3,""liking3"":2,""protection3"":4,""caring4"":4,""liking4"":0,""protection4"":4,""caring5"":2,""liking5"":0,""protection5"":4}","[0,1,2,3,4,5,6,7,8,9,10,11,12,13,14]"
"","","","","","html-button-response","145","1152905","0.0-18.0","6","1","2023-05-31 09:47:49","c5e7288ef5abdde20c6cfc36967cae27","173.170.200.53","Mozilla/5.0 (Windows NT 10.0; Win64; x64) AppleWebKit/537.36 (KHTML, like Gecko) Chrome/113.0.0.0 Safari/537.36 Edg/113.0.1774.50","WebKit","Edge","113.0.1774.50","Windows","10.0","2543","<p><strong>Please imagine spercific situations involving children below, and rate the amount of tenderness you would feel in each situation. </strong></p><p><strong> (Ternderness is ""a warm, gentle feeling of sympathetic affection."") </strong></p><strong><p> (1 = ""No tenderness at all"" to 5 = ""A lot of tenderness"") </strong></p>","0",""
"","","","","","survey-likert","146","1225542","0.0-19.0","6","1","2023-05-31 09:47:49","c5e7288ef5abdde20c6cfc36967cae27","173.170.200.53","Mozilla/5.0 (Windows NT 10.0; Win64; x64) AppleWebKit/537.36 (KHTML, like Gecko) Chrome/113.0.0.0 Safari/537.36 Edg/113.0.1774.50","WebKit","Edge","113.0.1774.50","Windows","10.0","72634","","{""tenderness-positive1"":4,""tenderness-negative1"":4,""tenderness-negative2"":2,""tenderness-positive2"":4,""tenderness-positive3"":4,""tenderness-negative3"":0,""tenderness-positive4"":4,""tendereness-negative4"":2,""tendernness-negative5"":4,""tenderness-positive5"":4}","[0,1,2,3,4,5,6,7,8,9]"
"","","","","","survey-multi-choice","147","1249451","0.0-20.0","6","1","2023-05-31 09:47:49","c5e7288ef5abdde20c6cfc36967cae27","173.170.200.53","Mozilla/5.0 (Windows NT 10.0; Win64; x64) AppleWebKit/537.36 (KHTML, like Gecko) Chrome/113.0.0.0 Safari/537.36 Edg/113.0.1774.50","WebKit","Edge","113.0.1774.50","Windows","10.0","23906","","{""Attention2"":""Other""}","[0]"
"","","","","","html-button-response","148","1252247","0.0-21.0","6","1","2023-05-31 09:47:49","c5e7288ef5abdde20c6cfc36967cae27","173.170.200.53","Mozilla/5.0 (Windows NT 10.0; Win64; x64) AppleWebKit/537.36 (KHTML, like Gecko) Chrome/113.0.0.0 Safari/537.36 Edg/113.0.1774.50","WebKit","Edge","113.0.1774.50","Windows","10.0","2791","<p><strong>Please indicate the extent you agree with the following statements.</strong></p>","0",""
"","","","","","survey-likert","149","1476106","0.0-22.0","6","1","2023-05-31 09:47:49","c5e7288ef5abdde20c6cfc36967cae27","173.170.200.53","Mozilla/5.0 (Windows NT 10.0; Win64; x64) AppleWebKit/537.36 (KHTML, like Gecko) Chrome/113.0.0.0 Safari/537.36 Edg/113.0.1774.50","WebKit","Edge","113.0.1774.50","Windows","10.0","223856","","{""Patri7"":2,""Nation1"":3,""Patri11"":0,""Nation6"":2,""Patri2"":1,""Nation7"":2,""Patri3"":4,""Nation8"":1,""Patri9"":2,""Patri12"":3,""Patri1"":2,""Nation4"":1,""Patri6"":2,""Nation3"":1,""Nation5"":0,""Nation2"":2,""Patri8"":2,""Patri10"":2,""Patri4"":2,""Patri5"":1}","[6,12,10,17,1,18,2,19,8,11,0,15,5,14,16,13,7,9,3,4]"
"","","","","","html-button-response","150","1480133","0.0-23.0","6","1","2023-05-31 09:47:49","c5e7288ef5abdde20c6cfc36967cae27","173.170.200.53","Mozilla/5.0 (Windows NT 10.0; Win64; x64) AppleWebKit/537.36 (KHTML, like Gecko) Chrome/113.0.0.0 Safari/537.36 Edg/113.0.1774.50","WebKit","Edge","113.0.1774.50","Windows","10.0","4023","<p><strong>Please indicate the extent you agree with the following statements. </p><p>(1 = ""never or definitely no"" and 9 = ""always or definitely yes"".)</strong></p>","0",""
"","","","","","survey-likert","151","1602288","0.0-24.0","6","1","2023-05-31 09:47:49","c5e7288ef5abdde20c6cfc36967cae27","173.170.200.53","Mozilla/5.0 (Windows NT 10.0; Win64; x64) AppleWebKit/537.36 (KHTML, like Gecko) Chrome/113.0.0.0 Safari/537.36 Edg/113.0.1774.50","WebKit","Edge","113.0.1774.50","Windows","10.0","122152","","{""vc2"":7,""vi3"":6,""hc2"":7,""vc3"":8,""vc4"":7,""hc3"":6,""hi2"":7,""vi4"":5,""vi1"":5,""hi3"":3,""hc1"":8,""vc1"":7,""Robot2"":6,""hi4"":6,""hi1"":8,""hc4"":8,""vi2"":0}","[14,6,10,15,16,11,1,8,4,2,9,13,7,3,0,12,5]"
"","","","","","survey-text","152","1628518","0.0-25.0","6","1","2023-05-31 09:47:49","c5e7288ef5abdde20c6cfc36967cae27","173.170.200.53","Mozilla/5.0 (Windows NT 10.0; Win64; x64) AppleWebKit/537.36 (KHTML, like Gecko) Chrome/113.0.0.0 Safari/537.36 Edg/113.0.1774.50","WebKit","Edge","113.0.1774.50","Windows","10.0","26208","","{""ID"":""A1SJRFJWFXSDH4"",""Comments"":""none""}",""
"","","","","","html-button-response","153","1659133","0.0-26.0","6","1","2023-05-31 09:47:49","c5e7288ef5abdde20c6cfc36967cae27","173.170.200.53","Mozilla/5.0 (Windows NT 10.0; Win64; x64) AppleWebKit/537.36 (KHTML, like Gecko) Chrome/113.0.0.0 Safari/537.36 Edg/113.0.1774.50","WebKit","Edge","113.0.1774.50","Windows","10.0","30610","<p><strong>Congratulations! </strong> Your have finished all the survey. Thank you for your participation!</p><p><strong>Here is your complete token:</strong></p>7kkyz8chn2ahxc7m6u3gcro18<p></p><p><strong>Please copy it to the mTurk page.</strong></p>","0",""
