"success","timeout","failed_images","failed_audio","failed_video","trial_type","trial_index","time_elapsed","internal_node_id","run_id","condition","recorded_at","source_code_version","ip","user_agent","device","browser","browser_version","platform","platform_version","rt","stimulus","response","question_order"
"true","false","[]","[]","[]","preload","0","4605","0.0-0.0","79","1","2023-05-30 02:31:24","c5e7288ef5abdde20c6cfc36967cae27","154.30.137.8","Mozilla/5.0 (Windows NT 10.0; Win64; x64) AppleWebKit/537.36 (KHTML, like Gecko) Chrome/111.0.0.0 Safari/537.36","WebKit","Chrome","111.0.0.0","Windows","10.0","","","",""
"true","","","","","fullscreen","1","8354","0.0-1.0","79","1","2023-05-30 02:31:24","c5e7288ef5abdde20c6cfc36967cae27","154.30.137.8","Mozilla/5.0 (Windows NT 10.0; Win64; x64) AppleWebKit/537.36 (KHTML, like Gecko) Chrome/111.0.0.0 Safari/537.36","WebKit","Chrome","111.0.0.0","Windows","10.0","","","",""
"","","","","","html-button-response","2","19063","0.0-2.0","79","1","2023-05-30 02:31:24","c5e7288ef5abdde20c6cfc36967cae27","154.30.137.8","Mozilla/5.0 (Windows NT 10.0; Win64; x64) AppleWebKit/537.36 (KHTML, like Gecko) Chrome/111.0.0.0 Safari/537.36","WebKit","Chrome","111.0.0.0","Windows","10.0","10706","<p ><strong>Welcome to the experiment!</strong></p><p ><strong>In the first task, please imagine:</strong></p><p>Your country is involved in a military conflict with another country.</p><p>You are the commander of your army and must make decisions in the conflict.</p><p>Specifically, as the military commander, you must decide whether to launch a missile to strike enemy.</p><p>You will face a series of scenarios. Please read each scenario carefully and make a decision.</p><p>The task will take around 10 minutes to complete.</p><p><strong>Please pay your attention during the experiment.</strong></p>","0",""
"","","","","","html-keyboard-response","3","20066","0.0-3.0-0.0","79","1","2023-05-30 02:31:24","c5e7288ef5abdde20c6cfc36967cae27","154.30.137.8","Mozilla/5.0 (Windows NT 10.0; Win64; x64) AppleWebKit/537.36 (KHTML, like Gecko) Chrome/111.0.0.0 Safari/537.36","WebKit","Chrome","111.0.0.0","Windows","10.0","null","<div style=""font-size:60px;"">+</div>","null",""
"","","","","","html-button-response","4","32255","0.0-3.0-1.0","79","1","2023-05-30 02:31:24","c5e7288ef5abdde20c6cfc36967cae27","154.30.137.8","Mozilla/5.0 (Windows NT 10.0; Win64; x64) AppleWebKit/537.36 (KHTML, like Gecko) Chrome/111.0.0.0 Safari/537.36","WebKit","Chrome","111.0.0.0","Windows","10.0","12187","<p>As the military commander, you could choose to launch a missile to kill <strong>9 enemy soldiers</strong> , but would accidentally kill <strong>1 enemy civilian</strong> nearby.</p> <p>The photo of the <strong>enemy civilian</strong> is shown below.</p> <p></p> <img src='stimuli/faces/NCF6.jpg', style='max-width: 30%;'> </img> <p><strong>Would you launch the weapon?</strong></p>","0",""
"","","","","","html-keyboard-response","5","33259","0.0-3.0-0.1","79","1","2023-05-30 02:31:24","c5e7288ef5abdde20c6cfc36967cae27","154.30.137.8","Mozilla/5.0 (Windows NT 10.0; Win64; x64) AppleWebKit/537.36 (KHTML, like Gecko) Chrome/111.0.0.0 Safari/537.36","WebKit","Chrome","111.0.0.0","Windows","10.0","null","<div style=""font-size:60px;"">+</div>","null",""
"","","","","","html-button-response","6","35934","0.0-3.0-1.1","79","1","2023-05-30 02:31:24","c5e7288ef5abdde20c6cfc36967cae27","154.30.137.8","Mozilla/5.0 (Windows NT 10.0; Win64; x64) AppleWebKit/537.36 (KHTML, like Gecko) Chrome/111.0.0.0 Safari/537.36","WebKit","Chrome","111.0.0.0","Windows","10.0","2672","<p>As the military commander, you could choose to launch a missile to kill <strong>10 enemy soldiers</strong> , but would accidentally kill <strong>1 enemy civilian</strong> nearby.</p> <p>The photo of the <strong>enemy civilian</strong> is shown below.</p> <p></p> <img src='stimuli/faces/NCM1.jpg', style='max-width: 30%;'> </img> <p><strong>Would you launch the weapon?</strong></p>","0",""
"","","","","","html-keyboard-response","7","36936","0.0-3.0-0.2","79","1","2023-05-30 02:31:24","c5e7288ef5abdde20c6cfc36967cae27","154.30.137.8","Mozilla/5.0 (Windows NT 10.0; Win64; x64) AppleWebKit/537.36 (KHTML, like Gecko) Chrome/111.0.0.0 Safari/537.36","WebKit","Chrome","111.0.0.0","Windows","10.0","null","<div style=""font-size:60px;"">+</div>","null",""
"","","","","","html-button-response","8","48725","0.0-3.0-1.2","79","1","2023-05-30 02:31:24","c5e7288ef5abdde20c6cfc36967cae27","154.30.137.8","Mozilla/5.0 (Windows NT 10.0; Win64; x64) AppleWebKit/537.36 (KHTML, like Gecko) Chrome/111.0.0.0 Safari/537.36","WebKit","Chrome","111.0.0.0","Windows","10.0","11788","<p>As the military commander, you could choose to launch a missile to kill <strong>8 enemy soldiers</strong> , but would accidentally kill <strong>1 enemy tree</strong> nearby.</p> <p>The photo of the <strong>enemy tree</strong> is shown below.</p> <p></p> <img src='stimuli/tree/10.png', style='max-width: 30%;'> </img> <p><strong>Would you launch the weapon?</strong></p>","0",""
"","","","","","html-keyboard-response","9","49728","0.0-3.0-0.3","79","1","2023-05-30 02:31:24","c5e7288ef5abdde20c6cfc36967cae27","154.30.137.8","Mozilla/5.0 (Windows NT 10.0; Win64; x64) AppleWebKit/537.36 (KHTML, like Gecko) Chrome/111.0.0.0 Safari/537.36","WebKit","Chrome","111.0.0.0","Windows","10.0","null","<div style=""font-size:60px;"">+</div>","null",""
"","","","","","html-button-response","10","59831","0.0-3.0-1.3","79","1","2023-05-30 02:31:24","c5e7288ef5abdde20c6cfc36967cae27","154.30.137.8","Mozilla/5.0 (Windows NT 10.0; Win64; x64) AppleWebKit/537.36 (KHTML, like Gecko) Chrome/111.0.0.0 Safari/537.36","WebKit","Chrome","111.0.0.0","Windows","10.0","10100","<p>As the military commander, you could choose to launch a missile to kill <strong>9 enemy soldiers</strong> , but would accidentally kill <strong>1 enemy civilian</strong> nearby.</p> <p>The photo of the <strong>enemy civilian</strong> is shown below.</p> <p></p> <img src='stimuli/faces/NCF2.jpg', style='max-width: 30%;'> </img> <p><strong>Would you launch the weapon?</strong></p>","1",""
"","","","","","html-keyboard-response","11","60833","0.0-3.0-0.4","79","1","2023-05-30 02:31:24","c5e7288ef5abdde20c6cfc36967cae27","154.30.137.8","Mozilla/5.0 (Windows NT 10.0; Win64; x64) AppleWebKit/537.36 (KHTML, like Gecko) Chrome/111.0.0.0 Safari/537.36","WebKit","Chrome","111.0.0.0","Windows","10.0","null","<div style=""font-size:60px;"">+</div>","null",""
"","","","","","html-button-response","12","64632","0.0-3.0-1.4","79","1","2023-05-30 02:31:24","c5e7288ef5abdde20c6cfc36967cae27","154.30.137.8","Mozilla/5.0 (Windows NT 10.0; Win64; x64) AppleWebKit/537.36 (KHTML, like Gecko) Chrome/111.0.0.0 Safari/537.36","WebKit","Chrome","111.0.0.0","Windows","10.0","3796","<p>As the military commander, you could choose to launch a missile to kill <strong>8 enemy soldiers</strong> , but would accidentally kill <strong>1 enemy civilian</strong> nearby.</p> <p>The photo of the <strong>enemy civilian</strong> is shown below.</p> <p></p> <img src='stimuli/faces/NCF5.jpg', style='max-width: 30%;'> </img> <p><strong>Would you launch the weapon?</strong></p>","1",""
"","","","","","html-keyboard-response","13","65635","0.0-3.0-0.5","79","1","2023-05-30 02:31:24","c5e7288ef5abdde20c6cfc36967cae27","154.30.137.8","Mozilla/5.0 (Windows NT 10.0; Win64; x64) AppleWebKit/537.36 (KHTML, like Gecko) Chrome/111.0.0.0 Safari/537.36","WebKit","Chrome","111.0.0.0","Windows","10.0","null","<div style=""font-size:60px;"">+</div>","null",""
"","","","","","html-button-response","14","70167","0.0-3.0-1.5","79","1","2023-05-30 02:31:24","c5e7288ef5abdde20c6cfc36967cae27","154.30.137.8","Mozilla/5.0 (Windows NT 10.0; Win64; x64) AppleWebKit/537.36 (KHTML, like Gecko) Chrome/111.0.0.0 Safari/537.36","WebKit","Chrome","111.0.0.0","Windows","10.0","4530","<p>As the military commander, you could choose to launch a missile to kill <strong>7 enemy soldiers</strong> , but would accidentally kill <strong>1 enemy civilian</strong> nearby.</p> <p>The photo of the <strong>enemy civilian</strong> is shown below.</p> <p></p> <img src='stimuli/faces/NCF8.jpg', style='max-width: 30%;'> </img> <p><strong>Would you launch the weapon?</strong></p>","1",""
"","","","","","html-keyboard-response","15","71170","0.0-3.0-0.6","79","1","2023-05-30 02:31:24","c5e7288ef5abdde20c6cfc36967cae27","154.30.137.8","Mozilla/5.0 (Windows NT 10.0; Win64; x64) AppleWebKit/537.36 (KHTML, like Gecko) Chrome/111.0.0.0 Safari/537.36","WebKit","Chrome","111.0.0.0","Windows","10.0","null","<div style=""font-size:60px;"">+</div>","null",""
"","","","","","html-button-response","16","74632","0.0-3.0-1.6","79","1","2023-05-30 02:31:24","c5e7288ef5abdde20c6cfc36967cae27","154.30.137.8","Mozilla/5.0 (Windows NT 10.0; Win64; x64) AppleWebKit/537.36 (KHTML, like Gecko) Chrome/111.0.0.0 Safari/537.36","WebKit","Chrome","111.0.0.0","Windows","10.0","3460","<p>As the military commander, you could choose to launch a missile to kill <strong>4 enemy soldiers</strong> , but would accidentally kill <strong>1 enemy tree</strong> nearby.</p> <p>The photo of the <strong>enemy tree</strong> is shown below.</p> <p></p> <img src='stimuli/tree/15.png', style='max-width: 30%;'> </img> <p><strong>Would you launch the weapon?</strong></p>","0",""
"","","","","","html-keyboard-response","17","75635","0.0-3.0-0.7","79","1","2023-05-30 02:31:24","c5e7288ef5abdde20c6cfc36967cae27","154.30.137.8","Mozilla/5.0 (Windows NT 10.0; Win64; x64) AppleWebKit/537.36 (KHTML, like Gecko) Chrome/111.0.0.0 Safari/537.36","WebKit","Chrome","111.0.0.0","Windows","10.0","null","<div style=""font-size:60px;"">+</div>","null",""
"","","","","","html-button-response","18","77319","0.0-3.0-1.7","79","1","2023-05-30 02:31:24","c5e7288ef5abdde20c6cfc36967cae27","154.30.137.8","Mozilla/5.0 (Windows NT 10.0; Win64; x64) AppleWebKit/537.36 (KHTML, like Gecko) Chrome/111.0.0.0 Safari/537.36","WebKit","Chrome","111.0.0.0","Windows","10.0","1683","<p>As the military commander, you could choose to launch a missile to kill <strong>5 enemy soldiers</strong> , but would accidentally kill <strong>1 enemy tree</strong> nearby.</p> <p>The photo of the <strong>enemy tree</strong> is shown below.</p> <p></p> <img src='stimuli/tree/10.png', style='max-width: 30%;'> </img> <p><strong>Would you launch the weapon?</strong></p>","0",""
"","","","","","html-keyboard-response","19","78321","0.0-3.0-0.8","79","1","2023-05-30 02:31:24","c5e7288ef5abdde20c6cfc36967cae27","154.30.137.8","Mozilla/5.0 (Windows NT 10.0; Win64; x64) AppleWebKit/537.36 (KHTML, like Gecko) Chrome/111.0.0.0 Safari/537.36","WebKit","Chrome","111.0.0.0","Windows","10.0","null","<div style=""font-size:60px;"">+</div>","null",""
"","","","","","html-button-response","20","81263","0.0-3.0-1.8","79","1","2023-05-30 02:31:24","c5e7288ef5abdde20c6cfc36967cae27","154.30.137.8","Mozilla/5.0 (Windows NT 10.0; Win64; x64) AppleWebKit/537.36 (KHTML, like Gecko) Chrome/111.0.0.0 Safari/537.36","WebKit","Chrome","111.0.0.0","Windows","10.0","2941","<p>As the military commander, you could choose to launch a missile to kill <strong>8 enemy soldiers</strong> , but would accidentally kill <strong>1 enemy civilian</strong> nearby.</p> <p>The photo of the <strong>enemy civilian</strong> is shown below.</p> <p></p> <img src='stimuli/faces/NCF1.jpg', style='max-width: 30%;'> </img> <p><strong>Would you launch the weapon?</strong></p>","1",""
"","","","","","html-keyboard-response","21","82272","0.0-3.0-0.9","79","1","2023-05-30 02:31:24","c5e7288ef5abdde20c6cfc36967cae27","154.30.137.8","Mozilla/5.0 (Windows NT 10.0; Win64; x64) AppleWebKit/537.36 (KHTML, like Gecko) Chrome/111.0.0.0 Safari/537.36","WebKit","Chrome","111.0.0.0","Windows","10.0","null","<div style=""font-size:60px;"">+</div>","null",""
"","","","","","html-button-response","22","86511","0.0-3.0-1.9","79","1","2023-05-30 02:31:24","c5e7288ef5abdde20c6cfc36967cae27","154.30.137.8","Mozilla/5.0 (Windows NT 10.0; Win64; x64) AppleWebKit/537.36 (KHTML, like Gecko) Chrome/111.0.0.0 Safari/537.36","WebKit","Chrome","111.0.0.0","Windows","10.0","4235","<p>As the military commander, you could choose to launch a missile to kill <strong>3 enemy soldiers</strong> , but would accidentally kill <strong>1 enemy civilian</strong> nearby.</p> <p>The photo of the <strong>enemy civilian</strong> is shown below.</p> <p></p> <img src='stimuli/faces/NCM1.jpg', style='max-width: 30%;'> </img> <p><strong>Would you launch the weapon?</strong></p>","0",""
"","","","","","html-keyboard-response","23","87513","0.0-3.0-0.10","79","1","2023-05-30 02:31:24","c5e7288ef5abdde20c6cfc36967cae27","154.30.137.8","Mozilla/5.0 (Windows NT 10.0; Win64; x64) AppleWebKit/537.36 (KHTML, like Gecko) Chrome/111.0.0.0 Safari/537.36","WebKit","Chrome","111.0.0.0","Windows","10.0","null","<div style=""font-size:60px;"">+</div>","null",""
"","","","","","html-button-response","24","90855","0.0-3.0-1.10","79","1","2023-05-30 02:31:24","c5e7288ef5abdde20c6cfc36967cae27","154.30.137.8","Mozilla/5.0 (Windows NT 10.0; Win64; x64) AppleWebKit/537.36 (KHTML, like Gecko) Chrome/111.0.0.0 Safari/537.36","WebKit","Chrome","111.0.0.0","Windows","10.0","3340","<p>As the military commander, you could choose to launch a missile to kill <strong>9 enemy soldiers</strong> , but would accidentally kill <strong>1 enemy civilian</strong> nearby.</p> <p>The photo of the <strong>enemy civilian</strong> is shown below.</p> <p></p> <img src='stimuli/faces/NCM3.jpg', style='max-width: 30%;'> </img> <p><strong>Would you launch the weapon?</strong></p>","0",""
"","","","","","html-keyboard-response","25","91858","0.0-3.0-0.11","79","1","2023-05-30 02:31:24","c5e7288ef5abdde20c6cfc36967cae27","154.30.137.8","Mozilla/5.0 (Windows NT 10.0; Win64; x64) AppleWebKit/537.36 (KHTML, like Gecko) Chrome/111.0.0.0 Safari/537.36","WebKit","Chrome","111.0.0.0","Windows","10.0","null","<div style=""font-size:60px;"">+</div>","null",""
"","","","","","html-button-response","26","94775","0.0-3.0-1.11","79","1","2023-05-30 02:31:24","c5e7288ef5abdde20c6cfc36967cae27","154.30.137.8","Mozilla/5.0 (Windows NT 10.0; Win64; x64) AppleWebKit/537.36 (KHTML, like Gecko) Chrome/111.0.0.0 Safari/537.36","WebKit","Chrome","111.0.0.0","Windows","10.0","2915","<p>As the military commander, you could choose to launch a missile to kill <strong>4 enemy soldiers</strong> , but would accidentally kill <strong>1 enemy civilian</strong> nearby.</p> <p>The photo of the <strong>enemy civilian</strong> is shown below.</p> <p></p> <img src='stimuli/faces/NCM6.jpg', style='max-width: 30%;'> </img> <p><strong>Would you launch the weapon?</strong></p>","1",""
"","","","","","html-keyboard-response","27","95776","0.0-3.0-0.12","79","1","2023-05-30 02:31:24","c5e7288ef5abdde20c6cfc36967cae27","154.30.137.8","Mozilla/5.0 (Windows NT 10.0; Win64; x64) AppleWebKit/537.36 (KHTML, like Gecko) Chrome/111.0.0.0 Safari/537.36","WebKit","Chrome","111.0.0.0","Windows","10.0","null","<div style=""font-size:60px;"">+</div>","null",""
"","","","","","html-button-response","28","101998","0.0-3.0-1.12","79","1","2023-05-30 02:31:24","c5e7288ef5abdde20c6cfc36967cae27","154.30.137.8","Mozilla/5.0 (Windows NT 10.0; Win64; x64) AppleWebKit/537.36 (KHTML, like Gecko) Chrome/111.0.0.0 Safari/537.36","WebKit","Chrome","111.0.0.0","Windows","10.0","6220","<p>As the military commander, you could choose to launch a missile to kill <strong>1 enemy soldier</strong> , but would accidentally kill <strong>1 enemy tree</strong> nearby.</p> <p>The photo of the <strong>enemy tree</strong> is shown below.</p> <p></p> <img src='stimuli/tree/4.png', style='max-width: 30%;'> </img> <p><strong>Would you launch the weapon?</strong></p>","1",""
"","","","","","html-keyboard-response","29","103001","0.0-3.0-0.13","79","1","2023-05-30 02:31:24","c5e7288ef5abdde20c6cfc36967cae27","154.30.137.8","Mozilla/5.0 (Windows NT 10.0; Win64; x64) AppleWebKit/537.36 (KHTML, like Gecko) Chrome/111.0.0.0 Safari/537.36","WebKit","Chrome","111.0.0.0","Windows","10.0","null","<div style=""font-size:60px;"">+</div>","null",""
"","","","","","html-button-response","30","104455","0.0-3.0-1.13","79","1","2023-05-30 02:31:24","c5e7288ef5abdde20c6cfc36967cae27","154.30.137.8","Mozilla/5.0 (Windows NT 10.0; Win64; x64) AppleWebKit/537.36 (KHTML, like Gecko) Chrome/111.0.0.0 Safari/537.36","WebKit","Chrome","111.0.0.0","Windows","10.0","1451","<p>As the military commander, you could choose to launch a missile to kill <strong>5 enemy soldiers</strong> , but would accidentally kill <strong>1 enemy tree</strong> nearby.</p> <p>The photo of the <strong>enemy tree</strong> is shown below.</p> <p></p> <img src='stimuli/tree/5.png', style='max-width: 30%;'> </img> <p><strong>Would you launch the weapon?</strong></p>","1",""
"","","","","","html-keyboard-response","31","105457","0.0-3.0-0.14","79","1","2023-05-30 02:31:24","c5e7288ef5abdde20c6cfc36967cae27","154.30.137.8","Mozilla/5.0 (Windows NT 10.0; Win64; x64) AppleWebKit/537.36 (KHTML, like Gecko) Chrome/111.0.0.0 Safari/537.36","WebKit","Chrome","111.0.0.0","Windows","10.0","null","<div style=""font-size:60px;"">+</div>","null",""
"","","","","","html-button-response","32","110022","0.0-3.0-1.14","79","1","2023-05-30 02:31:24","c5e7288ef5abdde20c6cfc36967cae27","154.30.137.8","Mozilla/5.0 (Windows NT 10.0; Win64; x64) AppleWebKit/537.36 (KHTML, like Gecko) Chrome/111.0.0.0 Safari/537.36","WebKit","Chrome","111.0.0.0","Windows","10.0","4564","<p>As the military commander, you could choose to launch a missile to kill <strong>2 enemy soldiers</strong> , but would accidentally kill <strong>1 enemy civilian</strong> nearby.</p> <p>The photo of the <strong>enemy civilian</strong> is shown below.</p> <p></p> <img src='stimuli/faces/NCF4.jpg', style='max-width: 30%;'> </img> <p><strong>Would you launch the weapon?</strong></p>","0",""
"","","","","","html-keyboard-response","33","111025","0.0-3.0-0.15","79","1","2023-05-30 02:31:24","c5e7288ef5abdde20c6cfc36967cae27","154.30.137.8","Mozilla/5.0 (Windows NT 10.0; Win64; x64) AppleWebKit/537.36 (KHTML, like Gecko) Chrome/111.0.0.0 Safari/537.36","WebKit","Chrome","111.0.0.0","Windows","10.0","null","<div style=""font-size:60px;"">+</div>","null",""
"","","","","","html-button-response","34","113646","0.0-3.0-1.15","79","1","2023-05-30 02:31:24","c5e7288ef5abdde20c6cfc36967cae27","154.30.137.8","Mozilla/5.0 (Windows NT 10.0; Win64; x64) AppleWebKit/537.36 (KHTML, like Gecko) Chrome/111.0.0.0 Safari/537.36","WebKit","Chrome","111.0.0.0","Windows","10.0","2618","<p>As the military commander, you could choose to launch a missile to kill <strong>2 enemy soldiers</strong> , but would accidentally kill <strong>1 enemy tree</strong> nearby.</p> <p>The photo of the <strong>enemy tree</strong> is shown below.</p> <p></p> <img src='stimuli/tree/6.png', style='max-width: 30%;'> </img> <p><strong>Would you launch the weapon?</strong></p>","1",""
"","","","","","html-keyboard-response","35","114649","0.0-3.0-0.16","79","1","2023-05-30 02:31:24","c5e7288ef5abdde20c6cfc36967cae27","154.30.137.8","Mozilla/5.0 (Windows NT 10.0; Win64; x64) AppleWebKit/537.36 (KHTML, like Gecko) Chrome/111.0.0.0 Safari/537.36","WebKit","Chrome","111.0.0.0","Windows","10.0","null","<div style=""font-size:60px;"">+</div>","null",""
"","","","","","html-button-response","36","116438","0.0-3.0-1.16","79","1","2023-05-30 02:31:24","c5e7288ef5abdde20c6cfc36967cae27","154.30.137.8","Mozilla/5.0 (Windows NT 10.0; Win64; x64) AppleWebKit/537.36 (KHTML, like Gecko) Chrome/111.0.0.0 Safari/537.36","WebKit","Chrome","111.0.0.0","Windows","10.0","1786","<p>As the military commander, you could choose to launch a missile to kill <strong>10 enemy soldiers</strong> , but would accidentally kill <strong>1 enemy civilian</strong> nearby.</p> <p>The photo of the <strong>enemy civilian</strong> is shown below.</p> <p></p> <img src='stimuli/faces/NCM8.jpg', style='max-width: 30%;'> </img> <p><strong>Would you launch the weapon?</strong></p>","0",""
"","","","","","html-keyboard-response","37","117441","0.0-3.0-0.17","79","1","2023-05-30 02:31:24","c5e7288ef5abdde20c6cfc36967cae27","154.30.137.8","Mozilla/5.0 (Windows NT 10.0; Win64; x64) AppleWebKit/537.36 (KHTML, like Gecko) Chrome/111.0.0.0 Safari/537.36","WebKit","Chrome","111.0.0.0","Windows","10.0","null","<div style=""font-size:60px;"">+</div>","null",""
"","","","","","html-button-response","38","119415","0.0-3.0-1.17","79","1","2023-05-30 02:31:24","c5e7288ef5abdde20c6cfc36967cae27","154.30.137.8","Mozilla/5.0 (Windows NT 10.0; Win64; x64) AppleWebKit/537.36 (KHTML, like Gecko) Chrome/111.0.0.0 Safari/537.36","WebKit","Chrome","111.0.0.0","Windows","10.0","1971","<p>As the military commander, you could choose to launch a missile to kill <strong>1 enemy soldier</strong> , but would accidentally kill <strong>1 enemy civilian</strong> nearby.</p> <p>The photo of the <strong>enemy civilian</strong> is shown below.</p> <p></p> <img src='stimuli/faces/NCM2.jpg', style='max-width: 30%;'> </img> <p><strong>Would you launch the weapon?</strong></p>","1",""
"","","","","","html-keyboard-response","39","120420","0.0-3.0-0.18","79","1","2023-05-30 02:31:24","c5e7288ef5abdde20c6cfc36967cae27","154.30.137.8","Mozilla/5.0 (Windows NT 10.0; Win64; x64) AppleWebKit/537.36 (KHTML, like Gecko) Chrome/111.0.0.0 Safari/537.36","WebKit","Chrome","111.0.0.0","Windows","10.0","null","<div style=""font-size:60px;"">+</div>","null",""
"","","","","","html-button-response","40","122119","0.0-3.0-1.18","79","1","2023-05-30 02:31:24","c5e7288ef5abdde20c6cfc36967cae27","154.30.137.8","Mozilla/5.0 (Windows NT 10.0; Win64; x64) AppleWebKit/537.36 (KHTML, like Gecko) Chrome/111.0.0.0 Safari/537.36","WebKit","Chrome","111.0.0.0","Windows","10.0","1697","<p>As the military commander, you could choose to launch a missile to kill <strong>9 enemy soldiers</strong> , but would accidentally kill <strong>1 enemy tree</strong> nearby.</p> <p>The photo of the <strong>enemy tree</strong> is shown below.</p> <p></p> <img src='stimuli/tree/1.png', style='max-width: 30%;'> </img> <p><strong>Would you launch the weapon?</strong></p>","0",""
"","","","","","html-keyboard-response","41","123121","0.0-3.0-0.19","79","1","2023-05-30 02:31:24","c5e7288ef5abdde20c6cfc36967cae27","154.30.137.8","Mozilla/5.0 (Windows NT 10.0; Win64; x64) AppleWebKit/537.36 (KHTML, like Gecko) Chrome/111.0.0.0 Safari/537.36","WebKit","Chrome","111.0.0.0","Windows","10.0","null","<div style=""font-size:60px;"">+</div>","null",""
"","","","","","html-button-response","42","124767","0.0-3.0-1.19","79","1","2023-05-30 02:31:24","c5e7288ef5abdde20c6cfc36967cae27","154.30.137.8","Mozilla/5.0 (Windows NT 10.0; Win64; x64) AppleWebKit/537.36 (KHTML, like Gecko) Chrome/111.0.0.0 Safari/537.36","WebKit","Chrome","111.0.0.0","Windows","10.0","1643","<p>As the military commander, you could choose to launch a missile to kill <strong>6 enemy soldiers</strong> , but would accidentally kill <strong>1 enemy tree</strong> nearby.</p> <p>The photo of the <strong>enemy tree</strong> is shown below.</p> <p></p> <img src='stimuli/tree/12.png', style='max-width: 30%;'> </img> <p><strong>Would you launch the weapon?</strong></p>","0",""
"","","","","","html-keyboard-response","43","125768","0.0-3.0-0.20","79","1","2023-05-30 02:31:24","c5e7288ef5abdde20c6cfc36967cae27","154.30.137.8","Mozilla/5.0 (Windows NT 10.0; Win64; x64) AppleWebKit/537.36 (KHTML, like Gecko) Chrome/111.0.0.0 Safari/537.36","WebKit","Chrome","111.0.0.0","Windows","10.0","null","<div style=""font-size:60px;"">+</div>","null",""
"","","","","","html-button-response","44","128439","0.0-3.0-1.20","79","1","2023-05-30 02:31:24","c5e7288ef5abdde20c6cfc36967cae27","154.30.137.8","Mozilla/5.0 (Windows NT 10.0; Win64; x64) AppleWebKit/537.36 (KHTML, like Gecko) Chrome/111.0.0.0 Safari/537.36","WebKit","Chrome","111.0.0.0","Windows","10.0","2669","<p>As the military commander, you could choose to launch a missile to kill <strong>1 enemy soldier</strong> , but would accidentally kill <strong>1 enemy tree</strong> nearby.</p> <p>The photo of the <strong>enemy tree</strong> is shown below.</p> <p></p> <img src='stimuli/tree/11.png', style='max-width: 30%;'> </img> <p><strong>Would you launch the weapon?</strong></p>","1",""
"","","","","","html-keyboard-response","45","129443","0.0-3.0-0.21","79","1","2023-05-30 02:31:24","c5e7288ef5abdde20c6cfc36967cae27","154.30.137.8","Mozilla/5.0 (Windows NT 10.0; Win64; x64) AppleWebKit/537.36 (KHTML, like Gecko) Chrome/111.0.0.0 Safari/537.36","WebKit","Chrome","111.0.0.0","Windows","10.0","null","<div style=""font-size:60px;"">+</div>","null",""
"","","","","","html-button-response","46","132015","0.0-3.0-1.21","79","1","2023-05-30 02:31:24","c5e7288ef5abdde20c6cfc36967cae27","154.30.137.8","Mozilla/5.0 (Windows NT 10.0; Win64; x64) AppleWebKit/537.36 (KHTML, like Gecko) Chrome/111.0.0.0 Safari/537.36","WebKit","Chrome","111.0.0.0","Windows","10.0","2569","<p>As the military commander, you could choose to launch a missile to kill <strong>2 enemy soldiers</strong> , but would accidentally kill <strong>1 enemy tree</strong> nearby.</p> <p>The photo of the <strong>enemy tree</strong> is shown below.</p> <p></p> <img src='stimuli/tree/7.png', style='max-width: 30%;'> </img> <p><strong>Would you launch the weapon?</strong></p>","0",""
"","","","","","html-keyboard-response","47","133018","0.0-3.0-0.22","79","1","2023-05-30 02:31:24","c5e7288ef5abdde20c6cfc36967cae27","154.30.137.8","Mozilla/5.0 (Windows NT 10.0; Win64; x64) AppleWebKit/537.36 (KHTML, like Gecko) Chrome/111.0.0.0 Safari/537.36","WebKit","Chrome","111.0.0.0","Windows","10.0","null","<div style=""font-size:60px;"">+</div>","null",""
"","","","","","html-button-response","48","135912","0.0-3.0-1.22","79","1","2023-05-30 02:31:24","c5e7288ef5abdde20c6cfc36967cae27","154.30.137.8","Mozilla/5.0 (Windows NT 10.0; Win64; x64) AppleWebKit/537.36 (KHTML, like Gecko) Chrome/111.0.0.0 Safari/537.36","WebKit","Chrome","111.0.0.0","Windows","10.0","2891","<p>As the military commander, you could choose to launch a missile to kill <strong>7 enemy soldiers</strong> , but would accidentally kill <strong>1 enemy civilian</strong> nearby.</p> <p>The photo of the <strong>enemy civilian</strong> is shown below.</p> <p></p> <img src='stimuli/faces/NCF3.jpg', style='max-width: 30%;'> </img> <p><strong>Would you launch the weapon?</strong></p>","1",""
"","","","","","html-keyboard-response","49","136915","0.0-3.0-0.23","79","1","2023-05-30 02:31:24","c5e7288ef5abdde20c6cfc36967cae27","154.30.137.8","Mozilla/5.0 (Windows NT 10.0; Win64; x64) AppleWebKit/537.36 (KHTML, like Gecko) Chrome/111.0.0.0 Safari/537.36","WebKit","Chrome","111.0.0.0","Windows","10.0","null","<div style=""font-size:60px;"">+</div>","null",""
"","","","","","html-button-response","50","139375","0.0-3.0-1.23","79","1","2023-05-30 02:31:24","c5e7288ef5abdde20c6cfc36967cae27","154.30.137.8","Mozilla/5.0 (Windows NT 10.0; Win64; x64) AppleWebKit/537.36 (KHTML, like Gecko) Chrome/111.0.0.0 Safari/537.36","WebKit","Chrome","111.0.0.0","Windows","10.0","2458","<p>As the military commander, you could choose to launch a missile to kill <strong>8 enemy soldiers</strong> , but would accidentally kill <strong>1 enemy tree</strong> nearby.</p> <p>The photo of the <strong>enemy tree</strong> is shown below.</p> <p></p> <img src='stimuli/tree/2.png', style='max-width: 30%;'> </img> <p><strong>Would you launch the weapon?</strong></p>","0",""
"","","","","","html-keyboard-response","51","140377","0.0-3.0-0.24","79","1","2023-05-30 02:31:24","c5e7288ef5abdde20c6cfc36967cae27","154.30.137.8","Mozilla/5.0 (Windows NT 10.0; Win64; x64) AppleWebKit/537.36 (KHTML, like Gecko) Chrome/111.0.0.0 Safari/537.36","WebKit","Chrome","111.0.0.0","Windows","10.0","null","<div style=""font-size:60px;"">+</div>","null",""
"","","","","","html-button-response","52","142023","0.0-3.0-1.24","79","1","2023-05-30 02:31:24","c5e7288ef5abdde20c6cfc36967cae27","154.30.137.8","Mozilla/5.0 (Windows NT 10.0; Win64; x64) AppleWebKit/537.36 (KHTML, like Gecko) Chrome/111.0.0.0 Safari/537.36","WebKit","Chrome","111.0.0.0","Windows","10.0","1643","<p>As the military commander, you could choose to launch a missile to kill <strong>10 enemy soldiers</strong> , but would accidentally kill <strong>1 enemy tree</strong> nearby.</p> <p>The photo of the <strong>enemy tree</strong> is shown below.</p> <p></p> <img src='stimuli/tree/15.png', style='max-width: 30%;'> </img> <p><strong>Would you launch the weapon?</strong></p>","0",""
"","","","","","html-keyboard-response","53","143026","0.0-3.0-0.25","79","1","2023-05-30 02:31:24","c5e7288ef5abdde20c6cfc36967cae27","154.30.137.8","Mozilla/5.0 (Windows NT 10.0; Win64; x64) AppleWebKit/537.36 (KHTML, like Gecko) Chrome/111.0.0.0 Safari/537.36","WebKit","Chrome","111.0.0.0","Windows","10.0","null","<div style=""font-size:60px;"">+</div>","null",""
"","","","","","html-button-response","54","144342","0.0-3.0-1.25","79","1","2023-05-30 02:31:24","c5e7288ef5abdde20c6cfc36967cae27","154.30.137.8","Mozilla/5.0 (Windows NT 10.0; Win64; x64) AppleWebKit/537.36 (KHTML, like Gecko) Chrome/111.0.0.0 Safari/537.36","WebKit","Chrome","111.0.0.0","Windows","10.0","1315","<p>As the military commander, you could choose to launch a missile to kill <strong>8 enemy soldiers</strong> , but would accidentally kill <strong>1 enemy tree</strong> nearby.</p> <p>The photo of the <strong>enemy tree</strong> is shown below.</p> <p></p> <img src='stimuli/tree/13.png', style='max-width: 30%;'> </img> <p><strong>Would you launch the weapon?</strong></p>","0",""
"","","","","","html-keyboard-response","55","145345","0.0-3.0-0.26","79","1","2023-05-30 02:31:24","c5e7288ef5abdde20c6cfc36967cae27","154.30.137.8","Mozilla/5.0 (Windows NT 10.0; Win64; x64) AppleWebKit/537.36 (KHTML, like Gecko) Chrome/111.0.0.0 Safari/537.36","WebKit","Chrome","111.0.0.0","Windows","10.0","null","<div style=""font-size:60px;"">+</div>","null",""
"","","","","","html-button-response","56","146934","0.0-3.0-1.26","79","1","2023-05-30 02:31:24","c5e7288ef5abdde20c6cfc36967cae27","154.30.137.8","Mozilla/5.0 (Windows NT 10.0; Win64; x64) AppleWebKit/537.36 (KHTML, like Gecko) Chrome/111.0.0.0 Safari/537.36","WebKit","Chrome","111.0.0.0","Windows","10.0","1585","<p>As the military commander, you could choose to launch a missile to kill <strong>4 enemy soldiers</strong> , but would accidentally kill <strong>1 enemy tree</strong> nearby.</p> <p>The photo of the <strong>enemy tree</strong> is shown below.</p> <p></p> <img src='stimuli/tree/13.png', style='max-width: 30%;'> </img> <p><strong>Would you launch the weapon?</strong></p>","0",""
"","","","","","html-keyboard-response","57","147937","0.0-3.0-0.27","79","1","2023-05-30 02:31:24","c5e7288ef5abdde20c6cfc36967cae27","154.30.137.8","Mozilla/5.0 (Windows NT 10.0; Win64; x64) AppleWebKit/537.36 (KHTML, like Gecko) Chrome/111.0.0.0 Safari/537.36","WebKit","Chrome","111.0.0.0","Windows","10.0","null","<div style=""font-size:60px;"">+</div>","null",""
"","","","","","html-button-response","58","149319","0.0-3.0-1.27","79","1","2023-05-30 02:31:24","c5e7288ef5abdde20c6cfc36967cae27","154.30.137.8","Mozilla/5.0 (Windows NT 10.0; Win64; x64) AppleWebKit/537.36 (KHTML, like Gecko) Chrome/111.0.0.0 Safari/537.36","WebKit","Chrome","111.0.0.0","Windows","10.0","1379","<p>As the military commander, you could choose to launch a missile to kill <strong>4 enemy soldiers</strong> , but would accidentally kill <strong>1 enemy civilian</strong> nearby.</p> <p>The photo of the <strong>enemy civilian</strong> is shown below.</p> <p></p> <img src='stimuli/faces/NCF1.jpg', style='max-width: 30%;'> </img> <p><strong>Would you launch the weapon?</strong></p>","1",""
"","","","","","html-keyboard-response","59","150322","0.0-3.0-0.28","79","1","2023-05-30 02:31:24","c5e7288ef5abdde20c6cfc36967cae27","154.30.137.8","Mozilla/5.0 (Windows NT 10.0; Win64; x64) AppleWebKit/537.36 (KHTML, like Gecko) Chrome/111.0.0.0 Safari/537.36","WebKit","Chrome","111.0.0.0","Windows","10.0","null","<div style=""font-size:60px;"">+</div>","null",""
"","","","","","html-button-response","60","151591","0.0-3.0-1.28","79","1","2023-05-30 02:31:24","c5e7288ef5abdde20c6cfc36967cae27","154.30.137.8","Mozilla/5.0 (Windows NT 10.0; Win64; x64) AppleWebKit/537.36 (KHTML, like Gecko) Chrome/111.0.0.0 Safari/537.36","WebKit","Chrome","111.0.0.0","Windows","10.0","1266","<p>As the military commander, you could choose to launch a missile to kill <strong>1 enemy soldier</strong> , but would accidentally kill <strong>1 enemy tree</strong> nearby.</p> <p>The photo of the <strong>enemy tree</strong> is shown below.</p> <p></p> <img src='stimuli/tree/3.png', style='max-width: 30%;'> </img> <p><strong>Would you launch the weapon?</strong></p>","0",""
"","","","","","html-keyboard-response","61","152593","0.0-3.0-0.29","79","1","2023-05-30 02:31:24","c5e7288ef5abdde20c6cfc36967cae27","154.30.137.8","Mozilla/5.0 (Windows NT 10.0; Win64; x64) AppleWebKit/537.36 (KHTML, like Gecko) Chrome/111.0.0.0 Safari/537.36","WebKit","Chrome","111.0.0.0","Windows","10.0","null","<div style=""font-size:60px;"">+</div>","null",""
"","","","","","html-button-response","62","153622","0.0-3.0-1.29","79","1","2023-05-30 02:31:24","c5e7288ef5abdde20c6cfc36967cae27","154.30.137.8","Mozilla/5.0 (Windows NT 10.0; Win64; x64) AppleWebKit/537.36 (KHTML, like Gecko) Chrome/111.0.0.0 Safari/537.36","WebKit","Chrome","111.0.0.0","Windows","10.0","1026","<p>As the military commander, you could choose to launch a missile to kill <strong>9 enemy soldiers</strong> , but would accidentally kill <strong>1 enemy civilian</strong> nearby.</p> <p>The photo of the <strong>enemy civilian</strong> is shown below.</p> <p></p> <img src='stimuli/faces/NCM2.jpg', style='max-width: 30%;'> </img> <p><strong>Would you launch the weapon?</strong></p>","1",""
"","","","","","html-keyboard-response","63","154624","0.0-3.0-0.30","79","1","2023-05-30 02:31:24","c5e7288ef5abdde20c6cfc36967cae27","154.30.137.8","Mozilla/5.0 (Windows NT 10.0; Win64; x64) AppleWebKit/537.36 (KHTML, like Gecko) Chrome/111.0.0.0 Safari/537.36","WebKit","Chrome","111.0.0.0","Windows","10.0","null","<div style=""font-size:60px;"">+</div>","null",""
"","","","","","html-button-response","64","159654","0.0-3.0-1.30","79","1","2023-05-30 02:31:24","c5e7288ef5abdde20c6cfc36967cae27","154.30.137.8","Mozilla/5.0 (Windows NT 10.0; Win64; x64) AppleWebKit/537.36 (KHTML, like Gecko) Chrome/111.0.0.0 Safari/537.36","WebKit","Chrome","111.0.0.0","Windows","10.0","5027","<p>As the military commander, you could choose to launch a missile to kill <strong>7 enemy soldiers</strong> , but would accidentally kill <strong>1 enemy civilian</strong> nearby.</p> <p>The photo of the <strong>enemy civilian</strong> is shown below.</p> <p></p> <img src='stimuli/faces/NCM5.jpg', style='max-width: 30%;'> </img> <p><strong>Would you launch the weapon?</strong></p>","1",""
"","","","","","html-keyboard-response","65","160658","0.0-3.0-0.31","79","1","2023-05-30 02:31:24","c5e7288ef5abdde20c6cfc36967cae27","154.30.137.8","Mozilla/5.0 (Windows NT 10.0; Win64; x64) AppleWebKit/537.36 (KHTML, like Gecko) Chrome/111.0.0.0 Safari/537.36","WebKit","Chrome","111.0.0.0","Windows","10.0","null","<div style=""font-size:60px;"">+</div>","null",""
"","","","","","html-button-response","66","162262","0.0-3.0-1.31","79","1","2023-05-30 02:31:24","c5e7288ef5abdde20c6cfc36967cae27","154.30.137.8","Mozilla/5.0 (Windows NT 10.0; Win64; x64) AppleWebKit/537.36 (KHTML, like Gecko) Chrome/111.0.0.0 Safari/537.36","WebKit","Chrome","111.0.0.0","Windows","10.0","1599","<p>As the military commander, you could choose to launch a missile to kill <strong>5 enemy soldiers</strong> , but would accidentally kill <strong>1 enemy civilian</strong> nearby.</p> <p>The photo of the <strong>enemy civilian</strong> is shown below.</p> <p></p> <img src='stimuli/faces/NCM8.jpg', style='max-width: 30%;'> </img> <p><strong>Would you launch the weapon?</strong></p>","1",""
"","","","","","html-keyboard-response","67","163264","0.0-3.0-0.32","79","1","2023-05-30 02:31:24","c5e7288ef5abdde20c6cfc36967cae27","154.30.137.8","Mozilla/5.0 (Windows NT 10.0; Win64; x64) AppleWebKit/537.36 (KHTML, like Gecko) Chrome/111.0.0.0 Safari/537.36","WebKit","Chrome","111.0.0.0","Windows","10.0","null","<div style=""font-size:60px;"">+</div>","null",""
"","","","","","html-button-response","68","165550","0.0-3.0-1.32","79","1","2023-05-30 02:31:24","c5e7288ef5abdde20c6cfc36967cae27","154.30.137.8","Mozilla/5.0 (Windows NT 10.0; Win64; x64) AppleWebKit/537.36 (KHTML, like Gecko) Chrome/111.0.0.0 Safari/537.36","WebKit","Chrome","111.0.0.0","Windows","10.0","2284","<p>As the military commander, you could choose to launch a missile to kill <strong>10 enemy soldiers</strong> , but would accidentally kill <strong>1 enemy tree</strong> nearby.</p> <p>The photo of the <strong>enemy tree</strong> is shown below.</p> <p></p> <img src='stimuli/tree/9.png', style='max-width: 30%;'> </img> <p><strong>Would you launch the weapon?</strong></p>","0",""
"","","","","","html-keyboard-response","69","166553","0.0-3.0-0.33","79","1","2023-05-30 02:31:24","c5e7288ef5abdde20c6cfc36967cae27","154.30.137.8","Mozilla/5.0 (Windows NT 10.0; Win64; x64) AppleWebKit/537.36 (KHTML, like Gecko) Chrome/111.0.0.0 Safari/537.36","WebKit","Chrome","111.0.0.0","Windows","10.0","null","<div style=""font-size:60px;"">+</div>","null",""
"","","","","","html-button-response","70","168510","0.0-3.0-1.33","79","1","2023-05-30 02:31:24","c5e7288ef5abdde20c6cfc36967cae27","154.30.137.8","Mozilla/5.0 (Windows NT 10.0; Win64; x64) AppleWebKit/537.36 (KHTML, like Gecko) Chrome/111.0.0.0 Safari/537.36","WebKit","Chrome","111.0.0.0","Windows","10.0","1954","<p>As the military commander, you could choose to launch a missile to kill <strong>1 enemy soldier</strong> , but would accidentally kill <strong>1 enemy civilian</strong> nearby.</p> <p>The photo of the <strong>enemy civilian</strong> is shown below.</p> <p></p> <img src='stimuli/faces/NCF2.jpg', style='max-width: 30%;'> </img> <p><strong>Would you launch the weapon?</strong></p>","1",""
"","","","","","html-keyboard-response","71","169512","0.0-3.0-0.34","79","1","2023-05-30 02:31:24","c5e7288ef5abdde20c6cfc36967cae27","154.30.137.8","Mozilla/5.0 (Windows NT 10.0; Win64; x64) AppleWebKit/537.36 (KHTML, like Gecko) Chrome/111.0.0.0 Safari/537.36","WebKit","Chrome","111.0.0.0","Windows","10.0","null","<div style=""font-size:60px;"">+</div>","null",""
"","","","","","html-button-response","72","172070","0.0-3.0-1.34","79","1","2023-05-30 02:31:24","c5e7288ef5abdde20c6cfc36967cae27","154.30.137.8","Mozilla/5.0 (Windows NT 10.0; Win64; x64) AppleWebKit/537.36 (KHTML, like Gecko) Chrome/111.0.0.0 Safari/537.36","WebKit","Chrome","111.0.0.0","Windows","10.0","2555","<p>As the military commander, you could choose to launch a missile to kill <strong>1 enemy soldier</strong> , but would accidentally kill <strong>1 enemy civilian</strong> nearby.</p> <p>The photo of the <strong>enemy civilian</strong> is shown below.</p> <p></p> <img src='stimuli/faces/NCF7.jpg', style='max-width: 30%;'> </img> <p><strong>Would you launch the weapon?</strong></p>","1",""
"","","","","","html-keyboard-response","73","173073","0.0-3.0-0.35","79","1","2023-05-30 02:31:24","c5e7288ef5abdde20c6cfc36967cae27","154.30.137.8","Mozilla/5.0 (Windows NT 10.0; Win64; x64) AppleWebKit/537.36 (KHTML, like Gecko) Chrome/111.0.0.0 Safari/537.36","WebKit","Chrome","111.0.0.0","Windows","10.0","null","<div style=""font-size:60px;"">+</div>","null",""
"","","","","","html-button-response","74","175094","0.0-3.0-1.35","79","1","2023-05-30 02:31:24","c5e7288ef5abdde20c6cfc36967cae27","154.30.137.8","Mozilla/5.0 (Windows NT 10.0; Win64; x64) AppleWebKit/537.36 (KHTML, like Gecko) Chrome/111.0.0.0 Safari/537.36","WebKit","Chrome","111.0.0.0","Windows","10.0","2018","<p>As the military commander, you could choose to launch a missile to kill <strong>6 enemy soldiers</strong> , but would accidentally kill <strong>1 enemy civilian</strong> nearby.</p> <p>The photo of the <strong>enemy civilian</strong> is shown below.</p> <p></p> <img src='stimuli/faces/NCM6.jpg', style='max-width: 30%;'> </img> <p><strong>Would you launch the weapon?</strong></p>","1",""
"","","","","","html-keyboard-response","75","176098","0.0-3.0-0.36","79","1","2023-05-30 02:31:24","c5e7288ef5abdde20c6cfc36967cae27","154.30.137.8","Mozilla/5.0 (Windows NT 10.0; Win64; x64) AppleWebKit/537.36 (KHTML, like Gecko) Chrome/111.0.0.0 Safari/537.36","WebKit","Chrome","111.0.0.0","Windows","10.0","null","<div style=""font-size:60px;"">+</div>","null",""
"","","","","","html-button-response","76","178335","0.0-3.0-1.36","79","1","2023-05-30 02:31:24","c5e7288ef5abdde20c6cfc36967cae27","154.30.137.8","Mozilla/5.0 (Windows NT 10.0; Win64; x64) AppleWebKit/537.36 (KHTML, like Gecko) Chrome/111.0.0.0 Safari/537.36","WebKit","Chrome","111.0.0.0","Windows","10.0","2234","<p>As the military commander, you could choose to launch a missile to kill <strong>1 enemy soldier</strong> , but would accidentally kill <strong>1 enemy tree</strong> nearby.</p> <p>The photo of the <strong>enemy tree</strong> is shown below.</p> <p></p> <img src='stimuli/tree/14.png', style='max-width: 30%;'> </img> <p><strong>Would you launch the weapon?</strong></p>","1",""
"","","","","","html-keyboard-response","77","179338","0.0-3.0-0.37","79","1","2023-05-30 02:31:24","c5e7288ef5abdde20c6cfc36967cae27","154.30.137.8","Mozilla/5.0 (Windows NT 10.0; Win64; x64) AppleWebKit/537.36 (KHTML, like Gecko) Chrome/111.0.0.0 Safari/537.36","WebKit","Chrome","111.0.0.0","Windows","10.0","null","<div style=""font-size:60px;"">+</div>","null",""
"","","","","","html-button-response","78","181880","0.0-3.0-1.37","79","1","2023-05-30 02:31:24","c5e7288ef5abdde20c6cfc36967cae27","154.30.137.8","Mozilla/5.0 (Windows NT 10.0; Win64; x64) AppleWebKit/537.36 (KHTML, like Gecko) Chrome/111.0.0.0 Safari/537.36","WebKit","Chrome","111.0.0.0","Windows","10.0","2539","<p>As the military commander, you could choose to launch a missile to kill <strong>3 enemy soldiers</strong> , but would accidentally kill <strong>1 enemy tree</strong> nearby.</p> <p>The photo of the <strong>enemy tree</strong> is shown below.</p> <p></p> <img src='stimuli/tree/16.png', style='max-width: 30%;'> </img> <p><strong>Would you launch the weapon?</strong></p>","0",""
"","","","","","html-keyboard-response","79","182883","0.0-3.0-0.38","79","1","2023-05-30 02:31:24","c5e7288ef5abdde20c6cfc36967cae27","154.30.137.8","Mozilla/5.0 (Windows NT 10.0; Win64; x64) AppleWebKit/537.36 (KHTML, like Gecko) Chrome/111.0.0.0 Safari/537.36","WebKit","Chrome","111.0.0.0","Windows","10.0","null","<div style=""font-size:60px;"">+</div>","null",""
"","","","","","html-button-response","80","184959","0.0-3.0-1.38","79","1","2023-05-30 02:31:24","c5e7288ef5abdde20c6cfc36967cae27","154.30.137.8","Mozilla/5.0 (Windows NT 10.0; Win64; x64) AppleWebKit/537.36 (KHTML, like Gecko) Chrome/111.0.0.0 Safari/537.36","WebKit","Chrome","111.0.0.0","Windows","10.0","2074","<p>As the military commander, you could choose to launch a missile to kill <strong>4 enemy soldiers</strong> , but would accidentally kill <strong>1 enemy tree</strong> nearby.</p> <p>The photo of the <strong>enemy tree</strong> is shown below.</p> <p></p> <img src='stimuli/tree/1.png', style='max-width: 30%;'> </img> <p><strong>Would you launch the weapon?</strong></p>","0",""
"","","","","","html-keyboard-response","81","185976","0.0-3.0-0.39","79","1","2023-05-30 02:31:24","c5e7288ef5abdde20c6cfc36967cae27","154.30.137.8","Mozilla/5.0 (Windows NT 10.0; Win64; x64) AppleWebKit/537.36 (KHTML, like Gecko) Chrome/111.0.0.0 Safari/537.36","WebKit","Chrome","111.0.0.0","Windows","10.0","null","<div style=""font-size:60px;"">+</div>","null",""
"","","","","","html-button-response","82","188280","0.0-3.0-1.39","79","1","2023-05-30 02:31:24","c5e7288ef5abdde20c6cfc36967cae27","154.30.137.8","Mozilla/5.0 (Windows NT 10.0; Win64; x64) AppleWebKit/537.36 (KHTML, like Gecko) Chrome/111.0.0.0 Safari/537.36","WebKit","Chrome","111.0.0.0","Windows","10.0","2300","<p>As the military commander, you could choose to launch a missile to kill <strong>9 enemy soldiers</strong> , but would accidentally kill <strong>1 enemy civilian</strong> nearby.</p> <p>The photo of the <strong>enemy civilian</strong> is shown below.</p> <p></p> <img src='stimuli/faces/NCF4.jpg', style='max-width: 30%;'> </img> <p><strong>Would you launch the weapon?</strong></p>","0",""
"","","","","","html-keyboard-response","83","189283","0.0-3.0-0.40","79","1","2023-05-30 02:31:24","c5e7288ef5abdde20c6cfc36967cae27","154.30.137.8","Mozilla/5.0 (Windows NT 10.0; Win64; x64) AppleWebKit/537.36 (KHTML, like Gecko) Chrome/111.0.0.0 Safari/537.36","WebKit","Chrome","111.0.0.0","Windows","10.0","null","<div style=""font-size:60px;"">+</div>","null",""
"","","","","","html-button-response","84","191423","0.0-3.0-1.40","79","1","2023-05-30 02:31:24","c5e7288ef5abdde20c6cfc36967cae27","154.30.137.8","Mozilla/5.0 (Windows NT 10.0; Win64; x64) AppleWebKit/537.36 (KHTML, like Gecko) Chrome/111.0.0.0 Safari/537.36","WebKit","Chrome","111.0.0.0","Windows","10.0","2137","<p>As the military commander, you could choose to launch a missile to kill <strong>8 enemy soldiers</strong> , but would accidentally kill <strong>1 enemy tree</strong> nearby.</p> <p>The photo of the <strong>enemy tree</strong> is shown below.</p> <p></p> <img src='stimuli/tree/14.png', style='max-width: 30%;'> </img> <p><strong>Would you launch the weapon?</strong></p>","0",""
"","","","","","html-keyboard-response","85","192426","0.0-3.0-0.41","79","1","2023-05-30 02:31:24","c5e7288ef5abdde20c6cfc36967cae27","154.30.137.8","Mozilla/5.0 (Windows NT 10.0; Win64; x64) AppleWebKit/537.36 (KHTML, like Gecko) Chrome/111.0.0.0 Safari/537.36","WebKit","Chrome","111.0.0.0","Windows","10.0","null","<div style=""font-size:60px;"">+</div>","null",""
"","","","","","html-button-response","86","194239","0.0-3.0-1.41","79","1","2023-05-30 02:31:24","c5e7288ef5abdde20c6cfc36967cae27","154.30.137.8","Mozilla/5.0 (Windows NT 10.0; Win64; x64) AppleWebKit/537.36 (KHTML, like Gecko) Chrome/111.0.0.0 Safari/537.36","WebKit","Chrome","111.0.0.0","Windows","10.0","1810","<p>As the military commander, you could choose to launch a missile to kill <strong>7 enemy soldiers</strong> , but would accidentally kill <strong>1 enemy tree</strong> nearby.</p> <p>The photo of the <strong>enemy tree</strong> is shown below.</p> <p></p> <img src='stimuli/tree/3.png', style='max-width: 30%;'> </img> <p><strong>Would you launch the weapon?</strong></p>","0",""
"","","","","","html-keyboard-response","87","195242","0.0-3.0-0.42","79","1","2023-05-30 02:31:24","c5e7288ef5abdde20c6cfc36967cae27","154.30.137.8","Mozilla/5.0 (Windows NT 10.0; Win64; x64) AppleWebKit/537.36 (KHTML, like Gecko) Chrome/111.0.0.0 Safari/537.36","WebKit","Chrome","111.0.0.0","Windows","10.0","null","<div style=""font-size:60px;"">+</div>","null",""
"","","","","","html-button-response","88","196527","0.0-3.0-1.42","79","1","2023-05-30 02:31:24","c5e7288ef5abdde20c6cfc36967cae27","154.30.137.8","Mozilla/5.0 (Windows NT 10.0; Win64; x64) AppleWebKit/537.36 (KHTML, like Gecko) Chrome/111.0.0.0 Safari/537.36","WebKit","Chrome","111.0.0.0","Windows","10.0","1282","<p>As the military commander, you could choose to launch a missile to kill <strong>8 enemy soldiers</strong> , but would accidentally kill <strong>1 enemy tree</strong> nearby.</p> <p>The photo of the <strong>enemy tree</strong> is shown below.</p> <p></p> <img src='stimuli/tree/11.png', style='max-width: 30%;'> </img> <p><strong>Would you launch the weapon?</strong></p>","0",""
"","","","","","html-keyboard-response","89","197530","0.0-3.0-0.43","79","1","2023-05-30 02:31:24","c5e7288ef5abdde20c6cfc36967cae27","154.30.137.8","Mozilla/5.0 (Windows NT 10.0; Win64; x64) AppleWebKit/537.36 (KHTML, like Gecko) Chrome/111.0.0.0 Safari/537.36","WebKit","Chrome","111.0.0.0","Windows","10.0","null","<div style=""font-size:60px;"">+</div>","null",""
"","","","","","html-button-response","90","199327","0.0-3.0-1.43","79","1","2023-05-30 02:31:24","c5e7288ef5abdde20c6cfc36967cae27","154.30.137.8","Mozilla/5.0 (Windows NT 10.0; Win64; x64) AppleWebKit/537.36 (KHTML, like Gecko) Chrome/111.0.0.0 Safari/537.36","WebKit","Chrome","111.0.0.0","Windows","10.0","1794","<p>As the military commander, you could choose to launch a missile to kill <strong>4 enemy soldiers</strong> , but would accidentally kill <strong>1 enemy civilian</strong> nearby.</p> <p>The photo of the <strong>enemy civilian</strong> is shown below.</p> <p></p> <img src='stimuli/faces/NCF3.jpg', style='max-width: 30%;'> </img> <p><strong>Would you launch the weapon?</strong></p>","0",""
"","","","","","html-keyboard-response","91","200330","0.0-3.0-0.44","79","1","2023-05-30 02:31:24","c5e7288ef5abdde20c6cfc36967cae27","154.30.137.8","Mozilla/5.0 (Windows NT 10.0; Win64; x64) AppleWebKit/537.36 (KHTML, like Gecko) Chrome/111.0.0.0 Safari/537.36","WebKit","Chrome","111.0.0.0","Windows","10.0","null","<div style=""font-size:60px;"">+</div>","null",""
"","","","","","html-button-response","92","201751","0.0-3.0-1.44","79","1","2023-05-30 02:31:24","c5e7288ef5abdde20c6cfc36967cae27","154.30.137.8","Mozilla/5.0 (Windows NT 10.0; Win64; x64) AppleWebKit/537.36 (KHTML, like Gecko) Chrome/111.0.0.0 Safari/537.36","WebKit","Chrome","111.0.0.0","Windows","10.0","1417","<p>As the military commander, you could choose to launch a missile to kill <strong>6 enemy soldiers</strong> , but would accidentally kill <strong>1 enemy tree</strong> nearby.</p> <p>The photo of the <strong>enemy tree</strong> is shown below.</p> <p></p> <img src='stimuli/tree/8.png', style='max-width: 30%;'> </img> <p><strong>Would you launch the weapon?</strong></p>","0",""
"","","","","","html-keyboard-response","93","202757","0.0-3.0-0.45","79","1","2023-05-30 02:31:24","c5e7288ef5abdde20c6cfc36967cae27","154.30.137.8","Mozilla/5.0 (Windows NT 10.0; Win64; x64) AppleWebKit/537.36 (KHTML, like Gecko) Chrome/111.0.0.0 Safari/537.36","WebKit","Chrome","111.0.0.0","Windows","10.0","null","<div style=""font-size:60px;"">+</div>","null",""
"","","","","","html-button-response","94","203839","0.0-3.0-1.45","79","1","2023-05-30 02:31:24","c5e7288ef5abdde20c6cfc36967cae27","154.30.137.8","Mozilla/5.0 (Windows NT 10.0; Win64; x64) AppleWebKit/537.36 (KHTML, like Gecko) Chrome/111.0.0.0 Safari/537.36","WebKit","Chrome","111.0.0.0","Windows","10.0","1079","<p>As the military commander, you could choose to launch a missile to kill <strong>7 enemy soldiers</strong> , but would accidentally kill <strong>1 enemy tree</strong> nearby.</p> <p>The photo of the <strong>enemy tree</strong> is shown below.</p> <p></p> <img src='stimuli/tree/16.png', style='max-width: 30%;'> </img> <p><strong>Would you launch the weapon?</strong></p>","0",""
"","","","","","html-keyboard-response","95","204842","0.0-3.0-0.46","79","1","2023-05-30 02:31:24","c5e7288ef5abdde20c6cfc36967cae27","154.30.137.8","Mozilla/5.0 (Windows NT 10.0; Win64; x64) AppleWebKit/537.36 (KHTML, like Gecko) Chrome/111.0.0.0 Safari/537.36","WebKit","Chrome","111.0.0.0","Windows","10.0","null","<div style=""font-size:60px;"">+</div>","null",""
"","","","","","html-button-response","96","206057","0.0-3.0-1.46","79","1","2023-05-30 02:31:24","c5e7288ef5abdde20c6cfc36967cae27","154.30.137.8","Mozilla/5.0 (Windows NT 10.0; Win64; x64) AppleWebKit/537.36 (KHTML, like Gecko) Chrome/111.0.0.0 Safari/537.36","WebKit","Chrome","111.0.0.0","Windows","10.0","1211","<p>As the military commander, you could choose to launch a missile to kill <strong>5 enemy soldiers</strong> , but would accidentally kill <strong>1 enemy tree</strong> nearby.</p> <p>The photo of the <strong>enemy tree</strong> is shown below.</p> <p></p> <img src='stimuli/tree/2.png', style='max-width: 30%;'> </img> <p><strong>Would you launch the weapon?</strong></p>","0",""
"","","","","","html-keyboard-response","97","207061","0.0-3.0-0.47","79","1","2023-05-30 02:31:24","c5e7288ef5abdde20c6cfc36967cae27","154.30.137.8","Mozilla/5.0 (Windows NT 10.0; Win64; x64) AppleWebKit/537.36 (KHTML, like Gecko) Chrome/111.0.0.0 Safari/537.36","WebKit","Chrome","111.0.0.0","Windows","10.0","null","<div style=""font-size:60px;"">+</div>","null",""
"","","","","","html-button-response","98","208231","0.0-3.0-1.47","79","1","2023-05-30 02:31:24","c5e7288ef5abdde20c6cfc36967cae27","154.30.137.8","Mozilla/5.0 (Windows NT 10.0; Win64; x64) AppleWebKit/537.36 (KHTML, like Gecko) Chrome/111.0.0.0 Safari/537.36","WebKit","Chrome","111.0.0.0","Windows","10.0","1167","<p>As the military commander, you could choose to launch a missile to kill <strong>2 enemy soldiers</strong> , but would accidentally kill <strong>1 enemy tree</strong> nearby.</p> <p>The photo of the <strong>enemy tree</strong> is shown below.</p> <p></p> <img src='stimuli/tree/9.png', style='max-width: 30%;'> </img> <p><strong>Would you launch the weapon?</strong></p>","0",""
"","","","","","html-keyboard-response","99","209234","0.0-3.0-0.48","79","1","2023-05-30 02:31:24","c5e7288ef5abdde20c6cfc36967cae27","154.30.137.8","Mozilla/5.0 (Windows NT 10.0; Win64; x64) AppleWebKit/537.36 (KHTML, like Gecko) Chrome/111.0.0.0 Safari/537.36","WebKit","Chrome","111.0.0.0","Windows","10.0","null","<div style=""font-size:60px;"">+</div>","null",""
"","","","","","html-button-response","100","211135","0.0-3.0-1.48","79","1","2023-05-30 02:31:24","c5e7288ef5abdde20c6cfc36967cae27","154.30.137.8","Mozilla/5.0 (Windows NT 10.0; Win64; x64) AppleWebKit/537.36 (KHTML, like Gecko) Chrome/111.0.0.0 Safari/537.36","WebKit","Chrome","111.0.0.0","Windows","10.0","1898","<p>As the military commander, you could choose to launch a missile to kill <strong>3 enemy soldiers</strong> , but would accidentally kill <strong>1 enemy civilian</strong> nearby.</p> <p>The photo of the <strong>enemy civilian</strong> is shown below.</p> <p></p> <img src='stimuli/faces/NCM7.jpg', style='max-width: 30%;'> </img> <p><strong>Would you launch the weapon?</strong></p>","1",""
"","","","","","html-keyboard-response","101","212139","0.0-3.0-0.49","79","1","2023-05-30 02:31:24","c5e7288ef5abdde20c6cfc36967cae27","154.30.137.8","Mozilla/5.0 (Windows NT 10.0; Win64; x64) AppleWebKit/537.36 (KHTML, like Gecko) Chrome/111.0.0.0 Safari/537.36","WebKit","Chrome","111.0.0.0","Windows","10.0","null","<div style=""font-size:60px;"">+</div>","null",""
"","","","","","html-button-response","102","213913","0.0-3.0-1.49","79","1","2023-05-30 02:31:24","c5e7288ef5abdde20c6cfc36967cae27","154.30.137.8","Mozilla/5.0 (Windows NT 10.0; Win64; x64) AppleWebKit/537.36 (KHTML, like Gecko) Chrome/111.0.0.0 Safari/537.36","WebKit","Chrome","111.0.0.0","Windows","10.0","1769","<p>As the military commander, you could choose to launch a missile to kill <strong>9 enemy soldiers</strong> , but would accidentally kill <strong>1 enemy tree</strong> nearby.</p> <p>The photo of the <strong>enemy tree</strong> is shown below.</p> <p></p> <img src='stimuli/tree/6.png', style='max-width: 30%;'> </img> <p><strong>Would you launch the weapon?</strong></p>","0",""
"","","","","","html-keyboard-response","103","214916","0.0-3.0-0.50","79","1","2023-05-30 02:31:24","c5e7288ef5abdde20c6cfc36967cae27","154.30.137.8","Mozilla/5.0 (Windows NT 10.0; Win64; x64) AppleWebKit/537.36 (KHTML, like Gecko) Chrome/111.0.0.0 Safari/537.36","WebKit","Chrome","111.0.0.0","Windows","10.0","null","<div style=""font-size:60px;"">+</div>","null",""
"","","","","","html-button-response","104","224887","0.0-3.0-1.50","79","1","2023-05-30 02:31:24","c5e7288ef5abdde20c6cfc36967cae27","154.30.137.8","Mozilla/5.0 (Windows NT 10.0; Win64; x64) AppleWebKit/537.36 (KHTML, like Gecko) Chrome/111.0.0.0 Safari/537.36","WebKit","Chrome","111.0.0.0","Windows","10.0","9967","<p>As the military commander, you could choose to launch a missile to kill <strong>7 enemy soldiers</strong> , but would accidentally kill <strong>1 enemy civilian</strong> nearby.</p> <p>The photo of the <strong>enemy civilian</strong> is shown below.</p> <p></p> <img src='stimuli/faces/NCF7.jpg', style='max-width: 30%;'> </img> <p><strong>Would you launch the weapon?</strong></p>","1",""
"","","","","","html-keyboard-response","105","225890","0.0-3.0-0.51","79","1","2023-05-30 02:31:24","c5e7288ef5abdde20c6cfc36967cae27","154.30.137.8","Mozilla/5.0 (Windows NT 10.0; Win64; x64) AppleWebKit/537.36 (KHTML, like Gecko) Chrome/111.0.0.0 Safari/537.36","WebKit","Chrome","111.0.0.0","Windows","10.0","null","<div style=""font-size:60px;"">+</div>","null",""
"","","","","","html-button-response","106","234351","0.0-3.0-1.51","79","1","2023-05-30 02:31:24","c5e7288ef5abdde20c6cfc36967cae27","154.30.137.8","Mozilla/5.0 (Windows NT 10.0; Win64; x64) AppleWebKit/537.36 (KHTML, like Gecko) Chrome/111.0.0.0 Safari/537.36","WebKit","Chrome","111.0.0.0","Windows","10.0","8457","<p>As the military commander, you could choose to launch a missile to kill <strong>5 enemy soldiers</strong> , but would accidentally kill <strong>1 enemy civilian</strong> nearby.</p> <p>The photo of the <strong>enemy civilian</strong> is shown below.</p> <p></p> <img src='stimuli/faces/NCM5.jpg', style='max-width: 30%;'> </img> <p><strong>Would you launch the weapon?</strong></p>","0",""
"","","","","","html-keyboard-response","107","235355","0.0-3.0-0.52","79","1","2023-05-30 02:31:24","c5e7288ef5abdde20c6cfc36967cae27","154.30.137.8","Mozilla/5.0 (Windows NT 10.0; Win64; x64) AppleWebKit/537.36 (KHTML, like Gecko) Chrome/111.0.0.0 Safari/537.36","WebKit","Chrome","111.0.0.0","Windows","10.0","null","<div style=""font-size:60px;"">+</div>","null",""
"","","","","","html-button-response","108","239183","0.0-3.0-1.52","79","1","2023-05-30 02:31:24","c5e7288ef5abdde20c6cfc36967cae27","154.30.137.8","Mozilla/5.0 (Windows NT 10.0; Win64; x64) AppleWebKit/537.36 (KHTML, like Gecko) Chrome/111.0.0.0 Safari/537.36","WebKit","Chrome","111.0.0.0","Windows","10.0","3824","<p>As the military commander, you could choose to launch a missile to kill <strong>4 enemy soldiers</strong> , but would accidentally kill <strong>1 enemy civilian</strong> nearby.</p> <p>The photo of the <strong>enemy civilian</strong> is shown below.</p> <p></p> <img src='stimuli/faces/NCF8.jpg', style='max-width: 30%;'> </img> <p><strong>Would you launch the weapon?</strong></p>","1",""
"","","","","","html-keyboard-response","109","240187","0.0-3.0-0.53","79","1","2023-05-30 02:31:24","c5e7288ef5abdde20c6cfc36967cae27","154.30.137.8","Mozilla/5.0 (Windows NT 10.0; Win64; x64) AppleWebKit/537.36 (KHTML, like Gecko) Chrome/111.0.0.0 Safari/537.36","WebKit","Chrome","111.0.0.0","Windows","10.0","null","<div style=""font-size:60px;"">+</div>","null",""
"","","","","","html-button-response","110","242416","0.0-3.0-1.53","79","1","2023-05-30 02:31:24","c5e7288ef5abdde20c6cfc36967cae27","154.30.137.8","Mozilla/5.0 (Windows NT 10.0; Win64; x64) AppleWebKit/537.36 (KHTML, like Gecko) Chrome/111.0.0.0 Safari/537.36","WebKit","Chrome","111.0.0.0","Windows","10.0","2226","<p>As the military commander, you could choose to launch a missile to kill <strong>4 enemy soldiers</strong> , but would accidentally kill <strong>1 enemy civilian</strong> nearby.</p> <p>The photo of the <strong>enemy civilian</strong> is shown below.</p> <p></p> <img src='stimuli/faces/NCF5.jpg', style='max-width: 30%;'> </img> <p><strong>Would you launch the weapon?</strong></p>","1",""
"","","","","","html-keyboard-response","111","243419","0.0-3.0-0.54","79","1","2023-05-30 02:31:24","c5e7288ef5abdde20c6cfc36967cae27","154.30.137.8","Mozilla/5.0 (Windows NT 10.0; Win64; x64) AppleWebKit/537.36 (KHTML, like Gecko) Chrome/111.0.0.0 Safari/537.36","WebKit","Chrome","111.0.0.0","Windows","10.0","null","<div style=""font-size:60px;"">+</div>","null",""
"","","","","","html-button-response","112","244896","0.0-3.0-1.54","79","1","2023-05-30 02:31:24","c5e7288ef5abdde20c6cfc36967cae27","154.30.137.8","Mozilla/5.0 (Windows NT 10.0; Win64; x64) AppleWebKit/537.36 (KHTML, like Gecko) Chrome/111.0.0.0 Safari/537.36","WebKit","Chrome","111.0.0.0","Windows","10.0","1473","<p>As the military commander, you could choose to launch a missile to kill <strong>4 enemy soldiers</strong> , but would accidentally kill <strong>1 enemy civilian</strong> nearby.</p> <p>The photo of the <strong>enemy civilian</strong> is shown below.</p> <p></p> <img src='stimuli/faces/NCM4.jpg', style='max-width: 30%;'> </img> <p><strong>Would you launch the weapon?</strong></p>","1",""
"","","","","","html-keyboard-response","113","245899","0.0-3.0-0.55","79","1","2023-05-30 02:31:24","c5e7288ef5abdde20c6cfc36967cae27","154.30.137.8","Mozilla/5.0 (Windows NT 10.0; Win64; x64) AppleWebKit/537.36 (KHTML, like Gecko) Chrome/111.0.0.0 Safari/537.36","WebKit","Chrome","111.0.0.0","Windows","10.0","null","<div style=""font-size:60px;"">+</div>","null",""
"","","","","","html-button-response","114","247623","0.0-3.0-1.55","79","1","2023-05-30 02:31:24","c5e7288ef5abdde20c6cfc36967cae27","154.30.137.8","Mozilla/5.0 (Windows NT 10.0; Win64; x64) AppleWebKit/537.36 (KHTML, like Gecko) Chrome/111.0.0.0 Safari/537.36","WebKit","Chrome","111.0.0.0","Windows","10.0","1721","<p>As the military commander, you could choose to launch a missile to kill <strong>2 enemy soldiers</strong> , but would accidentally kill <strong>1 enemy tree</strong> nearby.</p> <p>The photo of the <strong>enemy tree</strong> is shown below.</p> <p></p> <img src='stimuli/tree/8.png', style='max-width: 30%;'> </img> <p><strong>Would you launch the weapon?</strong></p>","0",""
"","","","","","html-keyboard-response","115","248629","0.0-3.0-0.56","79","1","2023-05-30 02:31:24","c5e7288ef5abdde20c6cfc36967cae27","154.30.137.8","Mozilla/5.0 (Windows NT 10.0; Win64; x64) AppleWebKit/537.36 (KHTML, like Gecko) Chrome/111.0.0.0 Safari/537.36","WebKit","Chrome","111.0.0.0","Windows","10.0","null","<div style=""font-size:60px;"">+</div>","null",""
"","","","","","html-button-response","116","249751","0.0-3.0-1.56","79","1","2023-05-30 02:31:24","c5e7288ef5abdde20c6cfc36967cae27","154.30.137.8","Mozilla/5.0 (Windows NT 10.0; Win64; x64) AppleWebKit/537.36 (KHTML, like Gecko) Chrome/111.0.0.0 Safari/537.36","WebKit","Chrome","111.0.0.0","Windows","10.0","1117","<p>As the military commander, you could choose to launch a missile to kill <strong>10 enemy soldiers</strong> , but would accidentally kill <strong>1 enemy civilian</strong> nearby.</p> <p>The photo of the <strong>enemy civilian</strong> is shown below.</p> <p></p> <img src='stimuli/faces/NCM4.jpg', style='max-width: 30%;'> </img> <p><strong>Would you launch the weapon?</strong></p>","1",""
"","","","","","html-keyboard-response","117","250754","0.0-3.0-0.57","79","1","2023-05-30 02:31:24","c5e7288ef5abdde20c6cfc36967cae27","154.30.137.8","Mozilla/5.0 (Windows NT 10.0; Win64; x64) AppleWebKit/537.36 (KHTML, like Gecko) Chrome/111.0.0.0 Safari/537.36","WebKit","Chrome","111.0.0.0","Windows","10.0","null","<div style=""font-size:60px;"">+</div>","null",""
"","","","","","html-button-response","118","252479","0.0-3.0-1.57","79","1","2023-05-30 02:31:24","c5e7288ef5abdde20c6cfc36967cae27","154.30.137.8","Mozilla/5.0 (Windows NT 10.0; Win64; x64) AppleWebKit/537.36 (KHTML, like Gecko) Chrome/111.0.0.0 Safari/537.36","WebKit","Chrome","111.0.0.0","Windows","10.0","1721","<p>As the military commander, you could choose to launch a missile to kill <strong>7 enemy soldiers</strong> , but would accidentally kill <strong>1 enemy civilian</strong> nearby.</p> <p>The photo of the <strong>enemy civilian</strong> is shown below.</p> <p></p> <img src='stimuli/faces/NCM7.jpg', style='max-width: 30%;'> </img> <p><strong>Would you launch the weapon?</strong></p>","0",""
"","","","","","html-keyboard-response","119","253483","0.0-3.0-0.58","79","1","2023-05-30 02:31:24","c5e7288ef5abdde20c6cfc36967cae27","154.30.137.8","Mozilla/5.0 (Windows NT 10.0; Win64; x64) AppleWebKit/537.36 (KHTML, like Gecko) Chrome/111.0.0.0 Safari/537.36","WebKit","Chrome","111.0.0.0","Windows","10.0","null","<div style=""font-size:60px;"">+</div>","null",""
"","","","","","html-button-response","120","255151","0.0-3.0-1.58","79","1","2023-05-30 02:31:24","c5e7288ef5abdde20c6cfc36967cae27","154.30.137.8","Mozilla/5.0 (Windows NT 10.0; Win64; x64) AppleWebKit/537.36 (KHTML, like Gecko) Chrome/111.0.0.0 Safari/537.36","WebKit","Chrome","111.0.0.0","Windows","10.0","1665","<p>As the military commander, you could choose to launch a missile to kill <strong>2 enemy soldiers</strong> , but would accidentally kill <strong>1 enemy tree</strong> nearby.</p> <p>The photo of the <strong>enemy tree</strong> is shown below.</p> <p></p> <img src='stimuli/tree/12.png', style='max-width: 30%;'> </img> <p><strong>Would you launch the weapon?</strong></p>","0",""
"","","","","","html-keyboard-response","121","256155","0.0-3.0-0.59","79","1","2023-05-30 02:31:24","c5e7288ef5abdde20c6cfc36967cae27","154.30.137.8","Mozilla/5.0 (Windows NT 10.0; Win64; x64) AppleWebKit/537.36 (KHTML, like Gecko) Chrome/111.0.0.0 Safari/537.36","WebKit","Chrome","111.0.0.0","Windows","10.0","null","<div style=""font-size:60px;"">+</div>","null",""
"","","","","","html-button-response","122","258535","0.0-3.0-1.59","79","1","2023-05-30 02:31:24","c5e7288ef5abdde20c6cfc36967cae27","154.30.137.8","Mozilla/5.0 (Windows NT 10.0; Win64; x64) AppleWebKit/537.36 (KHTML, like Gecko) Chrome/111.0.0.0 Safari/537.36","WebKit","Chrome","111.0.0.0","Windows","10.0","2376","<p>As the military commander, you could choose to launch a missile to kill <strong>7 enemy soldiers</strong> , but would accidentally kill <strong>1 enemy tree</strong> nearby.</p> <p>The photo of the <strong>enemy tree</strong> is shown below.</p> <p></p> <img src='stimuli/tree/4.png', style='max-width: 30%;'> </img> <p><strong>Would you launch the weapon?</strong></p>","1",""
"","","","","","html-keyboard-response","123","259538","0.0-3.0-0.60","79","1","2023-05-30 02:31:24","c5e7288ef5abdde20c6cfc36967cae27","154.30.137.8","Mozilla/5.0 (Windows NT 10.0; Win64; x64) AppleWebKit/537.36 (KHTML, like Gecko) Chrome/111.0.0.0 Safari/537.36","WebKit","Chrome","111.0.0.0","Windows","10.0","null","<div style=""font-size:60px;"">+</div>","null",""
"","","","","","html-button-response","124","260783","0.0-3.0-1.60","79","1","2023-05-30 02:31:24","c5e7288ef5abdde20c6cfc36967cae27","154.30.137.8","Mozilla/5.0 (Windows NT 10.0; Win64; x64) AppleWebKit/537.36 (KHTML, like Gecko) Chrome/111.0.0.0 Safari/537.36","WebKit","Chrome","111.0.0.0","Windows","10.0","1241","<p>As the military commander, you could choose to launch a missile to kill <strong>7 enemy soldiers</strong> , but would accidentally kill <strong>1 enemy tree</strong> nearby.</p> <p>The photo of the <strong>enemy tree</strong> is shown below.</p> <p></p> <img src='stimuli/tree/5.png', style='max-width: 30%;'> </img> <p><strong>Would you launch the weapon?</strong></p>","0",""
"","","","","","html-keyboard-response","125","261786","0.0-3.0-0.61","79","1","2023-05-30 02:31:24","c5e7288ef5abdde20c6cfc36967cae27","154.30.137.8","Mozilla/5.0 (Windows NT 10.0; Win64; x64) AppleWebKit/537.36 (KHTML, like Gecko) Chrome/111.0.0.0 Safari/537.36","WebKit","Chrome","111.0.0.0","Windows","10.0","null","<div style=""font-size:60px;"">+</div>","null",""
"","","","","","html-button-response","126","263799","0.0-3.0-1.61","79","1","2023-05-30 02:31:24","c5e7288ef5abdde20c6cfc36967cae27","154.30.137.8","Mozilla/5.0 (Windows NT 10.0; Win64; x64) AppleWebKit/537.36 (KHTML, like Gecko) Chrome/111.0.0.0 Safari/537.36","WebKit","Chrome","111.0.0.0","Windows","10.0","2005","<p>As the military commander, you could choose to launch a missile to kill <strong>4 enemy soldiers</strong> , but would accidentally kill <strong>1 enemy civilian</strong> nearby.</p> <p>The photo of the <strong>enemy civilian</strong> is shown below.</p> <p></p> <img src='stimuli/faces/NCF6.jpg', style='max-width: 30%;'> </img> <p><strong>Would you launch the weapon?</strong></p>","1",""
"","","","","","html-keyboard-response","127","264802","0.0-3.0-0.62","79","1","2023-05-30 02:31:24","c5e7288ef5abdde20c6cfc36967cae27","154.30.137.8","Mozilla/5.0 (Windows NT 10.0; Win64; x64) AppleWebKit/537.36 (KHTML, like Gecko) Chrome/111.0.0.0 Safari/537.36","WebKit","Chrome","111.0.0.0","Windows","10.0","null","<div style=""font-size:60px;"">+</div>","null",""
"","","","","","html-button-response","128","266919","0.0-3.0-1.62","79","1","2023-05-30 02:31:24","c5e7288ef5abdde20c6cfc36967cae27","154.30.137.8","Mozilla/5.0 (Windows NT 10.0; Win64; x64) AppleWebKit/537.36 (KHTML, like Gecko) Chrome/111.0.0.0 Safari/537.36","WebKit","Chrome","111.0.0.0","Windows","10.0","2114","<p>As the military commander, you could choose to launch a missile to kill <strong>5 enemy soldiers</strong> , but would accidentally kill <strong>1 enemy civilian</strong> nearby.</p> <p>The photo of the <strong>enemy civilian</strong> is shown below.</p> <p></p> <img src='stimuli/faces/NCM3.jpg', style='max-width: 30%;'> </img> <p><strong>Would you launch the weapon?</strong></p>","1",""
"","","","","","html-keyboard-response","129","267922","0.0-3.0-0.63","79","1","2023-05-30 02:31:24","c5e7288ef5abdde20c6cfc36967cae27","154.30.137.8","Mozilla/5.0 (Windows NT 10.0; Win64; x64) AppleWebKit/537.36 (KHTML, like Gecko) Chrome/111.0.0.0 Safari/537.36","WebKit","Chrome","111.0.0.0","Windows","10.0","null","<div style=""font-size:60px;"">+</div>","null",""
"","","","","","html-button-response","130","269567","0.0-3.0-1.63","79","1","2023-05-30 02:31:24","c5e7288ef5abdde20c6cfc36967cae27","154.30.137.8","Mozilla/5.0 (Windows NT 10.0; Win64; x64) AppleWebKit/537.36 (KHTML, like Gecko) Chrome/111.0.0.0 Safari/537.36","WebKit","Chrome","111.0.0.0","Windows","10.0","1641","<p>As the military commander, you could choose to launch a missile to kill <strong>9 enemy soldiers</strong> , but would accidentally kill <strong>1 enemy tree</strong> nearby.</p> <p>The photo of the <strong>enemy tree</strong> is shown below.</p> <p></p> <img src='stimuli/tree/7.png', style='max-width: 30%;'> </img> <p><strong>Would you launch the weapon?</strong></p>","0",""
"","","","","","survey-multi-choice","131","284519","0.0-4.0","79","1","2023-05-30 02:31:24","c5e7288ef5abdde20c6cfc36967cae27","154.30.137.8","Mozilla/5.0 (Windows NT 10.0; Win64; x64) AppleWebKit/537.36 (KHTML, like Gecko) Chrome/111.0.0.0 Safari/537.36","WebKit","Chrome","111.0.0.0","Windows","10.0","14947","","{""Attention1"":""6""}","[0]"
"","","","","","html-button-response","132","287255","0.0-5.0","79","1","2023-05-30 02:31:24","c5e7288ef5abdde20c6cfc36967cae27","154.30.137.8","Mozilla/5.0 (Windows NT 10.0; Win64; x64) AppleWebKit/537.36 (KHTML, like Gecko) Chrome/111.0.0.0 Safari/537.36","WebKit","Chrome","111.0.0.0","Windows","10.0","2730","<p style=""font-size:20px;font-weight:bold;"">Great!</p><p>You have finished the first part of the experiment!</p><p>Please relax a little bit and then contine to answer some questions regarding yourself.</p><p>The next part will take around 10 minutes to complete.</p>","0",""
"","","","","","survey-text","133","324120","0.0-6.0","79","1","2023-05-30 02:31:24","c5e7288ef5abdde20c6cfc36967cae27","154.30.137.8","Mozilla/5.0 (Windows NT 10.0; Win64; x64) AppleWebKit/537.36 (KHTML, like Gecko) Chrome/111.0.0.0 Safari/537.36","WebKit","Chrome","111.0.0.0","Windows","10.0","35855","","{""Age"":""42"",""Nation"":""CHRISTIAN"",""Born"":""US"",""Live"":""US""}",""
"","","","","","survey-multi-choice","134","346057","0.0-7.0","79","1","2023-05-30 02:31:24","c5e7288ef5abdde20c6cfc36967cae27","154.30.137.8","Mozilla/5.0 (Windows NT 10.0; Win64; x64) AppleWebKit/537.36 (KHTML, like Gecko) Chrome/111.0.0.0 Safari/537.36","WebKit","Chrome","111.0.0.0","Windows","10.0","21932","","{""Gender"":""Male"",""Education"":""Bachelor's Degree"",""Income"":""$40,000 - $69,999"",""Children"":""2"",""Ethnicity"":""White""}","[0,1,2,3,4]"
"","","","","","survey-multi-select","135","352930","0.0-8.0","79","1","2023-05-30 02:31:24","c5e7288ef5abdde20c6cfc36967cae27","154.30.137.8","Mozilla/5.0 (Windows NT 10.0; Win64; x64) AppleWebKit/537.36 (KHTML, like Gecko) Chrome/111.0.0.0 Safari/537.36","WebKit","Chrome","111.0.0.0","Windows","10.0","6864","","{""Marriage"":[""Married""],""Religion"":[""Christian""]}","[0,1]"
"","","","","","survey-multi-choice","136","405960","0.0-9.0","79","1","2023-05-30 02:31:24","c5e7288ef5abdde20c6cfc36967cae27","154.30.137.8","Mozilla/5.0 (Windows NT 10.0; Win64; x64) AppleWebKit/537.36 (KHTML, like Gecko) Chrome/111.0.0.0 Safari/537.36","WebKit","Chrome","111.0.0.0","Windows","10.0","53023","","{""SES"":""6""}","[0]"
"","","","","","html-button-response","137","409432","0.0-10.0","79","1","2023-05-30 02:31:24","c5e7288ef5abdde20c6cfc36967cae27","154.30.137.8","Mozilla/5.0 (Windows NT 10.0; Win64; x64) AppleWebKit/537.36 (KHTML, like Gecko) Chrome/111.0.0.0 Safari/537.36","WebKit","Chrome","111.0.0.0","Windows","10.0","3466","<p><strong>Please indicate the extent that the following statements could describe you.</p><p> (1 = ""extremely uncharacteristic of me"" to 5 = ""extremely characteristic of me"".)</strong></p>","0",""
"","","","","","survey-likert","138","433219","0.0-11.0","79","1","2023-05-30 02:31:24","c5e7288ef5abdde20c6cfc36967cae27","154.30.137.8","Mozilla/5.0 (Windows NT 10.0; Win64; x64) AppleWebKit/537.36 (KHTML, like Gecko) Chrome/111.0.0.0 Safari/537.36","WebKit","Chrome","111.0.0.0","Windows","10.0","23780","","{""Aggression1"":4,""Aggression2"":3,""Aggression3"":4,""Aggression4"":3,""Aggression5"":4,""Aggression6"":3,""Aggression7"":4,""Aggression8"":3,""Aggression9"":4}","[0,1,2,3,4,5,6,7,8]"
"","","","","","html-button-response","139","436569","0.0-12.0","79","1","2023-05-30 02:31:24","c5e7288ef5abdde20c6cfc36967cae27","154.30.137.8","Mozilla/5.0 (Windows NT 10.0; Win64; x64) AppleWebKit/537.36 (KHTML, like Gecko) Chrome/111.0.0.0 Safari/537.36","WebKit","Chrome","111.0.0.0","Windows","10.0","3345","<p><strong>Please indicate the extent that the following statements could describe you. </strong></p><p><strong> (1 = ""Does not describe me well"" to 5 = ""Does decribe me well"".)</strong></p>","0",""
"","","","","","survey-likert","140","513998","0.0-13.0","79","1","2023-05-30 02:31:24","c5e7288ef5abdde20c6cfc36967cae27","154.30.137.8","Mozilla/5.0 (Windows NT 10.0; Win64; x64) AppleWebKit/537.36 (KHTML, like Gecko) Chrome/111.0.0.0 Safari/537.36","WebKit","Chrome","111.0.0.0","Windows","10.0","77420","","{""pds4"":2,""pts3"":3,""ecs1"":2,""fs3"":3,""fs6"":3,""fs4"":2,""fs1"":3,""ecs2"":3,""pts4"":3,""fs2"":3,""pds3"":3,""ecs6"":2,""pts2"":3,""fs5"":2,""pts6"":3,""ecs4"":3,""ecs5"":2,""ecs7"":3,""ecs3"":3,""pts1"":3,""pts7"":3,""fs7"":2,""pds5"":3,""pds2"":3,""pds1"":2,""pts5"":3,""pds7"":3,""pds6"":3}","[16,10,1,6,22,11,0,3,14,4,12,19,7,15,24,13,17,21,8,2,27,25,18,9,5,20,26,23]"
"","","","","","html-button-response","141","516249","0.0-14.0","79","1","2023-05-30 02:31:24","c5e7288ef5abdde20c6cfc36967cae27","154.30.137.8","Mozilla/5.0 (Windows NT 10.0; Win64; x64) AppleWebKit/537.36 (KHTML, like Gecko) Chrome/111.0.0.0 Safari/537.36","WebKit","Chrome","111.0.0.0","Windows","10.0","2246","<p><strong>Which of the following objects or statements do you have a positive or negative feeling towards? </strong></p><p><strong> (1 = ""Very negative"" to 7 = ""Very positive"") </strong></p>","0",""
"","","","","","survey-likert","142","558309","0.0-15.0","79","1","2023-05-30 02:31:24","c5e7288ef5abdde20c6cfc36967cae27","154.30.137.8","Mozilla/5.0 (Windows NT 10.0; Win64; x64) AppleWebKit/537.36 (KHTML, like Gecko) Chrome/111.0.0.0 Safari/537.36","WebKit","Chrome","111.0.0.0","Windows","10.0","42052","","{""sdo15"":5,""sdo6"":5,""sdo12"":6,""sdo4"":5,""sdo14"":6,""sdo1"":5,""sdo10"":6,""sdo7"":5,""sdo16"":5,""sdo5"":6,""sdo13"":5,""sdo2"":6,""sdo3"":5,""sdo11"":6,""sdo9"":5,""sdo8"":6}","[14,5,11,3,13,0,9,6,15,4,12,1,2,10,8,7]"
"","","","","","html-button-response","143","560274","0.0-16.0","79","1","2023-05-30 02:31:24","c5e7288ef5abdde20c6cfc36967cae27","154.30.137.8","Mozilla/5.0 (Windows NT 10.0; Win64; x64) AppleWebKit/537.36 (KHTML, like Gecko) Chrome/111.0.0.0 Safari/537.36","WebKit","Chrome","111.0.0.0","Windows","10.0","1959","<p><strong>Please indicate the extent you agree with the following statements.</strong></p><strong><p> (1 = ""Strongly Disagree"" to 5 = ""Srongly Agree"") </strong></p>","0",""
"","","","","","survey-likert","144","594339","0.0-17.0","79","1","2023-05-30 02:31:24","c5e7288ef5abdde20c6cfc36967cae27","154.30.137.8","Mozilla/5.0 (Windows NT 10.0; Win64; x64) AppleWebKit/537.36 (KHTML, like Gecko) Chrome/111.0.0.0 Safari/537.36","WebKit","Chrome","111.0.0.0","Windows","10.0","34060","","{""caring1"":4,""liking1"":3,""caring2"":4,""protection1"":3,""liking2"":4,""caring3"":3,""protection2"":4,""liking3"":3,""protection3"":4,""caring4"":3,""liking4"":4,""protection4"":3,""caring5"":4,""liking5"":3,""protection5"":4}","[0,1,2,3,4,5,6,7,8,9,10,11,12,13,14]"
"","","","","","html-button-response","145","598577","0.0-18.0","79","1","2023-05-30 02:31:24","c5e7288ef5abdde20c6cfc36967cae27","154.30.137.8","Mozilla/5.0 (Windows NT 10.0; Win64; x64) AppleWebKit/537.36 (KHTML, like Gecko) Chrome/111.0.0.0 Safari/537.36","WebKit","Chrome","111.0.0.0","Windows","10.0","4232","<p><strong>Please imagine spercific situations involving children below, and rate the amount of tenderness you would feel in each situation. </strong></p><p><strong> (Ternderness is ""a warm, gentle feeling of sympathetic affection."") </strong></p><strong><p> (1 = ""No tenderness at all"" to 5 = ""A lot of tenderness"") </strong></p>","0",""
"","","","","","survey-likert","146","618899","0.0-19.0","79","1","2023-05-30 02:31:24","c5e7288ef5abdde20c6cfc36967cae27","154.30.137.8","Mozilla/5.0 (Windows NT 10.0; Win64; x64) AppleWebKit/537.36 (KHTML, like Gecko) Chrome/111.0.0.0 Safari/537.36","WebKit","Chrome","111.0.0.0","Windows","10.0","20317","","{""tenderness-positive1"":3,""tenderness-negative1"":4,""tenderness-negative2"":3,""tenderness-positive2"":4,""tenderness-positive3"":3,""tenderness-negative3"":4,""tenderness-positive4"":3,""tendereness-negative4"":4,""tendernness-negative5"":3,""tenderness-positive5"":4}","[0,1,2,3,4,5,6,7,8,9]"
"","","","","","survey-multi-choice","147","634689","0.0-20.0","79","1","2023-05-30 02:31:24","c5e7288ef5abdde20c6cfc36967cae27","154.30.137.8","Mozilla/5.0 (Windows NT 10.0; Win64; x64) AppleWebKit/537.36 (KHTML, like Gecko) Chrome/111.0.0.0 Safari/537.36","WebKit","Chrome","111.0.0.0","Windows","10.0","15785","","{""Attention2"":""Other""}","[0]"
"","","","","","html-button-response","148","637297","0.0-21.0","79","1","2023-05-30 02:31:24","c5e7288ef5abdde20c6cfc36967cae27","154.30.137.8","Mozilla/5.0 (Windows NT 10.0; Win64; x64) AppleWebKit/537.36 (KHTML, like Gecko) Chrome/111.0.0.0 Safari/537.36","WebKit","Chrome","111.0.0.0","Windows","10.0","2601","<p><strong>Please indicate the extent you agree with the following statements.</strong></p>","0",""
"","","","","","survey-likert","149","696012","0.0-22.0","79","1","2023-05-30 02:31:24","c5e7288ef5abdde20c6cfc36967cae27","154.30.137.8","Mozilla/5.0 (Windows NT 10.0; Win64; x64) AppleWebKit/537.36 (KHTML, like Gecko) Chrome/111.0.0.0 Safari/537.36","WebKit","Chrome","111.0.0.0","Windows","10.0","58708","","{""Nation8"":3,""Patri5"":3,""Nation1"":4,""Nation7"":3,""Nation2"":3,""Patri3"":4,""Patri1"":3,""Patri6"":4,""Patri2"":3,""Nation4"":4,""Nation5"":3,""Nation3"":4,""Patri7"":3,""Patri9"":4,""Patri4"":3,""Patri8"":4,""Nation6"":3,""Patri11"":4,""Patri12"":3,""Patri10"":4}","[19,4,12,18,13,2,0,5,1,15,16,14,6,8,3,7,17,10,11,9]"
"","","","","","html-button-response","150","697882","0.0-23.0","79","1","2023-05-30 02:31:24","c5e7288ef5abdde20c6cfc36967cae27","154.30.137.8","Mozilla/5.0 (Windows NT 10.0; Win64; x64) AppleWebKit/537.36 (KHTML, like Gecko) Chrome/111.0.0.0 Safari/537.36","WebKit","Chrome","111.0.0.0","Windows","10.0","1863","<p><strong>Please indicate the extent you agree with the following statements. </p><p>(1 = ""never or definitely no"" and 9 = ""always or definitely yes"".)</strong></p>","0",""
"","","","","","survey-likert","151","782166","0.0-24.0","79","1","2023-05-30 02:31:24","c5e7288ef5abdde20c6cfc36967cae27","154.30.137.8","Mozilla/5.0 (Windows NT 10.0; Win64; x64) AppleWebKit/537.36 (KHTML, like Gecko) Chrome/111.0.0.0 Safari/537.36","WebKit","Chrome","111.0.0.0","Windows","10.0","84276","","{""hi1"":8,""hc4"":7,""vc2"":8,""hc2"":7,""vi4"":8,""hc1"":7,""vi3"":8,""hc3"":7,""Robot2"":6,""vc3"":7,""hi3"":8,""vc1"":7,""vc4"":8,""hi4"":7,""hi2"":8,""vi2"":7,""vi1"":8}","[0,12,14,10,8,9,6,11,7,15,2,13,16,3,1,5,4]"
"","","","","","survey-text","152","797659","0.0-25.0","79","1","2023-05-30 02:31:24","c5e7288ef5abdde20c6cfc36967cae27","154.30.137.8","Mozilla/5.0 (Windows NT 10.0; Win64; x64) AppleWebKit/537.36 (KHTML, like Gecko) Chrome/111.0.0.0 Safari/537.36","WebKit","Chrome","111.0.0.0","Windows","10.0","15469","","{""ID"":""A1HMW3GFSAT8I8"",""Comments"":""GOOD""}",""
"","","","","","html-button-response","153","815850","0.0-26.0","79","1","2023-05-30 02:31:24","c5e7288ef5abdde20c6cfc36967cae27","154.30.137.8","Mozilla/5.0 (Windows NT 10.0; Win64; x64) AppleWebKit/537.36 (KHTML, like Gecko) Chrome/111.0.0.0 Safari/537.36","WebKit","Chrome","111.0.0.0","Windows","10.0","18188","<p><strong>Congratulations! </strong> Your have finished all the survey. Thank you for your participation!</p><p><strong>Here is your complete token:</strong></p>yfglv8hxqchhxcbeniwn98s4p<p></p><p><strong>Please copy it to the mTurk page.</strong></p>","0",""
