"success","timeout","failed_images","failed_audio","failed_video","trial_type","trial_index","time_elapsed","internal_node_id","run_id","condition","recorded_at","source_code_version","ip","user_agent","device","browser","browser_version","platform","platform_version","rt","stimulus","response","question_order"
"true","false","[]","[]","[]","preload","0","495","0.0-0.0","9","1","2023-05-19 16:05:38","c5e7288ef5abdde20c6cfc36967cae27","63.92.70.195","Mozilla/5.0 (Windows NT 10.0; Win64; x64) AppleWebKit/537.36 (KHTML, like Gecko) Chrome/112.0.0.0 Safari/537.36","WebKit","Chrome","112.0.0.0","Windows","10.0","","","",""
"true","","","","","fullscreen","1","17220","0.0-1.0","9","1","2023-05-19 16:05:38","c5e7288ef5abdde20c6cfc36967cae27","63.92.70.195","Mozilla/5.0 (Windows NT 10.0; Win64; x64) AppleWebKit/537.36 (KHTML, like Gecko) Chrome/112.0.0.0 Safari/537.36","WebKit","Chrome","112.0.0.0","Windows","10.0","","","",""
"","","","","","html-button-response","2","21515","0.0-2.0","9","1","2023-05-19 16:05:38","c5e7288ef5abdde20c6cfc36967cae27","63.92.70.195","Mozilla/5.0 (Windows NT 10.0; Win64; x64) AppleWebKit/537.36 (KHTML, like Gecko) Chrome/112.0.0.0 Safari/537.36","WebKit","Chrome","112.0.0.0","Windows","10.0","4290","<p ><strong>Welcome to the experiment!</strong></p><p ><strong>In the first task, please imagine:</strong></p><p>Your country is involved in a military conflict with another country.</p><p>You are the commander of your army and must make decisions in the conflict.</p><p>Specifically, as the military commander, you must decide whether to launch a missile to strike enemy.</p><p>You will face a series of scenarios. Please read each scenario carefully and make a decision.</p><p>The task will take around 10 minutes to complete.</p><p><strong>Please pay your attention during the experiment.</strong></p>","0",""
"","","","","","html-keyboard-response","3","22517","0.0-3.0-0.0","9","1","2023-05-19 16:05:38","c5e7288ef5abdde20c6cfc36967cae27","63.92.70.195","Mozilla/5.0 (Windows NT 10.0; Win64; x64) AppleWebKit/537.36 (KHTML, like Gecko) Chrome/112.0.0.0 Safari/537.36","WebKit","Chrome","112.0.0.0","Windows","10.0","null","<div style=""font-size:60px;"">+</div>","null",""
"","","","","","html-button-response","4","29867","0.0-3.0-1.0","9","1","2023-05-19 16:05:38","c5e7288ef5abdde20c6cfc36967cae27","63.92.70.195","Mozilla/5.0 (Windows NT 10.0; Win64; x64) AppleWebKit/537.36 (KHTML, like Gecko) Chrome/112.0.0.0 Safari/537.36","WebKit","Chrome","112.0.0.0","Windows","10.0","7347","<p>As the military commander, you could choose to launch a missile to kill <strong>5 enemy soldiers</strong> , but would accidentally kill <strong>1 enemy tree</strong> nearby.</p> <p>The photo of the <strong>enemy tree</strong> is shown below.</p> <p></p> <img src='stimuli/tree/11.png', style='max-width: 30%;'> </img> <p><strong>Would you launch the weapon?</strong></p>","0",""
"","","","","","html-keyboard-response","5","30870","0.0-3.0-0.1","9","1","2023-05-19 16:05:38","c5e7288ef5abdde20c6cfc36967cae27","63.92.70.195","Mozilla/5.0 (Windows NT 10.0; Win64; x64) AppleWebKit/537.36 (KHTML, like Gecko) Chrome/112.0.0.0 Safari/537.36","WebKit","Chrome","112.0.0.0","Windows","10.0","null","<div style=""font-size:60px;"">+</div>","null",""
"","","","","","html-button-response","6","34994","0.0-3.0-1.1","9","1","2023-05-19 16:05:38","c5e7288ef5abdde20c6cfc36967cae27","63.92.70.195","Mozilla/5.0 (Windows NT 10.0; Win64; x64) AppleWebKit/537.36 (KHTML, like Gecko) Chrome/112.0.0.0 Safari/537.36","WebKit","Chrome","112.0.0.0","Windows","10.0","4122","<p>As the military commander, you could choose to launch a missile to kill <strong>9 enemy soldiers</strong> , but would accidentally kill <strong>1 enemy tree</strong> nearby.</p> <p>The photo of the <strong>enemy tree</strong> is shown below.</p> <p></p> <img src='stimuli/tree/6.png', style='max-width: 30%;'> </img> <p><strong>Would you launch the weapon?</strong></p>","1",""
"","","","","","html-keyboard-response","7","35997","0.0-3.0-0.2","9","1","2023-05-19 16:05:38","c5e7288ef5abdde20c6cfc36967cae27","63.92.70.195","Mozilla/5.0 (Windows NT 10.0; Win64; x64) AppleWebKit/537.36 (KHTML, like Gecko) Chrome/112.0.0.0 Safari/537.36","WebKit","Chrome","112.0.0.0","Windows","10.0","null","<div style=""font-size:60px;"">+</div>","null",""
"","","","","","html-button-response","8","46698","0.0-3.0-1.2","9","1","2023-05-19 16:05:38","c5e7288ef5abdde20c6cfc36967cae27","63.92.70.195","Mozilla/5.0 (Windows NT 10.0; Win64; x64) AppleWebKit/537.36 (KHTML, like Gecko) Chrome/112.0.0.0 Safari/537.36","WebKit","Chrome","112.0.0.0","Windows","10.0","10698","<p>As the military commander, you could choose to launch a missile to kill <strong>7 enemy soldiers</strong> , but would accidentally kill <strong>1 enemy tree</strong> nearby.</p> <p>The photo of the <strong>enemy tree</strong> is shown below.</p> <p></p> <img src='stimuli/tree/8.png', style='max-width: 30%;'> </img> <p><strong>Would you launch the weapon?</strong></p>","1",""
"","","","","","html-keyboard-response","9","47700","0.0-3.0-0.3","9","1","2023-05-19 16:05:38","c5e7288ef5abdde20c6cfc36967cae27","63.92.70.195","Mozilla/5.0 (Windows NT 10.0; Win64; x64) AppleWebKit/537.36 (KHTML, like Gecko) Chrome/112.0.0.0 Safari/537.36","WebKit","Chrome","112.0.0.0","Windows","10.0","null","<div style=""font-size:60px;"">+</div>","null",""
"","","","","","html-button-response","10","68915","0.0-3.0-1.3","9","1","2023-05-19 16:05:38","c5e7288ef5abdde20c6cfc36967cae27","63.92.70.195","Mozilla/5.0 (Windows NT 10.0; Win64; x64) AppleWebKit/537.36 (KHTML, like Gecko) Chrome/112.0.0.0 Safari/537.36","WebKit","Chrome","112.0.0.0","Windows","10.0","21211","<p>As the military commander, you could choose to launch a missile to kill <strong>1 enemy soldier</strong> , but would accidentally kill <strong>1 enemy civilian</strong> nearby.</p> <p>The photo of the <strong>enemy civilian</strong> is shown below.</p> <p></p> <img src='stimuli/faces/NCM6.jpg', style='max-width: 30%;'> </img> <p><strong>Would you launch the weapon?</strong></p>","0",""
"","","","","","html-keyboard-response","11","69919","0.0-3.0-0.4","9","1","2023-05-19 16:05:38","c5e7288ef5abdde20c6cfc36967cae27","63.92.70.195","Mozilla/5.0 (Windows NT 10.0; Win64; x64) AppleWebKit/537.36 (KHTML, like Gecko) Chrome/112.0.0.0 Safari/537.36","WebKit","Chrome","112.0.0.0","Windows","10.0","null","<div style=""font-size:60px;"">+</div>","null",""
"","","","","","html-button-response","12","77586","0.0-3.0-1.4","9","1","2023-05-19 16:05:38","c5e7288ef5abdde20c6cfc36967cae27","63.92.70.195","Mozilla/5.0 (Windows NT 10.0; Win64; x64) AppleWebKit/537.36 (KHTML, like Gecko) Chrome/112.0.0.0 Safari/537.36","WebKit","Chrome","112.0.0.0","Windows","10.0","7664","<p>As the military commander, you could choose to launch a missile to kill <strong>6 enemy soldiers</strong> , but would accidentally kill <strong>1 enemy tree</strong> nearby.</p> <p>The photo of the <strong>enemy tree</strong> is shown below.</p> <p></p> <img src='stimuli/tree/4.png', style='max-width: 30%;'> </img> <p><strong>Would you launch the weapon?</strong></p>","0",""
"","","","","","html-keyboard-response","13","78588","0.0-3.0-0.5","9","1","2023-05-19 16:05:38","c5e7288ef5abdde20c6cfc36967cae27","63.92.70.195","Mozilla/5.0 (Windows NT 10.0; Win64; x64) AppleWebKit/537.36 (KHTML, like Gecko) Chrome/112.0.0.0 Safari/537.36","WebKit","Chrome","112.0.0.0","Windows","10.0","null","<div style=""font-size:60px;"">+</div>","null",""
"","","","","","html-button-response","14","98698","0.0-3.0-1.5","9","1","2023-05-19 16:05:38","c5e7288ef5abdde20c6cfc36967cae27","63.92.70.195","Mozilla/5.0 (Windows NT 10.0; Win64; x64) AppleWebKit/537.36 (KHTML, like Gecko) Chrome/112.0.0.0 Safari/537.36","WebKit","Chrome","112.0.0.0","Windows","10.0","20108","<p>As the military commander, you could choose to launch a missile to kill <strong>10 enemy soldiers</strong> , but would accidentally kill <strong>1 enemy civilian</strong> nearby.</p> <p>The photo of the <strong>enemy civilian</strong> is shown below.</p> <p></p> <img src='stimuli/faces/NCM4.jpg', style='max-width: 30%;'> </img> <p><strong>Would you launch the weapon?</strong></p>","0",""
"","","","","","html-keyboard-response","15","99700","0.0-3.0-0.6","9","1","2023-05-19 16:05:38","c5e7288ef5abdde20c6cfc36967cae27","63.92.70.195","Mozilla/5.0 (Windows NT 10.0; Win64; x64) AppleWebKit/537.36 (KHTML, like Gecko) Chrome/112.0.0.0 Safari/537.36","WebKit","Chrome","112.0.0.0","Windows","10.0","null","<div style=""font-size:60px;"">+</div>","null",""
"","","","","","html-button-response","16","105475","0.0-3.0-1.6","9","1","2023-05-19 16:05:38","c5e7288ef5abdde20c6cfc36967cae27","63.92.70.195","Mozilla/5.0 (Windows NT 10.0; Win64; x64) AppleWebKit/537.36 (KHTML, like Gecko) Chrome/112.0.0.0 Safari/537.36","WebKit","Chrome","112.0.0.0","Windows","10.0","5770","<p>As the military commander, you could choose to launch a missile to kill <strong>1 enemy soldier</strong> , but would accidentally kill <strong>1 enemy civilian</strong> nearby.</p> <p>The photo of the <strong>enemy civilian</strong> is shown below.</p> <p></p> <img src='stimuli/faces/NCM2.jpg', style='max-width: 30%;'> </img> <p><strong>Would you launch the weapon?</strong></p>","0",""
"","","","","","html-keyboard-response","17","106478","0.0-3.0-0.7","9","1","2023-05-19 16:05:38","c5e7288ef5abdde20c6cfc36967cae27","63.92.70.195","Mozilla/5.0 (Windows NT 10.0; Win64; x64) AppleWebKit/537.36 (KHTML, like Gecko) Chrome/112.0.0.0 Safari/537.36","WebKit","Chrome","112.0.0.0","Windows","10.0","null","<div style=""font-size:60px;"">+</div>","null",""
"","","","","","html-button-response","18","123473","0.0-3.0-1.7","9","1","2023-05-19 16:05:38","c5e7288ef5abdde20c6cfc36967cae27","63.92.70.195","Mozilla/5.0 (Windows NT 10.0; Win64; x64) AppleWebKit/537.36 (KHTML, like Gecko) Chrome/112.0.0.0 Safari/537.36","WebKit","Chrome","112.0.0.0","Windows","10.0","16992","<p>As the military commander, you could choose to launch a missile to kill <strong>5 enemy soldiers</strong> , but would accidentally kill <strong>1 enemy tree</strong> nearby.</p> <p>The photo of the <strong>enemy tree</strong> is shown below.</p> <p></p> <img src='stimuli/tree/2.png', style='max-width: 30%;'> </img> <p><strong>Would you launch the weapon?</strong></p>","0",""
"","","","","","html-keyboard-response","19","124476","0.0-3.0-0.8","9","1","2023-05-19 16:05:38","c5e7288ef5abdde20c6cfc36967cae27","63.92.70.195","Mozilla/5.0 (Windows NT 10.0; Win64; x64) AppleWebKit/537.36 (KHTML, like Gecko) Chrome/112.0.0.0 Safari/537.36","WebKit","Chrome","112.0.0.0","Windows","10.0","null","<div style=""font-size:60px;"">+</div>","null",""
"","","","","","html-button-response","20","127178","0.0-3.0-1.8","9","1","2023-05-19 16:05:38","c5e7288ef5abdde20c6cfc36967cae27","63.92.70.195","Mozilla/5.0 (Windows NT 10.0; Win64; x64) AppleWebKit/537.36 (KHTML, like Gecko) Chrome/112.0.0.0 Safari/537.36","WebKit","Chrome","112.0.0.0","Windows","10.0","2698","<p>As the military commander, you could choose to launch a missile to kill <strong>4 enemy soldiers</strong> , but would accidentally kill <strong>1 enemy tree</strong> nearby.</p> <p>The photo of the <strong>enemy tree</strong> is shown below.</p> <p></p> <img src='stimuli/tree/10.png', style='max-width: 30%;'> </img> <p><strong>Would you launch the weapon?</strong></p>","1",""
"","","","","","html-keyboard-response","21","128181","0.0-3.0-0.9","9","1","2023-05-19 16:05:38","c5e7288ef5abdde20c6cfc36967cae27","63.92.70.195","Mozilla/5.0 (Windows NT 10.0; Win64; x64) AppleWebKit/537.36 (KHTML, like Gecko) Chrome/112.0.0.0 Safari/537.36","WebKit","Chrome","112.0.0.0","Windows","10.0","null","<div style=""font-size:60px;"">+</div>","null",""
"","","","","","html-button-response","22","148762","0.0-3.0-1.9","9","1","2023-05-19 16:05:38","c5e7288ef5abdde20c6cfc36967cae27","63.92.70.195","Mozilla/5.0 (Windows NT 10.0; Win64; x64) AppleWebKit/537.36 (KHTML, like Gecko) Chrome/112.0.0.0 Safari/537.36","WebKit","Chrome","112.0.0.0","Windows","10.0","20578","<p>As the military commander, you could choose to launch a missile to kill <strong>7 enemy soldiers</strong> , but would accidentally kill <strong>1 enemy tree</strong> nearby.</p> <p>The photo of the <strong>enemy tree</strong> is shown below.</p> <p></p> <img src='stimuli/tree/11.png', style='max-width: 30%;'> </img> <p><strong>Would you launch the weapon?</strong></p>","1",""
"","","","","","html-keyboard-response","23","149764","0.0-3.0-0.10","9","1","2023-05-19 16:05:38","c5e7288ef5abdde20c6cfc36967cae27","63.92.70.195","Mozilla/5.0 (Windows NT 10.0; Win64; x64) AppleWebKit/537.36 (KHTML, like Gecko) Chrome/112.0.0.0 Safari/537.36","WebKit","Chrome","112.0.0.0","Windows","10.0","null","<div style=""font-size:60px;"">+</div>","null",""
"","","","","","html-button-response","24","151707","0.0-3.0-1.10","9","1","2023-05-19 16:05:38","c5e7288ef5abdde20c6cfc36967cae27","63.92.70.195","Mozilla/5.0 (Windows NT 10.0; Win64; x64) AppleWebKit/537.36 (KHTML, like Gecko) Chrome/112.0.0.0 Safari/537.36","WebKit","Chrome","112.0.0.0","Windows","10.0","1940","<p>As the military commander, you could choose to launch a missile to kill <strong>6 enemy soldiers</strong> , but would accidentally kill <strong>1 enemy civilian</strong> nearby.</p> <p>The photo of the <strong>enemy civilian</strong> is shown below.</p> <p></p> <img src='stimuli/faces/NCM6.jpg', style='max-width: 30%;'> </img> <p><strong>Would you launch the weapon?</strong></p>","0",""
"","","","","","html-keyboard-response","25","152710","0.0-3.0-0.11","9","1","2023-05-19 16:05:38","c5e7288ef5abdde20c6cfc36967cae27","63.92.70.195","Mozilla/5.0 (Windows NT 10.0; Win64; x64) AppleWebKit/537.36 (KHTML, like Gecko) Chrome/112.0.0.0 Safari/537.36","WebKit","Chrome","112.0.0.0","Windows","10.0","null","<div style=""font-size:60px;"">+</div>","null",""
"","","","","","html-button-response","26","155392","0.0-3.0-1.11","9","1","2023-05-19 16:05:38","c5e7288ef5abdde20c6cfc36967cae27","63.92.70.195","Mozilla/5.0 (Windows NT 10.0; Win64; x64) AppleWebKit/537.36 (KHTML, like Gecko) Chrome/112.0.0.0 Safari/537.36","WebKit","Chrome","112.0.0.0","Windows","10.0","2679","<p>As the military commander, you could choose to launch a missile to kill <strong>1 enemy soldier</strong> , but would accidentally kill <strong>1 enemy tree</strong> nearby.</p> <p>The photo of the <strong>enemy tree</strong> is shown below.</p> <p></p> <img src='stimuli/tree/7.png', style='max-width: 30%;'> </img> <p><strong>Would you launch the weapon?</strong></p>","1",""
"","","","","","html-keyboard-response","27","156395","0.0-3.0-0.12","9","1","2023-05-19 16:05:38","c5e7288ef5abdde20c6cfc36967cae27","63.92.70.195","Mozilla/5.0 (Windows NT 10.0; Win64; x64) AppleWebKit/537.36 (KHTML, like Gecko) Chrome/112.0.0.0 Safari/537.36","WebKit","Chrome","112.0.0.0","Windows","10.0","null","<div style=""font-size:60px;"">+</div>","null",""
"","","","","","html-button-response","28","159611","0.0-3.0-1.12","9","1","2023-05-19 16:05:38","c5e7288ef5abdde20c6cfc36967cae27","63.92.70.195","Mozilla/5.0 (Windows NT 10.0; Win64; x64) AppleWebKit/537.36 (KHTML, like Gecko) Chrome/112.0.0.0 Safari/537.36","WebKit","Chrome","112.0.0.0","Windows","10.0","3212","<p>As the military commander, you could choose to launch a missile to kill <strong>9 enemy soldiers</strong> , but would accidentally kill <strong>1 enemy civilian</strong> nearby.</p> <p>The photo of the <strong>enemy civilian</strong> is shown below.</p> <p></p> <img src='stimuli/faces/NCF5.jpg', style='max-width: 30%;'> </img> <p><strong>Would you launch the weapon?</strong></p>","1",""
"","","","","","html-keyboard-response","29","160614","0.0-3.0-0.13","9","1","2023-05-19 16:05:38","c5e7288ef5abdde20c6cfc36967cae27","63.92.70.195","Mozilla/5.0 (Windows NT 10.0; Win64; x64) AppleWebKit/537.36 (KHTML, like Gecko) Chrome/112.0.0.0 Safari/537.36","WebKit","Chrome","112.0.0.0","Windows","10.0","null","<div style=""font-size:60px;"">+</div>","null",""
"","","","","","html-button-response","30","163890","0.0-3.0-1.13","9","1","2023-05-19 16:05:38","c5e7288ef5abdde20c6cfc36967cae27","63.92.70.195","Mozilla/5.0 (Windows NT 10.0; Win64; x64) AppleWebKit/537.36 (KHTML, like Gecko) Chrome/112.0.0.0 Safari/537.36","WebKit","Chrome","112.0.0.0","Windows","10.0","3273","<p>As the military commander, you could choose to launch a missile to kill <strong>7 enemy soldiers</strong> , but would accidentally kill <strong>1 enemy civilian</strong> nearby.</p> <p>The photo of the <strong>enemy civilian</strong> is shown below.</p> <p></p> <img src='stimuli/faces/NCM5.jpg', style='max-width: 30%;'> </img> <p><strong>Would you launch the weapon?</strong></p>","0",""
"","","","","","html-keyboard-response","31","164893","0.0-3.0-0.14","9","1","2023-05-19 16:05:38","c5e7288ef5abdde20c6cfc36967cae27","63.92.70.195","Mozilla/5.0 (Windows NT 10.0; Win64; x64) AppleWebKit/537.36 (KHTML, like Gecko) Chrome/112.0.0.0 Safari/537.36","WebKit","Chrome","112.0.0.0","Windows","10.0","null","<div style=""font-size:60px;"">+</div>","null",""
"","","","","","html-button-response","32","168166","0.0-3.0-1.14","9","1","2023-05-19 16:05:38","c5e7288ef5abdde20c6cfc36967cae27","63.92.70.195","Mozilla/5.0 (Windows NT 10.0; Win64; x64) AppleWebKit/537.36 (KHTML, like Gecko) Chrome/112.0.0.0 Safari/537.36","WebKit","Chrome","112.0.0.0","Windows","10.0","3270","<p>As the military commander, you could choose to launch a missile to kill <strong>10 enemy soldiers</strong> , but would accidentally kill <strong>1 enemy tree</strong> nearby.</p> <p>The photo of the <strong>enemy tree</strong> is shown below.</p> <p></p> <img src='stimuli/tree/13.png', style='max-width: 30%;'> </img> <p><strong>Would you launch the weapon?</strong></p>","1",""
"","","","","","html-keyboard-response","33","169169","0.0-3.0-0.15","9","1","2023-05-19 16:05:38","c5e7288ef5abdde20c6cfc36967cae27","63.92.70.195","Mozilla/5.0 (Windows NT 10.0; Win64; x64) AppleWebKit/537.36 (KHTML, like Gecko) Chrome/112.0.0.0 Safari/537.36","WebKit","Chrome","112.0.0.0","Windows","10.0","null","<div style=""font-size:60px;"">+</div>","null",""
"","","","","","html-button-response","34","185539","0.0-3.0-1.15","9","1","2023-05-19 16:05:38","c5e7288ef5abdde20c6cfc36967cae27","63.92.70.195","Mozilla/5.0 (Windows NT 10.0; Win64; x64) AppleWebKit/537.36 (KHTML, like Gecko) Chrome/112.0.0.0 Safari/537.36","WebKit","Chrome","112.0.0.0","Windows","10.0","16366","<p>As the military commander, you could choose to launch a missile to kill <strong>2 enemy soldiers</strong> , but would accidentally kill <strong>1 enemy tree</strong> nearby.</p> <p>The photo of the <strong>enemy tree</strong> is shown below.</p> <p></p> <img src='stimuli/tree/3.png', style='max-width: 30%;'> </img> <p><strong>Would you launch the weapon?</strong></p>","0",""
"","","","","","html-keyboard-response","35","186543","0.0-3.0-0.16","9","1","2023-05-19 16:05:38","c5e7288ef5abdde20c6cfc36967cae27","63.92.70.195","Mozilla/5.0 (Windows NT 10.0; Win64; x64) AppleWebKit/537.36 (KHTML, like Gecko) Chrome/112.0.0.0 Safari/537.36","WebKit","Chrome","112.0.0.0","Windows","10.0","null","<div style=""font-size:60px;"">+</div>","null",""
"","","","","","html-button-response","36","188161","0.0-3.0-1.16","9","1","2023-05-19 16:05:38","c5e7288ef5abdde20c6cfc36967cae27","63.92.70.195","Mozilla/5.0 (Windows NT 10.0; Win64; x64) AppleWebKit/537.36 (KHTML, like Gecko) Chrome/112.0.0.0 Safari/537.36","WebKit","Chrome","112.0.0.0","Windows","10.0","1614","<p>As the military commander, you could choose to launch a missile to kill <strong>6 enemy soldiers</strong> , but would accidentally kill <strong>1 enemy civilian</strong> nearby.</p> <p>The photo of the <strong>enemy civilian</strong> is shown below.</p> <p></p> <img src='stimuli/faces/NCF6.jpg', style='max-width: 30%;'> </img> <p><strong>Would you launch the weapon?</strong></p>","0",""
"","","","","","html-keyboard-response","37","189165","0.0-3.0-0.17","9","1","2023-05-19 16:05:38","c5e7288ef5abdde20c6cfc36967cae27","63.92.70.195","Mozilla/5.0 (Windows NT 10.0; Win64; x64) AppleWebKit/537.36 (KHTML, like Gecko) Chrome/112.0.0.0 Safari/537.36","WebKit","Chrome","112.0.0.0","Windows","10.0","null","<div style=""font-size:60px;"">+</div>","null",""
"","","","","","html-button-response","38","190828","0.0-3.0-1.17","9","1","2023-05-19 16:05:38","c5e7288ef5abdde20c6cfc36967cae27","63.92.70.195","Mozilla/5.0 (Windows NT 10.0; Win64; x64) AppleWebKit/537.36 (KHTML, like Gecko) Chrome/112.0.0.0 Safari/537.36","WebKit","Chrome","112.0.0.0","Windows","10.0","1659","<p>As the military commander, you could choose to launch a missile to kill <strong>9 enemy soldiers</strong> , but would accidentally kill <strong>1 enemy civilian</strong> nearby.</p> <p>The photo of the <strong>enemy civilian</strong> is shown below.</p> <p></p> <img src='stimuli/faces/NCM2.jpg', style='max-width: 30%;'> </img> <p><strong>Would you launch the weapon?</strong></p>","0",""
"","","","","","html-keyboard-response","39","191831","0.0-3.0-0.18","9","1","2023-05-19 16:05:38","c5e7288ef5abdde20c6cfc36967cae27","63.92.70.195","Mozilla/5.0 (Windows NT 10.0; Win64; x64) AppleWebKit/537.36 (KHTML, like Gecko) Chrome/112.0.0.0 Safari/537.36","WebKit","Chrome","112.0.0.0","Windows","10.0","null","<div style=""font-size:60px;"">+</div>","null",""
"","","","","","html-button-response","40","193986","0.0-3.0-1.18","9","1","2023-05-19 16:05:38","c5e7288ef5abdde20c6cfc36967cae27","63.92.70.195","Mozilla/5.0 (Windows NT 10.0; Win64; x64) AppleWebKit/537.36 (KHTML, like Gecko) Chrome/112.0.0.0 Safari/537.36","WebKit","Chrome","112.0.0.0","Windows","10.0","2152","<p>As the military commander, you could choose to launch a missile to kill <strong>7 enemy soldiers</strong> , but would accidentally kill <strong>1 enemy tree</strong> nearby.</p> <p>The photo of the <strong>enemy tree</strong> is shown below.</p> <p></p> <img src='stimuli/tree/3.png', style='max-width: 30%;'> </img> <p><strong>Would you launch the weapon?</strong></p>","1",""
"","","","","","html-keyboard-response","41","194989","0.0-3.0-0.19","9","1","2023-05-19 16:05:38","c5e7288ef5abdde20c6cfc36967cae27","63.92.70.195","Mozilla/5.0 (Windows NT 10.0; Win64; x64) AppleWebKit/537.36 (KHTML, like Gecko) Chrome/112.0.0.0 Safari/537.36","WebKit","Chrome","112.0.0.0","Windows","10.0","null","<div style=""font-size:60px;"">+</div>","null",""
"","","","","","html-button-response","42","196491","0.0-3.0-1.19","9","1","2023-05-19 16:05:38","c5e7288ef5abdde20c6cfc36967cae27","63.92.70.195","Mozilla/5.0 (Windows NT 10.0; Win64; x64) AppleWebKit/537.36 (KHTML, like Gecko) Chrome/112.0.0.0 Safari/537.36","WebKit","Chrome","112.0.0.0","Windows","10.0","1500","<p>As the military commander, you could choose to launch a missile to kill <strong>5 enemy soldiers</strong> , but would accidentally kill <strong>1 enemy tree</strong> nearby.</p> <p>The photo of the <strong>enemy tree</strong> is shown below.</p> <p></p> <img src='stimuli/tree/5.png', style='max-width: 30%;'> </img> <p><strong>Would you launch the weapon?</strong></p>","0",""
"","","","","","html-keyboard-response","43","197495","0.0-3.0-0.20","9","1","2023-05-19 16:05:38","c5e7288ef5abdde20c6cfc36967cae27","63.92.70.195","Mozilla/5.0 (Windows NT 10.0; Win64; x64) AppleWebKit/537.36 (KHTML, like Gecko) Chrome/112.0.0.0 Safari/537.36","WebKit","Chrome","112.0.0.0","Windows","10.0","null","<div style=""font-size:60px;"">+</div>","null",""
"","","","","","html-button-response","44","201035","0.0-3.0-1.20","9","1","2023-05-19 16:05:38","c5e7288ef5abdde20c6cfc36967cae27","63.92.70.195","Mozilla/5.0 (Windows NT 10.0; Win64; x64) AppleWebKit/537.36 (KHTML, like Gecko) Chrome/112.0.0.0 Safari/537.36","WebKit","Chrome","112.0.0.0","Windows","10.0","3536","<p>As the military commander, you could choose to launch a missile to kill <strong>1 enemy soldier</strong> , but would accidentally kill <strong>1 enemy civilian</strong> nearby.</p> <p>The photo of the <strong>enemy civilian</strong> is shown below.</p> <p></p> <img src='stimuli/faces/NCM4.jpg', style='max-width: 30%;'> </img> <p><strong>Would you launch the weapon?</strong></p>","1",""
"","","","","","html-keyboard-response","45","202039","0.0-3.0-0.21","9","1","2023-05-19 16:05:38","c5e7288ef5abdde20c6cfc36967cae27","63.92.70.195","Mozilla/5.0 (Windows NT 10.0; Win64; x64) AppleWebKit/537.36 (KHTML, like Gecko) Chrome/112.0.0.0 Safari/537.36","WebKit","Chrome","112.0.0.0","Windows","10.0","null","<div style=""font-size:60px;"">+</div>","null",""
"","","","","","html-button-response","46","204179","0.0-3.0-1.21","9","1","2023-05-19 16:05:38","c5e7288ef5abdde20c6cfc36967cae27","63.92.70.195","Mozilla/5.0 (Windows NT 10.0; Win64; x64) AppleWebKit/537.36 (KHTML, like Gecko) Chrome/112.0.0.0 Safari/537.36","WebKit","Chrome","112.0.0.0","Windows","10.0","2135","<p>As the military commander, you could choose to launch a missile to kill <strong>6 enemy soldiers</strong> , but would accidentally kill <strong>1 enemy civilian</strong> nearby.</p> <p>The photo of the <strong>enemy civilian</strong> is shown below.</p> <p></p> <img src='stimuli/faces/NCF4.jpg', style='max-width: 30%;'> </img> <p><strong>Would you launch the weapon?</strong></p>","0",""
"","","","","","html-keyboard-response","47","205182","0.0-3.0-0.22","9","1","2023-05-19 16:05:38","c5e7288ef5abdde20c6cfc36967cae27","63.92.70.195","Mozilla/5.0 (Windows NT 10.0; Win64; x64) AppleWebKit/537.36 (KHTML, like Gecko) Chrome/112.0.0.0 Safari/537.36","WebKit","Chrome","112.0.0.0","Windows","10.0","null","<div style=""font-size:60px;"">+</div>","null",""
"","","","","","html-button-response","48","210931","0.0-3.0-1.22","9","1","2023-05-19 16:05:38","c5e7288ef5abdde20c6cfc36967cae27","63.92.70.195","Mozilla/5.0 (Windows NT 10.0; Win64; x64) AppleWebKit/537.36 (KHTML, like Gecko) Chrome/112.0.0.0 Safari/537.36","WebKit","Chrome","112.0.0.0","Windows","10.0","5745","<p>As the military commander, you could choose to launch a missile to kill <strong>4 enemy soldiers</strong> , but would accidentally kill <strong>1 enemy tree</strong> nearby.</p> <p>The photo of the <strong>enemy tree</strong> is shown below.</p> <p></p> <img src='stimuli/tree/8.png', style='max-width: 30%;'> </img> <p><strong>Would you launch the weapon?</strong></p>","1",""
"","","","","","html-keyboard-response","49","211934","0.0-3.0-0.23","9","1","2023-05-19 16:05:38","c5e7288ef5abdde20c6cfc36967cae27","63.92.70.195","Mozilla/5.0 (Windows NT 10.0; Win64; x64) AppleWebKit/537.36 (KHTML, like Gecko) Chrome/112.0.0.0 Safari/537.36","WebKit","Chrome","112.0.0.0","Windows","10.0","null","<div style=""font-size:60px;"">+</div>","null",""
"","","","","","html-button-response","50","217282","0.0-3.0-1.23","9","1","2023-05-19 16:05:38","c5e7288ef5abdde20c6cfc36967cae27","63.92.70.195","Mozilla/5.0 (Windows NT 10.0; Win64; x64) AppleWebKit/537.36 (KHTML, like Gecko) Chrome/112.0.0.0 Safari/537.36","WebKit","Chrome","112.0.0.0","Windows","10.0","5327","<p>As the military commander, you could choose to launch a missile to kill <strong>6 enemy soldiers</strong> , but would accidentally kill <strong>1 enemy tree</strong> nearby.</p> <p>The photo of the <strong>enemy tree</strong> is shown below.</p> <p></p> <img src='stimuli/tree/1.png', style='max-width: 30%;'> </img> <p><strong>Would you launch the weapon?</strong></p>","0",""
"","","","","","html-keyboard-response","51","218285","0.0-3.0-0.24","9","1","2023-05-19 16:05:38","c5e7288ef5abdde20c6cfc36967cae27","63.92.70.195","Mozilla/5.0 (Windows NT 10.0; Win64; x64) AppleWebKit/537.36 (KHTML, like Gecko) Chrome/112.0.0.0 Safari/537.36","WebKit","Chrome","112.0.0.0","Windows","10.0","null","<div style=""font-size:60px;"">+</div>","null",""
"","","","","","html-button-response","52","234434","0.0-3.0-1.24","9","1","2023-05-19 16:05:38","c5e7288ef5abdde20c6cfc36967cae27","63.92.70.195","Mozilla/5.0 (Windows NT 10.0; Win64; x64) AppleWebKit/537.36 (KHTML, like Gecko) Chrome/112.0.0.0 Safari/537.36","WebKit","Chrome","112.0.0.0","Windows","10.0","16145","<p>As the military commander, you could choose to launch a missile to kill <strong>7 enemy soldiers</strong> , but would accidentally kill <strong>1 enemy tree</strong> nearby.</p> <p>The photo of the <strong>enemy tree</strong> is shown below.</p> <p></p> <img src='stimuli/tree/2.png', style='max-width: 30%;'> </img> <p><strong>Would you launch the weapon?</strong></p>","1",""
"","","","","","html-keyboard-response","53","235437","0.0-3.0-0.25","9","1","2023-05-19 16:05:38","c5e7288ef5abdde20c6cfc36967cae27","63.92.70.195","Mozilla/5.0 (Windows NT 10.0; Win64; x64) AppleWebKit/537.36 (KHTML, like Gecko) Chrome/112.0.0.0 Safari/537.36","WebKit","Chrome","112.0.0.0","Windows","10.0","null","<div style=""font-size:60px;"">+</div>","null",""
"","","","","","html-button-response","54","237010","0.0-3.0-1.25","9","1","2023-05-19 16:05:38","c5e7288ef5abdde20c6cfc36967cae27","63.92.70.195","Mozilla/5.0 (Windows NT 10.0; Win64; x64) AppleWebKit/537.36 (KHTML, like Gecko) Chrome/112.0.0.0 Safari/537.36","WebKit","Chrome","112.0.0.0","Windows","10.0","1567","<p>As the military commander, you could choose to launch a missile to kill <strong>4 enemy soldiers</strong> , but would accidentally kill <strong>1 enemy civilian</strong> nearby.</p> <p>The photo of the <strong>enemy civilian</strong> is shown below.</p> <p></p> <img src='stimuli/faces/NCF2.jpg', style='max-width: 30%;'> </img> <p><strong>Would you launch the weapon?</strong></p>","0",""
"","","","","","html-keyboard-response","55","238014","0.0-3.0-0.26","9","1","2023-05-19 16:05:38","c5e7288ef5abdde20c6cfc36967cae27","63.92.70.195","Mozilla/5.0 (Windows NT 10.0; Win64; x64) AppleWebKit/537.36 (KHTML, like Gecko) Chrome/112.0.0.0 Safari/537.36","WebKit","Chrome","112.0.0.0","Windows","10.0","null","<div style=""font-size:60px;"">+</div>","null",""
"","","","","","html-button-response","56","239875","0.0-3.0-1.26","9","1","2023-05-19 16:05:38","c5e7288ef5abdde20c6cfc36967cae27","63.92.70.195","Mozilla/5.0 (Windows NT 10.0; Win64; x64) AppleWebKit/537.36 (KHTML, like Gecko) Chrome/112.0.0.0 Safari/537.36","WebKit","Chrome","112.0.0.0","Windows","10.0","1856","<p>As the military commander, you could choose to launch a missile to kill <strong>9 enemy soldiers</strong> , but would accidentally kill <strong>1 enemy tree</strong> nearby.</p> <p>The photo of the <strong>enemy tree</strong> is shown below.</p> <p></p> <img src='stimuli/tree/12.png', style='max-width: 30%;'> </img> <p><strong>Would you launch the weapon?</strong></p>","0",""
"","","","","","html-keyboard-response","57","240878","0.0-3.0-0.27","9","1","2023-05-19 16:05:38","c5e7288ef5abdde20c6cfc36967cae27","63.92.70.195","Mozilla/5.0 (Windows NT 10.0; Win64; x64) AppleWebKit/537.36 (KHTML, like Gecko) Chrome/112.0.0.0 Safari/537.36","WebKit","Chrome","112.0.0.0","Windows","10.0","null","<div style=""font-size:60px;"">+</div>","null",""
"","","","","","html-button-response","58","246450","0.0-3.0-1.27","9","1","2023-05-19 16:05:38","c5e7288ef5abdde20c6cfc36967cae27","63.92.70.195","Mozilla/5.0 (Windows NT 10.0; Win64; x64) AppleWebKit/537.36 (KHTML, like Gecko) Chrome/112.0.0.0 Safari/537.36","WebKit","Chrome","112.0.0.0","Windows","10.0","5567","<p>As the military commander, you could choose to launch a missile to kill <strong>1 enemy soldier</strong> , but would accidentally kill <strong>1 enemy civilian</strong> nearby.</p> <p>The photo of the <strong>enemy civilian</strong> is shown below.</p> <p></p> <img src='stimuli/faces/NCM7.jpg', style='max-width: 30%;'> </img> <p><strong>Would you launch the weapon?</strong></p>","1",""
"","","","","","html-keyboard-response","59","247453","0.0-3.0-0.28","9","1","2023-05-19 16:05:38","c5e7288ef5abdde20c6cfc36967cae27","63.92.70.195","Mozilla/5.0 (Windows NT 10.0; Win64; x64) AppleWebKit/537.36 (KHTML, like Gecko) Chrome/112.0.0.0 Safari/537.36","WebKit","Chrome","112.0.0.0","Windows","10.0","null","<div style=""font-size:60px;"">+</div>","null",""
"","","","","","html-button-response","60","249371","0.0-3.0-1.28","9","1","2023-05-19 16:05:38","c5e7288ef5abdde20c6cfc36967cae27","63.92.70.195","Mozilla/5.0 (Windows NT 10.0; Win64; x64) AppleWebKit/537.36 (KHTML, like Gecko) Chrome/112.0.0.0 Safari/537.36","WebKit","Chrome","112.0.0.0","Windows","10.0","1912","<p>As the military commander, you could choose to launch a missile to kill <strong>5 enemy soldiers</strong> , but would accidentally kill <strong>1 enemy civilian</strong> nearby.</p> <p>The photo of the <strong>enemy civilian</strong> is shown below.</p> <p></p> <img src='stimuli/faces/NCF3.jpg', style='max-width: 30%;'> </img> <p><strong>Would you launch the weapon?</strong></p>","0",""
"","","","","","html-keyboard-response","61","250375","0.0-3.0-0.29","9","1","2023-05-19 16:05:38","c5e7288ef5abdde20c6cfc36967cae27","63.92.70.195","Mozilla/5.0 (Windows NT 10.0; Win64; x64) AppleWebKit/537.36 (KHTML, like Gecko) Chrome/112.0.0.0 Safari/537.36","WebKit","Chrome","112.0.0.0","Windows","10.0","null","<div style=""font-size:60px;"">+</div>","null",""
"","","","","","html-button-response","62","251995","0.0-3.0-1.29","9","1","2023-05-19 16:05:38","c5e7288ef5abdde20c6cfc36967cae27","63.92.70.195","Mozilla/5.0 (Windows NT 10.0; Win64; x64) AppleWebKit/537.36 (KHTML, like Gecko) Chrome/112.0.0.0 Safari/537.36","WebKit","Chrome","112.0.0.0","Windows","10.0","1615","<p>As the military commander, you could choose to launch a missile to kill <strong>10 enemy soldiers</strong> , but would accidentally kill <strong>1 enemy civilian</strong> nearby.</p> <p>The photo of the <strong>enemy civilian</strong> is shown below.</p> <p></p> <img src='stimuli/faces/NCM7.jpg', style='max-width: 30%;'> </img> <p><strong>Would you launch the weapon?</strong></p>","0",""
"","","","","","html-keyboard-response","63","252999","0.0-3.0-0.30","9","1","2023-05-19 16:05:38","c5e7288ef5abdde20c6cfc36967cae27","63.92.70.195","Mozilla/5.0 (Windows NT 10.0; Win64; x64) AppleWebKit/537.36 (KHTML, like Gecko) Chrome/112.0.0.0 Safari/537.36","WebKit","Chrome","112.0.0.0","Windows","10.0","null","<div style=""font-size:60px;"">+</div>","null",""
"","","","","","html-button-response","64","254675","0.0-3.0-1.30","9","1","2023-05-19 16:05:38","c5e7288ef5abdde20c6cfc36967cae27","63.92.70.195","Mozilla/5.0 (Windows NT 10.0; Win64; x64) AppleWebKit/537.36 (KHTML, like Gecko) Chrome/112.0.0.0 Safari/537.36","WebKit","Chrome","112.0.0.0","Windows","10.0","1673","<p>As the military commander, you could choose to launch a missile to kill <strong>7 enemy soldiers</strong> , but would accidentally kill <strong>1 enemy civilian</strong> nearby.</p> <p>The photo of the <strong>enemy civilian</strong> is shown below.</p> <p></p> <img src='stimuli/faces/NCM8.jpg', style='max-width: 30%;'> </img> <p><strong>Would you launch the weapon?</strong></p>","0",""
"","","","","","html-keyboard-response","65","255682","0.0-3.0-0.31","9","1","2023-05-19 16:05:38","c5e7288ef5abdde20c6cfc36967cae27","63.92.70.195","Mozilla/5.0 (Windows NT 10.0; Win64; x64) AppleWebKit/537.36 (KHTML, like Gecko) Chrome/112.0.0.0 Safari/537.36","WebKit","Chrome","112.0.0.0","Windows","10.0","null","<div style=""font-size:60px;"">+</div>","null",""
"","","","","","html-button-response","66","257412","0.0-3.0-1.31","9","1","2023-05-19 16:05:38","c5e7288ef5abdde20c6cfc36967cae27","63.92.70.195","Mozilla/5.0 (Windows NT 10.0; Win64; x64) AppleWebKit/537.36 (KHTML, like Gecko) Chrome/112.0.0.0 Safari/537.36","WebKit","Chrome","112.0.0.0","Windows","10.0","1725","<p>As the military commander, you could choose to launch a missile to kill <strong>6 enemy soldiers</strong> , but would accidentally kill <strong>1 enemy civilian</strong> nearby.</p> <p>The photo of the <strong>enemy civilian</strong> is shown below.</p> <p></p> <img src='stimuli/faces/NCM1.jpg', style='max-width: 30%;'> </img> <p><strong>Would you launch the weapon?</strong></p>","1",""
"","","","","","html-keyboard-response","67","258417","0.0-3.0-0.32","9","1","2023-05-19 16:05:38","c5e7288ef5abdde20c6cfc36967cae27","63.92.70.195","Mozilla/5.0 (Windows NT 10.0; Win64; x64) AppleWebKit/537.36 (KHTML, like Gecko) Chrome/112.0.0.0 Safari/537.36","WebKit","Chrome","112.0.0.0","Windows","10.0","null","<div style=""font-size:60px;"">+</div>","null",""
"","","","","","html-button-response","68","259852","0.0-3.0-1.32","9","1","2023-05-19 16:05:38","c5e7288ef5abdde20c6cfc36967cae27","63.92.70.195","Mozilla/5.0 (Windows NT 10.0; Win64; x64) AppleWebKit/537.36 (KHTML, like Gecko) Chrome/112.0.0.0 Safari/537.36","WebKit","Chrome","112.0.0.0","Windows","10.0","1430","<p>As the military commander, you could choose to launch a missile to kill <strong>5 enemy soldiers</strong> , but would accidentally kill <strong>1 enemy tree</strong> nearby.</p> <p>The photo of the <strong>enemy tree</strong> is shown below.</p> <p></p> <img src='stimuli/tree/16.png', style='max-width: 30%;'> </img> <p><strong>Would you launch the weapon?</strong></p>","0",""
"","","","","","html-keyboard-response","69","260855","0.0-3.0-0.33","9","1","2023-05-19 16:05:38","c5e7288ef5abdde20c6cfc36967cae27","63.92.70.195","Mozilla/5.0 (Windows NT 10.0; Win64; x64) AppleWebKit/537.36 (KHTML, like Gecko) Chrome/112.0.0.0 Safari/537.36","WebKit","Chrome","112.0.0.0","Windows","10.0","null","<div style=""font-size:60px;"">+</div>","null",""
"","","","","","html-button-response","70","262365","0.0-3.0-1.33","9","1","2023-05-19 16:05:38","c5e7288ef5abdde20c6cfc36967cae27","63.92.70.195","Mozilla/5.0 (Windows NT 10.0; Win64; x64) AppleWebKit/537.36 (KHTML, like Gecko) Chrome/112.0.0.0 Safari/537.36","WebKit","Chrome","112.0.0.0","Windows","10.0","1506","<p>As the military commander, you could choose to launch a missile to kill <strong>1 enemy soldier</strong> , but would accidentally kill <strong>1 enemy civilian</strong> nearby.</p> <p>The photo of the <strong>enemy civilian</strong> is shown below.</p> <p></p> <img src='stimuli/faces/NCM8.jpg', style='max-width: 30%;'> </img> <p><strong>Would you launch the weapon?</strong></p>","0",""
"","","","","","html-keyboard-response","71","263368","0.0-3.0-0.34","9","1","2023-05-19 16:05:38","c5e7288ef5abdde20c6cfc36967cae27","63.92.70.195","Mozilla/5.0 (Windows NT 10.0; Win64; x64) AppleWebKit/537.36 (KHTML, like Gecko) Chrome/112.0.0.0 Safari/537.36","WebKit","Chrome","112.0.0.0","Windows","10.0","null","<div style=""font-size:60px;"">+</div>","null",""
"","","","","","html-button-response","72","265013","0.0-3.0-1.34","9","1","2023-05-19 16:05:38","c5e7288ef5abdde20c6cfc36967cae27","63.92.70.195","Mozilla/5.0 (Windows NT 10.0; Win64; x64) AppleWebKit/537.36 (KHTML, like Gecko) Chrome/112.0.0.0 Safari/537.36","WebKit","Chrome","112.0.0.0","Windows","10.0","1638","<p>As the military commander, you could choose to launch a missile to kill <strong>1 enemy soldier</strong> , but would accidentally kill <strong>1 enemy tree</strong> nearby.</p> <p>The photo of the <strong>enemy tree</strong> is shown below.</p> <p></p> <img src='stimuli/tree/9.png', style='max-width: 30%;'> </img> <p><strong>Would you launch the weapon?</strong></p>","1",""
"","","","","","html-keyboard-response","73","266017","0.0-3.0-0.35","9","1","2023-05-19 16:05:38","c5e7288ef5abdde20c6cfc36967cae27","63.92.70.195","Mozilla/5.0 (Windows NT 10.0; Win64; x64) AppleWebKit/537.36 (KHTML, like Gecko) Chrome/112.0.0.0 Safari/537.36","WebKit","Chrome","112.0.0.0","Windows","10.0","null","<div style=""font-size:60px;"">+</div>","null",""
"","","","","","html-button-response","74","268291","0.0-3.0-1.35","9","1","2023-05-19 16:05:38","c5e7288ef5abdde20c6cfc36967cae27","63.92.70.195","Mozilla/5.0 (Windows NT 10.0; Win64; x64) AppleWebKit/537.36 (KHTML, like Gecko) Chrome/112.0.0.0 Safari/537.36","WebKit","Chrome","112.0.0.0","Windows","10.0","2269","<p>As the military commander, you could choose to launch a missile to kill <strong>5 enemy soldiers</strong> , but would accidentally kill <strong>1 enemy civilian</strong> nearby.</p> <p>The photo of the <strong>enemy civilian</strong> is shown below.</p> <p></p> <img src='stimuli/faces/NCF1.jpg', style='max-width: 30%;'> </img> <p><strong>Would you launch the weapon?</strong></p>","0",""
"","","","","","html-keyboard-response","75","269294","0.0-3.0-0.36","9","1","2023-05-19 16:05:38","c5e7288ef5abdde20c6cfc36967cae27","63.92.70.195","Mozilla/5.0 (Windows NT 10.0; Win64; x64) AppleWebKit/537.36 (KHTML, like Gecko) Chrome/112.0.0.0 Safari/537.36","WebKit","Chrome","112.0.0.0","Windows","10.0","null","<div style=""font-size:60px;"">+</div>","null",""
"","","","","","html-button-response","76","271155","0.0-3.0-1.36","9","1","2023-05-19 16:05:38","c5e7288ef5abdde20c6cfc36967cae27","63.92.70.195","Mozilla/5.0 (Windows NT 10.0; Win64; x64) AppleWebKit/537.36 (KHTML, like Gecko) Chrome/112.0.0.0 Safari/537.36","WebKit","Chrome","112.0.0.0","Windows","10.0","1857","<p>As the military commander, you could choose to launch a missile to kill <strong>1 enemy soldier</strong> , but would accidentally kill <strong>1 enemy civilian</strong> nearby.</p> <p>The photo of the <strong>enemy civilian</strong> is shown below.</p> <p></p> <img src='stimuli/faces/NCF6.jpg', style='max-width: 30%;'> </img> <p><strong>Would you launch the weapon?</strong></p>","1",""
"","","","","","html-keyboard-response","77","272160","0.0-3.0-0.37","9","1","2023-05-19 16:05:38","c5e7288ef5abdde20c6cfc36967cae27","63.92.70.195","Mozilla/5.0 (Windows NT 10.0; Win64; x64) AppleWebKit/537.36 (KHTML, like Gecko) Chrome/112.0.0.0 Safari/537.36","WebKit","Chrome","112.0.0.0","Windows","10.0","null","<div style=""font-size:60px;"">+</div>","null",""
"","","","","","html-button-response","78","273555","0.0-3.0-1.37","9","1","2023-05-19 16:05:38","c5e7288ef5abdde20c6cfc36967cae27","63.92.70.195","Mozilla/5.0 (Windows NT 10.0; Win64; x64) AppleWebKit/537.36 (KHTML, like Gecko) Chrome/112.0.0.0 Safari/537.36","WebKit","Chrome","112.0.0.0","Windows","10.0","1391","<p>As the military commander, you could choose to launch a missile to kill <strong>10 enemy soldiers</strong> , but would accidentally kill <strong>1 enemy tree</strong> nearby.</p> <p>The photo of the <strong>enemy tree</strong> is shown below.</p> <p></p> <img src='stimuli/tree/15.png', style='max-width: 30%;'> </img> <p><strong>Would you launch the weapon?</strong></p>","0",""
"","","","","","html-keyboard-response","79","274561","0.0-3.0-0.38","9","1","2023-05-19 16:05:38","c5e7288ef5abdde20c6cfc36967cae27","63.92.70.195","Mozilla/5.0 (Windows NT 10.0; Win64; x64) AppleWebKit/537.36 (KHTML, like Gecko) Chrome/112.0.0.0 Safari/537.36","WebKit","Chrome","112.0.0.0","Windows","10.0","null","<div style=""font-size:60px;"">+</div>","null",""
"","","","","","html-button-response","80","276763","0.0-3.0-1.38","9","1","2023-05-19 16:05:38","c5e7288ef5abdde20c6cfc36967cae27","63.92.70.195","Mozilla/5.0 (Windows NT 10.0; Win64; x64) AppleWebKit/537.36 (KHTML, like Gecko) Chrome/112.0.0.0 Safari/537.36","WebKit","Chrome","112.0.0.0","Windows","10.0","2198","<p>As the military commander, you could choose to launch a missile to kill <strong>2 enemy soldiers</strong> , but would accidentally kill <strong>1 enemy tree</strong> nearby.</p> <p>The photo of the <strong>enemy tree</strong> is shown below.</p> <p></p> <img src='stimuli/tree/12.png', style='max-width: 30%;'> </img> <p><strong>Would you launch the weapon?</strong></p>","1",""
"","","","","","html-keyboard-response","81","277768","0.0-3.0-0.39","9","1","2023-05-19 16:05:38","c5e7288ef5abdde20c6cfc36967cae27","63.92.70.195","Mozilla/5.0 (Windows NT 10.0; Win64; x64) AppleWebKit/537.36 (KHTML, like Gecko) Chrome/112.0.0.0 Safari/537.36","WebKit","Chrome","112.0.0.0","Windows","10.0","null","<div style=""font-size:60px;"">+</div>","null",""
"","","","","","html-button-response","82","280083","0.0-3.0-1.39","9","1","2023-05-19 16:05:38","c5e7288ef5abdde20c6cfc36967cae27","63.92.70.195","Mozilla/5.0 (Windows NT 10.0; Win64; x64) AppleWebKit/537.36 (KHTML, like Gecko) Chrome/112.0.0.0 Safari/537.36","WebKit","Chrome","112.0.0.0","Windows","10.0","2309","<p>As the military commander, you could choose to launch a missile to kill <strong>8 enemy soldiers</strong> , but would accidentally kill <strong>1 enemy civilian</strong> nearby.</p> <p>The photo of the <strong>enemy civilian</strong> is shown below.</p> <p></p> <img src='stimuli/faces/NCM3.jpg', style='max-width: 30%;'> </img> <p><strong>Would you launch the weapon?</strong></p>","0",""
"","","","","","html-keyboard-response","83","281088","0.0-3.0-0.40","9","1","2023-05-19 16:05:38","c5e7288ef5abdde20c6cfc36967cae27","63.92.70.195","Mozilla/5.0 (Windows NT 10.0; Win64; x64) AppleWebKit/537.36 (KHTML, like Gecko) Chrome/112.0.0.0 Safari/537.36","WebKit","Chrome","112.0.0.0","Windows","10.0","null","<div style=""font-size:60px;"">+</div>","null",""
"","","","","","html-button-response","84","282771","0.0-3.0-1.40","9","1","2023-05-19 16:05:38","c5e7288ef5abdde20c6cfc36967cae27","63.92.70.195","Mozilla/5.0 (Windows NT 10.0; Win64; x64) AppleWebKit/537.36 (KHTML, like Gecko) Chrome/112.0.0.0 Safari/537.36","WebKit","Chrome","112.0.0.0","Windows","10.0","1679","<p>As the military commander, you could choose to launch a missile to kill <strong>5 enemy soldiers</strong> , but would accidentally kill <strong>1 enemy civilian</strong> nearby.</p> <p>The photo of the <strong>enemy civilian</strong> is shown below.</p> <p></p> <img src='stimuli/faces/NCM5.jpg', style='max-width: 30%;'> </img> <p><strong>Would you launch the weapon?</strong></p>","1",""
"","","","","","html-keyboard-response","85","283776","0.0-3.0-0.41","9","1","2023-05-19 16:05:38","c5e7288ef5abdde20c6cfc36967cae27","63.92.70.195","Mozilla/5.0 (Windows NT 10.0; Win64; x64) AppleWebKit/537.36 (KHTML, like Gecko) Chrome/112.0.0.0 Safari/537.36","WebKit","Chrome","112.0.0.0","Windows","10.0","null","<div style=""font-size:60px;"">+</div>","null",""
"","","","","","html-button-response","86","285443","0.0-3.0-1.41","9","1","2023-05-19 16:05:38","c5e7288ef5abdde20c6cfc36967cae27","63.92.70.195","Mozilla/5.0 (Windows NT 10.0; Win64; x64) AppleWebKit/537.36 (KHTML, like Gecko) Chrome/112.0.0.0 Safari/537.36","WebKit","Chrome","112.0.0.0","Windows","10.0","1662","<p>As the military commander, you could choose to launch a missile to kill <strong>3 enemy soldiers</strong> , but would accidentally kill <strong>1 enemy tree</strong> nearby.</p> <p>The photo of the <strong>enemy tree</strong> is shown below.</p> <p></p> <img src='stimuli/tree/14.png', style='max-width: 30%;'> </img> <p><strong>Would you launch the weapon?</strong></p>","0",""
"","","","","","html-keyboard-response","87","286447","0.0-3.0-0.42","9","1","2023-05-19 16:05:38","c5e7288ef5abdde20c6cfc36967cae27","63.92.70.195","Mozilla/5.0 (Windows NT 10.0; Win64; x64) AppleWebKit/537.36 (KHTML, like Gecko) Chrome/112.0.0.0 Safari/537.36","WebKit","Chrome","112.0.0.0","Windows","10.0","null","<div style=""font-size:60px;"">+</div>","null",""
"","","","","","html-button-response","88","297035","0.0-3.0-1.42","9","1","2023-05-19 16:05:38","c5e7288ef5abdde20c6cfc36967cae27","63.92.70.195","Mozilla/5.0 (Windows NT 10.0; Win64; x64) AppleWebKit/537.36 (KHTML, like Gecko) Chrome/112.0.0.0 Safari/537.36","WebKit","Chrome","112.0.0.0","Windows","10.0","10583","<p>As the military commander, you could choose to launch a missile to kill <strong>8 enemy soldiers</strong> , but would accidentally kill <strong>1 enemy tree</strong> nearby.</p> <p>The photo of the <strong>enemy tree</strong> is shown below.</p> <p></p> <img src='stimuli/tree/14.png', style='max-width: 30%;'> </img> <p><strong>Would you launch the weapon?</strong></p>","1",""
"","","","","","html-keyboard-response","89","298041","0.0-3.0-0.43","9","1","2023-05-19 16:05:38","c5e7288ef5abdde20c6cfc36967cae27","63.92.70.195","Mozilla/5.0 (Windows NT 10.0; Win64; x64) AppleWebKit/537.36 (KHTML, like Gecko) Chrome/112.0.0.0 Safari/537.36","WebKit","Chrome","112.0.0.0","Windows","10.0","null","<div style=""font-size:60px;"">+</div>","null",""
"","","","","","html-button-response","90","299595","0.0-3.0-1.43","9","1","2023-05-19 16:05:38","c5e7288ef5abdde20c6cfc36967cae27","63.92.70.195","Mozilla/5.0 (Windows NT 10.0; Win64; x64) AppleWebKit/537.36 (KHTML, like Gecko) Chrome/112.0.0.0 Safari/537.36","WebKit","Chrome","112.0.0.0","Windows","10.0","1547","<p>As the military commander, you could choose to launch a missile to kill <strong>3 enemy soldiers</strong> , but would accidentally kill <strong>1 enemy tree</strong> nearby.</p> <p>The photo of the <strong>enemy tree</strong> is shown below.</p> <p></p> <img src='stimuli/tree/6.png', style='max-width: 30%;'> </img> <p><strong>Would you launch the weapon?</strong></p>","0",""
"","","","","","html-keyboard-response","91","300599","0.0-3.0-0.44","9","1","2023-05-19 16:05:38","c5e7288ef5abdde20c6cfc36967cae27","63.92.70.195","Mozilla/5.0 (Windows NT 10.0; Win64; x64) AppleWebKit/537.36 (KHTML, like Gecko) Chrome/112.0.0.0 Safari/537.36","WebKit","Chrome","112.0.0.0","Windows","10.0","null","<div style=""font-size:60px;"">+</div>","null",""
"","","","","","html-button-response","92","302204","0.0-3.0-1.44","9","1","2023-05-19 16:05:38","c5e7288ef5abdde20c6cfc36967cae27","63.92.70.195","Mozilla/5.0 (Windows NT 10.0; Win64; x64) AppleWebKit/537.36 (KHTML, like Gecko) Chrome/112.0.0.0 Safari/537.36","WebKit","Chrome","112.0.0.0","Windows","10.0","1599","<p>As the military commander, you could choose to launch a missile to kill <strong>7 enemy soldiers</strong> , but would accidentally kill <strong>1 enemy civilian</strong> nearby.</p> <p>The photo of the <strong>enemy civilian</strong> is shown below.</p> <p></p> <img src='stimuli/faces/NCF3.jpg', style='max-width: 30%;'> </img> <p><strong>Would you launch the weapon?</strong></p>","1",""
"","","","","","html-keyboard-response","93","303209","0.0-3.0-0.45","9","1","2023-05-19 16:05:38","c5e7288ef5abdde20c6cfc36967cae27","63.92.70.195","Mozilla/5.0 (Windows NT 10.0; Win64; x64) AppleWebKit/537.36 (KHTML, like Gecko) Chrome/112.0.0.0 Safari/537.36","WebKit","Chrome","112.0.0.0","Windows","10.0","null","<div style=""font-size:60px;"">+</div>","null",""
"","","","","","html-button-response","94","305331","0.0-3.0-1.45","9","1","2023-05-19 16:05:38","c5e7288ef5abdde20c6cfc36967cae27","63.92.70.195","Mozilla/5.0 (Windows NT 10.0; Win64; x64) AppleWebKit/537.36 (KHTML, like Gecko) Chrome/112.0.0.0 Safari/537.36","WebKit","Chrome","112.0.0.0","Windows","10.0","2116","<p>As the military commander, you could choose to launch a missile to kill <strong>7 enemy soldiers</strong> , but would accidentally kill <strong>1 enemy tree</strong> nearby.</p> <p>The photo of the <strong>enemy tree</strong> is shown below.</p> <p></p> <img src='stimuli/tree/7.png', style='max-width: 30%;'> </img> <p><strong>Would you launch the weapon?</strong></p>","1",""
"","","","","","html-keyboard-response","95","306336","0.0-3.0-0.46","9","1","2023-05-19 16:05:38","c5e7288ef5abdde20c6cfc36967cae27","63.92.70.195","Mozilla/5.0 (Windows NT 10.0; Win64; x64) AppleWebKit/537.36 (KHTML, like Gecko) Chrome/112.0.0.0 Safari/537.36","WebKit","Chrome","112.0.0.0","Windows","10.0","null","<div style=""font-size:60px;"">+</div>","null",""
"","","","","","html-button-response","96","340733","0.0-3.0-1.46","9","1","2023-05-19 16:05:38","c5e7288ef5abdde20c6cfc36967cae27","63.92.70.195","Mozilla/5.0 (Windows NT 10.0; Win64; x64) AppleWebKit/537.36 (KHTML, like Gecko) Chrome/112.0.0.0 Safari/537.36","WebKit","Chrome","112.0.0.0","Windows","10.0","34389","<p>As the military commander, you could choose to launch a missile to kill <strong>6 enemy soldiers</strong> , but would accidentally kill <strong>1 enemy tree</strong> nearby.</p> <p>The photo of the <strong>enemy tree</strong> is shown below.</p> <p></p> <img src='stimuli/tree/16.png', style='max-width: 30%;'> </img> <p><strong>Would you launch the weapon?</strong></p>","0",""
"","","","","","html-keyboard-response","97","341737","0.0-3.0-0.47","9","1","2023-05-19 16:05:38","c5e7288ef5abdde20c6cfc36967cae27","63.92.70.195","Mozilla/5.0 (Windows NT 10.0; Win64; x64) AppleWebKit/537.36 (KHTML, like Gecko) Chrome/112.0.0.0 Safari/537.36","WebKit","Chrome","112.0.0.0","Windows","10.0","null","<div style=""font-size:60px;"">+</div>","null",""
"","","","","","html-button-response","98","343892","0.0-3.0-1.47","9","1","2023-05-19 16:05:38","c5e7288ef5abdde20c6cfc36967cae27","63.92.70.195","Mozilla/5.0 (Windows NT 10.0; Win64; x64) AppleWebKit/537.36 (KHTML, like Gecko) Chrome/112.0.0.0 Safari/537.36","WebKit","Chrome","112.0.0.0","Windows","10.0","2151","<p>As the military commander, you could choose to launch a missile to kill <strong>2 enemy soldiers</strong> , but would accidentally kill <strong>1 enemy civilian</strong> nearby.</p> <p>The photo of the <strong>enemy civilian</strong> is shown below.</p> <p></p> <img src='stimuli/faces/NCF7.jpg', style='max-width: 30%;'> </img> <p><strong>Would you launch the weapon?</strong></p>","1",""
"","","","","","html-keyboard-response","99","344897","0.0-3.0-0.48","9","1","2023-05-19 16:05:38","c5e7288ef5abdde20c6cfc36967cae27","63.92.70.195","Mozilla/5.0 (Windows NT 10.0; Win64; x64) AppleWebKit/537.36 (KHTML, like Gecko) Chrome/112.0.0.0 Safari/537.36","WebKit","Chrome","112.0.0.0","Windows","10.0","null","<div style=""font-size:60px;"">+</div>","null",""
"","","","","","html-button-response","100","348659","0.0-3.0-1.48","9","1","2023-05-19 16:05:38","c5e7288ef5abdde20c6cfc36967cae27","63.92.70.195","Mozilla/5.0 (Windows NT 10.0; Win64; x64) AppleWebKit/537.36 (KHTML, like Gecko) Chrome/112.0.0.0 Safari/537.36","WebKit","Chrome","112.0.0.0","Windows","10.0","3757","<p>As the military commander, you could choose to launch a missile to kill <strong>7 enemy soldiers</strong> , but would accidentally kill <strong>1 enemy civilian</strong> nearby.</p> <p>The photo of the <strong>enemy civilian</strong> is shown below.</p> <p></p> <img src='stimuli/faces/NCF1.jpg', style='max-width: 30%;'> </img> <p><strong>Would you launch the weapon?</strong></p>","0",""
"","","","","","html-keyboard-response","101","349664","0.0-3.0-0.49","9","1","2023-05-19 16:05:38","c5e7288ef5abdde20c6cfc36967cae27","63.92.70.195","Mozilla/5.0 (Windows NT 10.0; Win64; x64) AppleWebKit/537.36 (KHTML, like Gecko) Chrome/112.0.0.0 Safari/537.36","WebKit","Chrome","112.0.0.0","Windows","10.0","null","<div style=""font-size:60px;"">+</div>","null",""
"","","","","","html-button-response","102","351211","0.0-3.0-1.49","9","1","2023-05-19 16:05:38","c5e7288ef5abdde20c6cfc36967cae27","63.92.70.195","Mozilla/5.0 (Windows NT 10.0; Win64; x64) AppleWebKit/537.36 (KHTML, like Gecko) Chrome/112.0.0.0 Safari/537.36","WebKit","Chrome","112.0.0.0","Windows","10.0","1541","<p>As the military commander, you could choose to launch a missile to kill <strong>4 enemy soldiers</strong> , but would accidentally kill <strong>1 enemy tree</strong> nearby.</p> <p>The photo of the <strong>enemy tree</strong> is shown below.</p> <p></p> <img src='stimuli/tree/1.png', style='max-width: 30%;'> </img> <p><strong>Would you launch the weapon?</strong></p>","1",""
"","","","","","html-keyboard-response","103","352218","0.0-3.0-0.50","9","1","2023-05-19 16:05:38","c5e7288ef5abdde20c6cfc36967cae27","63.92.70.195","Mozilla/5.0 (Windows NT 10.0; Win64; x64) AppleWebKit/537.36 (KHTML, like Gecko) Chrome/112.0.0.0 Safari/537.36","WebKit","Chrome","112.0.0.0","Windows","10.0","null","<div style=""font-size:60px;"">+</div>","null",""
"","","","","","html-button-response","104","355475","0.0-3.0-1.50","9","1","2023-05-19 16:05:38","c5e7288ef5abdde20c6cfc36967cae27","63.92.70.195","Mozilla/5.0 (Windows NT 10.0; Win64; x64) AppleWebKit/537.36 (KHTML, like Gecko) Chrome/112.0.0.0 Safari/537.36","WebKit","Chrome","112.0.0.0","Windows","10.0","3252","<p>As the military commander, you could choose to launch a missile to kill <strong>3 enemy soldiers</strong> , but would accidentally kill <strong>1 enemy tree</strong> nearby.</p> <p>The photo of the <strong>enemy tree</strong> is shown below.</p> <p></p> <img src='stimuli/tree/4.png', style='max-width: 30%;'> </img> <p><strong>Would you launch the weapon?</strong></p>","0",""
"","","","","","html-keyboard-response","105","356478","0.0-3.0-0.51","9","1","2023-05-19 16:05:38","c5e7288ef5abdde20c6cfc36967cae27","63.92.70.195","Mozilla/5.0 (Windows NT 10.0; Win64; x64) AppleWebKit/537.36 (KHTML, like Gecko) Chrome/112.0.0.0 Safari/537.36","WebKit","Chrome","112.0.0.0","Windows","10.0","null","<div style=""font-size:60px;"">+</div>","null",""
"","","","","","html-button-response","106","358843","0.0-3.0-1.51","9","1","2023-05-19 16:05:38","c5e7288ef5abdde20c6cfc36967cae27","63.92.70.195","Mozilla/5.0 (Windows NT 10.0; Win64; x64) AppleWebKit/537.36 (KHTML, like Gecko) Chrome/112.0.0.0 Safari/537.36","WebKit","Chrome","112.0.0.0","Windows","10.0","2358","<p>As the military commander, you could choose to launch a missile to kill <strong>2 enemy soldiers</strong> , but would accidentally kill <strong>1 enemy civilian</strong> nearby.</p> <p>The photo of the <strong>enemy civilian</strong> is shown below.</p> <p></p> <img src='stimuli/faces/NCF8.jpg', style='max-width: 30%;'> </img> <p><strong>Would you launch the weapon?</strong></p>","0",""
"","","","","","html-keyboard-response","107","359848","0.0-3.0-0.52","9","1","2023-05-19 16:05:38","c5e7288ef5abdde20c6cfc36967cae27","63.92.70.195","Mozilla/5.0 (Windows NT 10.0; Win64; x64) AppleWebKit/537.36 (KHTML, like Gecko) Chrome/112.0.0.0 Safari/537.36","WebKit","Chrome","112.0.0.0","Windows","10.0","null","<div style=""font-size:60px;"">+</div>","null",""
"","","","","","html-button-response","108","363267","0.0-3.0-1.52","9","1","2023-05-19 16:05:38","c5e7288ef5abdde20c6cfc36967cae27","63.92.70.195","Mozilla/5.0 (Windows NT 10.0; Win64; x64) AppleWebKit/537.36 (KHTML, like Gecko) Chrome/112.0.0.0 Safari/537.36","WebKit","Chrome","112.0.0.0","Windows","10.0","3415","<p>As the military commander, you could choose to launch a missile to kill <strong>9 enemy soldiers</strong> , but would accidentally kill <strong>1 enemy civilian</strong> nearby.</p> <p>The photo of the <strong>enemy civilian</strong> is shown below.</p> <p></p> <img src='stimuli/faces/NCF7.jpg', style='max-width: 30%;'> </img> <p><strong>Would you launch the weapon?</strong></p>","0",""
"","","","","","html-keyboard-response","109","364274","0.0-3.0-0.53","9","1","2023-05-19 16:05:38","c5e7288ef5abdde20c6cfc36967cae27","63.92.70.195","Mozilla/5.0 (Windows NT 10.0; Win64; x64) AppleWebKit/537.36 (KHTML, like Gecko) Chrome/112.0.0.0 Safari/537.36","WebKit","Chrome","112.0.0.0","Windows","10.0","null","<div style=""font-size:60px;"">+</div>","null",""
"","","","","","html-button-response","110","370661","0.0-3.0-1.53","9","1","2023-05-19 16:05:38","c5e7288ef5abdde20c6cfc36967cae27","63.92.70.195","Mozilla/5.0 (Windows NT 10.0; Win64; x64) AppleWebKit/537.36 (KHTML, like Gecko) Chrome/112.0.0.0 Safari/537.36","WebKit","Chrome","112.0.0.0","Windows","10.0","6381","<p>As the military commander, you could choose to launch a missile to kill <strong>5 enemy soldiers</strong> , but would accidentally kill <strong>1 enemy tree</strong> nearby.</p> <p>The photo of the <strong>enemy tree</strong> is shown below.</p> <p></p> <img src='stimuli/tree/15.png', style='max-width: 30%;'> </img> <p><strong>Would you launch the weapon?</strong></p>","0",""
"","","","","","html-keyboard-response","111","371666","0.0-3.0-0.54","9","1","2023-05-19 16:05:38","c5e7288ef5abdde20c6cfc36967cae27","63.92.70.195","Mozilla/5.0 (Windows NT 10.0; Win64; x64) AppleWebKit/537.36 (KHTML, like Gecko) Chrome/112.0.0.0 Safari/537.36","WebKit","Chrome","112.0.0.0","Windows","10.0","null","<div style=""font-size:60px;"">+</div>","null",""
"","","","","","html-button-response","112","373563","0.0-3.0-1.54","9","1","2023-05-19 16:05:38","c5e7288ef5abdde20c6cfc36967cae27","63.92.70.195","Mozilla/5.0 (Windows NT 10.0; Win64; x64) AppleWebKit/537.36 (KHTML, like Gecko) Chrome/112.0.0.0 Safari/537.36","WebKit","Chrome","112.0.0.0","Windows","10.0","1892","<p>As the military commander, you could choose to launch a missile to kill <strong>9 enemy soldiers</strong> , but would accidentally kill <strong>1 enemy tree</strong> nearby.</p> <p>The photo of the <strong>enemy tree</strong> is shown below.</p> <p></p> <img src='stimuli/tree/9.png', style='max-width: 30%;'> </img> <p><strong>Would you launch the weapon?</strong></p>","0",""
"","","","","","html-keyboard-response","113","374569","0.0-3.0-0.55","9","1","2023-05-19 16:05:38","c5e7288ef5abdde20c6cfc36967cae27","63.92.70.195","Mozilla/5.0 (Windows NT 10.0; Win64; x64) AppleWebKit/537.36 (KHTML, like Gecko) Chrome/112.0.0.0 Safari/537.36","WebKit","Chrome","112.0.0.0","Windows","10.0","null","<div style=""font-size:60px;"">+</div>","null",""
"","","","","","html-button-response","114","376045","0.0-3.0-1.55","9","1","2023-05-19 16:05:38","c5e7288ef5abdde20c6cfc36967cae27","63.92.70.195","Mozilla/5.0 (Windows NT 10.0; Win64; x64) AppleWebKit/537.36 (KHTML, like Gecko) Chrome/112.0.0.0 Safari/537.36","WebKit","Chrome","112.0.0.0","Windows","10.0","1468","<p>As the military commander, you could choose to launch a missile to kill <strong>4 enemy soldiers</strong> , but would accidentally kill <strong>1 enemy civilian</strong> nearby.</p> <p>The photo of the <strong>enemy civilian</strong> is shown below.</p> <p></p> <img src='stimuli/faces/NCF5.jpg', style='max-width: 30%;'> </img> <p><strong>Would you launch the weapon?</strong></p>","0",""
"","","","","","html-keyboard-response","115","377051","0.0-3.0-0.56","9","1","2023-05-19 16:05:38","c5e7288ef5abdde20c6cfc36967cae27","63.92.70.195","Mozilla/5.0 (Windows NT 10.0; Win64; x64) AppleWebKit/537.36 (KHTML, like Gecko) Chrome/112.0.0.0 Safari/537.36","WebKit","Chrome","112.0.0.0","Windows","10.0","null","<div style=""font-size:60px;"">+</div>","null",""
"","","","","","html-button-response","116","378364","0.0-3.0-1.56","9","1","2023-05-19 16:05:38","c5e7288ef5abdde20c6cfc36967cae27","63.92.70.195","Mozilla/5.0 (Windows NT 10.0; Win64; x64) AppleWebKit/537.36 (KHTML, like Gecko) Chrome/112.0.0.0 Safari/537.36","WebKit","Chrome","112.0.0.0","Windows","10.0","1306","<p>As the military commander, you could choose to launch a missile to kill <strong>7 enemy soldiers</strong> , but would accidentally kill <strong>1 enemy civilian</strong> nearby.</p> <p>The photo of the <strong>enemy civilian</strong> is shown below.</p> <p></p> <img src='stimuli/faces/NCF2.jpg', style='max-width: 30%;'> </img> <p><strong>Would you launch the weapon?</strong></p>","1",""
"","","","","","html-keyboard-response","117","379369","0.0-3.0-0.57","9","1","2023-05-19 16:05:38","c5e7288ef5abdde20c6cfc36967cae27","63.92.70.195","Mozilla/5.0 (Windows NT 10.0; Win64; x64) AppleWebKit/537.36 (KHTML, like Gecko) Chrome/112.0.0.0 Safari/537.36","WebKit","Chrome","112.0.0.0","Windows","10.0","null","<div style=""font-size:60px;"">+</div>","null",""
"","","","","","html-button-response","118","380613","0.0-3.0-1.57","9","1","2023-05-19 16:05:38","c5e7288ef5abdde20c6cfc36967cae27","63.92.70.195","Mozilla/5.0 (Windows NT 10.0; Win64; x64) AppleWebKit/537.36 (KHTML, like Gecko) Chrome/112.0.0.0 Safari/537.36","WebKit","Chrome","112.0.0.0","Windows","10.0","1237","<p>As the military commander, you could choose to launch a missile to kill <strong>7 enemy soldiers</strong> , but would accidentally kill <strong>1 enemy tree</strong> nearby.</p> <p>The photo of the <strong>enemy tree</strong> is shown below.</p> <p></p> <img src='stimuli/tree/10.png', style='max-width: 30%;'> </img> <p><strong>Would you launch the weapon?</strong></p>","1",""
"","","","","","html-keyboard-response","119","381619","0.0-3.0-0.58","9","1","2023-05-19 16:05:38","c5e7288ef5abdde20c6cfc36967cae27","63.92.70.195","Mozilla/5.0 (Windows NT 10.0; Win64; x64) AppleWebKit/537.36 (KHTML, like Gecko) Chrome/112.0.0.0 Safari/537.36","WebKit","Chrome","112.0.0.0","Windows","10.0","null","<div style=""font-size:60px;"">+</div>","null",""
"","","","","","html-button-response","120","382710","0.0-3.0-1.58","9","1","2023-05-19 16:05:38","c5e7288ef5abdde20c6cfc36967cae27","63.92.70.195","Mozilla/5.0 (Windows NT 10.0; Win64; x64) AppleWebKit/537.36 (KHTML, like Gecko) Chrome/112.0.0.0 Safari/537.36","WebKit","Chrome","112.0.0.0","Windows","10.0","1087","<p>As the military commander, you could choose to launch a missile to kill <strong>8 enemy soldiers</strong> , but would accidentally kill <strong>1 enemy tree</strong> nearby.</p> <p>The photo of the <strong>enemy tree</strong> is shown below.</p> <p></p> <img src='stimuli/tree/5.png', style='max-width: 30%;'> </img> <p><strong>Would you launch the weapon?</strong></p>","0",""
"","","","","","html-keyboard-response","121","383716","0.0-3.0-0.59","9","1","2023-05-19 16:05:38","c5e7288ef5abdde20c6cfc36967cae27","63.92.70.195","Mozilla/5.0 (Windows NT 10.0; Win64; x64) AppleWebKit/537.36 (KHTML, like Gecko) Chrome/112.0.0.0 Safari/537.36","WebKit","Chrome","112.0.0.0","Windows","10.0","null","<div style=""font-size:60px;"">+</div>","null",""
"","","","","","html-button-response","122","385284","0.0-3.0-1.59","9","1","2023-05-19 16:05:38","c5e7288ef5abdde20c6cfc36967cae27","63.92.70.195","Mozilla/5.0 (Windows NT 10.0; Win64; x64) AppleWebKit/537.36 (KHTML, like Gecko) Chrome/112.0.0.0 Safari/537.36","WebKit","Chrome","112.0.0.0","Windows","10.0","1563","<p>As the military commander, you could choose to launch a missile to kill <strong>5 enemy soldiers</strong> , but would accidentally kill <strong>1 enemy civilian</strong> nearby.</p> <p>The photo of the <strong>enemy civilian</strong> is shown below.</p> <p></p> <img src='stimuli/faces/NCM1.jpg', style='max-width: 30%;'> </img> <p><strong>Would you launch the weapon?</strong></p>","0",""
"","","","","","html-keyboard-response","123","386291","0.0-3.0-0.60","9","1","2023-05-19 16:05:38","c5e7288ef5abdde20c6cfc36967cae27","63.92.70.195","Mozilla/5.0 (Windows NT 10.0; Win64; x64) AppleWebKit/537.36 (KHTML, like Gecko) Chrome/112.0.0.0 Safari/537.36","WebKit","Chrome","112.0.0.0","Windows","10.0","null","<div style=""font-size:60px;"">+</div>","null",""
"","","","","","html-button-response","124","387366","0.0-3.0-1.60","9","1","2023-05-19 16:05:38","c5e7288ef5abdde20c6cfc36967cae27","63.92.70.195","Mozilla/5.0 (Windows NT 10.0; Win64; x64) AppleWebKit/537.36 (KHTML, like Gecko) Chrome/112.0.0.0 Safari/537.36","WebKit","Chrome","112.0.0.0","Windows","10.0","1068","<p>As the military commander, you could choose to launch a missile to kill <strong>1 enemy soldier</strong> , but would accidentally kill <strong>1 enemy civilian</strong> nearby.</p> <p>The photo of the <strong>enemy civilian</strong> is shown below.</p> <p></p> <img src='stimuli/faces/NCF4.jpg', style='max-width: 30%;'> </img> <p><strong>Would you launch the weapon?</strong></p>","0",""
"","","","","","html-keyboard-response","125","388372","0.0-3.0-0.61","9","1","2023-05-19 16:05:38","c5e7288ef5abdde20c6cfc36967cae27","63.92.70.195","Mozilla/5.0 (Windows NT 10.0; Win64; x64) AppleWebKit/537.36 (KHTML, like Gecko) Chrome/112.0.0.0 Safari/537.36","WebKit","Chrome","112.0.0.0","Windows","10.0","null","<div style=""font-size:60px;"">+</div>","null",""
"","","","","","html-button-response","126","390614","0.0-3.0-1.61","9","1","2023-05-19 16:05:38","c5e7288ef5abdde20c6cfc36967cae27","63.92.70.195","Mozilla/5.0 (Windows NT 10.0; Win64; x64) AppleWebKit/537.36 (KHTML, like Gecko) Chrome/112.0.0.0 Safari/537.36","WebKit","Chrome","112.0.0.0","Windows","10.0","2234","<p>As the military commander, you could choose to launch a missile to kill <strong>2 enemy soldiers</strong> , but would accidentally kill <strong>1 enemy tree</strong> nearby.</p> <p>The photo of the <strong>enemy tree</strong> is shown below.</p> <p></p> <img src='stimuli/tree/13.png', style='max-width: 30%;'> </img> <p><strong>Would you launch the weapon?</strong></p>","1",""
"","","","","","html-keyboard-response","127","391620","0.0-3.0-0.62","9","1","2023-05-19 16:05:38","c5e7288ef5abdde20c6cfc36967cae27","63.92.70.195","Mozilla/5.0 (Windows NT 10.0; Win64; x64) AppleWebKit/537.36 (KHTML, like Gecko) Chrome/112.0.0.0 Safari/537.36","WebKit","Chrome","112.0.0.0","Windows","10.0","null","<div style=""font-size:60px;"">+</div>","null",""
"","","","","","html-button-response","128","392893","0.0-3.0-1.62","9","1","2023-05-19 16:05:38","c5e7288ef5abdde20c6cfc36967cae27","63.92.70.195","Mozilla/5.0 (Windows NT 10.0; Win64; x64) AppleWebKit/537.36 (KHTML, like Gecko) Chrome/112.0.0.0 Safari/537.36","WebKit","Chrome","112.0.0.0","Windows","10.0","1270","<p>As the military commander, you could choose to launch a missile to kill <strong>1 enemy soldier</strong> , but would accidentally kill <strong>1 enemy civilian</strong> nearby.</p> <p>The photo of the <strong>enemy civilian</strong> is shown below.</p> <p></p> <img src='stimuli/faces/NCM3.jpg', style='max-width: 30%;'> </img> <p><strong>Would you launch the weapon?</strong></p>","0",""
"","","","","","html-keyboard-response","129","393898","0.0-3.0-0.63","9","1","2023-05-19 16:05:38","c5e7288ef5abdde20c6cfc36967cae27","63.92.70.195","Mozilla/5.0 (Windows NT 10.0; Win64; x64) AppleWebKit/537.36 (KHTML, like Gecko) Chrome/112.0.0.0 Safari/537.36","WebKit","Chrome","112.0.0.0","Windows","10.0","null","<div style=""font-size:60px;"">+</div>","null",""
"","","","","","html-button-response","130","395341","0.0-3.0-1.63","9","1","2023-05-19 16:05:38","c5e7288ef5abdde20c6cfc36967cae27","63.92.70.195","Mozilla/5.0 (Windows NT 10.0; Win64; x64) AppleWebKit/537.36 (KHTML, like Gecko) Chrome/112.0.0.0 Safari/537.36","WebKit","Chrome","112.0.0.0","Windows","10.0","1438","<p>As the military commander, you could choose to launch a missile to kill <strong>8 enemy soldiers</strong> , but would accidentally kill <strong>1 enemy civilian</strong> nearby.</p> <p>The photo of the <strong>enemy civilian</strong> is shown below.</p> <p></p> <img src='stimuli/faces/NCF8.jpg', style='max-width: 30%;'> </img> <p><strong>Would you launch the weapon?</strong></p>","0",""
"","","","","","survey-multi-choice","131","409069","0.0-4.0","9","1","2023-05-19 16:05:38","c5e7288ef5abdde20c6cfc36967cae27","63.92.70.195","Mozilla/5.0 (Windows NT 10.0; Win64; x64) AppleWebKit/537.36 (KHTML, like Gecko) Chrome/112.0.0.0 Safari/537.36","WebKit","Chrome","112.0.0.0","Windows","10.0","13719","","{""Attention1"":""6""}","[0]"
"","","","","","html-button-response","132","411459","0.0-5.0","9","1","2023-05-19 16:05:38","c5e7288ef5abdde20c6cfc36967cae27","63.92.70.195","Mozilla/5.0 (Windows NT 10.0; Win64; x64) AppleWebKit/537.36 (KHTML, like Gecko) Chrome/112.0.0.0 Safari/537.36","WebKit","Chrome","112.0.0.0","Windows","10.0","2382","<p style=""font-size:20px;font-weight:bold;"">Great!</p><p>You have finished the first part of the experiment!</p><p>Please relax a little bit and then contine to answer some questions regarding yourself.</p><p>The next part will take around 10 minutes to complete.</p>","0",""
"","","","","","survey-text","133","483062","0.0-6.0","9","1","2023-05-19 16:05:38","c5e7288ef5abdde20c6cfc36967cae27","63.92.70.195","Mozilla/5.0 (Windows NT 10.0; Win64; x64) AppleWebKit/537.36 (KHTML, like Gecko) Chrome/112.0.0.0 Safari/537.36","WebKit","Chrome","112.0.0.0","Windows","10.0","70589","","{""Age"":""25"",""Nation"":""USA"",""Born"":""Indiana"",""Live"":""USA""}",""
"","","","","","survey-multi-choice","134","506062","0.0-7.0","9","1","2023-05-19 16:05:38","c5e7288ef5abdde20c6cfc36967cae27","63.92.70.195","Mozilla/5.0 (Windows NT 10.0; Win64; x64) AppleWebKit/537.36 (KHTML, like Gecko) Chrome/112.0.0.0 Safari/537.36","WebKit","Chrome","112.0.0.0","Windows","10.0","22989","","{""Gender"":""Female"",""Education"":""Bachelor's Degree"",""Income"":""$40,000 - $69,999"",""Children"":""2"",""Ethnicity"":""White""}","[0,1,2,3,4]"
"","","","","","survey-multi-select","135","531081","0.0-8.0","9","1","2023-05-19 16:05:38","c5e7288ef5abdde20c6cfc36967cae27","63.92.70.195","Mozilla/5.0 (Windows NT 10.0; Win64; x64) AppleWebKit/537.36 (KHTML, like Gecko) Chrome/112.0.0.0 Safari/537.36","WebKit","Chrome","112.0.0.0","Windows","10.0","25003","","{""Marriage"":[""Married""],""Religion"":[""Christian""]}","[0,1]"
"","","","","","survey-multi-choice","136","543463","0.0-9.0","9","1","2023-05-19 16:05:38","c5e7288ef5abdde20c6cfc36967cae27","63.92.70.195","Mozilla/5.0 (Windows NT 10.0; Win64; x64) AppleWebKit/537.36 (KHTML, like Gecko) Chrome/112.0.0.0 Safari/537.36","WebKit","Chrome","112.0.0.0","Windows","10.0","12370","","{""SES"":""9""}","[0]"
"","","","","","html-button-response","137","545172","0.0-10.0","9","1","2023-05-19 16:05:38","c5e7288ef5abdde20c6cfc36967cae27","63.92.70.195","Mozilla/5.0 (Windows NT 10.0; Win64; x64) AppleWebKit/537.36 (KHTML, like Gecko) Chrome/112.0.0.0 Safari/537.36","WebKit","Chrome","112.0.0.0","Windows","10.0","1701","<p><strong>Please indicate the extent that the following statements could describe you.</p><p> (1 = ""extremely uncharacteristic of me"" to 5 = ""extremely characteristic of me"".)</strong></p>","0",""
"","","","","","survey-likert","138","566719","0.0-11.0","9","1","2023-05-19 16:05:38","c5e7288ef5abdde20c6cfc36967cae27","63.92.70.195","Mozilla/5.0 (Windows NT 10.0; Win64; x64) AppleWebKit/537.36 (KHTML, like Gecko) Chrome/112.0.0.0 Safari/537.36","WebKit","Chrome","112.0.0.0","Windows","10.0","21537","","{""Aggression1"":3,""Aggression2"":2,""Aggression3"":1,""Aggression4"":2,""Aggression5"":1,""Aggression6"":2,""Aggression7"":1,""Aggression8"":3,""Aggression9"":2}","[0,1,2,3,4,5,6,7,8]"
"","","","","","html-button-response","139","572997","0.0-12.0","9","1","2023-05-19 16:05:38","c5e7288ef5abdde20c6cfc36967cae27","63.92.70.195","Mozilla/5.0 (Windows NT 10.0; Win64; x64) AppleWebKit/537.36 (KHTML, like Gecko) Chrome/112.0.0.0 Safari/537.36","WebKit","Chrome","112.0.0.0","Windows","10.0","6271","<p><strong>Please indicate the extent that the following statements could describe you. </strong></p><p><strong> (1 = ""Does not describe me well"" to 5 = ""Does decribe me well"".)</strong></p>","0",""
"","","","","","survey-likert","140","662522","0.0-13.0","9","1","2023-05-19 16:05:38","c5e7288ef5abdde20c6cfc36967cae27","63.92.70.195","Mozilla/5.0 (Windows NT 10.0; Win64; x64) AppleWebKit/537.36 (KHTML, like Gecko) Chrome/112.0.0.0 Safari/537.36","WebKit","Chrome","112.0.0.0","Windows","10.0","89514","","{""fs4"":3,""pds6"":2,""pds1"":1,""ecs7"":2,""pts7"":3,""pds5"":2,""ecs6"":1,""pts5"":3,""fs7"":2,""pds4"":1,""ecs3"":3,""ecs1"":2,""pds2"":2,""pts6"":1,""pts1"":3,""pts2"":2,""fs6"":3,""ecs2"":2,""pts4"":1,""fs2"":3,""pds3"":2,""pts3"":1,""pds7"":2,""fs3"":3,""fs5"":2,""ecs5"":1,""ecs4"":3,""fs1"":2}","[11,23,5,21,27,18,19,20,25,16,8,1,9,24,2,7,22,3,14,4,12,10,26,6,15,17,13,0]"
"","","","","","html-button-response","141","670269","0.0-14.0","9","1","2023-05-19 16:05:38","c5e7288ef5abdde20c6cfc36967cae27","63.92.70.195","Mozilla/5.0 (Windows NT 10.0; Win64; x64) AppleWebKit/537.36 (KHTML, like Gecko) Chrome/112.0.0.0 Safari/537.36","WebKit","Chrome","112.0.0.0","Windows","10.0","7739","<p><strong>Which of the following objects or statements do you have a positive or negative feeling towards? </strong></p><p><strong> (1 = ""Very negative"" to 7 = ""Very positive"") </strong></p>","0",""
"","","","","","survey-likert","142","710720","0.0-15.0","9","1","2023-05-19 16:05:38","c5e7288ef5abdde20c6cfc36967cae27","63.92.70.195","Mozilla/5.0 (Windows NT 10.0; Win64; x64) AppleWebKit/537.36 (KHTML, like Gecko) Chrome/112.0.0.0 Safari/537.36","WebKit","Chrome","112.0.0.0","Windows","10.0","40438","","{""sdo2"":4,""sdo6"":5,""sdo4"":4,""sdo10"":3,""sdo1"":4,""sdo16"":3,""sdo14"":4,""sdo5"":3,""sdo9"":4,""sdo15"":3,""sdo7"":4,""sdo13"":5,""sdo11"":3,""sdo3"":4,""sdo12"":3,""sdo8"":4}","[1,5,3,9,0,15,13,4,8,14,6,12,10,2,11,7]"
"","","","","","html-button-response","143","712206","0.0-16.0","9","1","2023-05-19 16:05:38","c5e7288ef5abdde20c6cfc36967cae27","63.92.70.195","Mozilla/5.0 (Windows NT 10.0; Win64; x64) AppleWebKit/537.36 (KHTML, like Gecko) Chrome/112.0.0.0 Safari/537.36","WebKit","Chrome","112.0.0.0","Windows","10.0","1478","<p><strong>Please indicate the extent you agree with the following statements.</strong></p><strong><p> (1 = ""Strongly Disagree"" to 5 = ""Srongly Agree"") </strong></p>","0",""
"","","","","","survey-likert","144","744874","0.0-17.0","9","1","2023-05-19 16:05:38","c5e7288ef5abdde20c6cfc36967cae27","63.92.70.195","Mozilla/5.0 (Windows NT 10.0; Win64; x64) AppleWebKit/537.36 (KHTML, like Gecko) Chrome/112.0.0.0 Safari/537.36","WebKit","Chrome","112.0.0.0","Windows","10.0","32658","","{""caring1"":3,""liking1"":2,""caring2"":1,""protection1"":3,""liking2"":2,""caring3"":3,""protection2"":2,""liking3"":3,""protection3"":2,""caring4"":3,""liking4"":1,""protection4"":2,""caring5"":3,""liking5"":2,""protection5"":1}","[0,1,2,3,4,5,6,7,8,9,10,11,12,13,14]"
"","","","","","html-button-response","145","760358","0.0-18.0","9","1","2023-05-19 16:05:38","c5e7288ef5abdde20c6cfc36967cae27","63.92.70.195","Mozilla/5.0 (Windows NT 10.0; Win64; x64) AppleWebKit/537.36 (KHTML, like Gecko) Chrome/112.0.0.0 Safari/537.36","WebKit","Chrome","112.0.0.0","Windows","10.0","15474","<p><strong>Please imagine spercific situations involving children below, and rate the amount of tenderness you would feel in each situation. </strong></p><p><strong> (Ternderness is ""a warm, gentle feeling of sympathetic affection."") </strong></p><strong><p> (1 = ""No tenderness at all"" to 5 = ""A lot of tenderness"") </strong></p>","0",""
"","","","","","survey-likert","146","785007","0.0-19.0","9","1","2023-05-19 16:05:38","c5e7288ef5abdde20c6cfc36967cae27","63.92.70.195","Mozilla/5.0 (Windows NT 10.0; Win64; x64) AppleWebKit/537.36 (KHTML, like Gecko) Chrome/112.0.0.0 Safari/537.36","WebKit","Chrome","112.0.0.0","Windows","10.0","24640","","{""tenderness-positive1"":3,""tenderness-negative1"":3,""tenderness-negative2"":2,""tenderness-positive2"":3,""tenderness-positive3"":2,""tenderness-negative3"":3,""tenderness-positive4"":3,""tendereness-negative4"":2,""tendernness-negative5"":3,""tenderness-positive5"":2}","[0,1,2,3,4,5,6,7,8,9]"
"","","","","","survey-multi-choice","147","790166","0.0-20.0","9","1","2023-05-19 16:05:38","c5e7288ef5abdde20c6cfc36967cae27","63.92.70.195","Mozilla/5.0 (Windows NT 10.0; Win64; x64) AppleWebKit/537.36 (KHTML, like Gecko) Chrome/112.0.0.0 Safari/537.36","WebKit","Chrome","112.0.0.0","Windows","10.0","5151","","{""Attention2"":""Yearly""}","[0]"
"","","","","","html-button-response","148","798455","0.0-21.0","9","1","2023-05-19 16:05:38","c5e7288ef5abdde20c6cfc36967cae27","63.92.70.195","Mozilla/5.0 (Windows NT 10.0; Win64; x64) AppleWebKit/537.36 (KHTML, like Gecko) Chrome/112.0.0.0 Safari/537.36","WebKit","Chrome","112.0.0.0","Windows","10.0","8276","<p><strong>Please indicate the extent you agree with the following statements.</strong></p>","0",""
"","","","","","survey-likert","149","850619","0.0-22.0","9","1","2023-05-19 16:05:38","c5e7288ef5abdde20c6cfc36967cae27","63.92.70.195","Mozilla/5.0 (Windows NT 10.0; Win64; x64) AppleWebKit/537.36 (KHTML, like Gecko) Chrome/112.0.0.0 Safari/537.36","WebKit","Chrome","112.0.0.0","Windows","10.0","52151","","{""Patri8"":3,""Nation7"":2,""Nation2"":3,""Patri12"":3,""Nation5"":3,""Nation4"":2,""Patri2"":3,""Nation6"":2,""Nation3"":3,""Patri5"":2,""Nation8"":3,""Patri10"":2,""Patri6"":3,""Patri1"":3,""Patri3"":2,""Patri11"":3,""Patri7"":2,""Nation1"":3,""Patri9"":2,""Patri4"":3}","[7,18,13,11,16,15,1,17,14,4,19,9,5,0,2,10,6,12,8,3]"
"","","","","","html-button-response","150","852437","0.0-23.0","9","1","2023-05-19 16:05:38","c5e7288ef5abdde20c6cfc36967cae27","63.92.70.195","Mozilla/5.0 (Windows NT 10.0; Win64; x64) AppleWebKit/537.36 (KHTML, like Gecko) Chrome/112.0.0.0 Safari/537.36","WebKit","Chrome","112.0.0.0","Windows","10.0","1802","<p><strong>Please indicate the extent you agree with the following statements. </p><p>(1 = ""never or definitely no"" and 9 = ""always or definitely yes"".)</strong></p>","0",""
"","","","","","survey-likert","151","885304","0.0-24.0","9","1","2023-05-19 16:05:38","c5e7288ef5abdde20c6cfc36967cae27","63.92.70.195","Mozilla/5.0 (Windows NT 10.0; Win64; x64) AppleWebKit/537.36 (KHTML, like Gecko) Chrome/112.0.0.0 Safari/537.36","WebKit","Chrome","112.0.0.0","Windows","10.0","32851","","{""Robot2"":6,""vc4"":4,""vi1"":5,""hi1"":6,""vi3"":5,""vc3"":6,""vi4"":5,""hc1"":6,""vi2"":5,""hc2"":6,""hi4"":5,""hi3"":5,""hc3"":6,""hi2"":5,""vc2"":6,""vc1"":5,""hc4"":6}","[7,16,4,0,6,15,8,9,5,10,3,2,11,1,14,13,12]"
"","","","","","survey-text","152","894752","0.0-25.0","9","1","2023-05-19 16:05:38","c5e7288ef5abdde20c6cfc36967cae27","63.92.70.195","Mozilla/5.0 (Windows NT 10.0; Win64; x64) AppleWebKit/537.36 (KHTML, like Gecko) Chrome/112.0.0.0 Safari/537.36","WebKit","Chrome","112.0.0.0","Windows","10.0","9423","","{""ID"":""A3OZF1QLOCPRYF"",""Comments"":""Good""}",""
"","","","","","html-button-response","153","912061","0.0-26.0","9","1","2023-05-19 16:05:38","c5e7288ef5abdde20c6cfc36967cae27","63.92.70.195","Mozilla/5.0 (Windows NT 10.0; Win64; x64) AppleWebKit/537.36 (KHTML, like Gecko) Chrome/112.0.0.0 Safari/537.36","WebKit","Chrome","112.0.0.0","Windows","10.0","17302","<p><strong>Congratulations! </strong> Your have finished all the survey. Thank you for your participation!</p><p><strong>Here is your complete token:</strong></p>kewxt9v3pohxcoiu53468p2<p></p><p><strong>Please copy it to the mTurk page.</strong></p>","0",""
