"success","timeout","failed_images","failed_audio","failed_video","trial_type","trial_index","time_elapsed","internal_node_id","run_id","condition","recorded_at","source_code_version","ip","user_agent","device","browser","browser_version","platform","platform_version","rt","stimulus","response","question_order"
"true","false","[]","[]","[]","preload","0","403","0.0-0.0","94","1","2023-05-30 04:36:10","c5e7288ef5abdde20c6cfc36967cae27","108.196.136.188","Mozilla/5.0 (Windows NT 10.0; Win64; x64; rv:109.0) Gecko/20100101 Firefox/113.0","","Firefox","113.0","Windows","10.0","","","",""
"true","","","","","fullscreen","1","3992","0.0-1.0","94","1","2023-05-30 04:36:10","c5e7288ef5abdde20c6cfc36967cae27","108.196.136.188","Mozilla/5.0 (Windows NT 10.0; Win64; x64; rv:109.0) Gecko/20100101 Firefox/113.0","","Firefox","113.0","Windows","10.0","","","",""
"","","","","","html-button-response","2","12222","0.0-2.0","94","1","2023-05-30 04:36:10","c5e7288ef5abdde20c6cfc36967cae27","108.196.136.188","Mozilla/5.0 (Windows NT 10.0; Win64; x64; rv:109.0) Gecko/20100101 Firefox/113.0","","Firefox","113.0","Windows","10.0","8229","<p ><strong>Welcome to the experiment!</strong></p><p ><strong>In the first task, please imagine:</strong></p><p>Your country is involved in a military conflict with another country.</p><p>You are the commander of your army and must make decisions in the conflict.</p><p>Specifically, as the military commander, you must decide whether to launch a missile to strike enemy.</p><p>You will face a series of scenarios. Please read each scenario carefully and make a decision.</p><p>The task will take around 10 minutes to complete.</p><p><strong>Please pay your attention during the experiment.</strong></p>","0",""
"","","","","","html-keyboard-response","3","13238","0.0-3.0-0.0","94","1","2023-05-30 04:36:10","c5e7288ef5abdde20c6cfc36967cae27","108.196.136.188","Mozilla/5.0 (Windows NT 10.0; Win64; x64; rv:109.0) Gecko/20100101 Firefox/113.0","","Firefox","113.0","Windows","10.0","null","<div style=""font-size:60px;"">+</div>","null",""
"","","","","","html-button-response","4","19465","0.0-3.0-1.0","94","1","2023-05-30 04:36:10","c5e7288ef5abdde20c6cfc36967cae27","108.196.136.188","Mozilla/5.0 (Windows NT 10.0; Win64; x64; rv:109.0) Gecko/20100101 Firefox/113.0","","Firefox","113.0","Windows","10.0","6225","<p>As the military commander, you could choose to launch a missile to kill <strong>2 enemy soldiers</strong> , but would accidentally kill <strong>1 enemy tree</strong> nearby.</p> <p>The photo of the <strong>enemy tree</strong> is shown below.</p> <p></p> <img src='stimuli/tree/5.png', style='max-width: 30%;'> </img> <p><strong>Would you launch the weapon?</strong></p>","0",""
"","","","","","html-keyboard-response","5","20476","0.0-3.0-0.1","94","1","2023-05-30 04:36:10","c5e7288ef5abdde20c6cfc36967cae27","108.196.136.188","Mozilla/5.0 (Windows NT 10.0; Win64; x64; rv:109.0) Gecko/20100101 Firefox/113.0","","Firefox","113.0","Windows","10.0","null","<div style=""font-size:60px;"">+</div>","null",""
"","","","","","html-button-response","6","30888","0.0-3.0-1.1","94","1","2023-05-30 04:36:10","c5e7288ef5abdde20c6cfc36967cae27","108.196.136.188","Mozilla/5.0 (Windows NT 10.0; Win64; x64; rv:109.0) Gecko/20100101 Firefox/113.0","","Firefox","113.0","Windows","10.0","10410","<p>As the military commander, you could choose to launch a missile to kill <strong>5 enemy soldiers</strong> , but would accidentally kill <strong>1 enemy civilian</strong> nearby.</p> <p>The photo of the <strong>enemy civilian</strong> is shown below.</p> <p></p> <img src='stimuli/faces/NCF3.jpg', style='max-width: 30%;'> </img> <p><strong>Would you launch the weapon?</strong></p>","1",""
"","","","","","html-keyboard-response","7","31897","0.0-3.0-0.2","94","1","2023-05-30 04:36:10","c5e7288ef5abdde20c6cfc36967cae27","108.196.136.188","Mozilla/5.0 (Windows NT 10.0; Win64; x64; rv:109.0) Gecko/20100101 Firefox/113.0","","Firefox","113.0","Windows","10.0","null","<div style=""font-size:60px;"">+</div>","null",""
"","","","","","html-button-response","8","38811","0.0-3.0-1.2","94","1","2023-05-30 04:36:10","c5e7288ef5abdde20c6cfc36967cae27","108.196.136.188","Mozilla/5.0 (Windows NT 10.0; Win64; x64; rv:109.0) Gecko/20100101 Firefox/113.0","","Firefox","113.0","Windows","10.0","6913","<p>As the military commander, you could choose to launch a missile to kill <strong>5 enemy soldiers</strong> , but would accidentally kill <strong>1 enemy tree</strong> nearby.</p> <p>The photo of the <strong>enemy tree</strong> is shown below.</p> <p></p> <img src='stimuli/tree/14.png', style='max-width: 30%;'> </img> <p><strong>Would you launch the weapon?</strong></p>","0",""
"","","","","","html-keyboard-response","9","39818","0.0-3.0-0.3","94","1","2023-05-30 04:36:10","c5e7288ef5abdde20c6cfc36967cae27","108.196.136.188","Mozilla/5.0 (Windows NT 10.0; Win64; x64; rv:109.0) Gecko/20100101 Firefox/113.0","","Firefox","113.0","Windows","10.0","null","<div style=""font-size:60px;"">+</div>","null",""
"","","","","","html-button-response","10","45745","0.0-3.0-1.3","94","1","2023-05-30 04:36:10","c5e7288ef5abdde20c6cfc36967cae27","108.196.136.188","Mozilla/5.0 (Windows NT 10.0; Win64; x64; rv:109.0) Gecko/20100101 Firefox/113.0","","Firefox","113.0","Windows","10.0","5925","<p>As the military commander, you could choose to launch a missile to kill <strong>10 enemy soldiers</strong> , but would accidentally kill <strong>1 enemy civilian</strong> nearby.</p> <p>The photo of the <strong>enemy civilian</strong> is shown below.</p> <p></p> <img src='stimuli/faces/NCM3.jpg', style='max-width: 30%;'> </img> <p><strong>Would you launch the weapon?</strong></p>","0",""
"","","","","","html-keyboard-response","11","46750","0.0-3.0-0.4","94","1","2023-05-30 04:36:10","c5e7288ef5abdde20c6cfc36967cae27","108.196.136.188","Mozilla/5.0 (Windows NT 10.0; Win64; x64; rv:109.0) Gecko/20100101 Firefox/113.0","","Firefox","113.0","Windows","10.0","null","<div style=""font-size:60px;"">+</div>","null",""
"","","","","","html-button-response","12","48986","0.0-3.0-1.4","94","1","2023-05-30 04:36:10","c5e7288ef5abdde20c6cfc36967cae27","108.196.136.188","Mozilla/5.0 (Windows NT 10.0; Win64; x64; rv:109.0) Gecko/20100101 Firefox/113.0","","Firefox","113.0","Windows","10.0","2235","<p>As the military commander, you could choose to launch a missile to kill <strong>2 enemy soldiers</strong> , but would accidentally kill <strong>1 enemy civilian</strong> nearby.</p> <p>The photo of the <strong>enemy civilian</strong> is shown below.</p> <p></p> <img src='stimuli/faces/NCF8.jpg', style='max-width: 30%;'> </img> <p><strong>Would you launch the weapon?</strong></p>","1",""
"","","","","","html-keyboard-response","13","49992","0.0-3.0-0.5","94","1","2023-05-30 04:36:10","c5e7288ef5abdde20c6cfc36967cae27","108.196.136.188","Mozilla/5.0 (Windows NT 10.0; Win64; x64; rv:109.0) Gecko/20100101 Firefox/113.0","","Firefox","113.0","Windows","10.0","null","<div style=""font-size:60px;"">+</div>","null",""
"","","","","","html-button-response","14","52536","0.0-3.0-1.5","94","1","2023-05-30 04:36:10","c5e7288ef5abdde20c6cfc36967cae27","108.196.136.188","Mozilla/5.0 (Windows NT 10.0; Win64; x64; rv:109.0) Gecko/20100101 Firefox/113.0","","Firefox","113.0","Windows","10.0","2543","<p>As the military commander, you could choose to launch a missile to kill <strong>3 enemy soldiers</strong> , but would accidentally kill <strong>1 enemy civilian</strong> nearby.</p> <p>The photo of the <strong>enemy civilian</strong> is shown below.</p> <p></p> <img src='stimuli/faces/NCF4.jpg', style='max-width: 30%;'> </img> <p><strong>Would you launch the weapon?</strong></p>","1",""
"","","","","","html-keyboard-response","15","53543","0.0-3.0-0.6","94","1","2023-05-30 04:36:10","c5e7288ef5abdde20c6cfc36967cae27","108.196.136.188","Mozilla/5.0 (Windows NT 10.0; Win64; x64; rv:109.0) Gecko/20100101 Firefox/113.0","","Firefox","113.0","Windows","10.0","null","<div style=""font-size:60px;"">+</div>","null",""
"","","","","","html-button-response","16","55815","0.0-3.0-1.6","94","1","2023-05-30 04:36:10","c5e7288ef5abdde20c6cfc36967cae27","108.196.136.188","Mozilla/5.0 (Windows NT 10.0; Win64; x64; rv:109.0) Gecko/20100101 Firefox/113.0","","Firefox","113.0","Windows","10.0","2272","<p>As the military commander, you could choose to launch a missile to kill <strong>1 enemy soldier</strong> , but would accidentally kill <strong>1 enemy tree</strong> nearby.</p> <p>The photo of the <strong>enemy tree</strong> is shown below.</p> <p></p> <img src='stimuli/tree/8.png', style='max-width: 30%;'> </img> <p><strong>Would you launch the weapon?</strong></p>","0",""
"","","","","","html-keyboard-response","17","56829","0.0-3.0-0.7","94","1","2023-05-30 04:36:10","c5e7288ef5abdde20c6cfc36967cae27","108.196.136.188","Mozilla/5.0 (Windows NT 10.0; Win64; x64; rv:109.0) Gecko/20100101 Firefox/113.0","","Firefox","113.0","Windows","10.0","null","<div style=""font-size:60px;"">+</div>","null",""
"","","","","","html-button-response","18","60499","0.0-3.0-1.7","94","1","2023-05-30 04:36:10","c5e7288ef5abdde20c6cfc36967cae27","108.196.136.188","Mozilla/5.0 (Windows NT 10.0; Win64; x64; rv:109.0) Gecko/20100101 Firefox/113.0","","Firefox","113.0","Windows","10.0","3669","<p>As the military commander, you could choose to launch a missile to kill <strong>3 enemy soldiers</strong> , but would accidentally kill <strong>1 enemy tree</strong> nearby.</p> <p>The photo of the <strong>enemy tree</strong> is shown below.</p> <p></p> <img src='stimuli/tree/11.png', style='max-width: 30%;'> </img> <p><strong>Would you launch the weapon?</strong></p>","0",""
"","","","","","html-keyboard-response","19","61514","0.0-3.0-0.8","94","1","2023-05-30 04:36:10","c5e7288ef5abdde20c6cfc36967cae27","108.196.136.188","Mozilla/5.0 (Windows NT 10.0; Win64; x64; rv:109.0) Gecko/20100101 Firefox/113.0","","Firefox","113.0","Windows","10.0","null","<div style=""font-size:60px;"">+</div>","null",""
"","","","","","html-button-response","20","64684","0.0-3.0-1.8","94","1","2023-05-30 04:36:10","c5e7288ef5abdde20c6cfc36967cae27","108.196.136.188","Mozilla/5.0 (Windows NT 10.0; Win64; x64; rv:109.0) Gecko/20100101 Firefox/113.0","","Firefox","113.0","Windows","10.0","3169","<p>As the military commander, you could choose to launch a missile to kill <strong>8 enemy soldiers</strong> , but would accidentally kill <strong>1 enemy tree</strong> nearby.</p> <p>The photo of the <strong>enemy tree</strong> is shown below.</p> <p></p> <img src='stimuli/tree/2.png', style='max-width: 30%;'> </img> <p><strong>Would you launch the weapon?</strong></p>","0",""
"","","","","","html-keyboard-response","21","65685","0.0-3.0-0.9","94","1","2023-05-30 04:36:10","c5e7288ef5abdde20c6cfc36967cae27","108.196.136.188","Mozilla/5.0 (Windows NT 10.0; Win64; x64; rv:109.0) Gecko/20100101 Firefox/113.0","","Firefox","113.0","Windows","10.0","null","<div style=""font-size:60px;"">+</div>","null",""
"","","","","","html-button-response","22","68287","0.0-3.0-1.9","94","1","2023-05-30 04:36:10","c5e7288ef5abdde20c6cfc36967cae27","108.196.136.188","Mozilla/5.0 (Windows NT 10.0; Win64; x64; rv:109.0) Gecko/20100101 Firefox/113.0","","Firefox","113.0","Windows","10.0","2601","<p>As the military commander, you could choose to launch a missile to kill <strong>7 enemy soldiers</strong> , but would accidentally kill <strong>1 enemy civilian</strong> nearby.</p> <p>The photo of the <strong>enemy civilian</strong> is shown below.</p> <p></p> <img src='stimuli/faces/NCF2.jpg', style='max-width: 30%;'> </img> <p><strong>Would you launch the weapon?</strong></p>","1",""
"","","","","","html-keyboard-response","23","69291","0.0-3.0-0.10","94","1","2023-05-30 04:36:10","c5e7288ef5abdde20c6cfc36967cae27","108.196.136.188","Mozilla/5.0 (Windows NT 10.0; Win64; x64; rv:109.0) Gecko/20100101 Firefox/113.0","","Firefox","113.0","Windows","10.0","null","<div style=""font-size:60px;"">+</div>","null",""
"","","","","","html-button-response","24","71026","0.0-3.0-1.10","94","1","2023-05-30 04:36:10","c5e7288ef5abdde20c6cfc36967cae27","108.196.136.188","Mozilla/5.0 (Windows NT 10.0; Win64; x64; rv:109.0) Gecko/20100101 Firefox/113.0","","Firefox","113.0","Windows","10.0","1733","<p>As the military commander, you could choose to launch a missile to kill <strong>3 enemy soldiers</strong> , but would accidentally kill <strong>1 enemy tree</strong> nearby.</p> <p>The photo of the <strong>enemy tree</strong> is shown below.</p> <p></p> <img src='stimuli/tree/1.png', style='max-width: 30%;'> </img> <p><strong>Would you launch the weapon?</strong></p>","0",""
"","","","","","html-keyboard-response","25","72030","0.0-3.0-0.11","94","1","2023-05-30 04:36:10","c5e7288ef5abdde20c6cfc36967cae27","108.196.136.188","Mozilla/5.0 (Windows NT 10.0; Win64; x64; rv:109.0) Gecko/20100101 Firefox/113.0","","Firefox","113.0","Windows","10.0","null","<div style=""font-size:60px;"">+</div>","null",""
"","","","","","html-button-response","26","77045","0.0-3.0-1.11","94","1","2023-05-30 04:36:10","c5e7288ef5abdde20c6cfc36967cae27","108.196.136.188","Mozilla/5.0 (Windows NT 10.0; Win64; x64; rv:109.0) Gecko/20100101 Firefox/113.0","","Firefox","113.0","Windows","10.0","5014","<p>As the military commander, you could choose to launch a missile to kill <strong>7 enemy soldiers</strong> , but would accidentally kill <strong>1 enemy civilian</strong> nearby.</p> <p>The photo of the <strong>enemy civilian</strong> is shown below.</p> <p></p> <img src='stimuli/faces/NCM2.jpg', style='max-width: 30%;'> </img> <p><strong>Would you launch the weapon?</strong></p>","1",""
"","","","","","html-keyboard-response","27","78059","0.0-3.0-0.12","94","1","2023-05-30 04:36:10","c5e7288ef5abdde20c6cfc36967cae27","108.196.136.188","Mozilla/5.0 (Windows NT 10.0; Win64; x64; rv:109.0) Gecko/20100101 Firefox/113.0","","Firefox","113.0","Windows","10.0","null","<div style=""font-size:60px;"">+</div>","null",""
"","","","","","html-button-response","28","80610","0.0-3.0-1.12","94","1","2023-05-30 04:36:10","c5e7288ef5abdde20c6cfc36967cae27","108.196.136.188","Mozilla/5.0 (Windows NT 10.0; Win64; x64; rv:109.0) Gecko/20100101 Firefox/113.0","","Firefox","113.0","Windows","10.0","2548","<p>As the military commander, you could choose to launch a missile to kill <strong>5 enemy soldiers</strong> , but would accidentally kill <strong>1 enemy tree</strong> nearby.</p> <p>The photo of the <strong>enemy tree</strong> is shown below.</p> <p></p> <img src='stimuli/tree/7.png', style='max-width: 30%;'> </img> <p><strong>Would you launch the weapon?</strong></p>","0",""
"","","","","","html-keyboard-response","29","81611","0.0-3.0-0.13","94","1","2023-05-30 04:36:10","c5e7288ef5abdde20c6cfc36967cae27","108.196.136.188","Mozilla/5.0 (Windows NT 10.0; Win64; x64; rv:109.0) Gecko/20100101 Firefox/113.0","","Firefox","113.0","Windows","10.0","null","<div style=""font-size:60px;"">+</div>","null",""
"","","","","","html-button-response","30","83300","0.0-3.0-1.13","94","1","2023-05-30 04:36:10","c5e7288ef5abdde20c6cfc36967cae27","108.196.136.188","Mozilla/5.0 (Windows NT 10.0; Win64; x64; rv:109.0) Gecko/20100101 Firefox/113.0","","Firefox","113.0","Windows","10.0","1688","<p>As the military commander, you could choose to launch a missile to kill <strong>6 enemy soldiers</strong> , but would accidentally kill <strong>1 enemy tree</strong> nearby.</p> <p>The photo of the <strong>enemy tree</strong> is shown below.</p> <p></p> <img src='stimuli/tree/6.png', style='max-width: 30%;'> </img> <p><strong>Would you launch the weapon?</strong></p>","0",""
"","","","","","html-keyboard-response","31","84303","0.0-3.0-0.14","94","1","2023-05-30 04:36:10","c5e7288ef5abdde20c6cfc36967cae27","108.196.136.188","Mozilla/5.0 (Windows NT 10.0; Win64; x64; rv:109.0) Gecko/20100101 Firefox/113.0","","Firefox","113.0","Windows","10.0","null","<div style=""font-size:60px;"">+</div>","null",""
"","","","","","html-button-response","32","86628","0.0-3.0-1.14","94","1","2023-05-30 04:36:10","c5e7288ef5abdde20c6cfc36967cae27","108.196.136.188","Mozilla/5.0 (Windows NT 10.0; Win64; x64; rv:109.0) Gecko/20100101 Firefox/113.0","","Firefox","113.0","Windows","10.0","2325","<p>As the military commander, you could choose to launch a missile to kill <strong>3 enemy soldiers</strong> , but would accidentally kill <strong>1 enemy tree</strong> nearby.</p> <p>The photo of the <strong>enemy tree</strong> is shown below.</p> <p></p> <img src='stimuli/tree/10.png', style='max-width: 30%;'> </img> <p><strong>Would you launch the weapon?</strong></p>","0",""
"","","","","","html-keyboard-response","33","87630","0.0-3.0-0.15","94","1","2023-05-30 04:36:10","c5e7288ef5abdde20c6cfc36967cae27","108.196.136.188","Mozilla/5.0 (Windows NT 10.0; Win64; x64; rv:109.0) Gecko/20100101 Firefox/113.0","","Firefox","113.0","Windows","10.0","null","<div style=""font-size:60px;"">+</div>","null",""
"","","","","","html-button-response","34","92064","0.0-3.0-1.15","94","1","2023-05-30 04:36:10","c5e7288ef5abdde20c6cfc36967cae27","108.196.136.188","Mozilla/5.0 (Windows NT 10.0; Win64; x64; rv:109.0) Gecko/20100101 Firefox/113.0","","Firefox","113.0","Windows","10.0","4432","<p>As the military commander, you could choose to launch a missile to kill <strong>6 enemy soldiers</strong> , but would accidentally kill <strong>1 enemy civilian</strong> nearby.</p> <p>The photo of the <strong>enemy civilian</strong> is shown below.</p> <p></p> <img src='stimuli/faces/NCF7.jpg', style='max-width: 30%;'> </img> <p><strong>Would you launch the weapon?</strong></p>","1",""
"","","","","","html-keyboard-response","35","93071","0.0-3.0-0.16","94","1","2023-05-30 04:36:10","c5e7288ef5abdde20c6cfc36967cae27","108.196.136.188","Mozilla/5.0 (Windows NT 10.0; Win64; x64; rv:109.0) Gecko/20100101 Firefox/113.0","","Firefox","113.0","Windows","10.0","null","<div style=""font-size:60px;"">+</div>","null",""
"","","","","","html-button-response","36","96748","0.0-3.0-1.16","94","1","2023-05-30 04:36:10","c5e7288ef5abdde20c6cfc36967cae27","108.196.136.188","Mozilla/5.0 (Windows NT 10.0; Win64; x64; rv:109.0) Gecko/20100101 Firefox/113.0","","Firefox","113.0","Windows","10.0","3675","<p>As the military commander, you could choose to launch a missile to kill <strong>3 enemy soldiers</strong> , but would accidentally kill <strong>1 enemy civilian</strong> nearby.</p> <p>The photo of the <strong>enemy civilian</strong> is shown below.</p> <p></p> <img src='stimuli/faces/NCM3.jpg', style='max-width: 30%;'> </img> <p><strong>Would you launch the weapon?</strong></p>","1",""
"","","","","","html-keyboard-response","37","97754","0.0-3.0-0.17","94","1","2023-05-30 04:36:10","c5e7288ef5abdde20c6cfc36967cae27","108.196.136.188","Mozilla/5.0 (Windows NT 10.0; Win64; x64; rv:109.0) Gecko/20100101 Firefox/113.0","","Firefox","113.0","Windows","10.0","null","<div style=""font-size:60px;"">+</div>","null",""
"","","","","","html-button-response","38","99552","0.0-3.0-1.17","94","1","2023-05-30 04:36:10","c5e7288ef5abdde20c6cfc36967cae27","108.196.136.188","Mozilla/5.0 (Windows NT 10.0; Win64; x64; rv:109.0) Gecko/20100101 Firefox/113.0","","Firefox","113.0","Windows","10.0","1796","<p>As the military commander, you could choose to launch a missile to kill <strong>7 enemy soldiers</strong> , but would accidentally kill <strong>1 enemy civilian</strong> nearby.</p> <p>The photo of the <strong>enemy civilian</strong> is shown below.</p> <p></p> <img src='stimuli/faces/NCF4.jpg', style='max-width: 30%;'> </img> <p><strong>Would you launch the weapon?</strong></p>","1",""
"","","","","","html-keyboard-response","39","100557","0.0-3.0-0.18","94","1","2023-05-30 04:36:10","c5e7288ef5abdde20c6cfc36967cae27","108.196.136.188","Mozilla/5.0 (Windows NT 10.0; Win64; x64; rv:109.0) Gecko/20100101 Firefox/113.0","","Firefox","113.0","Windows","10.0","null","<div style=""font-size:60px;"">+</div>","null",""
"","","","","","html-button-response","40","102628","0.0-3.0-1.18","94","1","2023-05-30 04:36:10","c5e7288ef5abdde20c6cfc36967cae27","108.196.136.188","Mozilla/5.0 (Windows NT 10.0; Win64; x64; rv:109.0) Gecko/20100101 Firefox/113.0","","Firefox","113.0","Windows","10.0","2069","<p>As the military commander, you could choose to launch a missile to kill <strong>2 enemy soldiers</strong> , but would accidentally kill <strong>1 enemy civilian</strong> nearby.</p> <p>The photo of the <strong>enemy civilian</strong> is shown below.</p> <p></p> <img src='stimuli/faces/NCM8.jpg', style='max-width: 30%;'> </img> <p><strong>Would you launch the weapon?</strong></p>","1",""
"","","","","","html-keyboard-response","41","103632","0.0-3.0-0.19","94","1","2023-05-30 04:36:10","c5e7288ef5abdde20c6cfc36967cae27","108.196.136.188","Mozilla/5.0 (Windows NT 10.0; Win64; x64; rv:109.0) Gecko/20100101 Firefox/113.0","","Firefox","113.0","Windows","10.0","null","<div style=""font-size:60px;"">+</div>","null",""
"","","","","","html-button-response","42","105414","0.0-3.0-1.19","94","1","2023-05-30 04:36:10","c5e7288ef5abdde20c6cfc36967cae27","108.196.136.188","Mozilla/5.0 (Windows NT 10.0; Win64; x64; rv:109.0) Gecko/20100101 Firefox/113.0","","Firefox","113.0","Windows","10.0","1781","<p>As the military commander, you could choose to launch a missile to kill <strong>3 enemy soldiers</strong> , but would accidentally kill <strong>1 enemy civilian</strong> nearby.</p> <p>The photo of the <strong>enemy civilian</strong> is shown below.</p> <p></p> <img src='stimuli/faces/NCF1.jpg', style='max-width: 30%;'> </img> <p><strong>Would you launch the weapon?</strong></p>","1",""
"","","","","","html-keyboard-response","43","106428","0.0-3.0-0.20","94","1","2023-05-30 04:36:10","c5e7288ef5abdde20c6cfc36967cae27","108.196.136.188","Mozilla/5.0 (Windows NT 10.0; Win64; x64; rv:109.0) Gecko/20100101 Firefox/113.0","","Firefox","113.0","Windows","10.0","null","<div style=""font-size:60px;"">+</div>","null",""
"","","","","","html-button-response","44","109876","0.0-3.0-1.20","94","1","2023-05-30 04:36:10","c5e7288ef5abdde20c6cfc36967cae27","108.196.136.188","Mozilla/5.0 (Windows NT 10.0; Win64; x64; rv:109.0) Gecko/20100101 Firefox/113.0","","Firefox","113.0","Windows","10.0","3447","<p>As the military commander, you could choose to launch a missile to kill <strong>5 enemy soldiers</strong> , but would accidentally kill <strong>1 enemy civilian</strong> nearby.</p> <p>The photo of the <strong>enemy civilian</strong> is shown below.</p> <p></p> <img src='stimuli/faces/NCM7.jpg', style='max-width: 30%;'> </img> <p><strong>Would you launch the weapon?</strong></p>","1",""
"","","","","","html-keyboard-response","45","110891","0.0-3.0-0.21","94","1","2023-05-30 04:36:10","c5e7288ef5abdde20c6cfc36967cae27","108.196.136.188","Mozilla/5.0 (Windows NT 10.0; Win64; x64; rv:109.0) Gecko/20100101 Firefox/113.0","","Firefox","113.0","Windows","10.0","null","<div style=""font-size:60px;"">+</div>","null",""
"","","","","","html-button-response","46","113521","0.0-3.0-1.21","94","1","2023-05-30 04:36:10","c5e7288ef5abdde20c6cfc36967cae27","108.196.136.188","Mozilla/5.0 (Windows NT 10.0; Win64; x64; rv:109.0) Gecko/20100101 Firefox/113.0","","Firefox","113.0","Windows","10.0","2627","<p>As the military commander, you could choose to launch a missile to kill <strong>9 enemy soldiers</strong> , but would accidentally kill <strong>1 enemy civilian</strong> nearby.</p> <p>The photo of the <strong>enemy civilian</strong> is shown below.</p> <p></p> <img src='stimuli/faces/NCF6.jpg', style='max-width: 30%;'> </img> <p><strong>Would you launch the weapon?</strong></p>","0",""
"","","","","","html-keyboard-response","47","114526","0.0-3.0-0.22","94","1","2023-05-30 04:36:10","c5e7288ef5abdde20c6cfc36967cae27","108.196.136.188","Mozilla/5.0 (Windows NT 10.0; Win64; x64; rv:109.0) Gecko/20100101 Firefox/113.0","","Firefox","113.0","Windows","10.0","null","<div style=""font-size:60px;"">+</div>","null",""
"","","","","","html-button-response","48","118209","0.0-3.0-1.22","94","1","2023-05-30 04:36:10","c5e7288ef5abdde20c6cfc36967cae27","108.196.136.188","Mozilla/5.0 (Windows NT 10.0; Win64; x64; rv:109.0) Gecko/20100101 Firefox/113.0","","Firefox","113.0","Windows","10.0","3683","<p>As the military commander, you could choose to launch a missile to kill <strong>2 enemy soldiers</strong> , but would accidentally kill <strong>1 enemy tree</strong> nearby.</p> <p>The photo of the <strong>enemy tree</strong> is shown below.</p> <p></p> <img src='stimuli/tree/3.png', style='max-width: 30%;'> </img> <p><strong>Would you launch the weapon?</strong></p>","1",""
"","","","","","html-keyboard-response","49","119223","0.0-3.0-0.23","94","1","2023-05-30 04:36:10","c5e7288ef5abdde20c6cfc36967cae27","108.196.136.188","Mozilla/5.0 (Windows NT 10.0; Win64; x64; rv:109.0) Gecko/20100101 Firefox/113.0","","Firefox","113.0","Windows","10.0","null","<div style=""font-size:60px;"">+</div>","null",""
"","","","","","html-button-response","50","125310","0.0-3.0-1.23","94","1","2023-05-30 04:36:10","c5e7288ef5abdde20c6cfc36967cae27","108.196.136.188","Mozilla/5.0 (Windows NT 10.0; Win64; x64; rv:109.0) Gecko/20100101 Firefox/113.0","","Firefox","113.0","Windows","10.0","6085","<p>As the military commander, you could choose to launch a missile to kill <strong>4 enemy soldiers</strong> , but would accidentally kill <strong>1 enemy tree</strong> nearby.</p> <p>The photo of the <strong>enemy tree</strong> is shown below.</p> <p></p> <img src='stimuli/tree/2.png', style='max-width: 30%;'> </img> <p><strong>Would you launch the weapon?</strong></p>","0",""
"","","","","","html-keyboard-response","51","126311","0.0-3.0-0.24","94","1","2023-05-30 04:36:10","c5e7288ef5abdde20c6cfc36967cae27","108.196.136.188","Mozilla/5.0 (Windows NT 10.0; Win64; x64; rv:109.0) Gecko/20100101 Firefox/113.0","","Firefox","113.0","Windows","10.0","null","<div style=""font-size:60px;"">+</div>","null",""
"","","","","","html-button-response","52","128201","0.0-3.0-1.24","94","1","2023-05-30 04:36:10","c5e7288ef5abdde20c6cfc36967cae27","108.196.136.188","Mozilla/5.0 (Windows NT 10.0; Win64; x64; rv:109.0) Gecko/20100101 Firefox/113.0","","Firefox","113.0","Windows","10.0","1888","<p>As the military commander, you could choose to launch a missile to kill <strong>9 enemy soldiers</strong> , but would accidentally kill <strong>1 enemy civilian</strong> nearby.</p> <p>The photo of the <strong>enemy civilian</strong> is shown below.</p> <p></p> <img src='stimuli/faces/NCF1.jpg', style='max-width: 30%;'> </img> <p><strong>Would you launch the weapon?</strong></p>","1",""
"","","","","","html-keyboard-response","53","129205","0.0-3.0-0.25","94","1","2023-05-30 04:36:10","c5e7288ef5abdde20c6cfc36967cae27","108.196.136.188","Mozilla/5.0 (Windows NT 10.0; Win64; x64; rv:109.0) Gecko/20100101 Firefox/113.0","","Firefox","113.0","Windows","10.0","null","<div style=""font-size:60px;"">+</div>","null",""
"","","","","","html-button-response","54","131542","0.0-3.0-1.25","94","1","2023-05-30 04:36:10","c5e7288ef5abdde20c6cfc36967cae27","108.196.136.188","Mozilla/5.0 (Windows NT 10.0; Win64; x64; rv:109.0) Gecko/20100101 Firefox/113.0","","Firefox","113.0","Windows","10.0","2336","<p>As the military commander, you could choose to launch a missile to kill <strong>8 enemy soldiers</strong> , but would accidentally kill <strong>1 enemy tree</strong> nearby.</p> <p>The photo of the <strong>enemy tree</strong> is shown below.</p> <p></p> <img src='stimuli/tree/11.png', style='max-width: 30%;'> </img> <p><strong>Would you launch the weapon?</strong></p>","0",""
"","","","","","html-keyboard-response","55","132556","0.0-3.0-0.26","94","1","2023-05-30 04:36:10","c5e7288ef5abdde20c6cfc36967cae27","108.196.136.188","Mozilla/5.0 (Windows NT 10.0; Win64; x64; rv:109.0) Gecko/20100101 Firefox/113.0","","Firefox","113.0","Windows","10.0","null","<div style=""font-size:60px;"">+</div>","null",""
"","","","","","html-button-response","56","134901","0.0-3.0-1.26","94","1","2023-05-30 04:36:10","c5e7288ef5abdde20c6cfc36967cae27","108.196.136.188","Mozilla/5.0 (Windows NT 10.0; Win64; x64; rv:109.0) Gecko/20100101 Firefox/113.0","","Firefox","113.0","Windows","10.0","2342","<p>As the military commander, you could choose to launch a missile to kill <strong>9 enemy soldiers</strong> , but would accidentally kill <strong>1 enemy civilian</strong> nearby.</p> <p>The photo of the <strong>enemy civilian</strong> is shown below.</p> <p></p> <img src='stimuli/faces/NCF3.jpg', style='max-width: 30%;'> </img> <p><strong>Would you launch the weapon?</strong></p>","0",""
"","","","","","html-keyboard-response","57","135903","0.0-3.0-0.27","94","1","2023-05-30 04:36:10","c5e7288ef5abdde20c6cfc36967cae27","108.196.136.188","Mozilla/5.0 (Windows NT 10.0; Win64; x64; rv:109.0) Gecko/20100101 Firefox/113.0","","Firefox","113.0","Windows","10.0","null","<div style=""font-size:60px;"">+</div>","null",""
"","","","","","html-button-response","58","137543","0.0-3.0-1.27","94","1","2023-05-30 04:36:10","c5e7288ef5abdde20c6cfc36967cae27","108.196.136.188","Mozilla/5.0 (Windows NT 10.0; Win64; x64; rv:109.0) Gecko/20100101 Firefox/113.0","","Firefox","113.0","Windows","10.0","1640","<p>As the military commander, you could choose to launch a missile to kill <strong>1 enemy soldier</strong> , but would accidentally kill <strong>1 enemy civilian</strong> nearby.</p> <p>The photo of the <strong>enemy civilian</strong> is shown below.</p> <p></p> <img src='stimuli/faces/NCM2.jpg', style='max-width: 30%;'> </img> <p><strong>Would you launch the weapon?</strong></p>","1",""
"","","","","","html-keyboard-response","59","138550","0.0-3.0-0.28","94","1","2023-05-30 04:36:10","c5e7288ef5abdde20c6cfc36967cae27","108.196.136.188","Mozilla/5.0 (Windows NT 10.0; Win64; x64; rv:109.0) Gecko/20100101 Firefox/113.0","","Firefox","113.0","Windows","10.0","null","<div style=""font-size:60px;"">+</div>","null",""
"","","","","","html-button-response","60","139962","0.0-3.0-1.28","94","1","2023-05-30 04:36:10","c5e7288ef5abdde20c6cfc36967cae27","108.196.136.188","Mozilla/5.0 (Windows NT 10.0; Win64; x64; rv:109.0) Gecko/20100101 Firefox/113.0","","Firefox","113.0","Windows","10.0","1410","<p>As the military commander, you could choose to launch a missile to kill <strong>5 enemy soldiers</strong> , but would accidentally kill <strong>1 enemy civilian</strong> nearby.</p> <p>The photo of the <strong>enemy civilian</strong> is shown below.</p> <p></p> <img src='stimuli/faces/NCM6.jpg', style='max-width: 30%;'> </img> <p><strong>Would you launch the weapon?</strong></p>","1",""
"","","","","","html-keyboard-response","61","140966","0.0-3.0-0.29","94","1","2023-05-30 04:36:10","c5e7288ef5abdde20c6cfc36967cae27","108.196.136.188","Mozilla/5.0 (Windows NT 10.0; Win64; x64; rv:109.0) Gecko/20100101 Firefox/113.0","","Firefox","113.0","Windows","10.0","null","<div style=""font-size:60px;"">+</div>","null",""
"","","","","","html-button-response","62","143581","0.0-3.0-1.29","94","1","2023-05-30 04:36:10","c5e7288ef5abdde20c6cfc36967cae27","108.196.136.188","Mozilla/5.0 (Windows NT 10.0; Win64; x64; rv:109.0) Gecko/20100101 Firefox/113.0","","Firefox","113.0","Windows","10.0","2611","<p>As the military commander, you could choose to launch a missile to kill <strong>2 enemy soldiers</strong> , but would accidentally kill <strong>1 enemy civilian</strong> nearby.</p> <p>The photo of the <strong>enemy civilian</strong> is shown below.</p> <p></p> <img src='stimuli/faces/NCM4.jpg', style='max-width: 30%;'> </img> <p><strong>Would you launch the weapon?</strong></p>","1",""
"","","","","","html-keyboard-response","63","144587","0.0-3.0-0.30","94","1","2023-05-30 04:36:10","c5e7288ef5abdde20c6cfc36967cae27","108.196.136.188","Mozilla/5.0 (Windows NT 10.0; Win64; x64; rv:109.0) Gecko/20100101 Firefox/113.0","","Firefox","113.0","Windows","10.0","null","<div style=""font-size:60px;"">+</div>","null",""
"","","","","","html-button-response","64","147867","0.0-3.0-1.30","94","1","2023-05-30 04:36:10","c5e7288ef5abdde20c6cfc36967cae27","108.196.136.188","Mozilla/5.0 (Windows NT 10.0; Win64; x64; rv:109.0) Gecko/20100101 Firefox/113.0","","Firefox","113.0","Windows","10.0","3278","<p>As the military commander, you could choose to launch a missile to kill <strong>10 enemy soldiers</strong> , but would accidentally kill <strong>1 enemy civilian</strong> nearby.</p> <p>The photo of the <strong>enemy civilian</strong> is shown below.</p> <p></p> <img src='stimuli/faces/NCM1.jpg', style='max-width: 30%;'> </img> <p><strong>Would you launch the weapon?</strong></p>","0",""
"","","","","","html-keyboard-response","65","148871","0.0-3.0-0.31","94","1","2023-05-30 04:36:10","c5e7288ef5abdde20c6cfc36967cae27","108.196.136.188","Mozilla/5.0 (Windows NT 10.0; Win64; x64; rv:109.0) Gecko/20100101 Firefox/113.0","","Firefox","113.0","Windows","10.0","null","<div style=""font-size:60px;"">+</div>","null",""
"","","","","","html-button-response","66","150203","0.0-3.0-1.31","94","1","2023-05-30 04:36:10","c5e7288ef5abdde20c6cfc36967cae27","108.196.136.188","Mozilla/5.0 (Windows NT 10.0; Win64; x64; rv:109.0) Gecko/20100101 Firefox/113.0","","Firefox","113.0","Windows","10.0","1331","<p>As the military commander, you could choose to launch a missile to kill <strong>10 enemy soldiers</strong> , but would accidentally kill <strong>1 enemy civilian</strong> nearby.</p> <p>The photo of the <strong>enemy civilian</strong> is shown below.</p> <p></p> <img src='stimuli/faces/NCM6.jpg', style='max-width: 30%;'> </img> <p><strong>Would you launch the weapon?</strong></p>","0",""
"","","","","","html-keyboard-response","67","151218","0.0-3.0-0.32","94","1","2023-05-30 04:36:10","c5e7288ef5abdde20c6cfc36967cae27","108.196.136.188","Mozilla/5.0 (Windows NT 10.0; Win64; x64; rv:109.0) Gecko/20100101 Firefox/113.0","","Firefox","113.0","Windows","10.0","null","<div style=""font-size:60px;"">+</div>","null",""
"","","","","","html-button-response","68","152703","0.0-3.0-1.32","94","1","2023-05-30 04:36:10","c5e7288ef5abdde20c6cfc36967cae27","108.196.136.188","Mozilla/5.0 (Windows NT 10.0; Win64; x64; rv:109.0) Gecko/20100101 Firefox/113.0","","Firefox","113.0","Windows","10.0","1483","<p>As the military commander, you could choose to launch a missile to kill <strong>7 enemy soldiers</strong> , but would accidentally kill <strong>1 enemy tree</strong> nearby.</p> <p>The photo of the <strong>enemy tree</strong> is shown below.</p> <p></p> <img src='stimuli/tree/3.png', style='max-width: 30%;'> </img> <p><strong>Would you launch the weapon?</strong></p>","0",""
"","","","","","html-keyboard-response","69","153709","0.0-3.0-0.33","94","1","2023-05-30 04:36:10","c5e7288ef5abdde20c6cfc36967cae27","108.196.136.188","Mozilla/5.0 (Windows NT 10.0; Win64; x64; rv:109.0) Gecko/20100101 Firefox/113.0","","Firefox","113.0","Windows","10.0","null","<div style=""font-size:60px;"">+</div>","null",""
"","","","","","html-button-response","70","155043","0.0-3.0-1.33","94","1","2023-05-30 04:36:10","c5e7288ef5abdde20c6cfc36967cae27","108.196.136.188","Mozilla/5.0 (Windows NT 10.0; Win64; x64; rv:109.0) Gecko/20100101 Firefox/113.0","","Firefox","113.0","Windows","10.0","1332","<p>As the military commander, you could choose to launch a missile to kill <strong>9 enemy soldiers</strong> , but would accidentally kill <strong>1 enemy tree</strong> nearby.</p> <p>The photo of the <strong>enemy tree</strong> is shown below.</p> <p></p> <img src='stimuli/tree/16.png', style='max-width: 30%;'> </img> <p><strong>Would you launch the weapon?</strong></p>","0",""
"","","","","","html-keyboard-response","71","156045","0.0-3.0-0.34","94","1","2023-05-30 04:36:10","c5e7288ef5abdde20c6cfc36967cae27","108.196.136.188","Mozilla/5.0 (Windows NT 10.0; Win64; x64; rv:109.0) Gecko/20100101 Firefox/113.0","","Firefox","113.0","Windows","10.0","null","<div style=""font-size:60px;"">+</div>","null",""
"","","","","","html-button-response","72","157950","0.0-3.0-1.34","94","1","2023-05-30 04:36:10","c5e7288ef5abdde20c6cfc36967cae27","108.196.136.188","Mozilla/5.0 (Windows NT 10.0; Win64; x64; rv:109.0) Gecko/20100101 Firefox/113.0","","Firefox","113.0","Windows","10.0","1904","<p>As the military commander, you could choose to launch a missile to kill <strong>6 enemy soldiers</strong> , but would accidentally kill <strong>1 enemy civilian</strong> nearby.</p> <p>The photo of the <strong>enemy civilian</strong> is shown below.</p> <p></p> <img src='stimuli/faces/NCM7.jpg', style='max-width: 30%;'> </img> <p><strong>Would you launch the weapon?</strong></p>","1",""
"","","","","","html-keyboard-response","73","158965","0.0-3.0-0.35","94","1","2023-05-30 04:36:10","c5e7288ef5abdde20c6cfc36967cae27","108.196.136.188","Mozilla/5.0 (Windows NT 10.0; Win64; x64; rv:109.0) Gecko/20100101 Firefox/113.0","","Firefox","113.0","Windows","10.0","null","<div style=""font-size:60px;"">+</div>","null",""
"","","","","","html-button-response","74","160655","0.0-3.0-1.35","94","1","2023-05-30 04:36:10","c5e7288ef5abdde20c6cfc36967cae27","108.196.136.188","Mozilla/5.0 (Windows NT 10.0; Win64; x64; rv:109.0) Gecko/20100101 Firefox/113.0","","Firefox","113.0","Windows","10.0","1689","<p>As the military commander, you could choose to launch a missile to kill <strong>7 enemy soldiers</strong> , but would accidentally kill <strong>1 enemy tree</strong> nearby.</p> <p>The photo of the <strong>enemy tree</strong> is shown below.</p> <p></p> <img src='stimuli/tree/15.png', style='max-width: 30%;'> </img> <p><strong>Would you launch the weapon?</strong></p>","0",""
"","","","","","html-keyboard-response","75","161666","0.0-3.0-0.36","94","1","2023-05-30 04:36:10","c5e7288ef5abdde20c6cfc36967cae27","108.196.136.188","Mozilla/5.0 (Windows NT 10.0; Win64; x64; rv:109.0) Gecko/20100101 Firefox/113.0","","Firefox","113.0","Windows","10.0","null","<div style=""font-size:60px;"">+</div>","null",""
"","","","","","html-button-response","76","163640","0.0-3.0-1.36","94","1","2023-05-30 04:36:10","c5e7288ef5abdde20c6cfc36967cae27","108.196.136.188","Mozilla/5.0 (Windows NT 10.0; Win64; x64; rv:109.0) Gecko/20100101 Firefox/113.0","","Firefox","113.0","Windows","10.0","1971","<p>As the military commander, you could choose to launch a missile to kill <strong>10 enemy soldiers</strong> , but would accidentally kill <strong>1 enemy civilian</strong> nearby.</p> <p>The photo of the <strong>enemy civilian</strong> is shown below.</p> <p></p> <img src='stimuli/faces/NCM8.jpg', style='max-width: 30%;'> </img> <p><strong>Would you launch the weapon?</strong></p>","0",""
"","","","","","html-keyboard-response","77","164647","0.0-3.0-0.37","94","1","2023-05-30 04:36:10","c5e7288ef5abdde20c6cfc36967cae27","108.196.136.188","Mozilla/5.0 (Windows NT 10.0; Win64; x64; rv:109.0) Gecko/20100101 Firefox/113.0","","Firefox","113.0","Windows","10.0","null","<div style=""font-size:60px;"">+</div>","null",""
"","","","","","html-button-response","78","166273","0.0-3.0-1.37","94","1","2023-05-30 04:36:10","c5e7288ef5abdde20c6cfc36967cae27","108.196.136.188","Mozilla/5.0 (Windows NT 10.0; Win64; x64; rv:109.0) Gecko/20100101 Firefox/113.0","","Firefox","113.0","Windows","10.0","1624","<p>As the military commander, you could choose to launch a missile to kill <strong>7 enemy soldiers</strong> , but would accidentally kill <strong>1 enemy civilian</strong> nearby.</p> <p>The photo of the <strong>enemy civilian</strong> is shown below.</p> <p></p> <img src='stimuli/faces/NCM4.jpg', style='max-width: 30%;'> </img> <p><strong>Would you launch the weapon?</strong></p>","1",""
"","","","","","html-keyboard-response","79","167274","0.0-3.0-0.38","94","1","2023-05-30 04:36:10","c5e7288ef5abdde20c6cfc36967cae27","108.196.136.188","Mozilla/5.0 (Windows NT 10.0; Win64; x64; rv:109.0) Gecko/20100101 Firefox/113.0","","Firefox","113.0","Windows","10.0","null","<div style=""font-size:60px;"">+</div>","null",""
"","","","","","html-button-response","80","169816","0.0-3.0-1.38","94","1","2023-05-30 04:36:10","c5e7288ef5abdde20c6cfc36967cae27","108.196.136.188","Mozilla/5.0 (Windows NT 10.0; Win64; x64; rv:109.0) Gecko/20100101 Firefox/113.0","","Firefox","113.0","Windows","10.0","2541","<p>As the military commander, you could choose to launch a missile to kill <strong>6 enemy soldiers</strong> , but would accidentally kill <strong>1 enemy tree</strong> nearby.</p> <p>The photo of the <strong>enemy tree</strong> is shown below.</p> <p></p> <img src='stimuli/tree/8.png', style='max-width: 30%;'> </img> <p><strong>Would you launch the weapon?</strong></p>","0",""
"","","","","","html-keyboard-response","81","170832","0.0-3.0-0.39","94","1","2023-05-30 04:36:10","c5e7288ef5abdde20c6cfc36967cae27","108.196.136.188","Mozilla/5.0 (Windows NT 10.0; Win64; x64; rv:109.0) Gecko/20100101 Firefox/113.0","","Firefox","113.0","Windows","10.0","null","<div style=""font-size:60px;"">+</div>","null",""
"","","","","","html-button-response","82","171934","0.0-3.0-1.39","94","1","2023-05-30 04:36:10","c5e7288ef5abdde20c6cfc36967cae27","108.196.136.188","Mozilla/5.0 (Windows NT 10.0; Win64; x64; rv:109.0) Gecko/20100101 Firefox/113.0","","Firefox","113.0","Windows","10.0","1101","<p>As the military commander, you could choose to launch a missile to kill <strong>4 enemy soldiers</strong> , but would accidentally kill <strong>1 enemy tree</strong> nearby.</p> <p>The photo of the <strong>enemy tree</strong> is shown below.</p> <p></p> <img src='stimuli/tree/6.png', style='max-width: 30%;'> </img> <p><strong>Would you launch the weapon?</strong></p>","0",""
"","","","","","html-keyboard-response","83","172935","0.0-3.0-0.40","94","1","2023-05-30 04:36:10","c5e7288ef5abdde20c6cfc36967cae27","108.196.136.188","Mozilla/5.0 (Windows NT 10.0; Win64; x64; rv:109.0) Gecko/20100101 Firefox/113.0","","Firefox","113.0","Windows","10.0","null","<div style=""font-size:60px;"">+</div>","null",""
"","","","","","html-button-response","84","174593","0.0-3.0-1.40","94","1","2023-05-30 04:36:10","c5e7288ef5abdde20c6cfc36967cae27","108.196.136.188","Mozilla/5.0 (Windows NT 10.0; Win64; x64; rv:109.0) Gecko/20100101 Firefox/113.0","","Firefox","113.0","Windows","10.0","1655","<p>As the military commander, you could choose to launch a missile to kill <strong>2 enemy soldiers</strong> , but would accidentally kill <strong>1 enemy civilian</strong> nearby.</p> <p>The photo of the <strong>enemy civilian</strong> is shown below.</p> <p></p> <img src='stimuli/faces/NCF5.jpg', style='max-width: 30%;'> </img> <p><strong>Would you launch the weapon?</strong></p>","1",""
"","","","","","html-keyboard-response","85","175594","0.0-3.0-0.41","94","1","2023-05-30 04:36:10","c5e7288ef5abdde20c6cfc36967cae27","108.196.136.188","Mozilla/5.0 (Windows NT 10.0; Win64; x64; rv:109.0) Gecko/20100101 Firefox/113.0","","Firefox","113.0","Windows","10.0","null","<div style=""font-size:60px;"">+</div>","null",""
"","","","","","html-button-response","86","176745","0.0-3.0-1.41","94","1","2023-05-30 04:36:10","c5e7288ef5abdde20c6cfc36967cae27","108.196.136.188","Mozilla/5.0 (Windows NT 10.0; Win64; x64; rv:109.0) Gecko/20100101 Firefox/113.0","","Firefox","113.0","Windows","10.0","1149","<p>As the military commander, you could choose to launch a missile to kill <strong>2 enemy soldiers</strong> , but would accidentally kill <strong>1 enemy civilian</strong> nearby.</p> <p>The photo of the <strong>enemy civilian</strong> is shown below.</p> <p></p> <img src='stimuli/faces/NCF6.jpg', style='max-width: 30%;'> </img> <p><strong>Would you launch the weapon?</strong></p>","1",""
"","","","","","html-keyboard-response","87","177746","0.0-3.0-0.42","94","1","2023-05-30 04:36:10","c5e7288ef5abdde20c6cfc36967cae27","108.196.136.188","Mozilla/5.0 (Windows NT 10.0; Win64; x64; rv:109.0) Gecko/20100101 Firefox/113.0","","Firefox","113.0","Windows","10.0","null","<div style=""font-size:60px;"">+</div>","null",""
"","","","","","html-button-response","88","179164","0.0-3.0-1.42","94","1","2023-05-30 04:36:10","c5e7288ef5abdde20c6cfc36967cae27","108.196.136.188","Mozilla/5.0 (Windows NT 10.0; Win64; x64; rv:109.0) Gecko/20100101 Firefox/113.0","","Firefox","113.0","Windows","10.0","1416","<p>As the military commander, you could choose to launch a missile to kill <strong>9 enemy soldiers</strong> , but would accidentally kill <strong>1 enemy civilian</strong> nearby.</p> <p>The photo of the <strong>enemy civilian</strong> is shown below.</p> <p></p> <img src='stimuli/faces/NCF8.jpg', style='max-width: 30%;'> </img> <p><strong>Would you launch the weapon?</strong></p>","0",""
"","","","","","html-keyboard-response","89","180166","0.0-3.0-0.43","94","1","2023-05-30 04:36:10","c5e7288ef5abdde20c6cfc36967cae27","108.196.136.188","Mozilla/5.0 (Windows NT 10.0; Win64; x64; rv:109.0) Gecko/20100101 Firefox/113.0","","Firefox","113.0","Windows","10.0","null","<div style=""font-size:60px;"">+</div>","null",""
"","","","","","html-button-response","90","181364","0.0-3.0-1.43","94","1","2023-05-30 04:36:10","c5e7288ef5abdde20c6cfc36967cae27","108.196.136.188","Mozilla/5.0 (Windows NT 10.0; Win64; x64; rv:109.0) Gecko/20100101 Firefox/113.0","","Firefox","113.0","Windows","10.0","1195","<p>As the military commander, you could choose to launch a missile to kill <strong>3 enemy soldiers</strong> , but would accidentally kill <strong>1 enemy civilian</strong> nearby.</p> <p>The photo of the <strong>enemy civilian</strong> is shown below.</p> <p></p> <img src='stimuli/faces/NCF2.jpg', style='max-width: 30%;'> </img> <p><strong>Would you launch the weapon?</strong></p>","1",""
"","","","","","html-keyboard-response","91","182377","0.0-3.0-0.44","94","1","2023-05-30 04:36:10","c5e7288ef5abdde20c6cfc36967cae27","108.196.136.188","Mozilla/5.0 (Windows NT 10.0; Win64; x64; rv:109.0) Gecko/20100101 Firefox/113.0","","Firefox","113.0","Windows","10.0","null","<div style=""font-size:60px;"">+</div>","null",""
"","","","","","html-button-response","92","183696","0.0-3.0-1.44","94","1","2023-05-30 04:36:10","c5e7288ef5abdde20c6cfc36967cae27","108.196.136.188","Mozilla/5.0 (Windows NT 10.0; Win64; x64; rv:109.0) Gecko/20100101 Firefox/113.0","","Firefox","113.0","Windows","10.0","1317","<p>As the military commander, you could choose to launch a missile to kill <strong>6 enemy soldiers</strong> , but would accidentally kill <strong>1 enemy tree</strong> nearby.</p> <p>The photo of the <strong>enemy tree</strong> is shown below.</p> <p></p> <img src='stimuli/tree/9.png', style='max-width: 30%;'> </img> <p><strong>Would you launch the weapon?</strong></p>","0",""
"","","","","","html-keyboard-response","93","184700","0.0-3.0-0.45","94","1","2023-05-30 04:36:10","c5e7288ef5abdde20c6cfc36967cae27","108.196.136.188","Mozilla/5.0 (Windows NT 10.0; Win64; x64; rv:109.0) Gecko/20100101 Firefox/113.0","","Firefox","113.0","Windows","10.0","null","<div style=""font-size:60px;"">+</div>","null",""
"","","","","","html-button-response","94","187736","0.0-3.0-1.45","94","1","2023-05-30 04:36:10","c5e7288ef5abdde20c6cfc36967cae27","108.196.136.188","Mozilla/5.0 (Windows NT 10.0; Win64; x64; rv:109.0) Gecko/20100101 Firefox/113.0","","Firefox","113.0","Windows","10.0","3034","<p>As the military commander, you could choose to launch a missile to kill <strong>10 enemy soldiers</strong> , but would accidentally kill <strong>1 enemy civilian</strong> nearby.</p> <p>The photo of the <strong>enemy civilian</strong> is shown below.</p> <p></p> <img src='stimuli/faces/NCF5.jpg', style='max-width: 30%;'> </img> <p><strong>Would you launch the weapon?</strong></p>","0",""
"","","","","","html-keyboard-response","95","188742","0.0-3.0-0.46","94","1","2023-05-30 04:36:10","c5e7288ef5abdde20c6cfc36967cae27","108.196.136.188","Mozilla/5.0 (Windows NT 10.0; Win64; x64; rv:109.0) Gecko/20100101 Firefox/113.0","","Firefox","113.0","Windows","10.0","null","<div style=""font-size:60px;"">+</div>","null",""
"","","","","","html-button-response","96","189907","0.0-3.0-1.46","94","1","2023-05-30 04:36:10","c5e7288ef5abdde20c6cfc36967cae27","108.196.136.188","Mozilla/5.0 (Windows NT 10.0; Win64; x64; rv:109.0) Gecko/20100101 Firefox/113.0","","Firefox","113.0","Windows","10.0","1163","<p>As the military commander, you could choose to launch a missile to kill <strong>3 enemy soldiers</strong> , but would accidentally kill <strong>1 enemy tree</strong> nearby.</p> <p>The photo of the <strong>enemy tree</strong> is shown below.</p> <p></p> <img src='stimuli/tree/9.png', style='max-width: 30%;'> </img> <p><strong>Would you launch the weapon?</strong></p>","0",""
"","","","","","html-keyboard-response","97","190913","0.0-3.0-0.47","94","1","2023-05-30 04:36:10","c5e7288ef5abdde20c6cfc36967cae27","108.196.136.188","Mozilla/5.0 (Windows NT 10.0; Win64; x64; rv:109.0) Gecko/20100101 Firefox/113.0","","Firefox","113.0","Windows","10.0","null","<div style=""font-size:60px;"">+</div>","null",""
"","","","","","html-button-response","98","192013","0.0-3.0-1.47","94","1","2023-05-30 04:36:10","c5e7288ef5abdde20c6cfc36967cae27","108.196.136.188","Mozilla/5.0 (Windows NT 10.0; Win64; x64; rv:109.0) Gecko/20100101 Firefox/113.0","","Firefox","113.0","Windows","10.0","1099","<p>As the military commander, you could choose to launch a missile to kill <strong>3 enemy soldiers</strong> , but would accidentally kill <strong>1 enemy tree</strong> nearby.</p> <p>The photo of the <strong>enemy tree</strong> is shown below.</p> <p></p> <img src='stimuli/tree/13.png', style='max-width: 30%;'> </img> <p><strong>Would you launch the weapon?</strong></p>","0",""
"","","","","","html-keyboard-response","99","193018","0.0-3.0-0.48","94","1","2023-05-30 04:36:10","c5e7288ef5abdde20c6cfc36967cae27","108.196.136.188","Mozilla/5.0 (Windows NT 10.0; Win64; x64; rv:109.0) Gecko/20100101 Firefox/113.0","","Firefox","113.0","Windows","10.0","null","<div style=""font-size:60px;"">+</div>","null",""
"","","","","","html-button-response","100","194058","0.0-3.0-1.48","94","1","2023-05-30 04:36:10","c5e7288ef5abdde20c6cfc36967cae27","108.196.136.188","Mozilla/5.0 (Windows NT 10.0; Win64; x64; rv:109.0) Gecko/20100101 Firefox/113.0","","Firefox","113.0","Windows","10.0","1039","<p>As the military commander, you could choose to launch a missile to kill <strong>8 enemy soldiers</strong> , but would accidentally kill <strong>1 enemy tree</strong> nearby.</p> <p>The photo of the <strong>enemy tree</strong> is shown below.</p> <p></p> <img src='stimuli/tree/1.png', style='max-width: 30%;'> </img> <p><strong>Would you launch the weapon?</strong></p>","0",""
"","","","","","html-keyboard-response","101","195073","0.0-3.0-0.49","94","1","2023-05-30 04:36:10","c5e7288ef5abdde20c6cfc36967cae27","108.196.136.188","Mozilla/5.0 (Windows NT 10.0; Win64; x64; rv:109.0) Gecko/20100101 Firefox/113.0","","Firefox","113.0","Windows","10.0","null","<div style=""font-size:60px;"">+</div>","null",""
"","","","","","html-button-response","102","196049","0.0-3.0-1.49","94","1","2023-05-30 04:36:10","c5e7288ef5abdde20c6cfc36967cae27","108.196.136.188","Mozilla/5.0 (Windows NT 10.0; Win64; x64; rv:109.0) Gecko/20100101 Firefox/113.0","","Firefox","113.0","Windows","10.0","973","<p>As the military commander, you could choose to launch a missile to kill <strong>1 enemy soldier</strong> , but would accidentally kill <strong>1 enemy tree</strong> nearby.</p> <p>The photo of the <strong>enemy tree</strong> is shown below.</p> <p></p> <img src='stimuli/tree/16.png', style='max-width: 30%;'> </img> <p><strong>Would you launch the weapon?</strong></p>","0",""
"","","","","","html-keyboard-response","103","197051","0.0-3.0-0.50","94","1","2023-05-30 04:36:10","c5e7288ef5abdde20c6cfc36967cae27","108.196.136.188","Mozilla/5.0 (Windows NT 10.0; Win64; x64; rv:109.0) Gecko/20100101 Firefox/113.0","","Firefox","113.0","Windows","10.0","null","<div style=""font-size:60px;"">+</div>","null",""
"","","","","","html-button-response","104","198013","0.0-3.0-1.50","94","1","2023-05-30 04:36:10","c5e7288ef5abdde20c6cfc36967cae27","108.196.136.188","Mozilla/5.0 (Windows NT 10.0; Win64; x64; rv:109.0) Gecko/20100101 Firefox/113.0","","Firefox","113.0","Windows","10.0","960","<p>As the military commander, you could choose to launch a missile to kill <strong>10 enemy soldiers</strong> , but would accidentally kill <strong>1 enemy tree</strong> nearby.</p> <p>The photo of the <strong>enemy tree</strong> is shown below.</p> <p></p> <img src='stimuli/tree/14.png', style='max-width: 30%;'> </img> <p><strong>Would you launch the weapon?</strong></p>","0",""
"","","","","","html-keyboard-response","105","199020","0.0-3.0-0.51","94","1","2023-05-30 04:36:10","c5e7288ef5abdde20c6cfc36967cae27","108.196.136.188","Mozilla/5.0 (Windows NT 10.0; Win64; x64; rv:109.0) Gecko/20100101 Firefox/113.0","","Firefox","113.0","Windows","10.0","null","<div style=""font-size:60px;"">+</div>","null",""
"","","","","","html-button-response","106","200077","0.0-3.0-1.51","94","1","2023-05-30 04:36:10","c5e7288ef5abdde20c6cfc36967cae27","108.196.136.188","Mozilla/5.0 (Windows NT 10.0; Win64; x64; rv:109.0) Gecko/20100101 Firefox/113.0","","Firefox","113.0","Windows","10.0","1054","<p>As the military commander, you could choose to launch a missile to kill <strong>6 enemy soldiers</strong> , but would accidentally kill <strong>1 enemy tree</strong> nearby.</p> <p>The photo of the <strong>enemy tree</strong> is shown below.</p> <p></p> <img src='stimuli/tree/13.png', style='max-width: 30%;'> </img> <p><strong>Would you launch the weapon?</strong></p>","0",""
"","","","","","html-keyboard-response","107","201093","0.0-3.0-0.52","94","1","2023-05-30 04:36:10","c5e7288ef5abdde20c6cfc36967cae27","108.196.136.188","Mozilla/5.0 (Windows NT 10.0; Win64; x64; rv:109.0) Gecko/20100101 Firefox/113.0","","Firefox","113.0","Windows","10.0","null","<div style=""font-size:60px;"">+</div>","null",""
"","","","","","html-button-response","108","202168","0.0-3.0-1.52","94","1","2023-05-30 04:36:10","c5e7288ef5abdde20c6cfc36967cae27","108.196.136.188","Mozilla/5.0 (Windows NT 10.0; Win64; x64; rv:109.0) Gecko/20100101 Firefox/113.0","","Firefox","113.0","Windows","10.0","1071","<p>As the military commander, you could choose to launch a missile to kill <strong>10 enemy soldiers</strong> , but would accidentally kill <strong>1 enemy tree</strong> nearby.</p> <p>The photo of the <strong>enemy tree</strong> is shown below.</p> <p></p> <img src='stimuli/tree/4.png', style='max-width: 30%;'> </img> <p><strong>Would you launch the weapon?</strong></p>","0",""
"","","","","","html-keyboard-response","109","203186","0.0-3.0-0.53","94","1","2023-05-30 04:36:10","c5e7288ef5abdde20c6cfc36967cae27","108.196.136.188","Mozilla/5.0 (Windows NT 10.0; Win64; x64; rv:109.0) Gecko/20100101 Firefox/113.0","","Firefox","113.0","Windows","10.0","null","<div style=""font-size:60px;"">+</div>","null",""
"","","","","","html-button-response","110","204072","0.0-3.0-1.53","94","1","2023-05-30 04:36:10","c5e7288ef5abdde20c6cfc36967cae27","108.196.136.188","Mozilla/5.0 (Windows NT 10.0; Win64; x64; rv:109.0) Gecko/20100101 Firefox/113.0","","Firefox","113.0","Windows","10.0","884","<p>As the military commander, you could choose to launch a missile to kill <strong>6 enemy soldiers</strong> , but would accidentally kill <strong>1 enemy tree</strong> nearby.</p> <p>The photo of the <strong>enemy tree</strong> is shown below.</p> <p></p> <img src='stimuli/tree/12.png', style='max-width: 30%;'> </img> <p><strong>Would you launch the weapon?</strong></p>","0",""
"","","","","","html-keyboard-response","111","205091","0.0-3.0-0.54","94","1","2023-05-30 04:36:10","c5e7288ef5abdde20c6cfc36967cae27","108.196.136.188","Mozilla/5.0 (Windows NT 10.0; Win64; x64; rv:109.0) Gecko/20100101 Firefox/113.0","","Firefox","113.0","Windows","10.0","null","<div style=""font-size:60px;"">+</div>","null",""
"","","","","","html-button-response","112","206072","0.0-3.0-1.54","94","1","2023-05-30 04:36:10","c5e7288ef5abdde20c6cfc36967cae27","108.196.136.188","Mozilla/5.0 (Windows NT 10.0; Win64; x64; rv:109.0) Gecko/20100101 Firefox/113.0","","Firefox","113.0","Windows","10.0","978","<p>As the military commander, you could choose to launch a missile to kill <strong>1 enemy soldier</strong> , but would accidentally kill <strong>1 enemy tree</strong> nearby.</p> <p>The photo of the <strong>enemy tree</strong> is shown below.</p> <p></p> <img src='stimuli/tree/12.png', style='max-width: 30%;'> </img> <p><strong>Would you launch the weapon?</strong></p>","0",""
"","","","","","html-keyboard-response","113","207088","0.0-3.0-0.55","94","1","2023-05-30 04:36:10","c5e7288ef5abdde20c6cfc36967cae27","108.196.136.188","Mozilla/5.0 (Windows NT 10.0; Win64; x64; rv:109.0) Gecko/20100101 Firefox/113.0","","Firefox","113.0","Windows","10.0","null","<div style=""font-size:60px;"">+</div>","null",""
"","","","","","html-button-response","114","208399","0.0-3.0-1.55","94","1","2023-05-30 04:36:10","c5e7288ef5abdde20c6cfc36967cae27","108.196.136.188","Mozilla/5.0 (Windows NT 10.0; Win64; x64; rv:109.0) Gecko/20100101 Firefox/113.0","","Firefox","113.0","Windows","10.0","1309","<p>As the military commander, you could choose to launch a missile to kill <strong>4 enemy soldiers</strong> , but would accidentally kill <strong>1 enemy tree</strong> nearby.</p> <p>The photo of the <strong>enemy tree</strong> is shown below.</p> <p></p> <img src='stimuli/tree/15.png', style='max-width: 30%;'> </img> <p><strong>Would you launch the weapon?</strong></p>","0",""
"","","","","","html-keyboard-response","115","209413","0.0-3.0-0.56","94","1","2023-05-30 04:36:10","c5e7288ef5abdde20c6cfc36967cae27","108.196.136.188","Mozilla/5.0 (Windows NT 10.0; Win64; x64; rv:109.0) Gecko/20100101 Firefox/113.0","","Firefox","113.0","Windows","10.0","null","<div style=""font-size:60px;"">+</div>","null",""
"","","","","","html-button-response","116","211584","0.0-3.0-1.56","94","1","2023-05-30 04:36:10","c5e7288ef5abdde20c6cfc36967cae27","108.196.136.188","Mozilla/5.0 (Windows NT 10.0; Win64; x64; rv:109.0) Gecko/20100101 Firefox/113.0","","Firefox","113.0","Windows","10.0","2168","<p>As the military commander, you could choose to launch a missile to kill <strong>3 enemy soldiers</strong> , but would accidentally kill <strong>1 enemy civilian</strong> nearby.</p> <p>The photo of the <strong>enemy civilian</strong> is shown below.</p> <p></p> <img src='stimuli/faces/NCM1.jpg', style='max-width: 30%;'> </img> <p><strong>Would you launch the weapon?</strong></p>","1",""
"","","","","","html-keyboard-response","117","212589","0.0-3.0-0.57","94","1","2023-05-30 04:36:10","c5e7288ef5abdde20c6cfc36967cae27","108.196.136.188","Mozilla/5.0 (Windows NT 10.0; Win64; x64; rv:109.0) Gecko/20100101 Firefox/113.0","","Firefox","113.0","Windows","10.0","null","<div style=""font-size:60px;"">+</div>","null",""
"","","","","","html-button-response","118","214688","0.0-3.0-1.57","94","1","2023-05-30 04:36:10","c5e7288ef5abdde20c6cfc36967cae27","108.196.136.188","Mozilla/5.0 (Windows NT 10.0; Win64; x64; rv:109.0) Gecko/20100101 Firefox/113.0","","Firefox","113.0","Windows","10.0","2095","<p>As the military commander, you could choose to launch a missile to kill <strong>6 enemy soldiers</strong> , but would accidentally kill <strong>1 enemy tree</strong> nearby.</p> <p>The photo of the <strong>enemy tree</strong> is shown below.</p> <p></p> <img src='stimuli/tree/10.png', style='max-width: 30%;'> </img> <p><strong>Would you launch the weapon?</strong></p>","0",""
"","","","","","html-keyboard-response","119","215689","0.0-3.0-0.58","94","1","2023-05-30 04:36:10","c5e7288ef5abdde20c6cfc36967cae27","108.196.136.188","Mozilla/5.0 (Windows NT 10.0; Win64; x64; rv:109.0) Gecko/20100101 Firefox/113.0","","Firefox","113.0","Windows","10.0","null","<div style=""font-size:60px;"">+</div>","null",""
"","","","","","html-button-response","120","217347","0.0-3.0-1.58","94","1","2023-05-30 04:36:10","c5e7288ef5abdde20c6cfc36967cae27","108.196.136.188","Mozilla/5.0 (Windows NT 10.0; Win64; x64; rv:109.0) Gecko/20100101 Firefox/113.0","","Firefox","113.0","Windows","10.0","1657","<p>As the military commander, you could choose to launch a missile to kill <strong>4 enemy soldiers</strong> , but would accidentally kill <strong>1 enemy civilian</strong> nearby.</p> <p>The photo of the <strong>enemy civilian</strong> is shown below.</p> <p></p> <img src='stimuli/faces/NCM5.jpg', style='max-width: 30%;'> </img> <p><strong>Would you launch the weapon?</strong></p>","1",""
"","","","","","html-keyboard-response","121","218350","0.0-3.0-0.59","94","1","2023-05-30 04:36:10","c5e7288ef5abdde20c6cfc36967cae27","108.196.136.188","Mozilla/5.0 (Windows NT 10.0; Win64; x64; rv:109.0) Gecko/20100101 Firefox/113.0","","Firefox","113.0","Windows","10.0","null","<div style=""font-size:60px;"">+</div>","null",""
"","","","","","html-button-response","122","221029","0.0-3.0-1.59","94","1","2023-05-30 04:36:10","c5e7288ef5abdde20c6cfc36967cae27","108.196.136.188","Mozilla/5.0 (Windows NT 10.0; Win64; x64; rv:109.0) Gecko/20100101 Firefox/113.0","","Firefox","113.0","Windows","10.0","2678","<p>As the military commander, you could choose to launch a missile to kill <strong>10 enemy soldiers</strong> , but would accidentally kill <strong>1 enemy civilian</strong> nearby.</p> <p>The photo of the <strong>enemy civilian</strong> is shown below.</p> <p></p> <img src='stimuli/faces/NCM5.jpg', style='max-width: 30%;'> </img> <p><strong>Would you launch the weapon?</strong></p>","0",""
"","","","","","html-keyboard-response","123","222034","0.0-3.0-0.60","94","1","2023-05-30 04:36:10","c5e7288ef5abdde20c6cfc36967cae27","108.196.136.188","Mozilla/5.0 (Windows NT 10.0; Win64; x64; rv:109.0) Gecko/20100101 Firefox/113.0","","Firefox","113.0","Windows","10.0","null","<div style=""font-size:60px;"">+</div>","null",""
"","","","","","html-button-response","124","222927","0.0-3.0-1.60","94","1","2023-05-30 04:36:10","c5e7288ef5abdde20c6cfc36967cae27","108.196.136.188","Mozilla/5.0 (Windows NT 10.0; Win64; x64; rv:109.0) Gecko/20100101 Firefox/113.0","","Firefox","113.0","Windows","10.0","891","<p>As the military commander, you could choose to launch a missile to kill <strong>10 enemy soldiers</strong> , but would accidentally kill <strong>1 enemy tree</strong> nearby.</p> <p>The photo of the <strong>enemy tree</strong> is shown below.</p> <p></p> <img src='stimuli/tree/5.png', style='max-width: 30%;'> </img> <p><strong>Would you launch the weapon?</strong></p>","0",""
"","","","","","html-keyboard-response","125","223943","0.0-3.0-0.61","94","1","2023-05-30 04:36:10","c5e7288ef5abdde20c6cfc36967cae27","108.196.136.188","Mozilla/5.0 (Windows NT 10.0; Win64; x64; rv:109.0) Gecko/20100101 Firefox/113.0","","Firefox","113.0","Windows","10.0","null","<div style=""font-size:60px;"">+</div>","null",""
"","","","","","html-button-response","126","225308","0.0-3.0-1.61","94","1","2023-05-30 04:36:10","c5e7288ef5abdde20c6cfc36967cae27","108.196.136.188","Mozilla/5.0 (Windows NT 10.0; Win64; x64; rv:109.0) Gecko/20100101 Firefox/113.0","","Firefox","113.0","Windows","10.0","1361","<p>As the military commander, you could choose to launch a missile to kill <strong>4 enemy soldiers</strong> , but would accidentally kill <strong>1 enemy tree</strong> nearby.</p> <p>The photo of the <strong>enemy tree</strong> is shown below.</p> <p></p> <img src='stimuli/tree/4.png', style='max-width: 30%;'> </img> <p><strong>Would you launch the weapon?</strong></p>","1",""
"","","","","","html-keyboard-response","127","226324","0.0-3.0-0.62","94","1","2023-05-30 04:36:10","c5e7288ef5abdde20c6cfc36967cae27","108.196.136.188","Mozilla/5.0 (Windows NT 10.0; Win64; x64; rv:109.0) Gecko/20100101 Firefox/113.0","","Firefox","113.0","Windows","10.0","null","<div style=""font-size:60px;"">+</div>","null",""
"","","","","","html-button-response","128","227695","0.0-3.0-1.62","94","1","2023-05-30 04:36:10","c5e7288ef5abdde20c6cfc36967cae27","108.196.136.188","Mozilla/5.0 (Windows NT 10.0; Win64; x64; rv:109.0) Gecko/20100101 Firefox/113.0","","Firefox","113.0","Windows","10.0","1368","<p>As the military commander, you could choose to launch a missile to kill <strong>2 enemy soldiers</strong> , but would accidentally kill <strong>1 enemy civilian</strong> nearby.</p> <p>The photo of the <strong>enemy civilian</strong> is shown below.</p> <p></p> <img src='stimuli/faces/NCF7.jpg', style='max-width: 30%;'> </img> <p><strong>Would you launch the weapon?</strong></p>","1",""
"","","","","","html-keyboard-response","129","228710","0.0-3.0-0.63","94","1","2023-05-30 04:36:10","c5e7288ef5abdde20c6cfc36967cae27","108.196.136.188","Mozilla/5.0 (Windows NT 10.0; Win64; x64; rv:109.0) Gecko/20100101 Firefox/113.0","","Firefox","113.0","Windows","10.0","null","<div style=""font-size:60px;"">+</div>","null",""
"","","","","","html-button-response","130","230077","0.0-3.0-1.63","94","1","2023-05-30 04:36:10","c5e7288ef5abdde20c6cfc36967cae27","108.196.136.188","Mozilla/5.0 (Windows NT 10.0; Win64; x64; rv:109.0) Gecko/20100101 Firefox/113.0","","Firefox","113.0","Windows","10.0","1365","<p>As the military commander, you could choose to launch a missile to kill <strong>9 enemy soldiers</strong> , but would accidentally kill <strong>1 enemy tree</strong> nearby.</p> <p>The photo of the <strong>enemy tree</strong> is shown below.</p> <p></p> <img src='stimuli/tree/7.png', style='max-width: 30%;'> </img> <p><strong>Would you launch the weapon?</strong></p>","0",""
"","","","","","survey-multi-choice","131","249329","0.0-4.0","94","1","2023-05-30 04:36:10","c5e7288ef5abdde20c6cfc36967cae27","108.196.136.188","Mozilla/5.0 (Windows NT 10.0; Win64; x64; rv:109.0) Gecko/20100101 Firefox/113.0","","Firefox","113.0","Windows","10.0","19250","","{""Attention1"":""""}","[0]"
"","","","","","html-button-response","132","255356","0.0-5.0","94","1","2023-05-30 04:36:10","c5e7288ef5abdde20c6cfc36967cae27","108.196.136.188","Mozilla/5.0 (Windows NT 10.0; Win64; x64; rv:109.0) Gecko/20100101 Firefox/113.0","","Firefox","113.0","Windows","10.0","6024","<p style=""font-size:20px;font-weight:bold;"">Great!</p><p>You have finished the first part of the experiment!</p><p>Please relax a little bit and then contine to answer some questions regarding yourself.</p><p>The next part will take around 10 minutes to complete.</p>","0",""
"","","","","","survey-text","133","290082","0.0-6.0","94","1","2023-05-30 04:36:10","c5e7288ef5abdde20c6cfc36967cae27","108.196.136.188","Mozilla/5.0 (Windows NT 10.0; Win64; x64; rv:109.0) Gecko/20100101 Firefox/113.0","","Firefox","113.0","Windows","10.0","33706","","{""Age"":""33"",""Nation"":""American"",""Born"":""United States"",""Live"":""United States""}",""
"","","","","","survey-multi-choice","134","306471","0.0-7.0","94","1","2023-05-30 04:36:10","c5e7288ef5abdde20c6cfc36967cae27","108.196.136.188","Mozilla/5.0 (Windows NT 10.0; Win64; x64; rv:109.0) Gecko/20100101 Firefox/113.0","","Firefox","113.0","Windows","10.0","16382","","{""Gender"":""Female"",""Education"":""Advanced Degree"",""Income"":""$70,000 - $99,999"",""Children"":""0"",""Ethnicity"":""White""}","[0,1,2,3,4]"
"","","","","","survey-multi-select","135","317790","0.0-8.0","94","1","2023-05-30 04:36:10","c5e7288ef5abdde20c6cfc36967cae27","108.196.136.188","Mozilla/5.0 (Windows NT 10.0; Win64; x64; rv:109.0) Gecko/20100101 Firefox/113.0","","Firefox","113.0","Windows","10.0","11314","","{""Marriage"":[""Married""],""Religion"":[""Christian""]}","[0,1]"
"","","","","","survey-multi-choice","136","329354","0.0-9.0","94","1","2023-05-30 04:36:10","c5e7288ef5abdde20c6cfc36967cae27","108.196.136.188","Mozilla/5.0 (Windows NT 10.0; Win64; x64; rv:109.0) Gecko/20100101 Firefox/113.0","","Firefox","113.0","Windows","10.0","11561","","{""SES"":""6""}","[0]"
"","","","","","html-button-response","137","331811","0.0-10.0","94","1","2023-05-30 04:36:10","c5e7288ef5abdde20c6cfc36967cae27","108.196.136.188","Mozilla/5.0 (Windows NT 10.0; Win64; x64; rv:109.0) Gecko/20100101 Firefox/113.0","","Firefox","113.0","Windows","10.0","2453","<p><strong>Please indicate the extent that the following statements could describe you.</p><p> (1 = ""extremely uncharacteristic of me"" to 5 = ""extremely characteristic of me"".)</strong></p>","0",""
"","","","","","survey-likert","138","360329","0.0-11.0","94","1","2023-05-30 04:36:10","c5e7288ef5abdde20c6cfc36967cae27","108.196.136.188","Mozilla/5.0 (Windows NT 10.0; Win64; x64; rv:109.0) Gecko/20100101 Firefox/113.0","","Firefox","113.0","Windows","10.0","28514","","{""Aggression1"":1,""Aggression2"":3,""Aggression3"":3,""Aggression4"":3,""Aggression5"":3,""Aggression6"":2,""Aggression7"":1,""Aggression8"":0,""Aggression9"":2}","[0,1,2,3,4,5,6,7,8]"
"","","","","","html-button-response","139","362590","0.0-12.0","94","1","2023-05-30 04:36:10","c5e7288ef5abdde20c6cfc36967cae27","108.196.136.188","Mozilla/5.0 (Windows NT 10.0; Win64; x64; rv:109.0) Gecko/20100101 Firefox/113.0","","Firefox","113.0","Windows","10.0","2258","<p><strong>Please indicate the extent that the following statements could describe you. </strong></p><p><strong> (1 = ""Does not describe me well"" to 5 = ""Does decribe me well"".)</strong></p>","0",""
"","","","","","survey-likert","140","444744","0.0-13.0","94","1","2023-05-30 04:36:10","c5e7288ef5abdde20c6cfc36967cae27","108.196.136.188","Mozilla/5.0 (Windows NT 10.0; Win64; x64; rv:109.0) Gecko/20100101 Firefox/113.0","","Firefox","113.0","Windows","10.0","82150","","{""fs6"":1,""pds5"":3,""pts1"":2,""fs2"":3,""ecs5"":3,""pts6"":4,""pds4"":2,""pds7"":3,""fs5"":1,""pds3"":3,""ecs1"":3,""ecs6"":3,""pds6"":2,""fs4"":1,""ecs7"":3,""ecs3"":2,""pts5"":3,""fs7"":4,""ecs2"":3,""pts2"":1,""pts4"":2,""pts7"":3,""pts3"":3,""pds2"":2,""fs1"":1,""pds1"":3,""fs3"":3,""ecs4"":3}","[22,18,2,4,17,24,16,26,15,12,1,19,23,11,21,8,20,25,3,7,14,27,10,9,0,5,6,13]"
"","","","","","html-button-response","141","446700","0.0-14.0","94","1","2023-05-30 04:36:10","c5e7288ef5abdde20c6cfc36967cae27","108.196.136.188","Mozilla/5.0 (Windows NT 10.0; Win64; x64; rv:109.0) Gecko/20100101 Firefox/113.0","","Firefox","113.0","Windows","10.0","1952","<p><strong>Which of the following objects or statements do you have a positive or negative feeling towards? </strong></p><p><strong> (1 = ""Very negative"" to 7 = ""Very positive"") </strong></p>","0",""
"","","","","","survey-likert","142","485167","0.0-15.0","94","1","2023-05-30 04:36:10","c5e7288ef5abdde20c6cfc36967cae27","108.196.136.188","Mozilla/5.0 (Windows NT 10.0; Win64; x64; rv:109.0) Gecko/20100101 Firefox/113.0","","Firefox","113.0","Windows","10.0","38463","","{""sdo10"":5,""sdo9"":6,""sdo5"":2,""sdo2"":1,""sdo4"":2,""sdo8"":2,""sdo16"":4,""sdo3"":4,""sdo7"":5,""sdo1"":4,""sdo11"":3,""sdo6"":4,""sdo15"":5,""sdo12"":4,""sdo13"":5,""sdo14"":5}","[9,8,4,1,3,7,15,2,6,0,10,5,14,11,12,13]"
"","","","","","html-button-response","143","490091","0.0-16.0","94","1","2023-05-30 04:36:10","c5e7288ef5abdde20c6cfc36967cae27","108.196.136.188","Mozilla/5.0 (Windows NT 10.0; Win64; x64; rv:109.0) Gecko/20100101 Firefox/113.0","","Firefox","113.0","Windows","10.0","4919","<p><strong>Please indicate the extent you agree with the following statements.</strong></p><strong><p> (1 = ""Strongly Disagree"" to 5 = ""Srongly Agree"") </strong></p>","0",""
"","","","","","survey-likert","144","522790","0.0-17.0","94","1","2023-05-30 04:36:10","c5e7288ef5abdde20c6cfc36967cae27","108.196.136.188","Mozilla/5.0 (Windows NT 10.0; Win64; x64; rv:109.0) Gecko/20100101 Firefox/113.0","","Firefox","113.0","Windows","10.0","32695","","{""caring1"":4,""liking1"":1,""caring2"":3,""protection1"":4,""liking2"":1,""caring3"":3,""protection2"":4,""liking3"":1,""protection3"":3,""caring4"":3,""liking4"":0,""protection4"":3,""caring5"":4,""liking5"":3,""protection5"":3}","[0,1,2,3,4,5,6,7,8,9,10,11,12,13,14]"
"","","","","","html-button-response","145","525898","0.0-18.0","94","1","2023-05-30 04:36:10","c5e7288ef5abdde20c6cfc36967cae27","108.196.136.188","Mozilla/5.0 (Windows NT 10.0; Win64; x64; rv:109.0) Gecko/20100101 Firefox/113.0","","Firefox","113.0","Windows","10.0","3103","<p><strong>Please imagine spercific situations involving children below, and rate the amount of tenderness you would feel in each situation. </strong></p><p><strong> (Ternderness is ""a warm, gentle feeling of sympathetic affection."") </strong></p><strong><p> (1 = ""No tenderness at all"" to 5 = ""A lot of tenderness"") </strong></p>","0",""
"","","","","","survey-likert","146","550444","0.0-19.0","94","1","2023-05-30 04:36:10","c5e7288ef5abdde20c6cfc36967cae27","108.196.136.188","Mozilla/5.0 (Windows NT 10.0; Win64; x64; rv:109.0) Gecko/20100101 Firefox/113.0","","Firefox","113.0","Windows","10.0","24542","","{""tenderness-positive1"":3,""tenderness-negative1"":4,""tenderness-negative2"":1,""tenderness-positive2"":3,""tenderness-positive3"":3,""tenderness-negative3"":2,""tenderness-positive4"":3,""tendereness-negative4"":3,""tendernness-negative5"":4,""tenderness-positive5"":3}","[0,1,2,3,4,5,6,7,8,9]"
"","","","","","survey-multi-choice","147","566889","0.0-20.0","94","1","2023-05-30 04:36:10","c5e7288ef5abdde20c6cfc36967cae27","108.196.136.188","Mozilla/5.0 (Windows NT 10.0; Win64; x64; rv:109.0) Gecko/20100101 Firefox/113.0","","Firefox","113.0","Windows","10.0","16441","","{""Attention2"":""Other""}","[0]"
"","","","","","html-button-response","148","568571","0.0-21.0","94","1","2023-05-30 04:36:10","c5e7288ef5abdde20c6cfc36967cae27","108.196.136.188","Mozilla/5.0 (Windows NT 10.0; Win64; x64; rv:109.0) Gecko/20100101 Firefox/113.0","","Firefox","113.0","Windows","10.0","1679","<p><strong>Please indicate the extent you agree with the following statements.</strong></p>","0",""
"","","","","","survey-likert","149","629337","0.0-22.0","94","1","2023-05-30 04:36:10","c5e7288ef5abdde20c6cfc36967cae27","108.196.136.188","Mozilla/5.0 (Windows NT 10.0; Win64; x64; rv:109.0) Gecko/20100101 Firefox/113.0","","Firefox","113.0","Windows","10.0","60762","","{""Patri6"":1,""Nation1"":2,""Patri9"":3,""Nation7"":3,""Patri8"":2,""Nation8"":3,""Patri7"":3,""Patri10"":3,""Nation5"":4,""Patri1"":3,""Patri5"":3,""Patri11"":2,""Nation2"":3,""Patri3"":1,""Patri4"":2,""Nation4"":3,""Patri12"":3,""Patri2"":4,""Nation3"":3,""Nation6"":2}","[5,12,8,18,7,19,6,9,16,0,4,10,13,2,3,15,11,1,14,17]"
"","","","","","html-button-response","150","631214","0.0-23.0","94","1","2023-05-30 04:36:10","c5e7288ef5abdde20c6cfc36967cae27","108.196.136.188","Mozilla/5.0 (Windows NT 10.0; Win64; x64; rv:109.0) Gecko/20100101 Firefox/113.0","","Firefox","113.0","Windows","10.0","1872","<p><strong>Please indicate the extent you agree with the following statements. </p><p>(1 = ""never or definitely no"" and 9 = ""always or definitely yes"".)</strong></p>","0",""
"","","","","","survey-likert","151","678624","0.0-24.0","94","1","2023-05-30 04:36:10","c5e7288ef5abdde20c6cfc36967cae27","108.196.136.188","Mozilla/5.0 (Windows NT 10.0; Win64; x64; rv:109.0) Gecko/20100101 Firefox/113.0","","Firefox","113.0","Windows","10.0","47404","","{""hc3"":6,""vc3"":7,""vi4"":5,""hi2"":6,""hi3"":6,""hc4"":7,""vc2"":5,""vi2"":2,""vc1"":5,""vi1"":6,""hi1"":6,""vc4"":7,""vi3"":6,""hc2"":7,""hc1"":5,""Robot2"":6,""hi4"":6}","[11,15,8,1,2,12,14,5,13,4,0,16,6,10,9,7,3]"
"","","","","","survey-text","152","693381","0.0-25.0","94","1","2023-05-30 04:36:10","c5e7288ef5abdde20c6cfc36967cae27","108.196.136.188","Mozilla/5.0 (Windows NT 10.0; Win64; x64; rv:109.0) Gecko/20100101 Firefox/113.0","","Firefox","113.0","Windows","10.0","14749","","{""ID"":""A2X0O6DN8NQWCJ"",""Comments"":""no""}",""
"","","","","","html-button-response","153","704182","0.0-26.0","94","1","2023-05-30 04:36:10","c5e7288ef5abdde20c6cfc36967cae27","108.196.136.188","Mozilla/5.0 (Windows NT 10.0; Win64; x64; rv:109.0) Gecko/20100101 Firefox/113.0","","Firefox","113.0","Windows","10.0","10798","<p><strong>Congratulations! </strong> Your have finished all the survey. Thank you for your participation!</p><p><strong>Here is your complete token:</strong></p>120icwyj5i7ehxcug3c4fnathf<p></p><p><strong>Please copy it to the mTurk page.</strong></p>","0",""
