"success","timeout","failed_images","failed_audio","failed_video","trial_type","trial_index","time_elapsed","internal_node_id","run_id","condition","recorded_at","source_code_version","ip","user_agent","device","browser","browser_version","platform","platform_version","rt","stimulus","response","question_order"
"true","false","[]","[]","[]","preload","0","1497","0.0-0.0","104","1","2022-10-07 11:53:07","d60b49b5908c80e163b920d72b52d584","183.230.199.74","Mozilla/5.0 (Windows NT 10.0; Win64; x64) AppleWebKit/537.36 (KHTML, like Gecko) Chrome/105.0.0.0 Safari/537.36 Edg/105.0.1343.53","WebKit","Edge","105.0.1343.53","Windows","10.0","","","",""
"true","","","","","fullscreen","1","24283","0.0-1.0","104","1","2022-10-07 11:53:07","d60b49b5908c80e163b920d72b52d584","183.230.199.74","Mozilla/5.0 (Windows NT 10.0; Win64; x64) AppleWebKit/537.36 (KHTML, like Gecko) Chrome/105.0.0.0 Safari/537.36 Edg/105.0.1343.53","WebKit","Edge","105.0.1343.53","Windows","10.0","","","",""
"","","","","","html-button-response","2","30542","0.0-2.0","104","1","2022-10-07 11:53:07","d60b49b5908c80e163b920d72b52d584","183.230.199.74","Mozilla/5.0 (Windows NT 10.0; Win64; x64) AppleWebKit/537.36 (KHTML, like Gecko) Chrome/105.0.0.0 Safari/537.36 Edg/105.0.1343.53","WebKit","Edge","105.0.1343.53","Windows","10.0","6255","<p style=""font-size:20px;font-weight:bold;"">实验知情同意书</p><p style=""text-align:left;""><strong>实验名称：</strong>社会冲突研究</p><p style=""text-align:left;""><strong>主要研究者：</strong>韩晓春副教授（北京师范大学心理学部）</p><p style=""text-align:left;""><strong>联系方式：</strong>发送邮件至xiaochun.han@bnu.edu.cn</p><p style=""text-align:left;""><strong>研究目的：</strong>研究旨在了解人类面对群体冲突时的决策方式，以及相关的心理学特质。实验调查大约需要20分钟。</p><p style=""text-align:left;""><strong>实验流程：</strong>实验包含两部分。第一部分呈现一系列群体冲突场景，请你决定如何对这些冲突进行反应，大约需要10分钟完成。第二部分包含一系列人口统计学信息收集和心理学问卷，大约需要10分钟完成。</p><p style=""text-align:left;""><strong>参加及退出规则：</strong>参加本实验完全取决于您的个人意愿。在参与过程中，您可以随时退出，并且不用承担任何后果。</p><p style=""text-align:left;""><strong>隐私：</strong>本实验完全匿名进行，不会收集您的姓名或其他能够识别您身份的信息。实验中收集的作答仅用作科学研究使用，可能会在学术期刊/书籍上发表，或者用于教学，您的数据未来可能会和其他研究者或实验室分享，但您的个人身份不会被识别。</p><p style=""text-align:left;""><strong>实验报酬：</strong>实验完成后，您将获得15元人民币报酬，以感谢您的时间和努力。调查问卷中包含几道题目用以测验您作答时的认真度。只有完成全部实验，并且正确回答认真度测验的被试才能获得实验报酬。实验报酬将通过支付宝转账发放。</p><p style=""text-align:left;font-size:20px;""><strong>如果您同意以上实验知情同意书的内容，请点击'同意并且开始实验'按钮；否则请关闭浏览器界面，退出实验。</strong></p>","0",""
"","","","","","html-button-response","3","31812","0.0-3.0","104","1","2022-10-07 11:53:07","d60b49b5908c80e163b920d72b52d584","183.230.199.74","Mozilla/5.0 (Windows NT 10.0; Win64; x64) AppleWebKit/537.36 (KHTML, like Gecko) Chrome/105.0.0.0 Safari/537.36 Edg/105.0.1343.53","WebKit","Edge","105.0.1343.53","Windows","10.0","1268","<p ><strong>实验任务一：</strong></p><p>请想象你的国家与另一个国家发生了军事冲突。</p><p>你是国家军队的指挥官，你将如何在冲突中进行决策。</p><p>具体来说，作为军队指挥官，请你决定是否发射导弹进行打击。</p><p>接下来，你会面对一系列场景，请仔细阅读每个场景，然后进行决策。</p><p>这部分实验任务大约需要10分钟。</p><p><strong>实验过程中，请集中注意力。</strong></p>","0",""
"","","","","","html-keyboard-response","4","32820","0.0-4.0-0.0","104","1","2022-10-07 11:53:07","d60b49b5908c80e163b920d72b52d584","183.230.199.74","Mozilla/5.0 (Windows NT 10.0; Win64; x64) AppleWebKit/537.36 (KHTML, like Gecko) Chrome/105.0.0.0 Safari/537.36 Edg/105.0.1343.53","WebKit","Edge","105.0.1343.53","Windows","10.0","null","<div style=""font-size:60px;"">+</div>","null",""
"","","","","","html-button-response","5","43311","0.0-4.0-1.0","104","1","2022-10-07 11:53:07","d60b49b5908c80e163b920d72b52d584","183.230.199.74","Mozilla/5.0 (Windows NT 10.0; Win64; x64) AppleWebKit/537.36 (KHTML, like Gecko) Chrome/105.0.0.0 Safari/537.36 Edg/105.0.1343.53","WebKit","Edge","105.0.1343.53","Windows","10.0","10487","<p>作为军队的指挥官，你可以选择发射导弹杀死 <strong>2名</strong> 敌国士兵，但会炸毁附近的 <strong>1棵</strong> 敌国树木。</p> <p>树木的照片如下图所示。</p> <p></p> <img src='stimuli/trees/2.png', style='max-width: 30%;'> </img> <p><strong>你是否选择发射武器？</strong></p>","0",""
"","","","","","html-keyboard-response","6","44322","0.0-4.0-0.1","104","1","2022-10-07 11:53:07","d60b49b5908c80e163b920d72b52d584","183.230.199.74","Mozilla/5.0 (Windows NT 10.0; Win64; x64) AppleWebKit/537.36 (KHTML, like Gecko) Chrome/105.0.0.0 Safari/537.36 Edg/105.0.1343.53","WebKit","Edge","105.0.1343.53","Windows","10.0","null","<div style=""font-size:60px;"">+</div>","null",""
"","","","","","html-button-response","7","51886","0.0-4.0-1.1","104","1","2022-10-07 11:53:07","d60b49b5908c80e163b920d72b52d584","183.230.199.74","Mozilla/5.0 (Windows NT 10.0; Win64; x64) AppleWebKit/537.36 (KHTML, like Gecko) Chrome/105.0.0.0 Safari/537.36 Edg/105.0.1343.53","WebKit","Edge","105.0.1343.53","Windows","10.0","7559","<p>作为军队的指挥官，你可以选择发射导弹杀死 <strong>9名</strong> 敌国士兵，但会误杀附近的 <strong>1名</strong> 敌国平民。</p> <p>平民照片如下图所示。</p> <p></p> <img src='stimuli/faces/NCM2.jpg', style='max-width: 30%;'> </img> <p><strong>你是否选择发射武器？</strong></p>","0",""
"","","","","","html-keyboard-response","8","52895","0.0-4.0-0.2","104","1","2022-10-07 11:53:07","d60b49b5908c80e163b920d72b52d584","183.230.199.74","Mozilla/5.0 (Windows NT 10.0; Win64; x64) AppleWebKit/537.36 (KHTML, like Gecko) Chrome/105.0.0.0 Safari/537.36 Edg/105.0.1343.53","WebKit","Edge","105.0.1343.53","Windows","10.0","null","<div style=""font-size:60px;"">+</div>","null",""
"","","","","","html-button-response","9","55814","0.0-4.0-1.2","104","1","2022-10-07 11:53:07","d60b49b5908c80e163b920d72b52d584","183.230.199.74","Mozilla/5.0 (Windows NT 10.0; Win64; x64) AppleWebKit/537.36 (KHTML, like Gecko) Chrome/105.0.0.0 Safari/537.36 Edg/105.0.1343.53","WebKit","Edge","105.0.1343.53","Windows","10.0","2918","<p>作为军队的指挥官，你可以选择发射导弹杀死 <strong>4名</strong> 敌国士兵，但会炸毁附近的 <strong>1棵</strong> 敌国树木。</p> <p>树木的照片如下图所示。</p> <p></p> <img src='stimuli/trees/14.png', style='max-width: 30%;'> </img> <p><strong>你是否选择发射武器？</strong></p>","0",""
"","","","","","html-keyboard-response","10","56818","0.0-4.0-0.3","104","1","2022-10-07 11:53:07","d60b49b5908c80e163b920d72b52d584","183.230.199.74","Mozilla/5.0 (Windows NT 10.0; Win64; x64) AppleWebKit/537.36 (KHTML, like Gecko) Chrome/105.0.0.0 Safari/537.36 Edg/105.0.1343.53","WebKit","Edge","105.0.1343.53","Windows","10.0","null","<div style=""font-size:60px;"">+</div>","null",""
"","","","","","html-button-response","11","59966","0.0-4.0-1.3","104","1","2022-10-07 11:53:07","d60b49b5908c80e163b920d72b52d584","183.230.199.74","Mozilla/5.0 (Windows NT 10.0; Win64; x64) AppleWebKit/537.36 (KHTML, like Gecko) Chrome/105.0.0.0 Safari/537.36 Edg/105.0.1343.53","WebKit","Edge","105.0.1343.53","Windows","10.0","3144","<p>作为军队的指挥官，你可以选择发射导弹杀死 <strong>2名</strong> 敌国士兵，但会炸毁附近的 <strong>1棵</strong> 敌国树木。</p> <p>树木的照片如下图所示。</p> <p></p> <img src='stimuli/trees/4.png', style='max-width: 30%;'> </img> <p><strong>你是否选择发射武器？</strong></p>","0",""
"","","","","","html-keyboard-response","12","60970","0.0-4.0-0.4","104","1","2022-10-07 11:53:07","d60b49b5908c80e163b920d72b52d584","183.230.199.74","Mozilla/5.0 (Windows NT 10.0; Win64; x64) AppleWebKit/537.36 (KHTML, like Gecko) Chrome/105.0.0.0 Safari/537.36 Edg/105.0.1343.53","WebKit","Edge","105.0.1343.53","Windows","10.0","null","<div style=""font-size:60px;"">+</div>","null",""
"","","","","","html-button-response","13","64078","0.0-4.0-1.4","104","1","2022-10-07 11:53:07","d60b49b5908c80e163b920d72b52d584","183.230.199.74","Mozilla/5.0 (Windows NT 10.0; Win64; x64) AppleWebKit/537.36 (KHTML, like Gecko) Chrome/105.0.0.0 Safari/537.36 Edg/105.0.1343.53","WebKit","Edge","105.0.1343.53","Windows","10.0","3106","<p>作为军队的指挥官，你可以选择发射导弹杀死 <strong>9名</strong> 敌国士兵，但会误杀附近的 <strong>1名</strong> 敌国平民。</p> <p>平民照片如下图所示。</p> <p></p> <img src='stimuli/faces/NCM7.jpg', style='max-width: 30%;'> </img> <p><strong>你是否选择发射武器？</strong></p>","0",""
"","","","","","html-keyboard-response","14","65084","0.0-4.0-0.5","104","1","2022-10-07 11:53:07","d60b49b5908c80e163b920d72b52d584","183.230.199.74","Mozilla/5.0 (Windows NT 10.0; Win64; x64) AppleWebKit/537.36 (KHTML, like Gecko) Chrome/105.0.0.0 Safari/537.36 Edg/105.0.1343.53","WebKit","Edge","105.0.1343.53","Windows","10.0","null","<div style=""font-size:60px;"">+</div>","null",""
"","","","","","html-button-response","15","66914","0.0-4.0-1.5","104","1","2022-10-07 11:53:07","d60b49b5908c80e163b920d72b52d584","183.230.199.74","Mozilla/5.0 (Windows NT 10.0; Win64; x64) AppleWebKit/537.36 (KHTML, like Gecko) Chrome/105.0.0.0 Safari/537.36 Edg/105.0.1343.53","WebKit","Edge","105.0.1343.53","Windows","10.0","1828","<p>作为军队的指挥官，你可以选择发射导弹杀死 <strong>1名</strong> 敌国士兵，但会误杀附近的 <strong>1名</strong> 敌国平民。</p> <p>平民照片如下图所示。</p> <p></p> <img src='stimuli/faces/NCM8.jpg', style='max-width: 30%;'> </img> <p><strong>你是否选择发射武器？</strong></p>","0",""
"","","","","","html-keyboard-response","16","67923","0.0-4.0-0.6","104","1","2022-10-07 11:53:07","d60b49b5908c80e163b920d72b52d584","183.230.199.74","Mozilla/5.0 (Windows NT 10.0; Win64; x64) AppleWebKit/537.36 (KHTML, like Gecko) Chrome/105.0.0.0 Safari/537.36 Edg/105.0.1343.53","WebKit","Edge","105.0.1343.53","Windows","10.0","null","<div style=""font-size:60px;"">+</div>","null",""
"","","","","","html-button-response","17","69934","0.0-4.0-1.6","104","1","2022-10-07 11:53:07","d60b49b5908c80e163b920d72b52d584","183.230.199.74","Mozilla/5.0 (Windows NT 10.0; Win64; x64) AppleWebKit/537.36 (KHTML, like Gecko) Chrome/105.0.0.0 Safari/537.36 Edg/105.0.1343.53","WebKit","Edge","105.0.1343.53","Windows","10.0","2010","<p>作为军队的指挥官，你可以选择发射导弹杀死 <strong>5名</strong> 敌国士兵，但会误杀附近的 <strong>1名</strong> 敌国平民。</p> <p>平民照片如下图所示。</p> <p></p> <img src='stimuli/faces/NCF6.jpg', style='max-width: 30%;'> </img> <p><strong>你是否选择发射武器？</strong></p>","1",""
"","","","","","html-keyboard-response","18","70938","0.0-4.0-0.7","104","1","2022-10-07 11:53:07","d60b49b5908c80e163b920d72b52d584","183.230.199.74","Mozilla/5.0 (Windows NT 10.0; Win64; x64) AppleWebKit/537.36 (KHTML, like Gecko) Chrome/105.0.0.0 Safari/537.36 Edg/105.0.1343.53","WebKit","Edge","105.0.1343.53","Windows","10.0","null","<div style=""font-size:60px;"">+</div>","null",""
"","","","","","html-button-response","19","73766","0.0-4.0-1.7","104","1","2022-10-07 11:53:07","d60b49b5908c80e163b920d72b52d584","183.230.199.74","Mozilla/5.0 (Windows NT 10.0; Win64; x64) AppleWebKit/537.36 (KHTML, like Gecko) Chrome/105.0.0.0 Safari/537.36 Edg/105.0.1343.53","WebKit","Edge","105.0.1343.53","Windows","10.0","2824","<p>作为军队的指挥官，你可以选择发射导弹杀死 <strong>7名</strong> 敌国士兵，但会误杀附近的 <strong>1名</strong> 敌国平民。</p> <p>平民照片如下图所示。</p> <p></p> <img src='stimuli/faces/NCF3.jpg', style='max-width: 30%;'> </img> <p><strong>你是否选择发射武器？</strong></p>","1",""
"","","","","","html-keyboard-response","20","74770","0.0-4.0-0.8","104","1","2022-10-07 11:53:07","d60b49b5908c80e163b920d72b52d584","183.230.199.74","Mozilla/5.0 (Windows NT 10.0; Win64; x64) AppleWebKit/537.36 (KHTML, like Gecko) Chrome/105.0.0.0 Safari/537.36 Edg/105.0.1343.53","WebKit","Edge","105.0.1343.53","Windows","10.0","null","<div style=""font-size:60px;"">+</div>","null",""
"","","","","","html-button-response","21","76738","0.0-4.0-1.8","104","1","2022-10-07 11:53:07","d60b49b5908c80e163b920d72b52d584","183.230.199.74","Mozilla/5.0 (Windows NT 10.0; Win64; x64) AppleWebKit/537.36 (KHTML, like Gecko) Chrome/105.0.0.0 Safari/537.36 Edg/105.0.1343.53","WebKit","Edge","105.0.1343.53","Windows","10.0","1966","<p>作为军队的指挥官，你可以选择发射导弹杀死 <strong>1名</strong> 敌国士兵，但会炸毁附近的 <strong>1棵</strong> 敌国树木。</p> <p>树木的照片如下图所示。</p> <p></p> <img src='stimuli/trees/1.png', style='max-width: 30%;'> </img> <p><strong>你是否选择发射武器？</strong></p>","1",""
"","","","","","html-keyboard-response","22","77743","0.0-4.0-0.9","104","1","2022-10-07 11:53:07","d60b49b5908c80e163b920d72b52d584","183.230.199.74","Mozilla/5.0 (Windows NT 10.0; Win64; x64) AppleWebKit/537.36 (KHTML, like Gecko) Chrome/105.0.0.0 Safari/537.36 Edg/105.0.1343.53","WebKit","Edge","105.0.1343.53","Windows","10.0","null","<div style=""font-size:60px;"">+</div>","null",""
"","","","","","html-button-response","23","80018","0.0-4.0-1.9","104","1","2022-10-07 11:53:07","d60b49b5908c80e163b920d72b52d584","183.230.199.74","Mozilla/5.0 (Windows NT 10.0; Win64; x64) AppleWebKit/537.36 (KHTML, like Gecko) Chrome/105.0.0.0 Safari/537.36 Edg/105.0.1343.53","WebKit","Edge","105.0.1343.53","Windows","10.0","2273","<p>作为军队的指挥官，你可以选择发射导弹杀死 <strong>10名</strong> 敌国士兵，但会误杀附近的 <strong>1名</strong> 敌国平民。</p> <p>平民照片如下图所示。</p> <p></p> <img src='stimuli/faces/NCM3.jpg', style='max-width: 30%;'> </img> <p><strong>你是否选择发射武器？</strong></p>","0",""
"","","","","","html-keyboard-response","24","81032","0.0-4.0-0.10","104","1","2022-10-07 11:53:07","d60b49b5908c80e163b920d72b52d584","183.230.199.74","Mozilla/5.0 (Windows NT 10.0; Win64; x64) AppleWebKit/537.36 (KHTML, like Gecko) Chrome/105.0.0.0 Safari/537.36 Edg/105.0.1343.53","WebKit","Edge","105.0.1343.53","Windows","10.0","null","<div style=""font-size:60px;"">+</div>","null",""
"","","","","","html-button-response","25","84014","0.0-4.0-1.10","104","1","2022-10-07 11:53:07","d60b49b5908c80e163b920d72b52d584","183.230.199.74","Mozilla/5.0 (Windows NT 10.0; Win64; x64) AppleWebKit/537.36 (KHTML, like Gecko) Chrome/105.0.0.0 Safari/537.36 Edg/105.0.1343.53","WebKit","Edge","105.0.1343.53","Windows","10.0","2980","<p>作为军队的指挥官，你可以选择发射导弹杀死 <strong>6名</strong> 敌国士兵，但会炸毁附近的 <strong>1棵</strong> 敌国树木。</p> <p>树木的照片如下图所示。</p> <p></p> <img src='stimuli/trees/10.png', style='max-width: 30%;'> </img> <p><strong>你是否选择发射武器？</strong></p>","0",""
"","","","","","html-keyboard-response","26","85024","0.0-4.0-0.11","104","1","2022-10-07 11:53:07","d60b49b5908c80e163b920d72b52d584","183.230.199.74","Mozilla/5.0 (Windows NT 10.0; Win64; x64) AppleWebKit/537.36 (KHTML, like Gecko) Chrome/105.0.0.0 Safari/537.36 Edg/105.0.1343.53","WebKit","Edge","105.0.1343.53","Windows","10.0","null","<div style=""font-size:60px;"">+</div>","null",""
"","","","","","html-button-response","27","87422","0.0-4.0-1.11","104","1","2022-10-07 11:53:07","d60b49b5908c80e163b920d72b52d584","183.230.199.74","Mozilla/5.0 (Windows NT 10.0; Win64; x64) AppleWebKit/537.36 (KHTML, like Gecko) Chrome/105.0.0.0 Safari/537.36 Edg/105.0.1343.53","WebKit","Edge","105.0.1343.53","Windows","10.0","2395","<p>作为军队的指挥官，你可以选择发射导弹杀死 <strong>1名</strong> 敌国士兵，但会误杀附近的 <strong>1名</strong> 敌国平民。</p> <p>平民照片如下图所示。</p> <p></p> <img src='stimuli/faces/NCM1.jpg', style='max-width: 30%;'> </img> <p><strong>你是否选择发射武器？</strong></p>","0",""
"","","","","","html-keyboard-response","28","88425","0.0-4.0-0.12","104","1","2022-10-07 11:53:07","d60b49b5908c80e163b920d72b52d584","183.230.199.74","Mozilla/5.0 (Windows NT 10.0; Win64; x64) AppleWebKit/537.36 (KHTML, like Gecko) Chrome/105.0.0.0 Safari/537.36 Edg/105.0.1343.53","WebKit","Edge","105.0.1343.53","Windows","10.0","null","<div style=""font-size:60px;"">+</div>","null",""
"","","","","","html-button-response","29","92526","0.0-4.0-1.12","104","1","2022-10-07 11:53:07","d60b49b5908c80e163b920d72b52d584","183.230.199.74","Mozilla/5.0 (Windows NT 10.0; Win64; x64) AppleWebKit/537.36 (KHTML, like Gecko) Chrome/105.0.0.0 Safari/537.36 Edg/105.0.1343.53","WebKit","Edge","105.0.1343.53","Windows","10.0","4098","<p>作为军队的指挥官，你可以选择发射导弹杀死 <strong>5名</strong> 敌国士兵，但会炸毁附近的 <strong>1棵</strong> 敌国树木。</p> <p>树木的照片如下图所示。</p> <p></p> <img src='stimuli/trees/6.png', style='max-width: 30%;'> </img> <p><strong>你是否选择发射武器？</strong></p>","1",""
"","","","","","html-keyboard-response","30","93533","0.0-4.0-0.13","104","1","2022-10-07 11:53:07","d60b49b5908c80e163b920d72b52d584","183.230.199.74","Mozilla/5.0 (Windows NT 10.0; Win64; x64) AppleWebKit/537.36 (KHTML, like Gecko) Chrome/105.0.0.0 Safari/537.36 Edg/105.0.1343.53","WebKit","Edge","105.0.1343.53","Windows","10.0","null","<div style=""font-size:60px;"">+</div>","null",""
"","","","","","html-button-response","31","97482","0.0-4.0-1.13","104","1","2022-10-07 11:53:07","d60b49b5908c80e163b920d72b52d584","183.230.199.74","Mozilla/5.0 (Windows NT 10.0; Win64; x64) AppleWebKit/537.36 (KHTML, like Gecko) Chrome/105.0.0.0 Safari/537.36 Edg/105.0.1343.53","WebKit","Edge","105.0.1343.53","Windows","10.0","3947","<p>作为军队的指挥官，你可以选择发射导弹杀死 <strong>2名</strong> 敌国士兵，但会误杀附近的 <strong>1名</strong> 敌国平民。</p> <p>平民照片如下图所示。</p> <p></p> <img src='stimuli/faces/NCM5.jpg', style='max-width: 30%;'> </img> <p><strong>你是否选择发射武器？</strong></p>","0",""
"","","","","","html-keyboard-response","32","98503","0.0-4.0-0.14","104","1","2022-10-07 11:53:07","d60b49b5908c80e163b920d72b52d584","183.230.199.74","Mozilla/5.0 (Windows NT 10.0; Win64; x64) AppleWebKit/537.36 (KHTML, like Gecko) Chrome/105.0.0.0 Safari/537.36 Edg/105.0.1343.53","WebKit","Edge","105.0.1343.53","Windows","10.0","null","<div style=""font-size:60px;"">+</div>","null",""
"","","","","","html-button-response","33","102618","0.0-4.0-1.14","104","1","2022-10-07 11:53:07","d60b49b5908c80e163b920d72b52d584","183.230.199.74","Mozilla/5.0 (Windows NT 10.0; Win64; x64) AppleWebKit/537.36 (KHTML, like Gecko) Chrome/105.0.0.0 Safari/537.36 Edg/105.0.1343.53","WebKit","Edge","105.0.1343.53","Windows","10.0","4113","<p>作为军队的指挥官，你可以选择发射导弹杀死 <strong>1名</strong> 敌国士兵，但会误杀附近的 <strong>1名</strong> 敌国平民。</p> <p>平民照片如下图所示。</p> <p></p> <img src='stimuli/faces/NCM2.jpg', style='max-width: 30%;'> </img> <p><strong>你是否选择发射武器？</strong></p>","1",""
"","","","","","html-keyboard-response","34","103645","0.0-4.0-0.15","104","1","2022-10-07 11:53:07","d60b49b5908c80e163b920d72b52d584","183.230.199.74","Mozilla/5.0 (Windows NT 10.0; Win64; x64) AppleWebKit/537.36 (KHTML, like Gecko) Chrome/105.0.0.0 Safari/537.36 Edg/105.0.1343.53","WebKit","Edge","105.0.1343.53","Windows","10.0","null","<div style=""font-size:60px;"">+</div>","null",""
"","","","","","html-button-response","35","106859","0.0-4.0-1.15","104","1","2022-10-07 11:53:07","d60b49b5908c80e163b920d72b52d584","183.230.199.74","Mozilla/5.0 (Windows NT 10.0; Win64; x64) AppleWebKit/537.36 (KHTML, like Gecko) Chrome/105.0.0.0 Safari/537.36 Edg/105.0.1343.53","WebKit","Edge","105.0.1343.53","Windows","10.0","3212","<p>作为军队的指挥官，你可以选择发射导弹杀死 <strong>6名</strong> 敌国士兵，但会误杀附近的 <strong>1名</strong> 敌国平民。</p> <p>平民照片如下图所示。</p> <p></p> <img src='stimuli/faces/NCF1.jpg', style='max-width: 30%;'> </img> <p><strong>你是否选择发射武器？</strong></p>","0",""
"","","","","","html-keyboard-response","36","107874","0.0-4.0-0.16","104","1","2022-10-07 11:53:07","d60b49b5908c80e163b920d72b52d584","183.230.199.74","Mozilla/5.0 (Windows NT 10.0; Win64; x64) AppleWebKit/537.36 (KHTML, like Gecko) Chrome/105.0.0.0 Safari/537.36 Edg/105.0.1343.53","WebKit","Edge","105.0.1343.53","Windows","10.0","null","<div style=""font-size:60px;"">+</div>","null",""
"","","","","","html-button-response","37","109239","0.0-4.0-1.16","104","1","2022-10-07 11:53:07","d60b49b5908c80e163b920d72b52d584","183.230.199.74","Mozilla/5.0 (Windows NT 10.0; Win64; x64) AppleWebKit/537.36 (KHTML, like Gecko) Chrome/105.0.0.0 Safari/537.36 Edg/105.0.1343.53","WebKit","Edge","105.0.1343.53","Windows","10.0","1360","<p>作为军队的指挥官，你可以选择发射导弹杀死 <strong>4名</strong> 敌国士兵，但会炸毁附近的 <strong>1棵</strong> 敌国树木。</p> <p>树木的照片如下图所示。</p> <p></p> <img src='stimuli/trees/10.png', style='max-width: 30%;'> </img> <p><strong>你是否选择发射武器？</strong></p>","0",""
"","","","","","html-keyboard-response","38","110245","0.0-4.0-0.17","104","1","2022-10-07 11:53:07","d60b49b5908c80e163b920d72b52d584","183.230.199.74","Mozilla/5.0 (Windows NT 10.0; Win64; x64) AppleWebKit/537.36 (KHTML, like Gecko) Chrome/105.0.0.0 Safari/537.36 Edg/105.0.1343.53","WebKit","Edge","105.0.1343.53","Windows","10.0","null","<div style=""font-size:60px;"">+</div>","null",""
"","","","","","html-button-response","39","112482","0.0-4.0-1.17","104","1","2022-10-07 11:53:07","d60b49b5908c80e163b920d72b52d584","183.230.199.74","Mozilla/5.0 (Windows NT 10.0; Win64; x64) AppleWebKit/537.36 (KHTML, like Gecko) Chrome/105.0.0.0 Safari/537.36 Edg/105.0.1343.53","WebKit","Edge","105.0.1343.53","Windows","10.0","2230","<p>作为军队的指挥官，你可以选择发射导弹杀死 <strong>10名</strong> 敌国士兵，但会误杀附近的 <strong>1名</strong> 敌国平民。</p> <p>平民照片如下图所示。</p> <p></p> <img src='stimuli/faces/NCF4.jpg', style='max-width: 30%;'> </img> <p><strong>你是否选择发射武器？</strong></p>","1",""
"","","","","","html-keyboard-response","40","113487","0.0-4.0-0.18","104","1","2022-10-07 11:53:07","d60b49b5908c80e163b920d72b52d584","183.230.199.74","Mozilla/5.0 (Windows NT 10.0; Win64; x64) AppleWebKit/537.36 (KHTML, like Gecko) Chrome/105.0.0.0 Safari/537.36 Edg/105.0.1343.53","WebKit","Edge","105.0.1343.53","Windows","10.0","null","<div style=""font-size:60px;"">+</div>","null",""
"","","","","","html-button-response","41","117099","0.0-4.0-1.18","104","1","2022-10-07 11:53:07","d60b49b5908c80e163b920d72b52d584","183.230.199.74","Mozilla/5.0 (Windows NT 10.0; Win64; x64) AppleWebKit/537.36 (KHTML, like Gecko) Chrome/105.0.0.0 Safari/537.36 Edg/105.0.1343.53","WebKit","Edge","105.0.1343.53","Windows","10.0","3604","<p>作为军队的指挥官，你可以选择发射导弹杀死 <strong>6名</strong> 敌国士兵，但会误杀附近的 <strong>1名</strong> 敌国平民。</p> <p>平民照片如下图所示。</p> <p></p> <img src='stimuli/faces/NCF6.jpg', style='max-width: 30%;'> </img> <p><strong>你是否选择发射武器？</strong></p>","0",""
"","","","","","html-keyboard-response","42","118114","0.0-4.0-0.19","104","1","2022-10-07 11:53:07","d60b49b5908c80e163b920d72b52d584","183.230.199.74","Mozilla/5.0 (Windows NT 10.0; Win64; x64) AppleWebKit/537.36 (KHTML, like Gecko) Chrome/105.0.0.0 Safari/537.36 Edg/105.0.1343.53","WebKit","Edge","105.0.1343.53","Windows","10.0","null","<div style=""font-size:60px;"">+</div>","null",""
"","","","","","html-button-response","43","119422","0.0-4.0-1.19","104","1","2022-10-07 11:53:07","d60b49b5908c80e163b920d72b52d584","183.230.199.74","Mozilla/5.0 (Windows NT 10.0; Win64; x64) AppleWebKit/537.36 (KHTML, like Gecko) Chrome/105.0.0.0 Safari/537.36 Edg/105.0.1343.53","WebKit","Edge","105.0.1343.53","Windows","10.0","1302","<p>作为军队的指挥官，你可以选择发射导弹杀死 <strong>9名</strong> 敌国士兵，但会误杀附近的 <strong>1名</strong> 敌国平民。</p> <p>平民照片如下图所示。</p> <p></p> <img src='stimuli/faces/NCM4.jpg', style='max-width: 30%;'> </img> <p><strong>你是否选择发射武器？</strong></p>","1",""
"","","","","","html-keyboard-response","44","120438","0.0-4.0-0.20","104","1","2022-10-07 11:53:07","d60b49b5908c80e163b920d72b52d584","183.230.199.74","Mozilla/5.0 (Windows NT 10.0; Win64; x64) AppleWebKit/537.36 (KHTML, like Gecko) Chrome/105.0.0.0 Safari/537.36 Edg/105.0.1343.53","WebKit","Edge","105.0.1343.53","Windows","10.0","null","<div style=""font-size:60px;"">+</div>","null",""
"","","","","","html-button-response","45","121619","0.0-4.0-1.20","104","1","2022-10-07 11:53:07","d60b49b5908c80e163b920d72b52d584","183.230.199.74","Mozilla/5.0 (Windows NT 10.0; Win64; x64) AppleWebKit/537.36 (KHTML, like Gecko) Chrome/105.0.0.0 Safari/537.36 Edg/105.0.1343.53","WebKit","Edge","105.0.1343.53","Windows","10.0","1174","<p>作为军队的指挥官，你可以选择发射导弹杀死 <strong>4名</strong> 敌国士兵，但会炸毁附近的 <strong>1棵</strong> 敌国树木。</p> <p>树木的照片如下图所示。</p> <p></p> <img src='stimuli/trees/8.png', style='max-width: 30%;'> </img> <p><strong>你是否选择发射武器？</strong></p>","0",""
"","","","","","html-keyboard-response","46","122631","0.0-4.0-0.21","104","1","2022-10-07 11:53:07","d60b49b5908c80e163b920d72b52d584","183.230.199.74","Mozilla/5.0 (Windows NT 10.0; Win64; x64) AppleWebKit/537.36 (KHTML, like Gecko) Chrome/105.0.0.0 Safari/537.36 Edg/105.0.1343.53","WebKit","Edge","105.0.1343.53","Windows","10.0","null","<div style=""font-size:60px;"">+</div>","null",""
"","","","","","html-button-response","47","124714","0.0-4.0-1.21","104","1","2022-10-07 11:53:07","d60b49b5908c80e163b920d72b52d584","183.230.199.74","Mozilla/5.0 (Windows NT 10.0; Win64; x64) AppleWebKit/537.36 (KHTML, like Gecko) Chrome/105.0.0.0 Safari/537.36 Edg/105.0.1343.53","WebKit","Edge","105.0.1343.53","Windows","10.0","2079","<p>作为军队的指挥官，你可以选择发射导弹杀死 <strong>2名</strong> 敌国士兵，但会误杀附近的 <strong>1名</strong> 敌国平民。</p> <p>平民照片如下图所示。</p> <p></p> <img src='stimuli/faces/NCF5.jpg', style='max-width: 30%;'> </img> <p><strong>你是否选择发射武器？</strong></p>","1",""
"","","","","","html-keyboard-response","48","125718","0.0-4.0-0.22","104","1","2022-10-07 11:53:07","d60b49b5908c80e163b920d72b52d584","183.230.199.74","Mozilla/5.0 (Windows NT 10.0; Win64; x64) AppleWebKit/537.36 (KHTML, like Gecko) Chrome/105.0.0.0 Safari/537.36 Edg/105.0.1343.53","WebKit","Edge","105.0.1343.53","Windows","10.0","null","<div style=""font-size:60px;"">+</div>","null",""
"","","","","","html-button-response","49","129198","0.0-4.0-1.22","104","1","2022-10-07 11:53:07","d60b49b5908c80e163b920d72b52d584","183.230.199.74","Mozilla/5.0 (Windows NT 10.0; Win64; x64) AppleWebKit/537.36 (KHTML, like Gecko) Chrome/105.0.0.0 Safari/537.36 Edg/105.0.1343.53","WebKit","Edge","105.0.1343.53","Windows","10.0","3474","<p>作为军队的指挥官，你可以选择发射导弹杀死 <strong>9名</strong> 敌国士兵，但会炸毁附近的 <strong>1棵</strong> 敌国树木。</p> <p>树木的照片如下图所示。</p> <p></p> <img src='stimuli/trees/7.png', style='max-width: 30%;'> </img> <p><strong>你是否选择发射武器？</strong></p>","0",""
"","","","","","html-keyboard-response","50","130211","0.0-4.0-0.23","104","1","2022-10-07 11:53:07","d60b49b5908c80e163b920d72b52d584","183.230.199.74","Mozilla/5.0 (Windows NT 10.0; Win64; x64) AppleWebKit/537.36 (KHTML, like Gecko) Chrome/105.0.0.0 Safari/537.36 Edg/105.0.1343.53","WebKit","Edge","105.0.1343.53","Windows","10.0","null","<div style=""font-size:60px;"">+</div>","null",""
"","","","","","html-button-response","51","132998","0.0-4.0-1.23","104","1","2022-10-07 11:53:07","d60b49b5908c80e163b920d72b52d584","183.230.199.74","Mozilla/5.0 (Windows NT 10.0; Win64; x64) AppleWebKit/537.36 (KHTML, like Gecko) Chrome/105.0.0.0 Safari/537.36 Edg/105.0.1343.53","WebKit","Edge","105.0.1343.53","Windows","10.0","2786","<p>作为军队的指挥官，你可以选择发射导弹杀死 <strong>10名</strong> 敌国士兵，但会炸毁附近的 <strong>1棵</strong> 敌国树木。</p> <p>树木的照片如下图所示。</p> <p></p> <img src='stimuli/trees/5.png', style='max-width: 30%;'> </img> <p><strong>你是否选择发射武器？</strong></p>","1",""
"","","","","","html-keyboard-response","52","134015","0.0-4.0-0.24","104","1","2022-10-07 11:53:07","d60b49b5908c80e163b920d72b52d584","183.230.199.74","Mozilla/5.0 (Windows NT 10.0; Win64; x64) AppleWebKit/537.36 (KHTML, like Gecko) Chrome/105.0.0.0 Safari/537.36 Edg/105.0.1343.53","WebKit","Edge","105.0.1343.53","Windows","10.0","null","<div style=""font-size:60px;"">+</div>","null",""
"","","","","","html-button-response","53","135922","0.0-4.0-1.24","104","1","2022-10-07 11:53:07","d60b49b5908c80e163b920d72b52d584","183.230.199.74","Mozilla/5.0 (Windows NT 10.0; Win64; x64) AppleWebKit/537.36 (KHTML, like Gecko) Chrome/105.0.0.0 Safari/537.36 Edg/105.0.1343.53","WebKit","Edge","105.0.1343.53","Windows","10.0","1902","<p>作为军队的指挥官，你可以选择发射导弹杀死 <strong>9名</strong> 敌国士兵，但会炸毁附近的 <strong>1棵</strong> 敌国树木。</p> <p>树木的照片如下图所示。</p> <p></p> <img src='stimuli/trees/12.png', style='max-width: 30%;'> </img> <p><strong>你是否选择发射武器？</strong></p>","0",""
"","","","","","html-keyboard-response","54","136926","0.0-4.0-0.25","104","1","2022-10-07 11:53:07","d60b49b5908c80e163b920d72b52d584","183.230.199.74","Mozilla/5.0 (Windows NT 10.0; Win64; x64) AppleWebKit/537.36 (KHTML, like Gecko) Chrome/105.0.0.0 Safari/537.36 Edg/105.0.1343.53","WebKit","Edge","105.0.1343.53","Windows","10.0","null","<div style=""font-size:60px;"">+</div>","null",""
"","","","","","html-button-response","55","138262","0.0-4.0-1.25","104","1","2022-10-07 11:53:07","d60b49b5908c80e163b920d72b52d584","183.230.199.74","Mozilla/5.0 (Windows NT 10.0; Win64; x64) AppleWebKit/537.36 (KHTML, like Gecko) Chrome/105.0.0.0 Safari/537.36 Edg/105.0.1343.53","WebKit","Edge","105.0.1343.53","Windows","10.0","1333","<p>作为军队的指挥官，你可以选择发射导弹杀死 <strong>10名</strong> 敌国士兵，但会炸毁附近的 <strong>1棵</strong> 敌国树木。</p> <p>树木的照片如下图所示。</p> <p></p> <img src='stimuli/trees/1.png', style='max-width: 30%;'> </img> <p><strong>你是否选择发射武器？</strong></p>","1",""
"","","","","","html-keyboard-response","56","139274","0.0-4.0-0.26","104","1","2022-10-07 11:53:07","d60b49b5908c80e163b920d72b52d584","183.230.199.74","Mozilla/5.0 (Windows NT 10.0; Win64; x64) AppleWebKit/537.36 (KHTML, like Gecko) Chrome/105.0.0.0 Safari/537.36 Edg/105.0.1343.53","WebKit","Edge","105.0.1343.53","Windows","10.0","null","<div style=""font-size:60px;"">+</div>","null",""
"","","","","","html-button-response","57","140666","0.0-4.0-1.26","104","1","2022-10-07 11:53:07","d60b49b5908c80e163b920d72b52d584","183.230.199.74","Mozilla/5.0 (Windows NT 10.0; Win64; x64) AppleWebKit/537.36 (KHTML, like Gecko) Chrome/105.0.0.0 Safari/537.36 Edg/105.0.1343.53","WebKit","Edge","105.0.1343.53","Windows","10.0","1389","<p>作为军队的指挥官，你可以选择发射导弹杀死 <strong>9名</strong> 敌国士兵，但会炸毁附近的 <strong>1棵</strong> 敌国树木。</p> <p>树木的照片如下图所示。</p> <p></p> <img src='stimuli/trees/8.png', style='max-width: 30%;'> </img> <p><strong>你是否选择发射武器？</strong></p>","1",""
"","","","","","html-keyboard-response","58","141678","0.0-4.0-0.27","104","1","2022-10-07 11:53:07","d60b49b5908c80e163b920d72b52d584","183.230.199.74","Mozilla/5.0 (Windows NT 10.0; Win64; x64) AppleWebKit/537.36 (KHTML, like Gecko) Chrome/105.0.0.0 Safari/537.36 Edg/105.0.1343.53","WebKit","Edge","105.0.1343.53","Windows","10.0","null","<div style=""font-size:60px;"">+</div>","null",""
"","","","","","html-button-response","59","142838","0.0-4.0-1.27","104","1","2022-10-07 11:53:07","d60b49b5908c80e163b920d72b52d584","183.230.199.74","Mozilla/5.0 (Windows NT 10.0; Win64; x64) AppleWebKit/537.36 (KHTML, like Gecko) Chrome/105.0.0.0 Safari/537.36 Edg/105.0.1343.53","WebKit","Edge","105.0.1343.53","Windows","10.0","1157","<p>作为军队的指挥官，你可以选择发射导弹杀死 <strong>4名</strong> 敌国士兵，但会误杀附近的 <strong>1名</strong> 敌国平民。</p> <p>平民照片如下图所示。</p> <p></p> <img src='stimuli/faces/NCF3.jpg', style='max-width: 30%;'> </img> <p><strong>你是否选择发射武器？</strong></p>","1",""
"","","","","","html-keyboard-response","60","143843","0.0-4.0-0.28","104","1","2022-10-07 11:53:07","d60b49b5908c80e163b920d72b52d584","183.230.199.74","Mozilla/5.0 (Windows NT 10.0; Win64; x64) AppleWebKit/537.36 (KHTML, like Gecko) Chrome/105.0.0.0 Safari/537.36 Edg/105.0.1343.53","WebKit","Edge","105.0.1343.53","Windows","10.0","null","<div style=""font-size:60px;"">+</div>","null",""
"","","","","","html-button-response","61","146646","0.0-4.0-1.28","104","1","2022-10-07 11:53:07","d60b49b5908c80e163b920d72b52d584","183.230.199.74","Mozilla/5.0 (Windows NT 10.0; Win64; x64) AppleWebKit/537.36 (KHTML, like Gecko) Chrome/105.0.0.0 Safari/537.36 Edg/105.0.1343.53","WebKit","Edge","105.0.1343.53","Windows","10.0","2801","<p>作为军队的指挥官，你可以选择发射导弹杀死 <strong>2名</strong> 敌国士兵，但会炸毁附近的 <strong>1棵</strong> 敌国树木。</p> <p>树木的照片如下图所示。</p> <p></p> <img src='stimuli/trees/9.png', style='max-width: 30%;'> </img> <p><strong>你是否选择发射武器？</strong></p>","0",""
"","","","","","html-keyboard-response","62","147657","0.0-4.0-0.29","104","1","2022-10-07 11:53:07","d60b49b5908c80e163b920d72b52d584","183.230.199.74","Mozilla/5.0 (Windows NT 10.0; Win64; x64) AppleWebKit/537.36 (KHTML, like Gecko) Chrome/105.0.0.0 Safari/537.36 Edg/105.0.1343.53","WebKit","Edge","105.0.1343.53","Windows","10.0","null","<div style=""font-size:60px;"">+</div>","null",""
"","","","","","html-button-response","63","149175","0.0-4.0-1.29","104","1","2022-10-07 11:53:07","d60b49b5908c80e163b920d72b52d584","183.230.199.74","Mozilla/5.0 (Windows NT 10.0; Win64; x64) AppleWebKit/537.36 (KHTML, like Gecko) Chrome/105.0.0.0 Safari/537.36 Edg/105.0.1343.53","WebKit","Edge","105.0.1343.53","Windows","10.0","1515","<p>作为军队的指挥官，你可以选择发射导弹杀死 <strong>6名</strong> 敌国士兵，但会误杀附近的 <strong>1名</strong> 敌国平民。</p> <p>平民照片如下图所示。</p> <p></p> <img src='stimuli/faces/NCM1.jpg', style='max-width: 30%;'> </img> <p><strong>你是否选择发射武器？</strong></p>","1",""
"","","","","","html-keyboard-response","64","150196","0.0-4.0-0.30","104","1","2022-10-07 11:53:07","d60b49b5908c80e163b920d72b52d584","183.230.199.74","Mozilla/5.0 (Windows NT 10.0; Win64; x64) AppleWebKit/537.36 (KHTML, like Gecko) Chrome/105.0.0.0 Safari/537.36 Edg/105.0.1343.53","WebKit","Edge","105.0.1343.53","Windows","10.0","null","<div style=""font-size:60px;"">+</div>","null",""
"","","","","","html-button-response","65","151154","0.0-4.0-1.30","104","1","2022-10-07 11:53:07","d60b49b5908c80e163b920d72b52d584","183.230.199.74","Mozilla/5.0 (Windows NT 10.0; Win64; x64) AppleWebKit/537.36 (KHTML, like Gecko) Chrome/105.0.0.0 Safari/537.36 Edg/105.0.1343.53","WebKit","Edge","105.0.1343.53","Windows","10.0","955","<p>作为军队的指挥官，你可以选择发射导弹杀死 <strong>9名</strong> 敌国士兵，但会炸毁附近的 <strong>1棵</strong> 敌国树木。</p> <p>树木的照片如下图所示。</p> <p></p> <img src='stimuli/trees/15.png', style='max-width: 30%;'> </img> <p><strong>你是否选择发射武器？</strong></p>","1",""
"","","","","","html-keyboard-response","66","152177","0.0-4.0-0.31","104","1","2022-10-07 11:53:07","d60b49b5908c80e163b920d72b52d584","183.230.199.74","Mozilla/5.0 (Windows NT 10.0; Win64; x64) AppleWebKit/537.36 (KHTML, like Gecko) Chrome/105.0.0.0 Safari/537.36 Edg/105.0.1343.53","WebKit","Edge","105.0.1343.53","Windows","10.0","null","<div style=""font-size:60px;"">+</div>","null",""
"","","","","","html-button-response","67","153098","0.0-4.0-1.31","104","1","2022-10-07 11:53:07","d60b49b5908c80e163b920d72b52d584","183.230.199.74","Mozilla/5.0 (Windows NT 10.0; Win64; x64) AppleWebKit/537.36 (KHTML, like Gecko) Chrome/105.0.0.0 Safari/537.36 Edg/105.0.1343.53","WebKit","Edge","105.0.1343.53","Windows","10.0","917","<p>作为军队的指挥官，你可以选择发射导弹杀死 <strong>3名</strong> 敌国士兵，但会误杀附近的 <strong>1名</strong> 敌国平民。</p> <p>平民照片如下图所示。</p> <p></p> <img src='stimuli/faces/NCM3.jpg', style='max-width: 30%;'> </img> <p><strong>你是否选择发射武器？</strong></p>","1",""
"","","","","","html-keyboard-response","68","154119","0.0-4.0-0.32","104","1","2022-10-07 11:53:07","d60b49b5908c80e163b920d72b52d584","183.230.199.74","Mozilla/5.0 (Windows NT 10.0; Win64; x64) AppleWebKit/537.36 (KHTML, like Gecko) Chrome/105.0.0.0 Safari/537.36 Edg/105.0.1343.53","WebKit","Edge","105.0.1343.53","Windows","10.0","null","<div style=""font-size:60px;"">+</div>","null",""
"","","","","","html-button-response","69","156002","0.0-4.0-1.32","104","1","2022-10-07 11:53:07","d60b49b5908c80e163b920d72b52d584","183.230.199.74","Mozilla/5.0 (Windows NT 10.0; Win64; x64) AppleWebKit/537.36 (KHTML, like Gecko) Chrome/105.0.0.0 Safari/537.36 Edg/105.0.1343.53","WebKit","Edge","105.0.1343.53","Windows","10.0","1878","<p>作为军队的指挥官，你可以选择发射导弹杀死 <strong>3名</strong> 敌国士兵，但会炸毁附近的 <strong>1棵</strong> 敌国树木。</p> <p>树木的照片如下图所示。</p> <p></p> <img src='stimuli/trees/12.png', style='max-width: 30%;'> </img> <p><strong>你是否选择发射武器？</strong></p>","0",""
"","","","","","html-keyboard-response","70","157013","0.0-4.0-0.33","104","1","2022-10-07 11:53:07","d60b49b5908c80e163b920d72b52d584","183.230.199.74","Mozilla/5.0 (Windows NT 10.0; Win64; x64) AppleWebKit/537.36 (KHTML, like Gecko) Chrome/105.0.0.0 Safari/537.36 Edg/105.0.1343.53","WebKit","Edge","105.0.1343.53","Windows","10.0","null","<div style=""font-size:60px;"">+</div>","null",""
"","","","","","html-button-response","71","157959","0.0-4.0-1.33","104","1","2022-10-07 11:53:07","d60b49b5908c80e163b920d72b52d584","183.230.199.74","Mozilla/5.0 (Windows NT 10.0; Win64; x64) AppleWebKit/537.36 (KHTML, like Gecko) Chrome/105.0.0.0 Safari/537.36 Edg/105.0.1343.53","WebKit","Edge","105.0.1343.53","Windows","10.0","940","<p>作为军队的指挥官，你可以选择发射导弹杀死 <strong>9名</strong> 敌国士兵，但会炸毁附近的 <strong>1棵</strong> 敌国树木。</p> <p>树木的照片如下图所示。</p> <p></p> <img src='stimuli/trees/6.png', style='max-width: 30%;'> </img> <p><strong>你是否选择发射武器？</strong></p>","0",""
"","","","","","html-keyboard-response","72","158963","0.0-4.0-0.34","104","1","2022-10-07 11:53:07","d60b49b5908c80e163b920d72b52d584","183.230.199.74","Mozilla/5.0 (Windows NT 10.0; Win64; x64) AppleWebKit/537.36 (KHTML, like Gecko) Chrome/105.0.0.0 Safari/537.36 Edg/105.0.1343.53","WebKit","Edge","105.0.1343.53","Windows","10.0","null","<div style=""font-size:60px;"">+</div>","null",""
"","","","","","html-button-response","73","161130","0.0-4.0-1.34","104","1","2022-10-07 11:53:07","d60b49b5908c80e163b920d72b52d584","183.230.199.74","Mozilla/5.0 (Windows NT 10.0; Win64; x64) AppleWebKit/537.36 (KHTML, like Gecko) Chrome/105.0.0.0 Safari/537.36 Edg/105.0.1343.53","WebKit","Edge","105.0.1343.53","Windows","10.0","2163","<p>作为军队的指挥官，你可以选择发射导弹杀死 <strong>10名</strong> 敌国士兵，但会误杀附近的 <strong>1名</strong> 敌国平民。</p> <p>平民照片如下图所示。</p> <p></p> <img src='stimuli/faces/NCF8.jpg', style='max-width: 30%;'> </img> <p><strong>你是否选择发射武器？</strong></p>","1",""
"","","","","","html-keyboard-response","74","162133","0.0-4.0-0.35","104","1","2022-10-07 11:53:07","d60b49b5908c80e163b920d72b52d584","183.230.199.74","Mozilla/5.0 (Windows NT 10.0; Win64; x64) AppleWebKit/537.36 (KHTML, like Gecko) Chrome/105.0.0.0 Safari/537.36 Edg/105.0.1343.53","WebKit","Edge","105.0.1343.53","Windows","10.0","null","<div style=""font-size:60px;"">+</div>","null",""
"","","","","","html-button-response","75","165659","0.0-4.0-1.35","104","1","2022-10-07 11:53:07","d60b49b5908c80e163b920d72b52d584","183.230.199.74","Mozilla/5.0 (Windows NT 10.0; Win64; x64) AppleWebKit/537.36 (KHTML, like Gecko) Chrome/105.0.0.0 Safari/537.36 Edg/105.0.1343.53","WebKit","Edge","105.0.1343.53","Windows","10.0","3522","<p>作为军队的指挥官，你可以选择发射导弹杀死 <strong>9名</strong> 敌国士兵，但会炸毁附近的 <strong>1棵</strong> 敌国树木。</p> <p>树木的照片如下图所示。</p> <p></p> <img src='stimuli/trees/2.png', style='max-width: 30%;'> </img> <p><strong>你是否选择发射武器？</strong></p>","0",""
"","","","","","html-keyboard-response","76","166668","0.0-4.0-0.36","104","1","2022-10-07 11:53:07","d60b49b5908c80e163b920d72b52d584","183.230.199.74","Mozilla/5.0 (Windows NT 10.0; Win64; x64) AppleWebKit/537.36 (KHTML, like Gecko) Chrome/105.0.0.0 Safari/537.36 Edg/105.0.1343.53","WebKit","Edge","105.0.1343.53","Windows","10.0","null","<div style=""font-size:60px;"">+</div>","null",""
"","","","","","html-button-response","77","167859","0.0-4.0-1.36","104","1","2022-10-07 11:53:07","d60b49b5908c80e163b920d72b52d584","183.230.199.74","Mozilla/5.0 (Windows NT 10.0; Win64; x64) AppleWebKit/537.36 (KHTML, like Gecko) Chrome/105.0.0.0 Safari/537.36 Edg/105.0.1343.53","WebKit","Edge","105.0.1343.53","Windows","10.0","1184","<p>作为军队的指挥官，你可以选择发射导弹杀死 <strong>10名</strong> 敌国士兵，但会误杀附近的 <strong>1名</strong> 敌国平民。</p> <p>平民照片如下图所示。</p> <p></p> <img src='stimuli/faces/NCM6.jpg', style='max-width: 30%;'> </img> <p><strong>你是否选择发射武器？</strong></p>","1",""
"","","","","","html-keyboard-response","78","168869","0.0-4.0-0.37","104","1","2022-10-07 11:53:07","d60b49b5908c80e163b920d72b52d584","183.230.199.74","Mozilla/5.0 (Windows NT 10.0; Win64; x64) AppleWebKit/537.36 (KHTML, like Gecko) Chrome/105.0.0.0 Safari/537.36 Edg/105.0.1343.53","WebKit","Edge","105.0.1343.53","Windows","10.0","null","<div style=""font-size:60px;"">+</div>","null",""
"","","","","","html-button-response","79","170102","0.0-4.0-1.37","104","1","2022-10-07 11:53:07","d60b49b5908c80e163b920d72b52d584","183.230.199.74","Mozilla/5.0 (Windows NT 10.0; Win64; x64) AppleWebKit/537.36 (KHTML, like Gecko) Chrome/105.0.0.0 Safari/537.36 Edg/105.0.1343.53","WebKit","Edge","105.0.1343.53","Windows","10.0","1225","<p>作为军队的指挥官，你可以选择发射导弹杀死 <strong>4名</strong> 敌国士兵，但会误杀附近的 <strong>1名</strong> 敌国平民。</p> <p>平民照片如下图所示。</p> <p></p> <img src='stimuli/faces/NCF2.jpg', style='max-width: 30%;'> </img> <p><strong>你是否选择发射武器？</strong></p>","1",""
"","","","","","html-keyboard-response","80","171121","0.0-4.0-0.38","104","1","2022-10-07 11:53:07","d60b49b5908c80e163b920d72b52d584","183.230.199.74","Mozilla/5.0 (Windows NT 10.0; Win64; x64) AppleWebKit/537.36 (KHTML, like Gecko) Chrome/105.0.0.0 Safari/537.36 Edg/105.0.1343.53","WebKit","Edge","105.0.1343.53","Windows","10.0","null","<div style=""font-size:60px;"">+</div>","null",""
"","","","","","html-button-response","81","172459","0.0-4.0-1.38","104","1","2022-10-07 11:53:07","d60b49b5908c80e163b920d72b52d584","183.230.199.74","Mozilla/5.0 (Windows NT 10.0; Win64; x64) AppleWebKit/537.36 (KHTML, like Gecko) Chrome/105.0.0.0 Safari/537.36 Edg/105.0.1343.53","WebKit","Edge","105.0.1343.53","Windows","10.0","1330","<p>作为军队的指挥官，你可以选择发射导弹杀死 <strong>2名</strong> 敌国士兵，但会炸毁附近的 <strong>1棵</strong> 敌国树木。</p> <p>树木的照片如下图所示。</p> <p></p> <img src='stimuli/trees/11.png', style='max-width: 30%;'> </img> <p><strong>你是否选择发射武器？</strong></p>","0",""
"","","","","","html-keyboard-response","82","173474","0.0-4.0-0.39","104","1","2022-10-07 11:53:07","d60b49b5908c80e163b920d72b52d584","183.230.199.74","Mozilla/5.0 (Windows NT 10.0; Win64; x64) AppleWebKit/537.36 (KHTML, like Gecko) Chrome/105.0.0.0 Safari/537.36 Edg/105.0.1343.53","WebKit","Edge","105.0.1343.53","Windows","10.0","null","<div style=""font-size:60px;"">+</div>","null",""
"","","","","","html-button-response","83","174768","0.0-4.0-1.39","104","1","2022-10-07 11:53:07","d60b49b5908c80e163b920d72b52d584","183.230.199.74","Mozilla/5.0 (Windows NT 10.0; Win64; x64) AppleWebKit/537.36 (KHTML, like Gecko) Chrome/105.0.0.0 Safari/537.36 Edg/105.0.1343.53","WebKit","Edge","105.0.1343.53","Windows","10.0","1287","<p>作为军队的指挥官，你可以选择发射导弹杀死 <strong>8名</strong> 敌国士兵，但会误杀附近的 <strong>1名</strong> 敌国平民。</p> <p>平民照片如下图所示。</p> <p></p> <img src='stimuli/faces/NCF7.jpg', style='max-width: 30%;'> </img> <p><strong>你是否选择发射武器？</strong></p>","1",""
"","","","","","html-keyboard-response","84","175784","0.0-4.0-0.40","104","1","2022-10-07 11:53:07","d60b49b5908c80e163b920d72b52d584","183.230.199.74","Mozilla/5.0 (Windows NT 10.0; Win64; x64) AppleWebKit/537.36 (KHTML, like Gecko) Chrome/105.0.0.0 Safari/537.36 Edg/105.0.1343.53","WebKit","Edge","105.0.1343.53","Windows","10.0","null","<div style=""font-size:60px;"">+</div>","null",""
"","","","","","html-button-response","85","176531","0.0-4.0-1.40","104","1","2022-10-07 11:53:07","d60b49b5908c80e163b920d72b52d584","183.230.199.74","Mozilla/5.0 (Windows NT 10.0; Win64; x64) AppleWebKit/537.36 (KHTML, like Gecko) Chrome/105.0.0.0 Safari/537.36 Edg/105.0.1343.53","WebKit","Edge","105.0.1343.53","Windows","10.0","741","<p>作为军队的指挥官，你可以选择发射导弹杀死 <strong>3名</strong> 敌国士兵，但会误杀附近的 <strong>1名</strong> 敌国平民。</p> <p>平民照片如下图所示。</p> <p></p> <img src='stimuli/faces/NCF7.jpg', style='max-width: 30%;'> </img> <p><strong>你是否选择发射武器？</strong></p>","1",""
"","","","","","html-keyboard-response","86","177542","0.0-4.0-0.41","104","1","2022-10-07 11:53:07","d60b49b5908c80e163b920d72b52d584","183.230.199.74","Mozilla/5.0 (Windows NT 10.0; Win64; x64) AppleWebKit/537.36 (KHTML, like Gecko) Chrome/105.0.0.0 Safari/537.36 Edg/105.0.1343.53","WebKit","Edge","105.0.1343.53","Windows","10.0","null","<div style=""font-size:60px;"">+</div>","null",""
"","","","","","html-button-response","87","179623","0.0-4.0-1.41","104","1","2022-10-07 11:53:07","d60b49b5908c80e163b920d72b52d584","183.230.199.74","Mozilla/5.0 (Windows NT 10.0; Win64; x64) AppleWebKit/537.36 (KHTML, like Gecko) Chrome/105.0.0.0 Safari/537.36 Edg/105.0.1343.53","WebKit","Edge","105.0.1343.53","Windows","10.0","2073","<p>作为军队的指挥官，你可以选择发射导弹杀死 <strong>10名</strong> 敌国士兵，但会炸毁附近的 <strong>1棵</strong> 敌国树木。</p> <p>树木的照片如下图所示。</p> <p></p> <img src='stimuli/trees/13.png', style='max-width: 30%;'> </img> <p><strong>你是否选择发射武器？</strong></p>","0",""
"","","","","","html-keyboard-response","88","180634","0.0-4.0-0.42","104","1","2022-10-07 11:53:07","d60b49b5908c80e163b920d72b52d584","183.230.199.74","Mozilla/5.0 (Windows NT 10.0; Win64; x64) AppleWebKit/537.36 (KHTML, like Gecko) Chrome/105.0.0.0 Safari/537.36 Edg/105.0.1343.53","WebKit","Edge","105.0.1343.53","Windows","10.0","null","<div style=""font-size:60px;"">+</div>","null",""
"","","","","","html-button-response","89","181364","0.0-4.0-1.42","104","1","2022-10-07 11:53:07","d60b49b5908c80e163b920d72b52d584","183.230.199.74","Mozilla/5.0 (Windows NT 10.0; Win64; x64) AppleWebKit/537.36 (KHTML, like Gecko) Chrome/105.0.0.0 Safari/537.36 Edg/105.0.1343.53","WebKit","Edge","105.0.1343.53","Windows","10.0","721","<p>作为军队的指挥官，你可以选择发射导弹杀死 <strong>1名</strong> 敌国士兵，但会炸毁附近的 <strong>1棵</strong> 敌国树木。</p> <p>树木的照片如下图所示。</p> <p></p> <img src='stimuli/trees/3.png', style='max-width: 30%;'> </img> <p><strong>你是否选择发射武器？</strong></p>","0",""
"","","","","","html-keyboard-response","90","182383","0.0-4.0-0.43","104","1","2022-10-07 11:53:07","d60b49b5908c80e163b920d72b52d584","183.230.199.74","Mozilla/5.0 (Windows NT 10.0; Win64; x64) AppleWebKit/537.36 (KHTML, like Gecko) Chrome/105.0.0.0 Safari/537.36 Edg/105.0.1343.53","WebKit","Edge","105.0.1343.53","Windows","10.0","null","<div style=""font-size:60px;"">+</div>","null",""
"","","","","","html-button-response","91","183815","0.0-4.0-1.43","104","1","2022-10-07 11:53:07","d60b49b5908c80e163b920d72b52d584","183.230.199.74","Mozilla/5.0 (Windows NT 10.0; Win64; x64) AppleWebKit/537.36 (KHTML, like Gecko) Chrome/105.0.0.0 Safari/537.36 Edg/105.0.1343.53","WebKit","Edge","105.0.1343.53","Windows","10.0","1426","<p>作为军队的指挥官，你可以选择发射导弹杀死 <strong>6名</strong> 敌国士兵，但会炸毁附近的 <strong>1棵</strong> 敌国树木。</p> <p>树木的照片如下图所示。</p> <p></p> <img src='stimuli/trees/11.png', style='max-width: 30%;'> </img> <p><strong>你是否选择发射武器？</strong></p>","1",""
"","","","","","html-keyboard-response","92","184833","0.0-4.0-0.44","104","1","2022-10-07 11:53:07","d60b49b5908c80e163b920d72b52d584","183.230.199.74","Mozilla/5.0 (Windows NT 10.0; Win64; x64) AppleWebKit/537.36 (KHTML, like Gecko) Chrome/105.0.0.0 Safari/537.36 Edg/105.0.1343.53","WebKit","Edge","105.0.1343.53","Windows","10.0","null","<div style=""font-size:60px;"">+</div>","null",""
"","","","","","html-button-response","93","186363","0.0-4.0-1.44","104","1","2022-10-07 11:53:07","d60b49b5908c80e163b920d72b52d584","183.230.199.74","Mozilla/5.0 (Windows NT 10.0; Win64; x64) AppleWebKit/537.36 (KHTML, like Gecko) Chrome/105.0.0.0 Safari/537.36 Edg/105.0.1343.53","WebKit","Edge","105.0.1343.53","Windows","10.0","1521","<p>作为军队的指挥官，你可以选择发射导弹杀死 <strong>10名</strong> 敌国士兵，但会误杀附近的 <strong>1名</strong> 敌国平民。</p> <p>平民照片如下图所示。</p> <p></p> <img src='stimuli/faces/NCM5.jpg', style='max-width: 30%;'> </img> <p><strong>你是否选择发射武器？</strong></p>","1",""
"","","","","","html-keyboard-response","94","187368","0.0-4.0-0.45","104","1","2022-10-07 11:53:07","d60b49b5908c80e163b920d72b52d584","183.230.199.74","Mozilla/5.0 (Windows NT 10.0; Win64; x64) AppleWebKit/537.36 (KHTML, like Gecko) Chrome/105.0.0.0 Safari/537.36 Edg/105.0.1343.53","WebKit","Edge","105.0.1343.53","Windows","10.0","null","<div style=""font-size:60px;"">+</div>","null",""
"","","","","","html-button-response","95","188646","0.0-4.0-1.45","104","1","2022-10-07 11:53:07","d60b49b5908c80e163b920d72b52d584","183.230.199.74","Mozilla/5.0 (Windows NT 10.0; Win64; x64) AppleWebKit/537.36 (KHTML, like Gecko) Chrome/105.0.0.0 Safari/537.36 Edg/105.0.1343.53","WebKit","Edge","105.0.1343.53","Windows","10.0","1276","<p>作为军队的指挥官，你可以选择发射导弹杀死 <strong>3名</strong> 敌国士兵，但会炸毁附近的 <strong>1棵</strong> 敌国树木。</p> <p>树木的照片如下图所示。</p> <p></p> <img src='stimuli/trees/15.png', style='max-width: 30%;'> </img> <p><strong>你是否选择发射武器？</strong></p>","1",""
"","","","","","html-keyboard-response","96","189650","0.0-4.0-0.46","104","1","2022-10-07 11:53:07","d60b49b5908c80e163b920d72b52d584","183.230.199.74","Mozilla/5.0 (Windows NT 10.0; Win64; x64) AppleWebKit/537.36 (KHTML, like Gecko) Chrome/105.0.0.0 Safari/537.36 Edg/105.0.1343.53","WebKit","Edge","105.0.1343.53","Windows","10.0","null","<div style=""font-size:60px;"">+</div>","null",""
"","","","","","html-button-response","97","190730","0.0-4.0-1.46","104","1","2022-10-07 11:53:07","d60b49b5908c80e163b920d72b52d584","183.230.199.74","Mozilla/5.0 (Windows NT 10.0; Win64; x64) AppleWebKit/537.36 (KHTML, like Gecko) Chrome/105.0.0.0 Safari/537.36 Edg/105.0.1343.53","WebKit","Edge","105.0.1343.53","Windows","10.0","1073","<p>作为军队的指挥官，你可以选择发射导弹杀死 <strong>10名</strong> 敌国士兵，但会误杀附近的 <strong>1名</strong> 敌国平民。</p> <p>平民照片如下图所示。</p> <p></p> <img src='stimuli/faces/NCM8.jpg', style='max-width: 30%;'> </img> <p><strong>你是否选择发射武器？</strong></p>","1",""
"","","","","","html-keyboard-response","98","191741","0.0-4.0-0.47","104","1","2022-10-07 11:53:07","d60b49b5908c80e163b920d72b52d584","183.230.199.74","Mozilla/5.0 (Windows NT 10.0; Win64; x64) AppleWebKit/537.36 (KHTML, like Gecko) Chrome/105.0.0.0 Safari/537.36 Edg/105.0.1343.53","WebKit","Edge","105.0.1343.53","Windows","10.0","null","<div style=""font-size:60px;"">+</div>","null",""
"","","","","","html-button-response","99","192706","0.0-4.0-1.47","104","1","2022-10-07 11:53:07","d60b49b5908c80e163b920d72b52d584","183.230.199.74","Mozilla/5.0 (Windows NT 10.0; Win64; x64) AppleWebKit/537.36 (KHTML, like Gecko) Chrome/105.0.0.0 Safari/537.36 Edg/105.0.1343.53","WebKit","Edge","105.0.1343.53","Windows","10.0","957","<p>作为军队的指挥官，你可以选择发射导弹杀死 <strong>1名</strong> 敌国士兵，但会误杀附近的 <strong>1名</strong> 敌国平民。</p> <p>平民照片如下图所示。</p> <p></p> <img src='stimuli/faces/NCF8.jpg', style='max-width: 30%;'> </img> <p><strong>你是否选择发射武器？</strong></p>","1",""
"","","","","","html-keyboard-response","100","193722","0.0-4.0-0.48","104","1","2022-10-07 11:53:07","d60b49b5908c80e163b920d72b52d584","183.230.199.74","Mozilla/5.0 (Windows NT 10.0; Win64; x64) AppleWebKit/537.36 (KHTML, like Gecko) Chrome/105.0.0.0 Safari/537.36 Edg/105.0.1343.53","WebKit","Edge","105.0.1343.53","Windows","10.0","null","<div style=""font-size:60px;"">+</div>","null",""
"","","","","","html-button-response","101","194894","0.0-4.0-1.48","104","1","2022-10-07 11:53:07","d60b49b5908c80e163b920d72b52d584","183.230.199.74","Mozilla/5.0 (Windows NT 10.0; Win64; x64) AppleWebKit/537.36 (KHTML, like Gecko) Chrome/105.0.0.0 Safari/537.36 Edg/105.0.1343.53","WebKit","Edge","105.0.1343.53","Windows","10.0","1166","<p>作为军队的指挥官，你可以选择发射导弹杀死 <strong>9名</strong> 敌国士兵，但会炸毁附近的 <strong>1棵</strong> 敌国树木。</p> <p>树木的照片如下图所示。</p> <p></p> <img src='stimuli/trees/3.png', style='max-width: 30%;'> </img> <p><strong>你是否选择发射武器？</strong></p>","1",""
"","","","","","html-keyboard-response","102","195899","0.0-4.0-0.49","104","1","2022-10-07 11:53:07","d60b49b5908c80e163b920d72b52d584","183.230.199.74","Mozilla/5.0 (Windows NT 10.0; Win64; x64) AppleWebKit/537.36 (KHTML, like Gecko) Chrome/105.0.0.0 Safari/537.36 Edg/105.0.1343.53","WebKit","Edge","105.0.1343.53","Windows","10.0","null","<div style=""font-size:60px;"">+</div>","null",""
"","","","","","html-button-response","103","197491","0.0-4.0-1.49","104","1","2022-10-07 11:53:07","d60b49b5908c80e163b920d72b52d584","183.230.199.74","Mozilla/5.0 (Windows NT 10.0; Win64; x64) AppleWebKit/537.36 (KHTML, like Gecko) Chrome/105.0.0.0 Safari/537.36 Edg/105.0.1343.53","WebKit","Edge","105.0.1343.53","Windows","10.0","1584","<p>作为军队的指挥官，你可以选择发射导弹杀死 <strong>3名</strong> 敌国士兵，但会炸毁附近的 <strong>1棵</strong> 敌国树木。</p> <p>树木的照片如下图所示。</p> <p></p> <img src='stimuli/trees/13.png', style='max-width: 30%;'> </img> <p><strong>你是否选择发射武器？</strong></p>","1",""
"","","","","","html-keyboard-response","104","198495","0.0-4.0-0.50","104","1","2022-10-07 11:53:07","d60b49b5908c80e163b920d72b52d584","183.230.199.74","Mozilla/5.0 (Windows NT 10.0; Win64; x64) AppleWebKit/537.36 (KHTML, like Gecko) Chrome/105.0.0.0 Safari/537.36 Edg/105.0.1343.53","WebKit","Edge","105.0.1343.53","Windows","10.0","null","<div style=""font-size:60px;"">+</div>","null",""
"","","","","","html-button-response","105","199871","0.0-4.0-1.50","104","1","2022-10-07 11:53:07","d60b49b5908c80e163b920d72b52d584","183.230.199.74","Mozilla/5.0 (Windows NT 10.0; Win64; x64) AppleWebKit/537.36 (KHTML, like Gecko) Chrome/105.0.0.0 Safari/537.36 Edg/105.0.1343.53","WebKit","Edge","105.0.1343.53","Windows","10.0","1368","<p>作为军队的指挥官，你可以选择发射导弹杀死 <strong>8名</strong> 敌国士兵，但会误杀附近的 <strong>1名</strong> 敌国平民。</p> <p>平民照片如下图所示。</p> <p></p> <img src='stimuli/faces/NCF5.jpg', style='max-width: 30%;'> </img> <p><strong>你是否选择发射武器？</strong></p>","1",""
"","","","","","html-keyboard-response","106","200875","0.0-4.0-0.51","104","1","2022-10-07 11:53:07","d60b49b5908c80e163b920d72b52d584","183.230.199.74","Mozilla/5.0 (Windows NT 10.0; Win64; x64) AppleWebKit/537.36 (KHTML, like Gecko) Chrome/105.0.0.0 Safari/537.36 Edg/105.0.1343.53","WebKit","Edge","105.0.1343.53","Windows","10.0","null","<div style=""font-size:60px;"">+</div>","null",""
"","","","","","html-button-response","107","205798","0.0-4.0-1.51","104","1","2022-10-07 11:53:07","d60b49b5908c80e163b920d72b52d584","183.230.199.74","Mozilla/5.0 (Windows NT 10.0; Win64; x64) AppleWebKit/537.36 (KHTML, like Gecko) Chrome/105.0.0.0 Safari/537.36 Edg/105.0.1343.53","WebKit","Edge","105.0.1343.53","Windows","10.0","4917","<p>作为军队的指挥官，你可以选择发射导弹杀死 <strong>5名</strong> 敌国士兵，但会炸毁附近的 <strong>1棵</strong> 敌国树木。</p> <p>树木的照片如下图所示。</p> <p></p> <img src='stimuli/trees/7.png', style='max-width: 30%;'> </img> <p><strong>你是否选择发射武器？</strong></p>","0",""
"","","","","","html-keyboard-response","108","206816","0.0-4.0-0.52","104","1","2022-10-07 11:53:07","d60b49b5908c80e163b920d72b52d584","183.230.199.74","Mozilla/5.0 (Windows NT 10.0; Win64; x64) AppleWebKit/537.36 (KHTML, like Gecko) Chrome/105.0.0.0 Safari/537.36 Edg/105.0.1343.53","WebKit","Edge","105.0.1343.53","Windows","10.0","null","<div style=""font-size:60px;"">+</div>","null",""
"","","","","","html-button-response","109","209870","0.0-4.0-1.52","104","1","2022-10-07 11:53:07","d60b49b5908c80e163b920d72b52d584","183.230.199.74","Mozilla/5.0 (Windows NT 10.0; Win64; x64) AppleWebKit/537.36 (KHTML, like Gecko) Chrome/105.0.0.0 Safari/537.36 Edg/105.0.1343.53","WebKit","Edge","105.0.1343.53","Windows","10.0","3044","<p>作为军队的指挥官，你可以选择发射导弹杀死 <strong>4名</strong> 敌国士兵，但会炸毁附近的 <strong>1棵</strong> 敌国树木。</p> <p>树木的照片如下图所示。</p> <p></p> <img src='stimuli/trees/5.png', style='max-width: 30%;'> </img> <p><strong>你是否选择发射武器？</strong></p>","0",""
"","","","","","html-keyboard-response","110","210874","0.0-4.0-0.53","104","1","2022-10-07 11:53:07","d60b49b5908c80e163b920d72b52d584","183.230.199.74","Mozilla/5.0 (Windows NT 10.0; Win64; x64) AppleWebKit/537.36 (KHTML, like Gecko) Chrome/105.0.0.0 Safari/537.36 Edg/105.0.1343.53","WebKit","Edge","105.0.1343.53","Windows","10.0","null","<div style=""font-size:60px;"">+</div>","null",""
"","","","","","html-button-response","111","212187","0.0-4.0-1.53","104","1","2022-10-07 11:53:07","d60b49b5908c80e163b920d72b52d584","183.230.199.74","Mozilla/5.0 (Windows NT 10.0; Win64; x64) AppleWebKit/537.36 (KHTML, like Gecko) Chrome/105.0.0.0 Safari/537.36 Edg/105.0.1343.53","WebKit","Edge","105.0.1343.53","Windows","10.0","1302","<p>作为军队的指挥官，你可以选择发射导弹杀死 <strong>7名</strong> 敌国士兵，但会炸毁附近的 <strong>1棵</strong> 敌国树木。</p> <p>树木的照片如下图所示。</p> <p></p> <img src='stimuli/trees/16.png', style='max-width: 30%;'> </img> <p><strong>你是否选择发射武器？</strong></p>","1",""
"","","","","","html-keyboard-response","112","213192","0.0-4.0-0.54","104","1","2022-10-07 11:53:07","d60b49b5908c80e163b920d72b52d584","183.230.199.74","Mozilla/5.0 (Windows NT 10.0; Win64; x64) AppleWebKit/537.36 (KHTML, like Gecko) Chrome/105.0.0.0 Safari/537.36 Edg/105.0.1343.53","WebKit","Edge","105.0.1343.53","Windows","10.0","null","<div style=""font-size:60px;"">+</div>","null",""
"","","","","","html-button-response","113","214466","0.0-4.0-1.54","104","1","2022-10-07 11:53:07","d60b49b5908c80e163b920d72b52d584","183.230.199.74","Mozilla/5.0 (Windows NT 10.0; Win64; x64) AppleWebKit/537.36 (KHTML, like Gecko) Chrome/105.0.0.0 Safari/537.36 Edg/105.0.1343.53","WebKit","Edge","105.0.1343.53","Windows","10.0","1271","<p>作为军队的指挥官，你可以选择发射导弹杀死 <strong>1名</strong> 敌国士兵，但会误杀附近的 <strong>1名</strong> 敌国平民。</p> <p>平民照片如下图所示。</p> <p></p> <img src='stimuli/faces/NCM4.jpg', style='max-width: 30%;'> </img> <p><strong>你是否选择发射武器？</strong></p>","1",""
"","","","","","html-keyboard-response","114","215477","0.0-4.0-0.55","104","1","2022-10-07 11:53:07","d60b49b5908c80e163b920d72b52d584","183.230.199.74","Mozilla/5.0 (Windows NT 10.0; Win64; x64) AppleWebKit/537.36 (KHTML, like Gecko) Chrome/105.0.0.0 Safari/537.36 Edg/105.0.1343.53","WebKit","Edge","105.0.1343.53","Windows","10.0","null","<div style=""font-size:60px;"">+</div>","null",""
"","","","","","html-button-response","115","216695","0.0-4.0-1.55","104","1","2022-10-07 11:53:07","d60b49b5908c80e163b920d72b52d584","183.230.199.74","Mozilla/5.0 (Windows NT 10.0; Win64; x64) AppleWebKit/537.36 (KHTML, like Gecko) Chrome/105.0.0.0 Safari/537.36 Edg/105.0.1343.53","WebKit","Edge","105.0.1343.53","Windows","10.0","1208","<p>作为军队的指挥官，你可以选择发射导弹杀死 <strong>6名</strong> 敌国士兵，但会炸毁附近的 <strong>1棵</strong> 敌国树木。</p> <p>树木的照片如下图所示。</p> <p></p> <img src='stimuli/trees/4.png', style='max-width: 30%;'> </img> <p><strong>你是否选择发射武器？</strong></p>","1",""
"","","","","","html-keyboard-response","116","217703","0.0-4.0-0.56","104","1","2022-10-07 11:53:07","d60b49b5908c80e163b920d72b52d584","183.230.199.74","Mozilla/5.0 (Windows NT 10.0; Win64; x64) AppleWebKit/537.36 (KHTML, like Gecko) Chrome/105.0.0.0 Safari/537.36 Edg/105.0.1343.53","WebKit","Edge","105.0.1343.53","Windows","10.0","null","<div style=""font-size:60px;"">+</div>","null",""
"","","","","","html-button-response","117","219619","0.0-4.0-1.56","104","1","2022-10-07 11:53:07","d60b49b5908c80e163b920d72b52d584","183.230.199.74","Mozilla/5.0 (Windows NT 10.0; Win64; x64) AppleWebKit/537.36 (KHTML, like Gecko) Chrome/105.0.0.0 Safari/537.36 Edg/105.0.1343.53","WebKit","Edge","105.0.1343.53","Windows","10.0","1912","<p>作为军队的指挥官，你可以选择发射导弹杀死 <strong>7名</strong> 敌国士兵，但会炸毁附近的 <strong>1棵</strong> 敌国树木。</p> <p>树木的照片如下图所示。</p> <p></p> <img src='stimuli/trees/14.png', style='max-width: 30%;'> </img> <p><strong>你是否选择发射武器？</strong></p>","0",""
"","","","","","html-keyboard-response","118","220627","0.0-4.0-0.57","104","1","2022-10-07 11:53:07","d60b49b5908c80e163b920d72b52d584","183.230.199.74","Mozilla/5.0 (Windows NT 10.0; Win64; x64) AppleWebKit/537.36 (KHTML, like Gecko) Chrome/105.0.0.0 Safari/537.36 Edg/105.0.1343.53","WebKit","Edge","105.0.1343.53","Windows","10.0","null","<div style=""font-size:60px;"">+</div>","null",""
"","","","","","html-button-response","119","222803","0.0-4.0-1.57","104","1","2022-10-07 11:53:07","d60b49b5908c80e163b920d72b52d584","183.230.199.74","Mozilla/5.0 (Windows NT 10.0; Win64; x64) AppleWebKit/537.36 (KHTML, like Gecko) Chrome/105.0.0.0 Safari/537.36 Edg/105.0.1343.53","WebKit","Edge","105.0.1343.53","Windows","10.0","2167","<p>作为军队的指挥官，你可以选择发射导弹杀死 <strong>4名</strong> 敌国士兵，但会误杀附近的 <strong>1名</strong> 敌国平民。</p> <p>平民照片如下图所示。</p> <p></p> <img src='stimuli/faces/NCM7.jpg', style='max-width: 30%;'> </img> <p><strong>你是否选择发射武器？</strong></p>","1",""
"","","","","","html-keyboard-response","120","223824","0.0-4.0-0.58","104","1","2022-10-07 11:53:07","d60b49b5908c80e163b920d72b52d584","183.230.199.74","Mozilla/5.0 (Windows NT 10.0; Win64; x64) AppleWebKit/537.36 (KHTML, like Gecko) Chrome/105.0.0.0 Safari/537.36 Edg/105.0.1343.53","WebKit","Edge","105.0.1343.53","Windows","10.0","null","<div style=""font-size:60px;"">+</div>","null",""
"","","","","","html-button-response","121","225191","0.0-4.0-1.58","104","1","2022-10-07 11:53:07","d60b49b5908c80e163b920d72b52d584","183.230.199.74","Mozilla/5.0 (Windows NT 10.0; Win64; x64) AppleWebKit/537.36 (KHTML, like Gecko) Chrome/105.0.0.0 Safari/537.36 Edg/105.0.1343.53","WebKit","Edge","105.0.1343.53","Windows","10.0","1360","<p>作为军队的指挥官，你可以选择发射导弹杀死 <strong>9名</strong> 敌国士兵，但会误杀附近的 <strong>1名</strong> 敌国平民。</p> <p>平民照片如下图所示。</p> <p></p> <img src='stimuli/faces/NCF2.jpg', style='max-width: 30%;'> </img> <p><strong>你是否选择发射武器？</strong></p>","1",""
"","","","","","html-keyboard-response","122","226208","0.0-4.0-0.59","104","1","2022-10-07 11:53:07","d60b49b5908c80e163b920d72b52d584","183.230.199.74","Mozilla/5.0 (Windows NT 10.0; Win64; x64) AppleWebKit/537.36 (KHTML, like Gecko) Chrome/105.0.0.0 Safari/537.36 Edg/105.0.1343.53","WebKit","Edge","105.0.1343.53","Windows","10.0","null","<div style=""font-size:60px;"">+</div>","null",""
"","","","","","html-button-response","123","227915","0.0-4.0-1.59","104","1","2022-10-07 11:53:07","d60b49b5908c80e163b920d72b52d584","183.230.199.74","Mozilla/5.0 (Windows NT 10.0; Win64; x64) AppleWebKit/537.36 (KHTML, like Gecko) Chrome/105.0.0.0 Safari/537.36 Edg/105.0.1343.53","WebKit","Edge","105.0.1343.53","Windows","10.0","1700","<p>作为军队的指挥官，你可以选择发射导弹杀死 <strong>7名</strong> 敌国士兵，但会炸毁附近的 <strong>1棵</strong> 敌国树木。</p> <p>树木的照片如下图所示。</p> <p></p> <img src='stimuli/trees/9.png', style='max-width: 30%;'> </img> <p><strong>你是否选择发射武器？</strong></p>","0",""
"","","","","","html-keyboard-response","124","228927","0.0-4.0-0.60","104","1","2022-10-07 11:53:07","d60b49b5908c80e163b920d72b52d584","183.230.199.74","Mozilla/5.0 (Windows NT 10.0; Win64; x64) AppleWebKit/537.36 (KHTML, like Gecko) Chrome/105.0.0.0 Safari/537.36 Edg/105.0.1343.53","WebKit","Edge","105.0.1343.53","Windows","10.0","null","<div style=""font-size:60px;"">+</div>","null",""
"","","","","","html-button-response","125","229998","0.0-4.0-1.60","104","1","2022-10-07 11:53:07","d60b49b5908c80e163b920d72b52d584","183.230.199.74","Mozilla/5.0 (Windows NT 10.0; Win64; x64) AppleWebKit/537.36 (KHTML, like Gecko) Chrome/105.0.0.0 Safari/537.36 Edg/105.0.1343.53","WebKit","Edge","105.0.1343.53","Windows","10.0","1067","<p>作为军队的指挥官，你可以选择发射导弹杀死 <strong>5名</strong> 敌国士兵，但会炸毁附近的 <strong>1棵</strong> 敌国树木。</p> <p>树木的照片如下图所示。</p> <p></p> <img src='stimuli/trees/16.png', style='max-width: 30%;'> </img> <p><strong>你是否选择发射武器？</strong></p>","0",""
"","","","","","html-keyboard-response","126","231009","0.0-4.0-0.61","104","1","2022-10-07 11:53:07","d60b49b5908c80e163b920d72b52d584","183.230.199.74","Mozilla/5.0 (Windows NT 10.0; Win64; x64) AppleWebKit/537.36 (KHTML, like Gecko) Chrome/105.0.0.0 Safari/537.36 Edg/105.0.1343.53","WebKit","Edge","105.0.1343.53","Windows","10.0","null","<div style=""font-size:60px;"">+</div>","null",""
"","","","","","html-button-response","127","232466","0.0-4.0-1.61","104","1","2022-10-07 11:53:07","d60b49b5908c80e163b920d72b52d584","183.230.199.74","Mozilla/5.0 (Windows NT 10.0; Win64; x64) AppleWebKit/537.36 (KHTML, like Gecko) Chrome/105.0.0.0 Safari/537.36 Edg/105.0.1343.53","WebKit","Edge","105.0.1343.53","Windows","10.0","1451","<p>作为军队的指挥官，你可以选择发射导弹杀死 <strong>2名</strong> 敌国士兵，但会误杀附近的 <strong>1名</strong> 敌国平民。</p> <p>平民照片如下图所示。</p> <p></p> <img src='stimuli/faces/NCM6.jpg', style='max-width: 30%;'> </img> <p><strong>你是否选择发射武器？</strong></p>","1",""
"","","","","","html-keyboard-response","128","233478","0.0-4.0-0.62","104","1","2022-10-07 11:53:07","d60b49b5908c80e163b920d72b52d584","183.230.199.74","Mozilla/5.0 (Windows NT 10.0; Win64; x64) AppleWebKit/537.36 (KHTML, like Gecko) Chrome/105.0.0.0 Safari/537.36 Edg/105.0.1343.53","WebKit","Edge","105.0.1343.53","Windows","10.0","null","<div style=""font-size:60px;"">+</div>","null",""
"","","","","","html-button-response","129","235086","0.0-4.0-1.62","104","1","2022-10-07 11:53:07","d60b49b5908c80e163b920d72b52d584","183.230.199.74","Mozilla/5.0 (Windows NT 10.0; Win64; x64) AppleWebKit/537.36 (KHTML, like Gecko) Chrome/105.0.0.0 Safari/537.36 Edg/105.0.1343.53","WebKit","Edge","105.0.1343.53","Windows","10.0","1601","<p>作为军队的指挥官，你可以选择发射导弹杀死 <strong>3名</strong> 敌国士兵，但会误杀附近的 <strong>1名</strong> 敌国平民。</p> <p>平民照片如下图所示。</p> <p></p> <img src='stimuli/faces/NCF4.jpg', style='max-width: 30%;'> </img> <p><strong>你是否选择发射武器？</strong></p>","1",""
"","","","","","html-keyboard-response","130","236099","0.0-4.0-0.63","104","1","2022-10-07 11:53:07","d60b49b5908c80e163b920d72b52d584","183.230.199.74","Mozilla/5.0 (Windows NT 10.0; Win64; x64) AppleWebKit/537.36 (KHTML, like Gecko) Chrome/105.0.0.0 Safari/537.36 Edg/105.0.1343.53","WebKit","Edge","105.0.1343.53","Windows","10.0","null","<div style=""font-size:60px;"">+</div>","null",""
"","","","","","html-button-response","131","237271","0.0-4.0-1.63","104","1","2022-10-07 11:53:07","d60b49b5908c80e163b920d72b52d584","183.230.199.74","Mozilla/5.0 (Windows NT 10.0; Win64; x64) AppleWebKit/537.36 (KHTML, like Gecko) Chrome/105.0.0.0 Safari/537.36 Edg/105.0.1343.53","WebKit","Edge","105.0.1343.53","Windows","10.0","1161","<p>作为军队的指挥官，你可以选择发射导弹杀死 <strong>3名</strong> 敌国士兵，但会误杀附近的 <strong>1名</strong> 敌国平民。</p> <p>平民照片如下图所示。</p> <p></p> <img src='stimuli/faces/NCF1.jpg', style='max-width: 30%;'> </img> <p><strong>你是否选择发射武器？</strong></p>","1",""
"","","","","","survey-multi-choice","132","272340","0.0-5.0","104","1","2022-10-07 11:53:07","d60b49b5908c80e163b920d72b52d584","183.230.199.74","Mozilla/5.0 (Windows NT 10.0; Win64; x64) AppleWebKit/537.36 (KHTML, like Gecko) Chrome/105.0.0.0 Safari/537.36 Edg/105.0.1343.53","WebKit","Edge","105.0.1343.53","Windows","10.0","35063","","{""Attention1"":""""}","[0]"
"","","","","","html-button-response","133","274327","0.0-6.0","104","1","2022-10-07 11:53:07","d60b49b5908c80e163b920d72b52d584","183.230.199.74","Mozilla/5.0 (Windows NT 10.0; Win64; x64) AppleWebKit/537.36 (KHTML, like Gecko) Chrome/105.0.0.0 Safari/537.36 Edg/105.0.1343.53","WebKit","Edge","105.0.1343.53","Windows","10.0","1979","<p style=""font-size:20px;font-weight:bold;"">恭喜！</p><p>你已经完成了实验的第一部分。</p><p>请休息放松一下，然后进入第二部分。</p><p>这部分大约需要10分钟。</p>","0",""
"","","","","","survey-text","134","304579","0.0-7.0","104","1","2022-10-07 11:53:07","d60b49b5908c80e163b920d72b52d584","183.230.199.74","Mozilla/5.0 (Windows NT 10.0; Win64; x64) AppleWebKit/537.36 (KHTML, like Gecko) Chrome/105.0.0.0 Safari/537.36 Edg/105.0.1343.53","WebKit","Edge","105.0.1343.53","Windows","10.0","29222","","{""Age"":""21"",""Nation"":""中国"",""Born"":""重庆"",""Live"":""重庆"",""Ethnic"":""苗"",""Alipay"":""15023592545""}",""
"","","","","","survey-multi-choice","135","322075","0.0-8.0","104","1","2022-10-07 11:53:07","d60b49b5908c80e163b920d72b52d584","183.230.199.74","Mozilla/5.0 (Windows NT 10.0; Win64; x64) AppleWebKit/537.36 (KHTML, like Gecko) Chrome/105.0.0.0 Safari/537.36 Edg/105.0.1343.53","WebKit","Edge","105.0.1343.53","Windows","10.0","17490","","{""Gender"":""女"",""Education"":""高中毕业"",""Income"":""￥35,000-￥69,999"",""Children"":""2"",""Race"":""亚洲人""}","[0,1,2,3,4]"
"","","","","","survey-multi-select","136","341487","0.0-9.0","104","1","2022-10-07 11:53:07","d60b49b5908c80e163b920d72b52d584","183.230.199.74","Mozilla/5.0 (Windows NT 10.0; Win64; x64) AppleWebKit/537.36 (KHTML, like Gecko) Chrome/105.0.0.0 Safari/537.36 Edg/105.0.1343.53","WebKit","Edge","105.0.1343.53","Windows","10.0","19395","","{""Marriage"":[""未婚""],""Religion"":[""无宗教信仰""]}","[0,1]"
"","","","","","survey-multi-choice","137","347954","0.0-10.0","104","1","2022-10-07 11:53:07","d60b49b5908c80e163b920d72b52d584","183.230.199.74","Mozilla/5.0 (Windows NT 10.0; Win64; x64) AppleWebKit/537.36 (KHTML, like Gecko) Chrome/105.0.0.0 Safari/537.36 Edg/105.0.1343.53","WebKit","Edge","105.0.1343.53","Windows","10.0","6457","","{""SES"":""3""}","[0]"
"","","","","","html-button-response","138","350486","0.0-11.0","104","1","2022-10-07 11:53:07","d60b49b5908c80e163b920d72b52d584","183.230.199.74","Mozilla/5.0 (Windows NT 10.0; Win64; x64) AppleWebKit/537.36 (KHTML, like Gecko) Chrome/105.0.0.0 Safari/537.36 Edg/105.0.1343.53","WebKit","Edge","105.0.1343.53","Windows","10.0","2525","<p><strong>请判断下列陈述在多大程度上可以形容你？</p><p> (1 = ""和我一点都不像"" to 5 = ""非常像我"".)</strong></p>","0",""
"","","","","","survey-likert","139","408316","0.0-12.0","104","1","2022-10-07 11:53:07","d60b49b5908c80e163b920d72b52d584","183.230.199.74","Mozilla/5.0 (Windows NT 10.0; Win64; x64) AppleWebKit/537.36 (KHTML, like Gecko) Chrome/105.0.0.0 Safari/537.36 Edg/105.0.1343.53","WebKit","Edge","105.0.1343.53","Windows","10.0","57826","","{""Aggression1"":2,""Aggression2"":2,""Aggression3"":3,""Aggression4"":2,""Aggression5"":1,""Aggression6"":2,""Aggression7"":4,""Aggression8"":0,""Aggression9"":3}","[0,1,2,3,4,5,6,7,8]"
"","","","","","html-button-response","140","410574","0.0-13.0","104","1","2022-10-07 11:53:07","d60b49b5908c80e163b920d72b52d584","183.230.199.74","Mozilla/5.0 (Windows NT 10.0; Win64; x64) AppleWebKit/537.36 (KHTML, like Gecko) Chrome/105.0.0.0 Safari/537.36 Edg/105.0.1343.53","WebKit","Edge","105.0.1343.53","Windows","10.0","2249","<p><strong>请判断你在多大程度上同意下列陈述。</strong></p>","0",""
"","","","","","survey-likert","141","470486","0.0-14.0","104","1","2022-10-07 11:53:07","d60b49b5908c80e163b920d72b52d584","183.230.199.74","Mozilla/5.0 (Windows NT 10.0; Win64; x64) AppleWebKit/537.36 (KHTML, like Gecko) Chrome/105.0.0.0 Safari/537.36 Edg/105.0.1343.53","WebKit","Edge","105.0.1343.53","Windows","10.0","59904","","{""scale19"":3,""scale21"":2,""scale4"":2,""scale10"":1,""scale26"":2,""scale22"":2,""scale6"":2,""scale14"":2,""scale17"":3,""scale9"":2,""scale18"":1,""scale27"":2,""scale8"":3,""scale28"":2,""scale3"":2,""scale20"":3,""scale13"":2,""scale25"":3,""scale2"":2,""scale7"":2,""scale15"":2,""scale5"":2,""scale1"":1,""scale23"":2,""scale24"":2,""scale12"":3,""scale16"":2,""scale11"":2}","[18,20,3,9,25,21,5,13,16,8,17,26,7,27,2,19,12,24,1,6,14,4,0,22,23,11,15,10]"
"","","","","","html-button-response","142","471827","0.0-15.0","104","1","2022-10-07 11:53:07","d60b49b5908c80e163b920d72b52d584","183.230.199.74","Mozilla/5.0 (Windows NT 10.0; Win64; x64) AppleWebKit/537.36 (KHTML, like Gecko) Chrome/105.0.0.0 Safari/537.36 Edg/105.0.1343.53","WebKit","Edge","105.0.1343.53","Windows","10.0","1334","<p><strong>请判断你在多大程度上同意下列陈述。</strong></p>","0",""
"","","","","","survey-likert","143","536822","0.0-16.0","104","1","2022-10-07 11:53:07","d60b49b5908c80e163b920d72b52d584","183.230.199.74","Mozilla/5.0 (Windows NT 10.0; Win64; x64) AppleWebKit/537.36 (KHTML, like Gecko) Chrome/105.0.0.0 Safari/537.36 Edg/105.0.1343.53","WebKit","Edge","105.0.1343.53","Windows","10.0","64987","","{""sdo12"":4,""sdo2"":4,""sdo6"":3,""sdo4"":2,""sdo3"":4,""sdo7"":0,""sdo5"":3,""sdo8"":2,""sdo10"":4,""sdo1"":4,""sdo14"":2,""sdo16"":2,""sdo11"":2,""sdo15"":3,""sdo9"":2,""sdo13"":4}","[11,1,5,3,2,6,4,7,9,0,13,15,10,14,8,12]"
"","","","","","html-button-response","144","537879","0.0-17.0","104","1","2022-10-07 11:53:07","d60b49b5908c80e163b920d72b52d584","183.230.199.74","Mozilla/5.0 (Windows NT 10.0; Win64; x64) AppleWebKit/537.36 (KHTML, like Gecko) Chrome/105.0.0.0 Safari/537.36 Edg/105.0.1343.53","WebKit","Edge","105.0.1343.53","Windows","10.0","1049","<p><strong>请判断你在多大程度上同意下列陈述。</strong></p>","0",""
"","","","","","survey-likert","145","572109","0.0-18.0","104","1","2022-10-07 11:53:07","d60b49b5908c80e163b920d72b52d584","183.230.199.74","Mozilla/5.0 (Windows NT 10.0; Win64; x64) AppleWebKit/537.36 (KHTML, like Gecko) Chrome/105.0.0.0 Safari/537.36 Edg/105.0.1343.53","WebKit","Edge","105.0.1343.53","Windows","10.0","34225","","{""caring1"":3,""liking1"":0,""caring2"":3,""protection1"":1,""liking2"":2,""caring3"":3,""protection2"":2,""liking3"":2,""protection3"":2,""caring4"":3,""liking4"":1,""protection4"":2,""caring5"":2,""liking5"":3,""protection5"":2}","[0,1,2,3,4,5,6,7,8,9,10,11,12,13,14]"
"","","","","","html-button-response","146","576571","0.0-19.0","104","1","2022-10-07 11:53:07","d60b49b5908c80e163b920d72b52d584","183.230.199.74","Mozilla/5.0 (Windows NT 10.0; Win64; x64) AppleWebKit/537.36 (KHTML, like Gecko) Chrome/105.0.0.0 Safari/537.36 Edg/105.0.1343.53","WebKit","Edge","105.0.1343.53","Windows","10.0","4455","<p><strong>请判断下列场景中你的内心感受有多柔软。</strong></p>","0",""
"","","","","","survey-likert","147","604428","0.0-20.0","104","1","2022-10-07 11:53:07","d60b49b5908c80e163b920d72b52d584","183.230.199.74","Mozilla/5.0 (Windows NT 10.0; Win64; x64) AppleWebKit/537.36 (KHTML, like Gecko) Chrome/105.0.0.0 Safari/537.36 Edg/105.0.1343.53","WebKit","Edge","105.0.1343.53","Windows","10.0","27852","","{""tenderness-positive1"":3,""tenderness-negative1"":2,""tenderness-negative2"":3,""tenderness-positive2"":3,""tenderness-positive3"":1,""tenderness-negative3"":0,""tenderness-positive4"":3,""tendereness-negative4"":1,""tendernness-negative5"":2,""tenderness-positive5"":1}","[0,1,2,3,4,5,6,7,8,9]"
"","","","","","survey-multi-choice","148","612627","0.0-21.0","104","1","2022-10-07 11:53:07","d60b49b5908c80e163b920d72b52d584","183.230.199.74","Mozilla/5.0 (Windows NT 10.0; Win64; x64) AppleWebKit/537.36 (KHTML, like Gecko) Chrome/105.0.0.0 Safari/537.36 Edg/105.0.1343.53","WebKit","Edge","105.0.1343.53","Windows","10.0","8190","","{""Attention2"":""其他""}","[0]"
"","","","","","html-button-response","149","614011","0.0-22.0","104","1","2022-10-07 11:53:07","d60b49b5908c80e163b920d72b52d584","183.230.199.74","Mozilla/5.0 (Windows NT 10.0; Win64; x64) AppleWebKit/537.36 (KHTML, like Gecko) Chrome/105.0.0.0 Safari/537.36 Edg/105.0.1343.53","WebKit","Edge","105.0.1343.53","Windows","10.0","1375","<p><strong>请判断你在多大程度上同意下列陈述。</strong></p>","0",""
"","","","","","survey-likert","150","664606","0.0-23.0","104","1","2022-10-07 11:53:07","d60b49b5908c80e163b920d72b52d584","183.230.199.74","Mozilla/5.0 (Windows NT 10.0; Win64; x64) AppleWebKit/537.36 (KHTML, like Gecko) Chrome/105.0.0.0 Safari/537.36 Edg/105.0.1343.53","WebKit","Edge","105.0.1343.53","Windows","10.0","50588","","{""Patri6"":3,""Nation1"":2,""Nation2"":3,""Patri5"":4,""Nation7"":4,""Patri11"":3,""Patri1"":4,""Nation4"":3,""Nation5"":3,""Patri4"":4,""Patri12"":2,""Nation3"":2,""Nation6"":3,""Patri3"":3,""Nation8"":1,""Patri8"":3,""Patri2"":3,""Patri9"":3,""Patri10"":4,""Patri7"":4}","[5,12,13,4,18,10,0,15,16,3,11,14,17,2,19,7,1,8,9,6]"
"","","","","","html-button-response","151","665939","0.0-24.0","104","1","2022-10-07 11:53:07","d60b49b5908c80e163b920d72b52d584","183.230.199.74","Mozilla/5.0 (Windows NT 10.0; Win64; x64) AppleWebKit/537.36 (KHTML, like Gecko) Chrome/105.0.0.0 Safari/537.36 Edg/105.0.1343.53","WebKit","Edge","105.0.1343.53","Windows","10.0","1324","<p><strong>请判断你在多大程度上同意下列陈述。</strong></p>","0",""
"","","","","","survey-likert","152","707510","0.0-25.0","104","1","2022-10-07 11:53:07","d60b49b5908c80e163b920d72b52d584","183.230.199.74","Mozilla/5.0 (Windows NT 10.0; Win64; x64) AppleWebKit/537.36 (KHTML, like Gecko) Chrome/105.0.0.0 Safari/537.36 Edg/105.0.1343.53","WebKit","Edge","105.0.1343.53","Windows","10.0","41564","","{""vi4"":6,""hi3"":4,""vc1"":8,""Robot"":6,""vc3"":5,""hi4"":5,""hc4"":6,""vi2"":4,""vi1"":6,""vc2"":5,""hc3"":5,""hc2"":5,""hi2"":5,""hi1"":6,""vc4"":5,""hc1"":7,""vi3"":5}","[8,2,13,7,15,3,12,5,4,14,11,10,1,0,16,9,6]"
"","","","","","survey-text","153","715339","0.0-26.0","104","1","2022-10-07 11:53:07","d60b49b5908c80e163b920d72b52d584","183.230.199.74","Mozilla/5.0 (Windows NT 10.0; Win64; x64) AppleWebKit/537.36 (KHTML, like Gecko) Chrome/105.0.0.0 Safari/537.36 Edg/105.0.1343.53","WebKit","Edge","105.0.1343.53","Windows","10.0","7801","","{""Comments"":""无""}",""
"","","","","","html-button-response","154","716602","0.0-27.0","104","1","2022-10-07 11:53:07","d60b49b5908c80e163b920d72b52d584","183.230.199.74","Mozilla/5.0 (Windows NT 10.0; Win64; x64) AppleWebKit/537.36 (KHTML, like Gecko) Chrome/105.0.0.0 Safari/537.36 Edg/105.0.1343.53","WebKit","Edge","105.0.1343.53","Windows","10.0","1258","<strong><p>恭喜你完成了实验！</p><p>感谢您的参与。</p></strong>","0",""
