"success","timeout","failed_images","failed_audio","failed_video","trial_type","trial_index","time_elapsed","internal_node_id","run_id","condition","recorded_at","source_code_version","ip","user_agent","device","browser","browser_version","platform","platform_version","rt","stimulus","response","question_order"
"true","false","[]","[]","[]","preload","0","3624","0.0-0.0","105","1","2022-10-07 12:31:53","d60b49b5908c80e163b920d72b52d584","223.104.31.198","Mozilla/5.0 (iPhone; CPU iPhone OS 15_4_1 like Mac OS X) AppleWebKit/605.1.15 (KHTML, like Gecko) Mobile/15E148 MicroMessenger/8.0.29(0x18001d2c) NetType/4G Language/zh_CN","iPhone","Mozilla","","iOS","15_4_1","","","",""
"true","","","","","fullscreen","1","9213","0.0-1.0","105","1","2022-10-07 12:31:53","d60b49b5908c80e163b920d72b52d584","223.104.31.198","Mozilla/5.0 (iPhone; CPU iPhone OS 15_4_1 like Mac OS X) AppleWebKit/605.1.15 (KHTML, like Gecko) Mobile/15E148 MicroMessenger/8.0.29(0x18001d2c) NetType/4G Language/zh_CN","iPhone","Mozilla","","iOS","15_4_1","","","",""
"","","","","","html-button-response","2","22947","0.0-2.0","105","1","2022-10-07 12:31:53","d60b49b5908c80e163b920d72b52d584","223.104.31.198","Mozilla/5.0 (iPhone; CPU iPhone OS 15_4_1 like Mac OS X) AppleWebKit/605.1.15 (KHTML, like Gecko) Mobile/15E148 MicroMessenger/8.0.29(0x18001d2c) NetType/4G Language/zh_CN","iPhone","Mozilla","","iOS","15_4_1","13729","<p style=""font-size:20px;font-weight:bold;"">实验知情同意书</p><p style=""text-align:left;""><strong>实验名称：</strong>社会冲突研究</p><p style=""text-align:left;""><strong>主要研究者：</strong>韩晓春副教授（北京师范大学心理学部）</p><p style=""text-align:left;""><strong>联系方式：</strong>发送邮件至xiaochun.han@bnu.edu.cn</p><p style=""text-align:left;""><strong>研究目的：</strong>研究旨在了解人类面对群体冲突时的决策方式，以及相关的心理学特质。实验调查大约需要20分钟。</p><p style=""text-align:left;""><strong>实验流程：</strong>实验包含两部分。第一部分呈现一系列群体冲突场景，请你决定如何对这些冲突进行反应，大约需要10分钟完成。第二部分包含一系列人口统计学信息收集和心理学问卷，大约需要10分钟完成。</p><p style=""text-align:left;""><strong>参加及退出规则：</strong>参加本实验完全取决于您的个人意愿。在参与过程中，您可以随时退出，并且不用承担任何后果。</p><p style=""text-align:left;""><strong>隐私：</strong>本实验完全匿名进行，不会收集您的姓名或其他能够识别您身份的信息。实验中收集的作答仅用作科学研究使用，可能会在学术期刊/书籍上发表，或者用于教学，您的数据未来可能会和其他研究者或实验室分享，但您的个人身份不会被识别。</p><p style=""text-align:left;""><strong>实验报酬：</strong>实验完成后，您将获得15元人民币报酬，以感谢您的时间和努力。调查问卷中包含几道题目用以测验您作答时的认真度。只有完成全部实验，并且正确回答认真度测验的被试才能获得实验报酬。实验报酬将通过支付宝转账发放。</p><p style=""text-align:left;font-size:20px;""><strong>如果您同意以上实验知情同意书的内容，请点击'同意并且开始实验'按钮；否则请关闭浏览器界面，退出实验。</strong></p>","0",""
"","","","","","html-button-response","3","33027","0.0-3.0","105","1","2022-10-07 12:31:53","d60b49b5908c80e163b920d72b52d584","223.104.31.198","Mozilla/5.0 (iPhone; CPU iPhone OS 15_4_1 like Mac OS X) AppleWebKit/605.1.15 (KHTML, like Gecko) Mobile/15E148 MicroMessenger/8.0.29(0x18001d2c) NetType/4G Language/zh_CN","iPhone","Mozilla","","iOS","15_4_1","10074","<p ><strong>实验任务一：</strong></p><p>请想象你的国家与另一个国家发生了军事冲突。</p><p>你是国家军队的指挥官，你将如何在冲突中进行决策。</p><p>具体来说，作为军队指挥官，请你决定是否发射导弹进行打击。</p><p>接下来，你会面对一系列场景，请仔细阅读每个场景，然后进行决策。</p><p>这部分实验任务大约需要10分钟。</p><p><strong>实验过程中，请集中注意力。</strong></p>","0",""
"","","","","","html-keyboard-response","4","34034","0.0-4.0-0.0","105","1","2022-10-07 12:31:53","d60b49b5908c80e163b920d72b52d584","223.104.31.198","Mozilla/5.0 (iPhone; CPU iPhone OS 15_4_1 like Mac OS X) AppleWebKit/605.1.15 (KHTML, like Gecko) Mobile/15E148 MicroMessenger/8.0.29(0x18001d2c) NetType/4G Language/zh_CN","iPhone","Mozilla","","iOS","15_4_1","null","<div style=""font-size:60px;"">+</div>","null",""
"","","","","","html-button-response","5","44443","0.0-4.0-1.0","105","1","2022-10-07 12:31:53","d60b49b5908c80e163b920d72b52d584","223.104.31.198","Mozilla/5.0 (iPhone; CPU iPhone OS 15_4_1 like Mac OS X) AppleWebKit/605.1.15 (KHTML, like Gecko) Mobile/15E148 MicroMessenger/8.0.29(0x18001d2c) NetType/4G Language/zh_CN","iPhone","Mozilla","","iOS","15_4_1","10401","<p>作为军队的指挥官，你可以选择发射导弹杀死 <strong>1名</strong> 敌国士兵，但会炸毁附近的 <strong>1棵</strong> 敌国树木。</p> <p>树木的照片如下图所示。</p> <p></p> <img src='stimuli/trees/12.png', style='max-width: 30%;'> </img> <p><strong>你是否选择发射武器？</strong></p>","0",""
"","","","","","html-keyboard-response","6","45446","0.0-4.0-0.1","105","1","2022-10-07 12:31:53","d60b49b5908c80e163b920d72b52d584","223.104.31.198","Mozilla/5.0 (iPhone; CPU iPhone OS 15_4_1 like Mac OS X) AppleWebKit/605.1.15 (KHTML, like Gecko) Mobile/15E148 MicroMessenger/8.0.29(0x18001d2c) NetType/4G Language/zh_CN","iPhone","Mozilla","","iOS","15_4_1","null","<div style=""font-size:60px;"">+</div>","null",""
"","","","","","html-button-response","7","60496","0.0-4.0-1.1","105","1","2022-10-07 12:31:53","d60b49b5908c80e163b920d72b52d584","223.104.31.198","Mozilla/5.0 (iPhone; CPU iPhone OS 15_4_1 like Mac OS X) AppleWebKit/605.1.15 (KHTML, like Gecko) Mobile/15E148 MicroMessenger/8.0.29(0x18001d2c) NetType/4G Language/zh_CN","iPhone","Mozilla","","iOS","15_4_1","15044","<p>作为军队的指挥官，你可以选择发射导弹杀死 <strong>6名</strong> 敌国士兵，但会误杀附近的 <strong>1名</strong> 敌国平民。</p> <p>平民照片如下图所示。</p> <p></p> <img src='stimuli/faces/NCM5.jpg', style='max-width: 30%;'> </img> <p><strong>你是否选择发射武器？</strong></p>","1",""
"","","","","","html-keyboard-response","8","61500","0.0-4.0-0.2","105","1","2022-10-07 12:31:53","d60b49b5908c80e163b920d72b52d584","223.104.31.198","Mozilla/5.0 (iPhone; CPU iPhone OS 15_4_1 like Mac OS X) AppleWebKit/605.1.15 (KHTML, like Gecko) Mobile/15E148 MicroMessenger/8.0.29(0x18001d2c) NetType/4G Language/zh_CN","iPhone","Mozilla","","iOS","15_4_1","null","<div style=""font-size:60px;"">+</div>","null",""
"","","","","","html-button-response","9","64958","0.0-4.0-1.2","105","1","2022-10-07 12:31:53","d60b49b5908c80e163b920d72b52d584","223.104.31.198","Mozilla/5.0 (iPhone; CPU iPhone OS 15_4_1 like Mac OS X) AppleWebKit/605.1.15 (KHTML, like Gecko) Mobile/15E148 MicroMessenger/8.0.29(0x18001d2c) NetType/4G Language/zh_CN","iPhone","Mozilla","","iOS","15_4_1","3452","<p>作为军队的指挥官，你可以选择发射导弹杀死 <strong>2名</strong> 敌国士兵，但会炸毁附近的 <strong>1棵</strong> 敌国树木。</p> <p>树木的照片如下图所示。</p> <p></p> <img src='stimuli/trees/1.png', style='max-width: 30%;'> </img> <p><strong>你是否选择发射武器？</strong></p>","0",""
"","","","","","html-keyboard-response","10","65962","0.0-4.0-0.3","105","1","2022-10-07 12:31:53","d60b49b5908c80e163b920d72b52d584","223.104.31.198","Mozilla/5.0 (iPhone; CPU iPhone OS 15_4_1 like Mac OS X) AppleWebKit/605.1.15 (KHTML, like Gecko) Mobile/15E148 MicroMessenger/8.0.29(0x18001d2c) NetType/4G Language/zh_CN","iPhone","Mozilla","","iOS","15_4_1","null","<div style=""font-size:60px;"">+</div>","null",""
"","","","","","html-button-response","11","73195","0.0-4.0-1.3","105","1","2022-10-07 12:31:53","d60b49b5908c80e163b920d72b52d584","223.104.31.198","Mozilla/5.0 (iPhone; CPU iPhone OS 15_4_1 like Mac OS X) AppleWebKit/605.1.15 (KHTML, like Gecko) Mobile/15E148 MicroMessenger/8.0.29(0x18001d2c) NetType/4G Language/zh_CN","iPhone","Mozilla","","iOS","15_4_1","7227","<p>作为军队的指挥官，你可以选择发射导弹杀死 <strong>2名</strong> 敌国士兵，但会误杀附近的 <strong>1名</strong> 敌国平民。</p> <p>平民照片如下图所示。</p> <p></p> <img src='stimuli/faces/NCF1.jpg', style='max-width: 30%;'> </img> <p><strong>你是否选择发射武器？</strong></p>","1",""
"","","","","","html-keyboard-response","12","74201","0.0-4.0-0.4","105","1","2022-10-07 12:31:53","d60b49b5908c80e163b920d72b52d584","223.104.31.198","Mozilla/5.0 (iPhone; CPU iPhone OS 15_4_1 like Mac OS X) AppleWebKit/605.1.15 (KHTML, like Gecko) Mobile/15E148 MicroMessenger/8.0.29(0x18001d2c) NetType/4G Language/zh_CN","iPhone","Mozilla","","iOS","15_4_1","null","<div style=""font-size:60px;"">+</div>","null",""
"","","","","","html-button-response","13","76773","0.0-4.0-1.4","105","1","2022-10-07 12:31:53","d60b49b5908c80e163b920d72b52d584","223.104.31.198","Mozilla/5.0 (iPhone; CPU iPhone OS 15_4_1 like Mac OS X) AppleWebKit/605.1.15 (KHTML, like Gecko) Mobile/15E148 MicroMessenger/8.0.29(0x18001d2c) NetType/4G Language/zh_CN","iPhone","Mozilla","","iOS","15_4_1","2566","<p>作为军队的指挥官，你可以选择发射导弹杀死 <strong>5名</strong> 敌国士兵，但会炸毁附近的 <strong>1棵</strong> 敌国树木。</p> <p>树木的照片如下图所示。</p> <p></p> <img src='stimuli/trees/4.png', style='max-width: 30%;'> </img> <p><strong>你是否选择发射武器？</strong></p>","0",""
"","","","","","html-keyboard-response","14","77777","0.0-4.0-0.5","105","1","2022-10-07 12:31:53","d60b49b5908c80e163b920d72b52d584","223.104.31.198","Mozilla/5.0 (iPhone; CPU iPhone OS 15_4_1 like Mac OS X) AppleWebKit/605.1.15 (KHTML, like Gecko) Mobile/15E148 MicroMessenger/8.0.29(0x18001d2c) NetType/4G Language/zh_CN","iPhone","Mozilla","","iOS","15_4_1","null","<div style=""font-size:60px;"">+</div>","null",""
"","","","","","html-button-response","15","80598","0.0-4.0-1.5","105","1","2022-10-07 12:31:53","d60b49b5908c80e163b920d72b52d584","223.104.31.198","Mozilla/5.0 (iPhone; CPU iPhone OS 15_4_1 like Mac OS X) AppleWebKit/605.1.15 (KHTML, like Gecko) Mobile/15E148 MicroMessenger/8.0.29(0x18001d2c) NetType/4G Language/zh_CN","iPhone","Mozilla","","iOS","15_4_1","2811","<p>作为军队的指挥官，你可以选择发射导弹杀死 <strong>4名</strong> 敌国士兵，但会炸毁附近的 <strong>1棵</strong> 敌国树木。</p> <p>树木的照片如下图所示。</p> <p></p> <img src='stimuli/trees/5.png', style='max-width: 30%;'> </img> <p><strong>你是否选择发射武器？</strong></p>","0",""
"","","","","","html-keyboard-response","16","81601","0.0-4.0-0.6","105","1","2022-10-07 12:31:53","d60b49b5908c80e163b920d72b52d584","223.104.31.198","Mozilla/5.0 (iPhone; CPU iPhone OS 15_4_1 like Mac OS X) AppleWebKit/605.1.15 (KHTML, like Gecko) Mobile/15E148 MicroMessenger/8.0.29(0x18001d2c) NetType/4G Language/zh_CN","iPhone","Mozilla","","iOS","15_4_1","null","<div style=""font-size:60px;"">+</div>","null",""
"","","","","","html-button-response","17","85237","0.0-4.0-1.6","105","1","2022-10-07 12:31:53","d60b49b5908c80e163b920d72b52d584","223.104.31.198","Mozilla/5.0 (iPhone; CPU iPhone OS 15_4_1 like Mac OS X) AppleWebKit/605.1.15 (KHTML, like Gecko) Mobile/15E148 MicroMessenger/8.0.29(0x18001d2c) NetType/4G Language/zh_CN","iPhone","Mozilla","","iOS","15_4_1","3628","<p>作为军队的指挥官，你可以选择发射导弹杀死 <strong>9名</strong> 敌国士兵，但会炸毁附近的 <strong>1棵</strong> 敌国树木。</p> <p>树木的照片如下图所示。</p> <p></p> <img src='stimuli/trees/11.png', style='max-width: 30%;'> </img> <p><strong>你是否选择发射武器？</strong></p>","0",""
"","","","","","html-keyboard-response","18","86241","0.0-4.0-0.7","105","1","2022-10-07 12:31:53","d60b49b5908c80e163b920d72b52d584","223.104.31.198","Mozilla/5.0 (iPhone; CPU iPhone OS 15_4_1 like Mac OS X) AppleWebKit/605.1.15 (KHTML, like Gecko) Mobile/15E148 MicroMessenger/8.0.29(0x18001d2c) NetType/4G Language/zh_CN","iPhone","Mozilla","","iOS","15_4_1","null","<div style=""font-size:60px;"">+</div>","null",""
"","","","","","html-button-response","19","89688","0.0-4.0-1.7","105","1","2022-10-07 12:31:53","d60b49b5908c80e163b920d72b52d584","223.104.31.198","Mozilla/5.0 (iPhone; CPU iPhone OS 15_4_1 like Mac OS X) AppleWebKit/605.1.15 (KHTML, like Gecko) Mobile/15E148 MicroMessenger/8.0.29(0x18001d2c) NetType/4G Language/zh_CN","iPhone","Mozilla","","iOS","15_4_1","3440","<p>作为军队的指挥官，你可以选择发射导弹杀死 <strong>10名</strong> 敌国士兵，但会误杀附近的 <strong>1名</strong> 敌国平民。</p> <p>平民照片如下图所示。</p> <p></p> <img src='stimuli/faces/NCM7.jpg', style='max-width: 30%;'> </img> <p><strong>你是否选择发射武器？</strong></p>","1",""
"","","","","","html-keyboard-response","20","90695","0.0-4.0-0.8","105","1","2022-10-07 12:31:53","d60b49b5908c80e163b920d72b52d584","223.104.31.198","Mozilla/5.0 (iPhone; CPU iPhone OS 15_4_1 like Mac OS X) AppleWebKit/605.1.15 (KHTML, like Gecko) Mobile/15E148 MicroMessenger/8.0.29(0x18001d2c) NetType/4G Language/zh_CN","iPhone","Mozilla","","iOS","15_4_1","null","<div style=""font-size:60px;"">+</div>","null",""
"","","","","","html-button-response","21","93692","0.0-4.0-1.8","105","1","2022-10-07 12:31:53","d60b49b5908c80e163b920d72b52d584","223.104.31.198","Mozilla/5.0 (iPhone; CPU iPhone OS 15_4_1 like Mac OS X) AppleWebKit/605.1.15 (KHTML, like Gecko) Mobile/15E148 MicroMessenger/8.0.29(0x18001d2c) NetType/4G Language/zh_CN","iPhone","Mozilla","","iOS","15_4_1","2990","<p>作为军队的指挥官，你可以选择发射导弹杀死 <strong>2名</strong> 敌国士兵，但会炸毁附近的 <strong>1棵</strong> 敌国树木。</p> <p>树木的照片如下图所示。</p> <p></p> <img src='stimuli/trees/15.png', style='max-width: 30%;'> </img> <p><strong>你是否选择发射武器？</strong></p>","0",""
"","","","","","html-keyboard-response","22","94698","0.0-4.0-0.9","105","1","2022-10-07 12:31:53","d60b49b5908c80e163b920d72b52d584","223.104.31.198","Mozilla/5.0 (iPhone; CPU iPhone OS 15_4_1 like Mac OS X) AppleWebKit/605.1.15 (KHTML, like Gecko) Mobile/15E148 MicroMessenger/8.0.29(0x18001d2c) NetType/4G Language/zh_CN","iPhone","Mozilla","","iOS","15_4_1","null","<div style=""font-size:60px;"">+</div>","null",""
"","","","","","html-button-response","23","98507","0.0-4.0-1.9","105","1","2022-10-07 12:31:53","d60b49b5908c80e163b920d72b52d584","223.104.31.198","Mozilla/5.0 (iPhone; CPU iPhone OS 15_4_1 like Mac OS X) AppleWebKit/605.1.15 (KHTML, like Gecko) Mobile/15E148 MicroMessenger/8.0.29(0x18001d2c) NetType/4G Language/zh_CN","iPhone","Mozilla","","iOS","15_4_1","3799","<p>作为军队的指挥官，你可以选择发射导弹杀死 <strong>7名</strong> 敌国士兵，但会误杀附近的 <strong>1名</strong> 敌国平民。</p> <p>平民照片如下图所示。</p> <p></p> <img src='stimuli/faces/NCM1.jpg', style='max-width: 30%;'> </img> <p><strong>你是否选择发射武器？</strong></p>","1",""
"","","","","","html-keyboard-response","24","99510","0.0-4.0-0.10","105","1","2022-10-07 12:31:53","d60b49b5908c80e163b920d72b52d584","223.104.31.198","Mozilla/5.0 (iPhone; CPU iPhone OS 15_4_1 like Mac OS X) AppleWebKit/605.1.15 (KHTML, like Gecko) Mobile/15E148 MicroMessenger/8.0.29(0x18001d2c) NetType/4G Language/zh_CN","iPhone","Mozilla","","iOS","15_4_1","null","<div style=""font-size:60px;"">+</div>","null",""
"","","","","","html-button-response","25","104767","0.0-4.0-1.10","105","1","2022-10-07 12:31:53","d60b49b5908c80e163b920d72b52d584","223.104.31.198","Mozilla/5.0 (iPhone; CPU iPhone OS 15_4_1 like Mac OS X) AppleWebKit/605.1.15 (KHTML, like Gecko) Mobile/15E148 MicroMessenger/8.0.29(0x18001d2c) NetType/4G Language/zh_CN","iPhone","Mozilla","","iOS","15_4_1","5250","<p>作为军队的指挥官，你可以选择发射导弹杀死 <strong>6名</strong> 敌国士兵，但会炸毁附近的 <strong>1棵</strong> 敌国树木。</p> <p>树木的照片如下图所示。</p> <p></p> <img src='stimuli/trees/9.png', style='max-width: 30%;'> </img> <p><strong>你是否选择发射武器？</strong></p>","0",""
"","","","","","html-keyboard-response","26","105771","0.0-4.0-0.11","105","1","2022-10-07 12:31:53","d60b49b5908c80e163b920d72b52d584","223.104.31.198","Mozilla/5.0 (iPhone; CPU iPhone OS 15_4_1 like Mac OS X) AppleWebKit/605.1.15 (KHTML, like Gecko) Mobile/15E148 MicroMessenger/8.0.29(0x18001d2c) NetType/4G Language/zh_CN","iPhone","Mozilla","","iOS","15_4_1","null","<div style=""font-size:60px;"">+</div>","null",""
"","","","","","html-button-response","27","108346","0.0-4.0-1.11","105","1","2022-10-07 12:31:53","d60b49b5908c80e163b920d72b52d584","223.104.31.198","Mozilla/5.0 (iPhone; CPU iPhone OS 15_4_1 like Mac OS X) AppleWebKit/605.1.15 (KHTML, like Gecko) Mobile/15E148 MicroMessenger/8.0.29(0x18001d2c) NetType/4G Language/zh_CN","iPhone","Mozilla","","iOS","15_4_1","2567","<p>作为军队的指挥官，你可以选择发射导弹杀死 <strong>4名</strong> 敌国士兵，但会炸毁附近的 <strong>1棵</strong> 敌国树木。</p> <p>树木的照片如下图所示。</p> <p></p> <img src='stimuli/trees/7.png', style='max-width: 30%;'> </img> <p><strong>你是否选择发射武器？</strong></p>","0",""
"","","","","","html-keyboard-response","28","109351","0.0-4.0-0.12","105","1","2022-10-07 12:31:53","d60b49b5908c80e163b920d72b52d584","223.104.31.198","Mozilla/5.0 (iPhone; CPU iPhone OS 15_4_1 like Mac OS X) AppleWebKit/605.1.15 (KHTML, like Gecko) Mobile/15E148 MicroMessenger/8.0.29(0x18001d2c) NetType/4G Language/zh_CN","iPhone","Mozilla","","iOS","15_4_1","null","<div style=""font-size:60px;"">+</div>","null",""
"","","","","","html-button-response","29","113076","0.0-4.0-1.12","105","1","2022-10-07 12:31:53","d60b49b5908c80e163b920d72b52d584","223.104.31.198","Mozilla/5.0 (iPhone; CPU iPhone OS 15_4_1 like Mac OS X) AppleWebKit/605.1.15 (KHTML, like Gecko) Mobile/15E148 MicroMessenger/8.0.29(0x18001d2c) NetType/4G Language/zh_CN","iPhone","Mozilla","","iOS","15_4_1","3719","<p>作为军队的指挥官，你可以选择发射导弹杀死 <strong>10名</strong> 敌国士兵，但会炸毁附近的 <strong>1棵</strong> 敌国树木。</p> <p>树木的照片如下图所示。</p> <p></p> <img src='stimuli/trees/2.png', style='max-width: 30%;'> </img> <p><strong>你是否选择发射武器？</strong></p>","0",""
"","","","","","html-keyboard-response","30","114079","0.0-4.0-0.13","105","1","2022-10-07 12:31:53","d60b49b5908c80e163b920d72b52d584","223.104.31.198","Mozilla/5.0 (iPhone; CPU iPhone OS 15_4_1 like Mac OS X) AppleWebKit/605.1.15 (KHTML, like Gecko) Mobile/15E148 MicroMessenger/8.0.29(0x18001d2c) NetType/4G Language/zh_CN","iPhone","Mozilla","","iOS","15_4_1","null","<div style=""font-size:60px;"">+</div>","null",""
"","","","","","html-button-response","31","115786","0.0-4.0-1.13","105","1","2022-10-07 12:31:53","d60b49b5908c80e163b920d72b52d584","223.104.31.198","Mozilla/5.0 (iPhone; CPU iPhone OS 15_4_1 like Mac OS X) AppleWebKit/605.1.15 (KHTML, like Gecko) Mobile/15E148 MicroMessenger/8.0.29(0x18001d2c) NetType/4G Language/zh_CN","iPhone","Mozilla","","iOS","15_4_1","1701","<p>作为军队的指挥官，你可以选择发射导弹杀死 <strong>6名</strong> 敌国士兵，但会误杀附近的 <strong>1名</strong> 敌国平民。</p> <p>平民照片如下图所示。</p> <p></p> <img src='stimuli/faces/NCF7.jpg', style='max-width: 30%;'> </img> <p><strong>你是否选择发射武器？</strong></p>","1",""
"","","","","","html-keyboard-response","32","116791","0.0-4.0-0.14","105","1","2022-10-07 12:31:53","d60b49b5908c80e163b920d72b52d584","223.104.31.198","Mozilla/5.0 (iPhone; CPU iPhone OS 15_4_1 like Mac OS X) AppleWebKit/605.1.15 (KHTML, like Gecko) Mobile/15E148 MicroMessenger/8.0.29(0x18001d2c) NetType/4G Language/zh_CN","iPhone","Mozilla","","iOS","15_4_1","null","<div style=""font-size:60px;"">+</div>","null",""
"","","","","","html-button-response","33","117974","0.0-4.0-1.14","105","1","2022-10-07 12:31:53","d60b49b5908c80e163b920d72b52d584","223.104.31.198","Mozilla/5.0 (iPhone; CPU iPhone OS 15_4_1 like Mac OS X) AppleWebKit/605.1.15 (KHTML, like Gecko) Mobile/15E148 MicroMessenger/8.0.29(0x18001d2c) NetType/4G Language/zh_CN","iPhone","Mozilla","","iOS","15_4_1","1177","<p>作为军队的指挥官，你可以选择发射导弹杀死 <strong>2名</strong> 敌国士兵，但会误杀附近的 <strong>1名</strong> 敌国平民。</p> <p>平民照片如下图所示。</p> <p></p> <img src='stimuli/faces/NCM6.jpg', style='max-width: 30%;'> </img> <p><strong>你是否选择发射武器？</strong></p>","1",""
"","","","","","html-keyboard-response","34","118978","0.0-4.0-0.15","105","1","2022-10-07 12:31:53","d60b49b5908c80e163b920d72b52d584","223.104.31.198","Mozilla/5.0 (iPhone; CPU iPhone OS 15_4_1 like Mac OS X) AppleWebKit/605.1.15 (KHTML, like Gecko) Mobile/15E148 MicroMessenger/8.0.29(0x18001d2c) NetType/4G Language/zh_CN","iPhone","Mozilla","","iOS","15_4_1","null","<div style=""font-size:60px;"">+</div>","null",""
"","","","","","html-button-response","35","120303","0.0-4.0-1.15","105","1","2022-10-07 12:31:53","d60b49b5908c80e163b920d72b52d584","223.104.31.198","Mozilla/5.0 (iPhone; CPU iPhone OS 15_4_1 like Mac OS X) AppleWebKit/605.1.15 (KHTML, like Gecko) Mobile/15E148 MicroMessenger/8.0.29(0x18001d2c) NetType/4G Language/zh_CN","iPhone","Mozilla","","iOS","15_4_1","1317","<p>作为军队的指挥官，你可以选择发射导弹杀死 <strong>3名</strong> 敌国士兵，但会误杀附近的 <strong>1名</strong> 敌国平民。</p> <p>平民照片如下图所示。</p> <p></p> <img src='stimuli/faces/NCF2.jpg', style='max-width: 30%;'> </img> <p><strong>你是否选择发射武器？</strong></p>","1",""
"","","","","","html-keyboard-response","36","121309","0.0-4.0-0.16","105","1","2022-10-07 12:31:53","d60b49b5908c80e163b920d72b52d584","223.104.31.198","Mozilla/5.0 (iPhone; CPU iPhone OS 15_4_1 like Mac OS X) AppleWebKit/605.1.15 (KHTML, like Gecko) Mobile/15E148 MicroMessenger/8.0.29(0x18001d2c) NetType/4G Language/zh_CN","iPhone","Mozilla","","iOS","15_4_1","null","<div style=""font-size:60px;"">+</div>","null",""
"","","","","","html-button-response","37","122452","0.0-4.0-1.16","105","1","2022-10-07 12:31:53","d60b49b5908c80e163b920d72b52d584","223.104.31.198","Mozilla/5.0 (iPhone; CPU iPhone OS 15_4_1 like Mac OS X) AppleWebKit/605.1.15 (KHTML, like Gecko) Mobile/15E148 MicroMessenger/8.0.29(0x18001d2c) NetType/4G Language/zh_CN","iPhone","Mozilla","","iOS","15_4_1","1136","<p>作为军队的指挥官，你可以选择发射导弹杀死 <strong>9名</strong> 敌国士兵，但会误杀附近的 <strong>1名</strong> 敌国平民。</p> <p>平民照片如下图所示。</p> <p></p> <img src='stimuli/faces/NCM8.jpg', style='max-width: 30%;'> </img> <p><strong>你是否选择发射武器？</strong></p>","1",""
"","","","","","html-keyboard-response","38","123456","0.0-4.0-0.17","105","1","2022-10-07 12:31:53","d60b49b5908c80e163b920d72b52d584","223.104.31.198","Mozilla/5.0 (iPhone; CPU iPhone OS 15_4_1 like Mac OS X) AppleWebKit/605.1.15 (KHTML, like Gecko) Mobile/15E148 MicroMessenger/8.0.29(0x18001d2c) NetType/4G Language/zh_CN","iPhone","Mozilla","","iOS","15_4_1","null","<div style=""font-size:60px;"">+</div>","null",""
"","","","","","html-button-response","39","124790","0.0-4.0-1.17","105","1","2022-10-07 12:31:53","d60b49b5908c80e163b920d72b52d584","223.104.31.198","Mozilla/5.0 (iPhone; CPU iPhone OS 15_4_1 like Mac OS X) AppleWebKit/605.1.15 (KHTML, like Gecko) Mobile/15E148 MicroMessenger/8.0.29(0x18001d2c) NetType/4G Language/zh_CN","iPhone","Mozilla","","iOS","15_4_1","1326","<p>作为军队的指挥官，你可以选择发射导弹杀死 <strong>6名</strong> 敌国士兵，但会炸毁附近的 <strong>1棵</strong> 敌国树木。</p> <p>树木的照片如下图所示。</p> <p></p> <img src='stimuli/trees/16.png', style='max-width: 30%;'> </img> <p><strong>你是否选择发射武器？</strong></p>","0",""
"","","","","","html-keyboard-response","40","125795","0.0-4.0-0.18","105","1","2022-10-07 12:31:53","d60b49b5908c80e163b920d72b52d584","223.104.31.198","Mozilla/5.0 (iPhone; CPU iPhone OS 15_4_1 like Mac OS X) AppleWebKit/605.1.15 (KHTML, like Gecko) Mobile/15E148 MicroMessenger/8.0.29(0x18001d2c) NetType/4G Language/zh_CN","iPhone","Mozilla","","iOS","15_4_1","null","<div style=""font-size:60px;"">+</div>","null",""
"","","","","","html-button-response","41","127134","0.0-4.0-1.18","105","1","2022-10-07 12:31:53","d60b49b5908c80e163b920d72b52d584","223.104.31.198","Mozilla/5.0 (iPhone; CPU iPhone OS 15_4_1 like Mac OS X) AppleWebKit/605.1.15 (KHTML, like Gecko) Mobile/15E148 MicroMessenger/8.0.29(0x18001d2c) NetType/4G Language/zh_CN","iPhone","Mozilla","","iOS","15_4_1","1331","<p>作为军队的指挥官，你可以选择发射导弹杀死 <strong>7名</strong> 敌国士兵，但会误杀附近的 <strong>1名</strong> 敌国平民。</p> <p>平民照片如下图所示。</p> <p></p> <img src='stimuli/faces/NCF2.jpg', style='max-width: 30%;'> </img> <p><strong>你是否选择发射武器？</strong></p>","1",""
"","","","","","html-keyboard-response","42","128138","0.0-4.0-0.19","105","1","2022-10-07 12:31:53","d60b49b5908c80e163b920d72b52d584","223.104.31.198","Mozilla/5.0 (iPhone; CPU iPhone OS 15_4_1 like Mac OS X) AppleWebKit/605.1.15 (KHTML, like Gecko) Mobile/15E148 MicroMessenger/8.0.29(0x18001d2c) NetType/4G Language/zh_CN","iPhone","Mozilla","","iOS","15_4_1","null","<div style=""font-size:60px;"">+</div>","null",""
"","","","","","html-button-response","43","129295","0.0-4.0-1.19","105","1","2022-10-07 12:31:53","d60b49b5908c80e163b920d72b52d584","223.104.31.198","Mozilla/5.0 (iPhone; CPU iPhone OS 15_4_1 like Mac OS X) AppleWebKit/605.1.15 (KHTML, like Gecko) Mobile/15E148 MicroMessenger/8.0.29(0x18001d2c) NetType/4G Language/zh_CN","iPhone","Mozilla","","iOS","15_4_1","1149","<p>作为军队的指挥官，你可以选择发射导弹杀死 <strong>4名</strong> 敌国士兵，但会炸毁附近的 <strong>1棵</strong> 敌国树木。</p> <p>树木的照片如下图所示。</p> <p></p> <img src='stimuli/trees/9.png', style='max-width: 30%;'> </img> <p><strong>你是否选择发射武器？</strong></p>","1",""
"","","","","","html-keyboard-response","44","130298","0.0-4.0-0.20","105","1","2022-10-07 12:31:53","d60b49b5908c80e163b920d72b52d584","223.104.31.198","Mozilla/5.0 (iPhone; CPU iPhone OS 15_4_1 like Mac OS X) AppleWebKit/605.1.15 (KHTML, like Gecko) Mobile/15E148 MicroMessenger/8.0.29(0x18001d2c) NetType/4G Language/zh_CN","iPhone","Mozilla","","iOS","15_4_1","null","<div style=""font-size:60px;"">+</div>","null",""
"","","","","","html-button-response","45","131971","0.0-4.0-1.20","105","1","2022-10-07 12:31:53","d60b49b5908c80e163b920d72b52d584","223.104.31.198","Mozilla/5.0 (iPhone; CPU iPhone OS 15_4_1 like Mac OS X) AppleWebKit/605.1.15 (KHTML, like Gecko) Mobile/15E148 MicroMessenger/8.0.29(0x18001d2c) NetType/4G Language/zh_CN","iPhone","Mozilla","","iOS","15_4_1","1664","<p>作为军队的指挥官，你可以选择发射导弹杀死 <strong>7名</strong> 敌国士兵，但会炸毁附近的 <strong>1棵</strong> 敌国树木。</p> <p>树木的照片如下图所示。</p> <p></p> <img src='stimuli/trees/5.png', style='max-width: 30%;'> </img> <p><strong>你是否选择发射武器？</strong></p>","1",""
"","","","","","html-keyboard-response","46","132977","0.0-4.0-0.21","105","1","2022-10-07 12:31:53","d60b49b5908c80e163b920d72b52d584","223.104.31.198","Mozilla/5.0 (iPhone; CPU iPhone OS 15_4_1 like Mac OS X) AppleWebKit/605.1.15 (KHTML, like Gecko) Mobile/15E148 MicroMessenger/8.0.29(0x18001d2c) NetType/4G Language/zh_CN","iPhone","Mozilla","","iOS","15_4_1","null","<div style=""font-size:60px;"">+</div>","null",""
"","","","","","html-button-response","47","135495","0.0-4.0-1.21","105","1","2022-10-07 12:31:53","d60b49b5908c80e163b920d72b52d584","223.104.31.198","Mozilla/5.0 (iPhone; CPU iPhone OS 15_4_1 like Mac OS X) AppleWebKit/605.1.15 (KHTML, like Gecko) Mobile/15E148 MicroMessenger/8.0.29(0x18001d2c) NetType/4G Language/zh_CN","iPhone","Mozilla","","iOS","15_4_1","2510","<p>作为军队的指挥官，你可以选择发射导弹杀死 <strong>10名</strong> 敌国士兵，但会炸毁附近的 <strong>1棵</strong> 敌国树木。</p> <p>树木的照片如下图所示。</p> <p></p> <img src='stimuli/trees/4.png', style='max-width: 30%;'> </img> <p><strong>你是否选择发射武器？</strong></p>","0",""
"","","","","","html-keyboard-response","48","136499","0.0-4.0-0.22","105","1","2022-10-07 12:31:53","d60b49b5908c80e163b920d72b52d584","223.104.31.198","Mozilla/5.0 (iPhone; CPU iPhone OS 15_4_1 like Mac OS X) AppleWebKit/605.1.15 (KHTML, like Gecko) Mobile/15E148 MicroMessenger/8.0.29(0x18001d2c) NetType/4G Language/zh_CN","iPhone","Mozilla","","iOS","15_4_1","null","<div style=""font-size:60px;"">+</div>","null",""
"","","","","","html-button-response","49","137577","0.0-4.0-1.22","105","1","2022-10-07 12:31:53","d60b49b5908c80e163b920d72b52d584","223.104.31.198","Mozilla/5.0 (iPhone; CPU iPhone OS 15_4_1 like Mac OS X) AppleWebKit/605.1.15 (KHTML, like Gecko) Mobile/15E148 MicroMessenger/8.0.29(0x18001d2c) NetType/4G Language/zh_CN","iPhone","Mozilla","","iOS","15_4_1","1069","<p>作为军队的指挥官，你可以选择发射导弹杀死 <strong>4名</strong> 敌国士兵，但会误杀附近的 <strong>1名</strong> 敌国平民。</p> <p>平民照片如下图所示。</p> <p></p> <img src='stimuli/faces/NCF3.jpg', style='max-width: 30%;'> </img> <p><strong>你是否选择发射武器？</strong></p>","1",""
"","","","","","html-keyboard-response","50","138583","0.0-4.0-0.23","105","1","2022-10-07 12:31:53","d60b49b5908c80e163b920d72b52d584","223.104.31.198","Mozilla/5.0 (iPhone; CPU iPhone OS 15_4_1 like Mac OS X) AppleWebKit/605.1.15 (KHTML, like Gecko) Mobile/15E148 MicroMessenger/8.0.29(0x18001d2c) NetType/4G Language/zh_CN","iPhone","Mozilla","","iOS","15_4_1","null","<div style=""font-size:60px;"">+</div>","null",""
"","","","","","html-button-response","51","140636","0.0-4.0-1.23","105","1","2022-10-07 12:31:53","d60b49b5908c80e163b920d72b52d584","223.104.31.198","Mozilla/5.0 (iPhone; CPU iPhone OS 15_4_1 like Mac OS X) AppleWebKit/605.1.15 (KHTML, like Gecko) Mobile/15E148 MicroMessenger/8.0.29(0x18001d2c) NetType/4G Language/zh_CN","iPhone","Mozilla","","iOS","15_4_1","2046","<p>作为军队的指挥官，你可以选择发射导弹杀死 <strong>6名</strong> 敌国士兵，但会炸毁附近的 <strong>1棵</strong> 敌国树木。</p> <p>树木的照片如下图所示。</p> <p></p> <img src='stimuli/trees/12.png', style='max-width: 30%;'> </img> <p><strong>你是否选择发射武器？</strong></p>","1",""
"","","","","","html-keyboard-response","52","141640","0.0-4.0-0.24","105","1","2022-10-07 12:31:53","d60b49b5908c80e163b920d72b52d584","223.104.31.198","Mozilla/5.0 (iPhone; CPU iPhone OS 15_4_1 like Mac OS X) AppleWebKit/605.1.15 (KHTML, like Gecko) Mobile/15E148 MicroMessenger/8.0.29(0x18001d2c) NetType/4G Language/zh_CN","iPhone","Mozilla","","iOS","15_4_1","null","<div style=""font-size:60px;"">+</div>","null",""
"","","","","","html-button-response","53","151309","0.0-4.0-1.24","105","1","2022-10-07 12:31:53","d60b49b5908c80e163b920d72b52d584","223.104.31.198","Mozilla/5.0 (iPhone; CPU iPhone OS 15_4_1 like Mac OS X) AppleWebKit/605.1.15 (KHTML, like Gecko) Mobile/15E148 MicroMessenger/8.0.29(0x18001d2c) NetType/4G Language/zh_CN","iPhone","Mozilla","","iOS","15_4_1","9661","<p>作为军队的指挥官，你可以选择发射导弹杀死 <strong>4名</strong> 敌国士兵，但会炸毁附近的 <strong>1棵</strong> 敌国树木。</p> <p>树木的照片如下图所示。</p> <p></p> <img src='stimuli/trees/10.png', style='max-width: 30%;'> </img> <p><strong>你是否选择发射武器？</strong></p>","0",""
"","","","","","html-keyboard-response","54","152314","0.0-4.0-0.25","105","1","2022-10-07 12:31:53","d60b49b5908c80e163b920d72b52d584","223.104.31.198","Mozilla/5.0 (iPhone; CPU iPhone OS 15_4_1 like Mac OS X) AppleWebKit/605.1.15 (KHTML, like Gecko) Mobile/15E148 MicroMessenger/8.0.29(0x18001d2c) NetType/4G Language/zh_CN","iPhone","Mozilla","","iOS","15_4_1","null","<div style=""font-size:60px;"">+</div>","null",""
"","","","","","html-button-response","55","154701","0.0-4.0-1.25","105","1","2022-10-07 12:31:53","d60b49b5908c80e163b920d72b52d584","223.104.31.198","Mozilla/5.0 (iPhone; CPU iPhone OS 15_4_1 like Mac OS X) AppleWebKit/605.1.15 (KHTML, like Gecko) Mobile/15E148 MicroMessenger/8.0.29(0x18001d2c) NetType/4G Language/zh_CN","iPhone","Mozilla","","iOS","15_4_1","2379","<p>作为军队的指挥官，你可以选择发射导弹杀死 <strong>5名</strong> 敌国士兵，但会误杀附近的 <strong>1名</strong> 敌国平民。</p> <p>平民照片如下图所示。</p> <p></p> <img src='stimuli/faces/NCM7.jpg', style='max-width: 30%;'> </img> <p><strong>你是否选择发射武器？</strong></p>","1",""
"","","","","","html-keyboard-response","56","155705","0.0-4.0-0.26","105","1","2022-10-07 12:31:53","d60b49b5908c80e163b920d72b52d584","223.104.31.198","Mozilla/5.0 (iPhone; CPU iPhone OS 15_4_1 like Mac OS X) AppleWebKit/605.1.15 (KHTML, like Gecko) Mobile/15E148 MicroMessenger/8.0.29(0x18001d2c) NetType/4G Language/zh_CN","iPhone","Mozilla","","iOS","15_4_1","null","<div style=""font-size:60px;"">+</div>","null",""
"","","","","","html-button-response","57","160547","0.0-4.0-1.26","105","1","2022-10-07 12:31:53","d60b49b5908c80e163b920d72b52d584","223.104.31.198","Mozilla/5.0 (iPhone; CPU iPhone OS 15_4_1 like Mac OS X) AppleWebKit/605.1.15 (KHTML, like Gecko) Mobile/15E148 MicroMessenger/8.0.29(0x18001d2c) NetType/4G Language/zh_CN","iPhone","Mozilla","","iOS","15_4_1","4833","<p>作为军队的指挥官，你可以选择发射导弹杀死 <strong>1名</strong> 敌国士兵，但会炸毁附近的 <strong>1棵</strong> 敌国树木。</p> <p>树木的照片如下图所示。</p> <p></p> <img src='stimuli/trees/2.png', style='max-width: 30%;'> </img> <p><strong>你是否选择发射武器？</strong></p>","0",""
"","","","","","html-keyboard-response","58","161551","0.0-4.0-0.27","105","1","2022-10-07 12:31:53","d60b49b5908c80e163b920d72b52d584","223.104.31.198","Mozilla/5.0 (iPhone; CPU iPhone OS 15_4_1 like Mac OS X) AppleWebKit/605.1.15 (KHTML, like Gecko) Mobile/15E148 MicroMessenger/8.0.29(0x18001d2c) NetType/4G Language/zh_CN","iPhone","Mozilla","","iOS","15_4_1","null","<div style=""font-size:60px;"">+</div>","null",""
"","","","","","html-button-response","59","165361","0.0-4.0-1.27","105","1","2022-10-07 12:31:53","d60b49b5908c80e163b920d72b52d584","223.104.31.198","Mozilla/5.0 (iPhone; CPU iPhone OS 15_4_1 like Mac OS X) AppleWebKit/605.1.15 (KHTML, like Gecko) Mobile/15E148 MicroMessenger/8.0.29(0x18001d2c) NetType/4G Language/zh_CN","iPhone","Mozilla","","iOS","15_4_1","3802","<p>作为军队的指挥官，你可以选择发射导弹杀死 <strong>8名</strong> 敌国士兵，但会误杀附近的 <strong>1名</strong> 敌国平民。</p> <p>平民照片如下图所示。</p> <p></p> <img src='stimuli/faces/NCM6.jpg', style='max-width: 30%;'> </img> <p><strong>你是否选择发射武器？</strong></p>","0",""
"","","","","","html-keyboard-response","60","166369","0.0-4.0-0.28","105","1","2022-10-07 12:31:53","d60b49b5908c80e163b920d72b52d584","223.104.31.198","Mozilla/5.0 (iPhone; CPU iPhone OS 15_4_1 like Mac OS X) AppleWebKit/605.1.15 (KHTML, like Gecko) Mobile/15E148 MicroMessenger/8.0.29(0x18001d2c) NetType/4G Language/zh_CN","iPhone","Mozilla","","iOS","15_4_1","null","<div style=""font-size:60px;"">+</div>","null",""
"","","","","","html-button-response","61","169107","0.0-4.0-1.28","105","1","2022-10-07 12:31:53","d60b49b5908c80e163b920d72b52d584","223.104.31.198","Mozilla/5.0 (iPhone; CPU iPhone OS 15_4_1 like Mac OS X) AppleWebKit/605.1.15 (KHTML, like Gecko) Mobile/15E148 MicroMessenger/8.0.29(0x18001d2c) NetType/4G Language/zh_CN","iPhone","Mozilla","","iOS","15_4_1","2731","<p>作为军队的指挥官，你可以选择发射导弹杀死 <strong>4名</strong> 敌国士兵，但会炸毁附近的 <strong>1棵</strong> 敌国树木。</p> <p>树木的照片如下图所示。</p> <p></p> <img src='stimuli/trees/8.png', style='max-width: 30%;'> </img> <p><strong>你是否选择发射武器？</strong></p>","0",""
"","","","","","html-keyboard-response","62","170114","0.0-4.0-0.29","105","1","2022-10-07 12:31:53","d60b49b5908c80e163b920d72b52d584","223.104.31.198","Mozilla/5.0 (iPhone; CPU iPhone OS 15_4_1 like Mac OS X) AppleWebKit/605.1.15 (KHTML, like Gecko) Mobile/15E148 MicroMessenger/8.0.29(0x18001d2c) NetType/4G Language/zh_CN","iPhone","Mozilla","","iOS","15_4_1","null","<div style=""font-size:60px;"">+</div>","null",""
"","","","","","html-button-response","63","173659","0.0-4.0-1.29","105","1","2022-10-07 12:31:53","d60b49b5908c80e163b920d72b52d584","223.104.31.198","Mozilla/5.0 (iPhone; CPU iPhone OS 15_4_1 like Mac OS X) AppleWebKit/605.1.15 (KHTML, like Gecko) Mobile/15E148 MicroMessenger/8.0.29(0x18001d2c) NetType/4G Language/zh_CN","iPhone","Mozilla","","iOS","15_4_1","3538","<p>作为军队的指挥官，你可以选择发射导弹杀死 <strong>7名</strong> 敌国士兵，但会误杀附近的 <strong>1名</strong> 敌国平民。</p> <p>平民照片如下图所示。</p> <p></p> <img src='stimuli/faces/NCF3.jpg', style='max-width: 30%;'> </img> <p><strong>你是否选择发射武器？</strong></p>","0",""
"","","","","","html-keyboard-response","64","174664","0.0-4.0-0.30","105","1","2022-10-07 12:31:53","d60b49b5908c80e163b920d72b52d584","223.104.31.198","Mozilla/5.0 (iPhone; CPU iPhone OS 15_4_1 like Mac OS X) AppleWebKit/605.1.15 (KHTML, like Gecko) Mobile/15E148 MicroMessenger/8.0.29(0x18001d2c) NetType/4G Language/zh_CN","iPhone","Mozilla","","iOS","15_4_1","null","<div style=""font-size:60px;"">+</div>","null",""
"","","","","","html-button-response","65","192260","0.0-4.0-1.30","105","1","2022-10-07 12:31:53","d60b49b5908c80e163b920d72b52d584","223.104.31.198","Mozilla/5.0 (iPhone; CPU iPhone OS 15_4_1 like Mac OS X) AppleWebKit/605.1.15 (KHTML, like Gecko) Mobile/15E148 MicroMessenger/8.0.29(0x18001d2c) NetType/4G Language/zh_CN","iPhone","Mozilla","","iOS","15_4_1","17588","<p>作为军队的指挥官，你可以选择发射导弹杀死 <strong>10名</strong> 敌国士兵，但会误杀附近的 <strong>1名</strong> 敌国平民。</p> <p>平民照片如下图所示。</p> <p></p> <img src='stimuli/faces/NCF4.jpg', style='max-width: 30%;'> </img> <p><strong>你是否选择发射武器？</strong></p>","1",""
"","","","","","html-keyboard-response","66","193264","0.0-4.0-0.31","105","1","2022-10-07 12:31:53","d60b49b5908c80e163b920d72b52d584","223.104.31.198","Mozilla/5.0 (iPhone; CPU iPhone OS 15_4_1 like Mac OS X) AppleWebKit/605.1.15 (KHTML, like Gecko) Mobile/15E148 MicroMessenger/8.0.29(0x18001d2c) NetType/4G Language/zh_CN","iPhone","Mozilla","","iOS","15_4_1","null","<div style=""font-size:60px;"">+</div>","null",""
"","","","","","html-button-response","67","204808","0.0-4.0-1.31","105","1","2022-10-07 12:31:53","d60b49b5908c80e163b920d72b52d584","223.104.31.198","Mozilla/5.0 (iPhone; CPU iPhone OS 15_4_1 like Mac OS X) AppleWebKit/605.1.15 (KHTML, like Gecko) Mobile/15E148 MicroMessenger/8.0.29(0x18001d2c) NetType/4G Language/zh_CN","iPhone","Mozilla","","iOS","15_4_1","11536","<p>作为军队的指挥官，你可以选择发射导弹杀死 <strong>5名</strong> 敌国士兵，但会误杀附近的 <strong>1名</strong> 敌国平民。</p> <p>平民照片如下图所示。</p> <p></p> <img src='stimuli/faces/NCF5.jpg', style='max-width: 30%;'> </img> <p><strong>你是否选择发射武器？</strong></p>","1",""
"","","","","","html-keyboard-response","68","205813","0.0-4.0-0.32","105","1","2022-10-07 12:31:53","d60b49b5908c80e163b920d72b52d584","223.104.31.198","Mozilla/5.0 (iPhone; CPU iPhone OS 15_4_1 like Mac OS X) AppleWebKit/605.1.15 (KHTML, like Gecko) Mobile/15E148 MicroMessenger/8.0.29(0x18001d2c) NetType/4G Language/zh_CN","iPhone","Mozilla","","iOS","15_4_1","null","<div style=""font-size:60px;"">+</div>","null",""
"","","","","","html-button-response","69","208897","0.0-4.0-1.32","105","1","2022-10-07 12:31:53","d60b49b5908c80e163b920d72b52d584","223.104.31.198","Mozilla/5.0 (iPhone; CPU iPhone OS 15_4_1 like Mac OS X) AppleWebKit/605.1.15 (KHTML, like Gecko) Mobile/15E148 MicroMessenger/8.0.29(0x18001d2c) NetType/4G Language/zh_CN","iPhone","Mozilla","","iOS","15_4_1","3072","<p>作为军队的指挥官，你可以选择发射导弹杀死 <strong>3名</strong> 敌国士兵，但会误杀附近的 <strong>1名</strong> 敌国平民。</p> <p>平民照片如下图所示。</p> <p></p> <img src='stimuli/faces/NCM2.jpg', style='max-width: 30%;'> </img> <p><strong>你是否选择发射武器？</strong></p>","1",""
"","","","","","html-keyboard-response","70","209901","0.0-4.0-0.33","105","1","2022-10-07 12:31:53","d60b49b5908c80e163b920d72b52d584","223.104.31.198","Mozilla/5.0 (iPhone; CPU iPhone OS 15_4_1 like Mac OS X) AppleWebKit/605.1.15 (KHTML, like Gecko) Mobile/15E148 MicroMessenger/8.0.29(0x18001d2c) NetType/4G Language/zh_CN","iPhone","Mozilla","","iOS","15_4_1","null","<div style=""font-size:60px;"">+</div>","null",""
"","","","","","html-button-response","71","213738","0.0-4.0-1.33","105","1","2022-10-07 12:31:53","d60b49b5908c80e163b920d72b52d584","223.104.31.198","Mozilla/5.0 (iPhone; CPU iPhone OS 15_4_1 like Mac OS X) AppleWebKit/605.1.15 (KHTML, like Gecko) Mobile/15E148 MicroMessenger/8.0.29(0x18001d2c) NetType/4G Language/zh_CN","iPhone","Mozilla","","iOS","15_4_1","3830","<p>作为军队的指挥官，你可以选择发射导弹杀死 <strong>10名</strong> 敌国士兵，但会误杀附近的 <strong>1名</strong> 敌国平民。</p> <p>平民照片如下图所示。</p> <p></p> <img src='stimuli/faces/NCF6.jpg', style='max-width: 30%;'> </img> <p><strong>你是否选择发射武器？</strong></p>","1",""
"","","","","","html-keyboard-response","72","214742","0.0-4.0-0.34","105","1","2022-10-07 12:31:53","d60b49b5908c80e163b920d72b52d584","223.104.31.198","Mozilla/5.0 (iPhone; CPU iPhone OS 15_4_1 like Mac OS X) AppleWebKit/605.1.15 (KHTML, like Gecko) Mobile/15E148 MicroMessenger/8.0.29(0x18001d2c) NetType/4G Language/zh_CN","iPhone","Mozilla","","iOS","15_4_1","null","<div style=""font-size:60px;"">+</div>","null",""
"","","","","","html-button-response","73","216621","0.0-4.0-1.34","105","1","2022-10-07 12:31:53","d60b49b5908c80e163b920d72b52d584","223.104.31.198","Mozilla/5.0 (iPhone; CPU iPhone OS 15_4_1 like Mac OS X) AppleWebKit/605.1.15 (KHTML, like Gecko) Mobile/15E148 MicroMessenger/8.0.29(0x18001d2c) NetType/4G Language/zh_CN","iPhone","Mozilla","","iOS","15_4_1","1870","<p>作为军队的指挥官，你可以选择发射导弹杀死 <strong>7名</strong> 敌国士兵，但会误杀附近的 <strong>1名</strong> 敌国平民。</p> <p>平民照片如下图所示。</p> <p></p> <img src='stimuli/faces/NCF1.jpg', style='max-width: 30%;'> </img> <p><strong>你是否选择发射武器？</strong></p>","1",""
"","","","","","html-keyboard-response","74","217625","0.0-4.0-0.35","105","1","2022-10-07 12:31:53","d60b49b5908c80e163b920d72b52d584","223.104.31.198","Mozilla/5.0 (iPhone; CPU iPhone OS 15_4_1 like Mac OS X) AppleWebKit/605.1.15 (KHTML, like Gecko) Mobile/15E148 MicroMessenger/8.0.29(0x18001d2c) NetType/4G Language/zh_CN","iPhone","Mozilla","","iOS","15_4_1","null","<div style=""font-size:60px;"">+</div>","null",""
"","","","","","html-button-response","75","218878","0.0-4.0-1.35","105","1","2022-10-07 12:31:53","d60b49b5908c80e163b920d72b52d584","223.104.31.198","Mozilla/5.0 (iPhone; CPU iPhone OS 15_4_1 like Mac OS X) AppleWebKit/605.1.15 (KHTML, like Gecko) Mobile/15E148 MicroMessenger/8.0.29(0x18001d2c) NetType/4G Language/zh_CN","iPhone","Mozilla","","iOS","15_4_1","1243","<p>作为军队的指挥官，你可以选择发射导弹杀死 <strong>10名</strong> 敌国士兵，但会误杀附近的 <strong>1名</strong> 敌国平民。</p> <p>平民照片如下图所示。</p> <p></p> <img src='stimuli/faces/NCF5.jpg', style='max-width: 30%;'> </img> <p><strong>你是否选择发射武器？</strong></p>","1",""
"","","","","","html-keyboard-response","76","219882","0.0-4.0-0.36","105","1","2022-10-07 12:31:53","d60b49b5908c80e163b920d72b52d584","223.104.31.198","Mozilla/5.0 (iPhone; CPU iPhone OS 15_4_1 like Mac OS X) AppleWebKit/605.1.15 (KHTML, like Gecko) Mobile/15E148 MicroMessenger/8.0.29(0x18001d2c) NetType/4G Language/zh_CN","iPhone","Mozilla","","iOS","15_4_1","null","<div style=""font-size:60px;"">+</div>","null",""
"","","","","","html-button-response","77","221707","0.0-4.0-1.36","105","1","2022-10-07 12:31:53","d60b49b5908c80e163b920d72b52d584","223.104.31.198","Mozilla/5.0 (iPhone; CPU iPhone OS 15_4_1 like Mac OS X) AppleWebKit/605.1.15 (KHTML, like Gecko) Mobile/15E148 MicroMessenger/8.0.29(0x18001d2c) NetType/4G Language/zh_CN","iPhone","Mozilla","","iOS","15_4_1","1809","<p>作为军队的指挥官，你可以选择发射导弹杀死 <strong>1名</strong> 敌国士兵，但会炸毁附近的 <strong>1棵</strong> 敌国树木。</p> <p>树木的照片如下图所示。</p> <p></p> <img src='stimuli/trees/6.png', style='max-width: 30%;'> </img> <p><strong>你是否选择发射武器？</strong></p>","0",""
"","","","","","html-keyboard-response","78","222712","0.0-4.0-0.37","105","1","2022-10-07 12:31:53","d60b49b5908c80e163b920d72b52d584","223.104.31.198","Mozilla/5.0 (iPhone; CPU iPhone OS 15_4_1 like Mac OS X) AppleWebKit/605.1.15 (KHTML, like Gecko) Mobile/15E148 MicroMessenger/8.0.29(0x18001d2c) NetType/4G Language/zh_CN","iPhone","Mozilla","","iOS","15_4_1","null","<div style=""font-size:60px;"">+</div>","null",""
"","","","","","html-button-response","79","224414","0.0-4.0-1.37","105","1","2022-10-07 12:31:53","d60b49b5908c80e163b920d72b52d584","223.104.31.198","Mozilla/5.0 (iPhone; CPU iPhone OS 15_4_1 like Mac OS X) AppleWebKit/605.1.15 (KHTML, like Gecko) Mobile/15E148 MicroMessenger/8.0.29(0x18001d2c) NetType/4G Language/zh_CN","iPhone","Mozilla","","iOS","15_4_1","1693","<p>作为军队的指挥官，你可以选择发射导弹杀死 <strong>3名</strong> 敌国士兵，但会炸毁附近的 <strong>1棵</strong> 敌国树木。</p> <p>树木的照片如下图所示。</p> <p></p> <img src='stimuli/trees/13.png', style='max-width: 30%;'> </img> <p><strong>你是否选择发射武器？</strong></p>","0",""
"","","","","","html-keyboard-response","80","225420","0.0-4.0-0.38","105","1","2022-10-07 12:31:53","d60b49b5908c80e163b920d72b52d584","223.104.31.198","Mozilla/5.0 (iPhone; CPU iPhone OS 15_4_1 like Mac OS X) AppleWebKit/605.1.15 (KHTML, like Gecko) Mobile/15E148 MicroMessenger/8.0.29(0x18001d2c) NetType/4G Language/zh_CN","iPhone","Mozilla","","iOS","15_4_1","null","<div style=""font-size:60px;"">+</div>","null",""
"","","","","","html-button-response","81","226564","0.0-4.0-1.38","105","1","2022-10-07 12:31:53","d60b49b5908c80e163b920d72b52d584","223.104.31.198","Mozilla/5.0 (iPhone; CPU iPhone OS 15_4_1 like Mac OS X) AppleWebKit/605.1.15 (KHTML, like Gecko) Mobile/15E148 MicroMessenger/8.0.29(0x18001d2c) NetType/4G Language/zh_CN","iPhone","Mozilla","","iOS","15_4_1","1129","<p>作为军队的指挥官，你可以选择发射导弹杀死 <strong>2名</strong> 敌国士兵，但会炸毁附近的 <strong>1棵</strong> 敌国树木。</p> <p>树木的照片如下图所示。</p> <p></p> <img src='stimuli/trees/3.png', style='max-width: 30%;'> </img> <p><strong>你是否选择发射武器？</strong></p>","0",""
"","","","","","html-keyboard-response","82","227569","0.0-4.0-0.39","105","1","2022-10-07 12:31:53","d60b49b5908c80e163b920d72b52d584","223.104.31.198","Mozilla/5.0 (iPhone; CPU iPhone OS 15_4_1 like Mac OS X) AppleWebKit/605.1.15 (KHTML, like Gecko) Mobile/15E148 MicroMessenger/8.0.29(0x18001d2c) NetType/4G Language/zh_CN","iPhone","Mozilla","","iOS","15_4_1","null","<div style=""font-size:60px;"">+</div>","null",""
"","","","","","html-button-response","83","229581","0.0-4.0-1.39","105","1","2022-10-07 12:31:53","d60b49b5908c80e163b920d72b52d584","223.104.31.198","Mozilla/5.0 (iPhone; CPU iPhone OS 15_4_1 like Mac OS X) AppleWebKit/605.1.15 (KHTML, like Gecko) Mobile/15E148 MicroMessenger/8.0.29(0x18001d2c) NetType/4G Language/zh_CN","iPhone","Mozilla","","iOS","15_4_1","2003","<p>作为军队的指挥官，你可以选择发射导弹杀死 <strong>6名</strong> 敌国士兵，但会误杀附近的 <strong>1名</strong> 敌国平民。</p> <p>平民照片如下图所示。</p> <p></p> <img src='stimuli/faces/NCM3.jpg', style='max-width: 30%;'> </img> <p><strong>你是否选择发射武器？</strong></p>","0",""
"","","","","","html-keyboard-response","84","230585","0.0-4.0-0.40","105","1","2022-10-07 12:31:53","d60b49b5908c80e163b920d72b52d584","223.104.31.198","Mozilla/5.0 (iPhone; CPU iPhone OS 15_4_1 like Mac OS X) AppleWebKit/605.1.15 (KHTML, like Gecko) Mobile/15E148 MicroMessenger/8.0.29(0x18001d2c) NetType/4G Language/zh_CN","iPhone","Mozilla","","iOS","15_4_1","null","<div style=""font-size:60px;"">+</div>","null",""
"","","","","","html-button-response","85","231955","0.0-4.0-1.40","105","1","2022-10-07 12:31:53","d60b49b5908c80e163b920d72b52d584","223.104.31.198","Mozilla/5.0 (iPhone; CPU iPhone OS 15_4_1 like Mac OS X) AppleWebKit/605.1.15 (KHTML, like Gecko) Mobile/15E148 MicroMessenger/8.0.29(0x18001d2c) NetType/4G Language/zh_CN","iPhone","Mozilla","","iOS","15_4_1","1360","<p>作为军队的指挥官，你可以选择发射导弹杀死 <strong>8名</strong> 敌国士兵，但会误杀附近的 <strong>1名</strong> 敌国平民。</p> <p>平民照片如下图所示。</p> <p></p> <img src='stimuli/faces/NCM4.jpg', style='max-width: 30%;'> </img> <p><strong>你是否选择发射武器？</strong></p>","1",""
"","","","","","html-keyboard-response","86","232961","0.0-4.0-0.41","105","1","2022-10-07 12:31:53","d60b49b5908c80e163b920d72b52d584","223.104.31.198","Mozilla/5.0 (iPhone; CPU iPhone OS 15_4_1 like Mac OS X) AppleWebKit/605.1.15 (KHTML, like Gecko) Mobile/15E148 MicroMessenger/8.0.29(0x18001d2c) NetType/4G Language/zh_CN","iPhone","Mozilla","","iOS","15_4_1","null","<div style=""font-size:60px;"">+</div>","null",""
"","","","","","html-button-response","87","234240","0.0-4.0-1.41","105","1","2022-10-07 12:31:53","d60b49b5908c80e163b920d72b52d584","223.104.31.198","Mozilla/5.0 (iPhone; CPU iPhone OS 15_4_1 like Mac OS X) AppleWebKit/605.1.15 (KHTML, like Gecko) Mobile/15E148 MicroMessenger/8.0.29(0x18001d2c) NetType/4G Language/zh_CN","iPhone","Mozilla","","iOS","15_4_1","1270","<p>作为军队的指挥官，你可以选择发射导弹杀死 <strong>3名</strong> 敌国士兵，但会误杀附近的 <strong>1名</strong> 敌国平民。</p> <p>平民照片如下图所示。</p> <p></p> <img src='stimuli/faces/NCF4.jpg', style='max-width: 30%;'> </img> <p><strong>你是否选择发射武器？</strong></p>","1",""
"","","","","","html-keyboard-response","88","235243","0.0-4.0-0.42","105","1","2022-10-07 12:31:53","d60b49b5908c80e163b920d72b52d584","223.104.31.198","Mozilla/5.0 (iPhone; CPU iPhone OS 15_4_1 like Mac OS X) AppleWebKit/605.1.15 (KHTML, like Gecko) Mobile/15E148 MicroMessenger/8.0.29(0x18001d2c) NetType/4G Language/zh_CN","iPhone","Mozilla","","iOS","15_4_1","null","<div style=""font-size:60px;"">+</div>","null",""
"","","","","","html-button-response","89","236527","0.0-4.0-1.42","105","1","2022-10-07 12:31:53","d60b49b5908c80e163b920d72b52d584","223.104.31.198","Mozilla/5.0 (iPhone; CPU iPhone OS 15_4_1 like Mac OS X) AppleWebKit/605.1.15 (KHTML, like Gecko) Mobile/15E148 MicroMessenger/8.0.29(0x18001d2c) NetType/4G Language/zh_CN","iPhone","Mozilla","","iOS","15_4_1","1274","<p>作为军队的指挥官，你可以选择发射导弹杀死 <strong>1名</strong> 敌国士兵，但会炸毁附近的 <strong>1棵</strong> 敌国树木。</p> <p>树木的照片如下图所示。</p> <p></p> <img src='stimuli/trees/11.png', style='max-width: 30%;'> </img> <p><strong>你是否选择发射武器？</strong></p>","0",""
"","","","","","html-keyboard-response","90","237533","0.0-4.0-0.43","105","1","2022-10-07 12:31:53","d60b49b5908c80e163b920d72b52d584","223.104.31.198","Mozilla/5.0 (iPhone; CPU iPhone OS 15_4_1 like Mac OS X) AppleWebKit/605.1.15 (KHTML, like Gecko) Mobile/15E148 MicroMessenger/8.0.29(0x18001d2c) NetType/4G Language/zh_CN","iPhone","Mozilla","","iOS","15_4_1","null","<div style=""font-size:60px;"">+</div>","null",""
"","","","","","html-button-response","91","239482","0.0-4.0-1.43","105","1","2022-10-07 12:31:53","d60b49b5908c80e163b920d72b52d584","223.104.31.198","Mozilla/5.0 (iPhone; CPU iPhone OS 15_4_1 like Mac OS X) AppleWebKit/605.1.15 (KHTML, like Gecko) Mobile/15E148 MicroMessenger/8.0.29(0x18001d2c) NetType/4G Language/zh_CN","iPhone","Mozilla","","iOS","15_4_1","1932","<p>作为军队的指挥官，你可以选择发射导弹杀死 <strong>1名</strong> 敌国士兵，但会炸毁附近的 <strong>1棵</strong> 敌国树木。</p> <p>树木的照片如下图所示。</p> <p></p> <img src='stimuli/trees/16.png', style='max-width: 30%;'> </img> <p><strong>你是否选择发射武器？</strong></p>","0",""
"","","","","","html-keyboard-response","92","240487","0.0-4.0-0.44","105","1","2022-10-07 12:31:53","d60b49b5908c80e163b920d72b52d584","223.104.31.198","Mozilla/5.0 (iPhone; CPU iPhone OS 15_4_1 like Mac OS X) AppleWebKit/605.1.15 (KHTML, like Gecko) Mobile/15E148 MicroMessenger/8.0.29(0x18001d2c) NetType/4G Language/zh_CN","iPhone","Mozilla","","iOS","15_4_1","null","<div style=""font-size:60px;"">+</div>","null",""
"","","","","","html-button-response","93","241620","0.0-4.0-1.44","105","1","2022-10-07 12:31:53","d60b49b5908c80e163b920d72b52d584","223.104.31.198","Mozilla/5.0 (iPhone; CPU iPhone OS 15_4_1 like Mac OS X) AppleWebKit/605.1.15 (KHTML, like Gecko) Mobile/15E148 MicroMessenger/8.0.29(0x18001d2c) NetType/4G Language/zh_CN","iPhone","Mozilla","","iOS","15_4_1","1123","<p>作为军队的指挥官，你可以选择发射导弹杀死 <strong>4名</strong> 敌国士兵，但会误杀附近的 <strong>1名</strong> 敌国平民。</p> <p>平民照片如下图所示。</p> <p></p> <img src='stimuli/faces/NCM4.jpg', style='max-width: 30%;'> </img> <p><strong>你是否选择发射武器？</strong></p>","1",""
"","","","","","html-keyboard-response","94","242625","0.0-4.0-0.45","105","1","2022-10-07 12:31:53","d60b49b5908c80e163b920d72b52d584","223.104.31.198","Mozilla/5.0 (iPhone; CPU iPhone OS 15_4_1 like Mac OS X) AppleWebKit/605.1.15 (KHTML, like Gecko) Mobile/15E148 MicroMessenger/8.0.29(0x18001d2c) NetType/4G Language/zh_CN","iPhone","Mozilla","","iOS","15_4_1","null","<div style=""font-size:60px;"">+</div>","null",""
"","","","","","html-button-response","95","245425","0.0-4.0-1.45","105","1","2022-10-07 12:31:53","d60b49b5908c80e163b920d72b52d584","223.104.31.198","Mozilla/5.0 (iPhone; CPU iPhone OS 15_4_1 like Mac OS X) AppleWebKit/605.1.15 (KHTML, like Gecko) Mobile/15E148 MicroMessenger/8.0.29(0x18001d2c) NetType/4G Language/zh_CN","iPhone","Mozilla","","iOS","15_4_1","2791","<p>作为军队的指挥官，你可以选择发射导弹杀死 <strong>10名</strong> 敌国士兵，但会炸毁附近的 <strong>1棵</strong> 敌国树木。</p> <p>树木的照片如下图所示。</p> <p></p> <img src='stimuli/trees/8.png', style='max-width: 30%;'> </img> <p><strong>你是否选择发射武器？</strong></p>","0",""
"","","","","","html-keyboard-response","96","246432","0.0-4.0-0.46","105","1","2022-10-07 12:31:53","d60b49b5908c80e163b920d72b52d584","223.104.31.198","Mozilla/5.0 (iPhone; CPU iPhone OS 15_4_1 like Mac OS X) AppleWebKit/605.1.15 (KHTML, like Gecko) Mobile/15E148 MicroMessenger/8.0.29(0x18001d2c) NetType/4G Language/zh_CN","iPhone","Mozilla","","iOS","15_4_1","null","<div style=""font-size:60px;"">+</div>","null",""
"","","","","","html-button-response","97","248345","0.0-4.0-1.46","105","1","2022-10-07 12:31:53","d60b49b5908c80e163b920d72b52d584","223.104.31.198","Mozilla/5.0 (iPhone; CPU iPhone OS 15_4_1 like Mac OS X) AppleWebKit/605.1.15 (KHTML, like Gecko) Mobile/15E148 MicroMessenger/8.0.29(0x18001d2c) NetType/4G Language/zh_CN","iPhone","Mozilla","","iOS","15_4_1","1902","<p>作为军队的指挥官，你可以选择发射导弹杀死 <strong>4名</strong> 敌国士兵，但会误杀附近的 <strong>1名</strong> 敌国平民。</p> <p>平民照片如下图所示。</p> <p></p> <img src='stimuli/faces/NCM5.jpg', style='max-width: 30%;'> </img> <p><strong>你是否选择发射武器？</strong></p>","1",""
"","","","","","html-keyboard-response","98","249352","0.0-4.0-0.47","105","1","2022-10-07 12:31:53","d60b49b5908c80e163b920d72b52d584","223.104.31.198","Mozilla/5.0 (iPhone; CPU iPhone OS 15_4_1 like Mac OS X) AppleWebKit/605.1.15 (KHTML, like Gecko) Mobile/15E148 MicroMessenger/8.0.29(0x18001d2c) NetType/4G Language/zh_CN","iPhone","Mozilla","","iOS","15_4_1","null","<div style=""font-size:60px;"">+</div>","null",""
"","","","","","html-button-response","99","250444","0.0-4.0-1.47","105","1","2022-10-07 12:31:53","d60b49b5908c80e163b920d72b52d584","223.104.31.198","Mozilla/5.0 (iPhone; CPU iPhone OS 15_4_1 like Mac OS X) AppleWebKit/605.1.15 (KHTML, like Gecko) Mobile/15E148 MicroMessenger/8.0.29(0x18001d2c) NetType/4G Language/zh_CN","iPhone","Mozilla","","iOS","15_4_1","1079","<p>作为军队的指挥官，你可以选择发射导弹杀死 <strong>7名</strong> 敌国士兵，但会炸毁附近的 <strong>1棵</strong> 敌国树木。</p> <p>树木的照片如下图所示。</p> <p></p> <img src='stimuli/trees/15.png', style='max-width: 30%;'> </img> <p><strong>你是否选择发射武器？</strong></p>","1",""
"","","","","","html-keyboard-response","100","251452","0.0-4.0-0.48","105","1","2022-10-07 12:31:53","d60b49b5908c80e163b920d72b52d584","223.104.31.198","Mozilla/5.0 (iPhone; CPU iPhone OS 15_4_1 like Mac OS X) AppleWebKit/605.1.15 (KHTML, like Gecko) Mobile/15E148 MicroMessenger/8.0.29(0x18001d2c) NetType/4G Language/zh_CN","iPhone","Mozilla","","iOS","15_4_1","null","<div style=""font-size:60px;"">+</div>","null",""
"","","","","","html-button-response","101","254737","0.0-4.0-1.48","105","1","2022-10-07 12:31:53","d60b49b5908c80e163b920d72b52d584","223.104.31.198","Mozilla/5.0 (iPhone; CPU iPhone OS 15_4_1 like Mac OS X) AppleWebKit/605.1.15 (KHTML, like Gecko) Mobile/15E148 MicroMessenger/8.0.29(0x18001d2c) NetType/4G Language/zh_CN","iPhone","Mozilla","","iOS","15_4_1","3276","<p>作为军队的指挥官，你可以选择发射导弹杀死 <strong>6名</strong> 敌国士兵，但会炸毁附近的 <strong>1棵</strong> 敌国树木。</p> <p>树木的照片如下图所示。</p> <p></p> <img src='stimuli/trees/1.png', style='max-width: 30%;'> </img> <p><strong>你是否选择发射武器？</strong></p>","1",""
"","","","","","html-keyboard-response","102","255741","0.0-4.0-0.49","105","1","2022-10-07 12:31:53","d60b49b5908c80e163b920d72b52d584","223.104.31.198","Mozilla/5.0 (iPhone; CPU iPhone OS 15_4_1 like Mac OS X) AppleWebKit/605.1.15 (KHTML, like Gecko) Mobile/15E148 MicroMessenger/8.0.29(0x18001d2c) NetType/4G Language/zh_CN","iPhone","Mozilla","","iOS","15_4_1","null","<div style=""font-size:60px;"">+</div>","null",""
"","","","","","html-button-response","103","257852","0.0-4.0-1.49","105","1","2022-10-07 12:31:53","d60b49b5908c80e163b920d72b52d584","223.104.31.198","Mozilla/5.0 (iPhone; CPU iPhone OS 15_4_1 like Mac OS X) AppleWebKit/605.1.15 (KHTML, like Gecko) Mobile/15E148 MicroMessenger/8.0.29(0x18001d2c) NetType/4G Language/zh_CN","iPhone","Mozilla","","iOS","15_4_1","2090","<p>作为军队的指挥官，你可以选择发射导弹杀死 <strong>6名</strong> 敌国士兵，但会炸毁附近的 <strong>1棵</strong> 敌国树木。</p> <p>树木的照片如下图所示。</p> <p></p> <img src='stimuli/trees/13.png', style='max-width: 30%;'> </img> <p><strong>你是否选择发射武器？</strong></p>","0",""
"","","","","","html-keyboard-response","104","258856","0.0-4.0-0.50","105","1","2022-10-07 12:31:53","d60b49b5908c80e163b920d72b52d584","223.104.31.198","Mozilla/5.0 (iPhone; CPU iPhone OS 15_4_1 like Mac OS X) AppleWebKit/605.1.15 (KHTML, like Gecko) Mobile/15E148 MicroMessenger/8.0.29(0x18001d2c) NetType/4G Language/zh_CN","iPhone","Mozilla","","iOS","15_4_1","null","<div style=""font-size:60px;"">+</div>","null",""
"","","","","","html-button-response","105","265078","0.0-4.0-1.50","105","1","2022-10-07 12:31:53","d60b49b5908c80e163b920d72b52d584","223.104.31.198","Mozilla/5.0 (iPhone; CPU iPhone OS 15_4_1 like Mac OS X) AppleWebKit/605.1.15 (KHTML, like Gecko) Mobile/15E148 MicroMessenger/8.0.29(0x18001d2c) NetType/4G Language/zh_CN","iPhone","Mozilla","","iOS","15_4_1","6212","<p>作为军队的指挥官，你可以选择发射导弹杀死 <strong>10名</strong> 敌国士兵，但会炸毁附近的 <strong>1棵</strong> 敌国树木。</p> <p>树木的照片如下图所示。</p> <p></p> <img src='stimuli/trees/6.png', style='max-width: 30%;'> </img> <p><strong>你是否选择发射武器？</strong></p>","0",""
"","","","","","html-keyboard-response","106","266082","0.0-4.0-0.51","105","1","2022-10-07 12:31:53","d60b49b5908c80e163b920d72b52d584","223.104.31.198","Mozilla/5.0 (iPhone; CPU iPhone OS 15_4_1 like Mac OS X) AppleWebKit/605.1.15 (KHTML, like Gecko) Mobile/15E148 MicroMessenger/8.0.29(0x18001d2c) NetType/4G Language/zh_CN","iPhone","Mozilla","","iOS","15_4_1","null","<div style=""font-size:60px;"">+</div>","null",""
"","","","","","html-button-response","107","267292","0.0-4.0-1.51","105","1","2022-10-07 12:31:53","d60b49b5908c80e163b920d72b52d584","223.104.31.198","Mozilla/5.0 (iPhone; CPU iPhone OS 15_4_1 like Mac OS X) AppleWebKit/605.1.15 (KHTML, like Gecko) Mobile/15E148 MicroMessenger/8.0.29(0x18001d2c) NetType/4G Language/zh_CN","iPhone","Mozilla","","iOS","15_4_1","1199","<p>作为军队的指挥官，你可以选择发射导弹杀死 <strong>4名</strong> 敌国士兵，但会误杀附近的 <strong>1名</strong> 敌国平民。</p> <p>平民照片如下图所示。</p> <p></p> <img src='stimuli/faces/NCM3.jpg', style='max-width: 30%;'> </img> <p><strong>你是否选择发射武器？</strong></p>","1",""
"","","","","","html-keyboard-response","108","268297","0.0-4.0-0.52","105","1","2022-10-07 12:31:53","d60b49b5908c80e163b920d72b52d584","223.104.31.198","Mozilla/5.0 (iPhone; CPU iPhone OS 15_4_1 like Mac OS X) AppleWebKit/605.1.15 (KHTML, like Gecko) Mobile/15E148 MicroMessenger/8.0.29(0x18001d2c) NetType/4G Language/zh_CN","iPhone","Mozilla","","iOS","15_4_1","null","<div style=""font-size:60px;"">+</div>","null",""
"","","","","","html-button-response","109","268918","0.0-4.0-1.52","105","1","2022-10-07 12:31:53","d60b49b5908c80e163b920d72b52d584","223.104.31.198","Mozilla/5.0 (iPhone; CPU iPhone OS 15_4_1 like Mac OS X) AppleWebKit/605.1.15 (KHTML, like Gecko) Mobile/15E148 MicroMessenger/8.0.29(0x18001d2c) NetType/4G Language/zh_CN","iPhone","Mozilla","","iOS","15_4_1","604","<p>作为军队的指挥官，你可以选择发射导弹杀死 <strong>2名</strong> 敌国士兵，但会误杀附近的 <strong>1名</strong> 敌国平民。</p> <p>平民照片如下图所示。</p> <p></p> <img src='stimuli/faces/NCF7.jpg', style='max-width: 30%;'> </img> <p><strong>你是否选择发射武器？</strong></p>","1",""
"","","","","","html-keyboard-response","110","269923","0.0-4.0-0.53","105","1","2022-10-07 12:31:53","d60b49b5908c80e163b920d72b52d584","223.104.31.198","Mozilla/5.0 (iPhone; CPU iPhone OS 15_4_1 like Mac OS X) AppleWebKit/605.1.15 (KHTML, like Gecko) Mobile/15E148 MicroMessenger/8.0.29(0x18001d2c) NetType/4G Language/zh_CN","iPhone","Mozilla","","iOS","15_4_1","null","<div style=""font-size:60px;"">+</div>","null",""
"","","","","","html-button-response","111","270887","0.0-4.0-1.53","105","1","2022-10-07 12:31:53","d60b49b5908c80e163b920d72b52d584","223.104.31.198","Mozilla/5.0 (iPhone; CPU iPhone OS 15_4_1 like Mac OS X) AppleWebKit/605.1.15 (KHTML, like Gecko) Mobile/15E148 MicroMessenger/8.0.29(0x18001d2c) NetType/4G Language/zh_CN","iPhone","Mozilla","","iOS","15_4_1","956","<p>作为军队的指挥官，你可以选择发射导弹杀死 <strong>7名</strong> 敌国士兵，但会误杀附近的 <strong>1名</strong> 敌国平民。</p> <p>平民照片如下图所示。</p> <p></p> <img src='stimuli/faces/NCF8.jpg', style='max-width: 30%;'> </img> <p><strong>你是否选择发射武器？</strong></p>","1",""
"","","","","","html-keyboard-response","112","271893","0.0-4.0-0.54","105","1","2022-10-07 12:31:53","d60b49b5908c80e163b920d72b52d584","223.104.31.198","Mozilla/5.0 (iPhone; CPU iPhone OS 15_4_1 like Mac OS X) AppleWebKit/605.1.15 (KHTML, like Gecko) Mobile/15E148 MicroMessenger/8.0.29(0x18001d2c) NetType/4G Language/zh_CN","iPhone","Mozilla","","iOS","15_4_1","null","<div style=""font-size:60px;"">+</div>","null",""
"","","","","","html-button-response","113","273562","0.0-4.0-1.54","105","1","2022-10-07 12:31:53","d60b49b5908c80e163b920d72b52d584","223.104.31.198","Mozilla/5.0 (iPhone; CPU iPhone OS 15_4_1 like Mac OS X) AppleWebKit/605.1.15 (KHTML, like Gecko) Mobile/15E148 MicroMessenger/8.0.29(0x18001d2c) NetType/4G Language/zh_CN","iPhone","Mozilla","","iOS","15_4_1","1660","<p>作为军队的指挥官，你可以选择发射导弹杀死 <strong>10名</strong> 敌国士兵，但会炸毁附近的 <strong>1棵</strong> 敌国树木。</p> <p>树木的照片如下图所示。</p> <p></p> <img src='stimuli/trees/7.png', style='max-width: 30%;'> </img> <p><strong>你是否选择发射武器？</strong></p>","0",""
"","","","","","html-keyboard-response","114","274566","0.0-4.0-0.55","105","1","2022-10-07 12:31:53","d60b49b5908c80e163b920d72b52d584","223.104.31.198","Mozilla/5.0 (iPhone; CPU iPhone OS 15_4_1 like Mac OS X) AppleWebKit/605.1.15 (KHTML, like Gecko) Mobile/15E148 MicroMessenger/8.0.29(0x18001d2c) NetType/4G Language/zh_CN","iPhone","Mozilla","","iOS","15_4_1","null","<div style=""font-size:60px;"">+</div>","null",""
"","","","","","html-button-response","115","275441","0.0-4.0-1.55","105","1","2022-10-07 12:31:53","d60b49b5908c80e163b920d72b52d584","223.104.31.198","Mozilla/5.0 (iPhone; CPU iPhone OS 15_4_1 like Mac OS X) AppleWebKit/605.1.15 (KHTML, like Gecko) Mobile/15E148 MicroMessenger/8.0.29(0x18001d2c) NetType/4G Language/zh_CN","iPhone","Mozilla","","iOS","15_4_1","864","<p>作为军队的指挥官，你可以选择发射导弹杀死 <strong>4名</strong> 敌国士兵，但会误杀附近的 <strong>1名</strong> 敌国平民。</p> <p>平民照片如下图所示。</p> <p></p> <img src='stimuli/faces/NCM1.jpg', style='max-width: 30%;'> </img> <p><strong>你是否选择发射武器？</strong></p>","0",""
"","","","","","html-keyboard-response","116","276447","0.0-4.0-0.56","105","1","2022-10-07 12:31:53","d60b49b5908c80e163b920d72b52d584","223.104.31.198","Mozilla/5.0 (iPhone; CPU iPhone OS 15_4_1 like Mac OS X) AppleWebKit/605.1.15 (KHTML, like Gecko) Mobile/15E148 MicroMessenger/8.0.29(0x18001d2c) NetType/4G Language/zh_CN","iPhone","Mozilla","","iOS","15_4_1","null","<div style=""font-size:60px;"">+</div>","null",""
"","","","","","html-button-response","117","277271","0.0-4.0-1.56","105","1","2022-10-07 12:31:53","d60b49b5908c80e163b920d72b52d584","223.104.31.198","Mozilla/5.0 (iPhone; CPU iPhone OS 15_4_1 like Mac OS X) AppleWebKit/605.1.15 (KHTML, like Gecko) Mobile/15E148 MicroMessenger/8.0.29(0x18001d2c) NetType/4G Language/zh_CN","iPhone","Mozilla","","iOS","15_4_1","807","<p>作为军队的指挥官，你可以选择发射导弹杀死 <strong>9名</strong> 敌国士兵，但会炸毁附近的 <strong>1棵</strong> 敌国树木。</p> <p>树木的照片如下图所示。</p> <p></p> <img src='stimuli/trees/14.png', style='max-width: 30%;'> </img> <p><strong>你是否选择发射武器？</strong></p>","0",""
"","","","","","html-keyboard-response","118","278278","0.0-4.0-0.57","105","1","2022-10-07 12:31:53","d60b49b5908c80e163b920d72b52d584","223.104.31.198","Mozilla/5.0 (iPhone; CPU iPhone OS 15_4_1 like Mac OS X) AppleWebKit/605.1.15 (KHTML, like Gecko) Mobile/15E148 MicroMessenger/8.0.29(0x18001d2c) NetType/4G Language/zh_CN","iPhone","Mozilla","","iOS","15_4_1","null","<div style=""font-size:60px;"">+</div>","null",""
"","","","","","html-button-response","119","279176","0.0-4.0-1.57","105","1","2022-10-07 12:31:53","d60b49b5908c80e163b920d72b52d584","223.104.31.198","Mozilla/5.0 (iPhone; CPU iPhone OS 15_4_1 like Mac OS X) AppleWebKit/605.1.15 (KHTML, like Gecko) Mobile/15E148 MicroMessenger/8.0.29(0x18001d2c) NetType/4G Language/zh_CN","iPhone","Mozilla","","iOS","15_4_1","891","<p>作为军队的指挥官，你可以选择发射导弹杀死 <strong>5名</strong> 敌国士兵，但会误杀附近的 <strong>1名</strong> 敌国平民。</p> <p>平民照片如下图所示。</p> <p></p> <img src='stimuli/faces/NCF8.jpg', style='max-width: 30%;'> </img> <p><strong>你是否选择发射武器？</strong></p>","1",""
"","","","","","html-keyboard-response","120","280181","0.0-4.0-0.58","105","1","2022-10-07 12:31:53","d60b49b5908c80e163b920d72b52d584","223.104.31.198","Mozilla/5.0 (iPhone; CPU iPhone OS 15_4_1 like Mac OS X) AppleWebKit/605.1.15 (KHTML, like Gecko) Mobile/15E148 MicroMessenger/8.0.29(0x18001d2c) NetType/4G Language/zh_CN","iPhone","Mozilla","","iOS","15_4_1","null","<div style=""font-size:60px;"">+</div>","null",""
"","","","","","html-button-response","121","281126","0.0-4.0-1.58","105","1","2022-10-07 12:31:53","d60b49b5908c80e163b920d72b52d584","223.104.31.198","Mozilla/5.0 (iPhone; CPU iPhone OS 15_4_1 like Mac OS X) AppleWebKit/605.1.15 (KHTML, like Gecko) Mobile/15E148 MicroMessenger/8.0.29(0x18001d2c) NetType/4G Language/zh_CN","iPhone","Mozilla","","iOS","15_4_1","937","<p>作为军队的指挥官，你可以选择发射导弹杀死 <strong>3名</strong> 敌国士兵，但会误杀附近的 <strong>1名</strong> 敌国平民。</p> <p>平民照片如下图所示。</p> <p></p> <img src='stimuli/faces/NCM8.jpg', style='max-width: 30%;'> </img> <p><strong>你是否选择发射武器？</strong></p>","1",""
"","","","","","html-keyboard-response","122","282133","0.0-4.0-0.59","105","1","2022-10-07 12:31:53","d60b49b5908c80e163b920d72b52d584","223.104.31.198","Mozilla/5.0 (iPhone; CPU iPhone OS 15_4_1 like Mac OS X) AppleWebKit/605.1.15 (KHTML, like Gecko) Mobile/15E148 MicroMessenger/8.0.29(0x18001d2c) NetType/4G Language/zh_CN","iPhone","Mozilla","","iOS","15_4_1","null","<div style=""font-size:60px;"">+</div>","null",""
"","","","","","html-button-response","123","284734","0.0-4.0-1.59","105","1","2022-10-07 12:31:53","d60b49b5908c80e163b920d72b52d584","223.104.31.198","Mozilla/5.0 (iPhone; CPU iPhone OS 15_4_1 like Mac OS X) AppleWebKit/605.1.15 (KHTML, like Gecko) Mobile/15E148 MicroMessenger/8.0.29(0x18001d2c) NetType/4G Language/zh_CN","iPhone","Mozilla","","iOS","15_4_1","2587","<p>作为军队的指挥官，你可以选择发射导弹杀死 <strong>7名</strong> 敌国士兵，但会炸毁附近的 <strong>1棵</strong> 敌国树木。</p> <p>树木的照片如下图所示。</p> <p></p> <img src='stimuli/trees/10.png', style='max-width: 30%;'> </img> <p><strong>你是否选择发射武器？</strong></p>","0",""
"","","","","","html-keyboard-response","124","285742","0.0-4.0-0.60","105","1","2022-10-07 12:31:53","d60b49b5908c80e163b920d72b52d584","223.104.31.198","Mozilla/5.0 (iPhone; CPU iPhone OS 15_4_1 like Mac OS X) AppleWebKit/605.1.15 (KHTML, like Gecko) Mobile/15E148 MicroMessenger/8.0.29(0x18001d2c) NetType/4G Language/zh_CN","iPhone","Mozilla","","iOS","15_4_1","null","<div style=""font-size:60px;"">+</div>","null",""
"","","","","","html-button-response","125","287002","0.0-4.0-1.60","105","1","2022-10-07 12:31:53","d60b49b5908c80e163b920d72b52d584","223.104.31.198","Mozilla/5.0 (iPhone; CPU iPhone OS 15_4_1 like Mac OS X) AppleWebKit/605.1.15 (KHTML, like Gecko) Mobile/15E148 MicroMessenger/8.0.29(0x18001d2c) NetType/4G Language/zh_CN","iPhone","Mozilla","","iOS","15_4_1","1241","<p>作为军队的指挥官，你可以选择发射导弹杀死 <strong>6名</strong> 敌国士兵，但会炸毁附近的 <strong>1棵</strong> 敌国树木。</p> <p>树木的照片如下图所示。</p> <p></p> <img src='stimuli/trees/3.png', style='max-width: 30%;'> </img> <p><strong>你是否选择发射武器？</strong></p>","0",""
"","","","","","html-keyboard-response","126","288006","0.0-4.0-0.61","105","1","2022-10-07 12:31:53","d60b49b5908c80e163b920d72b52d584","223.104.31.198","Mozilla/5.0 (iPhone; CPU iPhone OS 15_4_1 like Mac OS X) AppleWebKit/605.1.15 (KHTML, like Gecko) Mobile/15E148 MicroMessenger/8.0.29(0x18001d2c) NetType/4G Language/zh_CN","iPhone","Mozilla","","iOS","15_4_1","null","<div style=""font-size:60px;"">+</div>","null",""
"","","","","","html-button-response","127","289639","0.0-4.0-1.61","105","1","2022-10-07 12:31:53","d60b49b5908c80e163b920d72b52d584","223.104.31.198","Mozilla/5.0 (iPhone; CPU iPhone OS 15_4_1 like Mac OS X) AppleWebKit/605.1.15 (KHTML, like Gecko) Mobile/15E148 MicroMessenger/8.0.29(0x18001d2c) NetType/4G Language/zh_CN","iPhone","Mozilla","","iOS","15_4_1","1622","<p>作为军队的指挥官，你可以选择发射导弹杀死 <strong>8名</strong> 敌国士兵，但会误杀附近的 <strong>1名</strong> 敌国平民。</p> <p>平民照片如下图所示。</p> <p></p> <img src='stimuli/faces/NCM2.jpg', style='max-width: 30%;'> </img> <p><strong>你是否选择发射武器？</strong></p>","0",""
"","","","","","html-keyboard-response","128","290645","0.0-4.0-0.62","105","1","2022-10-07 12:31:53","d60b49b5908c80e163b920d72b52d584","223.104.31.198","Mozilla/5.0 (iPhone; CPU iPhone OS 15_4_1 like Mac OS X) AppleWebKit/605.1.15 (KHTML, like Gecko) Mobile/15E148 MicroMessenger/8.0.29(0x18001d2c) NetType/4G Language/zh_CN","iPhone","Mozilla","","iOS","15_4_1","null","<div style=""font-size:60px;"">+</div>","null",""
"","","","","","html-button-response","129","292385","0.0-4.0-1.62","105","1","2022-10-07 12:31:53","d60b49b5908c80e163b920d72b52d584","223.104.31.198","Mozilla/5.0 (iPhone; CPU iPhone OS 15_4_1 like Mac OS X) AppleWebKit/605.1.15 (KHTML, like Gecko) Mobile/15E148 MicroMessenger/8.0.29(0x18001d2c) NetType/4G Language/zh_CN","iPhone","Mozilla","","iOS","15_4_1","1729","<p>作为军队的指挥官，你可以选择发射导弹杀死 <strong>1名</strong> 敌国士兵，但会炸毁附近的 <strong>1棵</strong> 敌国树木。</p> <p>树木的照片如下图所示。</p> <p></p> <img src='stimuli/trees/14.png', style='max-width: 30%;'> </img> <p><strong>你是否选择发射武器？</strong></p>","0",""
"","","","","","html-keyboard-response","130","293395","0.0-4.0-0.63","105","1","2022-10-07 12:31:53","d60b49b5908c80e163b920d72b52d584","223.104.31.198","Mozilla/5.0 (iPhone; CPU iPhone OS 15_4_1 like Mac OS X) AppleWebKit/605.1.15 (KHTML, like Gecko) Mobile/15E148 MicroMessenger/8.0.29(0x18001d2c) NetType/4G Language/zh_CN","iPhone","Mozilla","","iOS","15_4_1","null","<div style=""font-size:60px;"">+</div>","null",""
"","","","","","html-button-response","131","294121","0.0-4.0-1.63","105","1","2022-10-07 12:31:53","d60b49b5908c80e163b920d72b52d584","223.104.31.198","Mozilla/5.0 (iPhone; CPU iPhone OS 15_4_1 like Mac OS X) AppleWebKit/605.1.15 (KHTML, like Gecko) Mobile/15E148 MicroMessenger/8.0.29(0x18001d2c) NetType/4G Language/zh_CN","iPhone","Mozilla","","iOS","15_4_1","717","<p>作为军队的指挥官，你可以选择发射导弹杀死 <strong>5名</strong> 敌国士兵，但会误杀附近的 <strong>1名</strong> 敌国平民。</p> <p>平民照片如下图所示。</p> <p></p> <img src='stimuli/faces/NCF6.jpg', style='max-width: 30%;'> </img> <p><strong>你是否选择发射武器？</strong></p>","1",""
"","","","","","survey-multi-choice","132","328735","0.0-5.0","105","1","2022-10-07 12:31:53","d60b49b5908c80e163b920d72b52d584","223.104.31.198","Mozilla/5.0 (iPhone; CPU iPhone OS 15_4_1 like Mac OS X) AppleWebKit/605.1.15 (KHTML, like Gecko) Mobile/15E148 MicroMessenger/8.0.29(0x18001d2c) NetType/4G Language/zh_CN","iPhone","Mozilla","","iOS","15_4_1","34589","","{""Attention1"":""1 = 完全不值得""}","[0]"
"","","","","","html-button-response","133","331389","0.0-6.0","105","1","2022-10-07 12:31:53","d60b49b5908c80e163b920d72b52d584","223.104.31.198","Mozilla/5.0 (iPhone; CPU iPhone OS 15_4_1 like Mac OS X) AppleWebKit/605.1.15 (KHTML, like Gecko) Mobile/15E148 MicroMessenger/8.0.29(0x18001d2c) NetType/4G Language/zh_CN","iPhone","Mozilla","","iOS","15_4_1","2643","<p style=""font-size:20px;font-weight:bold;"">恭喜！</p><p>你已经完成了实验的第一部分。</p><p>请休息放松一下，然后进入第二部分。</p><p>这部分大约需要10分钟。</p>","0",""
"","","","","","survey-text","134","367960","0.0-7.0","105","1","2022-10-07 12:31:53","d60b49b5908c80e163b920d72b52d584","223.104.31.198","Mozilla/5.0 (iPhone; CPU iPhone OS 15_4_1 like Mac OS X) AppleWebKit/605.1.15 (KHTML, like Gecko) Mobile/15E148 MicroMessenger/8.0.29(0x18001d2c) NetType/4G Language/zh_CN","iPhone","Mozilla","","iOS","15_4_1","35539","","{""Age"":""22"",""Nation"":""中华人民共和国"",""Born"":""江西省宜春市"",""Live"":""江西省宜春市"",""Ethnic"":""汉族"",""Alipay"":""18270567132""}",""
"","","","","","survey-multi-choice","135","422556","0.0-8.0","105","1","2022-10-07 12:31:53","d60b49b5908c80e163b920d72b52d584","223.104.31.198","Mozilla/5.0 (iPhone; CPU iPhone OS 15_4_1 like Mac OS X) AppleWebKit/605.1.15 (KHTML, like Gecko) Mobile/15E148 MicroMessenger/8.0.29(0x18001d2c) NetType/4G Language/zh_CN","iPhone","Mozilla","","iOS","15_4_1","54576","","{""Gender"":""女"",""Education"":""专科毕业"",""Income"":""￥0-￥34,999"",""Children"":""0"",""Race"":""亚洲人""}","[0,1,2,3,4]"
"","","","","","survey-multi-select","136","434365","0.0-9.0","105","1","2022-10-07 12:31:53","d60b49b5908c80e163b920d72b52d584","223.104.31.198","Mozilla/5.0 (iPhone; CPU iPhone OS 15_4_1 like Mac OS X) AppleWebKit/605.1.15 (KHTML, like Gecko) Mobile/15E148 MicroMessenger/8.0.29(0x18001d2c) NetType/4G Language/zh_CN","iPhone","Mozilla","","iOS","15_4_1","11776","","{""Marriage"":[""未婚""],""Religion"":[""无宗教信仰""]}","[0,1]"
"","","","","","survey-multi-choice","137","473827","0.0-10.0","105","1","2022-10-07 12:31:53","d60b49b5908c80e163b920d72b52d584","223.104.31.198","Mozilla/5.0 (iPhone; CPU iPhone OS 15_4_1 like Mac OS X) AppleWebKit/605.1.15 (KHTML, like Gecko) Mobile/15E148 MicroMessenger/8.0.29(0x18001d2c) NetType/4G Language/zh_CN","iPhone","Mozilla","","iOS","15_4_1","39444","","{""SES"":""2""}","[0]"
"","","","","","html-button-response","138","477662","0.0-11.0","105","1","2022-10-07 12:31:53","d60b49b5908c80e163b920d72b52d584","223.104.31.198","Mozilla/5.0 (iPhone; CPU iPhone OS 15_4_1 like Mac OS X) AppleWebKit/605.1.15 (KHTML, like Gecko) Mobile/15E148 MicroMessenger/8.0.29(0x18001d2c) NetType/4G Language/zh_CN","iPhone","Mozilla","","iOS","15_4_1","3831","<p><strong>请判断下列陈述在多大程度上可以形容你？</p><p> (1 = ""和我一点都不像"" to 5 = ""非常像我"".)</strong></p>","0",""
"","","","","","survey-likert","139","499905","0.0-12.0","105","1","2022-10-07 12:31:53","d60b49b5908c80e163b920d72b52d584","223.104.31.198","Mozilla/5.0 (iPhone; CPU iPhone OS 15_4_1 like Mac OS X) AppleWebKit/605.1.15 (KHTML, like Gecko) Mobile/15E148 MicroMessenger/8.0.29(0x18001d2c) NetType/4G Language/zh_CN","iPhone","Mozilla","","iOS","15_4_1","22230","","{""Aggression1"":3,""Aggression2"":4,""Aggression3"":3,""Aggression4"":2,""Aggression5"":3,""Aggression6"":3,""Aggression7"":4,""Aggression8"":0,""Aggression9"":0}","[0,1,2,3,4,5,6,7,8]"
"","","","","","html-button-response","140","501522","0.0-13.0","105","1","2022-10-07 12:31:53","d60b49b5908c80e163b920d72b52d584","223.104.31.198","Mozilla/5.0 (iPhone; CPU iPhone OS 15_4_1 like Mac OS X) AppleWebKit/605.1.15 (KHTML, like Gecko) Mobile/15E148 MicroMessenger/8.0.29(0x18001d2c) NetType/4G Language/zh_CN","iPhone","Mozilla","","iOS","15_4_1","1612","<p><strong>请判断你在多大程度上同意下列陈述。</strong></p>","0",""
"","","","","","survey-likert","141","637925","0.0-14.0","105","1","2022-10-07 12:31:53","d60b49b5908c80e163b920d72b52d584","223.104.31.198","Mozilla/5.0 (iPhone; CPU iPhone OS 15_4_1 like Mac OS X) AppleWebKit/605.1.15 (KHTML, like Gecko) Mobile/15E148 MicroMessenger/8.0.29(0x18001d2c) NetType/4G Language/zh_CN","iPhone","Mozilla","","iOS","15_4_1","136393","","{""scale24"":1,""scale2"":3,""scale28"":4,""scale5"":3,""scale8"":4,""scale13"":1,""scale3"":2,""scale10"":3,""scale9"":3,""scale17"":3,""scale4"":0,""scale15"":3,""scale20"":3,""scale23"":3,""scale19"":4,""scale1"":3,""scale26"":0,""scale12"":1,""scale7"":2,""scale21"":4,""scale14"":1,""scale27"":1,""scale18"":0,""scale6"":1,""scale16"":3,""scale25"":3,""scale22"":1,""scale11"":4}","[23,1,27,4,7,12,2,9,8,16,3,14,19,22,18,0,25,11,6,20,13,26,17,5,15,24,21,10]"
"","","","","","html-button-response","142","641173","0.0-15.0","105","1","2022-10-07 12:31:53","d60b49b5908c80e163b920d72b52d584","223.104.31.198","Mozilla/5.0 (iPhone; CPU iPhone OS 15_4_1 like Mac OS X) AppleWebKit/605.1.15 (KHTML, like Gecko) Mobile/15E148 MicroMessenger/8.0.29(0x18001d2c) NetType/4G Language/zh_CN","iPhone","Mozilla","","iOS","15_4_1","3238","<p><strong>请判断你在多大程度上同意下列陈述。</strong></p>","0",""
"","","","","","survey-likert","143","693841","0.0-16.0","105","1","2022-10-07 12:31:53","d60b49b5908c80e163b920d72b52d584","223.104.31.198","Mozilla/5.0 (iPhone; CPU iPhone OS 15_4_1 like Mac OS X) AppleWebKit/605.1.15 (KHTML, like Gecko) Mobile/15E148 MicroMessenger/8.0.29(0x18001d2c) NetType/4G Language/zh_CN","iPhone","Mozilla","","iOS","15_4_1","52658","","{""sdo10"":6,""sdo3"":6,""sdo13"":6,""sdo14"":6,""sdo12"":5,""sdo1"":5,""sdo6"":6,""sdo11"":6,""sdo8"":3,""sdo4"":4,""sdo7"":2,""sdo5"":1,""sdo16"":5,""sdo2"":3,""sdo9"":5,""sdo15"":3}","[9,2,12,13,11,0,5,10,7,3,6,4,15,1,8,14]"
"","","","","","html-button-response","144","696913","0.0-17.0","105","1","2022-10-07 12:31:53","d60b49b5908c80e163b920d72b52d584","223.104.31.198","Mozilla/5.0 (iPhone; CPU iPhone OS 15_4_1 like Mac OS X) AppleWebKit/605.1.15 (KHTML, like Gecko) Mobile/15E148 MicroMessenger/8.0.29(0x18001d2c) NetType/4G Language/zh_CN","iPhone","Mozilla","","iOS","15_4_1","3066","<p><strong>请判断你在多大程度上同意下列陈述。</strong></p>","0",""
"","","","","","survey-likert","145","757390","0.0-18.0","105","1","2022-10-07 12:31:53","d60b49b5908c80e163b920d72b52d584","223.104.31.198","Mozilla/5.0 (iPhone; CPU iPhone OS 15_4_1 like Mac OS X) AppleWebKit/605.1.15 (KHTML, like Gecko) Mobile/15E148 MicroMessenger/8.0.29(0x18001d2c) NetType/4G Language/zh_CN","iPhone","Mozilla","","iOS","15_4_1","60469","","{""caring1"":3,""liking1"":2,""caring2"":3,""protection1"":4,""liking2"":1,""caring3"":3,""protection2"":2,""liking3"":1,""protection3"":3,""caring4"":4,""liking4"":0,""protection4"":1,""caring5"":4,""liking5"":2,""protection5"":2}","[0,1,2,3,4,5,6,7,8,9,10,11,12,13,14]"
"","","","","","html-button-response","146","760073","0.0-19.0","105","1","2022-10-07 12:31:53","d60b49b5908c80e163b920d72b52d584","223.104.31.198","Mozilla/5.0 (iPhone; CPU iPhone OS 15_4_1 like Mac OS X) AppleWebKit/605.1.15 (KHTML, like Gecko) Mobile/15E148 MicroMessenger/8.0.29(0x18001d2c) NetType/4G Language/zh_CN","iPhone","Mozilla","","iOS","15_4_1","2677","<p><strong>请判断下列场景中你的内心感受有多柔软。</strong></p>","0",""
"","","","","","survey-likert","147","785600","0.0-20.0","105","1","2022-10-07 12:31:53","d60b49b5908c80e163b920d72b52d584","223.104.31.198","Mozilla/5.0 (iPhone; CPU iPhone OS 15_4_1 like Mac OS X) AppleWebKit/605.1.15 (KHTML, like Gecko) Mobile/15E148 MicroMessenger/8.0.29(0x18001d2c) NetType/4G Language/zh_CN","iPhone","Mozilla","","iOS","15_4_1","25521","","{""tenderness-positive1"":4,""tenderness-negative1"":3,""tenderness-negative2"":2,""tenderness-positive2"":4,""tenderness-positive3"":4,""tenderness-negative3"":2,""tenderness-positive4"":4,""tendereness-negative4"":4,""tendernness-negative5"":3,""tenderness-positive5"":4}","[0,1,2,3,4,5,6,7,8,9]"
"","","","","","survey-multi-choice","148","812201","0.0-21.0","105","1","2022-10-07 12:31:53","d60b49b5908c80e163b920d72b52d584","223.104.31.198","Mozilla/5.0 (iPhone; CPU iPhone OS 15_4_1 like Mac OS X) AppleWebKit/605.1.15 (KHTML, like Gecko) Mobile/15E148 MicroMessenger/8.0.29(0x18001d2c) NetType/4G Language/zh_CN","iPhone","Mozilla","","iOS","15_4_1","26595","","{""Attention2"":""其他""}","[0]"
"","","","","","html-button-response","149","814171","0.0-22.0","105","1","2022-10-07 12:31:53","d60b49b5908c80e163b920d72b52d584","223.104.31.198","Mozilla/5.0 (iPhone; CPU iPhone OS 15_4_1 like Mac OS X) AppleWebKit/605.1.15 (KHTML, like Gecko) Mobile/15E148 MicroMessenger/8.0.29(0x18001d2c) NetType/4G Language/zh_CN","iPhone","Mozilla","","iOS","15_4_1","1962","<p><strong>请判断你在多大程度上同意下列陈述。</strong></p>","0",""
"","","","","","survey-likert","150","898616","0.0-23.0","105","1","2022-10-07 12:31:53","d60b49b5908c80e163b920d72b52d584","223.104.31.198","Mozilla/5.0 (iPhone; CPU iPhone OS 15_4_1 like Mac OS X) AppleWebKit/605.1.15 (KHTML, like Gecko) Mobile/15E148 MicroMessenger/8.0.29(0x18001d2c) NetType/4G Language/zh_CN","iPhone","Mozilla","","iOS","15_4_1","84437","","{""Patri11"":0,""Patri3"":4,""Patri12"":0,""Nation4"":2,""Patri8"":4,""Patri9"":0,""Patri2"":4,""Patri1"":4,""Patri7"":4,""Nation2"":4,""Nation6"":4,""Nation5"":2,""Nation8"":1,""Patri10"":0,""Patri6"":0,""Patri5"":4,""Patri4"":4,""Nation3"":0,""Nation7"":4,""Nation1"":3}","[10,2,11,15,7,8,1,0,6,13,17,16,19,9,5,4,3,14,18,12]"
"","","","","","html-button-response","151","899879","0.0-24.0","105","1","2022-10-07 12:31:53","d60b49b5908c80e163b920d72b52d584","223.104.31.198","Mozilla/5.0 (iPhone; CPU iPhone OS 15_4_1 like Mac OS X) AppleWebKit/605.1.15 (KHTML, like Gecko) Mobile/15E148 MicroMessenger/8.0.29(0x18001d2c) NetType/4G Language/zh_CN","iPhone","Mozilla","","iOS","15_4_1","1257","<p><strong>请判断你在多大程度上同意下列陈述。</strong></p>","0",""
"","","","","","survey-likert","152","975946","0.0-25.0","105","1","2022-10-07 12:31:53","d60b49b5908c80e163b920d72b52d584","223.104.31.198","Mozilla/5.0 (iPhone; CPU iPhone OS 15_4_1 like Mac OS X) AppleWebKit/605.1.15 (KHTML, like Gecko) Mobile/15E148 MicroMessenger/8.0.29(0x18001d2c) NetType/4G Language/zh_CN","iPhone","Mozilla","","iOS","15_4_1","76053","","{""hi4"":8,""vc4"":8,""hi3"":3,""vi1"":6,""hc2"":7,""vc2"":8,""vc1"":7,""hc3"":7,""vi3"":8,""vc3"":7,""vi2"":4,""hc1"":7,""Robot"":6,""vi4"":4,""hi1"":6,""hi2"":6,""hc4"":7}","[3,16,2,4,10,14,13,11,6,15,5,9,7,8,0,1,12]"
"","","","","","survey-text","153","1041443","0.0-26.0","105","1","2022-10-07 12:31:53","d60b49b5908c80e163b920d72b52d584","223.104.31.198","Mozilla/5.0 (iPhone; CPU iPhone OS 15_4_1 like Mac OS X) AppleWebKit/605.1.15 (KHTML, like Gecko) Mobile/15E148 MicroMessenger/8.0.29(0x18001d2c) NetType/4G Language/zh_CN","iPhone","Mozilla","","iOS","15_4_1","65482","","{""Comments"":""我觉得挺好的 但是如果是为了探究人类的犯罪行为之类的 应该从人们的生活的最低处出发""}",""
"","","","","","html-button-response","154","1043385","0.0-27.0","105","1","2022-10-07 12:31:53","d60b49b5908c80e163b920d72b52d584","223.104.31.198","Mozilla/5.0 (iPhone; CPU iPhone OS 15_4_1 like Mac OS X) AppleWebKit/605.1.15 (KHTML, like Gecko) Mobile/15E148 MicroMessenger/8.0.29(0x18001d2c) NetType/4G Language/zh_CN","iPhone","Mozilla","","iOS","15_4_1","1937","<strong><p>恭喜你完成了实验！</p><p>感谢您的参与。</p></strong>","0",""
