"success","timeout","failed_images","failed_audio","failed_video","trial_type","trial_index","time_elapsed","internal_node_id","run_id","condition","recorded_at","source_code_version","ip","user_agent","device","browser","browser_version","platform","platform_version","rt","stimulus","response","question_order"
"true","false","[]","[]","[]","preload","0","3998","0.0-0.0","117","1","2022-10-07 14:50:57","d60b49b5908c80e163b920d72b52d584","219.142.99.1","Mozilla/5.0 (Macintosh; Intel Mac OS X 10_15_7) AppleWebKit/605.1.15 (KHTML, like Gecko) Version/15.2 Safari/605.1.15","Macintosh","Safari","15.2","OS X","10_15_7","","","",""
"true","","","","","fullscreen","1","7449","0.0-1.0","117","1","2022-10-07 14:50:57","d60b49b5908c80e163b920d72b52d584","219.142.99.1","Mozilla/5.0 (Macintosh; Intel Mac OS X 10_15_7) AppleWebKit/605.1.15 (KHTML, like Gecko) Version/15.2 Safari/605.1.15","Macintosh","Safari","15.2","OS X","10_15_7","","","",""
"","","","","","html-button-response","2","36696","0.0-2.0","117","1","2022-10-07 14:50:57","d60b49b5908c80e163b920d72b52d584","219.142.99.1","Mozilla/5.0 (Macintosh; Intel Mac OS X 10_15_7) AppleWebKit/605.1.15 (KHTML, like Gecko) Version/15.2 Safari/605.1.15","Macintosh","Safari","15.2","OS X","10_15_7","29244","<p style=""font-size:20px;font-weight:bold;"">实验知情同意书</p><p style=""text-align:left;""><strong>实验名称：</strong>社会冲突研究</p><p style=""text-align:left;""><strong>主要研究者：</strong>韩晓春副教授（北京师范大学心理学部）</p><p style=""text-align:left;""><strong>联系方式：</strong>发送邮件至xiaochun.han@bnu.edu.cn</p><p style=""text-align:left;""><strong>研究目的：</strong>研究旨在了解人类面对群体冲突时的决策方式，以及相关的心理学特质。实验调查大约需要20分钟。</p><p style=""text-align:left;""><strong>实验流程：</strong>实验包含两部分。第一部分呈现一系列群体冲突场景，请你决定如何对这些冲突进行反应，大约需要10分钟完成。第二部分包含一系列人口统计学信息收集和心理学问卷，大约需要10分钟完成。</p><p style=""text-align:left;""><strong>参加及退出规则：</strong>参加本实验完全取决于您的个人意愿。在参与过程中，您可以随时退出，并且不用承担任何后果。</p><p style=""text-align:left;""><strong>隐私：</strong>本实验完全匿名进行，不会收集您的姓名或其他能够识别您身份的信息。实验中收集的作答仅用作科学研究使用，可能会在学术期刊/书籍上发表，或者用于教学，您的数据未来可能会和其他研究者或实验室分享，但您的个人身份不会被识别。</p><p style=""text-align:left;""><strong>实验报酬：</strong>实验完成后，您将获得15元人民币报酬，以感谢您的时间和努力。调查问卷中包含几道题目用以测验您作答时的认真度。只有完成全部实验，并且正确回答认真度测验的被试才能获得实验报酬。实验报酬将通过支付宝转账发放。</p><p style=""text-align:left;font-size:20px;""><strong>如果您同意以上实验知情同意书的内容，请点击'同意并且开始实验'按钮；否则请关闭浏览器界面，退出实验。</strong></p>","0",""
"","","","","","html-button-response","3","60781","0.0-3.0","117","1","2022-10-07 14:50:57","d60b49b5908c80e163b920d72b52d584","219.142.99.1","Mozilla/5.0 (Macintosh; Intel Mac OS X 10_15_7) AppleWebKit/605.1.15 (KHTML, like Gecko) Version/15.2 Safari/605.1.15","Macintosh","Safari","15.2","OS X","10_15_7","24078","<p ><strong>实验任务一：</strong></p><p>请想象你的国家与另一个国家发生了军事冲突。</p><p>你是国家军队的指挥官，你将如何在冲突中进行决策。</p><p>具体来说，作为军队指挥官，请你决定是否发射导弹进行打击。</p><p>接下来，你会面对一系列场景，请仔细阅读每个场景，然后进行决策。</p><p>这部分实验任务大约需要10分钟。</p><p><strong>实验过程中，请集中注意力。</strong></p>","0",""
"","","","","","html-keyboard-response","4","61786","0.0-4.0-0.0","117","1","2022-10-07 14:50:57","d60b49b5908c80e163b920d72b52d584","219.142.99.1","Mozilla/5.0 (Macintosh; Intel Mac OS X 10_15_7) AppleWebKit/605.1.15 (KHTML, like Gecko) Version/15.2 Safari/605.1.15","Macintosh","Safari","15.2","OS X","10_15_7","null","<div style=""font-size:60px;"">+</div>","null",""
"","","","","","html-button-response","5","77545","0.0-4.0-1.0","117","1","2022-10-07 14:50:57","d60b49b5908c80e163b920d72b52d584","219.142.99.1","Mozilla/5.0 (Macintosh; Intel Mac OS X 10_15_7) AppleWebKit/605.1.15 (KHTML, like Gecko) Version/15.2 Safari/605.1.15","Macintosh","Safari","15.2","OS X","10_15_7","15756","<p>作为军队的指挥官，你可以选择发射导弹杀死 <strong>1名</strong> 敌国士兵，但会误杀附近的 <strong>1名</strong> 敌国平民。</p> <p>平民照片如下图所示。</p> <p></p> <img src='stimuli/faces/NCM4.jpg', style='max-width: 30%;'> </img> <p><strong>你是否选择发射武器？</strong></p>","1",""
"","","","","","html-keyboard-response","6","78550","0.0-4.0-0.1","117","1","2022-10-07 14:50:57","d60b49b5908c80e163b920d72b52d584","219.142.99.1","Mozilla/5.0 (Macintosh; Intel Mac OS X 10_15_7) AppleWebKit/605.1.15 (KHTML, like Gecko) Version/15.2 Safari/605.1.15","Macintosh","Safari","15.2","OS X","10_15_7","null","<div style=""font-size:60px;"">+</div>","null",""
"","","","","","html-button-response","7","87632","0.0-4.0-1.1","117","1","2022-10-07 14:50:57","d60b49b5908c80e163b920d72b52d584","219.142.99.1","Mozilla/5.0 (Macintosh; Intel Mac OS X 10_15_7) AppleWebKit/605.1.15 (KHTML, like Gecko) Version/15.2 Safari/605.1.15","Macintosh","Safari","15.2","OS X","10_15_7","9079","<p>作为军队的指挥官，你可以选择发射导弹杀死 <strong>8名</strong> 敌国士兵，但会炸毁附近的 <strong>1棵</strong> 敌国树木。</p> <p>树木的照片如下图所示。</p> <p></p> <img src='stimuli/trees/7.png', style='max-width: 30%;'> </img> <p><strong>你是否选择发射武器？</strong></p>","0",""
"","","","","","html-keyboard-response","8","88636","0.0-4.0-0.2","117","1","2022-10-07 14:50:57","d60b49b5908c80e163b920d72b52d584","219.142.99.1","Mozilla/5.0 (Macintosh; Intel Mac OS X 10_15_7) AppleWebKit/605.1.15 (KHTML, like Gecko) Version/15.2 Safari/605.1.15","Macintosh","Safari","15.2","OS X","10_15_7","null","<div style=""font-size:60px;"">+</div>","null",""
"","","","","","html-button-response","9","94979","0.0-4.0-1.2","117","1","2022-10-07 14:50:57","d60b49b5908c80e163b920d72b52d584","219.142.99.1","Mozilla/5.0 (Macintosh; Intel Mac OS X 10_15_7) AppleWebKit/605.1.15 (KHTML, like Gecko) Version/15.2 Safari/605.1.15","Macintosh","Safari","15.2","OS X","10_15_7","6340","<p>作为军队的指挥官，你可以选择发射导弹杀死 <strong>8名</strong> 敌国士兵，但会误杀附近的 <strong>1名</strong> 敌国平民。</p> <p>平民照片如下图所示。</p> <p></p> <img src='stimuli/faces/NCM3.jpg', style='max-width: 30%;'> </img> <p><strong>你是否选择发射武器？</strong></p>","0",""
"","","","","","html-keyboard-response","10","95983","0.0-4.0-0.3","117","1","2022-10-07 14:50:57","d60b49b5908c80e163b920d72b52d584","219.142.99.1","Mozilla/5.0 (Macintosh; Intel Mac OS X 10_15_7) AppleWebKit/605.1.15 (KHTML, like Gecko) Version/15.2 Safari/605.1.15","Macintosh","Safari","15.2","OS X","10_15_7","null","<div style=""font-size:60px;"">+</div>","null",""
"","","","","","html-button-response","11","101249","0.0-4.0-1.3","117","1","2022-10-07 14:50:57","d60b49b5908c80e163b920d72b52d584","219.142.99.1","Mozilla/5.0 (Macintosh; Intel Mac OS X 10_15_7) AppleWebKit/605.1.15 (KHTML, like Gecko) Version/15.2 Safari/605.1.15","Macintosh","Safari","15.2","OS X","10_15_7","5262","<p>作为军队的指挥官，你可以选择发射导弹杀死 <strong>9名</strong> 敌国士兵，但会炸毁附近的 <strong>1棵</strong> 敌国树木。</p> <p>树木的照片如下图所示。</p> <p></p> <img src='stimuli/trees/9.png', style='max-width: 30%;'> </img> <p><strong>你是否选择发射武器？</strong></p>","0",""
"","","","","","html-keyboard-response","12","102253","0.0-4.0-0.4","117","1","2022-10-07 14:50:57","d60b49b5908c80e163b920d72b52d584","219.142.99.1","Mozilla/5.0 (Macintosh; Intel Mac OS X 10_15_7) AppleWebKit/605.1.15 (KHTML, like Gecko) Version/15.2 Safari/605.1.15","Macintosh","Safari","15.2","OS X","10_15_7","null","<div style=""font-size:60px;"">+</div>","null",""
"","","","","","html-button-response","13","106933","0.0-4.0-1.4","117","1","2022-10-07 14:50:57","d60b49b5908c80e163b920d72b52d584","219.142.99.1","Mozilla/5.0 (Macintosh; Intel Mac OS X 10_15_7) AppleWebKit/605.1.15 (KHTML, like Gecko) Version/15.2 Safari/605.1.15","Macintosh","Safari","15.2","OS X","10_15_7","4677","<p>作为军队的指挥官，你可以选择发射导弹杀死 <strong>5名</strong> 敌国士兵，但会误杀附近的 <strong>1名</strong> 敌国平民。</p> <p>平民照片如下图所示。</p> <p></p> <img src='stimuli/faces/NCF2.jpg', style='max-width: 30%;'> </img> <p><strong>你是否选择发射武器？</strong></p>","0",""
"","","","","","html-keyboard-response","14","107937","0.0-4.0-0.5","117","1","2022-10-07 14:50:57","d60b49b5908c80e163b920d72b52d584","219.142.99.1","Mozilla/5.0 (Macintosh; Intel Mac OS X 10_15_7) AppleWebKit/605.1.15 (KHTML, like Gecko) Version/15.2 Safari/605.1.15","Macintosh","Safari","15.2","OS X","10_15_7","null","<div style=""font-size:60px;"">+</div>","null",""
"","","","","","html-button-response","15","114384","0.0-4.0-1.5","117","1","2022-10-07 14:50:57","d60b49b5908c80e163b920d72b52d584","219.142.99.1","Mozilla/5.0 (Macintosh; Intel Mac OS X 10_15_7) AppleWebKit/605.1.15 (KHTML, like Gecko) Version/15.2 Safari/605.1.15","Macintosh","Safari","15.2","OS X","10_15_7","6443","<p>作为军队的指挥官，你可以选择发射导弹杀死 <strong>6名</strong> 敌国士兵，但会炸毁附近的 <strong>1棵</strong> 敌国树木。</p> <p>树木的照片如下图所示。</p> <p></p> <img src='stimuli/trees/6.png', style='max-width: 30%;'> </img> <p><strong>你是否选择发射武器？</strong></p>","0",""
"","","","","","html-keyboard-response","16","115387","0.0-4.0-0.6","117","1","2022-10-07 14:50:57","d60b49b5908c80e163b920d72b52d584","219.142.99.1","Mozilla/5.0 (Macintosh; Intel Mac OS X 10_15_7) AppleWebKit/605.1.15 (KHTML, like Gecko) Version/15.2 Safari/605.1.15","Macintosh","Safari","15.2","OS X","10_15_7","null","<div style=""font-size:60px;"">+</div>","null",""
"","","","","","html-button-response","17","119033","0.0-4.0-1.6","117","1","2022-10-07 14:50:57","d60b49b5908c80e163b920d72b52d584","219.142.99.1","Mozilla/5.0 (Macintosh; Intel Mac OS X 10_15_7) AppleWebKit/605.1.15 (KHTML, like Gecko) Version/15.2 Safari/605.1.15","Macintosh","Safari","15.2","OS X","10_15_7","3639","<p>作为军队的指挥官，你可以选择发射导弹杀死 <strong>7名</strong> 敌国士兵，但会误杀附近的 <strong>1名</strong> 敌国平民。</p> <p>平民照片如下图所示。</p> <p></p> <img src='stimuli/faces/NCF3.jpg', style='max-width: 30%;'> </img> <p><strong>你是否选择发射武器？</strong></p>","0",""
"","","","","","html-keyboard-response","18","120037","0.0-4.0-0.7","117","1","2022-10-07 14:50:57","d60b49b5908c80e163b920d72b52d584","219.142.99.1","Mozilla/5.0 (Macintosh; Intel Mac OS X 10_15_7) AppleWebKit/605.1.15 (KHTML, like Gecko) Version/15.2 Safari/605.1.15","Macintosh","Safari","15.2","OS X","10_15_7","null","<div style=""font-size:60px;"">+</div>","null",""
"","","","","","html-button-response","19","124183","0.0-4.0-1.7","117","1","2022-10-07 14:50:57","d60b49b5908c80e163b920d72b52d584","219.142.99.1","Mozilla/5.0 (Macintosh; Intel Mac OS X 10_15_7) AppleWebKit/605.1.15 (KHTML, like Gecko) Version/15.2 Safari/605.1.15","Macintosh","Safari","15.2","OS X","10_15_7","4143","<p>作为军队的指挥官，你可以选择发射导弹杀死 <strong>9名</strong> 敌国士兵，但会炸毁附近的 <strong>1棵</strong> 敌国树木。</p> <p>树木的照片如下图所示。</p> <p></p> <img src='stimuli/trees/4.png', style='max-width: 30%;'> </img> <p><strong>你是否选择发射武器？</strong></p>","0",""
"","","","","","html-keyboard-response","20","125187","0.0-4.0-0.8","117","1","2022-10-07 14:50:57","d60b49b5908c80e163b920d72b52d584","219.142.99.1","Mozilla/5.0 (Macintosh; Intel Mac OS X 10_15_7) AppleWebKit/605.1.15 (KHTML, like Gecko) Version/15.2 Safari/605.1.15","Macintosh","Safari","15.2","OS X","10_15_7","null","<div style=""font-size:60px;"">+</div>","null",""
"","","","","","html-button-response","21","129467","0.0-4.0-1.8","117","1","2022-10-07 14:50:57","d60b49b5908c80e163b920d72b52d584","219.142.99.1","Mozilla/5.0 (Macintosh; Intel Mac OS X 10_15_7) AppleWebKit/605.1.15 (KHTML, like Gecko) Version/15.2 Safari/605.1.15","Macintosh","Safari","15.2","OS X","10_15_7","4276","<p>作为军队的指挥官，你可以选择发射导弹杀死 <strong>5名</strong> 敌国士兵，但会误杀附近的 <strong>1名</strong> 敌国平民。</p> <p>平民照片如下图所示。</p> <p></p> <img src='stimuli/faces/NCF6.jpg', style='max-width: 30%;'> </img> <p><strong>你是否选择发射武器？</strong></p>","0",""
"","","","","","html-keyboard-response","22","130471","0.0-4.0-0.9","117","1","2022-10-07 14:50:57","d60b49b5908c80e163b920d72b52d584","219.142.99.1","Mozilla/5.0 (Macintosh; Intel Mac OS X 10_15_7) AppleWebKit/605.1.15 (KHTML, like Gecko) Version/15.2 Safari/605.1.15","Macintosh","Safari","15.2","OS X","10_15_7","null","<div style=""font-size:60px;"">+</div>","null",""
"","","","","","html-button-response","23","133864","0.0-4.0-1.9","117","1","2022-10-07 14:50:57","d60b49b5908c80e163b920d72b52d584","219.142.99.1","Mozilla/5.0 (Macintosh; Intel Mac OS X 10_15_7) AppleWebKit/605.1.15 (KHTML, like Gecko) Version/15.2 Safari/605.1.15","Macintosh","Safari","15.2","OS X","10_15_7","3389","<p>作为军队的指挥官，你可以选择发射导弹杀死 <strong>4名</strong> 敌国士兵，但会炸毁附近的 <strong>1棵</strong> 敌国树木。</p> <p>树木的照片如下图所示。</p> <p></p> <img src='stimuli/trees/16.png', style='max-width: 30%;'> </img> <p><strong>你是否选择发射武器？</strong></p>","0",""
"","","","","","html-keyboard-response","24","134868","0.0-4.0-0.10","117","1","2022-10-07 14:50:57","d60b49b5908c80e163b920d72b52d584","219.142.99.1","Mozilla/5.0 (Macintosh; Intel Mac OS X 10_15_7) AppleWebKit/605.1.15 (KHTML, like Gecko) Version/15.2 Safari/605.1.15","Macintosh","Safari","15.2","OS X","10_15_7","null","<div style=""font-size:60px;"">+</div>","null",""
"","","","","","html-button-response","25","140467","0.0-4.0-1.10","117","1","2022-10-07 14:50:57","d60b49b5908c80e163b920d72b52d584","219.142.99.1","Mozilla/5.0 (Macintosh; Intel Mac OS X 10_15_7) AppleWebKit/605.1.15 (KHTML, like Gecko) Version/15.2 Safari/605.1.15","Macintosh","Safari","15.2","OS X","10_15_7","5595","<p>作为军队的指挥官，你可以选择发射导弹杀死 <strong>2名</strong> 敌国士兵，但会误杀附近的 <strong>1名</strong> 敌国平民。</p> <p>平民照片如下图所示。</p> <p></p> <img src='stimuli/faces/NCM3.jpg', style='max-width: 30%;'> </img> <p><strong>你是否选择发射武器？</strong></p>","0",""
"","","","","","html-keyboard-response","26","141471","0.0-4.0-0.11","117","1","2022-10-07 14:50:57","d60b49b5908c80e163b920d72b52d584","219.142.99.1","Mozilla/5.0 (Macintosh; Intel Mac OS X 10_15_7) AppleWebKit/605.1.15 (KHTML, like Gecko) Version/15.2 Safari/605.1.15","Macintosh","Safari","15.2","OS X","10_15_7","null","<div style=""font-size:60px;"">+</div>","null",""
"","","","","","html-button-response","27","147464","0.0-4.0-1.11","117","1","2022-10-07 14:50:57","d60b49b5908c80e163b920d72b52d584","219.142.99.1","Mozilla/5.0 (Macintosh; Intel Mac OS X 10_15_7) AppleWebKit/605.1.15 (KHTML, like Gecko) Version/15.2 Safari/605.1.15","Macintosh","Safari","15.2","OS X","10_15_7","5990","<p>作为军队的指挥官，你可以选择发射导弹杀死 <strong>6名</strong> 敌国士兵，但会误杀附近的 <strong>1名</strong> 敌国平民。</p> <p>平民照片如下图所示。</p> <p></p> <img src='stimuli/faces/NCM7.jpg', style='max-width: 30%;'> </img> <p><strong>你是否选择发射武器？</strong></p>","0",""
"","","","","","html-keyboard-response","28","148468","0.0-4.0-0.12","117","1","2022-10-07 14:50:57","d60b49b5908c80e163b920d72b52d584","219.142.99.1","Mozilla/5.0 (Macintosh; Intel Mac OS X 10_15_7) AppleWebKit/605.1.15 (KHTML, like Gecko) Version/15.2 Safari/605.1.15","Macintosh","Safari","15.2","OS X","10_15_7","null","<div style=""font-size:60px;"">+</div>","null",""
"","","","","","html-button-response","29","150067","0.0-4.0-1.12","117","1","2022-10-07 14:50:57","d60b49b5908c80e163b920d72b52d584","219.142.99.1","Mozilla/5.0 (Macintosh; Intel Mac OS X 10_15_7) AppleWebKit/605.1.15 (KHTML, like Gecko) Version/15.2 Safari/605.1.15","Macintosh","Safari","15.2","OS X","10_15_7","1596","<p>作为军队的指挥官，你可以选择发射导弹杀死 <strong>9名</strong> 敌国士兵，但会炸毁附近的 <strong>1棵</strong> 敌国树木。</p> <p>树木的照片如下图所示。</p> <p></p> <img src='stimuli/trees/13.png', style='max-width: 30%;'> </img> <p><strong>你是否选择发射武器？</strong></p>","0",""
"","","","","","html-keyboard-response","30","151071","0.0-4.0-0.13","117","1","2022-10-07 14:50:57","d60b49b5908c80e163b920d72b52d584","219.142.99.1","Mozilla/5.0 (Macintosh; Intel Mac OS X 10_15_7) AppleWebKit/605.1.15 (KHTML, like Gecko) Version/15.2 Safari/605.1.15","Macintosh","Safari","15.2","OS X","10_15_7","null","<div style=""font-size:60px;"">+</div>","null",""
"","","","","","html-button-response","31","152968","0.0-4.0-1.13","117","1","2022-10-07 14:50:57","d60b49b5908c80e163b920d72b52d584","219.142.99.1","Mozilla/5.0 (Macintosh; Intel Mac OS X 10_15_7) AppleWebKit/605.1.15 (KHTML, like Gecko) Version/15.2 Safari/605.1.15","Macintosh","Safari","15.2","OS X","10_15_7","1892","<p>作为军队的指挥官，你可以选择发射导弹杀死 <strong>7名</strong> 敌国士兵，但会炸毁附近的 <strong>1棵</strong> 敌国树木。</p> <p>树木的照片如下图所示。</p> <p></p> <img src='stimuli/trees/11.png', style='max-width: 30%;'> </img> <p><strong>你是否选择发射武器？</strong></p>","0",""
"","","","","","html-keyboard-response","32","153971","0.0-4.0-0.14","117","1","2022-10-07 14:50:57","d60b49b5908c80e163b920d72b52d584","219.142.99.1","Mozilla/5.0 (Macintosh; Intel Mac OS X 10_15_7) AppleWebKit/605.1.15 (KHTML, like Gecko) Version/15.2 Safari/605.1.15","Macintosh","Safari","15.2","OS X","10_15_7","null","<div style=""font-size:60px;"">+</div>","null",""
"","","","","","html-button-response","33","157898","0.0-4.0-1.14","117","1","2022-10-07 14:50:57","d60b49b5908c80e163b920d72b52d584","219.142.99.1","Mozilla/5.0 (Macintosh; Intel Mac OS X 10_15_7) AppleWebKit/605.1.15 (KHTML, like Gecko) Version/15.2 Safari/605.1.15","Macintosh","Safari","15.2","OS X","10_15_7","3921","<p>作为军队的指挥官，你可以选择发射导弹杀死 <strong>9名</strong> 敌国士兵，但会误杀附近的 <strong>1名</strong> 敌国平民。</p> <p>平民照片如下图所示。</p> <p></p> <img src='stimuli/faces/NCF2.jpg', style='max-width: 30%;'> </img> <p><strong>你是否选择发射武器？</strong></p>","0",""
"","","","","","html-keyboard-response","34","158902","0.0-4.0-0.15","117","1","2022-10-07 14:50:57","d60b49b5908c80e163b920d72b52d584","219.142.99.1","Mozilla/5.0 (Macintosh; Intel Mac OS X 10_15_7) AppleWebKit/605.1.15 (KHTML, like Gecko) Version/15.2 Safari/605.1.15","Macintosh","Safari","15.2","OS X","10_15_7","null","<div style=""font-size:60px;"">+</div>","null",""
"","","","","","html-button-response","35","161701","0.0-4.0-1.15","117","1","2022-10-07 14:50:57","d60b49b5908c80e163b920d72b52d584","219.142.99.1","Mozilla/5.0 (Macintosh; Intel Mac OS X 10_15_7) AppleWebKit/605.1.15 (KHTML, like Gecko) Version/15.2 Safari/605.1.15","Macintosh","Safari","15.2","OS X","10_15_7","2795","<p>作为军队的指挥官，你可以选择发射导弹杀死 <strong>8名</strong> 敌国士兵，但会炸毁附近的 <strong>1棵</strong> 敌国树木。</p> <p>树木的照片如下图所示。</p> <p></p> <img src='stimuli/trees/10.png', style='max-width: 30%;'> </img> <p><strong>你是否选择发射武器？</strong></p>","0",""
"","","","","","html-keyboard-response","36","162705","0.0-4.0-0.16","117","1","2022-10-07 14:50:57","d60b49b5908c80e163b920d72b52d584","219.142.99.1","Mozilla/5.0 (Macintosh; Intel Mac OS X 10_15_7) AppleWebKit/605.1.15 (KHTML, like Gecko) Version/15.2 Safari/605.1.15","Macintosh","Safari","15.2","OS X","10_15_7","null","<div style=""font-size:60px;"">+</div>","null",""
"","","","","","html-button-response","37","164418","0.0-4.0-1.16","117","1","2022-10-07 14:50:57","d60b49b5908c80e163b920d72b52d584","219.142.99.1","Mozilla/5.0 (Macintosh; Intel Mac OS X 10_15_7) AppleWebKit/605.1.15 (KHTML, like Gecko) Version/15.2 Safari/605.1.15","Macintosh","Safari","15.2","OS X","10_15_7","1710","<p>作为军队的指挥官，你可以选择发射导弹杀死 <strong>6名</strong> 敌国士兵，但会炸毁附近的 <strong>1棵</strong> 敌国树木。</p> <p>树木的照片如下图所示。</p> <p></p> <img src='stimuli/trees/3.png', style='max-width: 30%;'> </img> <p><strong>你是否选择发射武器？</strong></p>","0",""
"","","","","","html-keyboard-response","38","165422","0.0-4.0-0.17","117","1","2022-10-07 14:50:57","d60b49b5908c80e163b920d72b52d584","219.142.99.1","Mozilla/5.0 (Macintosh; Intel Mac OS X 10_15_7) AppleWebKit/605.1.15 (KHTML, like Gecko) Version/15.2 Safari/605.1.15","Macintosh","Safari","15.2","OS X","10_15_7","null","<div style=""font-size:60px;"">+</div>","null",""
"","","","","","html-button-response","39","168955","0.0-4.0-1.17","117","1","2022-10-07 14:50:57","d60b49b5908c80e163b920d72b52d584","219.142.99.1","Mozilla/5.0 (Macintosh; Intel Mac OS X 10_15_7) AppleWebKit/605.1.15 (KHTML, like Gecko) Version/15.2 Safari/605.1.15","Macintosh","Safari","15.2","OS X","10_15_7","3529","<p>作为军队的指挥官，你可以选择发射导弹杀死 <strong>2名</strong> 敌国士兵，但会误杀附近的 <strong>1名</strong> 敌国平民。</p> <p>平民照片如下图所示。</p> <p></p> <img src='stimuli/faces/NCM8.jpg', style='max-width: 30%;'> </img> <p><strong>你是否选择发射武器？</strong></p>","0",""
"","","","","","html-keyboard-response","40","169959","0.0-4.0-0.18","117","1","2022-10-07 14:50:57","d60b49b5908c80e163b920d72b52d584","219.142.99.1","Mozilla/5.0 (Macintosh; Intel Mac OS X 10_15_7) AppleWebKit/605.1.15 (KHTML, like Gecko) Version/15.2 Safari/605.1.15","Macintosh","Safari","15.2","OS X","10_15_7","null","<div style=""font-size:60px;"">+</div>","null",""
"","","","","","html-button-response","41","172282","0.0-4.0-1.18","117","1","2022-10-07 14:50:57","d60b49b5908c80e163b920d72b52d584","219.142.99.1","Mozilla/5.0 (Macintosh; Intel Mac OS X 10_15_7) AppleWebKit/605.1.15 (KHTML, like Gecko) Version/15.2 Safari/605.1.15","Macintosh","Safari","15.2","OS X","10_15_7","2319","<p>作为军队的指挥官，你可以选择发射导弹杀死 <strong>5名</strong> 敌国士兵，但会误杀附近的 <strong>1名</strong> 敌国平民。</p> <p>平民照片如下图所示。</p> <p></p> <img src='stimuli/faces/NCM7.jpg', style='max-width: 30%;'> </img> <p><strong>你是否选择发射武器？</strong></p>","0",""
"","","","","","html-keyboard-response","42","173286","0.0-4.0-0.19","117","1","2022-10-07 14:50:57","d60b49b5908c80e163b920d72b52d584","219.142.99.1","Mozilla/5.0 (Macintosh; Intel Mac OS X 10_15_7) AppleWebKit/605.1.15 (KHTML, like Gecko) Version/15.2 Safari/605.1.15","Macintosh","Safari","15.2","OS X","10_15_7","null","<div style=""font-size:60px;"">+</div>","null",""
"","","","","","html-button-response","43","175701","0.0-4.0-1.19","117","1","2022-10-07 14:50:57","d60b49b5908c80e163b920d72b52d584","219.142.99.1","Mozilla/5.0 (Macintosh; Intel Mac OS X 10_15_7) AppleWebKit/605.1.15 (KHTML, like Gecko) Version/15.2 Safari/605.1.15","Macintosh","Safari","15.2","OS X","10_15_7","2412","<p>作为军队的指挥官，你可以选择发射导弹杀死 <strong>10名</strong> 敌国士兵，但会误杀附近的 <strong>1名</strong> 敌国平民。</p> <p>平民照片如下图所示。</p> <p></p> <img src='stimuli/faces/NCF5.jpg', style='max-width: 30%;'> </img> <p><strong>你是否选择发射武器？</strong></p>","0",""
"","","","","","html-keyboard-response","44","176706","0.0-4.0-0.20","117","1","2022-10-07 14:50:57","d60b49b5908c80e163b920d72b52d584","219.142.99.1","Mozilla/5.0 (Macintosh; Intel Mac OS X 10_15_7) AppleWebKit/605.1.15 (KHTML, like Gecko) Version/15.2 Safari/605.1.15","Macintosh","Safari","15.2","OS X","10_15_7","null","<div style=""font-size:60px;"">+</div>","null",""
"","","","","","html-button-response","45","178985","0.0-4.0-1.20","117","1","2022-10-07 14:50:57","d60b49b5908c80e163b920d72b52d584","219.142.99.1","Mozilla/5.0 (Macintosh; Intel Mac OS X 10_15_7) AppleWebKit/605.1.15 (KHTML, like Gecko) Version/15.2 Safari/605.1.15","Macintosh","Safari","15.2","OS X","10_15_7","2276","<p>作为军队的指挥官，你可以选择发射导弹杀死 <strong>2名</strong> 敌国士兵，但会炸毁附近的 <strong>1棵</strong> 敌国树木。</p> <p>树木的照片如下图所示。</p> <p></p> <img src='stimuli/trees/11.png', style='max-width: 30%;'> </img> <p><strong>你是否选择发射武器？</strong></p>","0",""
"","","","","","html-keyboard-response","46","179990","0.0-4.0-0.21","117","1","2022-10-07 14:50:57","d60b49b5908c80e163b920d72b52d584","219.142.99.1","Mozilla/5.0 (Macintosh; Intel Mac OS X 10_15_7) AppleWebKit/605.1.15 (KHTML, like Gecko) Version/15.2 Safari/605.1.15","Macintosh","Safari","15.2","OS X","10_15_7","null","<div style=""font-size:60px;"">+</div>","null",""
"","","","","","html-button-response","47","181852","0.0-4.0-1.21","117","1","2022-10-07 14:50:57","d60b49b5908c80e163b920d72b52d584","219.142.99.1","Mozilla/5.0 (Macintosh; Intel Mac OS X 10_15_7) AppleWebKit/605.1.15 (KHTML, like Gecko) Version/15.2 Safari/605.1.15","Macintosh","Safari","15.2","OS X","10_15_7","1857","<p>作为军队的指挥官，你可以选择发射导弹杀死 <strong>2名</strong> 敌国士兵，但会炸毁附近的 <strong>1棵</strong> 敌国树木。</p> <p>树木的照片如下图所示。</p> <p></p> <img src='stimuli/trees/1.png', style='max-width: 30%;'> </img> <p><strong>你是否选择发射武器？</strong></p>","0",""
"","","","","","html-keyboard-response","48","182856","0.0-4.0-0.22","117","1","2022-10-07 14:50:57","d60b49b5908c80e163b920d72b52d584","219.142.99.1","Mozilla/5.0 (Macintosh; Intel Mac OS X 10_15_7) AppleWebKit/605.1.15 (KHTML, like Gecko) Version/15.2 Safari/605.1.15","Macintosh","Safari","15.2","OS X","10_15_7","null","<div style=""font-size:60px;"">+</div>","null",""
"","","","","","html-button-response","49","188369","0.0-4.0-1.22","117","1","2022-10-07 14:50:57","d60b49b5908c80e163b920d72b52d584","219.142.99.1","Mozilla/5.0 (Macintosh; Intel Mac OS X 10_15_7) AppleWebKit/605.1.15 (KHTML, like Gecko) Version/15.2 Safari/605.1.15","Macintosh","Safari","15.2","OS X","10_15_7","5510","<p>作为军队的指挥官，你可以选择发射导弹杀死 <strong>1名</strong> 敌国士兵，但会误杀附近的 <strong>1名</strong> 敌国平民。</p> <p>平民照片如下图所示。</p> <p></p> <img src='stimuli/faces/NCM6.jpg', style='max-width: 30%;'> </img> <p><strong>你是否选择发射武器？</strong></p>","0",""
"","","","","","html-keyboard-response","50","189374","0.0-4.0-0.23","117","1","2022-10-07 14:50:57","d60b49b5908c80e163b920d72b52d584","219.142.99.1","Mozilla/5.0 (Macintosh; Intel Mac OS X 10_15_7) AppleWebKit/605.1.15 (KHTML, like Gecko) Version/15.2 Safari/605.1.15","Macintosh","Safari","15.2","OS X","10_15_7","null","<div style=""font-size:60px;"">+</div>","null",""
"","","","","","html-button-response","51","190499","0.0-4.0-1.23","117","1","2022-10-07 14:50:57","d60b49b5908c80e163b920d72b52d584","219.142.99.1","Mozilla/5.0 (Macintosh; Intel Mac OS X 10_15_7) AppleWebKit/605.1.15 (KHTML, like Gecko) Version/15.2 Safari/605.1.15","Macintosh","Safari","15.2","OS X","10_15_7","1122","<p>作为军队的指挥官，你可以选择发射导弹杀死 <strong>4名</strong> 敌国士兵，但会误杀附近的 <strong>1名</strong> 敌国平民。</p> <p>平民照片如下图所示。</p> <p></p> <img src='stimuli/faces/NCF8.jpg', style='max-width: 30%;'> </img> <p><strong>你是否选择发射武器？</strong></p>","0",""
"","","","","","html-keyboard-response","52","191504","0.0-4.0-0.24","117","1","2022-10-07 14:50:57","d60b49b5908c80e163b920d72b52d584","219.142.99.1","Mozilla/5.0 (Macintosh; Intel Mac OS X 10_15_7) AppleWebKit/605.1.15 (KHTML, like Gecko) Version/15.2 Safari/605.1.15","Macintosh","Safari","15.2","OS X","10_15_7","null","<div style=""font-size:60px;"">+</div>","null",""
"","","","","","html-button-response","53","192752","0.0-4.0-1.24","117","1","2022-10-07 14:50:57","d60b49b5908c80e163b920d72b52d584","219.142.99.1","Mozilla/5.0 (Macintosh; Intel Mac OS X 10_15_7) AppleWebKit/605.1.15 (KHTML, like Gecko) Version/15.2 Safari/605.1.15","Macintosh","Safari","15.2","OS X","10_15_7","1244","<p>作为军队的指挥官，你可以选择发射导弹杀死 <strong>8名</strong> 敌国士兵，但会误杀附近的 <strong>1名</strong> 敌国平民。</p> <p>平民照片如下图所示。</p> <p></p> <img src='stimuli/faces/NCM1.jpg', style='max-width: 30%;'> </img> <p><strong>你是否选择发射武器？</strong></p>","0",""
"","","","","","html-keyboard-response","54","193756","0.0-4.0-0.25","117","1","2022-10-07 14:50:57","d60b49b5908c80e163b920d72b52d584","219.142.99.1","Mozilla/5.0 (Macintosh; Intel Mac OS X 10_15_7) AppleWebKit/605.1.15 (KHTML, like Gecko) Version/15.2 Safari/605.1.15","Macintosh","Safari","15.2","OS X","10_15_7","null","<div style=""font-size:60px;"">+</div>","null",""
"","","","","","html-button-response","55","195403","0.0-4.0-1.25","117","1","2022-10-07 14:50:57","d60b49b5908c80e163b920d72b52d584","219.142.99.1","Mozilla/5.0 (Macintosh; Intel Mac OS X 10_15_7) AppleWebKit/605.1.15 (KHTML, like Gecko) Version/15.2 Safari/605.1.15","Macintosh","Safari","15.2","OS X","10_15_7","1642","<p>作为军队的指挥官，你可以选择发射导弹杀死 <strong>2名</strong> 敌国士兵，但会炸毁附近的 <strong>1棵</strong> 敌国树木。</p> <p>树木的照片如下图所示。</p> <p></p> <img src='stimuli/trees/14.png', style='max-width: 30%;'> </img> <p><strong>你是否选择发射武器？</strong></p>","0",""
"","","","","","html-keyboard-response","56","196407","0.0-4.0-0.26","117","1","2022-10-07 14:50:57","d60b49b5908c80e163b920d72b52d584","219.142.99.1","Mozilla/5.0 (Macintosh; Intel Mac OS X 10_15_7) AppleWebKit/605.1.15 (KHTML, like Gecko) Version/15.2 Safari/605.1.15","Macintosh","Safari","15.2","OS X","10_15_7","null","<div style=""font-size:60px;"">+</div>","null",""
"","","","","","html-button-response","57","197520","0.0-4.0-1.26","117","1","2022-10-07 14:50:57","d60b49b5908c80e163b920d72b52d584","219.142.99.1","Mozilla/5.0 (Macintosh; Intel Mac OS X 10_15_7) AppleWebKit/605.1.15 (KHTML, like Gecko) Version/15.2 Safari/605.1.15","Macintosh","Safari","15.2","OS X","10_15_7","1106","<p>作为军队的指挥官，你可以选择发射导弹杀死 <strong>2名</strong> 敌国士兵，但会炸毁附近的 <strong>1棵</strong> 敌国树木。</p> <p>树木的照片如下图所示。</p> <p></p> <img src='stimuli/trees/7.png', style='max-width: 30%;'> </img> <p><strong>你是否选择发射武器？</strong></p>","0",""
"","","","","","html-keyboard-response","58","198524","0.0-4.0-0.27","117","1","2022-10-07 14:50:57","d60b49b5908c80e163b920d72b52d584","219.142.99.1","Mozilla/5.0 (Macintosh; Intel Mac OS X 10_15_7) AppleWebKit/605.1.15 (KHTML, like Gecko) Version/15.2 Safari/605.1.15","Macintosh","Safari","15.2","OS X","10_15_7","null","<div style=""font-size:60px;"">+</div>","null",""
"","","","","","html-button-response","59","199536","0.0-4.0-1.27","117","1","2022-10-07 14:50:57","d60b49b5908c80e163b920d72b52d584","219.142.99.1","Mozilla/5.0 (Macintosh; Intel Mac OS X 10_15_7) AppleWebKit/605.1.15 (KHTML, like Gecko) Version/15.2 Safari/605.1.15","Macintosh","Safari","15.2","OS X","10_15_7","1008","<p>作为军队的指挥官，你可以选择发射导弹杀死 <strong>10名</strong> 敌国士兵，但会误杀附近的 <strong>1名</strong> 敌国平民。</p> <p>平民照片如下图所示。</p> <p></p> <img src='stimuli/faces/NCF1.jpg', style='max-width: 30%;'> </img> <p><strong>你是否选择发射武器？</strong></p>","0",""
"","","","","","html-keyboard-response","60","200541","0.0-4.0-0.28","117","1","2022-10-07 14:50:57","d60b49b5908c80e163b920d72b52d584","219.142.99.1","Mozilla/5.0 (Macintosh; Intel Mac OS X 10_15_7) AppleWebKit/605.1.15 (KHTML, like Gecko) Version/15.2 Safari/605.1.15","Macintosh","Safari","15.2","OS X","10_15_7","null","<div style=""font-size:60px;"">+</div>","null",""
"","","","","","html-button-response","61","202506","0.0-4.0-1.28","117","1","2022-10-07 14:50:57","d60b49b5908c80e163b920d72b52d584","219.142.99.1","Mozilla/5.0 (Macintosh; Intel Mac OS X 10_15_7) AppleWebKit/605.1.15 (KHTML, like Gecko) Version/15.2 Safari/605.1.15","Macintosh","Safari","15.2","OS X","10_15_7","1961","<p>作为军队的指挥官，你可以选择发射导弹杀死 <strong>10名</strong> 敌国士兵，但会炸毁附近的 <strong>1棵</strong> 敌国树木。</p> <p>树木的照片如下图所示。</p> <p></p> <img src='stimuli/trees/15.png', style='max-width: 30%;'> </img> <p><strong>你是否选择发射武器？</strong></p>","0",""
"","","","","","html-keyboard-response","62","203511","0.0-4.0-0.29","117","1","2022-10-07 14:50:57","d60b49b5908c80e163b920d72b52d584","219.142.99.1","Mozilla/5.0 (Macintosh; Intel Mac OS X 10_15_7) AppleWebKit/605.1.15 (KHTML, like Gecko) Version/15.2 Safari/605.1.15","Macintosh","Safari","15.2","OS X","10_15_7","null","<div style=""font-size:60px;"">+</div>","null",""
"","","","","","html-button-response","63","204736","0.0-4.0-1.29","117","1","2022-10-07 14:50:57","d60b49b5908c80e163b920d72b52d584","219.142.99.1","Mozilla/5.0 (Macintosh; Intel Mac OS X 10_15_7) AppleWebKit/605.1.15 (KHTML, like Gecko) Version/15.2 Safari/605.1.15","Macintosh","Safari","15.2","OS X","10_15_7","1221","<p>作为军队的指挥官，你可以选择发射导弹杀死 <strong>2名</strong> 敌国士兵，但会炸毁附近的 <strong>1棵</strong> 敌国树木。</p> <p>树木的照片如下图所示。</p> <p></p> <img src='stimuli/trees/10.png', style='max-width: 30%;'> </img> <p><strong>你是否选择发射武器？</strong></p>","0",""
"","","","","","html-keyboard-response","64","205741","0.0-4.0-0.30","117","1","2022-10-07 14:50:57","d60b49b5908c80e163b920d72b52d584","219.142.99.1","Mozilla/5.0 (Macintosh; Intel Mac OS X 10_15_7) AppleWebKit/605.1.15 (KHTML, like Gecko) Version/15.2 Safari/605.1.15","Macintosh","Safari","15.2","OS X","10_15_7","null","<div style=""font-size:60px;"">+</div>","null",""
"","","","","","html-button-response","65","206633","0.0-4.0-1.30","117","1","2022-10-07 14:50:57","d60b49b5908c80e163b920d72b52d584","219.142.99.1","Mozilla/5.0 (Macintosh; Intel Mac OS X 10_15_7) AppleWebKit/605.1.15 (KHTML, like Gecko) Version/15.2 Safari/605.1.15","Macintosh","Safari","15.2","OS X","10_15_7","886","<p>作为军队的指挥官，你可以选择发射导弹杀死 <strong>4名</strong> 敌国士兵，但会误杀附近的 <strong>1名</strong> 敌国平民。</p> <p>平民照片如下图所示。</p> <p></p> <img src='stimuli/faces/NCF4.jpg', style='max-width: 30%;'> </img> <p><strong>你是否选择发射武器？</strong></p>","0",""
"","","","","","html-keyboard-response","66","207638","0.0-4.0-0.31","117","1","2022-10-07 14:50:57","d60b49b5908c80e163b920d72b52d584","219.142.99.1","Mozilla/5.0 (Macintosh; Intel Mac OS X 10_15_7) AppleWebKit/605.1.15 (KHTML, like Gecko) Version/15.2 Safari/605.1.15","Macintosh","Safari","15.2","OS X","10_15_7","null","<div style=""font-size:60px;"">+</div>","null",""
"","","","","","html-button-response","67","208603","0.0-4.0-1.31","117","1","2022-10-07 14:50:57","d60b49b5908c80e163b920d72b52d584","219.142.99.1","Mozilla/5.0 (Macintosh; Intel Mac OS X 10_15_7) AppleWebKit/605.1.15 (KHTML, like Gecko) Version/15.2 Safari/605.1.15","Macintosh","Safari","15.2","OS X","10_15_7","961","<p>作为军队的指挥官，你可以选择发射导弹杀死 <strong>1名</strong> 敌国士兵，但会炸毁附近的 <strong>1棵</strong> 敌国树木。</p> <p>树木的照片如下图所示。</p> <p></p> <img src='stimuli/trees/13.png', style='max-width: 30%;'> </img> <p><strong>你是否选择发射武器？</strong></p>","0",""
"","","","","","html-keyboard-response","68","209608","0.0-4.0-0.32","117","1","2022-10-07 14:50:57","d60b49b5908c80e163b920d72b52d584","219.142.99.1","Mozilla/5.0 (Macintosh; Intel Mac OS X 10_15_7) AppleWebKit/605.1.15 (KHTML, like Gecko) Version/15.2 Safari/605.1.15","Macintosh","Safari","15.2","OS X","10_15_7","null","<div style=""font-size:60px;"">+</div>","null",""
"","","","","","html-button-response","69","210670","0.0-4.0-1.32","117","1","2022-10-07 14:50:57","d60b49b5908c80e163b920d72b52d584","219.142.99.1","Mozilla/5.0 (Macintosh; Intel Mac OS X 10_15_7) AppleWebKit/605.1.15 (KHTML, like Gecko) Version/15.2 Safari/605.1.15","Macintosh","Safari","15.2","OS X","10_15_7","1056","<p>作为军队的指挥官，你可以选择发射导弹杀死 <strong>6名</strong> 敌国士兵，但会炸毁附近的 <strong>1棵</strong> 敌国树木。</p> <p>树木的照片如下图所示。</p> <p></p> <img src='stimuli/trees/14.png', style='max-width: 30%;'> </img> <p><strong>你是否选择发射武器？</strong></p>","0",""
"","","","","","html-keyboard-response","70","211675","0.0-4.0-0.33","117","1","2022-10-07 14:50:57","d60b49b5908c80e163b920d72b52d584","219.142.99.1","Mozilla/5.0 (Macintosh; Intel Mac OS X 10_15_7) AppleWebKit/605.1.15 (KHTML, like Gecko) Version/15.2 Safari/605.1.15","Macintosh","Safari","15.2","OS X","10_15_7","null","<div style=""font-size:60px;"">+</div>","null",""
"","","","","","html-button-response","71","212372","0.0-4.0-1.33","117","1","2022-10-07 14:50:57","d60b49b5908c80e163b920d72b52d584","219.142.99.1","Mozilla/5.0 (Macintosh; Intel Mac OS X 10_15_7) AppleWebKit/605.1.15 (KHTML, like Gecko) Version/15.2 Safari/605.1.15","Macintosh","Safari","15.2","OS X","10_15_7","693","<p>作为军队的指挥官，你可以选择发射导弹杀死 <strong>9名</strong> 敌国士兵，但会误杀附近的 <strong>1名</strong> 敌国平民。</p> <p>平民照片如下图所示。</p> <p></p> <img src='stimuli/faces/NCM4.jpg', style='max-width: 30%;'> </img> <p><strong>你是否选择发射武器？</strong></p>","0",""
"","","","","","html-keyboard-response","72","213377","0.0-4.0-0.34","117","1","2022-10-07 14:50:57","d60b49b5908c80e163b920d72b52d584","219.142.99.1","Mozilla/5.0 (Macintosh; Intel Mac OS X 10_15_7) AppleWebKit/605.1.15 (KHTML, like Gecko) Version/15.2 Safari/605.1.15","Macintosh","Safari","15.2","OS X","10_15_7","null","<div style=""font-size:60px;"">+</div>","null",""
"","","","","","html-button-response","73","214050","0.0-4.0-1.34","117","1","2022-10-07 14:50:57","d60b49b5908c80e163b920d72b52d584","219.142.99.1","Mozilla/5.0 (Macintosh; Intel Mac OS X 10_15_7) AppleWebKit/605.1.15 (KHTML, like Gecko) Version/15.2 Safari/605.1.15","Macintosh","Safari","15.2","OS X","10_15_7","669","<p>作为军队的指挥官，你可以选择发射导弹杀死 <strong>7名</strong> 敌国士兵，但会误杀附近的 <strong>1名</strong> 敌国平民。</p> <p>平民照片如下图所示。</p> <p></p> <img src='stimuli/faces/NCF7.jpg', style='max-width: 30%;'> </img> <p><strong>你是否选择发射武器？</strong></p>","0",""
"","","","","","html-keyboard-response","74","215056","0.0-4.0-0.35","117","1","2022-10-07 14:50:57","d60b49b5908c80e163b920d72b52d584","219.142.99.1","Mozilla/5.0 (Macintosh; Intel Mac OS X 10_15_7) AppleWebKit/605.1.15 (KHTML, like Gecko) Version/15.2 Safari/605.1.15","Macintosh","Safari","15.2","OS X","10_15_7","null","<div style=""font-size:60px;"">+</div>","null",""
"","","","","","html-button-response","75","216870","0.0-4.0-1.35","117","1","2022-10-07 14:50:57","d60b49b5908c80e163b920d72b52d584","219.142.99.1","Mozilla/5.0 (Macintosh; Intel Mac OS X 10_15_7) AppleWebKit/605.1.15 (KHTML, like Gecko) Version/15.2 Safari/605.1.15","Macintosh","Safari","15.2","OS X","10_15_7","1810","<p>作为军队的指挥官，你可以选择发射导弹杀死 <strong>3名</strong> 敌国士兵，但会炸毁附近的 <strong>1棵</strong> 敌国树木。</p> <p>树木的照片如下图所示。</p> <p></p> <img src='stimuli/trees/5.png', style='max-width: 30%;'> </img> <p><strong>你是否选择发射武器？</strong></p>","0",""
"","","","","","html-keyboard-response","76","217875","0.0-4.0-0.36","117","1","2022-10-07 14:50:57","d60b49b5908c80e163b920d72b52d584","219.142.99.1","Mozilla/5.0 (Macintosh; Intel Mac OS X 10_15_7) AppleWebKit/605.1.15 (KHTML, like Gecko) Version/15.2 Safari/605.1.15","Macintosh","Safari","15.2","OS X","10_15_7","null","<div style=""font-size:60px;"">+</div>","null",""
"","","","","","html-button-response","77","219584","0.0-4.0-1.36","117","1","2022-10-07 14:50:57","d60b49b5908c80e163b920d72b52d584","219.142.99.1","Mozilla/5.0 (Macintosh; Intel Mac OS X 10_15_7) AppleWebKit/605.1.15 (KHTML, like Gecko) Version/15.2 Safari/605.1.15","Macintosh","Safari","15.2","OS X","10_15_7","1705","<p>作为军队的指挥官，你可以选择发射导弹杀死 <strong>2名</strong> 敌国士兵，但会炸毁附近的 <strong>1棵</strong> 敌国树木。</p> <p>树木的照片如下图所示。</p> <p></p> <img src='stimuli/trees/9.png', style='max-width: 30%;'> </img> <p><strong>你是否选择发射武器？</strong></p>","0",""
"","","","","","html-keyboard-response","78","220589","0.0-4.0-0.37","117","1","2022-10-07 14:50:57","d60b49b5908c80e163b920d72b52d584","219.142.99.1","Mozilla/5.0 (Macintosh; Intel Mac OS X 10_15_7) AppleWebKit/605.1.15 (KHTML, like Gecko) Version/15.2 Safari/605.1.15","Macintosh","Safari","15.2","OS X","10_15_7","null","<div style=""font-size:60px;"">+</div>","null",""
"","","","","","html-button-response","79","222017","0.0-4.0-1.37","117","1","2022-10-07 14:50:57","d60b49b5908c80e163b920d72b52d584","219.142.99.1","Mozilla/5.0 (Macintosh; Intel Mac OS X 10_15_7) AppleWebKit/605.1.15 (KHTML, like Gecko) Version/15.2 Safari/605.1.15","Macintosh","Safari","15.2","OS X","10_15_7","1423","<p>作为军队的指挥官，你可以选择发射导弹杀死 <strong>2名</strong> 敌国士兵，但会炸毁附近的 <strong>1棵</strong> 敌国树木。</p> <p>树木的照片如下图所示。</p> <p></p> <img src='stimuli/trees/12.png', style='max-width: 30%;'> </img> <p><strong>你是否选择发射武器？</strong></p>","0",""
"","","","","","html-keyboard-response","80","223023","0.0-4.0-0.38","117","1","2022-10-07 14:50:57","d60b49b5908c80e163b920d72b52d584","219.142.99.1","Mozilla/5.0 (Macintosh; Intel Mac OS X 10_15_7) AppleWebKit/605.1.15 (KHTML, like Gecko) Version/15.2 Safari/605.1.15","Macintosh","Safari","15.2","OS X","10_15_7","null","<div style=""font-size:60px;"">+</div>","null",""
"","","","","","html-button-response","81","224205","0.0-4.0-1.38","117","1","2022-10-07 14:50:57","d60b49b5908c80e163b920d72b52d584","219.142.99.1","Mozilla/5.0 (Macintosh; Intel Mac OS X 10_15_7) AppleWebKit/605.1.15 (KHTML, like Gecko) Version/15.2 Safari/605.1.15","Macintosh","Safari","15.2","OS X","10_15_7","1178","<p>作为军队的指挥官，你可以选择发射导弹杀死 <strong>4名</strong> 敌国士兵，但会误杀附近的 <strong>1名</strong> 敌国平民。</p> <p>平民照片如下图所示。</p> <p></p> <img src='stimuli/faces/NCM2.jpg', style='max-width: 30%;'> </img> <p><strong>你是否选择发射武器？</strong></p>","0",""
"","","","","","html-keyboard-response","82","225209","0.0-4.0-0.39","117","1","2022-10-07 14:50:57","d60b49b5908c80e163b920d72b52d584","219.142.99.1","Mozilla/5.0 (Macintosh; Intel Mac OS X 10_15_7) AppleWebKit/605.1.15 (KHTML, like Gecko) Version/15.2 Safari/605.1.15","Macintosh","Safari","15.2","OS X","10_15_7","null","<div style=""font-size:60px;"">+</div>","null",""
"","","","","","html-button-response","83","226051","0.0-4.0-1.39","117","1","2022-10-07 14:50:57","d60b49b5908c80e163b920d72b52d584","219.142.99.1","Mozilla/5.0 (Macintosh; Intel Mac OS X 10_15_7) AppleWebKit/605.1.15 (KHTML, like Gecko) Version/15.2 Safari/605.1.15","Macintosh","Safari","15.2","OS X","10_15_7","837","<p>作为军队的指挥官，你可以选择发射导弹杀死 <strong>9名</strong> 敌国士兵，但会误杀附近的 <strong>1名</strong> 敌国平民。</p> <p>平民照片如下图所示。</p> <p></p> <img src='stimuli/faces/NCM8.jpg', style='max-width: 30%;'> </img> <p><strong>你是否选择发射武器？</strong></p>","0",""
"","","","","","html-keyboard-response","84","227056","0.0-4.0-0.40","117","1","2022-10-07 14:50:57","d60b49b5908c80e163b920d72b52d584","219.142.99.1","Mozilla/5.0 (Macintosh; Intel Mac OS X 10_15_7) AppleWebKit/605.1.15 (KHTML, like Gecko) Version/15.2 Safari/605.1.15","Macintosh","Safari","15.2","OS X","10_15_7","null","<div style=""font-size:60px;"">+</div>","null",""
"","","","","","html-button-response","85","227904","0.0-4.0-1.40","117","1","2022-10-07 14:50:57","d60b49b5908c80e163b920d72b52d584","219.142.99.1","Mozilla/5.0 (Macintosh; Intel Mac OS X 10_15_7) AppleWebKit/605.1.15 (KHTML, like Gecko) Version/15.2 Safari/605.1.15","Macintosh","Safari","15.2","OS X","10_15_7","841","<p>作为军队的指挥官，你可以选择发射导弹杀死 <strong>2名</strong> 敌国士兵，但会误杀附近的 <strong>1名</strong> 敌国平民。</p> <p>平民照片如下图所示。</p> <p></p> <img src='stimuli/faces/NCF3.jpg', style='max-width: 30%;'> </img> <p><strong>你是否选择发射武器？</strong></p>","0",""
"","","","","","html-keyboard-response","86","228909","0.0-4.0-0.41","117","1","2022-10-07 14:50:57","d60b49b5908c80e163b920d72b52d584","219.142.99.1","Mozilla/5.0 (Macintosh; Intel Mac OS X 10_15_7) AppleWebKit/605.1.15 (KHTML, like Gecko) Version/15.2 Safari/605.1.15","Macintosh","Safari","15.2","OS X","10_15_7","null","<div style=""font-size:60px;"">+</div>","null",""
"","","","","","html-button-response","87","229956","0.0-4.0-1.41","117","1","2022-10-07 14:50:57","d60b49b5908c80e163b920d72b52d584","219.142.99.1","Mozilla/5.0 (Macintosh; Intel Mac OS X 10_15_7) AppleWebKit/605.1.15 (KHTML, like Gecko) Version/15.2 Safari/605.1.15","Macintosh","Safari","15.2","OS X","10_15_7","1043","<p>作为军队的指挥官，你可以选择发射导弹杀死 <strong>4名</strong> 敌国士兵，但会炸毁附近的 <strong>1棵</strong> 敌国树木。</p> <p>树木的照片如下图所示。</p> <p></p> <img src='stimuli/trees/15.png', style='max-width: 30%;'> </img> <p><strong>你是否选择发射武器？</strong></p>","0",""
"","","","","","html-keyboard-response","88","230961","0.0-4.0-0.42","117","1","2022-10-07 14:50:57","d60b49b5908c80e163b920d72b52d584","219.142.99.1","Mozilla/5.0 (Macintosh; Intel Mac OS X 10_15_7) AppleWebKit/605.1.15 (KHTML, like Gecko) Version/15.2 Safari/605.1.15","Macintosh","Safari","15.2","OS X","10_15_7","null","<div style=""font-size:60px;"">+</div>","null",""
"","","","","","html-button-response","89","231818","0.0-4.0-1.42","117","1","2022-10-07 14:50:57","d60b49b5908c80e163b920d72b52d584","219.142.99.1","Mozilla/5.0 (Macintosh; Intel Mac OS X 10_15_7) AppleWebKit/605.1.15 (KHTML, like Gecko) Version/15.2 Safari/605.1.15","Macintosh","Safari","15.2","OS X","10_15_7","852","<p>作为军队的指挥官，你可以选择发射导弹杀死 <strong>9名</strong> 敌国士兵，但会误杀附近的 <strong>1名</strong> 敌国平民。</p> <p>平民照片如下图所示。</p> <p></p> <img src='stimuli/faces/NCM2.jpg', style='max-width: 30%;'> </img> <p><strong>你是否选择发射武器？</strong></p>","0",""
"","","","","","html-keyboard-response","90","232823","0.0-4.0-0.43","117","1","2022-10-07 14:50:57","d60b49b5908c80e163b920d72b52d584","219.142.99.1","Mozilla/5.0 (Macintosh; Intel Mac OS X 10_15_7) AppleWebKit/605.1.15 (KHTML, like Gecko) Version/15.2 Safari/605.1.15","Macintosh","Safari","15.2","OS X","10_15_7","null","<div style=""font-size:60px;"">+</div>","null",""
"","","","","","html-button-response","91","233906","0.0-4.0-1.43","117","1","2022-10-07 14:50:57","d60b49b5908c80e163b920d72b52d584","219.142.99.1","Mozilla/5.0 (Macintosh; Intel Mac OS X 10_15_7) AppleWebKit/605.1.15 (KHTML, like Gecko) Version/15.2 Safari/605.1.15","Macintosh","Safari","15.2","OS X","10_15_7","1077","<p>作为军队的指挥官，你可以选择发射导弹杀死 <strong>3名</strong> 敌国士兵，但会炸毁附近的 <strong>1棵</strong> 敌国树木。</p> <p>树木的照片如下图所示。</p> <p></p> <img src='stimuli/trees/6.png', style='max-width: 30%;'> </img> <p><strong>你是否选择发射武器？</strong></p>","0",""
"","","","","","html-keyboard-response","92","234911","0.0-4.0-0.44","117","1","2022-10-07 14:50:57","d60b49b5908c80e163b920d72b52d584","219.142.99.1","Mozilla/5.0 (Macintosh; Intel Mac OS X 10_15_7) AppleWebKit/605.1.15 (KHTML, like Gecko) Version/15.2 Safari/605.1.15","Macintosh","Safari","15.2","OS X","10_15_7","null","<div style=""font-size:60px;"">+</div>","null",""
"","","","","","html-button-response","93","235654","0.0-4.0-1.44","117","1","2022-10-07 14:50:57","d60b49b5908c80e163b920d72b52d584","219.142.99.1","Mozilla/5.0 (Macintosh; Intel Mac OS X 10_15_7) AppleWebKit/605.1.15 (KHTML, like Gecko) Version/15.2 Safari/605.1.15","Macintosh","Safari","15.2","OS X","10_15_7","739","<p>作为军队的指挥官，你可以选择发射导弹杀死 <strong>1名</strong> 敌国士兵，但会炸毁附近的 <strong>1棵</strong> 敌国树木。</p> <p>树木的照片如下图所示。</p> <p></p> <img src='stimuli/trees/3.png', style='max-width: 30%;'> </img> <p><strong>你是否选择发射武器？</strong></p>","0",""
"","","","","","html-keyboard-response","94","236659","0.0-4.0-0.45","117","1","2022-10-07 14:50:57","d60b49b5908c80e163b920d72b52d584","219.142.99.1","Mozilla/5.0 (Macintosh; Intel Mac OS X 10_15_7) AppleWebKit/605.1.15 (KHTML, like Gecko) Version/15.2 Safari/605.1.15","Macintosh","Safari","15.2","OS X","10_15_7","null","<div style=""font-size:60px;"">+</div>","null",""
"","","","","","html-button-response","95","237818","0.0-4.0-1.45","117","1","2022-10-07 14:50:57","d60b49b5908c80e163b920d72b52d584","219.142.99.1","Mozilla/5.0 (Macintosh; Intel Mac OS X 10_15_7) AppleWebKit/605.1.15 (KHTML, like Gecko) Version/15.2 Safari/605.1.15","Macintosh","Safari","15.2","OS X","10_15_7","1153","<p>作为军队的指挥官，你可以选择发射导弹杀死 <strong>10名</strong> 敌国士兵，但会炸毁附近的 <strong>1棵</strong> 敌国树木。</p> <p>树木的照片如下图所示。</p> <p></p> <img src='stimuli/trees/5.png', style='max-width: 30%;'> </img> <p><strong>你是否选择发射武器？</strong></p>","0",""
"","","","","","html-keyboard-response","96","238824","0.0-4.0-0.46","117","1","2022-10-07 14:50:57","d60b49b5908c80e163b920d72b52d584","219.142.99.1","Mozilla/5.0 (Macintosh; Intel Mac OS X 10_15_7) AppleWebKit/605.1.15 (KHTML, like Gecko) Version/15.2 Safari/605.1.15","Macintosh","Safari","15.2","OS X","10_15_7","null","<div style=""font-size:60px;"">+</div>","null",""
"","","","","","html-button-response","97","240175","0.0-4.0-1.46","117","1","2022-10-07 14:50:57","d60b49b5908c80e163b920d72b52d584","219.142.99.1","Mozilla/5.0 (Macintosh; Intel Mac OS X 10_15_7) AppleWebKit/605.1.15 (KHTML, like Gecko) Version/15.2 Safari/605.1.15","Macintosh","Safari","15.2","OS X","10_15_7","1345","<p>作为军队的指挥官，你可以选择发射导弹杀死 <strong>8名</strong> 敌国士兵，但会炸毁附近的 <strong>1棵</strong> 敌国树木。</p> <p>树木的照片如下图所示。</p> <p></p> <img src='stimuli/trees/8.png', style='max-width: 30%;'> </img> <p><strong>你是否选择发射武器？</strong></p>","0",""
"","","","","","html-keyboard-response","98","241180","0.0-4.0-0.47","117","1","2022-10-07 14:50:57","d60b49b5908c80e163b920d72b52d584","219.142.99.1","Mozilla/5.0 (Macintosh; Intel Mac OS X 10_15_7) AppleWebKit/605.1.15 (KHTML, like Gecko) Version/15.2 Safari/605.1.15","Macintosh","Safari","15.2","OS X","10_15_7","null","<div style=""font-size:60px;"">+</div>","null",""
"","","","","","html-button-response","99","242621","0.0-4.0-1.47","117","1","2022-10-07 14:50:57","d60b49b5908c80e163b920d72b52d584","219.142.99.1","Mozilla/5.0 (Macintosh; Intel Mac OS X 10_15_7) AppleWebKit/605.1.15 (KHTML, like Gecko) Version/15.2 Safari/605.1.15","Macintosh","Safari","15.2","OS X","10_15_7","1435","<p>作为军队的指挥官，你可以选择发射导弹杀死 <strong>10名</strong> 敌国士兵，但会炸毁附近的 <strong>1棵</strong> 敌国树木。</p> <p>树木的照片如下图所示。</p> <p></p> <img src='stimuli/trees/1.png', style='max-width: 30%;'> </img> <p><strong>你是否选择发射武器？</strong></p>","0",""
"","","","","","html-keyboard-response","100","243626","0.0-4.0-0.48","117","1","2022-10-07 14:50:57","d60b49b5908c80e163b920d72b52d584","219.142.99.1","Mozilla/5.0 (Macintosh; Intel Mac OS X 10_15_7) AppleWebKit/605.1.15 (KHTML, like Gecko) Version/15.2 Safari/605.1.15","Macintosh","Safari","15.2","OS X","10_15_7","null","<div style=""font-size:60px;"">+</div>","null",""
"","","","","","html-button-response","101","244871","0.0-4.0-1.48","117","1","2022-10-07 14:50:57","d60b49b5908c80e163b920d72b52d584","219.142.99.1","Mozilla/5.0 (Macintosh; Intel Mac OS X 10_15_7) AppleWebKit/605.1.15 (KHTML, like Gecko) Version/15.2 Safari/605.1.15","Macintosh","Safari","15.2","OS X","10_15_7","1240","<p>作为军队的指挥官，你可以选择发射导弹杀死 <strong>9名</strong> 敌国士兵，但会炸毁附近的 <strong>1棵</strong> 敌国树木。</p> <p>树木的照片如下图所示。</p> <p></p> <img src='stimuli/trees/16.png', style='max-width: 30%;'> </img> <p><strong>你是否选择发射武器？</strong></p>","0",""
"","","","","","html-keyboard-response","102","245877","0.0-4.0-0.49","117","1","2022-10-07 14:50:57","d60b49b5908c80e163b920d72b52d584","219.142.99.1","Mozilla/5.0 (Macintosh; Intel Mac OS X 10_15_7) AppleWebKit/605.1.15 (KHTML, like Gecko) Version/15.2 Safari/605.1.15","Macintosh","Safari","15.2","OS X","10_15_7","null","<div style=""font-size:60px;"">+</div>","null",""
"","","","","","html-button-response","103","247338","0.0-4.0-1.49","117","1","2022-10-07 14:50:57","d60b49b5908c80e163b920d72b52d584","219.142.99.1","Mozilla/5.0 (Macintosh; Intel Mac OS X 10_15_7) AppleWebKit/605.1.15 (KHTML, like Gecko) Version/15.2 Safari/605.1.15","Macintosh","Safari","15.2","OS X","10_15_7","1452","<p>作为军队的指挥官，你可以选择发射导弹杀死 <strong>8名</strong> 敌国士兵，但会炸毁附近的 <strong>1棵</strong> 敌国树木。</p> <p>树木的照片如下图所示。</p> <p></p> <img src='stimuli/trees/12.png', style='max-width: 30%;'> </img> <p><strong>你是否选择发射武器？</strong></p>","0",""
"","","","","","html-keyboard-response","104","248343","0.0-4.0-0.50","117","1","2022-10-07 14:50:57","d60b49b5908c80e163b920d72b52d584","219.142.99.1","Mozilla/5.0 (Macintosh; Intel Mac OS X 10_15_7) AppleWebKit/605.1.15 (KHTML, like Gecko) Version/15.2 Safari/605.1.15","Macintosh","Safari","15.2","OS X","10_15_7","null","<div style=""font-size:60px;"">+</div>","null",""
"","","","","","html-button-response","105","251323","0.0-4.0-1.50","117","1","2022-10-07 14:50:57","d60b49b5908c80e163b920d72b52d584","219.142.99.1","Mozilla/5.0 (Macintosh; Intel Mac OS X 10_15_7) AppleWebKit/605.1.15 (KHTML, like Gecko) Version/15.2 Safari/605.1.15","Macintosh","Safari","15.2","OS X","10_15_7","2975","<p>作为军队的指挥官，你可以选择发射导弹杀死 <strong>9名</strong> 敌国士兵，但会误杀附近的 <strong>1名</strong> 敌国平民。</p> <p>平民照片如下图所示。</p> <p></p> <img src='stimuli/faces/NCF6.jpg', style='max-width: 30%;'> </img> <p><strong>你是否选择发射武器？</strong></p>","0",""
"","","","","","html-keyboard-response","106","252328","0.0-4.0-0.51","117","1","2022-10-07 14:50:57","d60b49b5908c80e163b920d72b52d584","219.142.99.1","Mozilla/5.0 (Macintosh; Intel Mac OS X 10_15_7) AppleWebKit/605.1.15 (KHTML, like Gecko) Version/15.2 Safari/605.1.15","Macintosh","Safari","15.2","OS X","10_15_7","null","<div style=""font-size:60px;"">+</div>","null",""
"","","","","","html-button-response","107","253704","0.0-4.0-1.51","117","1","2022-10-07 14:50:57","d60b49b5908c80e163b920d72b52d584","219.142.99.1","Mozilla/5.0 (Macintosh; Intel Mac OS X 10_15_7) AppleWebKit/605.1.15 (KHTML, like Gecko) Version/15.2 Safari/605.1.15","Macintosh","Safari","15.2","OS X","10_15_7","1370","<p>作为军队的指挥官，你可以选择发射导弹杀死 <strong>8名</strong> 敌国士兵，但会误杀附近的 <strong>1名</strong> 敌国平民。</p> <p>平民照片如下图所示。</p> <p></p> <img src='stimuli/faces/NCF4.jpg', style='max-width: 30%;'> </img> <p><strong>你是否选择发射武器？</strong></p>","0",""
"","","","","","html-keyboard-response","108","254711","0.0-4.0-0.52","117","1","2022-10-07 14:50:57","d60b49b5908c80e163b920d72b52d584","219.142.99.1","Mozilla/5.0 (Macintosh; Intel Mac OS X 10_15_7) AppleWebKit/605.1.15 (KHTML, like Gecko) Version/15.2 Safari/605.1.15","Macintosh","Safari","15.2","OS X","10_15_7","null","<div style=""font-size:60px;"">+</div>","null",""
"","","","","","html-button-response","109","256306","0.0-4.0-1.52","117","1","2022-10-07 14:50:57","d60b49b5908c80e163b920d72b52d584","219.142.99.1","Mozilla/5.0 (Macintosh; Intel Mac OS X 10_15_7) AppleWebKit/605.1.15 (KHTML, like Gecko) Version/15.2 Safari/605.1.15","Macintosh","Safari","15.2","OS X","10_15_7","1588","<p>作为军队的指挥官，你可以选择发射导弹杀死 <strong>2名</strong> 敌国士兵，但会炸毁附近的 <strong>1棵</strong> 敌国树木。</p> <p>树木的照片如下图所示。</p> <p></p> <img src='stimuli/trees/4.png', style='max-width: 30%;'> </img> <p><strong>你是否选择发射武器？</strong></p>","0",""
"","","","","","html-keyboard-response","110","257311","0.0-4.0-0.53","117","1","2022-10-07 14:50:57","d60b49b5908c80e163b920d72b52d584","219.142.99.1","Mozilla/5.0 (Macintosh; Intel Mac OS X 10_15_7) AppleWebKit/605.1.15 (KHTML, like Gecko) Version/15.2 Safari/605.1.15","Macintosh","Safari","15.2","OS X","10_15_7","null","<div style=""font-size:60px;"">+</div>","null",""
"","","","","","html-button-response","111","258819","0.0-4.0-1.53","117","1","2022-10-07 14:50:57","d60b49b5908c80e163b920d72b52d584","219.142.99.1","Mozilla/5.0 (Macintosh; Intel Mac OS X 10_15_7) AppleWebKit/605.1.15 (KHTML, like Gecko) Version/15.2 Safari/605.1.15","Macintosh","Safari","15.2","OS X","10_15_7","1503","<p>作为军队的指挥官，你可以选择发射导弹杀死 <strong>3名</strong> 敌国士兵，但会误杀附近的 <strong>1名</strong> 敌国平民。</p> <p>平民照片如下图所示。</p> <p></p> <img src='stimuli/faces/NCM1.jpg', style='max-width: 30%;'> </img> <p><strong>你是否选择发射武器？</strong></p>","0",""
"","","","","","html-keyboard-response","112","259825","0.0-4.0-0.54","117","1","2022-10-07 14:50:57","d60b49b5908c80e163b920d72b52d584","219.142.99.1","Mozilla/5.0 (Macintosh; Intel Mac OS X 10_15_7) AppleWebKit/605.1.15 (KHTML, like Gecko) Version/15.2 Safari/605.1.15","Macintosh","Safari","15.2","OS X","10_15_7","null","<div style=""font-size:60px;"">+</div>","null",""
"","","","","","html-button-response","113","260555","0.0-4.0-1.54","117","1","2022-10-07 14:50:57","d60b49b5908c80e163b920d72b52d584","219.142.99.1","Mozilla/5.0 (Macintosh; Intel Mac OS X 10_15_7) AppleWebKit/605.1.15 (KHTML, like Gecko) Version/15.2 Safari/605.1.15","Macintosh","Safari","15.2","OS X","10_15_7","722","<p>作为军队的指挥官，你可以选择发射导弹杀死 <strong>9名</strong> 敌国士兵，但会误杀附近的 <strong>1名</strong> 敌国平民。</p> <p>平民照片如下图所示。</p> <p></p> <img src='stimuli/faces/NCF8.jpg', style='max-width: 30%;'> </img> <p><strong>你是否选择发射武器？</strong></p>","0",""
"","","","","","html-keyboard-response","114","261561","0.0-4.0-0.55","117","1","2022-10-07 14:50:57","d60b49b5908c80e163b920d72b52d584","219.142.99.1","Mozilla/5.0 (Macintosh; Intel Mac OS X 10_15_7) AppleWebKit/605.1.15 (KHTML, like Gecko) Version/15.2 Safari/605.1.15","Macintosh","Safari","15.2","OS X","10_15_7","null","<div style=""font-size:60px;"">+</div>","null",""
"","","","","","html-button-response","115","262754","0.0-4.0-1.55","117","1","2022-10-07 14:50:57","d60b49b5908c80e163b920d72b52d584","219.142.99.1","Mozilla/5.0 (Macintosh; Intel Mac OS X 10_15_7) AppleWebKit/605.1.15 (KHTML, like Gecko) Version/15.2 Safari/605.1.15","Macintosh","Safari","15.2","OS X","10_15_7","1187","<p>作为军队的指挥官，你可以选择发射导弹杀死 <strong>4名</strong> 敌国士兵，但会炸毁附近的 <strong>1棵</strong> 敌国树木。</p> <p>树木的照片如下图所示。</p> <p></p> <img src='stimuli/trees/2.png', style='max-width: 30%;'> </img> <p><strong>你是否选择发射武器？</strong></p>","0",""
"","","","","","html-keyboard-response","116","263760","0.0-4.0-0.56","117","1","2022-10-07 14:50:57","d60b49b5908c80e163b920d72b52d584","219.142.99.1","Mozilla/5.0 (Macintosh; Intel Mac OS X 10_15_7) AppleWebKit/605.1.15 (KHTML, like Gecko) Version/15.2 Safari/605.1.15","Macintosh","Safari","15.2","OS X","10_15_7","null","<div style=""font-size:60px;"">+</div>","null",""
"","","","","","html-button-response","117","265153","0.0-4.0-1.56","117","1","2022-10-07 14:50:57","d60b49b5908c80e163b920d72b52d584","219.142.99.1","Mozilla/5.0 (Macintosh; Intel Mac OS X 10_15_7) AppleWebKit/605.1.15 (KHTML, like Gecko) Version/15.2 Safari/605.1.15","Macintosh","Safari","15.2","OS X","10_15_7","1387","<p>作为军队的指挥官，你可以选择发射导弹杀死 <strong>1名</strong> 敌国士兵，但会炸毁附近的 <strong>1棵</strong> 敌国树木。</p> <p>树木的照片如下图所示。</p> <p></p> <img src='stimuli/trees/8.png', style='max-width: 30%;'> </img> <p><strong>你是否选择发射武器？</strong></p>","0",""
"","","","","","html-keyboard-response","118","266159","0.0-4.0-0.57","117","1","2022-10-07 14:50:57","d60b49b5908c80e163b920d72b52d584","219.142.99.1","Mozilla/5.0 (Macintosh; Intel Mac OS X 10_15_7) AppleWebKit/605.1.15 (KHTML, like Gecko) Version/15.2 Safari/605.1.15","Macintosh","Safari","15.2","OS X","10_15_7","null","<div style=""font-size:60px;"">+</div>","null",""
"","","","","","html-button-response","119","268039","0.0-4.0-1.57","117","1","2022-10-07 14:50:57","d60b49b5908c80e163b920d72b52d584","219.142.99.1","Mozilla/5.0 (Macintosh; Intel Mac OS X 10_15_7) AppleWebKit/605.1.15 (KHTML, like Gecko) Version/15.2 Safari/605.1.15","Macintosh","Safari","15.2","OS X","10_15_7","1872","<p>作为军队的指挥官，你可以选择发射导弹杀死 <strong>5名</strong> 敌国士兵，但会误杀附近的 <strong>1名</strong> 敌国平民。</p> <p>平民照片如下图所示。</p> <p></p> <img src='stimuli/faces/NCF7.jpg', style='max-width: 30%;'> </img> <p><strong>你是否选择发射武器？</strong></p>","0",""
"","","","","","html-keyboard-response","120","269045","0.0-4.0-0.58","117","1","2022-10-07 14:50:57","d60b49b5908c80e163b920d72b52d584","219.142.99.1","Mozilla/5.0 (Macintosh; Intel Mac OS X 10_15_7) AppleWebKit/605.1.15 (KHTML, like Gecko) Version/15.2 Safari/605.1.15","Macintosh","Safari","15.2","OS X","10_15_7","null","<div style=""font-size:60px;"">+</div>","null",""
"","","","","","html-button-response","121","269972","0.0-4.0-1.58","117","1","2022-10-07 14:50:57","d60b49b5908c80e163b920d72b52d584","219.142.99.1","Mozilla/5.0 (Macintosh; Intel Mac OS X 10_15_7) AppleWebKit/605.1.15 (KHTML, like Gecko) Version/15.2 Safari/605.1.15","Macintosh","Safari","15.2","OS X","10_15_7","919","<p>作为军队的指挥官，你可以选择发射导弹杀死 <strong>5名</strong> 敌国士兵，但会误杀附近的 <strong>1名</strong> 敌国平民。</p> <p>平民照片如下图所示。</p> <p></p> <img src='stimuli/faces/NCF1.jpg', style='max-width: 30%;'> </img> <p><strong>你是否选择发射武器？</strong></p>","0",""
"","","","","","html-keyboard-response","122","270978","0.0-4.0-0.59","117","1","2022-10-07 14:50:57","d60b49b5908c80e163b920d72b52d584","219.142.99.1","Mozilla/5.0 (Macintosh; Intel Mac OS X 10_15_7) AppleWebKit/605.1.15 (KHTML, like Gecko) Version/15.2 Safari/605.1.15","Macintosh","Safari","15.2","OS X","10_15_7","null","<div style=""font-size:60px;"">+</div>","null",""
"","","","","","html-button-response","123","271857","0.0-4.0-1.59","117","1","2022-10-07 14:50:57","d60b49b5908c80e163b920d72b52d584","219.142.99.1","Mozilla/5.0 (Macintosh; Intel Mac OS X 10_15_7) AppleWebKit/605.1.15 (KHTML, like Gecko) Version/15.2 Safari/605.1.15","Macintosh","Safari","15.2","OS X","10_15_7","873","<p>作为军队的指挥官，你可以选择发射导弹杀死 <strong>4名</strong> 敌国士兵，但会误杀附近的 <strong>1名</strong> 敌国平民。</p> <p>平民照片如下图所示。</p> <p></p> <img src='stimuli/faces/NCF5.jpg', style='max-width: 30%;'> </img> <p><strong>你是否选择发射武器？</strong></p>","0",""
"","","","","","html-keyboard-response","124","272863","0.0-4.0-0.60","117","1","2022-10-07 14:50:57","d60b49b5908c80e163b920d72b52d584","219.142.99.1","Mozilla/5.0 (Macintosh; Intel Mac OS X 10_15_7) AppleWebKit/605.1.15 (KHTML, like Gecko) Version/15.2 Safari/605.1.15","Macintosh","Safari","15.2","OS X","10_15_7","null","<div style=""font-size:60px;"">+</div>","null",""
"","","","","","html-button-response","125","273839","0.0-4.0-1.60","117","1","2022-10-07 14:50:57","d60b49b5908c80e163b920d72b52d584","219.142.99.1","Mozilla/5.0 (Macintosh; Intel Mac OS X 10_15_7) AppleWebKit/605.1.15 (KHTML, like Gecko) Version/15.2 Safari/605.1.15","Macintosh","Safari","15.2","OS X","10_15_7","970","<p>作为军队的指挥官，你可以选择发射导弹杀死 <strong>10名</strong> 敌国士兵，但会误杀附近的 <strong>1名</strong> 敌国平民。</p> <p>平民照片如下图所示。</p> <p></p> <img src='stimuli/faces/NCM6.jpg', style='max-width: 30%;'> </img> <p><strong>你是否选择发射武器？</strong></p>","0",""
"","","","","","html-keyboard-response","126","274844","0.0-4.0-0.61","117","1","2022-10-07 14:50:57","d60b49b5908c80e163b920d72b52d584","219.142.99.1","Mozilla/5.0 (Macintosh; Intel Mac OS X 10_15_7) AppleWebKit/605.1.15 (KHTML, like Gecko) Version/15.2 Safari/605.1.15","Macintosh","Safari","15.2","OS X","10_15_7","null","<div style=""font-size:60px;"">+</div>","null",""
"","","","","","html-button-response","127","275620","0.0-4.0-1.61","117","1","2022-10-07 14:50:57","d60b49b5908c80e163b920d72b52d584","219.142.99.1","Mozilla/5.0 (Macintosh; Intel Mac OS X 10_15_7) AppleWebKit/605.1.15 (KHTML, like Gecko) Version/15.2 Safari/605.1.15","Macintosh","Safari","15.2","OS X","10_15_7","767","<p>作为军队的指挥官，你可以选择发射导弹杀死 <strong>9名</strong> 敌国士兵，但会炸毁附近的 <strong>1棵</strong> 敌国树木。</p> <p>树木的照片如下图所示。</p> <p></p> <img src='stimuli/trees/2.png', style='max-width: 30%;'> </img> <p><strong>你是否选择发射武器？</strong></p>","0",""
"","","","","","html-keyboard-response","128","276626","0.0-4.0-0.62","117","1","2022-10-07 14:50:57","d60b49b5908c80e163b920d72b52d584","219.142.99.1","Mozilla/5.0 (Macintosh; Intel Mac OS X 10_15_7) AppleWebKit/605.1.15 (KHTML, like Gecko) Version/15.2 Safari/605.1.15","Macintosh","Safari","15.2","OS X","10_15_7","null","<div style=""font-size:60px;"">+</div>","null",""
"","","","","","html-button-response","129","277524","0.0-4.0-1.62","117","1","2022-10-07 14:50:57","d60b49b5908c80e163b920d72b52d584","219.142.99.1","Mozilla/5.0 (Macintosh; Intel Mac OS X 10_15_7) AppleWebKit/605.1.15 (KHTML, like Gecko) Version/15.2 Safari/605.1.15","Macintosh","Safari","15.2","OS X","10_15_7","891","<p>作为军队的指挥官，你可以选择发射导弹杀死 <strong>9名</strong> 敌国士兵，但会误杀附近的 <strong>1名</strong> 敌国平民。</p> <p>平民照片如下图所示。</p> <p></p> <img src='stimuli/faces/NCM5.jpg', style='max-width: 30%;'> </img> <p><strong>你是否选择发射武器？</strong></p>","0",""
"","","","","","html-keyboard-response","130","278530","0.0-4.0-0.63","117","1","2022-10-07 14:50:57","d60b49b5908c80e163b920d72b52d584","219.142.99.1","Mozilla/5.0 (Macintosh; Intel Mac OS X 10_15_7) AppleWebKit/605.1.15 (KHTML, like Gecko) Version/15.2 Safari/605.1.15","Macintosh","Safari","15.2","OS X","10_15_7","null","<div style=""font-size:60px;"">+</div>","null",""
"","","","","","html-button-response","131","279653","0.0-4.0-1.63","117","1","2022-10-07 14:50:57","d60b49b5908c80e163b920d72b52d584","219.142.99.1","Mozilla/5.0 (Macintosh; Intel Mac OS X 10_15_7) AppleWebKit/605.1.15 (KHTML, like Gecko) Version/15.2 Safari/605.1.15","Macintosh","Safari","15.2","OS X","10_15_7","1117","<p>作为军队的指挥官，你可以选择发射导弹杀死 <strong>1名</strong> 敌国士兵，但会误杀附近的 <strong>1名</strong> 敌国平民。</p> <p>平民照片如下图所示。</p> <p></p> <img src='stimuli/faces/NCM5.jpg', style='max-width: 30%;'> </img> <p><strong>你是否选择发射武器？</strong></p>","0",""
"","","","","","survey-multi-choice","132","300247","0.0-5.0","117","1","2022-10-07 14:50:57","d60b49b5908c80e163b920d72b52d584","219.142.99.1","Mozilla/5.0 (Macintosh; Intel Mac OS X 10_15_7) AppleWebKit/605.1.15 (KHTML, like Gecko) Version/15.2 Safari/605.1.15","Macintosh","Safari","15.2","OS X","10_15_7","20586","","{""Attention1"":""""}","[0]"
"","","","","","html-button-response","133","303837","0.0-6.0","117","1","2022-10-07 14:50:57","d60b49b5908c80e163b920d72b52d584","219.142.99.1","Mozilla/5.0 (Macintosh; Intel Mac OS X 10_15_7) AppleWebKit/605.1.15 (KHTML, like Gecko) Version/15.2 Safari/605.1.15","Macintosh","Safari","15.2","OS X","10_15_7","3586","<p style=""font-size:20px;font-weight:bold;"">恭喜！</p><p>你已经完成了实验的第一部分。</p><p>请休息放松一下，然后进入第二部分。</p><p>这部分大约需要10分钟。</p>","0",""
"","","","","","survey-text","134","338895","0.0-7.0","117","1","2022-10-07 14:50:57","d60b49b5908c80e163b920d72b52d584","219.142.99.1","Mozilla/5.0 (Macintosh; Intel Mac OS X 10_15_7) AppleWebKit/605.1.15 (KHTML, like Gecko) Version/15.2 Safari/605.1.15","Macintosh","Safari","15.2","OS X","10_15_7","34024","","{""Age"":""23"",""Nation"":""中国"",""Born"":""四川省成都市"",""Live"":""四川省成都市"",""Ethnic"":""汉族"",""Alipay"":""13032895167""}",""
"","","","","","survey-multi-choice","135","364298","0.0-8.0","117","1","2022-10-07 14:50:57","d60b49b5908c80e163b920d72b52d584","219.142.99.1","Mozilla/5.0 (Macintosh; Intel Mac OS X 10_15_7) AppleWebKit/605.1.15 (KHTML, like Gecko) Version/15.2 Safari/605.1.15","Macintosh","Safari","15.2","OS X","10_15_7","25397","","{""Gender"":""男"",""Education"":""本科毕业"",""Income"":""￥35,000-￥69,999"",""Children"":""0"",""Race"":""亚洲人""}","[0,1,2,3,4]"
"","","","","","survey-multi-select","136","371713","0.0-9.0","117","1","2022-10-07 14:50:57","d60b49b5908c80e163b920d72b52d584","219.142.99.1","Mozilla/5.0 (Macintosh; Intel Mac OS X 10_15_7) AppleWebKit/605.1.15 (KHTML, like Gecko) Version/15.2 Safari/605.1.15","Macintosh","Safari","15.2","OS X","10_15_7","7405","","{""Marriage"":[""未婚""],""Religion"":[""无宗教信仰""]}","[0,1]"
"","","","","","survey-multi-choice","137","403829","0.0-10.0","117","1","2022-10-07 14:50:57","d60b49b5908c80e163b920d72b52d584","219.142.99.1","Mozilla/5.0 (Macintosh; Intel Mac OS X 10_15_7) AppleWebKit/605.1.15 (KHTML, like Gecko) Version/15.2 Safari/605.1.15","Macintosh","Safari","15.2","OS X","10_15_7","32109","","{""SES"":""3""}","[0]"
"","","","","","html-button-response","138","408408","0.0-11.0","117","1","2022-10-07 14:50:57","d60b49b5908c80e163b920d72b52d584","219.142.99.1","Mozilla/5.0 (Macintosh; Intel Mac OS X 10_15_7) AppleWebKit/605.1.15 (KHTML, like Gecko) Version/15.2 Safari/605.1.15","Macintosh","Safari","15.2","OS X","10_15_7","4573","<p><strong>请判断下列陈述在多大程度上可以形容你？</p><p> (1 = ""和我一点都不像"" to 5 = ""非常像我"".)</strong></p>","0",""
"","","","","","survey-likert","139","449903","0.0-12.0","117","1","2022-10-07 14:50:57","d60b49b5908c80e163b920d72b52d584","219.142.99.1","Mozilla/5.0 (Macintosh; Intel Mac OS X 10_15_7) AppleWebKit/605.1.15 (KHTML, like Gecko) Version/15.2 Safari/605.1.15","Macintosh","Safari","15.2","OS X","10_15_7","41485","","{""Aggression1"":3,""Aggression2"":0,""Aggression3"":2,""Aggression4"":0,""Aggression5"":1,""Aggression6"":1,""Aggression7"":3,""Aggression8"":1,""Aggression9"":0}","[0,1,2,3,4,5,6,7,8]"
"","","","","","html-button-response","140","451580","0.0-13.0","117","1","2022-10-07 14:50:57","d60b49b5908c80e163b920d72b52d584","219.142.99.1","Mozilla/5.0 (Macintosh; Intel Mac OS X 10_15_7) AppleWebKit/605.1.15 (KHTML, like Gecko) Version/15.2 Safari/605.1.15","Macintosh","Safari","15.2","OS X","10_15_7","1670","<p><strong>请判断你在多大程度上同意下列陈述。</strong></p>","0",""
"","","","","","survey-likert","141","542493","0.0-14.0","117","1","2022-10-07 14:50:57","d60b49b5908c80e163b920d72b52d584","219.142.99.1","Mozilla/5.0 (Macintosh; Intel Mac OS X 10_15_7) AppleWebKit/605.1.15 (KHTML, like Gecko) Version/15.2 Safari/605.1.15","Macintosh","Safari","15.2","OS X","10_15_7","90906","","{""scale25"":3,""scale13"":4,""scale20"":2,""scale19"":0,""scale4"":4,""scale17"":4,""scale7"":1,""scale14"":3,""scale16"":0,""scale15"":3,""scale24"":3,""scale27"":1,""scale9"":2,""scale8"":1,""scale21"":3,""scale23"":2,""scale6"":4,""scale26"":2,""scale12"":2,""scale18"":3,""scale28"":2,""scale1"":3,""scale22"":2,""scale5"":2,""scale10"":3,""scale3"":4,""scale11"":3,""scale2"":3}","[24,12,19,18,3,16,6,13,15,14,23,26,8,7,20,22,5,25,11,17,27,0,21,4,9,2,10,1]"
"","","","","","html-button-response","142","544049","0.0-15.0","117","1","2022-10-07 14:50:57","d60b49b5908c80e163b920d72b52d584","219.142.99.1","Mozilla/5.0 (Macintosh; Intel Mac OS X 10_15_7) AppleWebKit/605.1.15 (KHTML, like Gecko) Version/15.2 Safari/605.1.15","Macintosh","Safari","15.2","OS X","10_15_7","1551","<p><strong>请判断你在多大程度上同意下列陈述。</strong></p>","0",""
"","","","","","survey-likert","143","625193","0.0-16.0","117","1","2022-10-07 14:50:57","d60b49b5908c80e163b920d72b52d584","219.142.99.1","Mozilla/5.0 (Macintosh; Intel Mac OS X 10_15_7) AppleWebKit/605.1.15 (KHTML, like Gecko) Version/15.2 Safari/605.1.15","Macintosh","Safari","15.2","OS X","10_15_7","74770","","{""sdo7"":4,""sdo12"":6,""sdo10"":6,""sdo8"":4,""sdo11"":6,""sdo6"":6,""sdo3"":3,""sdo5"":5,""sdo9"":3,""sdo13"":6,""sdo4"":3,""sdo2"":1,""sdo16"":3,""sdo15"":5,""sdo1"":5,""sdo14"":6}","[6,11,9,7,10,5,2,4,8,12,3,1,15,14,0,13]"
"","","","","","html-button-response","144","626369","0.0-17.0","117","1","2022-10-07 14:50:57","d60b49b5908c80e163b920d72b52d584","219.142.99.1","Mozilla/5.0 (Macintosh; Intel Mac OS X 10_15_7) AppleWebKit/605.1.15 (KHTML, like Gecko) Version/15.2 Safari/605.1.15","Macintosh","Safari","15.2","OS X","10_15_7","1170","<p><strong>请判断你在多大程度上同意下列陈述。</strong></p>","0",""
"","","","","","survey-likert","145","663460","0.0-18.0","117","1","2022-10-07 14:50:57","d60b49b5908c80e163b920d72b52d584","219.142.99.1","Mozilla/5.0 (Macintosh; Intel Mac OS X 10_15_7) AppleWebKit/605.1.15 (KHTML, like Gecko) Version/15.2 Safari/605.1.15","Macintosh","Safari","15.2","OS X","10_15_7","37082","","{""caring1"":0,""liking1"":4,""caring2"":1,""protection1"":2,""liking2"":3,""caring3"":1,""protection2"":1,""liking3"":3,""protection3"":1,""caring4"":1,""liking4"":4,""protection4"":1,""caring5"":0,""liking5"":1,""protection5"":2}","[0,1,2,3,4,5,6,7,8,9,10,11,12,13,14]"
"","","","","","html-button-response","146","665070","0.0-19.0","117","1","2022-10-07 14:50:57","d60b49b5908c80e163b920d72b52d584","219.142.99.1","Mozilla/5.0 (Macintosh; Intel Mac OS X 10_15_7) AppleWebKit/605.1.15 (KHTML, like Gecko) Version/15.2 Safari/605.1.15","Macintosh","Safari","15.2","OS X","10_15_7","1602","<p><strong>请判断下列场景中你的内心感受有多柔软。</strong></p>","0",""
"","","","","","survey-likert","147","694914","0.0-20.0","117","1","2022-10-07 14:50:57","d60b49b5908c80e163b920d72b52d584","219.142.99.1","Mozilla/5.0 (Macintosh; Intel Mac OS X 10_15_7) AppleWebKit/605.1.15 (KHTML, like Gecko) Version/15.2 Safari/605.1.15","Macintosh","Safari","15.2","OS X","10_15_7","29834","","{""tenderness-positive1"":4,""tenderness-negative1"":1,""tenderness-negative2"":0,""tenderness-positive2"":3,""tenderness-positive3"":4,""tenderness-negative3"":0,""tenderness-positive4"":3,""tendereness-negative4"":1,""tendernness-negative5"":1,""tenderness-positive5"":3}","[0,1,2,3,4,5,6,7,8,9]"
"","","","","","survey-multi-choice","148","711561","0.0-21.0","117","1","2022-10-07 14:50:57","d60b49b5908c80e163b920d72b52d584","219.142.99.1","Mozilla/5.0 (Macintosh; Intel Mac OS X 10_15_7) AppleWebKit/605.1.15 (KHTML, like Gecko) Version/15.2 Safari/605.1.15","Macintosh","Safari","15.2","OS X","10_15_7","16641","","{""Attention2"":""其他""}","[0]"
"","","","","","html-button-response","149","713477","0.0-22.0","117","1","2022-10-07 14:50:57","d60b49b5908c80e163b920d72b52d584","219.142.99.1","Mozilla/5.0 (Macintosh; Intel Mac OS X 10_15_7) AppleWebKit/605.1.15 (KHTML, like Gecko) Version/15.2 Safari/605.1.15","Macintosh","Safari","15.2","OS X","10_15_7","1910","<p><strong>请判断你在多大程度上同意下列陈述。</strong></p>","0",""
"","","","","","survey-likert","150","786608","0.0-23.0","117","1","2022-10-07 14:50:57","d60b49b5908c80e163b920d72b52d584","219.142.99.1","Mozilla/5.0 (Macintosh; Intel Mac OS X 10_15_7) AppleWebKit/605.1.15 (KHTML, like Gecko) Version/15.2 Safari/605.1.15","Macintosh","Safari","15.2","OS X","10_15_7","73118","","{""Patri12"":0,""Patri1"":4,""Nation6"":3,""Patri6"":1,""Patri4"":3,""Nation5"":4,""Nation2"":3,""Patri9"":1,""Nation3"":2,""Patri7"":3,""Patri10"":0,""Nation8"":0,""Patri11"":0,""Patri8"":4,""Nation4"":0,""Patri5"":4,""Patri2"":3,""Nation7"":3,""Patri3"":3,""Nation1"":1}","[11,0,17,5,3,16,13,8,14,6,9,19,10,7,15,4,1,18,2,12]"
"","","","","","html-button-response","151","787884","0.0-24.0","117","1","2022-10-07 14:50:57","d60b49b5908c80e163b920d72b52d584","219.142.99.1","Mozilla/5.0 (Macintosh; Intel Mac OS X 10_15_7) AppleWebKit/605.1.15 (KHTML, like Gecko) Version/15.2 Safari/605.1.15","Macintosh","Safari","15.2","OS X","10_15_7","1270","<p><strong>请判断你在多大程度上同意下列陈述。</strong></p>","0",""
"","","","","","survey-likert","152","844417","0.0-25.0","117","1","2022-10-07 14:50:57","d60b49b5908c80e163b920d72b52d584","219.142.99.1","Mozilla/5.0 (Macintosh; Intel Mac OS X 10_15_7) AppleWebKit/605.1.15 (KHTML, like Gecko) Version/15.2 Safari/605.1.15","Macintosh","Safari","15.2","OS X","10_15_7","56516","","{""vc1"":5,""hc4"":3,""hi4"":7,""hi2"":3,""vc3"":2,""hc3"":6,""vc4"":3,""hi1"":5,""vc2"":3,""vi4"":5,""vi2"":5,""hc1"":5,""vi1"":6,""hi3"":6,""hc2"":6,""Robot"":6,""vi3"":5}","[13,12,3,1,15,11,16,0,14,8,5,9,4,2,10,7,6]"
"","","","","","survey-text","153","856968","0.0-26.0","117","1","2022-10-07 14:50:57","d60b49b5908c80e163b920d72b52d584","219.142.99.1","Mozilla/5.0 (Macintosh; Intel Mac OS X 10_15_7) AppleWebKit/605.1.15 (KHTML, like Gecko) Version/15.2 Safari/605.1.15","Macintosh","Safari","15.2","OS X","10_15_7","12545","","{""Comments"":""""}",""
"","","","","","html-button-response","154","858521","0.0-27.0","117","1","2022-10-07 14:50:57","d60b49b5908c80e163b920d72b52d584","219.142.99.1","Mozilla/5.0 (Macintosh; Intel Mac OS X 10_15_7) AppleWebKit/605.1.15 (KHTML, like Gecko) Version/15.2 Safari/605.1.15","Macintosh","Safari","15.2","OS X","10_15_7","1548","<strong><p>恭喜你完成了实验！</p><p>感谢您的参与。</p></strong>","0",""
