"success","timeout","failed_images","failed_audio","failed_video","trial_type","trial_index","time_elapsed","internal_node_id","run_id","condition","recorded_at","source_code_version","ip","user_agent","device","browser","browser_version","platform","platform_version","rt","stimulus","response","question_order"
"true","false","[]","[]","[]","preload","0","3892","0.0-0.0","128","1","2022-10-08 01:50:37","d60b49b5908c80e163b920d72b52d584","111.74.10.116","Mozilla/5.0 (Windows NT 10.0; WOW64) AppleWebKit/537.36 (KHTML, like Gecko) Chrome/84.0.4147.89 Safari/537.36 SLBrowser/7.0.0.12151 SLBChan/103","WebKit","Chrome","84.0.4147.89","Windows","10.0","","","",""
"true","","","","","fullscreen","1","7053","0.0-1.0","128","1","2022-10-08 01:50:37","d60b49b5908c80e163b920d72b52d584","111.74.10.116","Mozilla/5.0 (Windows NT 10.0; WOW64) AppleWebKit/537.36 (KHTML, like Gecko) Chrome/84.0.4147.89 Safari/537.36 SLBrowser/7.0.0.12151 SLBChan/103","WebKit","Chrome","84.0.4147.89","Windows","10.0","","","",""
"","","","","","html-button-response","2","17622","0.0-2.0","128","1","2022-10-08 01:50:37","d60b49b5908c80e163b920d72b52d584","111.74.10.116","Mozilla/5.0 (Windows NT 10.0; WOW64) AppleWebKit/537.36 (KHTML, like Gecko) Chrome/84.0.4147.89 Safari/537.36 SLBrowser/7.0.0.12151 SLBChan/103","WebKit","Chrome","84.0.4147.89","Windows","10.0","10567","<p style=""font-size:20px;font-weight:bold;"">实验知情同意书</p><p style=""text-align:left;""><strong>实验名称：</strong>社会冲突研究</p><p style=""text-align:left;""><strong>主要研究者：</strong>韩晓春副教授（北京师范大学心理学部）</p><p style=""text-align:left;""><strong>联系方式：</strong>发送邮件至xiaochun.han@bnu.edu.cn</p><p style=""text-align:left;""><strong>研究目的：</strong>研究旨在了解人类面对群体冲突时的决策方式，以及相关的心理学特质。实验调查大约需要20分钟。</p><p style=""text-align:left;""><strong>实验流程：</strong>实验包含两部分。第一部分呈现一系列群体冲突场景，请你决定如何对这些冲突进行反应，大约需要10分钟完成。第二部分包含一系列人口统计学信息收集和心理学问卷，大约需要10分钟完成。</p><p style=""text-align:left;""><strong>参加及退出规则：</strong>参加本实验完全取决于您的个人意愿。在参与过程中，您可以随时退出，并且不用承担任何后果。</p><p style=""text-align:left;""><strong>隐私：</strong>本实验完全匿名进行，不会收集您的姓名或其他能够识别您身份的信息。实验中收集的作答仅用作科学研究使用，可能会在学术期刊/书籍上发表，或者用于教学，您的数据未来可能会和其他研究者或实验室分享，但您的个人身份不会被识别。</p><p style=""text-align:left;""><strong>实验报酬：</strong>实验完成后，您将获得15元人民币报酬，以感谢您的时间和努力。调查问卷中包含几道题目用以测验您作答时的认真度。只有完成全部实验，并且正确回答认真度测验的被试才能获得实验报酬。实验报酬将通过支付宝转账发放。</p><p style=""text-align:left;font-size:20px;""><strong>如果您同意以上实验知情同意书的内容，请点击'同意并且开始实验'按钮；否则请关闭浏览器界面，退出实验。</strong></p>","0",""
"","","","","","html-button-response","3","219702","0.0-3.0","128","1","2022-10-08 01:50:37","d60b49b5908c80e163b920d72b52d584","111.74.10.116","Mozilla/5.0 (Windows NT 10.0; WOW64) AppleWebKit/537.36 (KHTML, like Gecko) Chrome/84.0.4147.89 Safari/537.36 SLBrowser/7.0.0.12151 SLBChan/103","WebKit","Chrome","84.0.4147.89","Windows","10.0","202078","<p ><strong>实验任务一：</strong></p><p>请想象你的国家与另一个国家发生了军事冲突。</p><p>你是国家军队的指挥官，你将如何在冲突中进行决策。</p><p>具体来说，作为军队指挥官，请你决定是否发射导弹进行打击。</p><p>接下来，你会面对一系列场景，请仔细阅读每个场景，然后进行决策。</p><p>这部分实验任务大约需要10分钟。</p><p><strong>实验过程中，请集中注意力。</strong></p>","0",""
"","","","","","html-keyboard-response","4","220709","0.0-4.0-0.0","128","1","2022-10-08 01:50:37","d60b49b5908c80e163b920d72b52d584","111.74.10.116","Mozilla/5.0 (Windows NT 10.0; WOW64) AppleWebKit/537.36 (KHTML, like Gecko) Chrome/84.0.4147.89 Safari/537.36 SLBrowser/7.0.0.12151 SLBChan/103","WebKit","Chrome","84.0.4147.89","Windows","10.0","null","<div style=""font-size:60px;"">+</div>","null",""
"","","","","","html-button-response","5","235301","0.0-4.0-1.0","128","1","2022-10-08 01:50:37","d60b49b5908c80e163b920d72b52d584","111.74.10.116","Mozilla/5.0 (Windows NT 10.0; WOW64) AppleWebKit/537.36 (KHTML, like Gecko) Chrome/84.0.4147.89 Safari/537.36 SLBrowser/7.0.0.12151 SLBChan/103","WebKit","Chrome","84.0.4147.89","Windows","10.0","14588","<p>作为军队的指挥官，你可以选择发射导弹杀死 <strong>10名</strong> 敌国士兵，但会误杀附近的 <strong>1名</strong> 敌国平民。</p> <p>平民照片如下图所示。</p> <p></p> <img src='stimuli/faces/NCF2.jpg', style='max-width: 30%;'> </img> <p><strong>你是否选择发射武器？</strong></p>","1",""
"","","","","","html-keyboard-response","6","236316","0.0-4.0-0.1","128","1","2022-10-08 01:50:37","d60b49b5908c80e163b920d72b52d584","111.74.10.116","Mozilla/5.0 (Windows NT 10.0; WOW64) AppleWebKit/537.36 (KHTML, like Gecko) Chrome/84.0.4147.89 Safari/537.36 SLBrowser/7.0.0.12151 SLBChan/103","WebKit","Chrome","84.0.4147.89","Windows","10.0","null","<div style=""font-size:60px;"">+</div>","null",""
"","","","","","html-button-response","7","241214","0.0-4.0-1.1","128","1","2022-10-08 01:50:37","d60b49b5908c80e163b920d72b52d584","111.74.10.116","Mozilla/5.0 (Windows NT 10.0; WOW64) AppleWebKit/537.36 (KHTML, like Gecko) Chrome/84.0.4147.89 Safari/537.36 SLBrowser/7.0.0.12151 SLBChan/103","WebKit","Chrome","84.0.4147.89","Windows","10.0","4895","<p>作为军队的指挥官，你可以选择发射导弹杀死 <strong>4名</strong> 敌国士兵，但会误杀附近的 <strong>1名</strong> 敌国平民。</p> <p>平民照片如下图所示。</p> <p></p> <img src='stimuli/faces/NCF2.jpg', style='max-width: 30%;'> </img> <p><strong>你是否选择发射武器？</strong></p>","1",""
"","","","","","html-keyboard-response","8","242229","0.0-4.0-0.2","128","1","2022-10-08 01:50:37","d60b49b5908c80e163b920d72b52d584","111.74.10.116","Mozilla/5.0 (Windows NT 10.0; WOW64) AppleWebKit/537.36 (KHTML, like Gecko) Chrome/84.0.4147.89 Safari/537.36 SLBrowser/7.0.0.12151 SLBChan/103","WebKit","Chrome","84.0.4147.89","Windows","10.0","null","<div style=""font-size:60px;"">+</div>","null",""
"","","","","","html-button-response","9","251896","0.0-4.0-1.2","128","1","2022-10-08 01:50:37","d60b49b5908c80e163b920d72b52d584","111.74.10.116","Mozilla/5.0 (Windows NT 10.0; WOW64) AppleWebKit/537.36 (KHTML, like Gecko) Chrome/84.0.4147.89 Safari/537.36 SLBrowser/7.0.0.12151 SLBChan/103","WebKit","Chrome","84.0.4147.89","Windows","10.0","9665","<p>作为军队的指挥官，你可以选择发射导弹杀死 <strong>3名</strong> 敌国士兵，但会炸毁附近的 <strong>1棵</strong> 敌国树木。</p> <p>树木的照片如下图所示。</p> <p></p> <img src='stimuli/trees/10.png', style='max-width: 30%;'> </img> <p><strong>你是否选择发射武器？</strong></p>","0",""
"","","","","","html-keyboard-response","10","252903","0.0-4.0-0.3","128","1","2022-10-08 01:50:37","d60b49b5908c80e163b920d72b52d584","111.74.10.116","Mozilla/5.0 (Windows NT 10.0; WOW64) AppleWebKit/537.36 (KHTML, like Gecko) Chrome/84.0.4147.89 Safari/537.36 SLBrowser/7.0.0.12151 SLBChan/103","WebKit","Chrome","84.0.4147.89","Windows","10.0","null","<div style=""font-size:60px;"">+</div>","null",""
"","","","","","html-button-response","11","280575","0.0-4.0-1.3","128","1","2022-10-08 01:50:37","d60b49b5908c80e163b920d72b52d584","111.74.10.116","Mozilla/5.0 (Windows NT 10.0; WOW64) AppleWebKit/537.36 (KHTML, like Gecko) Chrome/84.0.4147.89 Safari/537.36 SLBrowser/7.0.0.12151 SLBChan/103","WebKit","Chrome","84.0.4147.89","Windows","10.0","27670","<p>作为军队的指挥官，你可以选择发射导弹杀死 <strong>3名</strong> 敌国士兵，但会误杀附近的 <strong>1名</strong> 敌国平民。</p> <p>平民照片如下图所示。</p> <p></p> <img src='stimuli/faces/NCM2.jpg', style='max-width: 30%;'> </img> <p><strong>你是否选择发射武器？</strong></p>","1",""
"","","","","","html-keyboard-response","12","281590","0.0-4.0-0.4","128","1","2022-10-08 01:50:37","d60b49b5908c80e163b920d72b52d584","111.74.10.116","Mozilla/5.0 (Windows NT 10.0; WOW64) AppleWebKit/537.36 (KHTML, like Gecko) Chrome/84.0.4147.89 Safari/537.36 SLBrowser/7.0.0.12151 SLBChan/103","WebKit","Chrome","84.0.4147.89","Windows","10.0","null","<div style=""font-size:60px;"">+</div>","null",""
"","","","","","html-button-response","13","286191","0.0-4.0-1.4","128","1","2022-10-08 01:50:37","d60b49b5908c80e163b920d72b52d584","111.74.10.116","Mozilla/5.0 (Windows NT 10.0; WOW64) AppleWebKit/537.36 (KHTML, like Gecko) Chrome/84.0.4147.89 Safari/537.36 SLBrowser/7.0.0.12151 SLBChan/103","WebKit","Chrome","84.0.4147.89","Windows","10.0","4595","<p>作为军队的指挥官，你可以选择发射导弹杀死 <strong>7名</strong> 敌国士兵，但会误杀附近的 <strong>1名</strong> 敌国平民。</p> <p>平民照片如下图所示。</p> <p></p> <img src='stimuli/faces/NCM4.jpg', style='max-width: 30%;'> </img> <p><strong>你是否选择发射武器？</strong></p>","1",""
"","","","","","html-keyboard-response","14","287195","0.0-4.0-0.5","128","1","2022-10-08 01:50:37","d60b49b5908c80e163b920d72b52d584","111.74.10.116","Mozilla/5.0 (Windows NT 10.0; WOW64) AppleWebKit/537.36 (KHTML, like Gecko) Chrome/84.0.4147.89 Safari/537.36 SLBrowser/7.0.0.12151 SLBChan/103","WebKit","Chrome","84.0.4147.89","Windows","10.0","null","<div style=""font-size:60px;"">+</div>","null",""
"","","","","","html-button-response","15","289511","0.0-4.0-1.5","128","1","2022-10-08 01:50:37","d60b49b5908c80e163b920d72b52d584","111.74.10.116","Mozilla/5.0 (Windows NT 10.0; WOW64) AppleWebKit/537.36 (KHTML, like Gecko) Chrome/84.0.4147.89 Safari/537.36 SLBrowser/7.0.0.12151 SLBChan/103","WebKit","Chrome","84.0.4147.89","Windows","10.0","2312","<p>作为军队的指挥官，你可以选择发射导弹杀死 <strong>3名</strong> 敌国士兵，但会炸毁附近的 <strong>1棵</strong> 敌国树木。</p> <p>树木的照片如下图所示。</p> <p></p> <img src='stimuli/trees/16.png', style='max-width: 30%;'> </img> <p><strong>你是否选择发射武器？</strong></p>","0",""
"","","","","","html-keyboard-response","16","290513","0.0-4.0-0.6","128","1","2022-10-08 01:50:37","d60b49b5908c80e163b920d72b52d584","111.74.10.116","Mozilla/5.0 (Windows NT 10.0; WOW64) AppleWebKit/537.36 (KHTML, like Gecko) Chrome/84.0.4147.89 Safari/537.36 SLBrowser/7.0.0.12151 SLBChan/103","WebKit","Chrome","84.0.4147.89","Windows","10.0","null","<div style=""font-size:60px;"">+</div>","null",""
"","","","","","html-button-response","17","297039","0.0-4.0-1.6","128","1","2022-10-08 01:50:37","d60b49b5908c80e163b920d72b52d584","111.74.10.116","Mozilla/5.0 (Windows NT 10.0; WOW64) AppleWebKit/537.36 (KHTML, like Gecko) Chrome/84.0.4147.89 Safari/537.36 SLBrowser/7.0.0.12151 SLBChan/103","WebKit","Chrome","84.0.4147.89","Windows","10.0","6523","<p>作为军队的指挥官，你可以选择发射导弹杀死 <strong>9名</strong> 敌国士兵，但会误杀附近的 <strong>1名</strong> 敌国平民。</p> <p>平民照片如下图所示。</p> <p></p> <img src='stimuli/faces/NCM3.jpg', style='max-width: 30%;'> </img> <p><strong>你是否选择发射武器？</strong></p>","1",""
"","","","","","html-keyboard-response","18","298044","0.0-4.0-0.7","128","1","2022-10-08 01:50:37","d60b49b5908c80e163b920d72b52d584","111.74.10.116","Mozilla/5.0 (Windows NT 10.0; WOW64) AppleWebKit/537.36 (KHTML, like Gecko) Chrome/84.0.4147.89 Safari/537.36 SLBrowser/7.0.0.12151 SLBChan/103","WebKit","Chrome","84.0.4147.89","Windows","10.0","null","<div style=""font-size:60px;"">+</div>","null",""
"","","","","","html-button-response","19","300431","0.0-4.0-1.7","128","1","2022-10-08 01:50:37","d60b49b5908c80e163b920d72b52d584","111.74.10.116","Mozilla/5.0 (Windows NT 10.0; WOW64) AppleWebKit/537.36 (KHTML, like Gecko) Chrome/84.0.4147.89 Safari/537.36 SLBrowser/7.0.0.12151 SLBChan/103","WebKit","Chrome","84.0.4147.89","Windows","10.0","2384","<p>作为军队的指挥官，你可以选择发射导弹杀死 <strong>4名</strong> 敌国士兵，但会误杀附近的 <strong>1名</strong> 敌国平民。</p> <p>平民照片如下图所示。</p> <p></p> <img src='stimuli/faces/NCM5.jpg', style='max-width: 30%;'> </img> <p><strong>你是否选择发射武器？</strong></p>","1",""
"","","","","","html-keyboard-response","20","301435","0.0-4.0-0.8","128","1","2022-10-08 01:50:37","d60b49b5908c80e163b920d72b52d584","111.74.10.116","Mozilla/5.0 (Windows NT 10.0; WOW64) AppleWebKit/537.36 (KHTML, like Gecko) Chrome/84.0.4147.89 Safari/537.36 SLBrowser/7.0.0.12151 SLBChan/103","WebKit","Chrome","84.0.4147.89","Windows","10.0","null","<div style=""font-size:60px;"">+</div>","null",""
"","","","","","html-button-response","21","303862","0.0-4.0-1.8","128","1","2022-10-08 01:50:37","d60b49b5908c80e163b920d72b52d584","111.74.10.116","Mozilla/5.0 (Windows NT 10.0; WOW64) AppleWebKit/537.36 (KHTML, like Gecko) Chrome/84.0.4147.89 Safari/537.36 SLBrowser/7.0.0.12151 SLBChan/103","WebKit","Chrome","84.0.4147.89","Windows","10.0","2426","<p>作为军队的指挥官，你可以选择发射导弹杀死 <strong>10名</strong> 敌国士兵，但会炸毁附近的 <strong>1棵</strong> 敌国树木。</p> <p>树木的照片如下图所示。</p> <p></p> <img src='stimuli/trees/12.png', style='max-width: 30%;'> </img> <p><strong>你是否选择发射武器？</strong></p>","0",""
"","","","","","html-keyboard-response","22","304865","0.0-4.0-0.9","128","1","2022-10-08 01:50:37","d60b49b5908c80e163b920d72b52d584","111.74.10.116","Mozilla/5.0 (Windows NT 10.0; WOW64) AppleWebKit/537.36 (KHTML, like Gecko) Chrome/84.0.4147.89 Safari/537.36 SLBrowser/7.0.0.12151 SLBChan/103","WebKit","Chrome","84.0.4147.89","Windows","10.0","null","<div style=""font-size:60px;"">+</div>","null",""
"","","","","","html-button-response","23","306390","0.0-4.0-1.9","128","1","2022-10-08 01:50:37","d60b49b5908c80e163b920d72b52d584","111.74.10.116","Mozilla/5.0 (Windows NT 10.0; WOW64) AppleWebKit/537.36 (KHTML, like Gecko) Chrome/84.0.4147.89 Safari/537.36 SLBrowser/7.0.0.12151 SLBChan/103","WebKit","Chrome","84.0.4147.89","Windows","10.0","1522","<p>作为军队的指挥官，你可以选择发射导弹杀死 <strong>3名</strong> 敌国士兵，但会炸毁附近的 <strong>1棵</strong> 敌国树木。</p> <p>树木的照片如下图所示。</p> <p></p> <img src='stimuli/trees/6.png', style='max-width: 30%;'> </img> <p><strong>你是否选择发射武器？</strong></p>","0",""
"","","","","","html-keyboard-response","24","307395","0.0-4.0-0.10","128","1","2022-10-08 01:50:37","d60b49b5908c80e163b920d72b52d584","111.74.10.116","Mozilla/5.0 (Windows NT 10.0; WOW64) AppleWebKit/537.36 (KHTML, like Gecko) Chrome/84.0.4147.89 Safari/537.36 SLBrowser/7.0.0.12151 SLBChan/103","WebKit","Chrome","84.0.4147.89","Windows","10.0","null","<div style=""font-size:60px;"">+</div>","null",""
"","","","","","html-button-response","25","308997","0.0-4.0-1.10","128","1","2022-10-08 01:50:37","d60b49b5908c80e163b920d72b52d584","111.74.10.116","Mozilla/5.0 (Windows NT 10.0; WOW64) AppleWebKit/537.36 (KHTML, like Gecko) Chrome/84.0.4147.89 Safari/537.36 SLBrowser/7.0.0.12151 SLBChan/103","WebKit","Chrome","84.0.4147.89","Windows","10.0","1599","<p>作为军队的指挥官，你可以选择发射导弹杀死 <strong>7名</strong> 敌国士兵，但会炸毁附近的 <strong>1棵</strong> 敌国树木。</p> <p>树木的照片如下图所示。</p> <p></p> <img src='stimuli/trees/5.png', style='max-width: 30%;'> </img> <p><strong>你是否选择发射武器？</strong></p>","0",""
"","","","","","html-keyboard-response","26","310007","0.0-4.0-0.11","128","1","2022-10-08 01:50:37","d60b49b5908c80e163b920d72b52d584","111.74.10.116","Mozilla/5.0 (Windows NT 10.0; WOW64) AppleWebKit/537.36 (KHTML, like Gecko) Chrome/84.0.4147.89 Safari/537.36 SLBrowser/7.0.0.12151 SLBChan/103","WebKit","Chrome","84.0.4147.89","Windows","10.0","null","<div style=""font-size:60px;"">+</div>","null",""
"","","","","","html-button-response","27","311373","0.0-4.0-1.11","128","1","2022-10-08 01:50:37","d60b49b5908c80e163b920d72b52d584","111.74.10.116","Mozilla/5.0 (Windows NT 10.0; WOW64) AppleWebKit/537.36 (KHTML, like Gecko) Chrome/84.0.4147.89 Safari/537.36 SLBrowser/7.0.0.12151 SLBChan/103","WebKit","Chrome","84.0.4147.89","Windows","10.0","1363","<p>作为军队的指挥官，你可以选择发射导弹杀死 <strong>5名</strong> 敌国士兵，但会误杀附近的 <strong>1名</strong> 敌国平民。</p> <p>平民照片如下图所示。</p> <p></p> <img src='stimuli/faces/NCM8.jpg', style='max-width: 30%;'> </img> <p><strong>你是否选择发射武器？</strong></p>","1",""
"","","","","","html-keyboard-response","28","312376","0.0-4.0-0.12","128","1","2022-10-08 01:50:37","d60b49b5908c80e163b920d72b52d584","111.74.10.116","Mozilla/5.0 (Windows NT 10.0; WOW64) AppleWebKit/537.36 (KHTML, like Gecko) Chrome/84.0.4147.89 Safari/537.36 SLBrowser/7.0.0.12151 SLBChan/103","WebKit","Chrome","84.0.4147.89","Windows","10.0","null","<div style=""font-size:60px;"">+</div>","null",""
"","","","","","html-button-response","29","313973","0.0-4.0-1.12","128","1","2022-10-08 01:50:37","d60b49b5908c80e163b920d72b52d584","111.74.10.116","Mozilla/5.0 (Windows NT 10.0; WOW64) AppleWebKit/537.36 (KHTML, like Gecko) Chrome/84.0.4147.89 Safari/537.36 SLBrowser/7.0.0.12151 SLBChan/103","WebKit","Chrome","84.0.4147.89","Windows","10.0","1594","<p>作为军队的指挥官，你可以选择发射导弹杀死 <strong>1名</strong> 敌国士兵，但会误杀附近的 <strong>1名</strong> 敌国平民。</p> <p>平民照片如下图所示。</p> <p></p> <img src='stimuli/faces/NCF4.jpg', style='max-width: 30%;'> </img> <p><strong>你是否选择发射武器？</strong></p>","1",""
"","","","","","html-keyboard-response","30","314975","0.0-4.0-0.13","128","1","2022-10-08 01:50:37","d60b49b5908c80e163b920d72b52d584","111.74.10.116","Mozilla/5.0 (Windows NT 10.0; WOW64) AppleWebKit/537.36 (KHTML, like Gecko) Chrome/84.0.4147.89 Safari/537.36 SLBrowser/7.0.0.12151 SLBChan/103","WebKit","Chrome","84.0.4147.89","Windows","10.0","null","<div style=""font-size:60px;"">+</div>","null",""
"","","","","","html-button-response","31","316390","0.0-4.0-1.13","128","1","2022-10-08 01:50:37","d60b49b5908c80e163b920d72b52d584","111.74.10.116","Mozilla/5.0 (Windows NT 10.0; WOW64) AppleWebKit/537.36 (KHTML, like Gecko) Chrome/84.0.4147.89 Safari/537.36 SLBrowser/7.0.0.12151 SLBChan/103","WebKit","Chrome","84.0.4147.89","Windows","10.0","1412","<p>作为军队的指挥官，你可以选择发射导弹杀死 <strong>2名</strong> 敌国士兵，但会炸毁附近的 <strong>1棵</strong> 敌国树木。</p> <p>树木的照片如下图所示。</p> <p></p> <img src='stimuli/trees/1.png', style='max-width: 30%;'> </img> <p><strong>你是否选择发射武器？</strong></p>","0",""
"","","","","","html-keyboard-response","32","317394","0.0-4.0-0.14","128","1","2022-10-08 01:50:37","d60b49b5908c80e163b920d72b52d584","111.74.10.116","Mozilla/5.0 (Windows NT 10.0; WOW64) AppleWebKit/537.36 (KHTML, like Gecko) Chrome/84.0.4147.89 Safari/537.36 SLBrowser/7.0.0.12151 SLBChan/103","WebKit","Chrome","84.0.4147.89","Windows","10.0","null","<div style=""font-size:60px;"">+</div>","null",""
"","","","","","html-button-response","33","318550","0.0-4.0-1.14","128","1","2022-10-08 01:50:37","d60b49b5908c80e163b920d72b52d584","111.74.10.116","Mozilla/5.0 (Windows NT 10.0; WOW64) AppleWebKit/537.36 (KHTML, like Gecko) Chrome/84.0.4147.89 Safari/537.36 SLBrowser/7.0.0.12151 SLBChan/103","WebKit","Chrome","84.0.4147.89","Windows","10.0","1153","<p>作为军队的指挥官，你可以选择发射导弹杀死 <strong>2名</strong> 敌国士兵，但会炸毁附近的 <strong>1棵</strong> 敌国树木。</p> <p>树木的照片如下图所示。</p> <p></p> <img src='stimuli/trees/11.png', style='max-width: 30%;'> </img> <p><strong>你是否选择发射武器？</strong></p>","0",""
"","","","","","html-keyboard-response","34","319553","0.0-4.0-0.15","128","1","2022-10-08 01:50:37","d60b49b5908c80e163b920d72b52d584","111.74.10.116","Mozilla/5.0 (Windows NT 10.0; WOW64) AppleWebKit/537.36 (KHTML, like Gecko) Chrome/84.0.4147.89 Safari/537.36 SLBrowser/7.0.0.12151 SLBChan/103","WebKit","Chrome","84.0.4147.89","Windows","10.0","null","<div style=""font-size:60px;"">+</div>","null",""
"","","","","","html-button-response","35","321302","0.0-4.0-1.15","128","1","2022-10-08 01:50:37","d60b49b5908c80e163b920d72b52d584","111.74.10.116","Mozilla/5.0 (Windows NT 10.0; WOW64) AppleWebKit/537.36 (KHTML, like Gecko) Chrome/84.0.4147.89 Safari/537.36 SLBrowser/7.0.0.12151 SLBChan/103","WebKit","Chrome","84.0.4147.89","Windows","10.0","1745","<p>作为军队的指挥官，你可以选择发射导弹杀死 <strong>1名</strong> 敌国士兵，但会炸毁附近的 <strong>1棵</strong> 敌国树木。</p> <p>树木的照片如下图所示。</p> <p></p> <img src='stimuli/trees/9.png', style='max-width: 30%;'> </img> <p><strong>你是否选择发射武器？</strong></p>","0",""
"","","","","","html-keyboard-response","36","322306","0.0-4.0-0.16","128","1","2022-10-08 01:50:37","d60b49b5908c80e163b920d72b52d584","111.74.10.116","Mozilla/5.0 (Windows NT 10.0; WOW64) AppleWebKit/537.36 (KHTML, like Gecko) Chrome/84.0.4147.89 Safari/537.36 SLBrowser/7.0.0.12151 SLBChan/103","WebKit","Chrome","84.0.4147.89","Windows","10.0","null","<div style=""font-size:60px;"">+</div>","null",""
"","","","","","html-button-response","37","323958","0.0-4.0-1.16","128","1","2022-10-08 01:50:37","d60b49b5908c80e163b920d72b52d584","111.74.10.116","Mozilla/5.0 (Windows NT 10.0; WOW64) AppleWebKit/537.36 (KHTML, like Gecko) Chrome/84.0.4147.89 Safari/537.36 SLBrowser/7.0.0.12151 SLBChan/103","WebKit","Chrome","84.0.4147.89","Windows","10.0","1648","<p>作为军队的指挥官，你可以选择发射导弹杀死 <strong>8名</strong> 敌国士兵，但会误杀附近的 <strong>1名</strong> 敌国平民。</p> <p>平民照片如下图所示。</p> <p></p> <img src='stimuli/faces/NCM6.jpg', style='max-width: 30%;'> </img> <p><strong>你是否选择发射武器？</strong></p>","1",""
"","","","","","html-keyboard-response","38","324963","0.0-4.0-0.17","128","1","2022-10-08 01:50:37","d60b49b5908c80e163b920d72b52d584","111.74.10.116","Mozilla/5.0 (Windows NT 10.0; WOW64) AppleWebKit/537.36 (KHTML, like Gecko) Chrome/84.0.4147.89 Safari/537.36 SLBrowser/7.0.0.12151 SLBChan/103","WebKit","Chrome","84.0.4147.89","Windows","10.0","null","<div style=""font-size:60px;"">+</div>","null",""
"","","","","","html-button-response","39","326958","0.0-4.0-1.17","128","1","2022-10-08 01:50:37","d60b49b5908c80e163b920d72b52d584","111.74.10.116","Mozilla/5.0 (Windows NT 10.0; WOW64) AppleWebKit/537.36 (KHTML, like Gecko) Chrome/84.0.4147.89 Safari/537.36 SLBrowser/7.0.0.12151 SLBChan/103","WebKit","Chrome","84.0.4147.89","Windows","10.0","1991","<p>作为军队的指挥官，你可以选择发射导弹杀死 <strong>4名</strong> 敌国士兵，但会炸毁附近的 <strong>1棵</strong> 敌国树木。</p> <p>树木的照片如下图所示。</p> <p></p> <img src='stimuli/trees/4.png', style='max-width: 30%;'> </img> <p><strong>你是否选择发射武器？</strong></p>","0",""
"","","","","","html-keyboard-response","40","327972","0.0-4.0-0.18","128","1","2022-10-08 01:50:37","d60b49b5908c80e163b920d72b52d584","111.74.10.116","Mozilla/5.0 (Windows NT 10.0; WOW64) AppleWebKit/537.36 (KHTML, like Gecko) Chrome/84.0.4147.89 Safari/537.36 SLBrowser/7.0.0.12151 SLBChan/103","WebKit","Chrome","84.0.4147.89","Windows","10.0","null","<div style=""font-size:60px;"">+</div>","null",""
"","","","","","html-button-response","41","331398","0.0-4.0-1.18","128","1","2022-10-08 01:50:37","d60b49b5908c80e163b920d72b52d584","111.74.10.116","Mozilla/5.0 (Windows NT 10.0; WOW64) AppleWebKit/537.36 (KHTML, like Gecko) Chrome/84.0.4147.89 Safari/537.36 SLBrowser/7.0.0.12151 SLBChan/103","WebKit","Chrome","84.0.4147.89","Windows","10.0","3422","<p>作为军队的指挥官，你可以选择发射导弹杀死 <strong>9名</strong> 敌国士兵，但会误杀附近的 <strong>1名</strong> 敌国平民。</p> <p>平民照片如下图所示。</p> <p></p> <img src='stimuli/faces/NCF6.jpg', style='max-width: 30%;'> </img> <p><strong>你是否选择发射武器？</strong></p>","1",""
"","","","","","html-keyboard-response","42","332402","0.0-4.0-0.19","128","1","2022-10-08 01:50:37","d60b49b5908c80e163b920d72b52d584","111.74.10.116","Mozilla/5.0 (Windows NT 10.0; WOW64) AppleWebKit/537.36 (KHTML, like Gecko) Chrome/84.0.4147.89 Safari/537.36 SLBrowser/7.0.0.12151 SLBChan/103","WebKit","Chrome","84.0.4147.89","Windows","10.0","null","<div style=""font-size:60px;"">+</div>","null",""
"","","","","","html-button-response","43","333998","0.0-4.0-1.19","128","1","2022-10-08 01:50:37","d60b49b5908c80e163b920d72b52d584","111.74.10.116","Mozilla/5.0 (Windows NT 10.0; WOW64) AppleWebKit/537.36 (KHTML, like Gecko) Chrome/84.0.4147.89 Safari/537.36 SLBrowser/7.0.0.12151 SLBChan/103","WebKit","Chrome","84.0.4147.89","Windows","10.0","1591","<p>作为军队的指挥官，你可以选择发射导弹杀死 <strong>5名</strong> 敌国士兵，但会误杀附近的 <strong>1名</strong> 敌国平民。</p> <p>平民照片如下图所示。</p> <p></p> <img src='stimuli/faces/NCF1.jpg', style='max-width: 30%;'> </img> <p><strong>你是否选择发射武器？</strong></p>","1",""
"","","","","","html-keyboard-response","44","335004","0.0-4.0-0.20","128","1","2022-10-08 01:50:37","d60b49b5908c80e163b920d72b52d584","111.74.10.116","Mozilla/5.0 (Windows NT 10.0; WOW64) AppleWebKit/537.36 (KHTML, like Gecko) Chrome/84.0.4147.89 Safari/537.36 SLBrowser/7.0.0.12151 SLBChan/103","WebKit","Chrome","84.0.4147.89","Windows","10.0","null","<div style=""font-size:60px;"">+</div>","null",""
"","","","","","html-button-response","45","336037","0.0-4.0-1.20","128","1","2022-10-08 01:50:37","d60b49b5908c80e163b920d72b52d584","111.74.10.116","Mozilla/5.0 (Windows NT 10.0; WOW64) AppleWebKit/537.36 (KHTML, like Gecko) Chrome/84.0.4147.89 Safari/537.36 SLBrowser/7.0.0.12151 SLBChan/103","WebKit","Chrome","84.0.4147.89","Windows","10.0","1029","<p>作为军队的指挥官，你可以选择发射导弹杀死 <strong>2名</strong> 敌国士兵，但会误杀附近的 <strong>1名</strong> 敌国平民。</p> <p>平民照片如下图所示。</p> <p></p> <img src='stimuli/faces/NCM1.jpg', style='max-width: 30%;'> </img> <p><strong>你是否选择发射武器？</strong></p>","1",""
"","","","","","html-keyboard-response","46","337042","0.0-4.0-0.21","128","1","2022-10-08 01:50:37","d60b49b5908c80e163b920d72b52d584","111.74.10.116","Mozilla/5.0 (Windows NT 10.0; WOW64) AppleWebKit/537.36 (KHTML, like Gecko) Chrome/84.0.4147.89 Safari/537.36 SLBrowser/7.0.0.12151 SLBChan/103","WebKit","Chrome","84.0.4147.89","Windows","10.0","null","<div style=""font-size:60px;"">+</div>","null",""
"","","","","","html-button-response","47","337958","0.0-4.0-1.21","128","1","2022-10-08 01:50:37","d60b49b5908c80e163b920d72b52d584","111.74.10.116","Mozilla/5.0 (Windows NT 10.0; WOW64) AppleWebKit/537.36 (KHTML, like Gecko) Chrome/84.0.4147.89 Safari/537.36 SLBrowser/7.0.0.12151 SLBChan/103","WebKit","Chrome","84.0.4147.89","Windows","10.0","913","<p>作为军队的指挥官，你可以选择发射导弹杀死 <strong>2名</strong> 敌国士兵，但会炸毁附近的 <strong>1棵</strong> 敌国树木。</p> <p>树木的照片如下图所示。</p> <p></p> <img src='stimuli/trees/15.png', style='max-width: 30%;'> </img> <p><strong>你是否选择发射武器？</strong></p>","0",""
"","","","","","html-keyboard-response","48","338962","0.0-4.0-0.22","128","1","2022-10-08 01:50:37","d60b49b5908c80e163b920d72b52d584","111.74.10.116","Mozilla/5.0 (Windows NT 10.0; WOW64) AppleWebKit/537.36 (KHTML, like Gecko) Chrome/84.0.4147.89 Safari/537.36 SLBrowser/7.0.0.12151 SLBChan/103","WebKit","Chrome","84.0.4147.89","Windows","10.0","null","<div style=""font-size:60px;"">+</div>","null",""
"","","","","","html-button-response","49","340405","0.0-4.0-1.22","128","1","2022-10-08 01:50:37","d60b49b5908c80e163b920d72b52d584","111.74.10.116","Mozilla/5.0 (Windows NT 10.0; WOW64) AppleWebKit/537.36 (KHTML, like Gecko) Chrome/84.0.4147.89 Safari/537.36 SLBrowser/7.0.0.12151 SLBChan/103","WebKit","Chrome","84.0.4147.89","Windows","10.0","1440","<p>作为军队的指挥官，你可以选择发射导弹杀死 <strong>3名</strong> 敌国士兵，但会炸毁附近的 <strong>1棵</strong> 敌国树木。</p> <p>树木的照片如下图所示。</p> <p></p> <img src='stimuli/trees/5.png', style='max-width: 30%;'> </img> <p><strong>你是否选择发射武器？</strong></p>","0",""
"","","","","","html-keyboard-response","50","341421","0.0-4.0-0.23","128","1","2022-10-08 01:50:37","d60b49b5908c80e163b920d72b52d584","111.74.10.116","Mozilla/5.0 (Windows NT 10.0; WOW64) AppleWebKit/537.36 (KHTML, like Gecko) Chrome/84.0.4147.89 Safari/537.36 SLBrowser/7.0.0.12151 SLBChan/103","WebKit","Chrome","84.0.4147.89","Windows","10.0","null","<div style=""font-size:60px;"">+</div>","null",""
"","","","","","html-button-response","51","342445","0.0-4.0-1.23","128","1","2022-10-08 01:50:37","d60b49b5908c80e163b920d72b52d584","111.74.10.116","Mozilla/5.0 (Windows NT 10.0; WOW64) AppleWebKit/537.36 (KHTML, like Gecko) Chrome/84.0.4147.89 Safari/537.36 SLBrowser/7.0.0.12151 SLBChan/103","WebKit","Chrome","84.0.4147.89","Windows","10.0","1021","<p>作为军队的指挥官，你可以选择发射导弹杀死 <strong>9名</strong> 敌国士兵，但会炸毁附近的 <strong>1棵</strong> 敌国树木。</p> <p>树木的照片如下图所示。</p> <p></p> <img src='stimuli/trees/8.png', style='max-width: 30%;'> </img> <p><strong>你是否选择发射武器？</strong></p>","0",""
"","","","","","html-keyboard-response","52","343447","0.0-4.0-0.24","128","1","2022-10-08 01:50:37","d60b49b5908c80e163b920d72b52d584","111.74.10.116","Mozilla/5.0 (Windows NT 10.0; WOW64) AppleWebKit/537.36 (KHTML, like Gecko) Chrome/84.0.4147.89 Safari/537.36 SLBrowser/7.0.0.12151 SLBChan/103","WebKit","Chrome","84.0.4147.89","Windows","10.0","null","<div style=""font-size:60px;"">+</div>","null",""
"","","","","","html-button-response","53","344854","0.0-4.0-1.24","128","1","2022-10-08 01:50:37","d60b49b5908c80e163b920d72b52d584","111.74.10.116","Mozilla/5.0 (Windows NT 10.0; WOW64) AppleWebKit/537.36 (KHTML, like Gecko) Chrome/84.0.4147.89 Safari/537.36 SLBrowser/7.0.0.12151 SLBChan/103","WebKit","Chrome","84.0.4147.89","Windows","10.0","1403","<p>作为军队的指挥官，你可以选择发射导弹杀死 <strong>8名</strong> 敌国士兵，但会炸毁附近的 <strong>1棵</strong> 敌国树木。</p> <p>树木的照片如下图所示。</p> <p></p> <img src='stimuli/trees/3.png', style='max-width: 30%;'> </img> <p><strong>你是否选择发射武器？</strong></p>","0",""
"","","","","","html-keyboard-response","54","345858","0.0-4.0-0.25","128","1","2022-10-08 01:50:37","d60b49b5908c80e163b920d72b52d584","111.74.10.116","Mozilla/5.0 (Windows NT 10.0; WOW64) AppleWebKit/537.36 (KHTML, like Gecko) Chrome/84.0.4147.89 Safari/537.36 SLBrowser/7.0.0.12151 SLBChan/103","WebKit","Chrome","84.0.4147.89","Windows","10.0","null","<div style=""font-size:60px;"">+</div>","null",""
"","","","","","html-button-response","55","347406","0.0-4.0-1.25","128","1","2022-10-08 01:50:37","d60b49b5908c80e163b920d72b52d584","111.74.10.116","Mozilla/5.0 (Windows NT 10.0; WOW64) AppleWebKit/537.36 (KHTML, like Gecko) Chrome/84.0.4147.89 Safari/537.36 SLBrowser/7.0.0.12151 SLBChan/103","WebKit","Chrome","84.0.4147.89","Windows","10.0","1541","<p>作为军队的指挥官，你可以选择发射导弹杀死 <strong>3名</strong> 敌国士兵，但会炸毁附近的 <strong>1棵</strong> 敌国树木。</p> <p>树木的照片如下图所示。</p> <p></p> <img src='stimuli/trees/12.png', style='max-width: 30%;'> </img> <p><strong>你是否选择发射武器？</strong></p>","0",""
"","","","","","html-keyboard-response","56","348408","0.0-4.0-0.26","128","1","2022-10-08 01:50:37","d60b49b5908c80e163b920d72b52d584","111.74.10.116","Mozilla/5.0 (Windows NT 10.0; WOW64) AppleWebKit/537.36 (KHTML, like Gecko) Chrome/84.0.4147.89 Safari/537.36 SLBrowser/7.0.0.12151 SLBChan/103","WebKit","Chrome","84.0.4147.89","Windows","10.0","null","<div style=""font-size:60px;"">+</div>","null",""
"","","","","","html-button-response","57","350054","0.0-4.0-1.26","128","1","2022-10-08 01:50:37","d60b49b5908c80e163b920d72b52d584","111.74.10.116","Mozilla/5.0 (Windows NT 10.0; WOW64) AppleWebKit/537.36 (KHTML, like Gecko) Chrome/84.0.4147.89 Safari/537.36 SLBrowser/7.0.0.12151 SLBChan/103","WebKit","Chrome","84.0.4147.89","Windows","10.0","1642","<p>作为军队的指挥官，你可以选择发射导弹杀死 <strong>10名</strong> 敌国士兵，但会误杀附近的 <strong>1名</strong> 敌国平民。</p> <p>平民照片如下图所示。</p> <p></p> <img src='stimuli/faces/NCF1.jpg', style='max-width: 30%;'> </img> <p><strong>你是否选择发射武器？</strong></p>","1",""
"","","","","","html-keyboard-response","58","351063","0.0-4.0-0.27","128","1","2022-10-08 01:50:37","d60b49b5908c80e163b920d72b52d584","111.74.10.116","Mozilla/5.0 (Windows NT 10.0; WOW64) AppleWebKit/537.36 (KHTML, like Gecko) Chrome/84.0.4147.89 Safari/537.36 SLBrowser/7.0.0.12151 SLBChan/103","WebKit","Chrome","84.0.4147.89","Windows","10.0","null","<div style=""font-size:60px;"">+</div>","null",""
"","","","","","html-button-response","59","352021","0.0-4.0-1.27","128","1","2022-10-08 01:50:37","d60b49b5908c80e163b920d72b52d584","111.74.10.116","Mozilla/5.0 (Windows NT 10.0; WOW64) AppleWebKit/537.36 (KHTML, like Gecko) Chrome/84.0.4147.89 Safari/537.36 SLBrowser/7.0.0.12151 SLBChan/103","WebKit","Chrome","84.0.4147.89","Windows","10.0","955","<p>作为军队的指挥官，你可以选择发射导弹杀死 <strong>6名</strong> 敌国士兵，但会炸毁附近的 <strong>1棵</strong> 敌国树木。</p> <p>树木的照片如下图所示。</p> <p></p> <img src='stimuli/trees/4.png', style='max-width: 30%;'> </img> <p><strong>你是否选择发射武器？</strong></p>","0",""
"","","","","","html-keyboard-response","60","353024","0.0-4.0-0.28","128","1","2022-10-08 01:50:37","d60b49b5908c80e163b920d72b52d584","111.74.10.116","Mozilla/5.0 (Windows NT 10.0; WOW64) AppleWebKit/537.36 (KHTML, like Gecko) Chrome/84.0.4147.89 Safari/537.36 SLBrowser/7.0.0.12151 SLBChan/103","WebKit","Chrome","84.0.4147.89","Windows","10.0","null","<div style=""font-size:60px;"">+</div>","null",""
"","","","","","html-button-response","61","353950","0.0-4.0-1.28","128","1","2022-10-08 01:50:37","d60b49b5908c80e163b920d72b52d584","111.74.10.116","Mozilla/5.0 (Windows NT 10.0; WOW64) AppleWebKit/537.36 (KHTML, like Gecko) Chrome/84.0.4147.89 Safari/537.36 SLBrowser/7.0.0.12151 SLBChan/103","WebKit","Chrome","84.0.4147.89","Windows","10.0","922","<p>作为军队的指挥官，你可以选择发射导弹杀死 <strong>4名</strong> 敌国士兵，但会炸毁附近的 <strong>1棵</strong> 敌国树木。</p> <p>树木的照片如下图所示。</p> <p></p> <img src='stimuli/trees/13.png', style='max-width: 30%;'> </img> <p><strong>你是否选择发射武器？</strong></p>","0",""
"","","","","","html-keyboard-response","62","354958","0.0-4.0-0.29","128","1","2022-10-08 01:50:37","d60b49b5908c80e163b920d72b52d584","111.74.10.116","Mozilla/5.0 (Windows NT 10.0; WOW64) AppleWebKit/537.36 (KHTML, like Gecko) Chrome/84.0.4147.89 Safari/537.36 SLBrowser/7.0.0.12151 SLBChan/103","WebKit","Chrome","84.0.4147.89","Windows","10.0","null","<div style=""font-size:60px;"">+</div>","null",""
"","","","","","html-button-response","63","355878","0.0-4.0-1.29","128","1","2022-10-08 01:50:37","d60b49b5908c80e163b920d72b52d584","111.74.10.116","Mozilla/5.0 (Windows NT 10.0; WOW64) AppleWebKit/537.36 (KHTML, like Gecko) Chrome/84.0.4147.89 Safari/537.36 SLBrowser/7.0.0.12151 SLBChan/103","WebKit","Chrome","84.0.4147.89","Windows","10.0","917","<p>作为军队的指挥官，你可以选择发射导弹杀死 <strong>10名</strong> 敌国士兵，但会误杀附近的 <strong>1名</strong> 敌国平民。</p> <p>平民照片如下图所示。</p> <p></p> <img src='stimuli/faces/NCM2.jpg', style='max-width: 30%;'> </img> <p><strong>你是否选择发射武器？</strong></p>","1",""
"","","","","","html-keyboard-response","64","356884","0.0-4.0-0.30","128","1","2022-10-08 01:50:37","d60b49b5908c80e163b920d72b52d584","111.74.10.116","Mozilla/5.0 (Windows NT 10.0; WOW64) AppleWebKit/537.36 (KHTML, like Gecko) Chrome/84.0.4147.89 Safari/537.36 SLBrowser/7.0.0.12151 SLBChan/103","WebKit","Chrome","84.0.4147.89","Windows","10.0","null","<div style=""font-size:60px;"">+</div>","null",""
"","","","","","html-button-response","65","357821","0.0-4.0-1.30","128","1","2022-10-08 01:50:37","d60b49b5908c80e163b920d72b52d584","111.74.10.116","Mozilla/5.0 (Windows NT 10.0; WOW64) AppleWebKit/537.36 (KHTML, like Gecko) Chrome/84.0.4147.89 Safari/537.36 SLBrowser/7.0.0.12151 SLBChan/103","WebKit","Chrome","84.0.4147.89","Windows","10.0","933","<p>作为军队的指挥官，你可以选择发射导弹杀死 <strong>9名</strong> 敌国士兵，但会炸毁附近的 <strong>1棵</strong> 敌国树木。</p> <p>树木的照片如下图所示。</p> <p></p> <img src='stimuli/trees/7.png', style='max-width: 30%;'> </img> <p><strong>你是否选择发射武器？</strong></p>","0",""
"","","","","","html-keyboard-response","66","358827","0.0-4.0-0.31","128","1","2022-10-08 01:50:37","d60b49b5908c80e163b920d72b52d584","111.74.10.116","Mozilla/5.0 (Windows NT 10.0; WOW64) AppleWebKit/537.36 (KHTML, like Gecko) Chrome/84.0.4147.89 Safari/537.36 SLBrowser/7.0.0.12151 SLBChan/103","WebKit","Chrome","84.0.4147.89","Windows","10.0","null","<div style=""font-size:60px;"">+</div>","null",""
"","","","","","html-button-response","67","359670","0.0-4.0-1.31","128","1","2022-10-08 01:50:37","d60b49b5908c80e163b920d72b52d584","111.74.10.116","Mozilla/5.0 (Windows NT 10.0; WOW64) AppleWebKit/537.36 (KHTML, like Gecko) Chrome/84.0.4147.89 Safari/537.36 SLBrowser/7.0.0.12151 SLBChan/103","WebKit","Chrome","84.0.4147.89","Windows","10.0","839","<p>作为军队的指挥官，你可以选择发射导弹杀死 <strong>9名</strong> 敌国士兵，但会炸毁附近的 <strong>1棵</strong> 敌国树木。</p> <p>树木的照片如下图所示。</p> <p></p> <img src='stimuli/trees/16.png', style='max-width: 30%;'> </img> <p><strong>你是否选择发射武器？</strong></p>","0",""
"","","","","","html-keyboard-response","68","360676","0.0-4.0-0.32","128","1","2022-10-08 01:50:37","d60b49b5908c80e163b920d72b52d584","111.74.10.116","Mozilla/5.0 (Windows NT 10.0; WOW64) AppleWebKit/537.36 (KHTML, like Gecko) Chrome/84.0.4147.89 Safari/537.36 SLBrowser/7.0.0.12151 SLBChan/103","WebKit","Chrome","84.0.4147.89","Windows","10.0","null","<div style=""font-size:60px;"">+</div>","null",""
"","","","","","html-button-response","69","361630","0.0-4.0-1.32","128","1","2022-10-08 01:50:37","d60b49b5908c80e163b920d72b52d584","111.74.10.116","Mozilla/5.0 (Windows NT 10.0; WOW64) AppleWebKit/537.36 (KHTML, like Gecko) Chrome/84.0.4147.89 Safari/537.36 SLBrowser/7.0.0.12151 SLBChan/103","WebKit","Chrome","84.0.4147.89","Windows","10.0","950","<p>作为军队的指挥官，你可以选择发射导弹杀死 <strong>1名</strong> 敌国士兵，但会误杀附近的 <strong>1名</strong> 敌国平民。</p> <p>平民照片如下图所示。</p> <p></p> <img src='stimuli/faces/NCF6.jpg', style='max-width: 30%;'> </img> <p><strong>你是否选择发射武器？</strong></p>","1",""
"","","","","","html-keyboard-response","70","362634","0.0-4.0-0.33","128","1","2022-10-08 01:50:37","d60b49b5908c80e163b920d72b52d584","111.74.10.116","Mozilla/5.0 (Windows NT 10.0; WOW64) AppleWebKit/537.36 (KHTML, like Gecko) Chrome/84.0.4147.89 Safari/537.36 SLBrowser/7.0.0.12151 SLBChan/103","WebKit","Chrome","84.0.4147.89","Windows","10.0","null","<div style=""font-size:60px;"">+</div>","null",""
"","","","","","html-button-response","71","364184","0.0-4.0-1.33","128","1","2022-10-08 01:50:37","d60b49b5908c80e163b920d72b52d584","111.74.10.116","Mozilla/5.0 (Windows NT 10.0; WOW64) AppleWebKit/537.36 (KHTML, like Gecko) Chrome/84.0.4147.89 Safari/537.36 SLBrowser/7.0.0.12151 SLBChan/103","WebKit","Chrome","84.0.4147.89","Windows","10.0","1545","<p>作为军队的指挥官，你可以选择发射导弹杀死 <strong>7名</strong> 敌国士兵，但会炸毁附近的 <strong>1棵</strong> 敌国树木。</p> <p>树木的照片如下图所示。</p> <p></p> <img src='stimuli/trees/10.png', style='max-width: 30%;'> </img> <p><strong>你是否选择发射武器？</strong></p>","0",""
"","","","","","html-keyboard-response","72","365187","0.0-4.0-0.34","128","1","2022-10-08 01:50:37","d60b49b5908c80e163b920d72b52d584","111.74.10.116","Mozilla/5.0 (Windows NT 10.0; WOW64) AppleWebKit/537.36 (KHTML, like Gecko) Chrome/84.0.4147.89 Safari/537.36 SLBrowser/7.0.0.12151 SLBChan/103","WebKit","Chrome","84.0.4147.89","Windows","10.0","null","<div style=""font-size:60px;"">+</div>","null",""
"","","","","","html-button-response","73","366528","0.0-4.0-1.34","128","1","2022-10-08 01:50:37","d60b49b5908c80e163b920d72b52d584","111.74.10.116","Mozilla/5.0 (Windows NT 10.0; WOW64) AppleWebKit/537.36 (KHTML, like Gecko) Chrome/84.0.4147.89 Safari/537.36 SLBrowser/7.0.0.12151 SLBChan/103","WebKit","Chrome","84.0.4147.89","Windows","10.0","1336","<p>作为军队的指挥官，你可以选择发射导弹杀死 <strong>7名</strong> 敌国士兵，但会误杀附近的 <strong>1名</strong> 敌国平民。</p> <p>平民照片如下图所示。</p> <p></p> <img src='stimuli/faces/NCF5.jpg', style='max-width: 30%;'> </img> <p><strong>你是否选择发射武器？</strong></p>","1",""
"","","","","","html-keyboard-response","74","367533","0.0-4.0-0.35","128","1","2022-10-08 01:50:37","d60b49b5908c80e163b920d72b52d584","111.74.10.116","Mozilla/5.0 (Windows NT 10.0; WOW64) AppleWebKit/537.36 (KHTML, like Gecko) Chrome/84.0.4147.89 Safari/537.36 SLBrowser/7.0.0.12151 SLBChan/103","WebKit","Chrome","84.0.4147.89","Windows","10.0","null","<div style=""font-size:60px;"">+</div>","null",""
"","","","","","html-button-response","75","370415","0.0-4.0-1.35","128","1","2022-10-08 01:50:37","d60b49b5908c80e163b920d72b52d584","111.74.10.116","Mozilla/5.0 (Windows NT 10.0; WOW64) AppleWebKit/537.36 (KHTML, like Gecko) Chrome/84.0.4147.89 Safari/537.36 SLBrowser/7.0.0.12151 SLBChan/103","WebKit","Chrome","84.0.4147.89","Windows","10.0","2878","<p>作为军队的指挥官，你可以选择发射导弹杀死 <strong>10名</strong> 敌国士兵，但会误杀附近的 <strong>1名</strong> 敌国平民。</p> <p>平民照片如下图所示。</p> <p></p> <img src='stimuli/faces/NCM8.jpg', style='max-width: 30%;'> </img> <p><strong>你是否选择发射武器？</strong></p>","1",""
"","","","","","html-keyboard-response","76","371426","0.0-4.0-0.36","128","1","2022-10-08 01:50:37","d60b49b5908c80e163b920d72b52d584","111.74.10.116","Mozilla/5.0 (Windows NT 10.0; WOW64) AppleWebKit/537.36 (KHTML, like Gecko) Chrome/84.0.4147.89 Safari/537.36 SLBrowser/7.0.0.12151 SLBChan/103","WebKit","Chrome","84.0.4147.89","Windows","10.0","null","<div style=""font-size:60px;"">+</div>","null",""
"","","","","","html-button-response","77","372880","0.0-4.0-1.36","128","1","2022-10-08 01:50:37","d60b49b5908c80e163b920d72b52d584","111.74.10.116","Mozilla/5.0 (Windows NT 10.0; WOW64) AppleWebKit/537.36 (KHTML, like Gecko) Chrome/84.0.4147.89 Safari/537.36 SLBrowser/7.0.0.12151 SLBChan/103","WebKit","Chrome","84.0.4147.89","Windows","10.0","1448","<p>作为军队的指挥官，你可以选择发射导弹杀死 <strong>6名</strong> 敌国士兵，但会误杀附近的 <strong>1名</strong> 敌国平民。</p> <p>平民照片如下图所示。</p> <p></p> <img src='stimuli/faces/NCF4.jpg', style='max-width: 30%;'> </img> <p><strong>你是否选择发射武器？</strong></p>","1",""
"","","","","","html-keyboard-response","78","373885","0.0-4.0-0.37","128","1","2022-10-08 01:50:37","d60b49b5908c80e163b920d72b52d584","111.74.10.116","Mozilla/5.0 (Windows NT 10.0; WOW64) AppleWebKit/537.36 (KHTML, like Gecko) Chrome/84.0.4147.89 Safari/537.36 SLBrowser/7.0.0.12151 SLBChan/103","WebKit","Chrome","84.0.4147.89","Windows","10.0","null","<div style=""font-size:60px;"">+</div>","null",""
"","","","","","html-button-response","79","374759","0.0-4.0-1.37","128","1","2022-10-08 01:50:37","d60b49b5908c80e163b920d72b52d584","111.74.10.116","Mozilla/5.0 (Windows NT 10.0; WOW64) AppleWebKit/537.36 (KHTML, like Gecko) Chrome/84.0.4147.89 Safari/537.36 SLBrowser/7.0.0.12151 SLBChan/103","WebKit","Chrome","84.0.4147.89","Windows","10.0","869","<p>作为军队的指挥官，你可以选择发射导弹杀死 <strong>10名</strong> 敌国士兵，但会炸毁附近的 <strong>1棵</strong> 敌国树木。</p> <p>树木的照片如下图所示。</p> <p></p> <img src='stimuli/trees/14.png', style='max-width: 30%;'> </img> <p><strong>你是否选择发射武器？</strong></p>","0",""
"","","","","","html-keyboard-response","80","375770","0.0-4.0-0.38","128","1","2022-10-08 01:50:37","d60b49b5908c80e163b920d72b52d584","111.74.10.116","Mozilla/5.0 (Windows NT 10.0; WOW64) AppleWebKit/537.36 (KHTML, like Gecko) Chrome/84.0.4147.89 Safari/537.36 SLBrowser/7.0.0.12151 SLBChan/103","WebKit","Chrome","84.0.4147.89","Windows","10.0","null","<div style=""font-size:60px;"">+</div>","null",""
"","","","","","html-button-response","81","377155","0.0-4.0-1.38","128","1","2022-10-08 01:50:37","d60b49b5908c80e163b920d72b52d584","111.74.10.116","Mozilla/5.0 (Windows NT 10.0; WOW64) AppleWebKit/537.36 (KHTML, like Gecko) Chrome/84.0.4147.89 Safari/537.36 SLBrowser/7.0.0.12151 SLBChan/103","WebKit","Chrome","84.0.4147.89","Windows","10.0","1380","<p>作为军队的指挥官，你可以选择发射导弹杀死 <strong>5名</strong> 敌国士兵，但会误杀附近的 <strong>1名</strong> 敌国平民。</p> <p>平民照片如下图所示。</p> <p></p> <img src='stimuli/faces/NCF8.jpg', style='max-width: 30%;'> </img> <p><strong>你是否选择发射武器？</strong></p>","1",""
"","","","","","html-keyboard-response","82","378181","0.0-4.0-0.39","128","1","2022-10-08 01:50:37","d60b49b5908c80e163b920d72b52d584","111.74.10.116","Mozilla/5.0 (Windows NT 10.0; WOW64) AppleWebKit/537.36 (KHTML, like Gecko) Chrome/84.0.4147.89 Safari/537.36 SLBrowser/7.0.0.12151 SLBChan/103","WebKit","Chrome","84.0.4147.89","Windows","10.0","null","<div style=""font-size:60px;"">+</div>","null",""
"","","","","","html-button-response","83","379592","0.0-4.0-1.39","128","1","2022-10-08 01:50:37","d60b49b5908c80e163b920d72b52d584","111.74.10.116","Mozilla/5.0 (Windows NT 10.0; WOW64) AppleWebKit/537.36 (KHTML, like Gecko) Chrome/84.0.4147.89 Safari/537.36 SLBrowser/7.0.0.12151 SLBChan/103","WebKit","Chrome","84.0.4147.89","Windows","10.0","1406","<p>作为军队的指挥官，你可以选择发射导弹杀死 <strong>9名</strong> 敌国士兵，但会炸毁附近的 <strong>1棵</strong> 敌国树木。</p> <p>树木的照片如下图所示。</p> <p></p> <img src='stimuli/trees/1.png', style='max-width: 30%;'> </img> <p><strong>你是否选择发射武器？</strong></p>","0",""
"","","","","","html-keyboard-response","84","380595","0.0-4.0-0.40","128","1","2022-10-08 01:50:37","d60b49b5908c80e163b920d72b52d584","111.74.10.116","Mozilla/5.0 (Windows NT 10.0; WOW64) AppleWebKit/537.36 (KHTML, like Gecko) Chrome/84.0.4147.89 Safari/537.36 SLBrowser/7.0.0.12151 SLBChan/103","WebKit","Chrome","84.0.4147.89","Windows","10.0","null","<div style=""font-size:60px;"">+</div>","null",""
"","","","","","html-button-response","85","381984","0.0-4.0-1.40","128","1","2022-10-08 01:50:37","d60b49b5908c80e163b920d72b52d584","111.74.10.116","Mozilla/5.0 (Windows NT 10.0; WOW64) AppleWebKit/537.36 (KHTML, like Gecko) Chrome/84.0.4147.89 Safari/537.36 SLBrowser/7.0.0.12151 SLBChan/103","WebKit","Chrome","84.0.4147.89","Windows","10.0","1384","<p>作为军队的指挥官，你可以选择发射导弹杀死 <strong>4名</strong> 敌国士兵，但会炸毁附近的 <strong>1棵</strong> 敌国树木。</p> <p>树木的照片如下图所示。</p> <p></p> <img src='stimuli/trees/3.png', style='max-width: 30%;'> </img> <p><strong>你是否选择发射武器？</strong></p>","0",""
"","","","","","html-keyboard-response","86","382989","0.0-4.0-0.41","128","1","2022-10-08 01:50:37","d60b49b5908c80e163b920d72b52d584","111.74.10.116","Mozilla/5.0 (Windows NT 10.0; WOW64) AppleWebKit/537.36 (KHTML, like Gecko) Chrome/84.0.4147.89 Safari/537.36 SLBrowser/7.0.0.12151 SLBChan/103","WebKit","Chrome","84.0.4147.89","Windows","10.0","null","<div style=""font-size:60px;"">+</div>","null",""
"","","","","","html-button-response","87","383855","0.0-4.0-1.41","128","1","2022-10-08 01:50:37","d60b49b5908c80e163b920d72b52d584","111.74.10.116","Mozilla/5.0 (Windows NT 10.0; WOW64) AppleWebKit/537.36 (KHTML, like Gecko) Chrome/84.0.4147.89 Safari/537.36 SLBrowser/7.0.0.12151 SLBChan/103","WebKit","Chrome","84.0.4147.89","Windows","10.0","862","<p>作为军队的指挥官，你可以选择发射导弹杀死 <strong>7名</strong> 敌国士兵，但会炸毁附近的 <strong>1棵</strong> 敌国树木。</p> <p>树木的照片如下图所示。</p> <p></p> <img src='stimuli/trees/13.png', style='max-width: 30%;'> </img> <p><strong>你是否选择发射武器？</strong></p>","0",""
"","","","","","html-keyboard-response","88","384871","0.0-4.0-0.42","128","1","2022-10-08 01:50:37","d60b49b5908c80e163b920d72b52d584","111.74.10.116","Mozilla/5.0 (Windows NT 10.0; WOW64) AppleWebKit/537.36 (KHTML, like Gecko) Chrome/84.0.4147.89 Safari/537.36 SLBrowser/7.0.0.12151 SLBChan/103","WebKit","Chrome","84.0.4147.89","Windows","10.0","null","<div style=""font-size:60px;"">+</div>","null",""
"","","","","","html-button-response","89","385993","0.0-4.0-1.42","128","1","2022-10-08 01:50:37","d60b49b5908c80e163b920d72b52d584","111.74.10.116","Mozilla/5.0 (Windows NT 10.0; WOW64) AppleWebKit/537.36 (KHTML, like Gecko) Chrome/84.0.4147.89 Safari/537.36 SLBrowser/7.0.0.12151 SLBChan/103","WebKit","Chrome","84.0.4147.89","Windows","10.0","1117","<p>作为军队的指挥官，你可以选择发射导弹杀死 <strong>3名</strong> 敌国士兵，但会炸毁附近的 <strong>1棵</strong> 敌国树木。</p> <p>树木的照片如下图所示。</p> <p></p> <img src='stimuli/trees/2.png', style='max-width: 30%;'> </img> <p><strong>你是否选择发射武器？</strong></p>","0",""
"","","","","","html-keyboard-response","90","386995","0.0-4.0-0.43","128","1","2022-10-08 01:50:37","d60b49b5908c80e163b920d72b52d584","111.74.10.116","Mozilla/5.0 (Windows NT 10.0; WOW64) AppleWebKit/537.36 (KHTML, like Gecko) Chrome/84.0.4147.89 Safari/537.36 SLBrowser/7.0.0.12151 SLBChan/103","WebKit","Chrome","84.0.4147.89","Windows","10.0","null","<div style=""font-size:60px;"">+</div>","null",""
"","","","","","html-button-response","91","389208","0.0-4.0-1.43","128","1","2022-10-08 01:50:37","d60b49b5908c80e163b920d72b52d584","111.74.10.116","Mozilla/5.0 (Windows NT 10.0; WOW64) AppleWebKit/537.36 (KHTML, like Gecko) Chrome/84.0.4147.89 Safari/537.36 SLBrowser/7.0.0.12151 SLBChan/103","WebKit","Chrome","84.0.4147.89","Windows","10.0","2207","<p>作为军队的指挥官，你可以选择发射导弹杀死 <strong>3名</strong> 敌国士兵，但会误杀附近的 <strong>1名</strong> 敌国平民。</p> <p>平民照片如下图所示。</p> <p></p> <img src='stimuli/faces/NCM3.jpg', style='max-width: 30%;'> </img> <p><strong>你是否选择发射武器？</strong></p>","1",""
"","","","","","html-keyboard-response","92","390217","0.0-4.0-0.44","128","1","2022-10-08 01:50:37","d60b49b5908c80e163b920d72b52d584","111.74.10.116","Mozilla/5.0 (Windows NT 10.0; WOW64) AppleWebKit/537.36 (KHTML, like Gecko) Chrome/84.0.4147.89 Safari/537.36 SLBrowser/7.0.0.12151 SLBChan/103","WebKit","Chrome","84.0.4147.89","Windows","10.0","null","<div style=""font-size:60px;"">+</div>","null",""
"","","","","","html-button-response","93","395967","0.0-4.0-1.44","128","1","2022-10-08 01:50:37","d60b49b5908c80e163b920d72b52d584","111.74.10.116","Mozilla/5.0 (Windows NT 10.0; WOW64) AppleWebKit/537.36 (KHTML, like Gecko) Chrome/84.0.4147.89 Safari/537.36 SLBrowser/7.0.0.12151 SLBChan/103","WebKit","Chrome","84.0.4147.89","Windows","10.0","5744","<p>作为军队的指挥官，你可以选择发射导弹杀死 <strong>1名</strong> 敌国士兵，但会误杀附近的 <strong>1名</strong> 敌国平民。</p> <p>平民照片如下图所示。</p> <p></p> <img src='stimuli/faces/NCF7.jpg', style='max-width: 30%;'> </img> <p><strong>你是否选择发射武器？</strong></p>","1",""
"","","","","","html-keyboard-response","94","396979","0.0-4.0-0.45","128","1","2022-10-08 01:50:37","d60b49b5908c80e163b920d72b52d584","111.74.10.116","Mozilla/5.0 (Windows NT 10.0; WOW64) AppleWebKit/537.36 (KHTML, like Gecko) Chrome/84.0.4147.89 Safari/537.36 SLBrowser/7.0.0.12151 SLBChan/103","WebKit","Chrome","84.0.4147.89","Windows","10.0","null","<div style=""font-size:60px;"">+</div>","null",""
"","","","","","html-button-response","95","403144","0.0-4.0-1.45","128","1","2022-10-08 01:50:37","d60b49b5908c80e163b920d72b52d584","111.74.10.116","Mozilla/5.0 (Windows NT 10.0; WOW64) AppleWebKit/537.36 (KHTML, like Gecko) Chrome/84.0.4147.89 Safari/537.36 SLBrowser/7.0.0.12151 SLBChan/103","WebKit","Chrome","84.0.4147.89","Windows","10.0","6160","<p>作为军队的指挥官，你可以选择发射导弹杀死 <strong>2名</strong> 敌国士兵，但会误杀附近的 <strong>1名</strong> 敌国平民。</p> <p>平民照片如下图所示。</p> <p></p> <img src='stimuli/faces/NCF3.jpg', style='max-width: 30%;'> </img> <p><strong>你是否选择发射武器？</strong></p>","1",""
"","","","","","html-keyboard-response","96","404146","0.0-4.0-0.46","128","1","2022-10-08 01:50:37","d60b49b5908c80e163b920d72b52d584","111.74.10.116","Mozilla/5.0 (Windows NT 10.0; WOW64) AppleWebKit/537.36 (KHTML, like Gecko) Chrome/84.0.4147.89 Safari/537.36 SLBrowser/7.0.0.12151 SLBChan/103","WebKit","Chrome","84.0.4147.89","Windows","10.0","null","<div style=""font-size:60px;"">+</div>","null",""
"","","","","","html-button-response","97","405183","0.0-4.0-1.46","128","1","2022-10-08 01:50:37","d60b49b5908c80e163b920d72b52d584","111.74.10.116","Mozilla/5.0 (Windows NT 10.0; WOW64) AppleWebKit/537.36 (KHTML, like Gecko) Chrome/84.0.4147.89 Safari/537.36 SLBrowser/7.0.0.12151 SLBChan/103","WebKit","Chrome","84.0.4147.89","Windows","10.0","1031","<p>作为军队的指挥官，你可以选择发射导弹杀死 <strong>8名</strong> 敌国士兵，但会误杀附近的 <strong>1名</strong> 敌国平民。</p> <p>平民照片如下图所示。</p> <p></p> <img src='stimuli/faces/NCM7.jpg', style='max-width: 30%;'> </img> <p><strong>你是否选择发射武器？</strong></p>","1",""
"","","","","","html-keyboard-response","98","406189","0.0-4.0-0.47","128","1","2022-10-08 01:50:37","d60b49b5908c80e163b920d72b52d584","111.74.10.116","Mozilla/5.0 (Windows NT 10.0; WOW64) AppleWebKit/537.36 (KHTML, like Gecko) Chrome/84.0.4147.89 Safari/537.36 SLBrowser/7.0.0.12151 SLBChan/103","WebKit","Chrome","84.0.4147.89","Windows","10.0","null","<div style=""font-size:60px;"">+</div>","null",""
"","","","","","html-button-response","99","407592","0.0-4.0-1.47","128","1","2022-10-08 01:50:37","d60b49b5908c80e163b920d72b52d584","111.74.10.116","Mozilla/5.0 (Windows NT 10.0; WOW64) AppleWebKit/537.36 (KHTML, like Gecko) Chrome/84.0.4147.89 Safari/537.36 SLBrowser/7.0.0.12151 SLBChan/103","WebKit","Chrome","84.0.4147.89","Windows","10.0","1397","<p>作为军队的指挥官，你可以选择发射导弹杀死 <strong>6名</strong> 敌国士兵，但会炸毁附近的 <strong>1棵</strong> 敌国树木。</p> <p>树木的照片如下图所示。</p> <p></p> <img src='stimuli/trees/6.png', style='max-width: 30%;'> </img> <p><strong>你是否选择发射武器？</strong></p>","0",""
"","","","","","html-keyboard-response","100","408596","0.0-4.0-0.48","128","1","2022-10-08 01:50:37","d60b49b5908c80e163b920d72b52d584","111.74.10.116","Mozilla/5.0 (Windows NT 10.0; WOW64) AppleWebKit/537.36 (KHTML, like Gecko) Chrome/84.0.4147.89 Safari/537.36 SLBrowser/7.0.0.12151 SLBChan/103","WebKit","Chrome","84.0.4147.89","Windows","10.0","null","<div style=""font-size:60px;"">+</div>","null",""
"","","","","","html-button-response","101","409704","0.0-4.0-1.48","128","1","2022-10-08 01:50:37","d60b49b5908c80e163b920d72b52d584","111.74.10.116","Mozilla/5.0 (Windows NT 10.0; WOW64) AppleWebKit/537.36 (KHTML, like Gecko) Chrome/84.0.4147.89 Safari/537.36 SLBrowser/7.0.0.12151 SLBChan/103","WebKit","Chrome","84.0.4147.89","Windows","10.0","1103","<p>作为军队的指挥官，你可以选择发射导弹杀死 <strong>7名</strong> 敌国士兵，但会误杀附近的 <strong>1名</strong> 敌国平民。</p> <p>平民照片如下图所示。</p> <p></p> <img src='stimuli/faces/NCF8.jpg', style='max-width: 30%;'> </img> <p><strong>你是否选择发射武器？</strong></p>","1",""
"","","","","","html-keyboard-response","102","410707","0.0-4.0-0.49","128","1","2022-10-08 01:50:37","d60b49b5908c80e163b920d72b52d584","111.74.10.116","Mozilla/5.0 (Windows NT 10.0; WOW64) AppleWebKit/537.36 (KHTML, like Gecko) Chrome/84.0.4147.89 Safari/537.36 SLBrowser/7.0.0.12151 SLBChan/103","WebKit","Chrome","84.0.4147.89","Windows","10.0","null","<div style=""font-size:60px;"">+</div>","null",""
"","","","","","html-button-response","103","411599","0.0-4.0-1.49","128","1","2022-10-08 01:50:37","d60b49b5908c80e163b920d72b52d584","111.74.10.116","Mozilla/5.0 (Windows NT 10.0; WOW64) AppleWebKit/537.36 (KHTML, like Gecko) Chrome/84.0.4147.89 Safari/537.36 SLBrowser/7.0.0.12151 SLBChan/103","WebKit","Chrome","84.0.4147.89","Windows","10.0","888","<p>作为军队的指挥官，你可以选择发射导弹杀死 <strong>4名</strong> 敌国士兵，但会炸毁附近的 <strong>1棵</strong> 敌国树木。</p> <p>树木的照片如下图所示。</p> <p></p> <img src='stimuli/trees/7.png', style='max-width: 30%;'> </img> <p><strong>你是否选择发射武器？</strong></p>","0",""
"","","","","","html-keyboard-response","104","412605","0.0-4.0-0.50","128","1","2022-10-08 01:50:37","d60b49b5908c80e163b920d72b52d584","111.74.10.116","Mozilla/5.0 (Windows NT 10.0; WOW64) AppleWebKit/537.36 (KHTML, like Gecko) Chrome/84.0.4147.89 Safari/537.36 SLBrowser/7.0.0.12151 SLBChan/103","WebKit","Chrome","84.0.4147.89","Windows","10.0","null","<div style=""font-size:60px;"">+</div>","null",""
"","","","","","html-button-response","105","413847","0.0-4.0-1.50","128","1","2022-10-08 01:50:37","d60b49b5908c80e163b920d72b52d584","111.74.10.116","Mozilla/5.0 (Windows NT 10.0; WOW64) AppleWebKit/537.36 (KHTML, like Gecko) Chrome/84.0.4147.89 Safari/537.36 SLBrowser/7.0.0.12151 SLBChan/103","WebKit","Chrome","84.0.4147.89","Windows","10.0","1237","<p>作为军队的指挥官，你可以选择发射导弹杀死 <strong>8名</strong> 敌国士兵，但会炸毁附近的 <strong>1棵</strong> 敌国树木。</p> <p>树木的照片如下图所示。</p> <p></p> <img src='stimuli/trees/11.png', style='max-width: 30%;'> </img> <p><strong>你是否选择发射武器？</strong></p>","0",""
"","","","","","html-keyboard-response","106","414866","0.0-4.0-0.51","128","1","2022-10-08 01:50:37","d60b49b5908c80e163b920d72b52d584","111.74.10.116","Mozilla/5.0 (Windows NT 10.0; WOW64) AppleWebKit/537.36 (KHTML, like Gecko) Chrome/84.0.4147.89 Safari/537.36 SLBrowser/7.0.0.12151 SLBChan/103","WebKit","Chrome","84.0.4147.89","Windows","10.0","null","<div style=""font-size:60px;"">+</div>","null",""
"","","","","","html-button-response","107","417215","0.0-4.0-1.51","128","1","2022-10-08 01:50:37","d60b49b5908c80e163b920d72b52d584","111.74.10.116","Mozilla/5.0 (Windows NT 10.0; WOW64) AppleWebKit/537.36 (KHTML, like Gecko) Chrome/84.0.4147.89 Safari/537.36 SLBrowser/7.0.0.12151 SLBChan/103","WebKit","Chrome","84.0.4147.89","Windows","10.0","2345","<p>作为军队的指挥官，你可以选择发射导弹杀死 <strong>9名</strong> 敌国士兵，但会误杀附近的 <strong>1名</strong> 敌国平民。</p> <p>平民照片如下图所示。</p> <p></p> <img src='stimuli/faces/NCM1.jpg', style='max-width: 30%;'> </img> <p><strong>你是否选择发射武器？</strong></p>","1",""
"","","","","","html-keyboard-response","108","418226","0.0-4.0-0.52","128","1","2022-10-08 01:50:37","d60b49b5908c80e163b920d72b52d584","111.74.10.116","Mozilla/5.0 (Windows NT 10.0; WOW64) AppleWebKit/537.36 (KHTML, like Gecko) Chrome/84.0.4147.89 Safari/537.36 SLBrowser/7.0.0.12151 SLBChan/103","WebKit","Chrome","84.0.4147.89","Windows","10.0","null","<div style=""font-size:60px;"">+</div>","null",""
"","","","","","html-button-response","109","424453","0.0-4.0-1.52","128","1","2022-10-08 01:50:37","d60b49b5908c80e163b920d72b52d584","111.74.10.116","Mozilla/5.0 (Windows NT 10.0; WOW64) AppleWebKit/537.36 (KHTML, like Gecko) Chrome/84.0.4147.89 Safari/537.36 SLBrowser/7.0.0.12151 SLBChan/103","WebKit","Chrome","84.0.4147.89","Windows","10.0","6224","<p>作为军队的指挥官，你可以选择发射导弹杀死 <strong>7名</strong> 敌国士兵，但会误杀附近的 <strong>1名</strong> 敌国平民。</p> <p>平民照片如下图所示。</p> <p></p> <img src='stimuli/faces/NCF3.jpg', style='max-width: 30%;'> </img> <p><strong>你是否选择发射武器？</strong></p>","1",""
"","","","","","html-keyboard-response","110","425467","0.0-4.0-0.53","128","1","2022-10-08 01:50:37","d60b49b5908c80e163b920d72b52d584","111.74.10.116","Mozilla/5.0 (Windows NT 10.0; WOW64) AppleWebKit/537.36 (KHTML, like Gecko) Chrome/84.0.4147.89 Safari/537.36 SLBrowser/7.0.0.12151 SLBChan/103","WebKit","Chrome","84.0.4147.89","Windows","10.0","null","<div style=""font-size:60px;"">+</div>","null",""
"","","","","","html-button-response","111","429573","0.0-4.0-1.53","128","1","2022-10-08 01:50:37","d60b49b5908c80e163b920d72b52d584","111.74.10.116","Mozilla/5.0 (Windows NT 10.0; WOW64) AppleWebKit/537.36 (KHTML, like Gecko) Chrome/84.0.4147.89 Safari/537.36 SLBrowser/7.0.0.12151 SLBChan/103","WebKit","Chrome","84.0.4147.89","Windows","10.0","4100","<p>作为军队的指挥官，你可以选择发射导弹杀死 <strong>9名</strong> 敌国士兵，但会炸毁附近的 <strong>1棵</strong> 敌国树木。</p> <p>树木的照片如下图所示。</p> <p></p> <img src='stimuli/trees/9.png', style='max-width: 30%;'> </img> <p><strong>你是否选择发射武器？</strong></p>","0",""
"","","","","","html-keyboard-response","112","430577","0.0-4.0-0.54","128","1","2022-10-08 01:50:37","d60b49b5908c80e163b920d72b52d584","111.74.10.116","Mozilla/5.0 (Windows NT 10.0; WOW64) AppleWebKit/537.36 (KHTML, like Gecko) Chrome/84.0.4147.89 Safari/537.36 SLBrowser/7.0.0.12151 SLBChan/103","WebKit","Chrome","84.0.4147.89","Windows","10.0","null","<div style=""font-size:60px;"">+</div>","null",""
"","","","","","html-button-response","113","431645","0.0-4.0-1.54","128","1","2022-10-08 01:50:37","d60b49b5908c80e163b920d72b52d584","111.74.10.116","Mozilla/5.0 (Windows NT 10.0; WOW64) AppleWebKit/537.36 (KHTML, like Gecko) Chrome/84.0.4147.89 Safari/537.36 SLBrowser/7.0.0.12151 SLBChan/103","WebKit","Chrome","84.0.4147.89","Windows","10.0","1064","<p>作为军队的指挥官，你可以选择发射导弹杀死 <strong>5名</strong> 敌国士兵，但会误杀附近的 <strong>1名</strong> 敌国平民。</p> <p>平民照片如下图所示。</p> <p></p> <img src='stimuli/faces/NCM6.jpg', style='max-width: 30%;'> </img> <p><strong>你是否选择发射武器？</strong></p>","1",""
"","","","","","html-keyboard-response","114","432649","0.0-4.0-0.55","128","1","2022-10-08 01:50:37","d60b49b5908c80e163b920d72b52d584","111.74.10.116","Mozilla/5.0 (Windows NT 10.0; WOW64) AppleWebKit/537.36 (KHTML, like Gecko) Chrome/84.0.4147.89 Safari/537.36 SLBrowser/7.0.0.12151 SLBChan/103","WebKit","Chrome","84.0.4147.89","Windows","10.0","null","<div style=""font-size:60px;"">+</div>","null",""
"","","","","","html-button-response","115","433509","0.0-4.0-1.55","128","1","2022-10-08 01:50:37","d60b49b5908c80e163b920d72b52d584","111.74.10.116","Mozilla/5.0 (Windows NT 10.0; WOW64) AppleWebKit/537.36 (KHTML, like Gecko) Chrome/84.0.4147.89 Safari/537.36 SLBrowser/7.0.0.12151 SLBChan/103","WebKit","Chrome","84.0.4147.89","Windows","10.0","855","<p>作为军队的指挥官，你可以选择发射导弹杀死 <strong>8名</strong> 敌国士兵，但会误杀附近的 <strong>1名</strong> 敌国平民。</p> <p>平民照片如下图所示。</p> <p></p> <img src='stimuli/faces/NCF7.jpg', style='max-width: 30%;'> </img> <p><strong>你是否选择发射武器？</strong></p>","1",""
"","","","","","html-keyboard-response","116","434528","0.0-4.0-0.56","128","1","2022-10-08 01:50:37","d60b49b5908c80e163b920d72b52d584","111.74.10.116","Mozilla/5.0 (Windows NT 10.0; WOW64) AppleWebKit/537.36 (KHTML, like Gecko) Chrome/84.0.4147.89 Safari/537.36 SLBrowser/7.0.0.12151 SLBChan/103","WebKit","Chrome","84.0.4147.89","Windows","10.0","null","<div style=""font-size:60px;"">+</div>","null",""
"","","","","","html-button-response","117","435405","0.0-4.0-1.56","128","1","2022-10-08 01:50:37","d60b49b5908c80e163b920d72b52d584","111.74.10.116","Mozilla/5.0 (Windows NT 10.0; WOW64) AppleWebKit/537.36 (KHTML, like Gecko) Chrome/84.0.4147.89 Safari/537.36 SLBrowser/7.0.0.12151 SLBChan/103","WebKit","Chrome","84.0.4147.89","Windows","10.0","871","<p>作为军队的指挥官，你可以选择发射导弹杀死 <strong>4名</strong> 敌国士兵，但会误杀附近的 <strong>1名</strong> 敌国平民。</p> <p>平民照片如下图所示。</p> <p></p> <img src='stimuli/faces/NCM4.jpg', style='max-width: 30%;'> </img> <p><strong>你是否选择发射武器？</strong></p>","1",""
"","","","","","html-keyboard-response","118","436409","0.0-4.0-0.57","128","1","2022-10-08 01:50:37","d60b49b5908c80e163b920d72b52d584","111.74.10.116","Mozilla/5.0 (Windows NT 10.0; WOW64) AppleWebKit/537.36 (KHTML, like Gecko) Chrome/84.0.4147.89 Safari/537.36 SLBrowser/7.0.0.12151 SLBChan/103","WebKit","Chrome","84.0.4147.89","Windows","10.0","null","<div style=""font-size:60px;"">+</div>","null",""
"","","","","","html-button-response","119","437741","0.0-4.0-1.57","128","1","2022-10-08 01:50:37","d60b49b5908c80e163b920d72b52d584","111.74.10.116","Mozilla/5.0 (Windows NT 10.0; WOW64) AppleWebKit/537.36 (KHTML, like Gecko) Chrome/84.0.4147.89 Safari/537.36 SLBrowser/7.0.0.12151 SLBChan/103","WebKit","Chrome","84.0.4147.89","Windows","10.0","1328","<p>作为军队的指挥官，你可以选择发射导弹杀死 <strong>8名</strong> 敌国士兵，但会炸毁附近的 <strong>1棵</strong> 敌国树木。</p> <p>树木的照片如下图所示。</p> <p></p> <img src='stimuli/trees/15.png', style='max-width: 30%;'> </img> <p><strong>你是否选择发射武器？</strong></p>","0",""
"","","","","","html-keyboard-response","120","438745","0.0-4.0-0.58","128","1","2022-10-08 01:50:37","d60b49b5908c80e163b920d72b52d584","111.74.10.116","Mozilla/5.0 (Windows NT 10.0; WOW64) AppleWebKit/537.36 (KHTML, like Gecko) Chrome/84.0.4147.89 Safari/537.36 SLBrowser/7.0.0.12151 SLBChan/103","WebKit","Chrome","84.0.4147.89","Windows","10.0","null","<div style=""font-size:60px;"">+</div>","null",""
"","","","","","html-button-response","121","440037","0.0-4.0-1.58","128","1","2022-10-08 01:50:37","d60b49b5908c80e163b920d72b52d584","111.74.10.116","Mozilla/5.0 (Windows NT 10.0; WOW64) AppleWebKit/537.36 (KHTML, like Gecko) Chrome/84.0.4147.89 Safari/537.36 SLBrowser/7.0.0.12151 SLBChan/103","WebKit","Chrome","84.0.4147.89","Windows","10.0","1287","<p>作为军队的指挥官，你可以选择发射导弹杀死 <strong>8名</strong> 敌国士兵，但会炸毁附近的 <strong>1棵</strong> 敌国树木。</p> <p>树木的照片如下图所示。</p> <p></p> <img src='stimuli/trees/2.png', style='max-width: 30%;'> </img> <p><strong>你是否选择发射武器？</strong></p>","0",""
"","","","","","html-keyboard-response","122","441041","0.0-4.0-0.59","128","1","2022-10-08 01:50:37","d60b49b5908c80e163b920d72b52d584","111.74.10.116","Mozilla/5.0 (Windows NT 10.0; WOW64) AppleWebKit/537.36 (KHTML, like Gecko) Chrome/84.0.4147.89 Safari/537.36 SLBrowser/7.0.0.12151 SLBChan/103","WebKit","Chrome","84.0.4147.89","Windows","10.0","null","<div style=""font-size:60px;"">+</div>","null",""
"","","","","","html-button-response","123","441912","0.0-4.0-1.59","128","1","2022-10-08 01:50:37","d60b49b5908c80e163b920d72b52d584","111.74.10.116","Mozilla/5.0 (Windows NT 10.0; WOW64) AppleWebKit/537.36 (KHTML, like Gecko) Chrome/84.0.4147.89 Safari/537.36 SLBrowser/7.0.0.12151 SLBChan/103","WebKit","Chrome","84.0.4147.89","Windows","10.0","868","<p>作为军队的指挥官，你可以选择发射导弹杀死 <strong>4名</strong> 敌国士兵，但会炸毁附近的 <strong>1棵</strong> 敌国树木。</p> <p>树木的照片如下图所示。</p> <p></p> <img src='stimuli/trees/14.png', style='max-width: 30%;'> </img> <p><strong>你是否选择发射武器？</strong></p>","0",""
"","","","","","html-keyboard-response","124","442916","0.0-4.0-0.60","128","1","2022-10-08 01:50:37","d60b49b5908c80e163b920d72b52d584","111.74.10.116","Mozilla/5.0 (Windows NT 10.0; WOW64) AppleWebKit/537.36 (KHTML, like Gecko) Chrome/84.0.4147.89 Safari/537.36 SLBrowser/7.0.0.12151 SLBChan/103","WebKit","Chrome","84.0.4147.89","Windows","10.0","null","<div style=""font-size:60px;"">+</div>","null",""
"","","","","","html-button-response","125","443824","0.0-4.0-1.60","128","1","2022-10-08 01:50:37","d60b49b5908c80e163b920d72b52d584","111.74.10.116","Mozilla/5.0 (Windows NT 10.0; WOW64) AppleWebKit/537.36 (KHTML, like Gecko) Chrome/84.0.4147.89 Safari/537.36 SLBrowser/7.0.0.12151 SLBChan/103","WebKit","Chrome","84.0.4147.89","Windows","10.0","902","<p>作为军队的指挥官，你可以选择发射导弹杀死 <strong>5名</strong> 敌国士兵，但会误杀附近的 <strong>1名</strong> 敌国平民。</p> <p>平民照片如下图所示。</p> <p></p> <img src='stimuli/faces/NCM7.jpg', style='max-width: 30%;'> </img> <p><strong>你是否选择发射武器？</strong></p>","0",""
"","","","","","html-keyboard-response","126","444828","0.0-4.0-0.61","128","1","2022-10-08 01:50:37","d60b49b5908c80e163b920d72b52d584","111.74.10.116","Mozilla/5.0 (Windows NT 10.0; WOW64) AppleWebKit/537.36 (KHTML, like Gecko) Chrome/84.0.4147.89 Safari/537.36 SLBrowser/7.0.0.12151 SLBChan/103","WebKit","Chrome","84.0.4147.89","Windows","10.0","null","<div style=""font-size:60px;"">+</div>","null",""
"","","","","","html-button-response","127","445437","0.0-4.0-1.61","128","1","2022-10-08 01:50:37","d60b49b5908c80e163b920d72b52d584","111.74.10.116","Mozilla/5.0 (Windows NT 10.0; WOW64) AppleWebKit/537.36 (KHTML, like Gecko) Chrome/84.0.4147.89 Safari/537.36 SLBrowser/7.0.0.12151 SLBChan/103","WebKit","Chrome","84.0.4147.89","Windows","10.0","603","<p>作为军队的指挥官，你可以选择发射导弹杀死 <strong>5名</strong> 敌国士兵，但会误杀附近的 <strong>1名</strong> 敌国平民。</p> <p>平民照片如下图所示。</p> <p></p> <img src='stimuli/faces/NCF5.jpg', style='max-width: 30%;'> </img> <p><strong>你是否选择发射武器？</strong></p>","1",""
"","","","","","html-keyboard-response","128","446445","0.0-4.0-0.62","128","1","2022-10-08 01:50:37","d60b49b5908c80e163b920d72b52d584","111.74.10.116","Mozilla/5.0 (Windows NT 10.0; WOW64) AppleWebKit/537.36 (KHTML, like Gecko) Chrome/84.0.4147.89 Safari/537.36 SLBrowser/7.0.0.12151 SLBChan/103","WebKit","Chrome","84.0.4147.89","Windows","10.0","null","<div style=""font-size:60px;"">+</div>","null",""
"","","","","","html-button-response","129","447373","0.0-4.0-1.62","128","1","2022-10-08 01:50:37","d60b49b5908c80e163b920d72b52d584","111.74.10.116","Mozilla/5.0 (Windows NT 10.0; WOW64) AppleWebKit/537.36 (KHTML, like Gecko) Chrome/84.0.4147.89 Safari/537.36 SLBrowser/7.0.0.12151 SLBChan/103","WebKit","Chrome","84.0.4147.89","Windows","10.0","922","<p>作为军队的指挥官，你可以选择发射导弹杀死 <strong>1名</strong> 敌国士兵，但会炸毁附近的 <strong>1棵</strong> 敌国树木。</p> <p>树木的照片如下图所示。</p> <p></p> <img src='stimuli/trees/8.png', style='max-width: 30%;'> </img> <p><strong>你是否选择发射武器？</strong></p>","0",""
"","","","","","html-keyboard-response","130","448384","0.0-4.0-0.63","128","1","2022-10-08 01:50:37","d60b49b5908c80e163b920d72b52d584","111.74.10.116","Mozilla/5.0 (Windows NT 10.0; WOW64) AppleWebKit/537.36 (KHTML, like Gecko) Chrome/84.0.4147.89 Safari/537.36 SLBrowser/7.0.0.12151 SLBChan/103","WebKit","Chrome","84.0.4147.89","Windows","10.0","null","<div style=""font-size:60px;"">+</div>","null",""
"","","","","","html-button-response","131","532031","0.0-4.0-1.63","128","1","2022-10-08 01:50:37","d60b49b5908c80e163b920d72b52d584","111.74.10.116","Mozilla/5.0 (Windows NT 10.0; WOW64) AppleWebKit/537.36 (KHTML, like Gecko) Chrome/84.0.4147.89 Safari/537.36 SLBrowser/7.0.0.12151 SLBChan/103","WebKit","Chrome","84.0.4147.89","Windows","10.0","83640","<p>作为军队的指挥官，你可以选择发射导弹杀死 <strong>7名</strong> 敌国士兵，但会误杀附近的 <strong>1名</strong> 敌国平民。</p> <p>平民照片如下图所示。</p> <p></p> <img src='stimuli/faces/NCM5.jpg', style='max-width: 30%;'> </img> <p><strong>你是否选择发射武器？</strong></p>","1",""
"","","","","","survey-multi-choice","132","677007","0.0-5.0","128","1","2022-10-08 01:50:37","d60b49b5908c80e163b920d72b52d584","111.74.10.116","Mozilla/5.0 (Windows NT 10.0; WOW64) AppleWebKit/537.36 (KHTML, like Gecko) Chrome/84.0.4147.89 Safari/537.36 SLBrowser/7.0.0.12151 SLBChan/103","WebKit","Chrome","84.0.4147.89","Windows","10.0","144972","","{""Attention1"":""""}","[0]"
"","","","","","html-button-response","133","679766","0.0-6.0","128","1","2022-10-08 01:50:37","d60b49b5908c80e163b920d72b52d584","111.74.10.116","Mozilla/5.0 (Windows NT 10.0; WOW64) AppleWebKit/537.36 (KHTML, like Gecko) Chrome/84.0.4147.89 Safari/537.36 SLBrowser/7.0.0.12151 SLBChan/103","WebKit","Chrome","84.0.4147.89","Windows","10.0","2752","<p style=""font-size:20px;font-weight:bold;"">恭喜！</p><p>你已经完成了实验的第一部分。</p><p>请休息放松一下，然后进入第二部分。</p><p>这部分大约需要10分钟。</p>","0",""
"","","","","","survey-text","134","716103","0.0-7.0","128","1","2022-10-08 01:50:37","d60b49b5908c80e163b920d72b52d584","111.74.10.116","Mozilla/5.0 (Windows NT 10.0; WOW64) AppleWebKit/537.36 (KHTML, like Gecko) Chrome/84.0.4147.89 Safari/537.36 SLBrowser/7.0.0.12151 SLBChan/103","WebKit","Chrome","84.0.4147.89","Windows","10.0","35320","","{""Age"":""21"",""Nation"":""中国"",""Born"":""江西九江"",""Live"":""江西九江"",""Ethnic"":""汉族"",""Alipay"":""13177717806""}",""
"","","","","","survey-multi-choice","135","728712","0.0-8.0","128","1","2022-10-08 01:50:37","d60b49b5908c80e163b920d72b52d584","111.74.10.116","Mozilla/5.0 (Windows NT 10.0; WOW64) AppleWebKit/537.36 (KHTML, like Gecko) Chrome/84.0.4147.89 Safari/537.36 SLBrowser/7.0.0.12151 SLBChan/103","WebKit","Chrome","84.0.4147.89","Windows","10.0","12602","","{""Gender"":""男"",""Education"":""本科毕业"",""Income"":""￥140,000-￥269,999"",""Children"":""0"",""Race"":""亚洲人""}","[0,1,2,3,4]"
"","","","","","survey-multi-select","136","736832","0.0-9.0","128","1","2022-10-08 01:50:37","d60b49b5908c80e163b920d72b52d584","111.74.10.116","Mozilla/5.0 (Windows NT 10.0; WOW64) AppleWebKit/537.36 (KHTML, like Gecko) Chrome/84.0.4147.89 Safari/537.36 SLBrowser/7.0.0.12151 SLBChan/103","WebKit","Chrome","84.0.4147.89","Windows","10.0","8105","","{""Marriage"":[""未婚""],""Religion"":[""无宗教信仰""]}","[0,1]"
"","","","","","survey-multi-choice","137","740600","0.0-10.0","128","1","2022-10-08 01:50:37","d60b49b5908c80e163b920d72b52d584","111.74.10.116","Mozilla/5.0 (Windows NT 10.0; WOW64) AppleWebKit/537.36 (KHTML, like Gecko) Chrome/84.0.4147.89 Safari/537.36 SLBrowser/7.0.0.12151 SLBChan/103","WebKit","Chrome","84.0.4147.89","Windows","10.0","3759","","{""SES"":""6""}","[0]"
"","","","","","html-button-response","138","742504","0.0-11.0","128","1","2022-10-08 01:50:37","d60b49b5908c80e163b920d72b52d584","111.74.10.116","Mozilla/5.0 (Windows NT 10.0; WOW64) AppleWebKit/537.36 (KHTML, like Gecko) Chrome/84.0.4147.89 Safari/537.36 SLBrowser/7.0.0.12151 SLBChan/103","WebKit","Chrome","84.0.4147.89","Windows","10.0","1896","<p><strong>请判断下列陈述在多大程度上可以形容你？</p><p> (1 = ""和我一点都不像"" to 5 = ""非常像我"".)</strong></p>","0",""
"","","","","","survey-likert","139","785241","0.0-12.0","128","1","2022-10-08 01:50:37","d60b49b5908c80e163b920d72b52d584","111.74.10.116","Mozilla/5.0 (Windows NT 10.0; WOW64) AppleWebKit/537.36 (KHTML, like Gecko) Chrome/84.0.4147.89 Safari/537.36 SLBrowser/7.0.0.12151 SLBChan/103","WebKit","Chrome","84.0.4147.89","Windows","10.0","42731","","{""Aggression1"":0,""Aggression2"":3,""Aggression3"":3,""Aggression4"":0,""Aggression5"":3,""Aggression6"":3,""Aggression7"":2,""Aggression8"":0,""Aggression9"":3}","[0,1,2,3,4,5,6,7,8]"
"","","","","","html-button-response","140","786343","0.0-13.0","128","1","2022-10-08 01:50:37","d60b49b5908c80e163b920d72b52d584","111.74.10.116","Mozilla/5.0 (Windows NT 10.0; WOW64) AppleWebKit/537.36 (KHTML, like Gecko) Chrome/84.0.4147.89 Safari/537.36 SLBrowser/7.0.0.12151 SLBChan/103","WebKit","Chrome","84.0.4147.89","Windows","10.0","1092","<p><strong>请判断你在多大程度上同意下列陈述。</strong></p>","0",""
"","","","","","survey-likert","141","997002","0.0-14.0","128","1","2022-10-08 01:50:37","d60b49b5908c80e163b920d72b52d584","111.74.10.116","Mozilla/5.0 (Windows NT 10.0; WOW64) AppleWebKit/537.36 (KHTML, like Gecko) Chrome/84.0.4147.89 Safari/537.36 SLBrowser/7.0.0.12151 SLBChan/103","WebKit","Chrome","84.0.4147.89","Windows","10.0","210652","","{""scale9"":3,""scale20"":2,""scale25"":2,""scale2"":2,""scale1"":1,""scale10"":2,""scale4"":1,""scale22"":3,""scale21"":2,""scale11"":2,""scale26"":2,""scale7"":1,""scale28"":2,""scale3"":2,""scale13"":1,""scale18"":1,""scale19"":3,""scale27"":1,""scale15"":3,""scale12"":1,""scale6"":0,""scale24"":0,""scale14"":2,""scale16"":1,""scale8"":3,""scale5"":1,""scale17"":1,""scale23"":2}","[8,19,24,1,0,9,3,21,20,10,25,6,27,2,12,17,18,26,14,11,5,23,13,15,7,4,16,22]"
"","","","","","html-button-response","142","998021","0.0-15.0","128","1","2022-10-08 01:50:37","d60b49b5908c80e163b920d72b52d584","111.74.10.116","Mozilla/5.0 (Windows NT 10.0; WOW64) AppleWebKit/537.36 (KHTML, like Gecko) Chrome/84.0.4147.89 Safari/537.36 SLBrowser/7.0.0.12151 SLBChan/103","WebKit","Chrome","84.0.4147.89","Windows","10.0","1011","<p><strong>请判断你在多大程度上同意下列陈述。</strong></p>","0",""
"","","","","","survey-likert","143","1095042","0.0-16.0","128","1","2022-10-08 01:50:37","d60b49b5908c80e163b920d72b52d584","111.74.10.116","Mozilla/5.0 (Windows NT 10.0; WOW64) AppleWebKit/537.36 (KHTML, like Gecko) Chrome/84.0.4147.89 Safari/537.36 SLBrowser/7.0.0.12151 SLBChan/103","WebKit","Chrome","84.0.4147.89","Windows","10.0","97013","","{""sdo7"":2,""sdo14"":5,""sdo2"":2,""sdo3"":1,""sdo9"":2,""sdo8"":4,""sdo4"":4,""sdo6"":4,""sdo11"":5,""sdo1"":2,""sdo15"":3,""sdo10"":4,""sdo5"":5,""sdo16"":5,""sdo13"":4,""sdo12"":5}","[6,13,1,2,8,7,3,5,10,0,14,9,4,15,12,11]"
"","","","","","html-button-response","144","1096150","0.0-17.0","128","1","2022-10-08 01:50:37","d60b49b5908c80e163b920d72b52d584","111.74.10.116","Mozilla/5.0 (Windows NT 10.0; WOW64) AppleWebKit/537.36 (KHTML, like Gecko) Chrome/84.0.4147.89 Safari/537.36 SLBrowser/7.0.0.12151 SLBChan/103","WebKit","Chrome","84.0.4147.89","Windows","10.0","1098","<p><strong>请判断你在多大程度上同意下列陈述。</strong></p>","0",""
"","","","","","survey-likert","145","1147217","0.0-18.0","128","1","2022-10-08 01:50:37","d60b49b5908c80e163b920d72b52d584","111.74.10.116","Mozilla/5.0 (Windows NT 10.0; WOW64) AppleWebKit/537.36 (KHTML, like Gecko) Chrome/84.0.4147.89 Safari/537.36 SLBrowser/7.0.0.12151 SLBChan/103","WebKit","Chrome","84.0.4147.89","Windows","10.0","51061","","{""caring1"":3,""liking1"":2,""caring2"":3,""protection1"":4,""liking2"":1,""caring3"":3,""protection2"":2,""liking3"":1,""protection3"":1,""caring4"":3,""liking4"":1,""protection4"":3,""caring5"":3,""liking5"":1,""protection5"":3}","[0,1,2,3,4,5,6,7,8,9,10,11,12,13,14]"
"","","","","","html-button-response","146","1148870","0.0-19.0","128","1","2022-10-08 01:50:37","d60b49b5908c80e163b920d72b52d584","111.74.10.116","Mozilla/5.0 (Windows NT 10.0; WOW64) AppleWebKit/537.36 (KHTML, like Gecko) Chrome/84.0.4147.89 Safari/537.36 SLBrowser/7.0.0.12151 SLBChan/103","WebKit","Chrome","84.0.4147.89","Windows","10.0","1644","<p><strong>请判断下列场景中你的内心感受有多柔软。</strong></p>","0",""
"","","","","","survey-likert","147","1178641","0.0-20.0","128","1","2022-10-08 01:50:37","d60b49b5908c80e163b920d72b52d584","111.74.10.116","Mozilla/5.0 (Windows NT 10.0; WOW64) AppleWebKit/537.36 (KHTML, like Gecko) Chrome/84.0.4147.89 Safari/537.36 SLBrowser/7.0.0.12151 SLBChan/103","WebKit","Chrome","84.0.4147.89","Windows","10.0","29765","","{""tenderness-positive1"":3,""tenderness-negative1"":3,""tenderness-negative2"":2,""tenderness-positive2"":3,""tenderness-positive3"":3,""tenderness-negative3"":2,""tenderness-positive4"":3,""tendereness-negative4"":3,""tendernness-negative5"":3,""tenderness-positive5"":3}","[0,1,2,3,4,5,6,7,8,9]"
"","","","","","survey-multi-choice","148","1189768","0.0-21.0","128","1","2022-10-08 01:50:37","d60b49b5908c80e163b920d72b52d584","111.74.10.116","Mozilla/5.0 (Windows NT 10.0; WOW64) AppleWebKit/537.36 (KHTML, like Gecko) Chrome/84.0.4147.89 Safari/537.36 SLBrowser/7.0.0.12151 SLBChan/103","WebKit","Chrome","84.0.4147.89","Windows","10.0","11117","","{""Attention2"":""其他""}","[0]"
"","","","","","html-button-response","149","1191463","0.0-22.0","128","1","2022-10-08 01:50:37","d60b49b5908c80e163b920d72b52d584","111.74.10.116","Mozilla/5.0 (Windows NT 10.0; WOW64) AppleWebKit/537.36 (KHTML, like Gecko) Chrome/84.0.4147.89 Safari/537.36 SLBrowser/7.0.0.12151 SLBChan/103","WebKit","Chrome","84.0.4147.89","Windows","10.0","1686","<p><strong>请判断你在多大程度上同意下列陈述。</strong></p>","0",""
"","","","","","survey-likert","150","1429368","0.0-23.0","128","1","2022-10-08 01:50:37","d60b49b5908c80e163b920d72b52d584","111.74.10.116","Mozilla/5.0 (Windows NT 10.0; WOW64) AppleWebKit/537.36 (KHTML, like Gecko) Chrome/84.0.4147.89 Safari/537.36 SLBrowser/7.0.0.12151 SLBChan/103","WebKit","Chrome","84.0.4147.89","Windows","10.0","237900","","{""Patri3"":3,""Patri4"":4,""Nation1"":1,""Patri10"":0,""Patri11"":0,""Patri1"":4,""Nation5"":3,""Nation8"":3,""Patri2"":3,""Patri12"":0,""Patri5"":4,""Patri9"":4,""Patri6"":4,""Nation3"":3,""Nation2"":4,""Nation6"":2,""Nation7"":3,""Patri8"":4,""Patri7"":4,""Nation4"":1}","[2,3,12,9,10,0,16,19,1,11,4,8,5,14,13,17,18,7,6,15]"
"","","","","","html-button-response","151","1430909","0.0-24.0","128","1","2022-10-08 01:50:37","d60b49b5908c80e163b920d72b52d584","111.74.10.116","Mozilla/5.0 (Windows NT 10.0; WOW64) AppleWebKit/537.36 (KHTML, like Gecko) Chrome/84.0.4147.89 Safari/537.36 SLBrowser/7.0.0.12151 SLBChan/103","WebKit","Chrome","84.0.4147.89","Windows","10.0","1530","<p><strong>请判断你在多大程度上同意下列陈述。</strong></p>","0",""
"","","","","","survey-likert","152","1577379","0.0-25.0","128","1","2022-10-08 01:50:37","d60b49b5908c80e163b920d72b52d584","111.74.10.116","Mozilla/5.0 (Windows NT 10.0; WOW64) AppleWebKit/537.36 (KHTML, like Gecko) Chrome/84.0.4147.89 Safari/537.36 SLBrowser/7.0.0.12151 SLBChan/103","WebKit","Chrome","84.0.4147.89","Windows","10.0","146460","","{""hc4"":6,""hi2"":5,""hi1"":6,""vi3"":7,""vc2"":6,""vc4"":6,""vc3"":5,""vi2"":7,""hc3"":5,""vi4"":5,""Robot"":6,""vi1"":5,""vc1"":6,""hi3"":5,""hc1"":6,""hi4"":5,""hc2"":6}","[12,1,0,6,14,16,15,5,11,8,7,4,13,2,9,3,10]"
"","","","","","survey-text","153","1580055","0.0-26.0","128","1","2022-10-08 01:50:37","d60b49b5908c80e163b920d72b52d584","111.74.10.116","Mozilla/5.0 (Windows NT 10.0; WOW64) AppleWebKit/537.36 (KHTML, like Gecko) Chrome/84.0.4147.89 Safari/537.36 SLBrowser/7.0.0.12151 SLBChan/103","WebKit","Chrome","84.0.4147.89","Windows","10.0","2663","","{""Comments"":""""}",""
"","","","","","html-button-response","154","1581063","0.0-27.0","128","1","2022-10-08 01:50:37","d60b49b5908c80e163b920d72b52d584","111.74.10.116","Mozilla/5.0 (Windows NT 10.0; WOW64) AppleWebKit/537.36 (KHTML, like Gecko) Chrome/84.0.4147.89 Safari/537.36 SLBrowser/7.0.0.12151 SLBChan/103","WebKit","Chrome","84.0.4147.89","Windows","10.0","1003","<strong><p>恭喜你完成了实验！</p><p>感谢您的参与。</p></strong>","0",""
