"success","timeout","failed_images","failed_audio","failed_video","trial_type","trial_index","time_elapsed","internal_node_id","run_id","condition","recorded_at","source_code_version","ip","user_agent","device","browser","browser_version","platform","platform_version","rt","stimulus","response","question_order"
"true","false","[]","[]","[]","preload","0","2851","0.0-0.0","146","1","2022-10-08 08:44:44","d60b49b5908c80e163b920d72b52d584","114.98.227.50","Mozilla/5.0 (Windows NT 10.0; WOW64) AppleWebKit/537.36 (KHTML, like Gecko) Chrome/102.0.0.0 Safari/537.36","WebKit","Chrome","102.0.0.0","Windows","10.0","","","",""
"true","","","","","fullscreen","1","6927","0.0-1.0","146","1","2022-10-08 08:44:44","d60b49b5908c80e163b920d72b52d584","114.98.227.50","Mozilla/5.0 (Windows NT 10.0; WOW64) AppleWebKit/537.36 (KHTML, like Gecko) Chrome/102.0.0.0 Safari/537.36","WebKit","Chrome","102.0.0.0","Windows","10.0","","","",""
"","","","","","html-button-response","2","18805","0.0-2.0","146","1","2022-10-08 08:44:44","d60b49b5908c80e163b920d72b52d584","114.98.227.50","Mozilla/5.0 (Windows NT 10.0; WOW64) AppleWebKit/537.36 (KHTML, like Gecko) Chrome/102.0.0.0 Safari/537.36","WebKit","Chrome","102.0.0.0","Windows","10.0","11873","<p style=""font-size:20px;font-weight:bold;"">实验知情同意书</p><p style=""text-align:left;""><strong>实验名称：</strong>社会冲突研究</p><p style=""text-align:left;""><strong>主要研究者：</strong>韩晓春副教授（北京师范大学心理学部）</p><p style=""text-align:left;""><strong>联系方式：</strong>发送邮件至xiaochun.han@bnu.edu.cn</p><p style=""text-align:left;""><strong>研究目的：</strong>研究旨在了解人类面对群体冲突时的决策方式，以及相关的心理学特质。实验调查大约需要20分钟。</p><p style=""text-align:left;""><strong>实验流程：</strong>实验包含两部分。第一部分呈现一系列群体冲突场景，请你决定如何对这些冲突进行反应，大约需要10分钟完成。第二部分包含一系列人口统计学信息收集和心理学问卷，大约需要10分钟完成。</p><p style=""text-align:left;""><strong>参加及退出规则：</strong>参加本实验完全取决于您的个人意愿。在参与过程中，您可以随时退出，并且不用承担任何后果。</p><p style=""text-align:left;""><strong>隐私：</strong>本实验完全匿名进行，不会收集您的姓名或其他能够识别您身份的信息。实验中收集的作答仅用作科学研究使用，可能会在学术期刊/书籍上发表，或者用于教学，您的数据未来可能会和其他研究者或实验室分享，但您的个人身份不会被识别。</p><p style=""text-align:left;""><strong>实验报酬：</strong>实验完成后，您将获得15元人民币报酬，以感谢您的时间和努力。调查问卷中包含几道题目用以测验您作答时的认真度。只有完成全部实验，并且正确回答认真度测验的被试才能获得实验报酬。实验报酬将通过支付宝转账发放。</p><p style=""text-align:left;font-size:20px;""><strong>如果您同意以上实验知情同意书的内容，请点击'同意并且开始实验'按钮；否则请关闭浏览器界面，退出实验。</strong></p>","0",""
"","","","","","html-button-response","3","20964","0.0-3.0","146","1","2022-10-08 08:44:44","d60b49b5908c80e163b920d72b52d584","114.98.227.50","Mozilla/5.0 (Windows NT 10.0; WOW64) AppleWebKit/537.36 (KHTML, like Gecko) Chrome/102.0.0.0 Safari/537.36","WebKit","Chrome","102.0.0.0","Windows","10.0","2152","<p ><strong>实验任务一：</strong></p><p>请想象你的国家与另一个国家发生了军事冲突。</p><p>你是国家军队的指挥官，你将如何在冲突中进行决策。</p><p>具体来说，作为军队指挥官，请你决定是否发射导弹进行打击。</p><p>接下来，你会面对一系列场景，请仔细阅读每个场景，然后进行决策。</p><p>这部分实验任务大约需要10分钟。</p><p><strong>实验过程中，请集中注意力。</strong></p>","0",""
"","","","","","html-keyboard-response","4","21980","0.0-4.0-0.0","146","1","2022-10-08 08:44:44","d60b49b5908c80e163b920d72b52d584","114.98.227.50","Mozilla/5.0 (Windows NT 10.0; WOW64) AppleWebKit/537.36 (KHTML, like Gecko) Chrome/102.0.0.0 Safari/537.36","WebKit","Chrome","102.0.0.0","Windows","10.0","null","<div style=""font-size:60px;"">+</div>","null",""
"","","","","","html-button-response","5","28657","0.0-4.0-1.0","146","1","2022-10-08 08:44:44","d60b49b5908c80e163b920d72b52d584","114.98.227.50","Mozilla/5.0 (Windows NT 10.0; WOW64) AppleWebKit/537.36 (KHTML, like Gecko) Chrome/102.0.0.0 Safari/537.36","WebKit","Chrome","102.0.0.0","Windows","10.0","6663","<p>作为军队的指挥官，你可以选择发射导弹杀死 <strong>4名</strong> 敌国士兵，但会误杀附近的 <strong>1名</strong> 敌国平民。</p> <p>平民照片如下图所示。</p> <p></p> <img src='stimuli/faces/NCF3.jpg', style='max-width: 30%;'> </img> <p><strong>你是否选择发射武器？</strong></p>","1",""
"","","","","","html-keyboard-response","6","29669","0.0-4.0-0.1","146","1","2022-10-08 08:44:44","d60b49b5908c80e163b920d72b52d584","114.98.227.50","Mozilla/5.0 (Windows NT 10.0; WOW64) AppleWebKit/537.36 (KHTML, like Gecko) Chrome/102.0.0.0 Safari/537.36","WebKit","Chrome","102.0.0.0","Windows","10.0","null","<div style=""font-size:60px;"">+</div>","null",""
"","","","","","html-button-response","7","31367","0.0-4.0-1.1","146","1","2022-10-08 08:44:44","d60b49b5908c80e163b920d72b52d584","114.98.227.50","Mozilla/5.0 (Windows NT 10.0; WOW64) AppleWebKit/537.36 (KHTML, like Gecko) Chrome/102.0.0.0 Safari/537.36","WebKit","Chrome","102.0.0.0","Windows","10.0","1682","<p>作为军队的指挥官，你可以选择发射导弹杀死 <strong>7名</strong> 敌国士兵，但会误杀附近的 <strong>1名</strong> 敌国平民。</p> <p>平民照片如下图所示。</p> <p></p> <img src='stimuli/faces/NCM3.jpg', style='max-width: 30%;'> </img> <p><strong>你是否选择发射武器？</strong></p>","0",""
"","","","","","html-keyboard-response","8","32373","0.0-4.0-0.2","146","1","2022-10-08 08:44:44","d60b49b5908c80e163b920d72b52d584","114.98.227.50","Mozilla/5.0 (Windows NT 10.0; WOW64) AppleWebKit/537.36 (KHTML, like Gecko) Chrome/102.0.0.0 Safari/537.36","WebKit","Chrome","102.0.0.0","Windows","10.0","null","<div style=""font-size:60px;"">+</div>","null",""
"","","","","","html-button-response","9","33812","0.0-4.0-1.2","146","1","2022-10-08 08:44:44","d60b49b5908c80e163b920d72b52d584","114.98.227.50","Mozilla/5.0 (Windows NT 10.0; WOW64) AppleWebKit/537.36 (KHTML, like Gecko) Chrome/102.0.0.0 Safari/537.36","WebKit","Chrome","102.0.0.0","Windows","10.0","1428","<p>作为军队的指挥官，你可以选择发射导弹杀死 <strong>3名</strong> 敌国士兵，但会误杀附近的 <strong>1名</strong> 敌国平民。</p> <p>平民照片如下图所示。</p> <p></p> <img src='stimuli/faces/NCF6.jpg', style='max-width: 30%;'> </img> <p><strong>你是否选择发射武器？</strong></p>","1",""
"","","","","","html-keyboard-response","10","34825","0.0-4.0-0.3","146","1","2022-10-08 08:44:44","d60b49b5908c80e163b920d72b52d584","114.98.227.50","Mozilla/5.0 (Windows NT 10.0; WOW64) AppleWebKit/537.36 (KHTML, like Gecko) Chrome/102.0.0.0 Safari/537.36","WebKit","Chrome","102.0.0.0","Windows","10.0","null","<div style=""font-size:60px;"">+</div>","null",""
"","","","","","html-button-response","11","36166","0.0-4.0-1.3","146","1","2022-10-08 08:44:44","d60b49b5908c80e163b920d72b52d584","114.98.227.50","Mozilla/5.0 (Windows NT 10.0; WOW64) AppleWebKit/537.36 (KHTML, like Gecko) Chrome/102.0.0.0 Safari/537.36","WebKit","Chrome","102.0.0.0","Windows","10.0","1330","<p>作为军队的指挥官，你可以选择发射导弹杀死 <strong>8名</strong> 敌国士兵，但会误杀附近的 <strong>1名</strong> 敌国平民。</p> <p>平民照片如下图所示。</p> <p></p> <img src='stimuli/faces/NCM6.jpg', style='max-width: 30%;'> </img> <p><strong>你是否选择发射武器？</strong></p>","0",""
"","","","","","html-keyboard-response","12","37172","0.0-4.0-0.4","146","1","2022-10-08 08:44:44","d60b49b5908c80e163b920d72b52d584","114.98.227.50","Mozilla/5.0 (Windows NT 10.0; WOW64) AppleWebKit/537.36 (KHTML, like Gecko) Chrome/102.0.0.0 Safari/537.36","WebKit","Chrome","102.0.0.0","Windows","10.0","null","<div style=""font-size:60px;"">+</div>","null",""
"","","","","","html-button-response","13","40178","0.0-4.0-1.4","146","1","2022-10-08 08:44:44","d60b49b5908c80e163b920d72b52d584","114.98.227.50","Mozilla/5.0 (Windows NT 10.0; WOW64) AppleWebKit/537.36 (KHTML, like Gecko) Chrome/102.0.0.0 Safari/537.36","WebKit","Chrome","102.0.0.0","Windows","10.0","2991","<p>作为军队的指挥官，你可以选择发射导弹杀死 <strong>3名</strong> 敌国士兵，但会炸毁附近的 <strong>1棵</strong> 敌国树木。</p> <p>树木的照片如下图所示。</p> <p></p> <img src='stimuli/trees/4.png', style='max-width: 30%;'> </img> <p><strong>你是否选择发射武器？</strong></p>","1",""
"","","","","","html-keyboard-response","14","41187","0.0-4.0-0.5","146","1","2022-10-08 08:44:44","d60b49b5908c80e163b920d72b52d584","114.98.227.50","Mozilla/5.0 (Windows NT 10.0; WOW64) AppleWebKit/537.36 (KHTML, like Gecko) Chrome/102.0.0.0 Safari/537.36","WebKit","Chrome","102.0.0.0","Windows","10.0","null","<div style=""font-size:60px;"">+</div>","null",""
"","","","","","html-button-response","15","42617","0.0-4.0-1.5","146","1","2022-10-08 08:44:44","d60b49b5908c80e163b920d72b52d584","114.98.227.50","Mozilla/5.0 (Windows NT 10.0; WOW64) AppleWebKit/537.36 (KHTML, like Gecko) Chrome/102.0.0.0 Safari/537.36","WebKit","Chrome","102.0.0.0","Windows","10.0","1415","<p>作为军队的指挥官，你可以选择发射导弹杀死 <strong>1名</strong> 敌国士兵，但会误杀附近的 <strong>1名</strong> 敌国平民。</p> <p>平民照片如下图所示。</p> <p></p> <img src='stimuli/faces/NCM2.jpg', style='max-width: 30%;'> </img> <p><strong>你是否选择发射武器？</strong></p>","1",""
"","","","","","html-keyboard-response","16","43632","0.0-4.0-0.6","146","1","2022-10-08 08:44:44","d60b49b5908c80e163b920d72b52d584","114.98.227.50","Mozilla/5.0 (Windows NT 10.0; WOW64) AppleWebKit/537.36 (KHTML, like Gecko) Chrome/102.0.0.0 Safari/537.36","WebKit","Chrome","102.0.0.0","Windows","10.0","null","<div style=""font-size:60px;"">+</div>","null",""
"","","","","","html-button-response","17","44920","0.0-4.0-1.6","146","1","2022-10-08 08:44:44","d60b49b5908c80e163b920d72b52d584","114.98.227.50","Mozilla/5.0 (Windows NT 10.0; WOW64) AppleWebKit/537.36 (KHTML, like Gecko) Chrome/102.0.0.0 Safari/537.36","WebKit","Chrome","102.0.0.0","Windows","10.0","1274","<p>作为军队的指挥官，你可以选择发射导弹杀死 <strong>1名</strong> 敌国士兵，但会炸毁附近的 <strong>1棵</strong> 敌国树木。</p> <p>树木的照片如下图所示。</p> <p></p> <img src='stimuli/trees/12.png', style='max-width: 30%;'> </img> <p><strong>你是否选择发射武器？</strong></p>","1",""
"","","","","","html-keyboard-response","18","45931","0.0-4.0-0.7","146","1","2022-10-08 08:44:44","d60b49b5908c80e163b920d72b52d584","114.98.227.50","Mozilla/5.0 (Windows NT 10.0; WOW64) AppleWebKit/537.36 (KHTML, like Gecko) Chrome/102.0.0.0 Safari/537.36","WebKit","Chrome","102.0.0.0","Windows","10.0","null","<div style=""font-size:60px;"">+</div>","null",""
"","","","","","html-button-response","19","47100","0.0-4.0-1.7","146","1","2022-10-08 08:44:44","d60b49b5908c80e163b920d72b52d584","114.98.227.50","Mozilla/5.0 (Windows NT 10.0; WOW64) AppleWebKit/537.36 (KHTML, like Gecko) Chrome/102.0.0.0 Safari/537.36","WebKit","Chrome","102.0.0.0","Windows","10.0","1157","<p>作为军队的指挥官，你可以选择发射导弹杀死 <strong>10名</strong> 敌国士兵，但会误杀附近的 <strong>1名</strong> 敌国平民。</p> <p>平民照片如下图所示。</p> <p></p> <img src='stimuli/faces/NCM5.jpg', style='max-width: 30%;'> </img> <p><strong>你是否选择发射武器？</strong></p>","0",""
"","","","","","html-keyboard-response","20","48108","0.0-4.0-0.8","146","1","2022-10-08 08:44:44","d60b49b5908c80e163b920d72b52d584","114.98.227.50","Mozilla/5.0 (Windows NT 10.0; WOW64) AppleWebKit/537.36 (KHTML, like Gecko) Chrome/102.0.0.0 Safari/537.36","WebKit","Chrome","102.0.0.0","Windows","10.0","null","<div style=""font-size:60px;"">+</div>","null",""
"","","","","","html-button-response","21","49789","0.0-4.0-1.8","146","1","2022-10-08 08:44:44","d60b49b5908c80e163b920d72b52d584","114.98.227.50","Mozilla/5.0 (Windows NT 10.0; WOW64) AppleWebKit/537.36 (KHTML, like Gecko) Chrome/102.0.0.0 Safari/537.36","WebKit","Chrome","102.0.0.0","Windows","10.0","1665","<p>作为军队的指挥官，你可以选择发射导弹杀死 <strong>1名</strong> 敌国士兵，但会误杀附近的 <strong>1名</strong> 敌国平民。</p> <p>平民照片如下图所示。</p> <p></p> <img src='stimuli/faces/NCF7.jpg', style='max-width: 30%;'> </img> <p><strong>你是否选择发射武器？</strong></p>","1",""
"","","","","","html-keyboard-response","22","50806","0.0-4.0-0.9","146","1","2022-10-08 08:44:44","d60b49b5908c80e163b920d72b52d584","114.98.227.50","Mozilla/5.0 (Windows NT 10.0; WOW64) AppleWebKit/537.36 (KHTML, like Gecko) Chrome/102.0.0.0 Safari/537.36","WebKit","Chrome","102.0.0.0","Windows","10.0","null","<div style=""font-size:60px;"">+</div>","null",""
"","","","","","html-button-response","23","52943","0.0-4.0-1.9","146","1","2022-10-08 08:44:44","d60b49b5908c80e163b920d72b52d584","114.98.227.50","Mozilla/5.0 (Windows NT 10.0; WOW64) AppleWebKit/537.36 (KHTML, like Gecko) Chrome/102.0.0.0 Safari/537.36","WebKit","Chrome","102.0.0.0","Windows","10.0","2124","<p>作为军队的指挥官，你可以选择发射导弹杀死 <strong>4名</strong> 敌国士兵，但会误杀附近的 <strong>1名</strong> 敌国平民。</p> <p>平民照片如下图所示。</p> <p></p> <img src='stimuli/faces/NCF4.jpg', style='max-width: 30%;'> </img> <p><strong>你是否选择发射武器？</strong></p>","0",""
"","","","","","html-keyboard-response","24","53950","0.0-4.0-0.10","146","1","2022-10-08 08:44:44","d60b49b5908c80e163b920d72b52d584","114.98.227.50","Mozilla/5.0 (Windows NT 10.0; WOW64) AppleWebKit/537.36 (KHTML, like Gecko) Chrome/102.0.0.0 Safari/537.36","WebKit","Chrome","102.0.0.0","Windows","10.0","null","<div style=""font-size:60px;"">+</div>","null",""
"","","","","","html-button-response","25","55026","0.0-4.0-1.10","146","1","2022-10-08 08:44:44","d60b49b5908c80e163b920d72b52d584","114.98.227.50","Mozilla/5.0 (Windows NT 10.0; WOW64) AppleWebKit/537.36 (KHTML, like Gecko) Chrome/102.0.0.0 Safari/537.36","WebKit","Chrome","102.0.0.0","Windows","10.0","1055","<p>作为军队的指挥官，你可以选择发射导弹杀死 <strong>1名</strong> 敌国士兵，但会误杀附近的 <strong>1名</strong> 敌国平民。</p> <p>平民照片如下图所示。</p> <p></p> <img src='stimuli/faces/NCM8.jpg', style='max-width: 30%;'> </img> <p><strong>你是否选择发射武器？</strong></p>","0",""
"","","","","","html-keyboard-response","26","56046","0.0-4.0-0.11","146","1","2022-10-08 08:44:44","d60b49b5908c80e163b920d72b52d584","114.98.227.50","Mozilla/5.0 (Windows NT 10.0; WOW64) AppleWebKit/537.36 (KHTML, like Gecko) Chrome/102.0.0.0 Safari/537.36","WebKit","Chrome","102.0.0.0","Windows","10.0","null","<div style=""font-size:60px;"">+</div>","null",""
"","","","","","html-button-response","27","57460","0.0-4.0-1.11","146","1","2022-10-08 08:44:44","d60b49b5908c80e163b920d72b52d584","114.98.227.50","Mozilla/5.0 (Windows NT 10.0; WOW64) AppleWebKit/537.36 (KHTML, like Gecko) Chrome/102.0.0.0 Safari/537.36","WebKit","Chrome","102.0.0.0","Windows","10.0","1399","<p>作为军队的指挥官，你可以选择发射导弹杀死 <strong>2名</strong> 敌国士兵，但会炸毁附近的 <strong>1棵</strong> 敌国树木。</p> <p>树木的照片如下图所示。</p> <p></p> <img src='stimuli/trees/1.png', style='max-width: 30%;'> </img> <p><strong>你是否选择发射武器？</strong></p>","1",""
"","","","","","html-keyboard-response","28","58470","0.0-4.0-0.12","146","1","2022-10-08 08:44:44","d60b49b5908c80e163b920d72b52d584","114.98.227.50","Mozilla/5.0 (Windows NT 10.0; WOW64) AppleWebKit/537.36 (KHTML, like Gecko) Chrome/102.0.0.0 Safari/537.36","WebKit","Chrome","102.0.0.0","Windows","10.0","null","<div style=""font-size:60px;"">+</div>","null",""
"","","","","","html-button-response","29","60005","0.0-4.0-1.12","146","1","2022-10-08 08:44:44","d60b49b5908c80e163b920d72b52d584","114.98.227.50","Mozilla/5.0 (Windows NT 10.0; WOW64) AppleWebKit/537.36 (KHTML, like Gecko) Chrome/102.0.0.0 Safari/537.36","WebKit","Chrome","102.0.0.0","Windows","10.0","1519","<p>作为军队的指挥官，你可以选择发射导弹杀死 <strong>2名</strong> 敌国士兵，但会误杀附近的 <strong>1名</strong> 敌国平民。</p> <p>平民照片如下图所示。</p> <p></p> <img src='stimuli/faces/NCF5.jpg', style='max-width: 30%;'> </img> <p><strong>你是否选择发射武器？</strong></p>","1",""
"","","","","","html-keyboard-response","30","61022","0.0-4.0-0.13","146","1","2022-10-08 08:44:44","d60b49b5908c80e163b920d72b52d584","114.98.227.50","Mozilla/5.0 (Windows NT 10.0; WOW64) AppleWebKit/537.36 (KHTML, like Gecko) Chrome/102.0.0.0 Safari/537.36","WebKit","Chrome","102.0.0.0","Windows","10.0","null","<div style=""font-size:60px;"">+</div>","null",""
"","","","","","html-button-response","31","62060","0.0-4.0-1.13","146","1","2022-10-08 08:44:44","d60b49b5908c80e163b920d72b52d584","114.98.227.50","Mozilla/5.0 (Windows NT 10.0; WOW64) AppleWebKit/537.36 (KHTML, like Gecko) Chrome/102.0.0.0 Safari/537.36","WebKit","Chrome","102.0.0.0","Windows","10.0","1020","<p>作为军队的指挥官，你可以选择发射导弹杀死 <strong>8名</strong> 敌国士兵，但会误杀附近的 <strong>1名</strong> 敌国平民。</p> <p>平民照片如下图所示。</p> <p></p> <img src='stimuli/faces/NCM8.jpg', style='max-width: 30%;'> </img> <p><strong>你是否选择发射武器？</strong></p>","0",""
"","","","","","html-keyboard-response","32","63069","0.0-4.0-0.14","146","1","2022-10-08 08:44:44","d60b49b5908c80e163b920d72b52d584","114.98.227.50","Mozilla/5.0 (Windows NT 10.0; WOW64) AppleWebKit/537.36 (KHTML, like Gecko) Chrome/102.0.0.0 Safari/537.36","WebKit","Chrome","102.0.0.0","Windows","10.0","null","<div style=""font-size:60px;"">+</div>","null",""
"","","","","","html-button-response","33","65547","0.0-4.0-1.14","146","1","2022-10-08 08:44:44","d60b49b5908c80e163b920d72b52d584","114.98.227.50","Mozilla/5.0 (Windows NT 10.0; WOW64) AppleWebKit/537.36 (KHTML, like Gecko) Chrome/102.0.0.0 Safari/537.36","WebKit","Chrome","102.0.0.0","Windows","10.0","2461","<p>作为军队的指挥官，你可以选择发射导弹杀死 <strong>2名</strong> 敌国士兵，但会误杀附近的 <strong>1名</strong> 敌国平民。</p> <p>平民照片如下图所示。</p> <p></p> <img src='stimuli/faces/NCF8.jpg', style='max-width: 30%;'> </img> <p><strong>你是否选择发射武器？</strong></p>","1",""
"","","","","","html-keyboard-response","34","66564","0.0-4.0-0.15","146","1","2022-10-08 08:44:44","d60b49b5908c80e163b920d72b52d584","114.98.227.50","Mozilla/5.0 (Windows NT 10.0; WOW64) AppleWebKit/537.36 (KHTML, like Gecko) Chrome/102.0.0.0 Safari/537.36","WebKit","Chrome","102.0.0.0","Windows","10.0","null","<div style=""font-size:60px;"">+</div>","null",""
"","","","","","html-button-response","35","68038","0.0-4.0-1.15","146","1","2022-10-08 08:44:44","d60b49b5908c80e163b920d72b52d584","114.98.227.50","Mozilla/5.0 (Windows NT 10.0; WOW64) AppleWebKit/537.36 (KHTML, like Gecko) Chrome/102.0.0.0 Safari/537.36","WebKit","Chrome","102.0.0.0","Windows","10.0","1459","<p>作为军队的指挥官，你可以选择发射导弹杀死 <strong>7名</strong> 敌国士兵，但会炸毁附近的 <strong>1棵</strong> 敌国树木。</p> <p>树木的照片如下图所示。</p> <p></p> <img src='stimuli/trees/8.png', style='max-width: 30%;'> </img> <p><strong>你是否选择发射武器？</strong></p>","0",""
"","","","","","html-keyboard-response","36","69056","0.0-4.0-0.16","146","1","2022-10-08 08:44:44","d60b49b5908c80e163b920d72b52d584","114.98.227.50","Mozilla/5.0 (Windows NT 10.0; WOW64) AppleWebKit/537.36 (KHTML, like Gecko) Chrome/102.0.0.0 Safari/537.36","WebKit","Chrome","102.0.0.0","Windows","10.0","null","<div style=""font-size:60px;"">+</div>","null",""
"","","","","","html-button-response","37","73063","0.0-4.0-1.16","146","1","2022-10-08 08:44:44","d60b49b5908c80e163b920d72b52d584","114.98.227.50","Mozilla/5.0 (Windows NT 10.0; WOW64) AppleWebKit/537.36 (KHTML, like Gecko) Chrome/102.0.0.0 Safari/537.36","WebKit","Chrome","102.0.0.0","Windows","10.0","3989","<p>作为军队的指挥官，你可以选择发射导弹杀死 <strong>3名</strong> 敌国士兵，但会炸毁附近的 <strong>1棵</strong> 敌国树木。</p> <p>树木的照片如下图所示。</p> <p></p> <img src='stimuli/trees/10.png', style='max-width: 30%;'> </img> <p><strong>你是否选择发射武器？</strong></p>","0",""
"","","","","","html-keyboard-response","38","74085","0.0-4.0-0.17","146","1","2022-10-08 08:44:44","d60b49b5908c80e163b920d72b52d584","114.98.227.50","Mozilla/5.0 (Windows NT 10.0; WOW64) AppleWebKit/537.36 (KHTML, like Gecko) Chrome/102.0.0.0 Safari/537.36","WebKit","Chrome","102.0.0.0","Windows","10.0","null","<div style=""font-size:60px;"">+</div>","null",""
"","","","","","html-button-response","39","75762","0.0-4.0-1.17","146","1","2022-10-08 08:44:44","d60b49b5908c80e163b920d72b52d584","114.98.227.50","Mozilla/5.0 (Windows NT 10.0; WOW64) AppleWebKit/537.36 (KHTML, like Gecko) Chrome/102.0.0.0 Safari/537.36","WebKit","Chrome","102.0.0.0","Windows","10.0","1656","<p>作为军队的指挥官，你可以选择发射导弹杀死 <strong>3名</strong> 敌国士兵，但会误杀附近的 <strong>1名</strong> 敌国平民。</p> <p>平民照片如下图所示。</p> <p></p> <img src='stimuli/faces/NCM4.jpg', style='max-width: 30%;'> </img> <p><strong>你是否选择发射武器？</strong></p>","0",""
"","","","","","html-keyboard-response","40","76774","0.0-4.0-0.18","146","1","2022-10-08 08:44:44","d60b49b5908c80e163b920d72b52d584","114.98.227.50","Mozilla/5.0 (Windows NT 10.0; WOW64) AppleWebKit/537.36 (KHTML, like Gecko) Chrome/102.0.0.0 Safari/537.36","WebKit","Chrome","102.0.0.0","Windows","10.0","null","<div style=""font-size:60px;"">+</div>","null",""
"","","","","","html-button-response","41","78551","0.0-4.0-1.18","146","1","2022-10-08 08:44:44","d60b49b5908c80e163b920d72b52d584","114.98.227.50","Mozilla/5.0 (Windows NT 10.0; WOW64) AppleWebKit/537.36 (KHTML, like Gecko) Chrome/102.0.0.0 Safari/537.36","WebKit","Chrome","102.0.0.0","Windows","10.0","1759","<p>作为军队的指挥官，你可以选择发射导弹杀死 <strong>6名</strong> 敌国士兵，但会误杀附近的 <strong>1名</strong> 敌国平民。</p> <p>平民照片如下图所示。</p> <p></p> <img src='stimuli/faces/NCF1.jpg', style='max-width: 30%;'> </img> <p><strong>你是否选择发射武器？</strong></p>","0",""
"","","","","","html-keyboard-response","42","79566","0.0-4.0-0.19","146","1","2022-10-08 08:44:44","d60b49b5908c80e163b920d72b52d584","114.98.227.50","Mozilla/5.0 (Windows NT 10.0; WOW64) AppleWebKit/537.36 (KHTML, like Gecko) Chrome/102.0.0.0 Safari/537.36","WebKit","Chrome","102.0.0.0","Windows","10.0","null","<div style=""font-size:60px;"">+</div>","null",""
"","","","","","html-button-response","43","81165","0.0-4.0-1.19","146","1","2022-10-08 08:44:44","d60b49b5908c80e163b920d72b52d584","114.98.227.50","Mozilla/5.0 (Windows NT 10.0; WOW64) AppleWebKit/537.36 (KHTML, like Gecko) Chrome/102.0.0.0 Safari/537.36","WebKit","Chrome","102.0.0.0","Windows","10.0","1579","<p>作为军队的指挥官，你可以选择发射导弹杀死 <strong>9名</strong> 敌国士兵，但会炸毁附近的 <strong>1棵</strong> 敌国树木。</p> <p>树木的照片如下图所示。</p> <p></p> <img src='stimuli/trees/10.png', style='max-width: 30%;'> </img> <p><strong>你是否选择发射武器？</strong></p>","0",""
"","","","","","html-keyboard-response","44","82174","0.0-4.0-0.20","146","1","2022-10-08 08:44:44","d60b49b5908c80e163b920d72b52d584","114.98.227.50","Mozilla/5.0 (Windows NT 10.0; WOW64) AppleWebKit/537.36 (KHTML, like Gecko) Chrome/102.0.0.0 Safari/537.36","WebKit","Chrome","102.0.0.0","Windows","10.0","null","<div style=""font-size:60px;"">+</div>","null",""
"","","","","","html-button-response","45","84975","0.0-4.0-1.20","146","1","2022-10-08 08:44:44","d60b49b5908c80e163b920d72b52d584","114.98.227.50","Mozilla/5.0 (Windows NT 10.0; WOW64) AppleWebKit/537.36 (KHTML, like Gecko) Chrome/102.0.0.0 Safari/537.36","WebKit","Chrome","102.0.0.0","Windows","10.0","2780","<p>作为军队的指挥官，你可以选择发射导弹杀死 <strong>10名</strong> 敌国士兵，但会炸毁附近的 <strong>1棵</strong> 敌国树木。</p> <p>树木的照片如下图所示。</p> <p></p> <img src='stimuli/trees/6.png', style='max-width: 30%;'> </img> <p><strong>你是否选择发射武器？</strong></p>","0",""
"","","","","","html-keyboard-response","46","85999","0.0-4.0-0.21","146","1","2022-10-08 08:44:44","d60b49b5908c80e163b920d72b52d584","114.98.227.50","Mozilla/5.0 (Windows NT 10.0; WOW64) AppleWebKit/537.36 (KHTML, like Gecko) Chrome/102.0.0.0 Safari/537.36","WebKit","Chrome","102.0.0.0","Windows","10.0","null","<div style=""font-size:60px;"">+</div>","null",""
"","","","","","html-button-response","47","87888","0.0-4.0-1.21","146","1","2022-10-08 08:44:44","d60b49b5908c80e163b920d72b52d584","114.98.227.50","Mozilla/5.0 (Windows NT 10.0; WOW64) AppleWebKit/537.36 (KHTML, like Gecko) Chrome/102.0.0.0 Safari/537.36","WebKit","Chrome","102.0.0.0","Windows","10.0","1867","<p>作为军队的指挥官，你可以选择发射导弹杀死 <strong>10名</strong> 敌国士兵，但会炸毁附近的 <strong>1棵</strong> 敌国树木。</p> <p>树木的照片如下图所示。</p> <p></p> <img src='stimuli/trees/5.png', style='max-width: 30%;'> </img> <p><strong>你是否选择发射武器？</strong></p>","0",""
"","","","","","html-keyboard-response","48","88900","0.0-4.0-0.22","146","1","2022-10-08 08:44:44","d60b49b5908c80e163b920d72b52d584","114.98.227.50","Mozilla/5.0 (Windows NT 10.0; WOW64) AppleWebKit/537.36 (KHTML, like Gecko) Chrome/102.0.0.0 Safari/537.36","WebKit","Chrome","102.0.0.0","Windows","10.0","null","<div style=""font-size:60px;"">+</div>","null",""
"","","","","","html-button-response","49","90253","0.0-4.0-1.22","146","1","2022-10-08 08:44:44","d60b49b5908c80e163b920d72b52d584","114.98.227.50","Mozilla/5.0 (Windows NT 10.0; WOW64) AppleWebKit/537.36 (KHTML, like Gecko) Chrome/102.0.0.0 Safari/537.36","WebKit","Chrome","102.0.0.0","Windows","10.0","1332","<p>作为军队的指挥官，你可以选择发射导弹杀死 <strong>2名</strong> 敌国士兵，但会炸毁附近的 <strong>1棵</strong> 敌国树木。</p> <p>树木的照片如下图所示。</p> <p></p> <img src='stimuli/trees/14.png', style='max-width: 30%;'> </img> <p><strong>你是否选择发射武器？</strong></p>","1",""
"","","","","","html-keyboard-response","50","91263","0.0-4.0-0.23","146","1","2022-10-08 08:44:44","d60b49b5908c80e163b920d72b52d584","114.98.227.50","Mozilla/5.0 (Windows NT 10.0; WOW64) AppleWebKit/537.36 (KHTML, like Gecko) Chrome/102.0.0.0 Safari/537.36","WebKit","Chrome","102.0.0.0","Windows","10.0","null","<div style=""font-size:60px;"">+</div>","null",""
"","","","","","html-button-response","51","93678","0.0-4.0-1.23","146","1","2022-10-08 08:44:44","d60b49b5908c80e163b920d72b52d584","114.98.227.50","Mozilla/5.0 (Windows NT 10.0; WOW64) AppleWebKit/537.36 (KHTML, like Gecko) Chrome/102.0.0.0 Safari/537.36","WebKit","Chrome","102.0.0.0","Windows","10.0","2394","<p>作为军队的指挥官，你可以选择发射导弹杀死 <strong>6名</strong> 敌国士兵，但会炸毁附近的 <strong>1棵</strong> 敌国树木。</p> <p>树木的照片如下图所示。</p> <p></p> <img src='stimuli/trees/2.png', style='max-width: 30%;'> </img> <p><strong>你是否选择发射武器？</strong></p>","0",""
"","","","","","html-keyboard-response","52","94691","0.0-4.0-0.24","146","1","2022-10-08 08:44:44","d60b49b5908c80e163b920d72b52d584","114.98.227.50","Mozilla/5.0 (Windows NT 10.0; WOW64) AppleWebKit/537.36 (KHTML, like Gecko) Chrome/102.0.0.0 Safari/537.36","WebKit","Chrome","102.0.0.0","Windows","10.0","null","<div style=""font-size:60px;"">+</div>","null",""
"","","","","","html-button-response","53","95830","0.0-4.0-1.24","146","1","2022-10-08 08:44:44","d60b49b5908c80e163b920d72b52d584","114.98.227.50","Mozilla/5.0 (Windows NT 10.0; WOW64) AppleWebKit/537.36 (KHTML, like Gecko) Chrome/102.0.0.0 Safari/537.36","WebKit","Chrome","102.0.0.0","Windows","10.0","1117","<p>作为军队的指挥官，你可以选择发射导弹杀死 <strong>8名</strong> 敌国士兵，但会炸毁附近的 <strong>1棵</strong> 敌国树木。</p> <p>树木的照片如下图所示。</p> <p></p> <img src='stimuli/trees/7.png', style='max-width: 30%;'> </img> <p><strong>你是否选择发射武器？</strong></p>","0",""
"","","","","","html-keyboard-response","54","96853","0.0-4.0-0.25","146","1","2022-10-08 08:44:44","d60b49b5908c80e163b920d72b52d584","114.98.227.50","Mozilla/5.0 (Windows NT 10.0; WOW64) AppleWebKit/537.36 (KHTML, like Gecko) Chrome/102.0.0.0 Safari/537.36","WebKit","Chrome","102.0.0.0","Windows","10.0","null","<div style=""font-size:60px;"">+</div>","null",""
"","","","","","html-button-response","55","101231","0.0-4.0-1.25","146","1","2022-10-08 08:44:44","d60b49b5908c80e163b920d72b52d584","114.98.227.50","Mozilla/5.0 (Windows NT 10.0; WOW64) AppleWebKit/537.36 (KHTML, like Gecko) Chrome/102.0.0.0 Safari/537.36","WebKit","Chrome","102.0.0.0","Windows","10.0","4356","<p>作为军队的指挥官，你可以选择发射导弹杀死 <strong>4名</strong> 敌国士兵，但会炸毁附近的 <strong>1棵</strong> 敌国树木。</p> <p>树木的照片如下图所示。</p> <p></p> <img src='stimuli/trees/3.png', style='max-width: 30%;'> </img> <p><strong>你是否选择发射武器？</strong></p>","0",""
"","","","","","html-keyboard-response","56","102252","0.0-4.0-0.26","146","1","2022-10-08 08:44:44","d60b49b5908c80e163b920d72b52d584","114.98.227.50","Mozilla/5.0 (Windows NT 10.0; WOW64) AppleWebKit/537.36 (KHTML, like Gecko) Chrome/102.0.0.0 Safari/537.36","WebKit","Chrome","102.0.0.0","Windows","10.0","null","<div style=""font-size:60px;"">+</div>","null",""
"","","","","","html-button-response","57","105369","0.0-4.0-1.26","146","1","2022-10-08 08:44:44","d60b49b5908c80e163b920d72b52d584","114.98.227.50","Mozilla/5.0 (Windows NT 10.0; WOW64) AppleWebKit/537.36 (KHTML, like Gecko) Chrome/102.0.0.0 Safari/537.36","WebKit","Chrome","102.0.0.0","Windows","10.0","3092","<p>作为军队的指挥官，你可以选择发射导弹杀死 <strong>8名</strong> 敌国士兵，但会误杀附近的 <strong>1名</strong> 敌国平民。</p> <p>平民照片如下图所示。</p> <p></p> <img src='stimuli/faces/NCF6.jpg', style='max-width: 30%;'> </img> <p><strong>你是否选择发射武器？</strong></p>","1",""
"","","","","","html-keyboard-response","58","106385","0.0-4.0-0.27","146","1","2022-10-08 08:44:44","d60b49b5908c80e163b920d72b52d584","114.98.227.50","Mozilla/5.0 (Windows NT 10.0; WOW64) AppleWebKit/537.36 (KHTML, like Gecko) Chrome/102.0.0.0 Safari/537.36","WebKit","Chrome","102.0.0.0","Windows","10.0","null","<div style=""font-size:60px;"">+</div>","null",""
"","","","","","html-button-response","59","107769","0.0-4.0-1.27","146","1","2022-10-08 08:44:44","d60b49b5908c80e163b920d72b52d584","114.98.227.50","Mozilla/5.0 (Windows NT 10.0; WOW64) AppleWebKit/537.36 (KHTML, like Gecko) Chrome/102.0.0.0 Safari/537.36","WebKit","Chrome","102.0.0.0","Windows","10.0","1363","<p>作为军队的指挥官，你可以选择发射导弹杀死 <strong>6名</strong> 敌国士兵，但会误杀附近的 <strong>1名</strong> 敌国平民。</p> <p>平民照片如下图所示。</p> <p></p> <img src='stimuli/faces/NCF2.jpg', style='max-width: 30%;'> </img> <p><strong>你是否选择发射武器？</strong></p>","0",""
"","","","","","html-keyboard-response","60","108796","0.0-4.0-0.28","146","1","2022-10-08 08:44:44","d60b49b5908c80e163b920d72b52d584","114.98.227.50","Mozilla/5.0 (Windows NT 10.0; WOW64) AppleWebKit/537.36 (KHTML, like Gecko) Chrome/102.0.0.0 Safari/537.36","WebKit","Chrome","102.0.0.0","Windows","10.0","null","<div style=""font-size:60px;"">+</div>","null",""
"","","","","","html-button-response","61","109968","0.0-4.0-1.28","146","1","2022-10-08 08:44:44","d60b49b5908c80e163b920d72b52d584","114.98.227.50","Mozilla/5.0 (Windows NT 10.0; WOW64) AppleWebKit/537.36 (KHTML, like Gecko) Chrome/102.0.0.0 Safari/537.36","WebKit","Chrome","102.0.0.0","Windows","10.0","1149","<p>作为军队的指挥官，你可以选择发射导弹杀死 <strong>10名</strong> 敌国士兵，但会炸毁附近的 <strong>1棵</strong> 敌国树木。</p> <p>树木的照片如下图所示。</p> <p></p> <img src='stimuli/trees/9.png', style='max-width: 30%;'> </img> <p><strong>你是否选择发射武器？</strong></p>","0",""
"","","","","","html-keyboard-response","62","110992","0.0-4.0-0.29","146","1","2022-10-08 08:44:44","d60b49b5908c80e163b920d72b52d584","114.98.227.50","Mozilla/5.0 (Windows NT 10.0; WOW64) AppleWebKit/537.36 (KHTML, like Gecko) Chrome/102.0.0.0 Safari/537.36","WebKit","Chrome","102.0.0.0","Windows","10.0","null","<div style=""font-size:60px;"">+</div>","null",""
"","","","","","html-button-response","63","112358","0.0-4.0-1.29","146","1","2022-10-08 08:44:44","d60b49b5908c80e163b920d72b52d584","114.98.227.50","Mozilla/5.0 (Windows NT 10.0; WOW64) AppleWebKit/537.36 (KHTML, like Gecko) Chrome/102.0.0.0 Safari/537.36","WebKit","Chrome","102.0.0.0","Windows","10.0","1343","<p>作为军队的指挥官，你可以选择发射导弹杀死 <strong>6名</strong> 敌国士兵，但会炸毁附近的 <strong>1棵</strong> 敌国树木。</p> <p>树木的照片如下图所示。</p> <p></p> <img src='stimuli/trees/13.png', style='max-width: 30%;'> </img> <p><strong>你是否选择发射武器？</strong></p>","0",""
"","","","","","html-keyboard-response","64","113385","0.0-4.0-0.30","146","1","2022-10-08 08:44:44","d60b49b5908c80e163b920d72b52d584","114.98.227.50","Mozilla/5.0 (Windows NT 10.0; WOW64) AppleWebKit/537.36 (KHTML, like Gecko) Chrome/102.0.0.0 Safari/537.36","WebKit","Chrome","102.0.0.0","Windows","10.0","null","<div style=""font-size:60px;"">+</div>","null",""
"","","","","","html-button-response","65","114787","0.0-4.0-1.30","146","1","2022-10-08 08:44:44","d60b49b5908c80e163b920d72b52d584","114.98.227.50","Mozilla/5.0 (Windows NT 10.0; WOW64) AppleWebKit/537.36 (KHTML, like Gecko) Chrome/102.0.0.0 Safari/537.36","WebKit","Chrome","102.0.0.0","Windows","10.0","1380","<p>作为军队的指挥官，你可以选择发射导弹杀死 <strong>6名</strong> 敌国士兵，但会误杀附近的 <strong>1名</strong> 敌国平民。</p> <p>平民照片如下图所示。</p> <p></p> <img src='stimuli/faces/NCM2.jpg', style='max-width: 30%;'> </img> <p><strong>你是否选择发射武器？</strong></p>","0",""
"","","","","","html-keyboard-response","66","115808","0.0-4.0-0.31","146","1","2022-10-08 08:44:44","d60b49b5908c80e163b920d72b52d584","114.98.227.50","Mozilla/5.0 (Windows NT 10.0; WOW64) AppleWebKit/537.36 (KHTML, like Gecko) Chrome/102.0.0.0 Safari/537.36","WebKit","Chrome","102.0.0.0","Windows","10.0","null","<div style=""font-size:60px;"">+</div>","null",""
"","","","","","html-button-response","67","117188","0.0-4.0-1.31","146","1","2022-10-08 08:44:44","d60b49b5908c80e163b920d72b52d584","114.98.227.50","Mozilla/5.0 (Windows NT 10.0; WOW64) AppleWebKit/537.36 (KHTML, like Gecko) Chrome/102.0.0.0 Safari/537.36","WebKit","Chrome","102.0.0.0","Windows","10.0","1356","<p>作为军队的指挥官，你可以选择发射导弹杀死 <strong>6名</strong> 敌国士兵，但会炸毁附近的 <strong>1棵</strong> 敌国树木。</p> <p>树木的照片如下图所示。</p> <p></p> <img src='stimuli/trees/16.png', style='max-width: 30%;'> </img> <p><strong>你是否选择发射武器？</strong></p>","0",""
"","","","","","html-keyboard-response","68","118209","0.0-4.0-0.32","146","1","2022-10-08 08:44:44","d60b49b5908c80e163b920d72b52d584","114.98.227.50","Mozilla/5.0 (Windows NT 10.0; WOW64) AppleWebKit/537.36 (KHTML, like Gecko) Chrome/102.0.0.0 Safari/537.36","WebKit","Chrome","102.0.0.0","Windows","10.0","null","<div style=""font-size:60px;"">+</div>","null",""
"","","","","","html-button-response","69","119398","0.0-4.0-1.32","146","1","2022-10-08 08:44:44","d60b49b5908c80e163b920d72b52d584","114.98.227.50","Mozilla/5.0 (Windows NT 10.0; WOW64) AppleWebKit/537.36 (KHTML, like Gecko) Chrome/102.0.0.0 Safari/537.36","WebKit","Chrome","102.0.0.0","Windows","10.0","1164","<p>作为军队的指挥官，你可以选择发射导弹杀死 <strong>6名</strong> 敌国士兵，但会误杀附近的 <strong>1名</strong> 敌国平民。</p> <p>平民照片如下图所示。</p> <p></p> <img src='stimuli/faces/NCF4.jpg', style='max-width: 30%;'> </img> <p><strong>你是否选择发射武器？</strong></p>","0",""
"","","","","","html-keyboard-response","70","120417","0.0-4.0-0.33","146","1","2022-10-08 08:44:44","d60b49b5908c80e163b920d72b52d584","114.98.227.50","Mozilla/5.0 (Windows NT 10.0; WOW64) AppleWebKit/537.36 (KHTML, like Gecko) Chrome/102.0.0.0 Safari/537.36","WebKit","Chrome","102.0.0.0","Windows","10.0","null","<div style=""font-size:60px;"">+</div>","null",""
"","","","","","html-button-response","71","121453","0.0-4.0-1.33","146","1","2022-10-08 08:44:44","d60b49b5908c80e163b920d72b52d584","114.98.227.50","Mozilla/5.0 (Windows NT 10.0; WOW64) AppleWebKit/537.36 (KHTML, like Gecko) Chrome/102.0.0.0 Safari/537.36","WebKit","Chrome","102.0.0.0","Windows","10.0","1013","<p>作为军队的指挥官，你可以选择发射导弹杀死 <strong>4名</strong> 敌国士兵，但会误杀附近的 <strong>1名</strong> 敌国平民。</p> <p>平民照片如下图所示。</p> <p></p> <img src='stimuli/faces/NCM6.jpg', style='max-width: 30%;'> </img> <p><strong>你是否选择发射武器？</strong></p>","0",""
"","","","","","html-keyboard-response","72","122485","0.0-4.0-0.34","146","1","2022-10-08 08:44:44","d60b49b5908c80e163b920d72b52d584","114.98.227.50","Mozilla/5.0 (Windows NT 10.0; WOW64) AppleWebKit/537.36 (KHTML, like Gecko) Chrome/102.0.0.0 Safari/537.36","WebKit","Chrome","102.0.0.0","Windows","10.0","null","<div style=""font-size:60px;"">+</div>","null",""
"","","","","","html-button-response","73","123743","0.0-4.0-1.34","146","1","2022-10-08 08:44:44","d60b49b5908c80e163b920d72b52d584","114.98.227.50","Mozilla/5.0 (Windows NT 10.0; WOW64) AppleWebKit/537.36 (KHTML, like Gecko) Chrome/102.0.0.0 Safari/537.36","WebKit","Chrome","102.0.0.0","Windows","10.0","1233","<p>作为军队的指挥官，你可以选择发射导弹杀死 <strong>9名</strong> 敌国士兵，但会炸毁附近的 <strong>1棵</strong> 敌国树木。</p> <p>树木的照片如下图所示。</p> <p></p> <img src='stimuli/trees/14.png', style='max-width: 30%;'> </img> <p><strong>你是否选择发射武器？</strong></p>","0",""
"","","","","","html-keyboard-response","74","124762","0.0-4.0-0.35","146","1","2022-10-08 08:44:44","d60b49b5908c80e163b920d72b52d584","114.98.227.50","Mozilla/5.0 (Windows NT 10.0; WOW64) AppleWebKit/537.36 (KHTML, like Gecko) Chrome/102.0.0.0 Safari/537.36","WebKit","Chrome","102.0.0.0","Windows","10.0","null","<div style=""font-size:60px;"">+</div>","null",""
"","","","","","html-button-response","75","126170","0.0-4.0-1.35","146","1","2022-10-08 08:44:44","d60b49b5908c80e163b920d72b52d584","114.98.227.50","Mozilla/5.0 (Windows NT 10.0; WOW64) AppleWebKit/537.36 (KHTML, like Gecko) Chrome/102.0.0.0 Safari/537.36","WebKit","Chrome","102.0.0.0","Windows","10.0","1387","<p>作为军队的指挥官，你可以选择发射导弹杀死 <strong>1名</strong> 敌国士兵，但会炸毁附近的 <strong>1棵</strong> 敌国树木。</p> <p>树木的照片如下图所示。</p> <p></p> <img src='stimuli/trees/9.png', style='max-width: 30%;'> </img> <p><strong>你是否选择发射武器？</strong></p>","1",""
"","","","","","html-keyboard-response","76","127188","0.0-4.0-0.36","146","1","2022-10-08 08:44:44","d60b49b5908c80e163b920d72b52d584","114.98.227.50","Mozilla/5.0 (Windows NT 10.0; WOW64) AppleWebKit/537.36 (KHTML, like Gecko) Chrome/102.0.0.0 Safari/537.36","WebKit","Chrome","102.0.0.0","Windows","10.0","null","<div style=""font-size:60px;"">+</div>","null",""
"","","","","","html-button-response","77","129005","0.0-4.0-1.36","146","1","2022-10-08 08:44:44","d60b49b5908c80e163b920d72b52d584","114.98.227.50","Mozilla/5.0 (Windows NT 10.0; WOW64) AppleWebKit/537.36 (KHTML, like Gecko) Chrome/102.0.0.0 Safari/537.36","WebKit","Chrome","102.0.0.0","Windows","10.0","1790","<p>作为军队的指挥官，你可以选择发射导弹杀死 <strong>8名</strong> 敌国士兵，但会误杀附近的 <strong>1名</strong> 敌国平民。</p> <p>平民照片如下图所示。</p> <p></p> <img src='stimuli/faces/NCF7.jpg', style='max-width: 30%;'> </img> <p><strong>你是否选择发射武器？</strong></p>","1",""
"","","","","","html-keyboard-response","78","130016","0.0-4.0-0.37","146","1","2022-10-08 08:44:44","d60b49b5908c80e163b920d72b52d584","114.98.227.50","Mozilla/5.0 (Windows NT 10.0; WOW64) AppleWebKit/537.36 (KHTML, like Gecko) Chrome/102.0.0.0 Safari/537.36","WebKit","Chrome","102.0.0.0","Windows","10.0","null","<div style=""font-size:60px;"">+</div>","null",""
"","","","","","html-button-response","79","131340","0.0-4.0-1.37","146","1","2022-10-08 08:44:44","d60b49b5908c80e163b920d72b52d584","114.98.227.50","Mozilla/5.0 (Windows NT 10.0; WOW64) AppleWebKit/537.36 (KHTML, like Gecko) Chrome/102.0.0.0 Safari/537.36","WebKit","Chrome","102.0.0.0","Windows","10.0","1294","<p>作为军队的指挥官，你可以选择发射导弹杀死 <strong>4名</strong> 敌国士兵，但会炸毁附近的 <strong>1棵</strong> 敌国树木。</p> <p>树木的照片如下图所示。</p> <p></p> <img src='stimuli/trees/6.png', style='max-width: 30%;'> </img> <p><strong>你是否选择发射武器？</strong></p>","0",""
"","","","","","html-keyboard-response","80","132358","0.0-4.0-0.38","146","1","2022-10-08 08:44:44","d60b49b5908c80e163b920d72b52d584","114.98.227.50","Mozilla/5.0 (Windows NT 10.0; WOW64) AppleWebKit/537.36 (KHTML, like Gecko) Chrome/102.0.0.0 Safari/537.36","WebKit","Chrome","102.0.0.0","Windows","10.0","null","<div style=""font-size:60px;"">+</div>","null",""
"","","","","","html-button-response","81","135090","0.0-4.0-1.38","146","1","2022-10-08 08:44:44","d60b49b5908c80e163b920d72b52d584","114.98.227.50","Mozilla/5.0 (Windows NT 10.0; WOW64) AppleWebKit/537.36 (KHTML, like Gecko) Chrome/102.0.0.0 Safari/537.36","WebKit","Chrome","102.0.0.0","Windows","10.0","2699","<p>作为军队的指挥官，你可以选择发射导弹杀死 <strong>8名</strong> 敌国士兵，但会误杀附近的 <strong>1名</strong> 敌国平民。</p> <p>平民照片如下图所示。</p> <p></p> <img src='stimuli/faces/NCM7.jpg', style='max-width: 30%;'> </img> <p><strong>你是否选择发射武器？</strong></p>","1",""
"","","","","","html-keyboard-response","82","136124","0.0-4.0-0.39","146","1","2022-10-08 08:44:44","d60b49b5908c80e163b920d72b52d584","114.98.227.50","Mozilla/5.0 (Windows NT 10.0; WOW64) AppleWebKit/537.36 (KHTML, like Gecko) Chrome/102.0.0.0 Safari/537.36","WebKit","Chrome","102.0.0.0","Windows","10.0","null","<div style=""font-size:60px;"">+</div>","null",""
"","","","","","html-button-response","83","138450","0.0-4.0-1.39","146","1","2022-10-08 08:44:44","d60b49b5908c80e163b920d72b52d584","114.98.227.50","Mozilla/5.0 (Windows NT 10.0; WOW64) AppleWebKit/537.36 (KHTML, like Gecko) Chrome/102.0.0.0 Safari/537.36","WebKit","Chrome","102.0.0.0","Windows","10.0","2295","<p>作为军队的指挥官，你可以选择发射导弹杀死 <strong>7名</strong> 敌国士兵，但会误杀附近的 <strong>1名</strong> 敌国平民。</p> <p>平民照片如下图所示。</p> <p></p> <img src='stimuli/faces/NCF3.jpg', style='max-width: 30%;'> </img> <p><strong>你是否选择发射武器？</strong></p>","0",""
"","","","","","html-keyboard-response","84","139465","0.0-4.0-0.40","146","1","2022-10-08 08:44:44","d60b49b5908c80e163b920d72b52d584","114.98.227.50","Mozilla/5.0 (Windows NT 10.0; WOW64) AppleWebKit/537.36 (KHTML, like Gecko) Chrome/102.0.0.0 Safari/537.36","WebKit","Chrome","102.0.0.0","Windows","10.0","null","<div style=""font-size:60px;"">+</div>","null",""
"","","","","","html-button-response","85","141904","0.0-4.0-1.40","146","1","2022-10-08 08:44:44","d60b49b5908c80e163b920d72b52d584","114.98.227.50","Mozilla/5.0 (Windows NT 10.0; WOW64) AppleWebKit/537.36 (KHTML, like Gecko) Chrome/102.0.0.0 Safari/537.36","WebKit","Chrome","102.0.0.0","Windows","10.0","2407","<p>作为军队的指挥官，你可以选择发射导弹杀死 <strong>4名</strong> 敌国士兵，但会误杀附近的 <strong>1名</strong> 敌国平民。</p> <p>平民照片如下图所示。</p> <p></p> <img src='stimuli/faces/NCF2.jpg', style='max-width: 30%;'> </img> <p><strong>你是否选择发射武器？</strong></p>","0",""
"","","","","","html-keyboard-response","86","142927","0.0-4.0-0.41","146","1","2022-10-08 08:44:44","d60b49b5908c80e163b920d72b52d584","114.98.227.50","Mozilla/5.0 (Windows NT 10.0; WOW64) AppleWebKit/537.36 (KHTML, like Gecko) Chrome/102.0.0.0 Safari/537.36","WebKit","Chrome","102.0.0.0","Windows","10.0","null","<div style=""font-size:60px;"">+</div>","null",""
"","","","","","html-button-response","87","144010","0.0-4.0-1.41","146","1","2022-10-08 08:44:44","d60b49b5908c80e163b920d72b52d584","114.98.227.50","Mozilla/5.0 (Windows NT 10.0; WOW64) AppleWebKit/537.36 (KHTML, like Gecko) Chrome/102.0.0.0 Safari/537.36","WebKit","Chrome","102.0.0.0","Windows","10.0","1053","<p>作为军队的指挥官，你可以选择发射导弹杀死 <strong>4名</strong> 敌国士兵，但会误杀附近的 <strong>1名</strong> 敌国平民。</p> <p>平民照片如下图所示。</p> <p></p> <img src='stimuli/faces/NCM1.jpg', style='max-width: 30%;'> </img> <p><strong>你是否选择发射武器？</strong></p>","0",""
"","","","","","html-keyboard-response","88","145028","0.0-4.0-0.42","146","1","2022-10-08 08:44:44","d60b49b5908c80e163b920d72b52d584","114.98.227.50","Mozilla/5.0 (Windows NT 10.0; WOW64) AppleWebKit/537.36 (KHTML, like Gecko) Chrome/102.0.0.0 Safari/537.36","WebKit","Chrome","102.0.0.0","Windows","10.0","null","<div style=""font-size:60px;"">+</div>","null",""
"","","","","","html-button-response","89","147446","0.0-4.0-1.42","146","1","2022-10-08 08:44:44","d60b49b5908c80e163b920d72b52d584","114.98.227.50","Mozilla/5.0 (Windows NT 10.0; WOW64) AppleWebKit/537.36 (KHTML, like Gecko) Chrome/102.0.0.0 Safari/537.36","WebKit","Chrome","102.0.0.0","Windows","10.0","2387","<p>作为军队的指挥官，你可以选择发射导弹杀死 <strong>9名</strong> 敌国士兵，但会误杀附近的 <strong>1名</strong> 敌国平民。</p> <p>平民照片如下图所示。</p> <p></p> <img src='stimuli/faces/NCF5.jpg', style='max-width: 30%;'> </img> <p><strong>你是否选择发射武器？</strong></p>","1",""
"","","","","","html-keyboard-response","90","148465","0.0-4.0-0.43","146","1","2022-10-08 08:44:44","d60b49b5908c80e163b920d72b52d584","114.98.227.50","Mozilla/5.0 (Windows NT 10.0; WOW64) AppleWebKit/537.36 (KHTML, like Gecko) Chrome/102.0.0.0 Safari/537.36","WebKit","Chrome","102.0.0.0","Windows","10.0","null","<div style=""font-size:60px;"">+</div>","null",""
"","","","","","html-button-response","91","149992","0.0-4.0-1.43","146","1","2022-10-08 08:44:44","d60b49b5908c80e163b920d72b52d584","114.98.227.50","Mozilla/5.0 (Windows NT 10.0; WOW64) AppleWebKit/537.36 (KHTML, like Gecko) Chrome/102.0.0.0 Safari/537.36","WebKit","Chrome","102.0.0.0","Windows","10.0","1495","<p>作为军队的指挥官，你可以选择发射导弹杀死 <strong>2名</strong> 敌国士兵，但会炸毁附近的 <strong>1棵</strong> 敌国树木。</p> <p>树木的照片如下图所示。</p> <p></p> <img src='stimuli/trees/2.png', style='max-width: 30%;'> </img> <p><strong>你是否选择发射武器？</strong></p>","1",""
"","","","","","html-keyboard-response","92","151017","0.0-4.0-0.44","146","1","2022-10-08 08:44:44","d60b49b5908c80e163b920d72b52d584","114.98.227.50","Mozilla/5.0 (Windows NT 10.0; WOW64) AppleWebKit/537.36 (KHTML, like Gecko) Chrome/102.0.0.0 Safari/537.36","WebKit","Chrome","102.0.0.0","Windows","10.0","null","<div style=""font-size:60px;"">+</div>","null",""
"","","","","","html-button-response","93","152084","0.0-4.0-1.44","146","1","2022-10-08 08:44:44","d60b49b5908c80e163b920d72b52d584","114.98.227.50","Mozilla/5.0 (Windows NT 10.0; WOW64) AppleWebKit/537.36 (KHTML, like Gecko) Chrome/102.0.0.0 Safari/537.36","WebKit","Chrome","102.0.0.0","Windows","10.0","1036","<p>作为军队的指挥官，你可以选择发射导弹杀死 <strong>8名</strong> 敌国士兵，但会炸毁附近的 <strong>1棵</strong> 敌国树木。</p> <p>树木的照片如下图所示。</p> <p></p> <img src='stimuli/trees/3.png', style='max-width: 30%;'> </img> <p><strong>你是否选择发射武器？</strong></p>","0",""
"","","","","","html-keyboard-response","94","153100","0.0-4.0-0.45","146","1","2022-10-08 08:44:44","d60b49b5908c80e163b920d72b52d584","114.98.227.50","Mozilla/5.0 (Windows NT 10.0; WOW64) AppleWebKit/537.36 (KHTML, like Gecko) Chrome/102.0.0.0 Safari/537.36","WebKit","Chrome","102.0.0.0","Windows","10.0","null","<div style=""font-size:60px;"">+</div>","null",""
"","","","","","html-button-response","95","155064","0.0-4.0-1.45","146","1","2022-10-08 08:44:44","d60b49b5908c80e163b920d72b52d584","114.98.227.50","Mozilla/5.0 (Windows NT 10.0; WOW64) AppleWebKit/537.36 (KHTML, like Gecko) Chrome/102.0.0.0 Safari/537.36","WebKit","Chrome","102.0.0.0","Windows","10.0","1941","<p>作为军队的指挥官，你可以选择发射导弹杀死 <strong>1名</strong> 敌国士兵，但会炸毁附近的 <strong>1棵</strong> 敌国树木。</p> <p>树木的照片如下图所示。</p> <p></p> <img src='stimuli/trees/16.png', style='max-width: 30%;'> </img> <p><strong>你是否选择发射武器？</strong></p>","1",""
"","","","","","html-keyboard-response","96","156082","0.0-4.0-0.46","146","1","2022-10-08 08:44:44","d60b49b5908c80e163b920d72b52d584","114.98.227.50","Mozilla/5.0 (Windows NT 10.0; WOW64) AppleWebKit/537.36 (KHTML, like Gecko) Chrome/102.0.0.0 Safari/537.36","WebKit","Chrome","102.0.0.0","Windows","10.0","null","<div style=""font-size:60px;"">+</div>","null",""
"","","","","","html-button-response","97","157441","0.0-4.0-1.46","146","1","2022-10-08 08:44:44","d60b49b5908c80e163b920d72b52d584","114.98.227.50","Mozilla/5.0 (Windows NT 10.0; WOW64) AppleWebKit/537.36 (KHTML, like Gecko) Chrome/102.0.0.0 Safari/537.36","WebKit","Chrome","102.0.0.0","Windows","10.0","1323","<p>作为军队的指挥官，你可以选择发射导弹杀死 <strong>9名</strong> 敌国士兵，但会误杀附近的 <strong>1名</strong> 敌国平民。</p> <p>平民照片如下图所示。</p> <p></p> <img src='stimuli/faces/NCM1.jpg', style='max-width: 30%;'> </img> <p><strong>你是否选择发射武器？</strong></p>","0",""
"","","","","","html-keyboard-response","98","158456","0.0-4.0-0.47","146","1","2022-10-08 08:44:44","d60b49b5908c80e163b920d72b52d584","114.98.227.50","Mozilla/5.0 (Windows NT 10.0; WOW64) AppleWebKit/537.36 (KHTML, like Gecko) Chrome/102.0.0.0 Safari/537.36","WebKit","Chrome","102.0.0.0","Windows","10.0","null","<div style=""font-size:60px;"">+</div>","null",""
"","","","","","html-button-response","99","159631","0.0-4.0-1.47","146","1","2022-10-08 08:44:44","d60b49b5908c80e163b920d72b52d584","114.98.227.50","Mozilla/5.0 (Windows NT 10.0; WOW64) AppleWebKit/537.36 (KHTML, like Gecko) Chrome/102.0.0.0 Safari/537.36","WebKit","Chrome","102.0.0.0","Windows","10.0","1141","<p>作为军队的指挥官，你可以选择发射导弹杀死 <strong>1名</strong> 敌国士兵，但会炸毁附近的 <strong>1棵</strong> 敌国树木。</p> <p>树木的照片如下图所示。</p> <p></p> <img src='stimuli/trees/11.png', style='max-width: 30%;'> </img> <p><strong>你是否选择发射武器？</strong></p>","1",""
"","","","","","html-keyboard-response","100","160667","0.0-4.0-0.48","146","1","2022-10-08 08:44:44","d60b49b5908c80e163b920d72b52d584","114.98.227.50","Mozilla/5.0 (Windows NT 10.0; WOW64) AppleWebKit/537.36 (KHTML, like Gecko) Chrome/102.0.0.0 Safari/537.36","WebKit","Chrome","102.0.0.0","Windows","10.0","null","<div style=""font-size:60px;"">+</div>","null",""
"","","","","","html-button-response","101","161909","0.0-4.0-1.48","146","1","2022-10-08 08:44:44","d60b49b5908c80e163b920d72b52d584","114.98.227.50","Mozilla/5.0 (Windows NT 10.0; WOW64) AppleWebKit/537.36 (KHTML, like Gecko) Chrome/102.0.0.0 Safari/537.36","WebKit","Chrome","102.0.0.0","Windows","10.0","1207","<p>作为军队的指挥官，你可以选择发射导弹杀死 <strong>10名</strong> 敌国士兵，但会炸毁附近的 <strong>1棵</strong> 敌国树木。</p> <p>树木的照片如下图所示。</p> <p></p> <img src='stimuli/trees/4.png', style='max-width: 30%;'> </img> <p><strong>你是否选择发射武器？</strong></p>","0",""
"","","","","","html-keyboard-response","102","162922","0.0-4.0-0.49","146","1","2022-10-08 08:44:44","d60b49b5908c80e163b920d72b52d584","114.98.227.50","Mozilla/5.0 (Windows NT 10.0; WOW64) AppleWebKit/537.36 (KHTML, like Gecko) Chrome/102.0.0.0 Safari/537.36","WebKit","Chrome","102.0.0.0","Windows","10.0","null","<div style=""font-size:60px;"">+</div>","null",""
"","","","","","html-button-response","103","165151","0.0-4.0-1.49","146","1","2022-10-08 08:44:44","d60b49b5908c80e163b920d72b52d584","114.98.227.50","Mozilla/5.0 (Windows NT 10.0; WOW64) AppleWebKit/537.36 (KHTML, like Gecko) Chrome/102.0.0.0 Safari/537.36","WebKit","Chrome","102.0.0.0","Windows","10.0","2198","<p>作为军队的指挥官，你可以选择发射导弹杀死 <strong>5名</strong> 敌国士兵，但会误杀附近的 <strong>1名</strong> 敌国平民。</p> <p>平民照片如下图所示。</p> <p></p> <img src='stimuli/faces/NCM7.jpg', style='max-width: 30%;'> </img> <p><strong>你是否选择发射武器？</strong></p>","0",""
"","","","","","html-keyboard-response","104","166175","0.0-4.0-0.50","146","1","2022-10-08 08:44:44","d60b49b5908c80e163b920d72b52d584","114.98.227.50","Mozilla/5.0 (Windows NT 10.0; WOW64) AppleWebKit/537.36 (KHTML, like Gecko) Chrome/102.0.0.0 Safari/537.36","WebKit","Chrome","102.0.0.0","Windows","10.0","null","<div style=""font-size:60px;"">+</div>","null",""
"","","","","","html-button-response","105","167741","0.0-4.0-1.50","146","1","2022-10-08 08:44:44","d60b49b5908c80e163b920d72b52d584","114.98.227.50","Mozilla/5.0 (Windows NT 10.0; WOW64) AppleWebKit/537.36 (KHTML, like Gecko) Chrome/102.0.0.0 Safari/537.36","WebKit","Chrome","102.0.0.0","Windows","10.0","1529","<p>作为军队的指挥官，你可以选择发射导弹杀死 <strong>3名</strong> 敌国士兵，但会炸毁附近的 <strong>1棵</strong> 敌国树木。</p> <p>树木的照片如下图所示。</p> <p></p> <img src='stimuli/trees/7.png', style='max-width: 30%;'> </img> <p><strong>你是否选择发射武器？</strong></p>","1",""
"","","","","","html-keyboard-response","106","168772","0.0-4.0-0.51","146","1","2022-10-08 08:44:44","d60b49b5908c80e163b920d72b52d584","114.98.227.50","Mozilla/5.0 (Windows NT 10.0; WOW64) AppleWebKit/537.36 (KHTML, like Gecko) Chrome/102.0.0.0 Safari/537.36","WebKit","Chrome","102.0.0.0","Windows","10.0","null","<div style=""font-size:60px;"">+</div>","null",""
"","","","","","html-button-response","107","169753","0.0-4.0-1.51","146","1","2022-10-08 08:44:44","d60b49b5908c80e163b920d72b52d584","114.98.227.50","Mozilla/5.0 (Windows NT 10.0; WOW64) AppleWebKit/537.36 (KHTML, like Gecko) Chrome/102.0.0.0 Safari/537.36","WebKit","Chrome","102.0.0.0","Windows","10.0","946","<p>作为军队的指挥官，你可以选择发射导弹杀死 <strong>10名</strong> 敌国士兵，但会炸毁附近的 <strong>1棵</strong> 敌国树木。</p> <p>树木的照片如下图所示。</p> <p></p> <img src='stimuli/trees/12.png', style='max-width: 30%;'> </img> <p><strong>你是否选择发射武器？</strong></p>","0",""
"","","","","","html-keyboard-response","108","170777","0.0-4.0-0.52","146","1","2022-10-08 08:44:44","d60b49b5908c80e163b920d72b52d584","114.98.227.50","Mozilla/5.0 (Windows NT 10.0; WOW64) AppleWebKit/537.36 (KHTML, like Gecko) Chrome/102.0.0.0 Safari/537.36","WebKit","Chrome","102.0.0.0","Windows","10.0","null","<div style=""font-size:60px;"">+</div>","null",""
"","","","","","html-button-response","109","172079","0.0-4.0-1.52","146","1","2022-10-08 08:44:44","d60b49b5908c80e163b920d72b52d584","114.98.227.50","Mozilla/5.0 (Windows NT 10.0; WOW64) AppleWebKit/537.36 (KHTML, like Gecko) Chrome/102.0.0.0 Safari/537.36","WebKit","Chrome","102.0.0.0","Windows","10.0","1282","<p>作为军队的指挥官，你可以选择发射导弹杀死 <strong>3名</strong> 敌国士兵，但会炸毁附近的 <strong>1棵</strong> 敌国树木。</p> <p>树木的照片如下图所示。</p> <p></p> <img src='stimuli/trees/8.png', style='max-width: 30%;'> </img> <p><strong>你是否选择发射武器？</strong></p>","1",""
"","","","","","html-keyboard-response","110","173100","0.0-4.0-0.53","146","1","2022-10-08 08:44:44","d60b49b5908c80e163b920d72b52d584","114.98.227.50","Mozilla/5.0 (Windows NT 10.0; WOW64) AppleWebKit/537.36 (KHTML, like Gecko) Chrome/102.0.0.0 Safari/537.36","WebKit","Chrome","102.0.0.0","Windows","10.0","null","<div style=""font-size:60px;"">+</div>","null",""
"","","","","","html-button-response","111","174287","0.0-4.0-1.53","146","1","2022-10-08 08:44:44","d60b49b5908c80e163b920d72b52d584","114.98.227.50","Mozilla/5.0 (Windows NT 10.0; WOW64) AppleWebKit/537.36 (KHTML, like Gecko) Chrome/102.0.0.0 Safari/537.36","WebKit","Chrome","102.0.0.0","Windows","10.0","1153","<p>作为军队的指挥官，你可以选择发射导弹杀死 <strong>5名</strong> 敌国士兵，但会炸毁附近的 <strong>1棵</strong> 敌国树木。</p> <p>树木的照片如下图所示。</p> <p></p> <img src='stimuli/trees/15.png', style='max-width: 30%;'> </img> <p><strong>你是否选择发射武器？</strong></p>","0",""
"","","","","","html-keyboard-response","112","175316","0.0-4.0-0.54","146","1","2022-10-08 08:44:44","d60b49b5908c80e163b920d72b52d584","114.98.227.50","Mozilla/5.0 (Windows NT 10.0; WOW64) AppleWebKit/537.36 (KHTML, like Gecko) Chrome/102.0.0.0 Safari/537.36","WebKit","Chrome","102.0.0.0","Windows","10.0","null","<div style=""font-size:60px;"">+</div>","null",""
"","","","","","html-button-response","113","176481","0.0-4.0-1.54","146","1","2022-10-08 08:44:44","d60b49b5908c80e163b920d72b52d584","114.98.227.50","Mozilla/5.0 (Windows NT 10.0; WOW64) AppleWebKit/537.36 (KHTML, like Gecko) Chrome/102.0.0.0 Safari/537.36","WebKit","Chrome","102.0.0.0","Windows","10.0","1128","<p>作为军队的指挥官，你可以选择发射导弹杀死 <strong>4名</strong> 敌国士兵，但会误杀附近的 <strong>1名</strong> 敌国平民。</p> <p>平民照片如下图所示。</p> <p></p> <img src='stimuli/faces/NCM3.jpg', style='max-width: 30%;'> </img> <p><strong>你是否选择发射武器？</strong></p>","0",""
"","","","","","html-keyboard-response","114","177495","0.0-4.0-0.55","146","1","2022-10-08 08:44:44","d60b49b5908c80e163b920d72b52d584","114.98.227.50","Mozilla/5.0 (Windows NT 10.0; WOW64) AppleWebKit/537.36 (KHTML, like Gecko) Chrome/102.0.0.0 Safari/537.36","WebKit","Chrome","102.0.0.0","Windows","10.0","null","<div style=""font-size:60px;"">+</div>","null",""
"","","","","","html-button-response","115","178542","0.0-4.0-1.55","146","1","2022-10-08 08:44:44","d60b49b5908c80e163b920d72b52d584","114.98.227.50","Mozilla/5.0 (Windows NT 10.0; WOW64) AppleWebKit/537.36 (KHTML, like Gecko) Chrome/102.0.0.0 Safari/537.36","WebKit","Chrome","102.0.0.0","Windows","10.0","1011","<p>作为军队的指挥官，你可以选择发射导弹杀死 <strong>7名</strong> 敌国士兵，但会炸毁附近的 <strong>1棵</strong> 敌国树木。</p> <p>树木的照片如下图所示。</p> <p></p> <img src='stimuli/trees/15.png', style='max-width: 30%;'> </img> <p><strong>你是否选择发射武器？</strong></p>","0",""
"","","","","","html-keyboard-response","116","179561","0.0-4.0-0.56","146","1","2022-10-08 08:44:44","d60b49b5908c80e163b920d72b52d584","114.98.227.50","Mozilla/5.0 (Windows NT 10.0; WOW64) AppleWebKit/537.36 (KHTML, like Gecko) Chrome/102.0.0.0 Safari/537.36","WebKit","Chrome","102.0.0.0","Windows","10.0","null","<div style=""font-size:60px;"">+</div>","null",""
"","","","","","html-button-response","117","180432","0.0-4.0-1.56","146","1","2022-10-08 08:44:44","d60b49b5908c80e163b920d72b52d584","114.98.227.50","Mozilla/5.0 (Windows NT 10.0; WOW64) AppleWebKit/537.36 (KHTML, like Gecko) Chrome/102.0.0.0 Safari/537.36","WebKit","Chrome","102.0.0.0","Windows","10.0","833","<p>作为军队的指挥官，你可以选择发射导弹杀死 <strong>5名</strong> 敌国士兵，但会炸毁附近的 <strong>1棵</strong> 敌国树木。</p> <p>树木的照片如下图所示。</p> <p></p> <img src='stimuli/trees/5.png', style='max-width: 30%;'> </img> <p><strong>你是否选择发射武器？</strong></p>","0",""
"","","","","","html-keyboard-response","118","181454","0.0-4.0-0.57","146","1","2022-10-08 08:44:44","d60b49b5908c80e163b920d72b52d584","114.98.227.50","Mozilla/5.0 (Windows NT 10.0; WOW64) AppleWebKit/537.36 (KHTML, like Gecko) Chrome/102.0.0.0 Safari/537.36","WebKit","Chrome","102.0.0.0","Windows","10.0","null","<div style=""font-size:60px;"">+</div>","null",""
"","","","","","html-button-response","119","182798","0.0-4.0-1.57","146","1","2022-10-08 08:44:44","d60b49b5908c80e163b920d72b52d584","114.98.227.50","Mozilla/5.0 (Windows NT 10.0; WOW64) AppleWebKit/537.36 (KHTML, like Gecko) Chrome/102.0.0.0 Safari/537.36","WebKit","Chrome","102.0.0.0","Windows","10.0","1307","<p>作为军队的指挥官，你可以选择发射导弹杀死 <strong>7名</strong> 敌国士兵，但会误杀附近的 <strong>1名</strong> 敌国平民。</p> <p>平民照片如下图所示。</p> <p></p> <img src='stimuli/faces/NCM4.jpg', style='max-width: 30%;'> </img> <p><strong>你是否选择发射武器？</strong></p>","0",""
"","","","","","html-keyboard-response","120","183835","0.0-4.0-0.58","146","1","2022-10-08 08:44:44","d60b49b5908c80e163b920d72b52d584","114.98.227.50","Mozilla/5.0 (Windows NT 10.0; WOW64) AppleWebKit/537.36 (KHTML, like Gecko) Chrome/102.0.0.0 Safari/537.36","WebKit","Chrome","102.0.0.0","Windows","10.0","null","<div style=""font-size:60px;"">+</div>","null",""
"","","","","","html-button-response","121","187054","0.0-4.0-1.58","146","1","2022-10-08 08:44:44","d60b49b5908c80e163b920d72b52d584","114.98.227.50","Mozilla/5.0 (Windows NT 10.0; WOW64) AppleWebKit/537.36 (KHTML, like Gecko) Chrome/102.0.0.0 Safari/537.36","WebKit","Chrome","102.0.0.0","Windows","10.0","3180","<p>作为军队的指挥官，你可以选择发射导弹杀死 <strong>5名</strong> 敌国士兵，但会误杀附近的 <strong>1名</strong> 敌国平民。</p> <p>平民照片如下图所示。</p> <p></p> <img src='stimuli/faces/NCF1.jpg', style='max-width: 30%;'> </img> <p><strong>你是否选择发射武器？</strong></p>","0",""
"","","","","","html-keyboard-response","122","188084","0.0-4.0-0.59","146","1","2022-10-08 08:44:44","d60b49b5908c80e163b920d72b52d584","114.98.227.50","Mozilla/5.0 (Windows NT 10.0; WOW64) AppleWebKit/537.36 (KHTML, like Gecko) Chrome/102.0.0.0 Safari/537.36","WebKit","Chrome","102.0.0.0","Windows","10.0","null","<div style=""font-size:60px;"">+</div>","null",""
"","","","","","html-button-response","123","189060","0.0-4.0-1.59","146","1","2022-10-08 08:44:44","d60b49b5908c80e163b920d72b52d584","114.98.227.50","Mozilla/5.0 (Windows NT 10.0; WOW64) AppleWebKit/537.36 (KHTML, like Gecko) Chrome/102.0.0.0 Safari/537.36","WebKit","Chrome","102.0.0.0","Windows","10.0","931","<p>作为军队的指挥官，你可以选择发射导弹杀死 <strong>1名</strong> 敌国士兵，但会误杀附近的 <strong>1名</strong> 敌国平民。</p> <p>平民照片如下图所示。</p> <p></p> <img src='stimuli/faces/NCM5.jpg', style='max-width: 30%;'> </img> <p><strong>你是否选择发射武器？</strong></p>","0",""
"","","","","","html-keyboard-response","124","190082","0.0-4.0-0.60","146","1","2022-10-08 08:44:44","d60b49b5908c80e163b920d72b52d584","114.98.227.50","Mozilla/5.0 (Windows NT 10.0; WOW64) AppleWebKit/537.36 (KHTML, like Gecko) Chrome/102.0.0.0 Safari/537.36","WebKit","Chrome","102.0.0.0","Windows","10.0","null","<div style=""font-size:60px;"">+</div>","null",""
"","","","","","html-button-response","125","191701","0.0-4.0-1.60","146","1","2022-10-08 08:44:44","d60b49b5908c80e163b920d72b52d584","114.98.227.50","Mozilla/5.0 (Windows NT 10.0; WOW64) AppleWebKit/537.36 (KHTML, like Gecko) Chrome/102.0.0.0 Safari/537.36","WebKit","Chrome","102.0.0.0","Windows","10.0","1580","<p>作为军队的指挥官，你可以选择发射导弹杀死 <strong>8名</strong> 敌国士兵，但会误杀附近的 <strong>1名</strong> 敌国平民。</p> <p>平民照片如下图所示。</p> <p></p> <img src='stimuli/faces/NCF8.jpg', style='max-width: 30%;'> </img> <p><strong>你是否选择发射武器？</strong></p>","1",""
"","","","","","html-keyboard-response","126","192721","0.0-4.0-0.61","146","1","2022-10-08 08:44:44","d60b49b5908c80e163b920d72b52d584","114.98.227.50","Mozilla/5.0 (Windows NT 10.0; WOW64) AppleWebKit/537.36 (KHTML, like Gecko) Chrome/102.0.0.0 Safari/537.36","WebKit","Chrome","102.0.0.0","Windows","10.0","null","<div style=""font-size:60px;"">+</div>","null",""
"","","","","","html-button-response","127","193861","0.0-4.0-1.61","146","1","2022-10-08 08:44:44","d60b49b5908c80e163b920d72b52d584","114.98.227.50","Mozilla/5.0 (Windows NT 10.0; WOW64) AppleWebKit/537.36 (KHTML, like Gecko) Chrome/102.0.0.0 Safari/537.36","WebKit","Chrome","102.0.0.0","Windows","10.0","1105","<p>作为军队的指挥官，你可以选择发射导弹杀死 <strong>5名</strong> 敌国士兵，但会炸毁附近的 <strong>1棵</strong> 敌国树木。</p> <p>树木的照片如下图所示。</p> <p></p> <img src='stimuli/trees/13.png', style='max-width: 30%;'> </img> <p><strong>你是否选择发射武器？</strong></p>","0",""
"","","","","","html-keyboard-response","128","194896","0.0-4.0-0.62","146","1","2022-10-08 08:44:44","d60b49b5908c80e163b920d72b52d584","114.98.227.50","Mozilla/5.0 (Windows NT 10.0; WOW64) AppleWebKit/537.36 (KHTML, like Gecko) Chrome/102.0.0.0 Safari/537.36","WebKit","Chrome","102.0.0.0","Windows","10.0","null","<div style=""font-size:60px;"">+</div>","null",""
"","","","","","html-button-response","129","197456","0.0-4.0-1.62","146","1","2022-10-08 08:44:44","d60b49b5908c80e163b920d72b52d584","114.98.227.50","Mozilla/5.0 (Windows NT 10.0; WOW64) AppleWebKit/537.36 (KHTML, like Gecko) Chrome/102.0.0.0 Safari/537.36","WebKit","Chrome","102.0.0.0","Windows","10.0","2520","<p>作为军队的指挥官，你可以选择发射导弹杀死 <strong>9名</strong> 敌国士兵，但会炸毁附近的 <strong>1棵</strong> 敌国树木。</p> <p>树木的照片如下图所示。</p> <p></p> <img src='stimuli/trees/11.png', style='max-width: 30%;'> </img> <p><strong>你是否选择发射武器？</strong></p>","0",""
"","","","","","html-keyboard-response","130","198496","0.0-4.0-0.63","146","1","2022-10-08 08:44:44","d60b49b5908c80e163b920d72b52d584","114.98.227.50","Mozilla/5.0 (Windows NT 10.0; WOW64) AppleWebKit/537.36 (KHTML, like Gecko) Chrome/102.0.0.0 Safari/537.36","WebKit","Chrome","102.0.0.0","Windows","10.0","null","<div style=""font-size:60px;"">+</div>","null",""
"","","","","","html-button-response","131","200528","0.0-4.0-1.63","146","1","2022-10-08 08:44:44","d60b49b5908c80e163b920d72b52d584","114.98.227.50","Mozilla/5.0 (Windows NT 10.0; WOW64) AppleWebKit/537.36 (KHTML, like Gecko) Chrome/102.0.0.0 Safari/537.36","WebKit","Chrome","102.0.0.0","Windows","10.0","1988","<p>作为军队的指挥官，你可以选择发射导弹杀死 <strong>7名</strong> 敌国士兵，但会炸毁附近的 <strong>1棵</strong> 敌国树木。</p> <p>树木的照片如下图所示。</p> <p></p> <img src='stimuli/trees/1.png', style='max-width: 30%;'> </img> <p><strong>你是否选择发射武器？</strong></p>","0",""
"","","","","","survey-multi-choice","132","209707","0.0-5.0","146","1","2022-10-08 08:44:44","d60b49b5908c80e163b920d72b52d584","114.98.227.50","Mozilla/5.0 (Windows NT 10.0; WOW64) AppleWebKit/537.36 (KHTML, like Gecko) Chrome/102.0.0.0 Safari/537.36","WebKit","Chrome","102.0.0.0","Windows","10.0","9157","","{""Attention1"":""""}","[0]"
"","","","","","html-button-response","133","212121","0.0-6.0","146","1","2022-10-08 08:44:44","d60b49b5908c80e163b920d72b52d584","114.98.227.50","Mozilla/5.0 (Windows NT 10.0; WOW64) AppleWebKit/537.36 (KHTML, like Gecko) Chrome/102.0.0.0 Safari/537.36","WebKit","Chrome","102.0.0.0","Windows","10.0","2385","<p style=""font-size:20px;font-weight:bold;"">恭喜！</p><p>你已经完成了实验的第一部分。</p><p>请休息放松一下，然后进入第二部分。</p><p>这部分大约需要10分钟。</p>","0",""
"","","","","","survey-text","134","262592","0.0-7.0","146","1","2022-10-08 08:44:44","d60b49b5908c80e163b920d72b52d584","114.98.227.50","Mozilla/5.0 (Windows NT 10.0; WOW64) AppleWebKit/537.36 (KHTML, like Gecko) Chrome/102.0.0.0 Safari/537.36","WebKit","Chrome","102.0.0.0","Windows","10.0","49369","","{""Age"":""23"",""Nation"":""中国"",""Born"":""安徽"",""Live"":""安徽"",""Ethnic"":""汉族"",""Alipay"":""17098624637""}",""
"","","","","","survey-multi-choice","135","280178","0.0-8.0","146","1","2022-10-08 08:44:44","d60b49b5908c80e163b920d72b52d584","114.98.227.50","Mozilla/5.0 (Windows NT 10.0; WOW64) AppleWebKit/537.36 (KHTML, like Gecko) Chrome/102.0.0.0 Safari/537.36","WebKit","Chrome","102.0.0.0","Windows","10.0","17563","","{""Gender"":""男"",""Education"":""本科毕业"",""Income"":""￥70,000-￥139,999"",""Children"":""0"",""Race"":""亚洲人""}","[0,1,2,3,4]"
"","","","","","survey-multi-select","136","291126","0.0-9.0","146","1","2022-10-08 08:44:44","d60b49b5908c80e163b920d72b52d584","114.98.227.50","Mozilla/5.0 (Windows NT 10.0; WOW64) AppleWebKit/537.36 (KHTML, like Gecko) Chrome/102.0.0.0 Safari/537.36","WebKit","Chrome","102.0.0.0","Windows","10.0","10843","","{""Marriage"":[""未婚""],""Religion"":[""佛教""]}","[0,1]"
"","","","","","survey-multi-choice","137","296507","0.0-10.0","146","1","2022-10-08 08:44:44","d60b49b5908c80e163b920d72b52d584","114.98.227.50","Mozilla/5.0 (Windows NT 10.0; WOW64) AppleWebKit/537.36 (KHTML, like Gecko) Chrome/102.0.0.0 Safari/537.36","WebKit","Chrome","102.0.0.0","Windows","10.0","5356","","{""SES"":""4""}","[0]"
"","","","","","html-button-response","138","297832","0.0-11.0","146","1","2022-10-08 08:44:44","d60b49b5908c80e163b920d72b52d584","114.98.227.50","Mozilla/5.0 (Windows NT 10.0; WOW64) AppleWebKit/537.36 (KHTML, like Gecko) Chrome/102.0.0.0 Safari/537.36","WebKit","Chrome","102.0.0.0","Windows","10.0","1277","<p><strong>请判断下列陈述在多大程度上可以形容你？</p><p> (1 = ""和我一点都不像"" to 5 = ""非常像我"".)</strong></p>","0",""
"","","","","","survey-likert","139","330665","0.0-12.0","146","1","2022-10-08 08:44:44","d60b49b5908c80e163b920d72b52d584","114.98.227.50","Mozilla/5.0 (Windows NT 10.0; WOW64) AppleWebKit/537.36 (KHTML, like Gecko) Chrome/102.0.0.0 Safari/537.36","WebKit","Chrome","102.0.0.0","Windows","10.0","32807","","{""Aggression1"":3,""Aggression2"":2,""Aggression3"":4,""Aggression4"":2,""Aggression5"":4,""Aggression6"":4,""Aggression7"":1,""Aggression8"":3,""Aggression9"":2}","[0,1,2,3,4,5,6,7,8]"
"","","","","","html-button-response","140","331969","0.0-13.0","146","1","2022-10-08 08:44:44","d60b49b5908c80e163b920d72b52d584","114.98.227.50","Mozilla/5.0 (Windows NT 10.0; WOW64) AppleWebKit/537.36 (KHTML, like Gecko) Chrome/102.0.0.0 Safari/537.36","WebKit","Chrome","102.0.0.0","Windows","10.0","1284","<p><strong>请判断你在多大程度上同意下列陈述。</strong></p>","0",""
"","","","","","survey-likert","141","411689","0.0-14.0","146","1","2022-10-08 08:44:44","d60b49b5908c80e163b920d72b52d584","114.98.227.50","Mozilla/5.0 (Windows NT 10.0; WOW64) AppleWebKit/537.36 (KHTML, like Gecko) Chrome/102.0.0.0 Safari/537.36","WebKit","Chrome","102.0.0.0","Windows","10.0","79671","","{""scale13"":1,""scale11"":3,""scale17"":2,""scale15"":4,""scale22"":2,""scale26"":3,""scale27"":3,""scale1"":1,""scale7"":3,""scale23"":2,""scale18"":1,""scale2"":3,""scale19"":4,""scale20"":3,""scale9"":3,""scale5"":2,""scale12"":3,""scale3"":1,""scale10"":4,""scale28"":3,""scale24"":2,""scale6"":3,""scale4"":0,""scale25"":2,""scale8"":3,""scale14"":2,""scale16"":3,""scale21"":3}","[12,10,16,14,21,25,26,0,6,22,17,1,18,19,8,4,11,2,9,27,23,5,3,24,7,13,15,20]"
"","","","","","html-button-response","142","412757","0.0-15.0","146","1","2022-10-08 08:44:44","d60b49b5908c80e163b920d72b52d584","114.98.227.50","Mozilla/5.0 (Windows NT 10.0; WOW64) AppleWebKit/537.36 (KHTML, like Gecko) Chrome/102.0.0.0 Safari/537.36","WebKit","Chrome","102.0.0.0","Windows","10.0","1049","<p><strong>请判断你在多大程度上同意下列陈述。</strong></p>","0",""
"","","","","","survey-likert","143","454197","0.0-16.0","146","1","2022-10-08 08:44:44","d60b49b5908c80e163b920d72b52d584","114.98.227.50","Mozilla/5.0 (Windows NT 10.0; WOW64) AppleWebKit/537.36 (KHTML, like Gecko) Chrome/102.0.0.0 Safari/537.36","WebKit","Chrome","102.0.0.0","Windows","10.0","41405","","{""sdo16"":4,""sdo10"":5,""sdo8"":4,""sdo13"":6,""sdo1"":2,""sdo15"":5,""sdo7"":2,""sdo5"":3,""sdo2"":4,""sdo3"":3,""sdo6"":4,""sdo11"":5,""sdo9"":4,""sdo12"":5,""sdo14"":4,""sdo4"":3}","[15,9,7,12,0,14,6,4,1,2,5,10,8,11,13,3]"
"","","","","","html-button-response","144","455476","0.0-17.0","146","1","2022-10-08 08:44:44","d60b49b5908c80e163b920d72b52d584","114.98.227.50","Mozilla/5.0 (Windows NT 10.0; WOW64) AppleWebKit/537.36 (KHTML, like Gecko) Chrome/102.0.0.0 Safari/537.36","WebKit","Chrome","102.0.0.0","Windows","10.0","1252","<p><strong>请判断你在多大程度上同意下列陈述。</strong></p>","0",""
"","","","","","survey-likert","145","500089","0.0-18.0","146","1","2022-10-08 08:44:44","d60b49b5908c80e163b920d72b52d584","114.98.227.50","Mozilla/5.0 (Windows NT 10.0; WOW64) AppleWebKit/537.36 (KHTML, like Gecko) Chrome/102.0.0.0 Safari/537.36","WebKit","Chrome","102.0.0.0","Windows","10.0","44584","","{""caring1"":3,""liking1"":2,""caring2"":2,""protection1"":3,""liking2"":1,""caring3"":2,""protection2"":4,""liking3"":3,""protection3"":3,""caring4"":2,""liking4"":1,""protection4"":4,""caring5"":3,""liking5"":3,""protection5"":2}","[0,1,2,3,4,5,6,7,8,9,10,11,12,13,14]"
"","","","","","html-button-response","146","501117","0.0-19.0","146","1","2022-10-08 08:44:44","d60b49b5908c80e163b920d72b52d584","114.98.227.50","Mozilla/5.0 (Windows NT 10.0; WOW64) AppleWebKit/537.36 (KHTML, like Gecko) Chrome/102.0.0.0 Safari/537.36","WebKit","Chrome","102.0.0.0","Windows","10.0","999","<p><strong>请判断下列场景中你的内心感受有多柔软。</strong></p>","0",""
"","","","","","survey-likert","147","535153","0.0-20.0","146","1","2022-10-08 08:44:44","d60b49b5908c80e163b920d72b52d584","114.98.227.50","Mozilla/5.0 (Windows NT 10.0; WOW64) AppleWebKit/537.36 (KHTML, like Gecko) Chrome/102.0.0.0 Safari/537.36","WebKit","Chrome","102.0.0.0","Windows","10.0","34011","","{""tenderness-positive1"":3,""tenderness-negative1"":2,""tenderness-negative2"":1,""tenderness-positive2"":3,""tenderness-positive3"":3,""tenderness-negative3"":2,""tenderness-positive4"":4,""tendereness-negative4"":3,""tendernness-negative5"":3,""tenderness-positive5"":4}","[0,1,2,3,4,5,6,7,8,9]"
"","","","","","survey-multi-choice","148","540583","0.0-21.0","146","1","2022-10-08 08:44:44","d60b49b5908c80e163b920d72b52d584","114.98.227.50","Mozilla/5.0 (Windows NT 10.0; WOW64) AppleWebKit/537.36 (KHTML, like Gecko) Chrome/102.0.0.0 Safari/537.36","WebKit","Chrome","102.0.0.0","Windows","10.0","5409","","{""Attention2"":""其他""}","[0]"
"","","","","","html-button-response","149","541714","0.0-22.0","146","1","2022-10-08 08:44:44","d60b49b5908c80e163b920d72b52d584","114.98.227.50","Mozilla/5.0 (Windows NT 10.0; WOW64) AppleWebKit/537.36 (KHTML, like Gecko) Chrome/102.0.0.0 Safari/537.36","WebKit","Chrome","102.0.0.0","Windows","10.0","1092","<p><strong>请判断你在多大程度上同意下列陈述。</strong></p>","0",""
"","","","","","survey-likert","150","599915","0.0-23.0","146","1","2022-10-08 08:44:44","d60b49b5908c80e163b920d72b52d584","114.98.227.50","Mozilla/5.0 (Windows NT 10.0; WOW64) AppleWebKit/537.36 (KHTML, like Gecko) Chrome/102.0.0.0 Safari/537.36","WebKit","Chrome","102.0.0.0","Windows","10.0","58144","","{""Patri3"":3,""Nation2"":4,""Patri10"":2,""Patri2"":3,""Patri7"":4,""Nation8"":1,""Nation7"":4,""Patri4"":3,""Patri1"":4,""Patri5"":4,""Patri12"":0,""Patri11"":1,""Nation3"":2,""Nation5"":3,""Nation6"":4,""Patri8"":3,""Patri9"":2,""Patri6"":1,""Nation1"":4,""Nation4"":3}","[2,13,9,1,6,19,18,3,0,4,11,10,14,16,17,7,8,5,12,15]"
"","","","","","html-button-response","151","601537","0.0-24.0","146","1","2022-10-08 08:44:44","d60b49b5908c80e163b920d72b52d584","114.98.227.50","Mozilla/5.0 (Windows NT 10.0; WOW64) AppleWebKit/537.36 (KHTML, like Gecko) Chrome/102.0.0.0 Safari/537.36","WebKit","Chrome","102.0.0.0","Windows","10.0","1597","<p><strong>请判断你在多大程度上同意下列陈述。</strong></p>","0",""
"","","","","","survey-likert","152","668859","0.0-25.0","146","1","2022-10-08 08:44:44","d60b49b5908c80e163b920d72b52d584","114.98.227.50","Mozilla/5.0 (Windows NT 10.0; WOW64) AppleWebKit/537.36 (KHTML, like Gecko) Chrome/102.0.0.0 Safari/537.36","WebKit","Chrome","102.0.0.0","Windows","10.0","67276","","{""hi1"":7,""vc1"":8,""vc4"":6,""vi4"":2,""Robot"":6,""vc2"":7,""hi2"":5,""hi3"":4,""vi3"":8,""vc3"":6,""vi2"":7,""vi1"":8,""hc1"":5,""hc2"":6,""hi4"":7,""hc3"":8,""hc4"":6}","[0,13,16,8,7,14,1,2,6,15,5,4,9,10,3,11,12]"
"","","","","","survey-text","153","684164","0.0-26.0","146","1","2022-10-08 08:44:44","d60b49b5908c80e163b920d72b52d584","114.98.227.50","Mozilla/5.0 (Windows NT 10.0; WOW64) AppleWebKit/537.36 (KHTML, like Gecko) Chrome/102.0.0.0 Safari/537.36","WebKit","Chrome","102.0.0.0","Windows","10.0","15256","","{""Comments"":""""}",""
"","","","","","html-button-response","154","685022","0.0-27.0","146","1","2022-10-08 08:44:44","d60b49b5908c80e163b920d72b52d584","114.98.227.50","Mozilla/5.0 (Windows NT 10.0; WOW64) AppleWebKit/537.36 (KHTML, like Gecko) Chrome/102.0.0.0 Safari/537.36","WebKit","Chrome","102.0.0.0","Windows","10.0","838","<strong><p>恭喜你完成了实验！</p><p>感谢您的参与。</p></strong>","0",""
