"success","timeout","failed_images","failed_audio","failed_video","trial_type","trial_index","time_elapsed","internal_node_id","run_id","condition","recorded_at","source_code_version","ip","user_agent","device","browser","browser_version","platform","platform_version","rt","stimulus","response","question_order"
"true","false","[]","[]","[]","preload","0","1410","0.0-0.0","144","1","2022-10-08 06:41:38","d60b49b5908c80e163b920d72b52d584","115.48.104.163","Mozilla/5.0 (Windows NT 10.0; WOW64) AppleWebKit/537.36 (KHTML, like Gecko) Chrome/102.0.0.0 Safari/537.36","WebKit","Chrome","102.0.0.0","Windows","10.0","","","",""
"true","","","","","fullscreen","1","4403","0.0-1.0","144","1","2022-10-08 06:41:38","d60b49b5908c80e163b920d72b52d584","115.48.104.163","Mozilla/5.0 (Windows NT 10.0; WOW64) AppleWebKit/537.36 (KHTML, like Gecko) Chrome/102.0.0.0 Safari/537.36","WebKit","Chrome","102.0.0.0","Windows","10.0","","","",""
"","","","","","html-button-response","2","12145","0.0-2.0","144","1","2022-10-08 06:41:38","d60b49b5908c80e163b920d72b52d584","115.48.104.163","Mozilla/5.0 (Windows NT 10.0; WOW64) AppleWebKit/537.36 (KHTML, like Gecko) Chrome/102.0.0.0 Safari/537.36","WebKit","Chrome","102.0.0.0","Windows","10.0","7729","<p style=""font-size:20px;font-weight:bold;"">实验知情同意书</p><p style=""text-align:left;""><strong>实验名称：</strong>社会冲突研究</p><p style=""text-align:left;""><strong>主要研究者：</strong>韩晓春副教授（北京师范大学心理学部）</p><p style=""text-align:left;""><strong>联系方式：</strong>发送邮件至xiaochun.han@bnu.edu.cn</p><p style=""text-align:left;""><strong>研究目的：</strong>研究旨在了解人类面对群体冲突时的决策方式，以及相关的心理学特质。实验调查大约需要20分钟。</p><p style=""text-align:left;""><strong>实验流程：</strong>实验包含两部分。第一部分呈现一系列群体冲突场景，请你决定如何对这些冲突进行反应，大约需要10分钟完成。第二部分包含一系列人口统计学信息收集和心理学问卷，大约需要10分钟完成。</p><p style=""text-align:left;""><strong>参加及退出规则：</strong>参加本实验完全取决于您的个人意愿。在参与过程中，您可以随时退出，并且不用承担任何后果。</p><p style=""text-align:left;""><strong>隐私：</strong>本实验完全匿名进行，不会收集您的姓名或其他能够识别您身份的信息。实验中收集的作答仅用作科学研究使用，可能会在学术期刊/书籍上发表，或者用于教学，您的数据未来可能会和其他研究者或实验室分享，但您的个人身份不会被识别。</p><p style=""text-align:left;""><strong>实验报酬：</strong>实验完成后，您将获得15元人民币报酬，以感谢您的时间和努力。调查问卷中包含几道题目用以测验您作答时的认真度。只有完成全部实验，并且正确回答认真度测验的被试才能获得实验报酬。实验报酬将通过支付宝转账发放。</p><p style=""text-align:left;font-size:20px;""><strong>如果您同意以上实验知情同意书的内容，请点击'同意并且开始实验'按钮；否则请关闭浏览器界面，退出实验。</strong></p>","0",""
"","","","","","html-button-response","3","35376","0.0-3.0","144","1","2022-10-08 06:41:38","d60b49b5908c80e163b920d72b52d584","115.48.104.163","Mozilla/5.0 (Windows NT 10.0; WOW64) AppleWebKit/537.36 (KHTML, like Gecko) Chrome/102.0.0.0 Safari/537.36","WebKit","Chrome","102.0.0.0","Windows","10.0","23219","<p ><strong>实验任务一：</strong></p><p>请想象你的国家与另一个国家发生了军事冲突。</p><p>你是国家军队的指挥官，你将如何在冲突中进行决策。</p><p>具体来说，作为军队指挥官，请你决定是否发射导弹进行打击。</p><p>接下来，你会面对一系列场景，请仔细阅读每个场景，然后进行决策。</p><p>这部分实验任务大约需要10分钟。</p><p><strong>实验过程中，请集中注意力。</strong></p>","0",""
"","","","","","html-keyboard-response","4","36384","0.0-4.0-0.0","144","1","2022-10-08 06:41:38","d60b49b5908c80e163b920d72b52d584","115.48.104.163","Mozilla/5.0 (Windows NT 10.0; WOW64) AppleWebKit/537.36 (KHTML, like Gecko) Chrome/102.0.0.0 Safari/537.36","WebKit","Chrome","102.0.0.0","Windows","10.0","null","<div style=""font-size:60px;"">+</div>","null",""
"","","","","","html-button-response","5","45542","0.0-4.0-1.0","144","1","2022-10-08 06:41:38","d60b49b5908c80e163b920d72b52d584","115.48.104.163","Mozilla/5.0 (Windows NT 10.0; WOW64) AppleWebKit/537.36 (KHTML, like Gecko) Chrome/102.0.0.0 Safari/537.36","WebKit","Chrome","102.0.0.0","Windows","10.0","9136","<p>作为军队的指挥官，你可以选择发射导弹杀死 <strong>7名</strong> 敌国士兵，但会炸毁附近的 <strong>1棵</strong> 敌国树木。</p> <p>树木的照片如下图所示。</p> <p></p> <img src='stimuli/trees/11.png', style='max-width: 30%;'> </img> <p><strong>你是否选择发射武器？</strong></p>","0",""
"","","","","","html-keyboard-response","6","46555","0.0-4.0-0.1","144","1","2022-10-08 06:41:38","d60b49b5908c80e163b920d72b52d584","115.48.104.163","Mozilla/5.0 (Windows NT 10.0; WOW64) AppleWebKit/537.36 (KHTML, like Gecko) Chrome/102.0.0.0 Safari/537.36","WebKit","Chrome","102.0.0.0","Windows","10.0","null","<div style=""font-size:60px;"">+</div>","null",""
"","","","","","html-button-response","7","51584","0.0-4.0-1.1","144","1","2022-10-08 06:41:38","d60b49b5908c80e163b920d72b52d584","115.48.104.163","Mozilla/5.0 (Windows NT 10.0; WOW64) AppleWebKit/537.36 (KHTML, like Gecko) Chrome/102.0.0.0 Safari/537.36","WebKit","Chrome","102.0.0.0","Windows","10.0","5017","<p>作为军队的指挥官，你可以选择发射导弹杀死 <strong>3名</strong> 敌国士兵，但会炸毁附近的 <strong>1棵</strong> 敌国树木。</p> <p>树木的照片如下图所示。</p> <p></p> <img src='stimuli/trees/9.png', style='max-width: 30%;'> </img> <p><strong>你是否选择发射武器？</strong></p>","0",""
"","","","","","html-keyboard-response","8","52603","0.0-4.0-0.2","144","1","2022-10-08 06:41:38","d60b49b5908c80e163b920d72b52d584","115.48.104.163","Mozilla/5.0 (Windows NT 10.0; WOW64) AppleWebKit/537.36 (KHTML, like Gecko) Chrome/102.0.0.0 Safari/537.36","WebKit","Chrome","102.0.0.0","Windows","10.0","null","<div style=""font-size:60px;"">+</div>","null",""
"","","","","","html-button-response","9","61635","0.0-4.0-1.2","144","1","2022-10-08 06:41:38","d60b49b5908c80e163b920d72b52d584","115.48.104.163","Mozilla/5.0 (Windows NT 10.0; WOW64) AppleWebKit/537.36 (KHTML, like Gecko) Chrome/102.0.0.0 Safari/537.36","WebKit","Chrome","102.0.0.0","Windows","10.0","9014","<p>作为军队的指挥官，你可以选择发射导弹杀死 <strong>4名</strong> 敌国士兵，但会误杀附近的 <strong>1名</strong> 敌国平民。</p> <p>平民照片如下图所示。</p> <p></p> <img src='stimuli/faces/NCF1.jpg', style='max-width: 30%;'> </img> <p><strong>你是否选择发射武器？</strong></p>","0",""
"","","","","","html-keyboard-response","10","62656","0.0-4.0-0.3","144","1","2022-10-08 06:41:38","d60b49b5908c80e163b920d72b52d584","115.48.104.163","Mozilla/5.0 (Windows NT 10.0; WOW64) AppleWebKit/537.36 (KHTML, like Gecko) Chrome/102.0.0.0 Safari/537.36","WebKit","Chrome","102.0.0.0","Windows","10.0","null","<div style=""font-size:60px;"">+</div>","null",""
"","","","","","html-button-response","11","67570","0.0-4.0-1.3","144","1","2022-10-08 06:41:38","d60b49b5908c80e163b920d72b52d584","115.48.104.163","Mozilla/5.0 (Windows NT 10.0; WOW64) AppleWebKit/537.36 (KHTML, like Gecko) Chrome/102.0.0.0 Safari/537.36","WebKit","Chrome","102.0.0.0","Windows","10.0","4899","<p>作为军队的指挥官，你可以选择发射导弹杀死 <strong>7名</strong> 敌国士兵，但会误杀附近的 <strong>1名</strong> 敌国平民。</p> <p>平民照片如下图所示。</p> <p></p> <img src='stimuli/faces/NCM6.jpg', style='max-width: 30%;'> </img> <p><strong>你是否选择发射武器？</strong></p>","0",""
"","","","","","html-keyboard-response","12","68587","0.0-4.0-0.4","144","1","2022-10-08 06:41:38","d60b49b5908c80e163b920d72b52d584","115.48.104.163","Mozilla/5.0 (Windows NT 10.0; WOW64) AppleWebKit/537.36 (KHTML, like Gecko) Chrome/102.0.0.0 Safari/537.36","WebKit","Chrome","102.0.0.0","Windows","10.0","null","<div style=""font-size:60px;"">+</div>","null",""
"","","","","","html-button-response","13","72821","0.0-4.0-1.4","144","1","2022-10-08 06:41:38","d60b49b5908c80e163b920d72b52d584","115.48.104.163","Mozilla/5.0 (Windows NT 10.0; WOW64) AppleWebKit/537.36 (KHTML, like Gecko) Chrome/102.0.0.0 Safari/537.36","WebKit","Chrome","102.0.0.0","Windows","10.0","4216","<p>作为军队的指挥官，你可以选择发射导弹杀死 <strong>5名</strong> 敌国士兵，但会误杀附近的 <strong>1名</strong> 敌国平民。</p> <p>平民照片如下图所示。</p> <p></p> <img src='stimuli/faces/NCF5.jpg', style='max-width: 30%;'> </img> <p><strong>你是否选择发射武器？</strong></p>","1",""
"","","","","","html-keyboard-response","14","73836","0.0-4.0-0.5","144","1","2022-10-08 06:41:38","d60b49b5908c80e163b920d72b52d584","115.48.104.163","Mozilla/5.0 (Windows NT 10.0; WOW64) AppleWebKit/537.36 (KHTML, like Gecko) Chrome/102.0.0.0 Safari/537.36","WebKit","Chrome","102.0.0.0","Windows","10.0","null","<div style=""font-size:60px;"">+</div>","null",""
"","","","","","html-button-response","15","77116","0.0-4.0-1.5","144","1","2022-10-08 06:41:38","d60b49b5908c80e163b920d72b52d584","115.48.104.163","Mozilla/5.0 (Windows NT 10.0; WOW64) AppleWebKit/537.36 (KHTML, like Gecko) Chrome/102.0.0.0 Safari/537.36","WebKit","Chrome","102.0.0.0","Windows","10.0","3265","<p>作为军队的指挥官，你可以选择发射导弹杀死 <strong>3名</strong> 敌国士兵，但会误杀附近的 <strong>1名</strong> 敌国平民。</p> <p>平民照片如下图所示。</p> <p></p> <img src='stimuli/faces/NCM5.jpg', style='max-width: 30%;'> </img> <p><strong>你是否选择发射武器？</strong></p>","1",""
"","","","","","html-keyboard-response","16","78124","0.0-4.0-0.6","144","1","2022-10-08 06:41:38","d60b49b5908c80e163b920d72b52d584","115.48.104.163","Mozilla/5.0 (Windows NT 10.0; WOW64) AppleWebKit/537.36 (KHTML, like Gecko) Chrome/102.0.0.0 Safari/537.36","WebKit","Chrome","102.0.0.0","Windows","10.0","null","<div style=""font-size:60px;"">+</div>","null",""
"","","","","","html-button-response","17","80158","0.0-4.0-1.6","144","1","2022-10-08 06:41:38","d60b49b5908c80e163b920d72b52d584","115.48.104.163","Mozilla/5.0 (Windows NT 10.0; WOW64) AppleWebKit/537.36 (KHTML, like Gecko) Chrome/102.0.0.0 Safari/537.36","WebKit","Chrome","102.0.0.0","Windows","10.0","2017","<p>作为军队的指挥官，你可以选择发射导弹杀死 <strong>4名</strong> 敌国士兵，但会炸毁附近的 <strong>1棵</strong> 敌国树木。</p> <p>树木的照片如下图所示。</p> <p></p> <img src='stimuli/trees/10.png', style='max-width: 30%;'> </img> <p><strong>你是否选择发射武器？</strong></p>","0",""
"","","","","","html-keyboard-response","18","81166","0.0-4.0-0.7","144","1","2022-10-08 06:41:38","d60b49b5908c80e163b920d72b52d584","115.48.104.163","Mozilla/5.0 (Windows NT 10.0; WOW64) AppleWebKit/537.36 (KHTML, like Gecko) Chrome/102.0.0.0 Safari/537.36","WebKit","Chrome","102.0.0.0","Windows","10.0","null","<div style=""font-size:60px;"">+</div>","null",""
"","","","","","html-button-response","19","84806","0.0-4.0-1.7","144","1","2022-10-08 06:41:38","d60b49b5908c80e163b920d72b52d584","115.48.104.163","Mozilla/5.0 (Windows NT 10.0; WOW64) AppleWebKit/537.36 (KHTML, like Gecko) Chrome/102.0.0.0 Safari/537.36","WebKit","Chrome","102.0.0.0","Windows","10.0","3626","<p>作为军队的指挥官，你可以选择发射导弹杀死 <strong>9名</strong> 敌国士兵，但会炸毁附近的 <strong>1棵</strong> 敌国树木。</p> <p>树木的照片如下图所示。</p> <p></p> <img src='stimuli/trees/7.png', style='max-width: 30%;'> </img> <p><strong>你是否选择发射武器？</strong></p>","0",""
"","","","","","html-keyboard-response","20","85813","0.0-4.0-0.8","144","1","2022-10-08 06:41:38","d60b49b5908c80e163b920d72b52d584","115.48.104.163","Mozilla/5.0 (Windows NT 10.0; WOW64) AppleWebKit/537.36 (KHTML, like Gecko) Chrome/102.0.0.0 Safari/537.36","WebKit","Chrome","102.0.0.0","Windows","10.0","null","<div style=""font-size:60px;"">+</div>","null",""
"","","","","","html-button-response","21","90918","0.0-4.0-1.8","144","1","2022-10-08 06:41:38","d60b49b5908c80e163b920d72b52d584","115.48.104.163","Mozilla/5.0 (Windows NT 10.0; WOW64) AppleWebKit/537.36 (KHTML, like Gecko) Chrome/102.0.0.0 Safari/537.36","WebKit","Chrome","102.0.0.0","Windows","10.0","5092","<p>作为军队的指挥官，你可以选择发射导弹杀死 <strong>8名</strong> 敌国士兵，但会误杀附近的 <strong>1名</strong> 敌国平民。</p> <p>平民照片如下图所示。</p> <p></p> <img src='stimuli/faces/NCM4.jpg', style='max-width: 30%;'> </img> <p><strong>你是否选择发射武器？</strong></p>","0",""
"","","","","","html-keyboard-response","22","91924","0.0-4.0-0.9","144","1","2022-10-08 06:41:38","d60b49b5908c80e163b920d72b52d584","115.48.104.163","Mozilla/5.0 (Windows NT 10.0; WOW64) AppleWebKit/537.36 (KHTML, like Gecko) Chrome/102.0.0.0 Safari/537.36","WebKit","Chrome","102.0.0.0","Windows","10.0","null","<div style=""font-size:60px;"">+</div>","null",""
"","","","","","html-button-response","23","95062","0.0-4.0-1.9","144","1","2022-10-08 06:41:38","d60b49b5908c80e163b920d72b52d584","115.48.104.163","Mozilla/5.0 (Windows NT 10.0; WOW64) AppleWebKit/537.36 (KHTML, like Gecko) Chrome/102.0.0.0 Safari/537.36","WebKit","Chrome","102.0.0.0","Windows","10.0","3123","<p>作为军队的指挥官，你可以选择发射导弹杀死 <strong>10名</strong> 敌国士兵，但会误杀附近的 <strong>1名</strong> 敌国平民。</p> <p>平民照片如下图所示。</p> <p></p> <img src='stimuli/faces/NCM1.jpg', style='max-width: 30%;'> </img> <p><strong>你是否选择发射武器？</strong></p>","0",""
"","","","","","html-keyboard-response","24","96086","0.0-4.0-0.10","144","1","2022-10-08 06:41:38","d60b49b5908c80e163b920d72b52d584","115.48.104.163","Mozilla/5.0 (Windows NT 10.0; WOW64) AppleWebKit/537.36 (KHTML, like Gecko) Chrome/102.0.0.0 Safari/537.36","WebKit","Chrome","102.0.0.0","Windows","10.0","null","<div style=""font-size:60px;"">+</div>","null",""
"","","","","","html-button-response","25","98722","0.0-4.0-1.10","144","1","2022-10-08 06:41:38","d60b49b5908c80e163b920d72b52d584","115.48.104.163","Mozilla/5.0 (Windows NT 10.0; WOW64) AppleWebKit/537.36 (KHTML, like Gecko) Chrome/102.0.0.0 Safari/537.36","WebKit","Chrome","102.0.0.0","Windows","10.0","2620","<p>作为军队的指挥官，你可以选择发射导弹杀死 <strong>7名</strong> 敌国士兵，但会误杀附近的 <strong>1名</strong> 敌国平民。</p> <p>平民照片如下图所示。</p> <p></p> <img src='stimuli/faces/NCF7.jpg', style='max-width: 30%;'> </img> <p><strong>你是否选择发射武器？</strong></p>","1",""
"","","","","","html-keyboard-response","26","99742","0.0-4.0-0.11","144","1","2022-10-08 06:41:38","d60b49b5908c80e163b920d72b52d584","115.48.104.163","Mozilla/5.0 (Windows NT 10.0; WOW64) AppleWebKit/537.36 (KHTML, like Gecko) Chrome/102.0.0.0 Safari/537.36","WebKit","Chrome","102.0.0.0","Windows","10.0","null","<div style=""font-size:60px;"">+</div>","null",""
"","","","","","html-button-response","27","104279","0.0-4.0-1.11","144","1","2022-10-08 06:41:38","d60b49b5908c80e163b920d72b52d584","115.48.104.163","Mozilla/5.0 (Windows NT 10.0; WOW64) AppleWebKit/537.36 (KHTML, like Gecko) Chrome/102.0.0.0 Safari/537.36","WebKit","Chrome","102.0.0.0","Windows","10.0","4519","<p>作为军队的指挥官，你可以选择发射导弹杀死 <strong>3名</strong> 敌国士兵，但会误杀附近的 <strong>1名</strong> 敌国平民。</p> <p>平民照片如下图所示。</p> <p></p> <img src='stimuli/faces/NCF8.jpg', style='max-width: 30%;'> </img> <p><strong>你是否选择发射武器？</strong></p>","1",""
"","","","","","html-keyboard-response","28","105296","0.0-4.0-0.12","144","1","2022-10-08 06:41:38","d60b49b5908c80e163b920d72b52d584","115.48.104.163","Mozilla/5.0 (Windows NT 10.0; WOW64) AppleWebKit/537.36 (KHTML, like Gecko) Chrome/102.0.0.0 Safari/537.36","WebKit","Chrome","102.0.0.0","Windows","10.0","null","<div style=""font-size:60px;"">+</div>","null",""
"","","","","","html-button-response","29","107612","0.0-4.0-1.12","144","1","2022-10-08 06:41:38","d60b49b5908c80e163b920d72b52d584","115.48.104.163","Mozilla/5.0 (Windows NT 10.0; WOW64) AppleWebKit/537.36 (KHTML, like Gecko) Chrome/102.0.0.0 Safari/537.36","WebKit","Chrome","102.0.0.0","Windows","10.0","2311","<p>作为军队的指挥官，你可以选择发射导弹杀死 <strong>6名</strong> 敌国士兵，但会误杀附近的 <strong>1名</strong> 敌国平民。</p> <p>平民照片如下图所示。</p> <p></p> <img src='stimuli/faces/NCM5.jpg', style='max-width: 30%;'> </img> <p><strong>你是否选择发射武器？</strong></p>","0",""
"","","","","","html-keyboard-response","30","108620","0.0-4.0-0.13","144","1","2022-10-08 06:41:38","d60b49b5908c80e163b920d72b52d584","115.48.104.163","Mozilla/5.0 (Windows NT 10.0; WOW64) AppleWebKit/537.36 (KHTML, like Gecko) Chrome/102.0.0.0 Safari/537.36","WebKit","Chrome","102.0.0.0","Windows","10.0","null","<div style=""font-size:60px;"">+</div>","null",""
"","","","","","html-button-response","31","111858","0.0-4.0-1.13","144","1","2022-10-08 06:41:38","d60b49b5908c80e163b920d72b52d584","115.48.104.163","Mozilla/5.0 (Windows NT 10.0; WOW64) AppleWebKit/537.36 (KHTML, like Gecko) Chrome/102.0.0.0 Safari/537.36","WebKit","Chrome","102.0.0.0","Windows","10.0","3223","<p>作为军队的指挥官，你可以选择发射导弹杀死 <strong>4名</strong> 敌国士兵，但会误杀附近的 <strong>1名</strong> 敌国平民。</p> <p>平民照片如下图所示。</p> <p></p> <img src='stimuli/faces/NCM1.jpg', style='max-width: 30%;'> </img> <p><strong>你是否选择发射武器？</strong></p>","1",""
"","","","","","html-keyboard-response","32","112868","0.0-4.0-0.14","144","1","2022-10-08 06:41:38","d60b49b5908c80e163b920d72b52d584","115.48.104.163","Mozilla/5.0 (Windows NT 10.0; WOW64) AppleWebKit/537.36 (KHTML, like Gecko) Chrome/102.0.0.0 Safari/537.36","WebKit","Chrome","102.0.0.0","Windows","10.0","null","<div style=""font-size:60px;"">+</div>","null",""
"","","","","","html-button-response","33","114275","0.0-4.0-1.14","144","1","2022-10-08 06:41:38","d60b49b5908c80e163b920d72b52d584","115.48.104.163","Mozilla/5.0 (Windows NT 10.0; WOW64) AppleWebKit/537.36 (KHTML, like Gecko) Chrome/102.0.0.0 Safari/537.36","WebKit","Chrome","102.0.0.0","Windows","10.0","1388","<p>作为军队的指挥官，你可以选择发射导弹杀死 <strong>6名</strong> 敌国士兵，但会炸毁附近的 <strong>1棵</strong> 敌国树木。</p> <p>树木的照片如下图所示。</p> <p></p> <img src='stimuli/trees/6.png', style='max-width: 30%;'> </img> <p><strong>你是否选择发射武器？</strong></p>","0",""
"","","","","","html-keyboard-response","34","115295","0.0-4.0-0.15","144","1","2022-10-08 06:41:38","d60b49b5908c80e163b920d72b52d584","115.48.104.163","Mozilla/5.0 (Windows NT 10.0; WOW64) AppleWebKit/537.36 (KHTML, like Gecko) Chrome/102.0.0.0 Safari/537.36","WebKit","Chrome","102.0.0.0","Windows","10.0","null","<div style=""font-size:60px;"">+</div>","null",""
"","","","","","html-button-response","35","116556","0.0-4.0-1.15","144","1","2022-10-08 06:41:38","d60b49b5908c80e163b920d72b52d584","115.48.104.163","Mozilla/5.0 (Windows NT 10.0; WOW64) AppleWebKit/537.36 (KHTML, like Gecko) Chrome/102.0.0.0 Safari/537.36","WebKit","Chrome","102.0.0.0","Windows","10.0","1246","<p>作为军队的指挥官，你可以选择发射导弹杀死 <strong>9名</strong> 敌国士兵，但会炸毁附近的 <strong>1棵</strong> 敌国树木。</p> <p>树木的照片如下图所示。</p> <p></p> <img src='stimuli/trees/10.png', style='max-width: 30%;'> </img> <p><strong>你是否选择发射武器？</strong></p>","0",""
"","","","","","html-keyboard-response","36","117575","0.0-4.0-0.16","144","1","2022-10-08 06:41:38","d60b49b5908c80e163b920d72b52d584","115.48.104.163","Mozilla/5.0 (Windows NT 10.0; WOW64) AppleWebKit/537.36 (KHTML, like Gecko) Chrome/102.0.0.0 Safari/537.36","WebKit","Chrome","102.0.0.0","Windows","10.0","null","<div style=""font-size:60px;"">+</div>","null",""
"","","","","","html-button-response","37","120083","0.0-4.0-1.16","144","1","2022-10-08 06:41:38","d60b49b5908c80e163b920d72b52d584","115.48.104.163","Mozilla/5.0 (Windows NT 10.0; WOW64) AppleWebKit/537.36 (KHTML, like Gecko) Chrome/102.0.0.0 Safari/537.36","WebKit","Chrome","102.0.0.0","Windows","10.0","2491","<p>作为军队的指挥官，你可以选择发射导弹杀死 <strong>6名</strong> 敌国士兵，但会炸毁附近的 <strong>1棵</strong> 敌国树木。</p> <p>树木的照片如下图所示。</p> <p></p> <img src='stimuli/trees/5.png', style='max-width: 30%;'> </img> <p><strong>你是否选择发射武器？</strong></p>","0",""
"","","","","","html-keyboard-response","38","121103","0.0-4.0-0.17","144","1","2022-10-08 06:41:38","d60b49b5908c80e163b920d72b52d584","115.48.104.163","Mozilla/5.0 (Windows NT 10.0; WOW64) AppleWebKit/537.36 (KHTML, like Gecko) Chrome/102.0.0.0 Safari/537.36","WebKit","Chrome","102.0.0.0","Windows","10.0","null","<div style=""font-size:60px;"">+</div>","null",""
"","","","","","html-button-response","39","126555","0.0-4.0-1.17","144","1","2022-10-08 06:41:38","d60b49b5908c80e163b920d72b52d584","115.48.104.163","Mozilla/5.0 (Windows NT 10.0; WOW64) AppleWebKit/537.36 (KHTML, like Gecko) Chrome/102.0.0.0 Safari/537.36","WebKit","Chrome","102.0.0.0","Windows","10.0","5429","<p>作为军队的指挥官，你可以选择发射导弹杀死 <strong>2名</strong> 敌国士兵，但会炸毁附近的 <strong>1棵</strong> 敌国树木。</p> <p>树木的照片如下图所示。</p> <p></p> <img src='stimuli/trees/13.png', style='max-width: 30%;'> </img> <p><strong>你是否选择发射武器？</strong></p>","1",""
"","","","","","html-keyboard-response","40","127572","0.0-4.0-0.18","144","1","2022-10-08 06:41:38","d60b49b5908c80e163b920d72b52d584","115.48.104.163","Mozilla/5.0 (Windows NT 10.0; WOW64) AppleWebKit/537.36 (KHTML, like Gecko) Chrome/102.0.0.0 Safari/537.36","WebKit","Chrome","102.0.0.0","Windows","10.0","null","<div style=""font-size:60px;"">+</div>","null",""
"","","","","","html-button-response","41","129290","0.0-4.0-1.18","144","1","2022-10-08 06:41:38","d60b49b5908c80e163b920d72b52d584","115.48.104.163","Mozilla/5.0 (Windows NT 10.0; WOW64) AppleWebKit/537.36 (KHTML, like Gecko) Chrome/102.0.0.0 Safari/537.36","WebKit","Chrome","102.0.0.0","Windows","10.0","1702","<p>作为军队的指挥官，你可以选择发射导弹杀死 <strong>5名</strong> 敌国士兵，但会炸毁附近的 <strong>1棵</strong> 敌国树木。</p> <p>树木的照片如下图所示。</p> <p></p> <img src='stimuli/trees/11.png', style='max-width: 30%;'> </img> <p><strong>你是否选择发射武器？</strong></p>","0",""
"","","","","","html-keyboard-response","42","130304","0.0-4.0-0.19","144","1","2022-10-08 06:41:38","d60b49b5908c80e163b920d72b52d584","115.48.104.163","Mozilla/5.0 (Windows NT 10.0; WOW64) AppleWebKit/537.36 (KHTML, like Gecko) Chrome/102.0.0.0 Safari/537.36","WebKit","Chrome","102.0.0.0","Windows","10.0","null","<div style=""font-size:60px;"">+</div>","null",""
"","","","","","html-button-response","43","133258","0.0-4.0-1.19","144","1","2022-10-08 06:41:38","d60b49b5908c80e163b920d72b52d584","115.48.104.163","Mozilla/5.0 (Windows NT 10.0; WOW64) AppleWebKit/537.36 (KHTML, like Gecko) Chrome/102.0.0.0 Safari/537.36","WebKit","Chrome","102.0.0.0","Windows","10.0","2935","<p>作为军队的指挥官，你可以选择发射导弹杀死 <strong>4名</strong> 敌国士兵，但会炸毁附近的 <strong>1棵</strong> 敌国树木。</p> <p>树木的照片如下图所示。</p> <p></p> <img src='stimuli/trees/16.png', style='max-width: 30%;'> </img> <p><strong>你是否选择发射武器？</strong></p>","0",""
"","","","","","html-keyboard-response","44","134281","0.0-4.0-0.20","144","1","2022-10-08 06:41:38","d60b49b5908c80e163b920d72b52d584","115.48.104.163","Mozilla/5.0 (Windows NT 10.0; WOW64) AppleWebKit/537.36 (KHTML, like Gecko) Chrome/102.0.0.0 Safari/537.36","WebKit","Chrome","102.0.0.0","Windows","10.0","null","<div style=""font-size:60px;"">+</div>","null",""
"","","","","","html-button-response","45","136172","0.0-4.0-1.20","144","1","2022-10-08 06:41:38","d60b49b5908c80e163b920d72b52d584","115.48.104.163","Mozilla/5.0 (Windows NT 10.0; WOW64) AppleWebKit/537.36 (KHTML, like Gecko) Chrome/102.0.0.0 Safari/537.36","WebKit","Chrome","102.0.0.0","Windows","10.0","1869","<p>作为军队的指挥官，你可以选择发射导弹杀死 <strong>7名</strong> 敌国士兵，但会炸毁附近的 <strong>1棵</strong> 敌国树木。</p> <p>树木的照片如下图所示。</p> <p></p> <img src='stimuli/trees/14.png', style='max-width: 30%;'> </img> <p><strong>你是否选择发射武器？</strong></p>","0",""
"","","","","","html-keyboard-response","46","137192","0.0-4.0-0.21","144","1","2022-10-08 06:41:38","d60b49b5908c80e163b920d72b52d584","115.48.104.163","Mozilla/5.0 (Windows NT 10.0; WOW64) AppleWebKit/537.36 (KHTML, like Gecko) Chrome/102.0.0.0 Safari/537.36","WebKit","Chrome","102.0.0.0","Windows","10.0","null","<div style=""font-size:60px;"">+</div>","null",""
"","","","","","html-button-response","47","138796","0.0-4.0-1.21","144","1","2022-10-08 06:41:38","d60b49b5908c80e163b920d72b52d584","115.48.104.163","Mozilla/5.0 (Windows NT 10.0; WOW64) AppleWebKit/537.36 (KHTML, like Gecko) Chrome/102.0.0.0 Safari/537.36","WebKit","Chrome","102.0.0.0","Windows","10.0","1580","<p>作为军队的指挥官，你可以选择发射导弹杀死 <strong>2名</strong> 敌国士兵，但会炸毁附近的 <strong>1棵</strong> 敌国树木。</p> <p>树木的照片如下图所示。</p> <p></p> <img src='stimuli/trees/6.png', style='max-width: 30%;'> </img> <p><strong>你是否选择发射武器？</strong></p>","1",""
"","","","","","html-keyboard-response","48","139825","0.0-4.0-0.22","144","1","2022-10-08 06:41:38","d60b49b5908c80e163b920d72b52d584","115.48.104.163","Mozilla/5.0 (Windows NT 10.0; WOW64) AppleWebKit/537.36 (KHTML, like Gecko) Chrome/102.0.0.0 Safari/537.36","WebKit","Chrome","102.0.0.0","Windows","10.0","null","<div style=""font-size:60px;"">+</div>","null",""
"","","","","","html-button-response","49","141600","0.0-4.0-1.22","144","1","2022-10-08 06:41:38","d60b49b5908c80e163b920d72b52d584","115.48.104.163","Mozilla/5.0 (Windows NT 10.0; WOW64) AppleWebKit/537.36 (KHTML, like Gecko) Chrome/102.0.0.0 Safari/537.36","WebKit","Chrome","102.0.0.0","Windows","10.0","1754","<p>作为军队的指挥官，你可以选择发射导弹杀死 <strong>9名</strong> 敌国士兵，但会炸毁附近的 <strong>1棵</strong> 敌国树木。</p> <p>树木的照片如下图所示。</p> <p></p> <img src='stimuli/trees/2.png', style='max-width: 30%;'> </img> <p><strong>你是否选择发射武器？</strong></p>","0",""
"","","","","","html-keyboard-response","50","142626","0.0-4.0-0.23","144","1","2022-10-08 06:41:38","d60b49b5908c80e163b920d72b52d584","115.48.104.163","Mozilla/5.0 (Windows NT 10.0; WOW64) AppleWebKit/537.36 (KHTML, like Gecko) Chrome/102.0.0.0 Safari/537.36","WebKit","Chrome","102.0.0.0","Windows","10.0","null","<div style=""font-size:60px;"">+</div>","null",""
"","","","","","html-button-response","51","145588","0.0-4.0-1.23","144","1","2022-10-08 06:41:38","d60b49b5908c80e163b920d72b52d584","115.48.104.163","Mozilla/5.0 (Windows NT 10.0; WOW64) AppleWebKit/537.36 (KHTML, like Gecko) Chrome/102.0.0.0 Safari/537.36","WebKit","Chrome","102.0.0.0","Windows","10.0","2942","<p>作为军队的指挥官，你可以选择发射导弹杀死 <strong>3名</strong> 敌国士兵，但会炸毁附近的 <strong>1棵</strong> 敌国树木。</p> <p>树木的照片如下图所示。</p> <p></p> <img src='stimuli/trees/5.png', style='max-width: 30%;'> </img> <p><strong>你是否选择发射武器？</strong></p>","0",""
"","","","","","html-keyboard-response","52","146604","0.0-4.0-0.24","144","1","2022-10-08 06:41:38","d60b49b5908c80e163b920d72b52d584","115.48.104.163","Mozilla/5.0 (Windows NT 10.0; WOW64) AppleWebKit/537.36 (KHTML, like Gecko) Chrome/102.0.0.0 Safari/537.36","WebKit","Chrome","102.0.0.0","Windows","10.0","null","<div style=""font-size:60px;"">+</div>","null",""
"","","","","","html-button-response","53","149097","0.0-4.0-1.24","144","1","2022-10-08 06:41:38","d60b49b5908c80e163b920d72b52d584","115.48.104.163","Mozilla/5.0 (Windows NT 10.0; WOW64) AppleWebKit/537.36 (KHTML, like Gecko) Chrome/102.0.0.0 Safari/537.36","WebKit","Chrome","102.0.0.0","Windows","10.0","2467","<p>作为军队的指挥官，你可以选择发射导弹杀死 <strong>3名</strong> 敌国士兵，但会炸毁附近的 <strong>1棵</strong> 敌国树木。</p> <p>树木的照片如下图所示。</p> <p></p> <img src='stimuli/trees/1.png', style='max-width: 30%;'> </img> <p><strong>你是否选择发射武器？</strong></p>","1",""
"","","","","","html-keyboard-response","54","150122","0.0-4.0-0.25","144","1","2022-10-08 06:41:38","d60b49b5908c80e163b920d72b52d584","115.48.104.163","Mozilla/5.0 (Windows NT 10.0; WOW64) AppleWebKit/537.36 (KHTML, like Gecko) Chrome/102.0.0.0 Safari/537.36","WebKit","Chrome","102.0.0.0","Windows","10.0","null","<div style=""font-size:60px;"">+</div>","null",""
"","","","","","html-button-response","55","152264","0.0-4.0-1.25","144","1","2022-10-08 06:41:38","d60b49b5908c80e163b920d72b52d584","115.48.104.163","Mozilla/5.0 (Windows NT 10.0; WOW64) AppleWebKit/537.36 (KHTML, like Gecko) Chrome/102.0.0.0 Safari/537.36","WebKit","Chrome","102.0.0.0","Windows","10.0","2117","<p>作为军队的指挥官，你可以选择发射导弹杀死 <strong>1名</strong> 敌国士兵，但会误杀附近的 <strong>1名</strong> 敌国平民。</p> <p>平民照片如下图所示。</p> <p></p> <img src='stimuli/faces/NCF7.jpg', style='max-width: 30%;'> </img> <p><strong>你是否选择发射武器？</strong></p>","1",""
"","","","","","html-keyboard-response","56","153286","0.0-4.0-0.26","144","1","2022-10-08 06:41:38","d60b49b5908c80e163b920d72b52d584","115.48.104.163","Mozilla/5.0 (Windows NT 10.0; WOW64) AppleWebKit/537.36 (KHTML, like Gecko) Chrome/102.0.0.0 Safari/537.36","WebKit","Chrome","102.0.0.0","Windows","10.0","null","<div style=""font-size:60px;"">+</div>","null",""
"","","","","","html-button-response","57","154872","0.0-4.0-1.26","144","1","2022-10-08 06:41:38","d60b49b5908c80e163b920d72b52d584","115.48.104.163","Mozilla/5.0 (Windows NT 10.0; WOW64) AppleWebKit/537.36 (KHTML, like Gecko) Chrome/102.0.0.0 Safari/537.36","WebKit","Chrome","102.0.0.0","Windows","10.0","1561","<p>作为军队的指挥官，你可以选择发射导弹杀死 <strong>10名</strong> 敌国士兵，但会误杀附近的 <strong>1名</strong> 敌国平民。</p> <p>平民照片如下图所示。</p> <p></p> <img src='stimuli/faces/NCM2.jpg', style='max-width: 30%;'> </img> <p><strong>你是否选择发射武器？</strong></p>","0",""
"","","","","","html-keyboard-response","58","155889","0.0-4.0-0.27","144","1","2022-10-08 06:41:38","d60b49b5908c80e163b920d72b52d584","115.48.104.163","Mozilla/5.0 (Windows NT 10.0; WOW64) AppleWebKit/537.36 (KHTML, like Gecko) Chrome/102.0.0.0 Safari/537.36","WebKit","Chrome","102.0.0.0","Windows","10.0","null","<div style=""font-size:60px;"">+</div>","null",""
"","","","","","html-button-response","59","157716","0.0-4.0-1.27","144","1","2022-10-08 06:41:38","d60b49b5908c80e163b920d72b52d584","115.48.104.163","Mozilla/5.0 (Windows NT 10.0; WOW64) AppleWebKit/537.36 (KHTML, like Gecko) Chrome/102.0.0.0 Safari/537.36","WebKit","Chrome","102.0.0.0","Windows","10.0","1805","<p>作为军队的指挥官，你可以选择发射导弹杀死 <strong>4名</strong> 敌国士兵，但会误杀附近的 <strong>1名</strong> 敌国平民。</p> <p>平民照片如下图所示。</p> <p></p> <img src='stimuli/faces/NCM4.jpg', style='max-width: 30%;'> </img> <p><strong>你是否选择发射武器？</strong></p>","0",""
"","","","","","html-keyboard-response","60","158741","0.0-4.0-0.28","144","1","2022-10-08 06:41:38","d60b49b5908c80e163b920d72b52d584","115.48.104.163","Mozilla/5.0 (Windows NT 10.0; WOW64) AppleWebKit/537.36 (KHTML, like Gecko) Chrome/102.0.0.0 Safari/537.36","WebKit","Chrome","102.0.0.0","Windows","10.0","null","<div style=""font-size:60px;"">+</div>","null",""
"","","","","","html-button-response","61","160449","0.0-4.0-1.28","144","1","2022-10-08 06:41:38","d60b49b5908c80e163b920d72b52d584","115.48.104.163","Mozilla/5.0 (Windows NT 10.0; WOW64) AppleWebKit/537.36 (KHTML, like Gecko) Chrome/102.0.0.0 Safari/537.36","WebKit","Chrome","102.0.0.0","Windows","10.0","1684","<p>作为军队的指挥官，你可以选择发射导弹杀死 <strong>9名</strong> 敌国士兵，但会误杀附近的 <strong>1名</strong> 敌国平民。</p> <p>平民照片如下图所示。</p> <p></p> <img src='stimuli/faces/NCF4.jpg', style='max-width: 30%;'> </img> <p><strong>你是否选择发射武器？</strong></p>","0",""
"","","","","","html-keyboard-response","62","161475","0.0-4.0-0.29","144","1","2022-10-08 06:41:38","d60b49b5908c80e163b920d72b52d584","115.48.104.163","Mozilla/5.0 (Windows NT 10.0; WOW64) AppleWebKit/537.36 (KHTML, like Gecko) Chrome/102.0.0.0 Safari/537.36","WebKit","Chrome","102.0.0.0","Windows","10.0","null","<div style=""font-size:60px;"">+</div>","null",""
"","","","","","html-button-response","63","163971","0.0-4.0-1.29","144","1","2022-10-08 06:41:38","d60b49b5908c80e163b920d72b52d584","115.48.104.163","Mozilla/5.0 (Windows NT 10.0; WOW64) AppleWebKit/537.36 (KHTML, like Gecko) Chrome/102.0.0.0 Safari/537.36","WebKit","Chrome","102.0.0.0","Windows","10.0","2470","<p>作为军队的指挥官，你可以选择发射导弹杀死 <strong>9名</strong> 敌国士兵，但会误杀附近的 <strong>1名</strong> 敌国平民。</p> <p>平民照片如下图所示。</p> <p></p> <img src='stimuli/faces/NCF3.jpg', style='max-width: 30%;'> </img> <p><strong>你是否选择发射武器？</strong></p>","0",""
"","","","","","html-keyboard-response","64","164982","0.0-4.0-0.30","144","1","2022-10-08 06:41:38","d60b49b5908c80e163b920d72b52d584","115.48.104.163","Mozilla/5.0 (Windows NT 10.0; WOW64) AppleWebKit/537.36 (KHTML, like Gecko) Chrome/102.0.0.0 Safari/537.36","WebKit","Chrome","102.0.0.0","Windows","10.0","null","<div style=""font-size:60px;"">+</div>","null",""
"","","","","","html-button-response","65","167009","0.0-4.0-1.30","144","1","2022-10-08 06:41:38","d60b49b5908c80e163b920d72b52d584","115.48.104.163","Mozilla/5.0 (Windows NT 10.0; WOW64) AppleWebKit/537.36 (KHTML, like Gecko) Chrome/102.0.0.0 Safari/537.36","WebKit","Chrome","102.0.0.0","Windows","10.0","2004","<p>作为军队的指挥官，你可以选择发射导弹杀死 <strong>1名</strong> 敌国士兵，但会炸毁附近的 <strong>1棵</strong> 敌国树木。</p> <p>树木的照片如下图所示。</p> <p></p> <img src='stimuli/trees/3.png', style='max-width: 30%;'> </img> <p><strong>你是否选择发射武器？</strong></p>","1",""
"","","","","","html-keyboard-response","66","168030","0.0-4.0-0.31","144","1","2022-10-08 06:41:38","d60b49b5908c80e163b920d72b52d584","115.48.104.163","Mozilla/5.0 (Windows NT 10.0; WOW64) AppleWebKit/537.36 (KHTML, like Gecko) Chrome/102.0.0.0 Safari/537.36","WebKit","Chrome","102.0.0.0","Windows","10.0","null","<div style=""font-size:60px;"">+</div>","null",""
"","","","","","html-button-response","67","171301","0.0-4.0-1.31","144","1","2022-10-08 06:41:38","d60b49b5908c80e163b920d72b52d584","115.48.104.163","Mozilla/5.0 (Windows NT 10.0; WOW64) AppleWebKit/537.36 (KHTML, like Gecko) Chrome/102.0.0.0 Safari/537.36","WebKit","Chrome","102.0.0.0","Windows","10.0","3242","<p>作为军队的指挥官，你可以选择发射导弹杀死 <strong>8名</strong> 敌国士兵，但会误杀附近的 <strong>1名</strong> 敌国平民。</p> <p>平民照片如下图所示。</p> <p></p> <img src='stimuli/faces/NCF8.jpg', style='max-width: 30%;'> </img> <p><strong>你是否选择发射武器？</strong></p>","0",""
"","","","","","html-keyboard-response","68","172322","0.0-4.0-0.32","144","1","2022-10-08 06:41:38","d60b49b5908c80e163b920d72b52d584","115.48.104.163","Mozilla/5.0 (Windows NT 10.0; WOW64) AppleWebKit/537.36 (KHTML, like Gecko) Chrome/102.0.0.0 Safari/537.36","WebKit","Chrome","102.0.0.0","Windows","10.0","null","<div style=""font-size:60px;"">+</div>","null",""
"","","","","","html-button-response","69","174410","0.0-4.0-1.32","144","1","2022-10-08 06:41:38","d60b49b5908c80e163b920d72b52d584","115.48.104.163","Mozilla/5.0 (Windows NT 10.0; WOW64) AppleWebKit/537.36 (KHTML, like Gecko) Chrome/102.0.0.0 Safari/537.36","WebKit","Chrome","102.0.0.0","Windows","10.0","2059","<p>作为军队的指挥官，你可以选择发射导弹杀死 <strong>10名</strong> 敌国士兵，但会炸毁附近的 <strong>1棵</strong> 敌国树木。</p> <p>树木的照片如下图所示。</p> <p></p> <img src='stimuli/trees/12.png', style='max-width: 30%;'> </img> <p><strong>你是否选择发射武器？</strong></p>","0",""
"","","","","","html-keyboard-response","70","175437","0.0-4.0-0.33","144","1","2022-10-08 06:41:38","d60b49b5908c80e163b920d72b52d584","115.48.104.163","Mozilla/5.0 (Windows NT 10.0; WOW64) AppleWebKit/537.36 (KHTML, like Gecko) Chrome/102.0.0.0 Safari/537.36","WebKit","Chrome","102.0.0.0","Windows","10.0","null","<div style=""font-size:60px;"">+</div>","null",""
"","","","","","html-button-response","71","177121","0.0-4.0-1.33","144","1","2022-10-08 06:41:38","d60b49b5908c80e163b920d72b52d584","115.48.104.163","Mozilla/5.0 (Windows NT 10.0; WOW64) AppleWebKit/537.36 (KHTML, like Gecko) Chrome/102.0.0.0 Safari/537.36","WebKit","Chrome","102.0.0.0","Windows","10.0","1658","<p>作为军队的指挥官，你可以选择发射导弹杀死 <strong>4名</strong> 敌国士兵，但会误杀附近的 <strong>1名</strong> 敌国平民。</p> <p>平民照片如下图所示。</p> <p></p> <img src='stimuli/faces/NCM6.jpg', style='max-width: 30%;'> </img> <p><strong>你是否选择发射武器？</strong></p>","0",""
"","","","","","html-keyboard-response","72","178153","0.0-4.0-0.34","144","1","2022-10-08 06:41:38","d60b49b5908c80e163b920d72b52d584","115.48.104.163","Mozilla/5.0 (Windows NT 10.0; WOW64) AppleWebKit/537.36 (KHTML, like Gecko) Chrome/102.0.0.0 Safari/537.36","WebKit","Chrome","102.0.0.0","Windows","10.0","null","<div style=""font-size:60px;"">+</div>","null",""
"","","","","","html-button-response","73","179948","0.0-4.0-1.34","144","1","2022-10-08 06:41:38","d60b49b5908c80e163b920d72b52d584","115.48.104.163","Mozilla/5.0 (Windows NT 10.0; WOW64) AppleWebKit/537.36 (KHTML, like Gecko) Chrome/102.0.0.0 Safari/537.36","WebKit","Chrome","102.0.0.0","Windows","10.0","1768","<p>作为军队的指挥官，你可以选择发射导弹杀死 <strong>2名</strong> 敌国士兵，但会误杀附近的 <strong>1名</strong> 敌国平民。</p> <p>平民照片如下图所示。</p> <p></p> <img src='stimuli/faces/NCF6.jpg', style='max-width: 30%;'> </img> <p><strong>你是否选择发射武器？</strong></p>","1",""
"","","","","","html-keyboard-response","74","180981","0.0-4.0-0.35","144","1","2022-10-08 06:41:38","d60b49b5908c80e163b920d72b52d584","115.48.104.163","Mozilla/5.0 (Windows NT 10.0; WOW64) AppleWebKit/537.36 (KHTML, like Gecko) Chrome/102.0.0.0 Safari/537.36","WebKit","Chrome","102.0.0.0","Windows","10.0","null","<div style=""font-size:60px;"">+</div>","null",""
"","","","","","html-button-response","75","183539","0.0-4.0-1.35","144","1","2022-10-08 06:41:38","d60b49b5908c80e163b920d72b52d584","115.48.104.163","Mozilla/5.0 (Windows NT 10.0; WOW64) AppleWebKit/537.36 (KHTML, like Gecko) Chrome/102.0.0.0 Safari/537.36","WebKit","Chrome","102.0.0.0","Windows","10.0","2534","<p>作为军队的指挥官，你可以选择发射导弹杀死 <strong>7名</strong> 敌国士兵，但会炸毁附近的 <strong>1棵</strong> 敌国树木。</p> <p>树木的照片如下图所示。</p> <p></p> <img src='stimuli/trees/4.png', style='max-width: 30%;'> </img> <p><strong>你是否选择发射武器？</strong></p>","0",""
"","","","","","html-keyboard-response","76","184563","0.0-4.0-0.36","144","1","2022-10-08 06:41:38","d60b49b5908c80e163b920d72b52d584","115.48.104.163","Mozilla/5.0 (Windows NT 10.0; WOW64) AppleWebKit/537.36 (KHTML, like Gecko) Chrome/102.0.0.0 Safari/537.36","WebKit","Chrome","102.0.0.0","Windows","10.0","null","<div style=""font-size:60px;"">+</div>","null",""
"","","","","","html-button-response","77","186301","0.0-4.0-1.36","144","1","2022-10-08 06:41:38","d60b49b5908c80e163b920d72b52d584","115.48.104.163","Mozilla/5.0 (Windows NT 10.0; WOW64) AppleWebKit/537.36 (KHTML, like Gecko) Chrome/102.0.0.0 Safari/537.36","WebKit","Chrome","102.0.0.0","Windows","10.0","1711","<p>作为军队的指挥官，你可以选择发射导弹杀死 <strong>10名</strong> 敌国士兵，但会误杀附近的 <strong>1名</strong> 敌国平民。</p> <p>平民照片如下图所示。</p> <p></p> <img src='stimuli/faces/NCF2.jpg', style='max-width: 30%;'> </img> <p><strong>你是否选择发射武器？</strong></p>","0",""
"","","","","","html-keyboard-response","78","187319","0.0-4.0-0.37","144","1","2022-10-08 06:41:38","d60b49b5908c80e163b920d72b52d584","115.48.104.163","Mozilla/5.0 (Windows NT 10.0; WOW64) AppleWebKit/537.36 (KHTML, like Gecko) Chrome/102.0.0.0 Safari/537.36","WebKit","Chrome","102.0.0.0","Windows","10.0","null","<div style=""font-size:60px;"">+</div>","null",""
"","","","","","html-button-response","79","189815","0.0-4.0-1.37","144","1","2022-10-08 06:41:38","d60b49b5908c80e163b920d72b52d584","115.48.104.163","Mozilla/5.0 (Windows NT 10.0; WOW64) AppleWebKit/537.36 (KHTML, like Gecko) Chrome/102.0.0.0 Safari/537.36","WebKit","Chrome","102.0.0.0","Windows","10.0","2466","<p>作为军队的指挥官，你可以选择发射导弹杀死 <strong>10名</strong> 敌国士兵，但会炸毁附近的 <strong>1棵</strong> 敌国树木。</p> <p>树木的照片如下图所示。</p> <p></p> <img src='stimuli/trees/8.png', style='max-width: 30%;'> </img> <p><strong>你是否选择发射武器？</strong></p>","0",""
"","","","","","html-keyboard-response","80","190848","0.0-4.0-0.38","144","1","2022-10-08 06:41:38","d60b49b5908c80e163b920d72b52d584","115.48.104.163","Mozilla/5.0 (Windows NT 10.0; WOW64) AppleWebKit/537.36 (KHTML, like Gecko) Chrome/102.0.0.0 Safari/537.36","WebKit","Chrome","102.0.0.0","Windows","10.0","null","<div style=""font-size:60px;"">+</div>","null",""
"","","","","","html-button-response","81","194555","0.0-4.0-1.38","144","1","2022-10-08 06:41:38","d60b49b5908c80e163b920d72b52d584","115.48.104.163","Mozilla/5.0 (Windows NT 10.0; WOW64) AppleWebKit/537.36 (KHTML, like Gecko) Chrome/102.0.0.0 Safari/537.36","WebKit","Chrome","102.0.0.0","Windows","10.0","3680","<p>作为军队的指挥官，你可以选择发射导弹杀死 <strong>5名</strong> 敌国士兵，但会误杀附近的 <strong>1名</strong> 敌国平民。</p> <p>平民照片如下图所示。</p> <p></p> <img src='stimuli/faces/NCF3.jpg', style='max-width: 30%;'> </img> <p><strong>你是否选择发射武器？</strong></p>","1",""
"","","","","","html-keyboard-response","82","195578","0.0-4.0-0.39","144","1","2022-10-08 06:41:38","d60b49b5908c80e163b920d72b52d584","115.48.104.163","Mozilla/5.0 (Windows NT 10.0; WOW64) AppleWebKit/537.36 (KHTML, like Gecko) Chrome/102.0.0.0 Safari/537.36","WebKit","Chrome","102.0.0.0","Windows","10.0","null","<div style=""font-size:60px;"">+</div>","null",""
"","","","","","html-button-response","83","197050","0.0-4.0-1.39","144","1","2022-10-08 06:41:38","d60b49b5908c80e163b920d72b52d584","115.48.104.163","Mozilla/5.0 (Windows NT 10.0; WOW64) AppleWebKit/537.36 (KHTML, like Gecko) Chrome/102.0.0.0 Safari/537.36","WebKit","Chrome","102.0.0.0","Windows","10.0","1439","<p>作为军队的指挥官，你可以选择发射导弹杀死 <strong>8名</strong> 敌国士兵，但会误杀附近的 <strong>1名</strong> 敌国平民。</p> <p>平民照片如下图所示。</p> <p></p> <img src='stimuli/faces/NCM3.jpg', style='max-width: 30%;'> </img> <p><strong>你是否选择发射武器？</strong></p>","0",""
"","","","","","html-keyboard-response","84","198080","0.0-4.0-0.40","144","1","2022-10-08 06:41:38","d60b49b5908c80e163b920d72b52d584","115.48.104.163","Mozilla/5.0 (Windows NT 10.0; WOW64) AppleWebKit/537.36 (KHTML, like Gecko) Chrome/102.0.0.0 Safari/537.36","WebKit","Chrome","102.0.0.0","Windows","10.0","null","<div style=""font-size:60px;"">+</div>","null",""
"","","","","","html-button-response","85","199729","0.0-4.0-1.40","144","1","2022-10-08 06:41:38","d60b49b5908c80e163b920d72b52d584","115.48.104.163","Mozilla/5.0 (Windows NT 10.0; WOW64) AppleWebKit/537.36 (KHTML, like Gecko) Chrome/102.0.0.0 Safari/537.36","WebKit","Chrome","102.0.0.0","Windows","10.0","1617","<p>作为军队的指挥官，你可以选择发射导弹杀死 <strong>6名</strong> 敌国士兵，但会误杀附近的 <strong>1名</strong> 敌国平民。</p> <p>平民照片如下图所示。</p> <p></p> <img src='stimuli/faces/NCF5.jpg', style='max-width: 30%;'> </img> <p><strong>你是否选择发射武器？</strong></p>","1",""
"","","","","","html-keyboard-response","86","200763","0.0-4.0-0.41","144","1","2022-10-08 06:41:38","d60b49b5908c80e163b920d72b52d584","115.48.104.163","Mozilla/5.0 (Windows NT 10.0; WOW64) AppleWebKit/537.36 (KHTML, like Gecko) Chrome/102.0.0.0 Safari/537.36","WebKit","Chrome","102.0.0.0","Windows","10.0","null","<div style=""font-size:60px;"">+</div>","null",""
"","","","","","html-button-response","87","202190","0.0-4.0-1.41","144","1","2022-10-08 06:41:38","d60b49b5908c80e163b920d72b52d584","115.48.104.163","Mozilla/5.0 (Windows NT 10.0; WOW64) AppleWebKit/537.36 (KHTML, like Gecko) Chrome/102.0.0.0 Safari/537.36","WebKit","Chrome","102.0.0.0","Windows","10.0","1396","<p>作为军队的指挥官，你可以选择发射导弹杀死 <strong>1名</strong> 敌国士兵，但会炸毁附近的 <strong>1棵</strong> 敌国树木。</p> <p>树木的照片如下图所示。</p> <p></p> <img src='stimuli/trees/8.png', style='max-width: 30%;'> </img> <p><strong>你是否选择发射武器？</strong></p>","1",""
"","","","","","html-keyboard-response","88","203217","0.0-4.0-0.42","144","1","2022-10-08 06:41:38","d60b49b5908c80e163b920d72b52d584","115.48.104.163","Mozilla/5.0 (Windows NT 10.0; WOW64) AppleWebKit/537.36 (KHTML, like Gecko) Chrome/102.0.0.0 Safari/537.36","WebKit","Chrome","102.0.0.0","Windows","10.0","null","<div style=""font-size:60px;"">+</div>","null",""
"","","","","","html-button-response","89","204928","0.0-4.0-1.42","144","1","2022-10-08 06:41:38","d60b49b5908c80e163b920d72b52d584","115.48.104.163","Mozilla/5.0 (Windows NT 10.0; WOW64) AppleWebKit/537.36 (KHTML, like Gecko) Chrome/102.0.0.0 Safari/537.36","WebKit","Chrome","102.0.0.0","Windows","10.0","1676","<p>作为军队的指挥官，你可以选择发射导弹杀死 <strong>4名</strong> 敌国士兵，但会误杀附近的 <strong>1名</strong> 敌国平民。</p> <p>平民照片如下图所示。</p> <p></p> <img src='stimuli/faces/NCM2.jpg', style='max-width: 30%;'> </img> <p><strong>你是否选择发射武器？</strong></p>","0",""
"","","","","","html-keyboard-response","90","205949","0.0-4.0-0.43","144","1","2022-10-08 06:41:38","d60b49b5908c80e163b920d72b52d584","115.48.104.163","Mozilla/5.0 (Windows NT 10.0; WOW64) AppleWebKit/537.36 (KHTML, like Gecko) Chrome/102.0.0.0 Safari/537.36","WebKit","Chrome","102.0.0.0","Windows","10.0","null","<div style=""font-size:60px;"">+</div>","null",""
"","","","","","html-button-response","91","207197","0.0-4.0-1.43","144","1","2022-10-08 06:41:38","d60b49b5908c80e163b920d72b52d584","115.48.104.163","Mozilla/5.0 (Windows NT 10.0; WOW64) AppleWebKit/537.36 (KHTML, like Gecko) Chrome/102.0.0.0 Safari/537.36","WebKit","Chrome","102.0.0.0","Windows","10.0","1216","<p>作为军队的指挥官，你可以选择发射导弹杀死 <strong>8名</strong> 敌国士兵，但会炸毁附近的 <strong>1棵</strong> 敌国树木。</p> <p>树木的照片如下图所示。</p> <p></p> <img src='stimuli/trees/3.png', style='max-width: 30%;'> </img> <p><strong>你是否选择发射武器？</strong></p>","0",""
"","","","","","html-keyboard-response","92","208226","0.0-4.0-0.44","144","1","2022-10-08 06:41:38","d60b49b5908c80e163b920d72b52d584","115.48.104.163","Mozilla/5.0 (Windows NT 10.0; WOW64) AppleWebKit/537.36 (KHTML, like Gecko) Chrome/102.0.0.0 Safari/537.36","WebKit","Chrome","102.0.0.0","Windows","10.0","null","<div style=""font-size:60px;"">+</div>","null",""
"","","","","","html-button-response","93","209648","0.0-4.0-1.44","144","1","2022-10-08 06:41:38","d60b49b5908c80e163b920d72b52d584","115.48.104.163","Mozilla/5.0 (Windows NT 10.0; WOW64) AppleWebKit/537.36 (KHTML, like Gecko) Chrome/102.0.0.0 Safari/537.36","WebKit","Chrome","102.0.0.0","Windows","10.0","1389","<p>作为军队的指挥官，你可以选择发射导弹杀死 <strong>1名</strong> 敌国士兵，但会误杀附近的 <strong>1名</strong> 敌国平民。</p> <p>平民照片如下图所示。</p> <p></p> <img src='stimuli/faces/NCM7.jpg', style='max-width: 30%;'> </img> <p><strong>你是否选择发射武器？</strong></p>","1",""
"","","","","","html-keyboard-response","94","210672","0.0-4.0-0.45","144","1","2022-10-08 06:41:38","d60b49b5908c80e163b920d72b52d584","115.48.104.163","Mozilla/5.0 (Windows NT 10.0; WOW64) AppleWebKit/537.36 (KHTML, like Gecko) Chrome/102.0.0.0 Safari/537.36","WebKit","Chrome","102.0.0.0","Windows","10.0","null","<div style=""font-size:60px;"">+</div>","null",""
"","","","","","html-button-response","95","212047","0.0-4.0-1.45","144","1","2022-10-08 06:41:38","d60b49b5908c80e163b920d72b52d584","115.48.104.163","Mozilla/5.0 (Windows NT 10.0; WOW64) AppleWebKit/537.36 (KHTML, like Gecko) Chrome/102.0.0.0 Safari/537.36","WebKit","Chrome","102.0.0.0","Windows","10.0","1342","<p>作为军队的指挥官，你可以选择发射导弹杀死 <strong>5名</strong> 敌国士兵，但会误杀附近的 <strong>1名</strong> 敌国平民。</p> <p>平民照片如下图所示。</p> <p></p> <img src='stimuli/faces/NCM8.jpg', style='max-width: 30%;'> </img> <p><strong>你是否选择发射武器？</strong></p>","0",""
"","","","","","html-keyboard-response","96","213071","0.0-4.0-0.46","144","1","2022-10-08 06:41:38","d60b49b5908c80e163b920d72b52d584","115.48.104.163","Mozilla/5.0 (Windows NT 10.0; WOW64) AppleWebKit/537.36 (KHTML, like Gecko) Chrome/102.0.0.0 Safari/537.36","WebKit","Chrome","102.0.0.0","Windows","10.0","null","<div style=""font-size:60px;"">+</div>","null",""
"","","","","","html-button-response","97","215416","0.0-4.0-1.46","144","1","2022-10-08 06:41:38","d60b49b5908c80e163b920d72b52d584","115.48.104.163","Mozilla/5.0 (Windows NT 10.0; WOW64) AppleWebKit/537.36 (KHTML, like Gecko) Chrome/102.0.0.0 Safari/537.36","WebKit","Chrome","102.0.0.0","Windows","10.0","2310","<p>作为军队的指挥官，你可以选择发射导弹杀死 <strong>6名</strong> 敌国士兵，但会炸毁附近的 <strong>1棵</strong> 敌国树木。</p> <p>树木的照片如下图所示。</p> <p></p> <img src='stimuli/trees/1.png', style='max-width: 30%;'> </img> <p><strong>你是否选择发射武器？</strong></p>","0",""
"","","","","","html-keyboard-response","98","216444","0.0-4.0-0.47","144","1","2022-10-08 06:41:38","d60b49b5908c80e163b920d72b52d584","115.48.104.163","Mozilla/5.0 (Windows NT 10.0; WOW64) AppleWebKit/537.36 (KHTML, like Gecko) Chrome/102.0.0.0 Safari/537.36","WebKit","Chrome","102.0.0.0","Windows","10.0","null","<div style=""font-size:60px;"">+</div>","null",""
"","","","","","html-button-response","99","217990","0.0-4.0-1.47","144","1","2022-10-08 06:41:38","d60b49b5908c80e163b920d72b52d584","115.48.104.163","Mozilla/5.0 (Windows NT 10.0; WOW64) AppleWebKit/537.36 (KHTML, like Gecko) Chrome/102.0.0.0 Safari/537.36","WebKit","Chrome","102.0.0.0","Windows","10.0","1511","<p>作为军队的指挥官，你可以选择发射导弹杀死 <strong>1名</strong> 敌国士兵，但会炸毁附近的 <strong>1棵</strong> 敌国树木。</p> <p>树木的照片如下图所示。</p> <p></p> <img src='stimuli/trees/2.png', style='max-width: 30%;'> </img> <p><strong>你是否选择发射武器？</strong></p>","1",""
"","","","","","html-keyboard-response","100","219012","0.0-4.0-0.48","144","1","2022-10-08 06:41:38","d60b49b5908c80e163b920d72b52d584","115.48.104.163","Mozilla/5.0 (Windows NT 10.0; WOW64) AppleWebKit/537.36 (KHTML, like Gecko) Chrome/102.0.0.0 Safari/537.36","WebKit","Chrome","102.0.0.0","Windows","10.0","null","<div style=""font-size:60px;"">+</div>","null",""
"","","","","","html-button-response","101","220505","0.0-4.0-1.48","144","1","2022-10-08 06:41:38","d60b49b5908c80e163b920d72b52d584","115.48.104.163","Mozilla/5.0 (Windows NT 10.0; WOW64) AppleWebKit/537.36 (KHTML, like Gecko) Chrome/102.0.0.0 Safari/537.36","WebKit","Chrome","102.0.0.0","Windows","10.0","1458","<p>作为军队的指挥官，你可以选择发射导弹杀死 <strong>10名</strong> 敌国士兵，但会误杀附近的 <strong>1名</strong> 敌国平民。</p> <p>平民照片如下图所示。</p> <p></p> <img src='stimuli/faces/NCM7.jpg', style='max-width: 30%;'> </img> <p><strong>你是否选择发射武器？</strong></p>","0",""
"","","","","","html-keyboard-response","102","221543","0.0-4.0-0.49","144","1","2022-10-08 06:41:38","d60b49b5908c80e163b920d72b52d584","115.48.104.163","Mozilla/5.0 (Windows NT 10.0; WOW64) AppleWebKit/537.36 (KHTML, like Gecko) Chrome/102.0.0.0 Safari/537.36","WebKit","Chrome","102.0.0.0","Windows","10.0","null","<div style=""font-size:60px;"">+</div>","null",""
"","","","","","html-button-response","103","223925","0.0-4.0-1.49","144","1","2022-10-08 06:41:38","d60b49b5908c80e163b920d72b52d584","115.48.104.163","Mozilla/5.0 (Windows NT 10.0; WOW64) AppleWebKit/537.36 (KHTML, like Gecko) Chrome/102.0.0.0 Safari/537.36","WebKit","Chrome","102.0.0.0","Windows","10.0","2346","<p>作为军队的指挥官，你可以选择发射导弹杀死 <strong>2名</strong> 敌国士兵，但会误杀附近的 <strong>1名</strong> 敌国平民。</p> <p>平民照片如下图所示。</p> <p></p> <img src='stimuli/faces/NCM3.jpg', style='max-width: 30%;'> </img> <p><strong>你是否选择发射武器？</strong></p>","1",""
"","","","","","html-keyboard-response","104","224970","0.0-4.0-0.50","144","1","2022-10-08 06:41:38","d60b49b5908c80e163b920d72b52d584","115.48.104.163","Mozilla/5.0 (Windows NT 10.0; WOW64) AppleWebKit/537.36 (KHTML, like Gecko) Chrome/102.0.0.0 Safari/537.36","WebKit","Chrome","102.0.0.0","Windows","10.0","null","<div style=""font-size:60px;"">+</div>","null",""
"","","","","","html-button-response","105","227051","0.0-4.0-1.50","144","1","2022-10-08 06:41:38","d60b49b5908c80e163b920d72b52d584","115.48.104.163","Mozilla/5.0 (Windows NT 10.0; WOW64) AppleWebKit/537.36 (KHTML, like Gecko) Chrome/102.0.0.0 Safari/537.36","WebKit","Chrome","102.0.0.0","Windows","10.0","2046","<p>作为军队的指挥官，你可以选择发射导弹杀死 <strong>6名</strong> 敌国士兵，但会炸毁附近的 <strong>1棵</strong> 敌国树木。</p> <p>树木的照片如下图所示。</p> <p></p> <img src='stimuli/trees/15.png', style='max-width: 30%;'> </img> <p><strong>你是否选择发射武器？</strong></p>","0",""
"","","","","","html-keyboard-response","106","228078","0.0-4.0-0.51","144","1","2022-10-08 06:41:38","d60b49b5908c80e163b920d72b52d584","115.48.104.163","Mozilla/5.0 (Windows NT 10.0; WOW64) AppleWebKit/537.36 (KHTML, like Gecko) Chrome/102.0.0.0 Safari/537.36","WebKit","Chrome","102.0.0.0","Windows","10.0","null","<div style=""font-size:60px;"">+</div>","null",""
"","","","","","html-button-response","107","229328","0.0-4.0-1.51","144","1","2022-10-08 06:41:38","d60b49b5908c80e163b920d72b52d584","115.48.104.163","Mozilla/5.0 (Windows NT 10.0; WOW64) AppleWebKit/537.36 (KHTML, like Gecko) Chrome/102.0.0.0 Safari/537.36","WebKit","Chrome","102.0.0.0","Windows","10.0","1214","<p>作为军队的指挥官，你可以选择发射导弹杀死 <strong>8名</strong> 敌国士兵，但会误杀附近的 <strong>1名</strong> 敌国平民。</p> <p>平民照片如下图所示。</p> <p></p> <img src='stimuli/faces/NCF6.jpg', style='max-width: 30%;'> </img> <p><strong>你是否选择发射武器？</strong></p>","0",""
"","","","","","html-keyboard-response","108","230364","0.0-4.0-0.52","144","1","2022-10-08 06:41:38","d60b49b5908c80e163b920d72b52d584","115.48.104.163","Mozilla/5.0 (Windows NT 10.0; WOW64) AppleWebKit/537.36 (KHTML, like Gecko) Chrome/102.0.0.0 Safari/537.36","WebKit","Chrome","102.0.0.0","Windows","10.0","null","<div style=""font-size:60px;"">+</div>","null",""
"","","","","","html-button-response","109","231775","0.0-4.0-1.52","144","1","2022-10-08 06:41:38","d60b49b5908c80e163b920d72b52d584","115.48.104.163","Mozilla/5.0 (Windows NT 10.0; WOW64) AppleWebKit/537.36 (KHTML, like Gecko) Chrome/102.0.0.0 Safari/537.36","WebKit","Chrome","102.0.0.0","Windows","10.0","1374","<p>作为军队的指挥官，你可以选择发射导弹杀死 <strong>9名</strong> 敌国士兵，但会炸毁附近的 <strong>1棵</strong> 敌国树木。</p> <p>树木的照片如下图所示。</p> <p></p> <img src='stimuli/trees/16.png', style='max-width: 30%;'> </img> <p><strong>你是否选择发射武器？</strong></p>","0",""
"","","","","","html-keyboard-response","110","232807","0.0-4.0-0.53","144","1","2022-10-08 06:41:38","d60b49b5908c80e163b920d72b52d584","115.48.104.163","Mozilla/5.0 (Windows NT 10.0; WOW64) AppleWebKit/537.36 (KHTML, like Gecko) Chrome/102.0.0.0 Safari/537.36","WebKit","Chrome","102.0.0.0","Windows","10.0","null","<div style=""font-size:60px;"">+</div>","null",""
"","","","","","html-button-response","111","236636","0.0-4.0-1.53","144","1","2022-10-08 06:41:38","d60b49b5908c80e163b920d72b52d584","115.48.104.163","Mozilla/5.0 (Windows NT 10.0; WOW64) AppleWebKit/537.36 (KHTML, like Gecko) Chrome/102.0.0.0 Safari/537.36","WebKit","Chrome","102.0.0.0","Windows","10.0","3793","<p>作为军队的指挥官，你可以选择发射导弹杀死 <strong>3名</strong> 敌国士兵，但会误杀附近的 <strong>1名</strong> 敌国平民。</p> <p>平民照片如下图所示。</p> <p></p> <img src='stimuli/faces/NCF2.jpg', style='max-width: 30%;'> </img> <p><strong>你是否选择发射武器？</strong></p>","0",""
"","","","","","html-keyboard-response","112","237673","0.0-4.0-0.54","144","1","2022-10-08 06:41:38","d60b49b5908c80e163b920d72b52d584","115.48.104.163","Mozilla/5.0 (Windows NT 10.0; WOW64) AppleWebKit/537.36 (KHTML, like Gecko) Chrome/102.0.0.0 Safari/537.36","WebKit","Chrome","102.0.0.0","Windows","10.0","null","<div style=""font-size:60px;"">+</div>","null",""
"","","","","","html-button-response","113","239154","0.0-4.0-1.54","144","1","2022-10-08 06:41:38","d60b49b5908c80e163b920d72b52d584","115.48.104.163","Mozilla/5.0 (Windows NT 10.0; WOW64) AppleWebKit/537.36 (KHTML, like Gecko) Chrome/102.0.0.0 Safari/537.36","WebKit","Chrome","102.0.0.0","Windows","10.0","1442","<p>作为军队的指挥官，你可以选择发射导弹杀死 <strong>8名</strong> 敌国士兵，但会炸毁附近的 <strong>1棵</strong> 敌国树木。</p> <p>树木的照片如下图所示。</p> <p></p> <img src='stimuli/trees/9.png', style='max-width: 30%;'> </img> <p><strong>你是否选择发射武器？</strong></p>","0",""
"","","","","","html-keyboard-response","114","240188","0.0-4.0-0.55","144","1","2022-10-08 06:41:38","d60b49b5908c80e163b920d72b52d584","115.48.104.163","Mozilla/5.0 (Windows NT 10.0; WOW64) AppleWebKit/537.36 (KHTML, like Gecko) Chrome/102.0.0.0 Safari/537.36","WebKit","Chrome","102.0.0.0","Windows","10.0","null","<div style=""font-size:60px;"">+</div>","null",""
"","","","","","html-button-response","115","241423","0.0-4.0-1.55","144","1","2022-10-08 06:41:38","d60b49b5908c80e163b920d72b52d584","115.48.104.163","Mozilla/5.0 (Windows NT 10.0; WOW64) AppleWebKit/537.36 (KHTML, like Gecko) Chrome/102.0.0.0 Safari/537.36","WebKit","Chrome","102.0.0.0","Windows","10.0","1199","<p>作为军队的指挥官，你可以选择发射导弹杀死 <strong>2名</strong> 敌国士兵，但会炸毁附近的 <strong>1棵</strong> 敌国树木。</p> <p>树木的照片如下图所示。</p> <p></p> <img src='stimuli/trees/15.png', style='max-width: 30%;'> </img> <p><strong>你是否选择发射武器？</strong></p>","1",""
"","","","","","html-keyboard-response","116","242455","0.0-4.0-0.56","144","1","2022-10-08 06:41:38","d60b49b5908c80e163b920d72b52d584","115.48.104.163","Mozilla/5.0 (Windows NT 10.0; WOW64) AppleWebKit/537.36 (KHTML, like Gecko) Chrome/102.0.0.0 Safari/537.36","WebKit","Chrome","102.0.0.0","Windows","10.0","null","<div style=""font-size:60px;"">+</div>","null",""
"","","","","","html-button-response","117","243826","0.0-4.0-1.56","144","1","2022-10-08 06:41:38","d60b49b5908c80e163b920d72b52d584","115.48.104.163","Mozilla/5.0 (Windows NT 10.0; WOW64) AppleWebKit/537.36 (KHTML, like Gecko) Chrome/102.0.0.0 Safari/537.36","WebKit","Chrome","102.0.0.0","Windows","10.0","1333","<p>作为军队的指挥官，你可以选择发射导弹杀死 <strong>10名</strong> 敌国士兵，但会误杀附近的 <strong>1名</strong> 敌国平民。</p> <p>平民照片如下图所示。</p> <p></p> <img src='stimuli/faces/NCF1.jpg', style='max-width: 30%;'> </img> <p><strong>你是否选择发射武器？</strong></p>","0",""
"","","","","","html-keyboard-response","118","244851","0.0-4.0-0.57","144","1","2022-10-08 06:41:38","d60b49b5908c80e163b920d72b52d584","115.48.104.163","Mozilla/5.0 (Windows NT 10.0; WOW64) AppleWebKit/537.36 (KHTML, like Gecko) Chrome/102.0.0.0 Safari/537.36","WebKit","Chrome","102.0.0.0","Windows","10.0","null","<div style=""font-size:60px;"">+</div>","null",""
"","","","","","html-button-response","119","246147","0.0-4.0-1.57","144","1","2022-10-08 06:41:38","d60b49b5908c80e163b920d72b52d584","115.48.104.163","Mozilla/5.0 (Windows NT 10.0; WOW64) AppleWebKit/537.36 (KHTML, like Gecko) Chrome/102.0.0.0 Safari/537.36","WebKit","Chrome","102.0.0.0","Windows","10.0","1259","<p>作为军队的指挥官，你可以选择发射导弹杀死 <strong>2名</strong> 敌国士兵，但会炸毁附近的 <strong>1棵</strong> 敌国树木。</p> <p>树木的照片如下图所示。</p> <p></p> <img src='stimuli/trees/4.png', style='max-width: 30%;'> </img> <p><strong>你是否选择发射武器？</strong></p>","1",""
"","","","","","html-keyboard-response","120","247172","0.0-4.0-0.58","144","1","2022-10-08 06:41:38","d60b49b5908c80e163b920d72b52d584","115.48.104.163","Mozilla/5.0 (Windows NT 10.0; WOW64) AppleWebKit/537.36 (KHTML, like Gecko) Chrome/102.0.0.0 Safari/537.36","WebKit","Chrome","102.0.0.0","Windows","10.0","null","<div style=""font-size:60px;"">+</div>","null",""
"","","","","","html-button-response","121","248270","0.0-4.0-1.58","144","1","2022-10-08 06:41:38","d60b49b5908c80e163b920d72b52d584","115.48.104.163","Mozilla/5.0 (Windows NT 10.0; WOW64) AppleWebKit/537.36 (KHTML, like Gecko) Chrome/102.0.0.0 Safari/537.36","WebKit","Chrome","102.0.0.0","Windows","10.0","1058","<p>作为军队的指挥官，你可以选择发射导弹杀死 <strong>7名</strong> 敌国士兵，但会炸毁附近的 <strong>1棵</strong> 敌国树木。</p> <p>树木的照片如下图所示。</p> <p></p> <img src='stimuli/trees/13.png', style='max-width: 30%;'> </img> <p><strong>你是否选择发射武器？</strong></p>","0",""
"","","","","","html-keyboard-response","122","249304","0.0-4.0-0.59","144","1","2022-10-08 06:41:38","d60b49b5908c80e163b920d72b52d584","115.48.104.163","Mozilla/5.0 (Windows NT 10.0; WOW64) AppleWebKit/537.36 (KHTML, like Gecko) Chrome/102.0.0.0 Safari/537.36","WebKit","Chrome","102.0.0.0","Windows","10.0","null","<div style=""font-size:60px;"">+</div>","null",""
"","","","","","html-button-response","123","250972","0.0-4.0-1.59","144","1","2022-10-08 06:41:38","d60b49b5908c80e163b920d72b52d584","115.48.104.163","Mozilla/5.0 (Windows NT 10.0; WOW64) AppleWebKit/537.36 (KHTML, like Gecko) Chrome/102.0.0.0 Safari/537.36","WebKit","Chrome","102.0.0.0","Windows","10.0","1638","<p>作为军队的指挥官，你可以选择发射导弹杀死 <strong>6名</strong> 敌国士兵，但会误杀附近的 <strong>1名</strong> 敌国平民。</p> <p>平民照片如下图所示。</p> <p></p> <img src='stimuli/faces/NCM8.jpg', style='max-width: 30%;'> </img> <p><strong>你是否选择发射武器？</strong></p>","0",""
"","","","","","html-keyboard-response","124","251996","0.0-4.0-0.60","144","1","2022-10-08 06:41:38","d60b49b5908c80e163b920d72b52d584","115.48.104.163","Mozilla/5.0 (Windows NT 10.0; WOW64) AppleWebKit/537.36 (KHTML, like Gecko) Chrome/102.0.0.0 Safari/537.36","WebKit","Chrome","102.0.0.0","Windows","10.0","null","<div style=""font-size:60px;"">+</div>","null",""
"","","","","","html-button-response","125","256228","0.0-4.0-1.60","144","1","2022-10-08 06:41:38","d60b49b5908c80e163b920d72b52d584","115.48.104.163","Mozilla/5.0 (Windows NT 10.0; WOW64) AppleWebKit/537.36 (KHTML, like Gecko) Chrome/102.0.0.0 Safari/537.36","WebKit","Chrome","102.0.0.0","Windows","10.0","4189","<p>作为军队的指挥官，你可以选择发射导弹杀死 <strong>3名</strong> 敌国士兵，但会炸毁附近的 <strong>1棵</strong> 敌国树木。</p> <p>树木的照片如下图所示。</p> <p></p> <img src='stimuli/trees/7.png', style='max-width: 30%;'> </img> <p><strong>你是否选择发射武器？</strong></p>","0",""
"","","","","","html-keyboard-response","126","257251","0.0-4.0-0.61","144","1","2022-10-08 06:41:38","d60b49b5908c80e163b920d72b52d584","115.48.104.163","Mozilla/5.0 (Windows NT 10.0; WOW64) AppleWebKit/537.36 (KHTML, like Gecko) Chrome/102.0.0.0 Safari/537.36","WebKit","Chrome","102.0.0.0","Windows","10.0","null","<div style=""font-size:60px;"">+</div>","null",""
"","","","","","html-button-response","127","258889","0.0-4.0-1.61","144","1","2022-10-08 06:41:38","d60b49b5908c80e163b920d72b52d584","115.48.104.163","Mozilla/5.0 (Windows NT 10.0; WOW64) AppleWebKit/537.36 (KHTML, like Gecko) Chrome/102.0.0.0 Safari/537.36","WebKit","Chrome","102.0.0.0","Windows","10.0","1591","<p>作为军队的指挥官，你可以选择发射导弹杀死 <strong>3名</strong> 敌国士兵，但会炸毁附近的 <strong>1棵</strong> 敌国树木。</p> <p>树木的照片如下图所示。</p> <p></p> <img src='stimuli/trees/12.png', style='max-width: 30%;'> </img> <p><strong>你是否选择发射武器？</strong></p>","0",""
"","","","","","html-keyboard-response","128","259919","0.0-4.0-0.62","144","1","2022-10-08 06:41:38","d60b49b5908c80e163b920d72b52d584","115.48.104.163","Mozilla/5.0 (Windows NT 10.0; WOW64) AppleWebKit/537.36 (KHTML, like Gecko) Chrome/102.0.0.0 Safari/537.36","WebKit","Chrome","102.0.0.0","Windows","10.0","null","<div style=""font-size:60px;"">+</div>","null",""
"","","","","","html-button-response","129","261383","0.0-4.0-1.62","144","1","2022-10-08 06:41:38","d60b49b5908c80e163b920d72b52d584","115.48.104.163","Mozilla/5.0 (Windows NT 10.0; WOW64) AppleWebKit/537.36 (KHTML, like Gecko) Chrome/102.0.0.0 Safari/537.36","WebKit","Chrome","102.0.0.0","Windows","10.0","1418","<p>作为军队的指挥官，你可以选择发射导弹杀死 <strong>5名</strong> 敌国士兵，但会炸毁附近的 <strong>1棵</strong> 敌国树木。</p> <p>树木的照片如下图所示。</p> <p></p> <img src='stimuli/trees/14.png', style='max-width: 30%;'> </img> <p><strong>你是否选择发射武器？</strong></p>","0",""
"","","","","","html-keyboard-response","130","262422","0.0-4.0-0.63","144","1","2022-10-08 06:41:38","d60b49b5908c80e163b920d72b52d584","115.48.104.163","Mozilla/5.0 (Windows NT 10.0; WOW64) AppleWebKit/537.36 (KHTML, like Gecko) Chrome/102.0.0.0 Safari/537.36","WebKit","Chrome","102.0.0.0","Windows","10.0","null","<div style=""font-size:60px;"">+</div>","null",""
"","","","","","html-button-response","131","264058","0.0-4.0-1.63","144","1","2022-10-08 06:41:38","d60b49b5908c80e163b920d72b52d584","115.48.104.163","Mozilla/5.0 (Windows NT 10.0; WOW64) AppleWebKit/537.36 (KHTML, like Gecko) Chrome/102.0.0.0 Safari/537.36","WebKit","Chrome","102.0.0.0","Windows","10.0","1599","<p>作为军队的指挥官，你可以选择发射导弹杀死 <strong>4名</strong> 敌国士兵，但会误杀附近的 <strong>1名</strong> 敌国平民。</p> <p>平民照片如下图所示。</p> <p></p> <img src='stimuli/faces/NCF4.jpg', style='max-width: 30%;'> </img> <p><strong>你是否选择发射武器？</strong></p>","0",""
"","","","","","survey-multi-choice","132","286480","0.0-5.0","144","1","2022-10-08 06:41:38","d60b49b5908c80e163b920d72b52d584","115.48.104.163","Mozilla/5.0 (Windows NT 10.0; WOW64) AppleWebKit/537.36 (KHTML, like Gecko) Chrome/102.0.0.0 Safari/537.36","WebKit","Chrome","102.0.0.0","Windows","10.0","22382","","{""Attention1"":""""}","[0]"
"","","","","","html-button-response","133","290202","0.0-6.0","144","1","2022-10-08 06:41:38","d60b49b5908c80e163b920d72b52d584","115.48.104.163","Mozilla/5.0 (Windows NT 10.0; WOW64) AppleWebKit/537.36 (KHTML, like Gecko) Chrome/102.0.0.0 Safari/537.36","WebKit","Chrome","102.0.0.0","Windows","10.0","3695","<p style=""font-size:20px;font-weight:bold;"">恭喜！</p><p>你已经完成了实验的第一部分。</p><p>请休息放松一下，然后进入第二部分。</p><p>这部分大约需要10分钟。</p>","0",""
"","","","","","survey-text","134","369680","0.0-7.0","144","1","2022-10-08 06:41:38","d60b49b5908c80e163b920d72b52d584","115.48.104.163","Mozilla/5.0 (Windows NT 10.0; WOW64) AppleWebKit/537.36 (KHTML, like Gecko) Chrome/102.0.0.0 Safari/537.36","WebKit","Chrome","102.0.0.0","Windows","10.0","78373","","{""Age"":""22"",""Nation"":""中国"",""Born"":""河北"",""Live"":""河南"",""Ethnic"":""汉族"",""Alipay"":""2667796603@qq.com""}",""
"","","","","","survey-multi-choice","135","454735","0.0-8.0","144","1","2022-10-08 06:41:38","d60b49b5908c80e163b920d72b52d584","115.48.104.163","Mozilla/5.0 (Windows NT 10.0; WOW64) AppleWebKit/537.36 (KHTML, like Gecko) Chrome/102.0.0.0 Safari/537.36","WebKit","Chrome","102.0.0.0","Windows","10.0","85036","","{""Gender"":""男"",""Education"":""本科毕业"",""Income"":""￥70,000-￥139,999"",""Children"":""0"",""Race"":""亚洲人""}","[0,1,2,3,4]"
"","","","","","survey-multi-select","136","467495","0.0-9.0","144","1","2022-10-08 06:41:38","d60b49b5908c80e163b920d72b52d584","115.48.104.163","Mozilla/5.0 (Windows NT 10.0; WOW64) AppleWebKit/537.36 (KHTML, like Gecko) Chrome/102.0.0.0 Safari/537.36","WebKit","Chrome","102.0.0.0","Windows","10.0","12708","","{""Marriage"":[""未婚""],""Religion"":[""基督教""]}","[0,1]"
"","","","","","survey-multi-choice","137","474197","0.0-10.0","144","1","2022-10-08 06:41:38","d60b49b5908c80e163b920d72b52d584","115.48.104.163","Mozilla/5.0 (Windows NT 10.0; WOW64) AppleWebKit/537.36 (KHTML, like Gecko) Chrome/102.0.0.0 Safari/537.36","WebKit","Chrome","102.0.0.0","Windows","10.0","6649","","{""SES"":""5""}","[0]"
"","","","","","html-button-response","138","480356","0.0-11.0","144","1","2022-10-08 06:41:38","d60b49b5908c80e163b920d72b52d584","115.48.104.163","Mozilla/5.0 (Windows NT 10.0; WOW64) AppleWebKit/537.36 (KHTML, like Gecko) Chrome/102.0.0.0 Safari/537.36","WebKit","Chrome","102.0.0.0","Windows","10.0","6121","<p><strong>请判断下列陈述在多大程度上可以形容你？</p><p> (1 = ""和我一点都不像"" to 5 = ""非常像我"".)</strong></p>","0",""
"","","","","","survey-likert","139","511887","0.0-12.0","144","1","2022-10-08 06:41:38","d60b49b5908c80e163b920d72b52d584","115.48.104.163","Mozilla/5.0 (Windows NT 10.0; WOW64) AppleWebKit/537.36 (KHTML, like Gecko) Chrome/102.0.0.0 Safari/537.36","WebKit","Chrome","102.0.0.0","Windows","10.0","31486","","{""Aggression1"":1,""Aggression2"":3,""Aggression3"":3,""Aggression4"":0,""Aggression5"":3,""Aggression6"":3,""Aggression7"":1,""Aggression8"":0,""Aggression9"":1}","[0,1,2,3,4,5,6,7,8]"
"","","","","","html-button-response","140","513870","0.0-13.0","144","1","2022-10-08 06:41:38","d60b49b5908c80e163b920d72b52d584","115.48.104.163","Mozilla/5.0 (Windows NT 10.0; WOW64) AppleWebKit/537.36 (KHTML, like Gecko) Chrome/102.0.0.0 Safari/537.36","WebKit","Chrome","102.0.0.0","Windows","10.0","1943","<p><strong>请判断你在多大程度上同意下列陈述。</strong></p>","0",""
"","","","","","survey-likert","141","630450","0.0-14.0","144","1","2022-10-08 06:41:38","d60b49b5908c80e163b920d72b52d584","115.48.104.163","Mozilla/5.0 (Windows NT 10.0; WOW64) AppleWebKit/537.36 (KHTML, like Gecko) Chrome/102.0.0.0 Safari/537.36","WebKit","Chrome","102.0.0.0","Windows","10.0","116532","","{""scale2"":3,""scale1"":1,""scale15"":4,""scale27"":1,""scale13"":0,""scale17"":2,""scale11"":3,""scale5"":2,""scale10"":4,""scale18"":0,""scale25"":2,""scale12"":1,""scale3"":2,""scale20"":2,""scale6"":3,""scale26"":3,""scale9"":4,""scale22"":4,""scale8"":3,""scale28"":4,""scale16"":3,""scale4"":1,""scale21"":4,""scale14"":3,""scale23"":2,""scale24"":3,""scale7"":1,""scale19"":3}","[1,0,14,26,12,16,10,4,9,17,24,11,2,19,5,25,8,21,7,27,15,3,20,13,22,23,6,18]"
"","","","","","html-button-response","142","632331","0.0-15.0","144","1","2022-10-08 06:41:38","d60b49b5908c80e163b920d72b52d584","115.48.104.163","Mozilla/5.0 (Windows NT 10.0; WOW64) AppleWebKit/537.36 (KHTML, like Gecko) Chrome/102.0.0.0 Safari/537.36","WebKit","Chrome","102.0.0.0","Windows","10.0","1828","<p><strong>请判断你在多大程度上同意下列陈述。</strong></p>","0",""
"","","","","","survey-likert","143","702241","0.0-16.0","144","1","2022-10-08 06:41:38","d60b49b5908c80e163b920d72b52d584","115.48.104.163","Mozilla/5.0 (Windows NT 10.0; WOW64) AppleWebKit/537.36 (KHTML, like Gecko) Chrome/102.0.0.0 Safari/537.36","WebKit","Chrome","102.0.0.0","Windows","10.0","69879","","{""sdo16"":4,""sdo13"":5,""sdo3"":4,""sdo9"":6,""sdo15"":5,""sdo5"":4,""sdo8"":3,""sdo12"":4,""sdo14"":5,""sdo1"":0,""sdo6"":3,""sdo7"":2,""sdo11"":4,""sdo4"":2,""sdo10"":5,""sdo2"":2}","[15,12,2,8,14,4,7,11,13,0,5,6,10,3,9,1]"
"","","","","","html-button-response","144","704443","0.0-17.0","144","1","2022-10-08 06:41:38","d60b49b5908c80e163b920d72b52d584","115.48.104.163","Mozilla/5.0 (Windows NT 10.0; WOW64) AppleWebKit/537.36 (KHTML, like Gecko) Chrome/102.0.0.0 Safari/537.36","WebKit","Chrome","102.0.0.0","Windows","10.0","2149","<p><strong>请判断你在多大程度上同意下列陈述。</strong></p>","0",""
"","","","","","survey-likert","145","766391","0.0-18.0","144","1","2022-10-08 06:41:38","d60b49b5908c80e163b920d72b52d584","115.48.104.163","Mozilla/5.0 (Windows NT 10.0; WOW64) AppleWebKit/537.36 (KHTML, like Gecko) Chrome/102.0.0.0 Safari/537.36","WebKit","Chrome","102.0.0.0","Windows","10.0","61892","","{""caring1"":3,""liking1"":1,""caring2"":4,""protection1"":4,""liking2"":2,""caring3"":3,""protection2"":3,""liking3"":3,""protection3"":4,""caring4"":3,""liking4"":0,""protection4"":3,""caring5"":4,""liking5"":2,""protection5"":1}","[0,1,2,3,4,5,6,7,8,9,10,11,12,13,14]"
"","","","","","html-button-response","146","767804","0.0-19.0","144","1","2022-10-08 06:41:38","d60b49b5908c80e163b920d72b52d584","115.48.104.163","Mozilla/5.0 (Windows NT 10.0; WOW64) AppleWebKit/537.36 (KHTML, like Gecko) Chrome/102.0.0.0 Safari/537.36","WebKit","Chrome","102.0.0.0","Windows","10.0","1393","<p><strong>请判断下列场景中你的内心感受有多柔软。</strong></p>","0",""
"","","","","","survey-likert","147","801848","0.0-20.0","144","1","2022-10-08 06:41:38","d60b49b5908c80e163b920d72b52d584","115.48.104.163","Mozilla/5.0 (Windows NT 10.0; WOW64) AppleWebKit/537.36 (KHTML, like Gecko) Chrome/102.0.0.0 Safari/537.36","WebKit","Chrome","102.0.0.0","Windows","10.0","33999","","{""tenderness-positive1"":4,""tenderness-negative1"":3,""tenderness-negative2"":2,""tenderness-positive2"":3,""tenderness-positive3"":4,""tenderness-negative3"":3,""tenderness-positive4"":4,""tendereness-negative4"":1,""tendernness-negative5"":2,""tenderness-positive5"":3}","[0,1,2,3,4,5,6,7,8,9]"
"","","","","","survey-multi-choice","148","815402","0.0-21.0","144","1","2022-10-08 06:41:38","d60b49b5908c80e163b920d72b52d584","115.48.104.163","Mozilla/5.0 (Windows NT 10.0; WOW64) AppleWebKit/537.36 (KHTML, like Gecko) Chrome/102.0.0.0 Safari/537.36","WebKit","Chrome","102.0.0.0","Windows","10.0","13524","","{""Attention2"":""其他""}","[0]"
"","","","","","html-button-response","149","817056","0.0-22.0","144","1","2022-10-08 06:41:38","d60b49b5908c80e163b920d72b52d584","115.48.104.163","Mozilla/5.0 (Windows NT 10.0; WOW64) AppleWebKit/537.36 (KHTML, like Gecko) Chrome/102.0.0.0 Safari/537.36","WebKit","Chrome","102.0.0.0","Windows","10.0","1628","<p><strong>请判断你在多大程度上同意下列陈述。</strong></p>","0",""
"","","","","","survey-likert","150","908563","0.0-23.0","144","1","2022-10-08 06:41:38","d60b49b5908c80e163b920d72b52d584","115.48.104.163","Mozilla/5.0 (Windows NT 10.0; WOW64) AppleWebKit/537.36 (KHTML, like Gecko) Chrome/102.0.0.0 Safari/537.36","WebKit","Chrome","102.0.0.0","Windows","10.0","91469","","{""Patri2"":4,""Nation6"":4,""Patri11"":1,""Nation1"":3,""Patri5"":4,""Patri7"":3,""Patri6"":1,""Patri1"":4,""Nation8"":1,""Patri4"":4,""Patri10"":0,""Patri9"":2,""Patri12"":1,""Nation2"":3,""Patri8"":4,""Nation4"":2,""Nation7"":3,""Patri3"":3,""Nation5"":2,""Nation3"":1}","[1,17,10,12,4,6,5,0,19,3,9,8,11,13,7,15,18,2,16,14]"
"","","","","","html-button-response","151","910122","0.0-24.0","144","1","2022-10-08 06:41:38","d60b49b5908c80e163b920d72b52d584","115.48.104.163","Mozilla/5.0 (Windows NT 10.0; WOW64) AppleWebKit/537.36 (KHTML, like Gecko) Chrome/102.0.0.0 Safari/537.36","WebKit","Chrome","102.0.0.0","Windows","10.0","1539","<p><strong>请判断你在多大程度上同意下列陈述。</strong></p>","0",""
"","","","","","survey-likert","152","976343","0.0-25.0","144","1","2022-10-08 06:41:38","d60b49b5908c80e163b920d72b52d584","115.48.104.163","Mozilla/5.0 (Windows NT 10.0; WOW64) AppleWebKit/537.36 (KHTML, like Gecko) Chrome/102.0.0.0 Safari/537.36","WebKit","Chrome","102.0.0.0","Windows","10.0","66195","","{""hc3"":5,""vc4"":7,""hc2"":6,""vi3"":6,""vc2"":8,""vi4"":3,""Robot"":6,""vi1"":5,""vc3"":8,""hi1"":7,""hc4"":5,""hi2"":8,""vi2"":4,""hi4"":5,""hi3"":3,""vc1"":7,""hc1"":6}","[11,16,10,6,14,8,7,4,15,0,12,1,5,3,2,13,9]"
"","","","","","survey-text","153","990453","0.0-26.0","144","1","2022-10-08 06:41:38","d60b49b5908c80e163b920d72b52d584","115.48.104.163","Mozilla/5.0 (Windows NT 10.0; WOW64) AppleWebKit/537.36 (KHTML, like Gecko) Chrome/102.0.0.0 Safari/537.36","WebKit","Chrome","102.0.0.0","Windows","10.0","14071","","{""Comments"":""无""}",""
"","","","","","html-button-response","154","991904","0.0-27.0","144","1","2022-10-08 06:41:38","d60b49b5908c80e163b920d72b52d584","115.48.104.163","Mozilla/5.0 (Windows NT 10.0; WOW64) AppleWebKit/537.36 (KHTML, like Gecko) Chrome/102.0.0.0 Safari/537.36","WebKit","Chrome","102.0.0.0","Windows","10.0","1417","<strong><p>恭喜你完成了实验！</p><p>感谢您的参与。</p></strong>","0",""
