"success","timeout","failed_images","failed_audio","failed_video","trial_type","trial_index","time_elapsed","internal_node_id","run_id","condition","recorded_at","source_code_version","ip","user_agent","device","browser","browser_version","platform","platform_version","rt","stimulus","response","question_order"
"true","false","[]","[]","[]","preload","0","2525","0.0-0.0","159","1","2022-10-09 01:55:57","d60b49b5908c80e163b920d72b52d584","59.172.176.30","Mozilla/5.0 (Windows NT 6.1; WOW64) AppleWebKit/537.36 (KHTML, like Gecko) Chrome/81.0.4044.138 Safari/537.36 NetType/WIFI MicroMessenger/7.0.20.1781(0x6700143B) WindowsWechat(0x6307062c)","WebKit","Chrome","81.0.4044.138","Windows","6.1","","","",""
"true","","","","","fullscreen","1","6803","0.0-1.0","159","1","2022-10-09 01:55:57","d60b49b5908c80e163b920d72b52d584","59.172.176.30","Mozilla/5.0 (Windows NT 6.1; WOW64) AppleWebKit/537.36 (KHTML, like Gecko) Chrome/81.0.4044.138 Safari/537.36 NetType/WIFI MicroMessenger/7.0.20.1781(0x6700143B) WindowsWechat(0x6307062c)","WebKit","Chrome","81.0.4044.138","Windows","6.1","","","",""
"","","","","","html-button-response","2","40608","0.0-2.0","159","1","2022-10-09 01:55:57","d60b49b5908c80e163b920d72b52d584","59.172.176.30","Mozilla/5.0 (Windows NT 6.1; WOW64) AppleWebKit/537.36 (KHTML, like Gecko) Chrome/81.0.4044.138 Safari/537.36 NetType/WIFI MicroMessenger/7.0.20.1781(0x6700143B) WindowsWechat(0x6307062c)","WebKit","Chrome","81.0.4044.138","Windows","6.1","33801","<p style=""font-size:20px;font-weight:bold;"">实验知情同意书</p><p style=""text-align:left;""><strong>实验名称：</strong>社会冲突研究</p><p style=""text-align:left;""><strong>主要研究者：</strong>韩晓春副教授（北京师范大学心理学部）</p><p style=""text-align:left;""><strong>联系方式：</strong>发送邮件至xiaochun.han@bnu.edu.cn</p><p style=""text-align:left;""><strong>研究目的：</strong>研究旨在了解人类面对群体冲突时的决策方式，以及相关的心理学特质。实验调查大约需要20分钟。</p><p style=""text-align:left;""><strong>实验流程：</strong>实验包含两部分。第一部分呈现一系列群体冲突场景，请你决定如何对这些冲突进行反应，大约需要10分钟完成。第二部分包含一系列人口统计学信息收集和心理学问卷，大约需要10分钟完成。</p><p style=""text-align:left;""><strong>参加及退出规则：</strong>参加本实验完全取决于您的个人意愿。在参与过程中，您可以随时退出，并且不用承担任何后果。</p><p style=""text-align:left;""><strong>隐私：</strong>本实验完全匿名进行，不会收集您的姓名或其他能够识别您身份的信息。实验中收集的作答仅用作科学研究使用，可能会在学术期刊/书籍上发表，或者用于教学，您的数据未来可能会和其他研究者或实验室分享，但您的个人身份不会被识别。</p><p style=""text-align:left;""><strong>实验报酬：</strong>实验完成后，您将获得15元人民币报酬，以感谢您的时间和努力。调查问卷中包含几道题目用以测验您作答时的认真度。只有完成全部实验，并且正确回答认真度测验的被试才能获得实验报酬。实验报酬将通过支付宝转账发放。</p><p style=""text-align:left;font-size:20px;""><strong>如果您同意以上实验知情同意书的内容，请点击'同意并且开始实验'按钮；否则请关闭浏览器界面，退出实验。</strong></p>","0",""
"","","","","","html-button-response","3","57232","0.0-3.0","159","1","2022-10-09 01:55:57","d60b49b5908c80e163b920d72b52d584","59.172.176.30","Mozilla/5.0 (Windows NT 6.1; WOW64) AppleWebKit/537.36 (KHTML, like Gecko) Chrome/81.0.4044.138 Safari/537.36 NetType/WIFI MicroMessenger/7.0.20.1781(0x6700143B) WindowsWechat(0x6307062c)","WebKit","Chrome","81.0.4044.138","Windows","6.1","16619","<p ><strong>实验任务一：</strong></p><p>请想象你的国家与另一个国家发生了军事冲突。</p><p>你是国家军队的指挥官，你将如何在冲突中进行决策。</p><p>具体来说，作为军队指挥官，请你决定是否发射导弹进行打击。</p><p>接下来，你会面对一系列场景，请仔细阅读每个场景，然后进行决策。</p><p>这部分实验任务大约需要10分钟。</p><p><strong>实验过程中，请集中注意力。</strong></p>","0",""
"","","","","","html-keyboard-response","4","58236","0.0-4.0-0.0","159","1","2022-10-09 01:55:57","d60b49b5908c80e163b920d72b52d584","59.172.176.30","Mozilla/5.0 (Windows NT 6.1; WOW64) AppleWebKit/537.36 (KHTML, like Gecko) Chrome/81.0.4044.138 Safari/537.36 NetType/WIFI MicroMessenger/7.0.20.1781(0x6700143B) WindowsWechat(0x6307062c)","WebKit","Chrome","81.0.4044.138","Windows","6.1","null","<div style=""font-size:60px;"">+</div>","null",""
"","","","","","html-button-response","5","79109","0.0-4.0-1.0","159","1","2022-10-09 01:55:57","d60b49b5908c80e163b920d72b52d584","59.172.176.30","Mozilla/5.0 (Windows NT 6.1; WOW64) AppleWebKit/537.36 (KHTML, like Gecko) Chrome/81.0.4044.138 Safari/537.36 NetType/WIFI MicroMessenger/7.0.20.1781(0x6700143B) WindowsWechat(0x6307062c)","WebKit","Chrome","81.0.4044.138","Windows","6.1","20868","<p>作为军队的指挥官，你可以选择发射导弹杀死 <strong>10名</strong> 敌国士兵，但会误杀附近的 <strong>1名</strong> 敌国平民。</p> <p>平民照片如下图所示。</p> <p></p> <img src='stimuli/faces/NCF7.jpg', style='max-width: 30%;'> </img> <p><strong>你是否选择发射武器？</strong></p>","0",""
"","","","","","html-keyboard-response","6","80113","0.0-4.0-0.1","159","1","2022-10-09 01:55:57","d60b49b5908c80e163b920d72b52d584","59.172.176.30","Mozilla/5.0 (Windows NT 6.1; WOW64) AppleWebKit/537.36 (KHTML, like Gecko) Chrome/81.0.4044.138 Safari/537.36 NetType/WIFI MicroMessenger/7.0.20.1781(0x6700143B) WindowsWechat(0x6307062c)","WebKit","Chrome","81.0.4044.138","Windows","6.1","null","<div style=""font-size:60px;"">+</div>","null",""
"","","","","","html-button-response","7","90333","0.0-4.0-1.1","159","1","2022-10-09 01:55:57","d60b49b5908c80e163b920d72b52d584","59.172.176.30","Mozilla/5.0 (Windows NT 6.1; WOW64) AppleWebKit/537.36 (KHTML, like Gecko) Chrome/81.0.4044.138 Safari/537.36 NetType/WIFI MicroMessenger/7.0.20.1781(0x6700143B) WindowsWechat(0x6307062c)","WebKit","Chrome","81.0.4044.138","Windows","6.1","10216","<p>作为军队的指挥官，你可以选择发射导弹杀死 <strong>6名</strong> 敌国士兵，但会误杀附近的 <strong>1名</strong> 敌国平民。</p> <p>平民照片如下图所示。</p> <p></p> <img src='stimuli/faces/NCF6.jpg', style='max-width: 30%;'> </img> <p><strong>你是否选择发射武器？</strong></p>","0",""
"","","","","","html-keyboard-response","8","91337","0.0-4.0-0.2","159","1","2022-10-09 01:55:57","d60b49b5908c80e163b920d72b52d584","59.172.176.30","Mozilla/5.0 (Windows NT 6.1; WOW64) AppleWebKit/537.36 (KHTML, like Gecko) Chrome/81.0.4044.138 Safari/537.36 NetType/WIFI MicroMessenger/7.0.20.1781(0x6700143B) WindowsWechat(0x6307062c)","WebKit","Chrome","81.0.4044.138","Windows","6.1","null","<div style=""font-size:60px;"">+</div>","null",""
"","","","","","html-button-response","9","96363","0.0-4.0-1.2","159","1","2022-10-09 01:55:57","d60b49b5908c80e163b920d72b52d584","59.172.176.30","Mozilla/5.0 (Windows NT 6.1; WOW64) AppleWebKit/537.36 (KHTML, like Gecko) Chrome/81.0.4044.138 Safari/537.36 NetType/WIFI MicroMessenger/7.0.20.1781(0x6700143B) WindowsWechat(0x6307062c)","WebKit","Chrome","81.0.4044.138","Windows","6.1","5022","<p>作为军队的指挥官，你可以选择发射导弹杀死 <strong>9名</strong> 敌国士兵，但会炸毁附近的 <strong>1棵</strong> 敌国树木。</p> <p>树木的照片如下图所示。</p> <p></p> <img src='stimuli/trees/9.png', style='max-width: 30%;'> </img> <p><strong>你是否选择发射武器？</strong></p>","0",""
"","","","","","html-keyboard-response","10","97366","0.0-4.0-0.3","159","1","2022-10-09 01:55:57","d60b49b5908c80e163b920d72b52d584","59.172.176.30","Mozilla/5.0 (Windows NT 6.1; WOW64) AppleWebKit/537.36 (KHTML, like Gecko) Chrome/81.0.4044.138 Safari/537.36 NetType/WIFI MicroMessenger/7.0.20.1781(0x6700143B) WindowsWechat(0x6307062c)","WebKit","Chrome","81.0.4044.138","Windows","6.1","null","<div style=""font-size:60px;"">+</div>","null",""
"","","","","","html-button-response","11","103071","0.0-4.0-1.3","159","1","2022-10-09 01:55:57","d60b49b5908c80e163b920d72b52d584","59.172.176.30","Mozilla/5.0 (Windows NT 6.1; WOW64) AppleWebKit/537.36 (KHTML, like Gecko) Chrome/81.0.4044.138 Safari/537.36 NetType/WIFI MicroMessenger/7.0.20.1781(0x6700143B) WindowsWechat(0x6307062c)","WebKit","Chrome","81.0.4044.138","Windows","6.1","5702","<p>作为军队的指挥官，你可以选择发射导弹杀死 <strong>7名</strong> 敌国士兵，但会误杀附近的 <strong>1名</strong> 敌国平民。</p> <p>平民照片如下图所示。</p> <p></p> <img src='stimuli/faces/NCM4.jpg', style='max-width: 30%;'> </img> <p><strong>你是否选择发射武器？</strong></p>","0",""
"","","","","","html-keyboard-response","12","104077","0.0-4.0-0.4","159","1","2022-10-09 01:55:57","d60b49b5908c80e163b920d72b52d584","59.172.176.30","Mozilla/5.0 (Windows NT 6.1; WOW64) AppleWebKit/537.36 (KHTML, like Gecko) Chrome/81.0.4044.138 Safari/537.36 NetType/WIFI MicroMessenger/7.0.20.1781(0x6700143B) WindowsWechat(0x6307062c)","WebKit","Chrome","81.0.4044.138","Windows","6.1","null","<div style=""font-size:60px;"">+</div>","null",""
"","","","","","html-button-response","13","115793","0.0-4.0-1.4","159","1","2022-10-09 01:55:57","d60b49b5908c80e163b920d72b52d584","59.172.176.30","Mozilla/5.0 (Windows NT 6.1; WOW64) AppleWebKit/537.36 (KHTML, like Gecko) Chrome/81.0.4044.138 Safari/537.36 NetType/WIFI MicroMessenger/7.0.20.1781(0x6700143B) WindowsWechat(0x6307062c)","WebKit","Chrome","81.0.4044.138","Windows","6.1","11712","<p>作为军队的指挥官，你可以选择发射导弹杀死 <strong>1名</strong> 敌国士兵，但会误杀附近的 <strong>1名</strong> 敌国平民。</p> <p>平民照片如下图所示。</p> <p></p> <img src='stimuli/faces/NCM5.jpg', style='max-width: 30%;'> </img> <p><strong>你是否选择发射武器？</strong></p>","1",""
"","","","","","html-keyboard-response","14","116798","0.0-4.0-0.5","159","1","2022-10-09 01:55:57","d60b49b5908c80e163b920d72b52d584","59.172.176.30","Mozilla/5.0 (Windows NT 6.1; WOW64) AppleWebKit/537.36 (KHTML, like Gecko) Chrome/81.0.4044.138 Safari/537.36 NetType/WIFI MicroMessenger/7.0.20.1781(0x6700143B) WindowsWechat(0x6307062c)","WebKit","Chrome","81.0.4044.138","Windows","6.1","null","<div style=""font-size:60px;"">+</div>","null",""
"","","","","","html-button-response","15","120988","0.0-4.0-1.5","159","1","2022-10-09 01:55:57","d60b49b5908c80e163b920d72b52d584","59.172.176.30","Mozilla/5.0 (Windows NT 6.1; WOW64) AppleWebKit/537.36 (KHTML, like Gecko) Chrome/81.0.4044.138 Safari/537.36 NetType/WIFI MicroMessenger/7.0.20.1781(0x6700143B) WindowsWechat(0x6307062c)","WebKit","Chrome","81.0.4044.138","Windows","6.1","4185","<p>作为军队的指挥官，你可以选择发射导弹杀死 <strong>4名</strong> 敌国士兵，但会炸毁附近的 <strong>1棵</strong> 敌国树木。</p> <p>树木的照片如下图所示。</p> <p></p> <img src='stimuli/trees/3.png', style='max-width: 30%;'> </img> <p><strong>你是否选择发射武器？</strong></p>","0",""
"","","","","","html-keyboard-response","16","121994","0.0-4.0-0.6","159","1","2022-10-09 01:55:57","d60b49b5908c80e163b920d72b52d584","59.172.176.30","Mozilla/5.0 (Windows NT 6.1; WOW64) AppleWebKit/537.36 (KHTML, like Gecko) Chrome/81.0.4044.138 Safari/537.36 NetType/WIFI MicroMessenger/7.0.20.1781(0x6700143B) WindowsWechat(0x6307062c)","WebKit","Chrome","81.0.4044.138","Windows","6.1","null","<div style=""font-size:60px;"">+</div>","null",""
"","","","","","html-button-response","17","125287","0.0-4.0-1.6","159","1","2022-10-09 01:55:57","d60b49b5908c80e163b920d72b52d584","59.172.176.30","Mozilla/5.0 (Windows NT 6.1; WOW64) AppleWebKit/537.36 (KHTML, like Gecko) Chrome/81.0.4044.138 Safari/537.36 NetType/WIFI MicroMessenger/7.0.20.1781(0x6700143B) WindowsWechat(0x6307062c)","WebKit","Chrome","81.0.4044.138","Windows","6.1","3290","<p>作为军队的指挥官，你可以选择发射导弹杀死 <strong>1名</strong> 敌国士兵，但会炸毁附近的 <strong>1棵</strong> 敌国树木。</p> <p>树木的照片如下图所示。</p> <p></p> <img src='stimuli/trees/2.png', style='max-width: 30%;'> </img> <p><strong>你是否选择发射武器？</strong></p>","0",""
"","","","","","html-keyboard-response","18","126292","0.0-4.0-0.7","159","1","2022-10-09 01:55:57","d60b49b5908c80e163b920d72b52d584","59.172.176.30","Mozilla/5.0 (Windows NT 6.1; WOW64) AppleWebKit/537.36 (KHTML, like Gecko) Chrome/81.0.4044.138 Safari/537.36 NetType/WIFI MicroMessenger/7.0.20.1781(0x6700143B) WindowsWechat(0x6307062c)","WebKit","Chrome","81.0.4044.138","Windows","6.1","null","<div style=""font-size:60px;"">+</div>","null",""
"","","","","","html-button-response","19","131872","0.0-4.0-1.7","159","1","2022-10-09 01:55:57","d60b49b5908c80e163b920d72b52d584","59.172.176.30","Mozilla/5.0 (Windows NT 6.1; WOW64) AppleWebKit/537.36 (KHTML, like Gecko) Chrome/81.0.4044.138 Safari/537.36 NetType/WIFI MicroMessenger/7.0.20.1781(0x6700143B) WindowsWechat(0x6307062c)","WebKit","Chrome","81.0.4044.138","Windows","6.1","5576","<p>作为军队的指挥官，你可以选择发射导弹杀死 <strong>1名</strong> 敌国士兵，但会误杀附近的 <strong>1名</strong> 敌国平民。</p> <p>平民照片如下图所示。</p> <p></p> <img src='stimuli/faces/NCF6.jpg', style='max-width: 30%;'> </img> <p><strong>你是否选择发射武器？</strong></p>","1",""
"","","","","","html-keyboard-response","20","132878","0.0-4.0-0.8","159","1","2022-10-09 01:55:57","d60b49b5908c80e163b920d72b52d584","59.172.176.30","Mozilla/5.0 (Windows NT 6.1; WOW64) AppleWebKit/537.36 (KHTML, like Gecko) Chrome/81.0.4044.138 Safari/537.36 NetType/WIFI MicroMessenger/7.0.20.1781(0x6700143B) WindowsWechat(0x6307062c)","WebKit","Chrome","81.0.4044.138","Windows","6.1","null","<div style=""font-size:60px;"">+</div>","null",""
"","","","","","html-button-response","21","137158","0.0-4.0-1.8","159","1","2022-10-09 01:55:57","d60b49b5908c80e163b920d72b52d584","59.172.176.30","Mozilla/5.0 (Windows NT 6.1; WOW64) AppleWebKit/537.36 (KHTML, like Gecko) Chrome/81.0.4044.138 Safari/537.36 NetType/WIFI MicroMessenger/7.0.20.1781(0x6700143B) WindowsWechat(0x6307062c)","WebKit","Chrome","81.0.4044.138","Windows","6.1","4276","<p>作为军队的指挥官，你可以选择发射导弹杀死 <strong>7名</strong> 敌国士兵，但会误杀附近的 <strong>1名</strong> 敌国平民。</p> <p>平民照片如下图所示。</p> <p></p> <img src='stimuli/faces/NCM3.jpg', style='max-width: 30%;'> </img> <p><strong>你是否选择发射武器？</strong></p>","0",""
"","","","","","html-keyboard-response","22","138161","0.0-4.0-0.9","159","1","2022-10-09 01:55:57","d60b49b5908c80e163b920d72b52d584","59.172.176.30","Mozilla/5.0 (Windows NT 6.1; WOW64) AppleWebKit/537.36 (KHTML, like Gecko) Chrome/81.0.4044.138 Safari/537.36 NetType/WIFI MicroMessenger/7.0.20.1781(0x6700143B) WindowsWechat(0x6307062c)","WebKit","Chrome","81.0.4044.138","Windows","6.1","null","<div style=""font-size:60px;"">+</div>","null",""
"","","","","","html-button-response","23","142277","0.0-4.0-1.9","159","1","2022-10-09 01:55:57","d60b49b5908c80e163b920d72b52d584","59.172.176.30","Mozilla/5.0 (Windows NT 6.1; WOW64) AppleWebKit/537.36 (KHTML, like Gecko) Chrome/81.0.4044.138 Safari/537.36 NetType/WIFI MicroMessenger/7.0.20.1781(0x6700143B) WindowsWechat(0x6307062c)","WebKit","Chrome","81.0.4044.138","Windows","6.1","4112","<p>作为军队的指挥官，你可以选择发射导弹杀死 <strong>10名</strong> 敌国士兵，但会误杀附近的 <strong>1名</strong> 敌国平民。</p> <p>平民照片如下图所示。</p> <p></p> <img src='stimuli/faces/NCM7.jpg', style='max-width: 30%;'> </img> <p><strong>你是否选择发射武器？</strong></p>","0",""
"","","","","","html-keyboard-response","24","143280","0.0-4.0-0.10","159","1","2022-10-09 01:55:57","d60b49b5908c80e163b920d72b52d584","59.172.176.30","Mozilla/5.0 (Windows NT 6.1; WOW64) AppleWebKit/537.36 (KHTML, like Gecko) Chrome/81.0.4044.138 Safari/537.36 NetType/WIFI MicroMessenger/7.0.20.1781(0x6700143B) WindowsWechat(0x6307062c)","WebKit","Chrome","81.0.4044.138","Windows","6.1","null","<div style=""font-size:60px;"">+</div>","null",""
"","","","","","html-button-response","25","146902","0.0-4.0-1.10","159","1","2022-10-09 01:55:57","d60b49b5908c80e163b920d72b52d584","59.172.176.30","Mozilla/5.0 (Windows NT 6.1; WOW64) AppleWebKit/537.36 (KHTML, like Gecko) Chrome/81.0.4044.138 Safari/537.36 NetType/WIFI MicroMessenger/7.0.20.1781(0x6700143B) WindowsWechat(0x6307062c)","WebKit","Chrome","81.0.4044.138","Windows","6.1","3617","<p>作为军队的指挥官，你可以选择发射导弹杀死 <strong>6名</strong> 敌国士兵，但会误杀附近的 <strong>1名</strong> 敌国平民。</p> <p>平民照片如下图所示。</p> <p></p> <img src='stimuli/faces/NCF4.jpg', style='max-width: 30%;'> </img> <p><strong>你是否选择发射武器？</strong></p>","0",""
"","","","","","html-keyboard-response","26","147908","0.0-4.0-0.11","159","1","2022-10-09 01:55:57","d60b49b5908c80e163b920d72b52d584","59.172.176.30","Mozilla/5.0 (Windows NT 6.1; WOW64) AppleWebKit/537.36 (KHTML, like Gecko) Chrome/81.0.4044.138 Safari/537.36 NetType/WIFI MicroMessenger/7.0.20.1781(0x6700143B) WindowsWechat(0x6307062c)","WebKit","Chrome","81.0.4044.138","Windows","6.1","null","<div style=""font-size:60px;"">+</div>","null",""
"","","","","","html-button-response","27","153584","0.0-4.0-1.11","159","1","2022-10-09 01:55:57","d60b49b5908c80e163b920d72b52d584","59.172.176.30","Mozilla/5.0 (Windows NT 6.1; WOW64) AppleWebKit/537.36 (KHTML, like Gecko) Chrome/81.0.4044.138 Safari/537.36 NetType/WIFI MicroMessenger/7.0.20.1781(0x6700143B) WindowsWechat(0x6307062c)","WebKit","Chrome","81.0.4044.138","Windows","6.1","5671","<p>作为军队的指挥官，你可以选择发射导弹杀死 <strong>10名</strong> 敌国士兵，但会误杀附近的 <strong>1名</strong> 敌国平民。</p> <p>平民照片如下图所示。</p> <p></p> <img src='stimuli/faces/NCF2.jpg', style='max-width: 30%;'> </img> <p><strong>你是否选择发射武器？</strong></p>","0",""
"","","","","","html-keyboard-response","28","154588","0.0-4.0-0.12","159","1","2022-10-09 01:55:57","d60b49b5908c80e163b920d72b52d584","59.172.176.30","Mozilla/5.0 (Windows NT 6.1; WOW64) AppleWebKit/537.36 (KHTML, like Gecko) Chrome/81.0.4044.138 Safari/537.36 NetType/WIFI MicroMessenger/7.0.20.1781(0x6700143B) WindowsWechat(0x6307062c)","WebKit","Chrome","81.0.4044.138","Windows","6.1","null","<div style=""font-size:60px;"">+</div>","null",""
"","","","","","html-button-response","29","159163","0.0-4.0-1.12","159","1","2022-10-09 01:55:57","d60b49b5908c80e163b920d72b52d584","59.172.176.30","Mozilla/5.0 (Windows NT 6.1; WOW64) AppleWebKit/537.36 (KHTML, like Gecko) Chrome/81.0.4044.138 Safari/537.36 NetType/WIFI MicroMessenger/7.0.20.1781(0x6700143B) WindowsWechat(0x6307062c)","WebKit","Chrome","81.0.4044.138","Windows","6.1","4570","<p>作为军队的指挥官，你可以选择发射导弹杀死 <strong>7名</strong> 敌国士兵，但会误杀附近的 <strong>1名</strong> 敌国平民。</p> <p>平民照片如下图所示。</p> <p></p> <img src='stimuli/faces/NCM1.jpg', style='max-width: 30%;'> </img> <p><strong>你是否选择发射武器？</strong></p>","0",""
"","","","","","html-keyboard-response","30","160169","0.0-4.0-0.13","159","1","2022-10-09 01:55:57","d60b49b5908c80e163b920d72b52d584","59.172.176.30","Mozilla/5.0 (Windows NT 6.1; WOW64) AppleWebKit/537.36 (KHTML, like Gecko) Chrome/81.0.4044.138 Safari/537.36 NetType/WIFI MicroMessenger/7.0.20.1781(0x6700143B) WindowsWechat(0x6307062c)","WebKit","Chrome","81.0.4044.138","Windows","6.1","null","<div style=""font-size:60px;"">+</div>","null",""
"","","","","","html-button-response","31","164054","0.0-4.0-1.13","159","1","2022-10-09 01:55:57","d60b49b5908c80e163b920d72b52d584","59.172.176.30","Mozilla/5.0 (Windows NT 6.1; WOW64) AppleWebKit/537.36 (KHTML, like Gecko) Chrome/81.0.4044.138 Safari/537.36 NetType/WIFI MicroMessenger/7.0.20.1781(0x6700143B) WindowsWechat(0x6307062c)","WebKit","Chrome","81.0.4044.138","Windows","6.1","3881","<p>作为军队的指挥官，你可以选择发射导弹杀死 <strong>1名</strong> 敌国士兵，但会误杀附近的 <strong>1名</strong> 敌国平民。</p> <p>平民照片如下图所示。</p> <p></p> <img src='stimuli/faces/NCM4.jpg', style='max-width: 30%;'> </img> <p><strong>你是否选择发射武器？</strong></p>","1",""
"","","","","","html-keyboard-response","32","165057","0.0-4.0-0.14","159","1","2022-10-09 01:55:57","d60b49b5908c80e163b920d72b52d584","59.172.176.30","Mozilla/5.0 (Windows NT 6.1; WOW64) AppleWebKit/537.36 (KHTML, like Gecko) Chrome/81.0.4044.138 Safari/537.36 NetType/WIFI MicroMessenger/7.0.20.1781(0x6700143B) WindowsWechat(0x6307062c)","WebKit","Chrome","81.0.4044.138","Windows","6.1","null","<div style=""font-size:60px;"">+</div>","null",""
"","","","","","html-button-response","33","167982","0.0-4.0-1.14","159","1","2022-10-09 01:55:57","d60b49b5908c80e163b920d72b52d584","59.172.176.30","Mozilla/5.0 (Windows NT 6.1; WOW64) AppleWebKit/537.36 (KHTML, like Gecko) Chrome/81.0.4044.138 Safari/537.36 NetType/WIFI MicroMessenger/7.0.20.1781(0x6700143B) WindowsWechat(0x6307062c)","WebKit","Chrome","81.0.4044.138","Windows","6.1","2920","<p>作为军队的指挥官，你可以选择发射导弹杀死 <strong>1名</strong> 敌国士兵，但会误杀附近的 <strong>1名</strong> 敌国平民。</p> <p>平民照片如下图所示。</p> <p></p> <img src='stimuli/faces/NCF4.jpg', style='max-width: 30%;'> </img> <p><strong>你是否选择发射武器？</strong></p>","0",""
"","","","","","html-keyboard-response","34","168987","0.0-4.0-0.15","159","1","2022-10-09 01:55:57","d60b49b5908c80e163b920d72b52d584","59.172.176.30","Mozilla/5.0 (Windows NT 6.1; WOW64) AppleWebKit/537.36 (KHTML, like Gecko) Chrome/81.0.4044.138 Safari/537.36 NetType/WIFI MicroMessenger/7.0.20.1781(0x6700143B) WindowsWechat(0x6307062c)","WebKit","Chrome","81.0.4044.138","Windows","6.1","null","<div style=""font-size:60px;"">+</div>","null",""
"","","","","","html-button-response","35","173552","0.0-4.0-1.15","159","1","2022-10-09 01:55:57","d60b49b5908c80e163b920d72b52d584","59.172.176.30","Mozilla/5.0 (Windows NT 6.1; WOW64) AppleWebKit/537.36 (KHTML, like Gecko) Chrome/81.0.4044.138 Safari/537.36 NetType/WIFI MicroMessenger/7.0.20.1781(0x6700143B) WindowsWechat(0x6307062c)","WebKit","Chrome","81.0.4044.138","Windows","6.1","4559","<p>作为军队的指挥官，你可以选择发射导弹杀死 <strong>4名</strong> 敌国士兵，但会误杀附近的 <strong>1名</strong> 敌国平民。</p> <p>平民照片如下图所示。</p> <p></p> <img src='stimuli/faces/NCF8.jpg', style='max-width: 30%;'> </img> <p><strong>你是否选择发射武器？</strong></p>","0",""
"","","","","","html-keyboard-response","36","174556","0.0-4.0-0.16","159","1","2022-10-09 01:55:57","d60b49b5908c80e163b920d72b52d584","59.172.176.30","Mozilla/5.0 (Windows NT 6.1; WOW64) AppleWebKit/537.36 (KHTML, like Gecko) Chrome/81.0.4044.138 Safari/537.36 NetType/WIFI MicroMessenger/7.0.20.1781(0x6700143B) WindowsWechat(0x6307062c)","WebKit","Chrome","81.0.4044.138","Windows","6.1","null","<div style=""font-size:60px;"">+</div>","null",""
"","","","","","html-button-response","37","180889","0.0-4.0-1.16","159","1","2022-10-09 01:55:57","d60b49b5908c80e163b920d72b52d584","59.172.176.30","Mozilla/5.0 (Windows NT 6.1; WOW64) AppleWebKit/537.36 (KHTML, like Gecko) Chrome/81.0.4044.138 Safari/537.36 NetType/WIFI MicroMessenger/7.0.20.1781(0x6700143B) WindowsWechat(0x6307062c)","WebKit","Chrome","81.0.4044.138","Windows","6.1","6327","<p>作为军队的指挥官，你可以选择发射导弹杀死 <strong>9名</strong> 敌国士兵，但会炸毁附近的 <strong>1棵</strong> 敌国树木。</p> <p>树木的照片如下图所示。</p> <p></p> <img src='stimuli/trees/6.png', style='max-width: 30%;'> </img> <p><strong>你是否选择发射武器？</strong></p>","0",""
"","","","","","html-keyboard-response","38","181895","0.0-4.0-0.17","159","1","2022-10-09 01:55:57","d60b49b5908c80e163b920d72b52d584","59.172.176.30","Mozilla/5.0 (Windows NT 6.1; WOW64) AppleWebKit/537.36 (KHTML, like Gecko) Chrome/81.0.4044.138 Safari/537.36 NetType/WIFI MicroMessenger/7.0.20.1781(0x6700143B) WindowsWechat(0x6307062c)","WebKit","Chrome","81.0.4044.138","Windows","6.1","null","<div style=""font-size:60px;"">+</div>","null",""
"","","","","","html-button-response","39","186267","0.0-4.0-1.17","159","1","2022-10-09 01:55:57","d60b49b5908c80e163b920d72b52d584","59.172.176.30","Mozilla/5.0 (Windows NT 6.1; WOW64) AppleWebKit/537.36 (KHTML, like Gecko) Chrome/81.0.4044.138 Safari/537.36 NetType/WIFI MicroMessenger/7.0.20.1781(0x6700143B) WindowsWechat(0x6307062c)","WebKit","Chrome","81.0.4044.138","Windows","6.1","4366","<p>作为军队的指挥官，你可以选择发射导弹杀死 <strong>9名</strong> 敌国士兵，但会炸毁附近的 <strong>1棵</strong> 敌国树木。</p> <p>树木的照片如下图所示。</p> <p></p> <img src='stimuli/trees/8.png', style='max-width: 30%;'> </img> <p><strong>你是否选择发射武器？</strong></p>","0",""
"","","","","","html-keyboard-response","40","187273","0.0-4.0-0.18","159","1","2022-10-09 01:55:57","d60b49b5908c80e163b920d72b52d584","59.172.176.30","Mozilla/5.0 (Windows NT 6.1; WOW64) AppleWebKit/537.36 (KHTML, like Gecko) Chrome/81.0.4044.138 Safari/537.36 NetType/WIFI MicroMessenger/7.0.20.1781(0x6700143B) WindowsWechat(0x6307062c)","WebKit","Chrome","81.0.4044.138","Windows","6.1","null","<div style=""font-size:60px;"">+</div>","null",""
"","","","","","html-button-response","41","189549","0.0-4.0-1.18","159","1","2022-10-09 01:55:57","d60b49b5908c80e163b920d72b52d584","59.172.176.30","Mozilla/5.0 (Windows NT 6.1; WOW64) AppleWebKit/537.36 (KHTML, like Gecko) Chrome/81.0.4044.138 Safari/537.36 NetType/WIFI MicroMessenger/7.0.20.1781(0x6700143B) WindowsWechat(0x6307062c)","WebKit","Chrome","81.0.4044.138","Windows","6.1","2271","<p>作为军队的指挥官，你可以选择发射导弹杀死 <strong>6名</strong> 敌国士兵，但会误杀附近的 <strong>1名</strong> 敌国平民。</p> <p>平民照片如下图所示。</p> <p></p> <img src='stimuli/faces/NCM2.jpg', style='max-width: 30%;'> </img> <p><strong>你是否选择发射武器？</strong></p>","0",""
"","","","","","html-keyboard-response","42","190552","0.0-4.0-0.19","159","1","2022-10-09 01:55:57","d60b49b5908c80e163b920d72b52d584","59.172.176.30","Mozilla/5.0 (Windows NT 6.1; WOW64) AppleWebKit/537.36 (KHTML, like Gecko) Chrome/81.0.4044.138 Safari/537.36 NetType/WIFI MicroMessenger/7.0.20.1781(0x6700143B) WindowsWechat(0x6307062c)","WebKit","Chrome","81.0.4044.138","Windows","6.1","null","<div style=""font-size:60px;"">+</div>","null",""
"","","","","","html-button-response","43","192911","0.0-4.0-1.19","159","1","2022-10-09 01:55:57","d60b49b5908c80e163b920d72b52d584","59.172.176.30","Mozilla/5.0 (Windows NT 6.1; WOW64) AppleWebKit/537.36 (KHTML, like Gecko) Chrome/81.0.4044.138 Safari/537.36 NetType/WIFI MicroMessenger/7.0.20.1781(0x6700143B) WindowsWechat(0x6307062c)","WebKit","Chrome","81.0.4044.138","Windows","6.1","2354","<p>作为军队的指挥官，你可以选择发射导弹杀死 <strong>8名</strong> 敌国士兵，但会炸毁附近的 <strong>1棵</strong> 敌国树木。</p> <p>树木的照片如下图所示。</p> <p></p> <img src='stimuli/trees/7.png', style='max-width: 30%;'> </img> <p><strong>你是否选择发射武器？</strong></p>","0",""
"","","","","","html-keyboard-response","44","193916","0.0-4.0-0.20","159","1","2022-10-09 01:55:57","d60b49b5908c80e163b920d72b52d584","59.172.176.30","Mozilla/5.0 (Windows NT 6.1; WOW64) AppleWebKit/537.36 (KHTML, like Gecko) Chrome/81.0.4044.138 Safari/537.36 NetType/WIFI MicroMessenger/7.0.20.1781(0x6700143B) WindowsWechat(0x6307062c)","WebKit","Chrome","81.0.4044.138","Windows","6.1","null","<div style=""font-size:60px;"">+</div>","null",""
"","","","","","html-button-response","45","196146","0.0-4.0-1.20","159","1","2022-10-09 01:55:57","d60b49b5908c80e163b920d72b52d584","59.172.176.30","Mozilla/5.0 (Windows NT 6.1; WOW64) AppleWebKit/537.36 (KHTML, like Gecko) Chrome/81.0.4044.138 Safari/537.36 NetType/WIFI MicroMessenger/7.0.20.1781(0x6700143B) WindowsWechat(0x6307062c)","WebKit","Chrome","81.0.4044.138","Windows","6.1","2225","<p>作为军队的指挥官，你可以选择发射导弹杀死 <strong>1名</strong> 敌国士兵，但会误杀附近的 <strong>1名</strong> 敌国平民。</p> <p>平民照片如下图所示。</p> <p></p> <img src='stimuli/faces/NCF3.jpg', style='max-width: 30%;'> </img> <p><strong>你是否选择发射武器？</strong></p>","1",""
"","","","","","html-keyboard-response","46","197150","0.0-4.0-0.21","159","1","2022-10-09 01:55:57","d60b49b5908c80e163b920d72b52d584","59.172.176.30","Mozilla/5.0 (Windows NT 6.1; WOW64) AppleWebKit/537.36 (KHTML, like Gecko) Chrome/81.0.4044.138 Safari/537.36 NetType/WIFI MicroMessenger/7.0.20.1781(0x6700143B) WindowsWechat(0x6307062c)","WebKit","Chrome","81.0.4044.138","Windows","6.1","null","<div style=""font-size:60px;"">+</div>","null",""
"","","","","","html-button-response","47","198623","0.0-4.0-1.21","159","1","2022-10-09 01:55:57","d60b49b5908c80e163b920d72b52d584","59.172.176.30","Mozilla/5.0 (Windows NT 6.1; WOW64) AppleWebKit/537.36 (KHTML, like Gecko) Chrome/81.0.4044.138 Safari/537.36 NetType/WIFI MicroMessenger/7.0.20.1781(0x6700143B) WindowsWechat(0x6307062c)","WebKit","Chrome","81.0.4044.138","Windows","6.1","1468","<p>作为军队的指挥官，你可以选择发射导弹杀死 <strong>4名</strong> 敌国士兵，但会炸毁附近的 <strong>1棵</strong> 敌国树木。</p> <p>树木的照片如下图所示。</p> <p></p> <img src='stimuli/trees/13.png', style='max-width: 30%;'> </img> <p><strong>你是否选择发射武器？</strong></p>","0",""
"","","","","","html-keyboard-response","48","199627","0.0-4.0-0.22","159","1","2022-10-09 01:55:57","d60b49b5908c80e163b920d72b52d584","59.172.176.30","Mozilla/5.0 (Windows NT 6.1; WOW64) AppleWebKit/537.36 (KHTML, like Gecko) Chrome/81.0.4044.138 Safari/537.36 NetType/WIFI MicroMessenger/7.0.20.1781(0x6700143B) WindowsWechat(0x6307062c)","WebKit","Chrome","81.0.4044.138","Windows","6.1","null","<div style=""font-size:60px;"">+</div>","null",""
"","","","","","html-button-response","49","200834","0.0-4.0-1.22","159","1","2022-10-09 01:55:57","d60b49b5908c80e163b920d72b52d584","59.172.176.30","Mozilla/5.0 (Windows NT 6.1; WOW64) AppleWebKit/537.36 (KHTML, like Gecko) Chrome/81.0.4044.138 Safari/537.36 NetType/WIFI MicroMessenger/7.0.20.1781(0x6700143B) WindowsWechat(0x6307062c)","WebKit","Chrome","81.0.4044.138","Windows","6.1","1203","<p>作为军队的指挥官，你可以选择发射导弹杀死 <strong>8名</strong> 敌国士兵，但会炸毁附近的 <strong>1棵</strong> 敌国树木。</p> <p>树木的照片如下图所示。</p> <p></p> <img src='stimuli/trees/2.png', style='max-width: 30%;'> </img> <p><strong>你是否选择发射武器？</strong></p>","0",""
"","","","","","html-keyboard-response","50","201838","0.0-4.0-0.23","159","1","2022-10-09 01:55:57","d60b49b5908c80e163b920d72b52d584","59.172.176.30","Mozilla/5.0 (Windows NT 6.1; WOW64) AppleWebKit/537.36 (KHTML, like Gecko) Chrome/81.0.4044.138 Safari/537.36 NetType/WIFI MicroMessenger/7.0.20.1781(0x6700143B) WindowsWechat(0x6307062c)","WebKit","Chrome","81.0.4044.138","Windows","6.1","null","<div style=""font-size:60px;"">+</div>","null",""
"","","","","","html-button-response","51","204043","0.0-4.0-1.23","159","1","2022-10-09 01:55:57","d60b49b5908c80e163b920d72b52d584","59.172.176.30","Mozilla/5.0 (Windows NT 6.1; WOW64) AppleWebKit/537.36 (KHTML, like Gecko) Chrome/81.0.4044.138 Safari/537.36 NetType/WIFI MicroMessenger/7.0.20.1781(0x6700143B) WindowsWechat(0x6307062c)","WebKit","Chrome","81.0.4044.138","Windows","6.1","2201","<p>作为军队的指挥官，你可以选择发射导弹杀死 <strong>9名</strong> 敌国士兵，但会炸毁附近的 <strong>1棵</strong> 敌国树木。</p> <p>树木的照片如下图所示。</p> <p></p> <img src='stimuli/trees/15.png', style='max-width: 30%;'> </img> <p><strong>你是否选择发射武器？</strong></p>","0",""
"","","","","","html-keyboard-response","52","205048","0.0-4.0-0.24","159","1","2022-10-09 01:55:57","d60b49b5908c80e163b920d72b52d584","59.172.176.30","Mozilla/5.0 (Windows NT 6.1; WOW64) AppleWebKit/537.36 (KHTML, like Gecko) Chrome/81.0.4044.138 Safari/537.36 NetType/WIFI MicroMessenger/7.0.20.1781(0x6700143B) WindowsWechat(0x6307062c)","WebKit","Chrome","81.0.4044.138","Windows","6.1","null","<div style=""font-size:60px;"">+</div>","null",""
"","","","","","html-button-response","53","209133","0.0-4.0-1.24","159","1","2022-10-09 01:55:57","d60b49b5908c80e163b920d72b52d584","59.172.176.30","Mozilla/5.0 (Windows NT 6.1; WOW64) AppleWebKit/537.36 (KHTML, like Gecko) Chrome/81.0.4044.138 Safari/537.36 NetType/WIFI MicroMessenger/7.0.20.1781(0x6700143B) WindowsWechat(0x6307062c)","WebKit","Chrome","81.0.4044.138","Windows","6.1","4080","<p>作为军队的指挥官，你可以选择发射导弹杀死 <strong>3名</strong> 敌国士兵，但会炸毁附近的 <strong>1棵</strong> 敌国树木。</p> <p>树木的照片如下图所示。</p> <p></p> <img src='stimuli/trees/12.png', style='max-width: 30%;'> </img> <p><strong>你是否选择发射武器？</strong></p>","0",""
"","","","","","html-keyboard-response","54","210139","0.0-4.0-0.25","159","1","2022-10-09 01:55:57","d60b49b5908c80e163b920d72b52d584","59.172.176.30","Mozilla/5.0 (Windows NT 6.1; WOW64) AppleWebKit/537.36 (KHTML, like Gecko) Chrome/81.0.4044.138 Safari/537.36 NetType/WIFI MicroMessenger/7.0.20.1781(0x6700143B) WindowsWechat(0x6307062c)","WebKit","Chrome","81.0.4044.138","Windows","6.1","null","<div style=""font-size:60px;"">+</div>","null",""
"","","","","","html-button-response","55","212113","0.0-4.0-1.25","159","1","2022-10-09 01:55:57","d60b49b5908c80e163b920d72b52d584","59.172.176.30","Mozilla/5.0 (Windows NT 6.1; WOW64) AppleWebKit/537.36 (KHTML, like Gecko) Chrome/81.0.4044.138 Safari/537.36 NetType/WIFI MicroMessenger/7.0.20.1781(0x6700143B) WindowsWechat(0x6307062c)","WebKit","Chrome","81.0.4044.138","Windows","6.1","1965","<p>作为军队的指挥官，你可以选择发射导弹杀死 <strong>10名</strong> 敌国士兵，但会炸毁附近的 <strong>1棵</strong> 敌国树木。</p> <p>树木的照片如下图所示。</p> <p></p> <img src='stimuli/trees/14.png', style='max-width: 30%;'> </img> <p><strong>你是否选择发射武器？</strong></p>","0",""
"","","","","","html-keyboard-response","56","213117","0.0-4.0-0.26","159","1","2022-10-09 01:55:57","d60b49b5908c80e163b920d72b52d584","59.172.176.30","Mozilla/5.0 (Windows NT 6.1; WOW64) AppleWebKit/537.36 (KHTML, like Gecko) Chrome/81.0.4044.138 Safari/537.36 NetType/WIFI MicroMessenger/7.0.20.1781(0x6700143B) WindowsWechat(0x6307062c)","WebKit","Chrome","81.0.4044.138","Windows","6.1","null","<div style=""font-size:60px;"">+</div>","null",""
"","","","","","html-button-response","57","215605","0.0-4.0-1.26","159","1","2022-10-09 01:55:57","d60b49b5908c80e163b920d72b52d584","59.172.176.30","Mozilla/5.0 (Windows NT 6.1; WOW64) AppleWebKit/537.36 (KHTML, like Gecko) Chrome/81.0.4044.138 Safari/537.36 NetType/WIFI MicroMessenger/7.0.20.1781(0x6700143B) WindowsWechat(0x6307062c)","WebKit","Chrome","81.0.4044.138","Windows","6.1","2482","<p>作为军队的指挥官，你可以选择发射导弹杀死 <strong>7名</strong> 敌国士兵，但会误杀附近的 <strong>1名</strong> 敌国平民。</p> <p>平民照片如下图所示。</p> <p></p> <img src='stimuli/faces/NCF1.jpg', style='max-width: 30%;'> </img> <p><strong>你是否选择发射武器？</strong></p>","0",""
"","","","","","html-keyboard-response","58","216610","0.0-4.0-0.27","159","1","2022-10-09 01:55:57","d60b49b5908c80e163b920d72b52d584","59.172.176.30","Mozilla/5.0 (Windows NT 6.1; WOW64) AppleWebKit/537.36 (KHTML, like Gecko) Chrome/81.0.4044.138 Safari/537.36 NetType/WIFI MicroMessenger/7.0.20.1781(0x6700143B) WindowsWechat(0x6307062c)","WebKit","Chrome","81.0.4044.138","Windows","6.1","null","<div style=""font-size:60px;"">+</div>","null",""
"","","","","","html-button-response","59","222107","0.0-4.0-1.27","159","1","2022-10-09 01:55:57","d60b49b5908c80e163b920d72b52d584","59.172.176.30","Mozilla/5.0 (Windows NT 6.1; WOW64) AppleWebKit/537.36 (KHTML, like Gecko) Chrome/81.0.4044.138 Safari/537.36 NetType/WIFI MicroMessenger/7.0.20.1781(0x6700143B) WindowsWechat(0x6307062c)","WebKit","Chrome","81.0.4044.138","Windows","6.1","5491","<p>作为军队的指挥官，你可以选择发射导弹杀死 <strong>3名</strong> 敌国士兵，但会炸毁附近的 <strong>1棵</strong> 敌国树木。</p> <p>树木的照片如下图所示。</p> <p></p> <img src='stimuli/trees/5.png', style='max-width: 30%;'> </img> <p><strong>你是否选择发射武器？</strong></p>","0",""
"","","","","","html-keyboard-response","60","223112","0.0-4.0-0.28","159","1","2022-10-09 01:55:57","d60b49b5908c80e163b920d72b52d584","59.172.176.30","Mozilla/5.0 (Windows NT 6.1; WOW64) AppleWebKit/537.36 (KHTML, like Gecko) Chrome/81.0.4044.138 Safari/537.36 NetType/WIFI MicroMessenger/7.0.20.1781(0x6700143B) WindowsWechat(0x6307062c)","WebKit","Chrome","81.0.4044.138","Windows","6.1","null","<div style=""font-size:60px;"">+</div>","null",""
"","","","","","html-button-response","61","231133","0.0-4.0-1.28","159","1","2022-10-09 01:55:57","d60b49b5908c80e163b920d72b52d584","59.172.176.30","Mozilla/5.0 (Windows NT 6.1; WOW64) AppleWebKit/537.36 (KHTML, like Gecko) Chrome/81.0.4044.138 Safari/537.36 NetType/WIFI MicroMessenger/7.0.20.1781(0x6700143B) WindowsWechat(0x6307062c)","WebKit","Chrome","81.0.4044.138","Windows","6.1","8014","<p>作为军队的指挥官，你可以选择发射导弹杀死 <strong>3名</strong> 敌国士兵，但会炸毁附近的 <strong>1棵</strong> 敌国树木。</p> <p>树木的照片如下图所示。</p> <p></p> <img src='stimuli/trees/11.png', style='max-width: 30%;'> </img> <p><strong>你是否选择发射武器？</strong></p>","0",""
"","","","","","html-keyboard-response","62","232141","0.0-4.0-0.29","159","1","2022-10-09 01:55:57","d60b49b5908c80e163b920d72b52d584","59.172.176.30","Mozilla/5.0 (Windows NT 6.1; WOW64) AppleWebKit/537.36 (KHTML, like Gecko) Chrome/81.0.4044.138 Safari/537.36 NetType/WIFI MicroMessenger/7.0.20.1781(0x6700143B) WindowsWechat(0x6307062c)","WebKit","Chrome","81.0.4044.138","Windows","6.1","null","<div style=""font-size:60px;"">+</div>","null",""
"","","","","","html-button-response","63","234463","0.0-4.0-1.29","159","1","2022-10-09 01:55:57","d60b49b5908c80e163b920d72b52d584","59.172.176.30","Mozilla/5.0 (Windows NT 6.1; WOW64) AppleWebKit/537.36 (KHTML, like Gecko) Chrome/81.0.4044.138 Safari/537.36 NetType/WIFI MicroMessenger/7.0.20.1781(0x6700143B) WindowsWechat(0x6307062c)","WebKit","Chrome","81.0.4044.138","Windows","6.1","2316","<p>作为军队的指挥官，你可以选择发射导弹杀死 <strong>2名</strong> 敌国士兵，但会误杀附近的 <strong>1名</strong> 敌国平民。</p> <p>平民照片如下图所示。</p> <p></p> <img src='stimuli/faces/NCM8.jpg', style='max-width: 30%;'> </img> <p><strong>你是否选择发射武器？</strong></p>","0",""
"","","","","","html-keyboard-response","64","235469","0.0-4.0-0.30","159","1","2022-10-09 01:55:57","d60b49b5908c80e163b920d72b52d584","59.172.176.30","Mozilla/5.0 (Windows NT 6.1; WOW64) AppleWebKit/537.36 (KHTML, like Gecko) Chrome/81.0.4044.138 Safari/537.36 NetType/WIFI MicroMessenger/7.0.20.1781(0x6700143B) WindowsWechat(0x6307062c)","WebKit","Chrome","81.0.4044.138","Windows","6.1","null","<div style=""font-size:60px;"">+</div>","null",""
"","","","","","html-button-response","65","238627","0.0-4.0-1.30","159","1","2022-10-09 01:55:57","d60b49b5908c80e163b920d72b52d584","59.172.176.30","Mozilla/5.0 (Windows NT 6.1; WOW64) AppleWebKit/537.36 (KHTML, like Gecko) Chrome/81.0.4044.138 Safari/537.36 NetType/WIFI MicroMessenger/7.0.20.1781(0x6700143B) WindowsWechat(0x6307062c)","WebKit","Chrome","81.0.4044.138","Windows","6.1","3152","<p>作为军队的指挥官，你可以选择发射导弹杀死 <strong>1名</strong> 敌国士兵，但会误杀附近的 <strong>1名</strong> 敌国平民。</p> <p>平民照片如下图所示。</p> <p></p> <img src='stimuli/faces/NCM2.jpg', style='max-width: 30%;'> </img> <p><strong>你是否选择发射武器？</strong></p>","0",""
"","","","","","html-keyboard-response","66","239631","0.0-4.0-0.31","159","1","2022-10-09 01:55:57","d60b49b5908c80e163b920d72b52d584","59.172.176.30","Mozilla/5.0 (Windows NT 6.1; WOW64) AppleWebKit/537.36 (KHTML, like Gecko) Chrome/81.0.4044.138 Safari/537.36 NetType/WIFI MicroMessenger/7.0.20.1781(0x6700143B) WindowsWechat(0x6307062c)","WebKit","Chrome","81.0.4044.138","Windows","6.1","null","<div style=""font-size:60px;"">+</div>","null",""
"","","","","","html-button-response","67","240925","0.0-4.0-1.31","159","1","2022-10-09 01:55:57","d60b49b5908c80e163b920d72b52d584","59.172.176.30","Mozilla/5.0 (Windows NT 6.1; WOW64) AppleWebKit/537.36 (KHTML, like Gecko) Chrome/81.0.4044.138 Safari/537.36 NetType/WIFI MicroMessenger/7.0.20.1781(0x6700143B) WindowsWechat(0x6307062c)","WebKit","Chrome","81.0.4044.138","Windows","6.1","1289","<p>作为军队的指挥官，你可以选择发射导弹杀死 <strong>5名</strong> 敌国士兵，但会炸毁附近的 <strong>1棵</strong> 敌国树木。</p> <p>树木的照片如下图所示。</p> <p></p> <img src='stimuli/trees/10.png', style='max-width: 30%;'> </img> <p><strong>你是否选择发射武器？</strong></p>","0",""
"","","","","","html-keyboard-response","68","241929","0.0-4.0-0.32","159","1","2022-10-09 01:55:57","d60b49b5908c80e163b920d72b52d584","59.172.176.30","Mozilla/5.0 (Windows NT 6.1; WOW64) AppleWebKit/537.36 (KHTML, like Gecko) Chrome/81.0.4044.138 Safari/537.36 NetType/WIFI MicroMessenger/7.0.20.1781(0x6700143B) WindowsWechat(0x6307062c)","WebKit","Chrome","81.0.4044.138","Windows","6.1","null","<div style=""font-size:60px;"">+</div>","null",""
"","","","","","html-button-response","69","244014","0.0-4.0-1.32","159","1","2022-10-09 01:55:57","d60b49b5908c80e163b920d72b52d584","59.172.176.30","Mozilla/5.0 (Windows NT 6.1; WOW64) AppleWebKit/537.36 (KHTML, like Gecko) Chrome/81.0.4044.138 Safari/537.36 NetType/WIFI MicroMessenger/7.0.20.1781(0x6700143B) WindowsWechat(0x6307062c)","WebKit","Chrome","81.0.4044.138","Windows","6.1","2078","<p>作为军队的指挥官，你可以选择发射导弹杀死 <strong>1名</strong> 敌国士兵，但会炸毁附近的 <strong>1棵</strong> 敌国树木。</p> <p>树木的照片如下图所示。</p> <p></p> <img src='stimuli/trees/7.png', style='max-width: 30%;'> </img> <p><strong>你是否选择发射武器？</strong></p>","0",""
"","","","","","html-keyboard-response","70","245021","0.0-4.0-0.33","159","1","2022-10-09 01:55:57","d60b49b5908c80e163b920d72b52d584","59.172.176.30","Mozilla/5.0 (Windows NT 6.1; WOW64) AppleWebKit/537.36 (KHTML, like Gecko) Chrome/81.0.4044.138 Safari/537.36 NetType/WIFI MicroMessenger/7.0.20.1781(0x6700143B) WindowsWechat(0x6307062c)","WebKit","Chrome","81.0.4044.138","Windows","6.1","null","<div style=""font-size:60px;"">+</div>","null",""
"","","","","","html-button-response","71","246458","0.0-4.0-1.33","159","1","2022-10-09 01:55:57","d60b49b5908c80e163b920d72b52d584","59.172.176.30","Mozilla/5.0 (Windows NT 6.1; WOW64) AppleWebKit/537.36 (KHTML, like Gecko) Chrome/81.0.4044.138 Safari/537.36 NetType/WIFI MicroMessenger/7.0.20.1781(0x6700143B) WindowsWechat(0x6307062c)","WebKit","Chrome","81.0.4044.138","Windows","6.1","1431","<p>作为军队的指挥官，你可以选择发射导弹杀死 <strong>5名</strong> 敌国士兵，但会炸毁附近的 <strong>1棵</strong> 敌国树木。</p> <p>树木的照片如下图所示。</p> <p></p> <img src='stimuli/trees/16.png', style='max-width: 30%;'> </img> <p><strong>你是否选择发射武器？</strong></p>","0",""
"","","","","","html-keyboard-response","72","247464","0.0-4.0-0.34","159","1","2022-10-09 01:55:57","d60b49b5908c80e163b920d72b52d584","59.172.176.30","Mozilla/5.0 (Windows NT 6.1; WOW64) AppleWebKit/537.36 (KHTML, like Gecko) Chrome/81.0.4044.138 Safari/537.36 NetType/WIFI MicroMessenger/7.0.20.1781(0x6700143B) WindowsWechat(0x6307062c)","WebKit","Chrome","81.0.4044.138","Windows","6.1","null","<div style=""font-size:60px;"">+</div>","null",""
"","","","","","html-button-response","73","249374","0.0-4.0-1.34","159","1","2022-10-09 01:55:57","d60b49b5908c80e163b920d72b52d584","59.172.176.30","Mozilla/5.0 (Windows NT 6.1; WOW64) AppleWebKit/537.36 (KHTML, like Gecko) Chrome/81.0.4044.138 Safari/537.36 NetType/WIFI MicroMessenger/7.0.20.1781(0x6700143B) WindowsWechat(0x6307062c)","WebKit","Chrome","81.0.4044.138","Windows","6.1","1904","<p>作为军队的指挥官，你可以选择发射导弹杀死 <strong>5名</strong> 敌国士兵，但会误杀附近的 <strong>1名</strong> 敌国平民。</p> <p>平民照片如下图所示。</p> <p></p> <img src='stimuli/faces/NCM7.jpg', style='max-width: 30%;'> </img> <p><strong>你是否选择发射武器？</strong></p>","0",""
"","","","","","html-keyboard-response","74","250378","0.0-4.0-0.35","159","1","2022-10-09 01:55:57","d60b49b5908c80e163b920d72b52d584","59.172.176.30","Mozilla/5.0 (Windows NT 6.1; WOW64) AppleWebKit/537.36 (KHTML, like Gecko) Chrome/81.0.4044.138 Safari/537.36 NetType/WIFI MicroMessenger/7.0.20.1781(0x6700143B) WindowsWechat(0x6307062c)","WebKit","Chrome","81.0.4044.138","Windows","6.1","null","<div style=""font-size:60px;"">+</div>","null",""
"","","","","","html-button-response","75","251938","0.0-4.0-1.35","159","1","2022-10-09 01:55:57","d60b49b5908c80e163b920d72b52d584","59.172.176.30","Mozilla/5.0 (Windows NT 6.1; WOW64) AppleWebKit/537.36 (KHTML, like Gecko) Chrome/81.0.4044.138 Safari/537.36 NetType/WIFI MicroMessenger/7.0.20.1781(0x6700143B) WindowsWechat(0x6307062c)","WebKit","Chrome","81.0.4044.138","Windows","6.1","1553","<p>作为军队的指挥官，你可以选择发射导弹杀死 <strong>2名</strong> 敌国士兵，但会炸毁附近的 <strong>1棵</strong> 敌国树木。</p> <p>树木的照片如下图所示。</p> <p></p> <img src='stimuli/trees/8.png', style='max-width: 30%;'> </img> <p><strong>你是否选择发射武器？</strong></p>","0",""
"","","","","","html-keyboard-response","76","252942","0.0-4.0-0.36","159","1","2022-10-09 01:55:57","d60b49b5908c80e163b920d72b52d584","59.172.176.30","Mozilla/5.0 (Windows NT 6.1; WOW64) AppleWebKit/537.36 (KHTML, like Gecko) Chrome/81.0.4044.138 Safari/537.36 NetType/WIFI MicroMessenger/7.0.20.1781(0x6700143B) WindowsWechat(0x6307062c)","WebKit","Chrome","81.0.4044.138","Windows","6.1","null","<div style=""font-size:60px;"">+</div>","null",""
"","","","","","html-button-response","77","256636","0.0-4.0-1.36","159","1","2022-10-09 01:55:57","d60b49b5908c80e163b920d72b52d584","59.172.176.30","Mozilla/5.0 (Windows NT 6.1; WOW64) AppleWebKit/537.36 (KHTML, like Gecko) Chrome/81.0.4044.138 Safari/537.36 NetType/WIFI MicroMessenger/7.0.20.1781(0x6700143B) WindowsWechat(0x6307062c)","WebKit","Chrome","81.0.4044.138","Windows","6.1","3687","<p>作为军队的指挥官，你可以选择发射导弹杀死 <strong>3名</strong> 敌国士兵，但会炸毁附近的 <strong>1棵</strong> 敌国树木。</p> <p>树木的照片如下图所示。</p> <p></p> <img src='stimuli/trees/9.png', style='max-width: 30%;'> </img> <p><strong>你是否选择发射武器？</strong></p>","0",""
"","","","","","html-keyboard-response","78","257640","0.0-4.0-0.37","159","1","2022-10-09 01:55:57","d60b49b5908c80e163b920d72b52d584","59.172.176.30","Mozilla/5.0 (Windows NT 6.1; WOW64) AppleWebKit/537.36 (KHTML, like Gecko) Chrome/81.0.4044.138 Safari/537.36 NetType/WIFI MicroMessenger/7.0.20.1781(0x6700143B) WindowsWechat(0x6307062c)","WebKit","Chrome","81.0.4044.138","Windows","6.1","null","<div style=""font-size:60px;"">+</div>","null",""
"","","","","","html-button-response","79","259003","0.0-4.0-1.37","159","1","2022-10-09 01:55:57","d60b49b5908c80e163b920d72b52d584","59.172.176.30","Mozilla/5.0 (Windows NT 6.1; WOW64) AppleWebKit/537.36 (KHTML, like Gecko) Chrome/81.0.4044.138 Safari/537.36 NetType/WIFI MicroMessenger/7.0.20.1781(0x6700143B) WindowsWechat(0x6307062c)","WebKit","Chrome","81.0.4044.138","Windows","6.1","1356","<p>作为军队的指挥官，你可以选择发射导弹杀死 <strong>6名</strong> 敌国士兵，但会误杀附近的 <strong>1名</strong> 敌国平民。</p> <p>平民照片如下图所示。</p> <p></p> <img src='stimuli/faces/NCM5.jpg', style='max-width: 30%;'> </img> <p><strong>你是否选择发射武器？</strong></p>","0",""
"","","","","","html-keyboard-response","80","260007","0.0-4.0-0.38","159","1","2022-10-09 01:55:57","d60b49b5908c80e163b920d72b52d584","59.172.176.30","Mozilla/5.0 (Windows NT 6.1; WOW64) AppleWebKit/537.36 (KHTML, like Gecko) Chrome/81.0.4044.138 Safari/537.36 NetType/WIFI MicroMessenger/7.0.20.1781(0x6700143B) WindowsWechat(0x6307062c)","WebKit","Chrome","81.0.4044.138","Windows","6.1","null","<div style=""font-size:60px;"">+</div>","null",""
"","","","","","html-button-response","81","262400","0.0-4.0-1.38","159","1","2022-10-09 01:55:57","d60b49b5908c80e163b920d72b52d584","59.172.176.30","Mozilla/5.0 (Windows NT 6.1; WOW64) AppleWebKit/537.36 (KHTML, like Gecko) Chrome/81.0.4044.138 Safari/537.36 NetType/WIFI MicroMessenger/7.0.20.1781(0x6700143B) WindowsWechat(0x6307062c)","WebKit","Chrome","81.0.4044.138","Windows","6.1","2385","<p>作为军队的指挥官，你可以选择发射导弹杀死 <strong>7名</strong> 敌国士兵，但会误杀附近的 <strong>1名</strong> 敌国平民。</p> <p>平民照片如下图所示。</p> <p></p> <img src='stimuli/faces/NCF8.jpg', style='max-width: 30%;'> </img> <p><strong>你是否选择发射武器？</strong></p>","0",""
"","","","","","html-keyboard-response","82","263409","0.0-4.0-0.39","159","1","2022-10-09 01:55:57","d60b49b5908c80e163b920d72b52d584","59.172.176.30","Mozilla/5.0 (Windows NT 6.1; WOW64) AppleWebKit/537.36 (KHTML, like Gecko) Chrome/81.0.4044.138 Safari/537.36 NetType/WIFI MicroMessenger/7.0.20.1781(0x6700143B) WindowsWechat(0x6307062c)","WebKit","Chrome","81.0.4044.138","Windows","6.1","null","<div style=""font-size:60px;"">+</div>","null",""
"","","","","","html-button-response","83","265141","0.0-4.0-1.39","159","1","2022-10-09 01:55:57","d60b49b5908c80e163b920d72b52d584","59.172.176.30","Mozilla/5.0 (Windows NT 6.1; WOW64) AppleWebKit/537.36 (KHTML, like Gecko) Chrome/81.0.4044.138 Safari/537.36 NetType/WIFI MicroMessenger/7.0.20.1781(0x6700143B) WindowsWechat(0x6307062c)","WebKit","Chrome","81.0.4044.138","Windows","6.1","1726","<p>作为军队的指挥官，你可以选择发射导弹杀死 <strong>4名</strong> 敌国士兵，但会炸毁附近的 <strong>1棵</strong> 敌国树木。</p> <p>树木的照片如下图所示。</p> <p></p> <img src='stimuli/trees/14.png', style='max-width: 30%;'> </img> <p><strong>你是否选择发射武器？</strong></p>","0",""
"","","","","","html-keyboard-response","84","266146","0.0-4.0-0.40","159","1","2022-10-09 01:55:57","d60b49b5908c80e163b920d72b52d584","59.172.176.30","Mozilla/5.0 (Windows NT 6.1; WOW64) AppleWebKit/537.36 (KHTML, like Gecko) Chrome/81.0.4044.138 Safari/537.36 NetType/WIFI MicroMessenger/7.0.20.1781(0x6700143B) WindowsWechat(0x6307062c)","WebKit","Chrome","81.0.4044.138","Windows","6.1","null","<div style=""font-size:60px;"">+</div>","null",""
"","","","","","html-button-response","85","269684","0.0-4.0-1.40","159","1","2022-10-09 01:55:57","d60b49b5908c80e163b920d72b52d584","59.172.176.30","Mozilla/5.0 (Windows NT 6.1; WOW64) AppleWebKit/537.36 (KHTML, like Gecko) Chrome/81.0.4044.138 Safari/537.36 NetType/WIFI MicroMessenger/7.0.20.1781(0x6700143B) WindowsWechat(0x6307062c)","WebKit","Chrome","81.0.4044.138","Windows","6.1","3530","<p>作为军队的指挥官，你可以选择发射导弹杀死 <strong>2名</strong> 敌国士兵，但会误杀附近的 <strong>1名</strong> 敌国平民。</p> <p>平民照片如下图所示。</p> <p></p> <img src='stimuli/faces/NCF1.jpg', style='max-width: 30%;'> </img> <p><strong>你是否选择发射武器？</strong></p>","1",""
"","","","","","html-keyboard-response","86","270689","0.0-4.0-0.41","159","1","2022-10-09 01:55:57","d60b49b5908c80e163b920d72b52d584","59.172.176.30","Mozilla/5.0 (Windows NT 6.1; WOW64) AppleWebKit/537.36 (KHTML, like Gecko) Chrome/81.0.4044.138 Safari/537.36 NetType/WIFI MicroMessenger/7.0.20.1781(0x6700143B) WindowsWechat(0x6307062c)","WebKit","Chrome","81.0.4044.138","Windows","6.1","null","<div style=""font-size:60px;"">+</div>","null",""
"","","","","","html-button-response","87","271943","0.0-4.0-1.41","159","1","2022-10-09 01:55:57","d60b49b5908c80e163b920d72b52d584","59.172.176.30","Mozilla/5.0 (Windows NT 6.1; WOW64) AppleWebKit/537.36 (KHTML, like Gecko) Chrome/81.0.4044.138 Safari/537.36 NetType/WIFI MicroMessenger/7.0.20.1781(0x6700143B) WindowsWechat(0x6307062c)","WebKit","Chrome","81.0.4044.138","Windows","6.1","1248","<p>作为军队的指挥官，你可以选择发射导弹杀死 <strong>3名</strong> 敌国士兵，但会炸毁附近的 <strong>1棵</strong> 敌国树木。</p> <p>树木的照片如下图所示。</p> <p></p> <img src='stimuli/trees/15.png', style='max-width: 30%;'> </img> <p><strong>你是否选择发射武器？</strong></p>","0",""
"","","","","","html-keyboard-response","88","272947","0.0-4.0-0.42","159","1","2022-10-09 01:55:57","d60b49b5908c80e163b920d72b52d584","59.172.176.30","Mozilla/5.0 (Windows NT 6.1; WOW64) AppleWebKit/537.36 (KHTML, like Gecko) Chrome/81.0.4044.138 Safari/537.36 NetType/WIFI MicroMessenger/7.0.20.1781(0x6700143B) WindowsWechat(0x6307062c)","WebKit","Chrome","81.0.4044.138","Windows","6.1","null","<div style=""font-size:60px;"">+</div>","null",""
"","","","","","html-button-response","89","275479","0.0-4.0-1.42","159","1","2022-10-09 01:55:57","d60b49b5908c80e163b920d72b52d584","59.172.176.30","Mozilla/5.0 (Windows NT 6.1; WOW64) AppleWebKit/537.36 (KHTML, like Gecko) Chrome/81.0.4044.138 Safari/537.36 NetType/WIFI MicroMessenger/7.0.20.1781(0x6700143B) WindowsWechat(0x6307062c)","WebKit","Chrome","81.0.4044.138","Windows","6.1","2525","<p>作为军队的指挥官，你可以选择发射导弹杀死 <strong>6名</strong> 敌国士兵，但会误杀附近的 <strong>1名</strong> 敌国平民。</p> <p>平民照片如下图所示。</p> <p></p> <img src='stimuli/faces/NCM6.jpg', style='max-width: 30%;'> </img> <p><strong>你是否选择发射武器？</strong></p>","0",""
"","","","","","html-keyboard-response","90","276484","0.0-4.0-0.43","159","1","2022-10-09 01:55:57","d60b49b5908c80e163b920d72b52d584","59.172.176.30","Mozilla/5.0 (Windows NT 6.1; WOW64) AppleWebKit/537.36 (KHTML, like Gecko) Chrome/81.0.4044.138 Safari/537.36 NetType/WIFI MicroMessenger/7.0.20.1781(0x6700143B) WindowsWechat(0x6307062c)","WebKit","Chrome","81.0.4044.138","Windows","6.1","null","<div style=""font-size:60px;"">+</div>","null",""
"","","","","","html-button-response","91","282154","0.0-4.0-1.43","159","1","2022-10-09 01:55:57","d60b49b5908c80e163b920d72b52d584","59.172.176.30","Mozilla/5.0 (Windows NT 6.1; WOW64) AppleWebKit/537.36 (KHTML, like Gecko) Chrome/81.0.4044.138 Safari/537.36 NetType/WIFI MicroMessenger/7.0.20.1781(0x6700143B) WindowsWechat(0x6307062c)","WebKit","Chrome","81.0.4044.138","Windows","6.1","5663","<p>作为军队的指挥官，你可以选择发射导弹杀死 <strong>10名</strong> 敌国士兵，但会炸毁附近的 <strong>1棵</strong> 敌国树木。</p> <p>树木的照片如下图所示。</p> <p></p> <img src='stimuli/trees/4.png', style='max-width: 30%;'> </img> <p><strong>你是否选择发射武器？</strong></p>","0",""
"","","","","","html-keyboard-response","92","283161","0.0-4.0-0.44","159","1","2022-10-09 01:55:57","d60b49b5908c80e163b920d72b52d584","59.172.176.30","Mozilla/5.0 (Windows NT 6.1; WOW64) AppleWebKit/537.36 (KHTML, like Gecko) Chrome/81.0.4044.138 Safari/537.36 NetType/WIFI MicroMessenger/7.0.20.1781(0x6700143B) WindowsWechat(0x6307062c)","WebKit","Chrome","81.0.4044.138","Windows","6.1","null","<div style=""font-size:60px;"">+</div>","null",""
"","","","","","html-button-response","93","285066","0.0-4.0-1.44","159","1","2022-10-09 01:55:57","d60b49b5908c80e163b920d72b52d584","59.172.176.30","Mozilla/5.0 (Windows NT 6.1; WOW64) AppleWebKit/537.36 (KHTML, like Gecko) Chrome/81.0.4044.138 Safari/537.36 NetType/WIFI MicroMessenger/7.0.20.1781(0x6700143B) WindowsWechat(0x6307062c)","WebKit","Chrome","81.0.4044.138","Windows","6.1","1898","<p>作为军队的指挥官，你可以选择发射导弹杀死 <strong>7名</strong> 敌国士兵，但会炸毁附近的 <strong>1棵</strong> 敌国树木。</p> <p>树木的照片如下图所示。</p> <p></p> <img src='stimuli/trees/1.png', style='max-width: 30%;'> </img> <p><strong>你是否选择发射武器？</strong></p>","0",""
"","","","","","html-keyboard-response","94","286071","0.0-4.0-0.45","159","1","2022-10-09 01:55:57","d60b49b5908c80e163b920d72b52d584","59.172.176.30","Mozilla/5.0 (Windows NT 6.1; WOW64) AppleWebKit/537.36 (KHTML, like Gecko) Chrome/81.0.4044.138 Safari/537.36 NetType/WIFI MicroMessenger/7.0.20.1781(0x6700143B) WindowsWechat(0x6307062c)","WebKit","Chrome","81.0.4044.138","Windows","6.1","null","<div style=""font-size:60px;"">+</div>","null",""
"","","","","","html-button-response","95","288095","0.0-4.0-1.45","159","1","2022-10-09 01:55:57","d60b49b5908c80e163b920d72b52d584","59.172.176.30","Mozilla/5.0 (Windows NT 6.1; WOW64) AppleWebKit/537.36 (KHTML, like Gecko) Chrome/81.0.4044.138 Safari/537.36 NetType/WIFI MicroMessenger/7.0.20.1781(0x6700143B) WindowsWechat(0x6307062c)","WebKit","Chrome","81.0.4044.138","Windows","6.1","2017","<p>作为军队的指挥官，你可以选择发射导弹杀死 <strong>8名</strong> 敌国士兵，但会误杀附近的 <strong>1名</strong> 敌国平民。</p> <p>平民照片如下图所示。</p> <p></p> <img src='stimuli/faces/NCF3.jpg', style='max-width: 30%;'> </img> <p><strong>你是否选择发射武器？</strong></p>","0",""
"","","","","","html-keyboard-response","96","289103","0.0-4.0-0.46","159","1","2022-10-09 01:55:57","d60b49b5908c80e163b920d72b52d584","59.172.176.30","Mozilla/5.0 (Windows NT 6.1; WOW64) AppleWebKit/537.36 (KHTML, like Gecko) Chrome/81.0.4044.138 Safari/537.36 NetType/WIFI MicroMessenger/7.0.20.1781(0x6700143B) WindowsWechat(0x6307062c)","WebKit","Chrome","81.0.4044.138","Windows","6.1","null","<div style=""font-size:60px;"">+</div>","null",""
"","","","","","html-button-response","97","294547","0.0-4.0-1.46","159","1","2022-10-09 01:55:57","d60b49b5908c80e163b920d72b52d584","59.172.176.30","Mozilla/5.0 (Windows NT 6.1; WOW64) AppleWebKit/537.36 (KHTML, like Gecko) Chrome/81.0.4044.138 Safari/537.36 NetType/WIFI MicroMessenger/7.0.20.1781(0x6700143B) WindowsWechat(0x6307062c)","WebKit","Chrome","81.0.4044.138","Windows","6.1","5437","<p>作为军队的指挥官，你可以选择发射导弹杀死 <strong>7名</strong> 敌国士兵，但会炸毁附近的 <strong>1棵</strong> 敌国树木。</p> <p>树木的照片如下图所示。</p> <p></p> <img src='stimuli/trees/12.png', style='max-width: 30%;'> </img> <p><strong>你是否选择发射武器？</strong></p>","0",""
"","","","","","html-keyboard-response","98","295556","0.0-4.0-0.47","159","1","2022-10-09 01:55:57","d60b49b5908c80e163b920d72b52d584","59.172.176.30","Mozilla/5.0 (Windows NT 6.1; WOW64) AppleWebKit/537.36 (KHTML, like Gecko) Chrome/81.0.4044.138 Safari/537.36 NetType/WIFI MicroMessenger/7.0.20.1781(0x6700143B) WindowsWechat(0x6307062c)","WebKit","Chrome","81.0.4044.138","Windows","6.1","null","<div style=""font-size:60px;"">+</div>","null",""
"","","","","","html-button-response","99","299444","0.0-4.0-1.47","159","1","2022-10-09 01:55:57","d60b49b5908c80e163b920d72b52d584","59.172.176.30","Mozilla/5.0 (Windows NT 6.1; WOW64) AppleWebKit/537.36 (KHTML, like Gecko) Chrome/81.0.4044.138 Safari/537.36 NetType/WIFI MicroMessenger/7.0.20.1781(0x6700143B) WindowsWechat(0x6307062c)","WebKit","Chrome","81.0.4044.138","Windows","6.1","3880","<p>作为军队的指挥官，你可以选择发射导弹杀死 <strong>5名</strong> 敌国士兵，但会误杀附近的 <strong>1名</strong> 敌国平民。</p> <p>平民照片如下图所示。</p> <p></p> <img src='stimuli/faces/NCF7.jpg', style='max-width: 30%;'> </img> <p><strong>你是否选择发射武器？</strong></p>","0",""
"","","","","","html-keyboard-response","100","300448","0.0-4.0-0.48","159","1","2022-10-09 01:55:57","d60b49b5908c80e163b920d72b52d584","59.172.176.30","Mozilla/5.0 (Windows NT 6.1; WOW64) AppleWebKit/537.36 (KHTML, like Gecko) Chrome/81.0.4044.138 Safari/537.36 NetType/WIFI MicroMessenger/7.0.20.1781(0x6700143B) WindowsWechat(0x6307062c)","WebKit","Chrome","81.0.4044.138","Windows","6.1","null","<div style=""font-size:60px;"">+</div>","null",""
"","","","","","html-button-response","101","301485","0.0-4.0-1.48","159","1","2022-10-09 01:55:57","d60b49b5908c80e163b920d72b52d584","59.172.176.30","Mozilla/5.0 (Windows NT 6.1; WOW64) AppleWebKit/537.36 (KHTML, like Gecko) Chrome/81.0.4044.138 Safari/537.36 NetType/WIFI MicroMessenger/7.0.20.1781(0x6700143B) WindowsWechat(0x6307062c)","WebKit","Chrome","81.0.4044.138","Windows","6.1","1029","<p>作为军队的指挥官，你可以选择发射导弹杀死 <strong>9名</strong> 敌国士兵，但会炸毁附近的 <strong>1棵</strong> 敌国树木。</p> <p>树木的照片如下图所示。</p> <p></p> <img src='stimuli/trees/11.png', style='max-width: 30%;'> </img> <p><strong>你是否选择发射武器？</strong></p>","0",""
"","","","","","html-keyboard-response","102","302491","0.0-4.0-0.49","159","1","2022-10-09 01:55:57","d60b49b5908c80e163b920d72b52d584","59.172.176.30","Mozilla/5.0 (Windows NT 6.1; WOW64) AppleWebKit/537.36 (KHTML, like Gecko) Chrome/81.0.4044.138 Safari/537.36 NetType/WIFI MicroMessenger/7.0.20.1781(0x6700143B) WindowsWechat(0x6307062c)","WebKit","Chrome","81.0.4044.138","Windows","6.1","null","<div style=""font-size:60px;"">+</div>","null",""
"","","","","","html-button-response","103","303761","0.0-4.0-1.49","159","1","2022-10-09 01:55:57","d60b49b5908c80e163b920d72b52d584","59.172.176.30","Mozilla/5.0 (Windows NT 6.1; WOW64) AppleWebKit/537.36 (KHTML, like Gecko) Chrome/81.0.4044.138 Safari/537.36 NetType/WIFI MicroMessenger/7.0.20.1781(0x6700143B) WindowsWechat(0x6307062c)","WebKit","Chrome","81.0.4044.138","Windows","6.1","1264","<p>作为军队的指挥官，你可以选择发射导弹杀死 <strong>10名</strong> 敌国士兵，但会炸毁附近的 <strong>1棵</strong> 敌国树木。</p> <p>树木的照片如下图所示。</p> <p></p> <img src='stimuli/trees/10.png', style='max-width: 30%;'> </img> <p><strong>你是否选择发射武器？</strong></p>","0",""
"","","","","","html-keyboard-response","104","304769","0.0-4.0-0.50","159","1","2022-10-09 01:55:57","d60b49b5908c80e163b920d72b52d584","59.172.176.30","Mozilla/5.0 (Windows NT 6.1; WOW64) AppleWebKit/537.36 (KHTML, like Gecko) Chrome/81.0.4044.138 Safari/537.36 NetType/WIFI MicroMessenger/7.0.20.1781(0x6700143B) WindowsWechat(0x6307062c)","WebKit","Chrome","81.0.4044.138","Windows","6.1","null","<div style=""font-size:60px;"">+</div>","null",""
"","","","","","html-button-response","105","305639","0.0-4.0-1.50","159","1","2022-10-09 01:55:57","d60b49b5908c80e163b920d72b52d584","59.172.176.30","Mozilla/5.0 (Windows NT 6.1; WOW64) AppleWebKit/537.36 (KHTML, like Gecko) Chrome/81.0.4044.138 Safari/537.36 NetType/WIFI MicroMessenger/7.0.20.1781(0x6700143B) WindowsWechat(0x6307062c)","WebKit","Chrome","81.0.4044.138","Windows","6.1","863","<p>作为军队的指挥官，你可以选择发射导弹杀死 <strong>10名</strong> 敌国士兵，但会炸毁附近的 <strong>1棵</strong> 敌国树木。</p> <p>树木的照片如下图所示。</p> <p></p> <img src='stimuli/trees/5.png', style='max-width: 30%;'> </img> <p><strong>你是否选择发射武器？</strong></p>","0",""
"","","","","","html-keyboard-response","106","306648","0.0-4.0-0.51","159","1","2022-10-09 01:55:57","d60b49b5908c80e163b920d72b52d584","59.172.176.30","Mozilla/5.0 (Windows NT 6.1; WOW64) AppleWebKit/537.36 (KHTML, like Gecko) Chrome/81.0.4044.138 Safari/537.36 NetType/WIFI MicroMessenger/7.0.20.1781(0x6700143B) WindowsWechat(0x6307062c)","WebKit","Chrome","81.0.4044.138","Windows","6.1","null","<div style=""font-size:60px;"">+</div>","null",""
"","","","","","html-button-response","107","307543","0.0-4.0-1.51","159","1","2022-10-09 01:55:57","d60b49b5908c80e163b920d72b52d584","59.172.176.30","Mozilla/5.0 (Windows NT 6.1; WOW64) AppleWebKit/537.36 (KHTML, like Gecko) Chrome/81.0.4044.138 Safari/537.36 NetType/WIFI MicroMessenger/7.0.20.1781(0x6700143B) WindowsWechat(0x6307062c)","WebKit","Chrome","81.0.4044.138","Windows","6.1","888","<p>作为军队的指挥官，你可以选择发射导弹杀死 <strong>10名</strong> 敌国士兵，但会炸毁附近的 <strong>1棵</strong> 敌国树木。</p> <p>树木的照片如下图所示。</p> <p></p> <img src='stimuli/trees/13.png', style='max-width: 30%;'> </img> <p><strong>你是否选择发射武器？</strong></p>","0",""
"","","","","","html-keyboard-response","108","308552","0.0-4.0-0.52","159","1","2022-10-09 01:55:57","d60b49b5908c80e163b920d72b52d584","59.172.176.30","Mozilla/5.0 (Windows NT 6.1; WOW64) AppleWebKit/537.36 (KHTML, like Gecko) Chrome/81.0.4044.138 Safari/537.36 NetType/WIFI MicroMessenger/7.0.20.1781(0x6700143B) WindowsWechat(0x6307062c)","WebKit","Chrome","81.0.4044.138","Windows","6.1","null","<div style=""font-size:60px;"">+</div>","null",""
"","","","","","html-button-response","109","310335","0.0-4.0-1.52","159","1","2022-10-09 01:55:57","d60b49b5908c80e163b920d72b52d584","59.172.176.30","Mozilla/5.0 (Windows NT 6.1; WOW64) AppleWebKit/537.36 (KHTML, like Gecko) Chrome/81.0.4044.138 Safari/537.36 NetType/WIFI MicroMessenger/7.0.20.1781(0x6700143B) WindowsWechat(0x6307062c)","WebKit","Chrome","81.0.4044.138","Windows","6.1","1773","<p>作为军队的指挥官，你可以选择发射导弹杀死 <strong>4名</strong> 敌国士兵，但会误杀附近的 <strong>1名</strong> 敌国平民。</p> <p>平民照片如下图所示。</p> <p></p> <img src='stimuli/faces/NCM3.jpg', style='max-width: 30%;'> </img> <p><strong>你是否选择发射武器？</strong></p>","0",""
"","","","","","html-keyboard-response","110","311343","0.0-4.0-0.53","159","1","2022-10-09 01:55:57","d60b49b5908c80e163b920d72b52d584","59.172.176.30","Mozilla/5.0 (Windows NT 6.1; WOW64) AppleWebKit/537.36 (KHTML, like Gecko) Chrome/81.0.4044.138 Safari/537.36 NetType/WIFI MicroMessenger/7.0.20.1781(0x6700143B) WindowsWechat(0x6307062c)","WebKit","Chrome","81.0.4044.138","Windows","6.1","null","<div style=""font-size:60px;"">+</div>","null",""
"","","","","","html-button-response","111","312915","0.0-4.0-1.53","159","1","2022-10-09 01:55:57","d60b49b5908c80e163b920d72b52d584","59.172.176.30","Mozilla/5.0 (Windows NT 6.1; WOW64) AppleWebKit/537.36 (KHTML, like Gecko) Chrome/81.0.4044.138 Safari/537.36 NetType/WIFI MicroMessenger/7.0.20.1781(0x6700143B) WindowsWechat(0x6307062c)","WebKit","Chrome","81.0.4044.138","Windows","6.1","1565","<p>作为军队的指挥官，你可以选择发射导弹杀死 <strong>1名</strong> 敌国士兵，但会误杀附近的 <strong>1名</strong> 敌国平民。</p> <p>平民照片如下图所示。</p> <p></p> <img src='stimuli/faces/NCM6.jpg', style='max-width: 30%;'> </img> <p><strong>你是否选择发射武器？</strong></p>","1",""
"","","","","","html-keyboard-response","112","313924","0.0-4.0-0.54","159","1","2022-10-09 01:55:57","d60b49b5908c80e163b920d72b52d584","59.172.176.30","Mozilla/5.0 (Windows NT 6.1; WOW64) AppleWebKit/537.36 (KHTML, like Gecko) Chrome/81.0.4044.138 Safari/537.36 NetType/WIFI MicroMessenger/7.0.20.1781(0x6700143B) WindowsWechat(0x6307062c)","WebKit","Chrome","81.0.4044.138","Windows","6.1","null","<div style=""font-size:60px;"">+</div>","null",""
"","","","","","html-button-response","113","318315","0.0-4.0-1.54","159","1","2022-10-09 01:55:57","d60b49b5908c80e163b920d72b52d584","59.172.176.30","Mozilla/5.0 (Windows NT 6.1; WOW64) AppleWebKit/537.36 (KHTML, like Gecko) Chrome/81.0.4044.138 Safari/537.36 NetType/WIFI MicroMessenger/7.0.20.1781(0x6700143B) WindowsWechat(0x6307062c)","WebKit","Chrome","81.0.4044.138","Windows","6.1","4385","<p>作为军队的指挥官，你可以选择发射导弹杀死 <strong>3名</strong> 敌国士兵，但会误杀附近的 <strong>1名</strong> 敌国平民。</p> <p>平民照片如下图所示。</p> <p></p> <img src='stimuli/faces/NCF5.jpg', style='max-width: 30%;'> </img> <p><strong>你是否选择发射武器？</strong></p>","1",""
"","","","","","html-keyboard-response","114","319324","0.0-4.0-0.55","159","1","2022-10-09 01:55:57","d60b49b5908c80e163b920d72b52d584","59.172.176.30","Mozilla/5.0 (Windows NT 6.1; WOW64) AppleWebKit/537.36 (KHTML, like Gecko) Chrome/81.0.4044.138 Safari/537.36 NetType/WIFI MicroMessenger/7.0.20.1781(0x6700143B) WindowsWechat(0x6307062c)","WebKit","Chrome","81.0.4044.138","Windows","6.1","null","<div style=""font-size:60px;"">+</div>","null",""
"","","","","","html-button-response","115","320699","0.0-4.0-1.55","159","1","2022-10-09 01:55:57","d60b49b5908c80e163b920d72b52d584","59.172.176.30","Mozilla/5.0 (Windows NT 6.1; WOW64) AppleWebKit/537.36 (KHTML, like Gecko) Chrome/81.0.4044.138 Safari/537.36 NetType/WIFI MicroMessenger/7.0.20.1781(0x6700143B) WindowsWechat(0x6307062c)","WebKit","Chrome","81.0.4044.138","Windows","6.1","1367","<p>作为军队的指挥官，你可以选择发射导弹杀死 <strong>8名</strong> 敌国士兵，但会误杀附近的 <strong>1名</strong> 敌国平民。</p> <p>平民照片如下图所示。</p> <p></p> <img src='stimuli/faces/NCM8.jpg', style='max-width: 30%;'> </img> <p><strong>你是否选择发射武器？</strong></p>","0",""
"","","","","","html-keyboard-response","116","321707","0.0-4.0-0.56","159","1","2022-10-09 01:55:57","d60b49b5908c80e163b920d72b52d584","59.172.176.30","Mozilla/5.0 (Windows NT 6.1; WOW64) AppleWebKit/537.36 (KHTML, like Gecko) Chrome/81.0.4044.138 Safari/537.36 NetType/WIFI MicroMessenger/7.0.20.1781(0x6700143B) WindowsWechat(0x6307062c)","WebKit","Chrome","81.0.4044.138","Windows","6.1","null","<div style=""font-size:60px;"">+</div>","null",""
"","","","","","html-button-response","117","325741","0.0-4.0-1.56","159","1","2022-10-09 01:55:57","d60b49b5908c80e163b920d72b52d584","59.172.176.30","Mozilla/5.0 (Windows NT 6.1; WOW64) AppleWebKit/537.36 (KHTML, like Gecko) Chrome/81.0.4044.138 Safari/537.36 NetType/WIFI MicroMessenger/7.0.20.1781(0x6700143B) WindowsWechat(0x6307062c)","WebKit","Chrome","81.0.4044.138","Windows","6.1","4025","<p>作为军队的指挥官，你可以选择发射导弹杀死 <strong>6名</strong> 敌国士兵，但会炸毁附近的 <strong>1棵</strong> 敌国树木。</p> <p>树木的照片如下图所示。</p> <p></p> <img src='stimuli/trees/16.png', style='max-width: 30%;'> </img> <p><strong>你是否选择发射武器？</strong></p>","0",""
"","","","","","html-keyboard-response","118","326747","0.0-4.0-0.57","159","1","2022-10-09 01:55:57","d60b49b5908c80e163b920d72b52d584","59.172.176.30","Mozilla/5.0 (Windows NT 6.1; WOW64) AppleWebKit/537.36 (KHTML, like Gecko) Chrome/81.0.4044.138 Safari/537.36 NetType/WIFI MicroMessenger/7.0.20.1781(0x6700143B) WindowsWechat(0x6307062c)","WebKit","Chrome","81.0.4044.138","Windows","6.1","null","<div style=""font-size:60px;"">+</div>","null",""
"","","","","","html-button-response","119","328771","0.0-4.0-1.57","159","1","2022-10-09 01:55:57","d60b49b5908c80e163b920d72b52d584","59.172.176.30","Mozilla/5.0 (Windows NT 6.1; WOW64) AppleWebKit/537.36 (KHTML, like Gecko) Chrome/81.0.4044.138 Safari/537.36 NetType/WIFI MicroMessenger/7.0.20.1781(0x6700143B) WindowsWechat(0x6307062c)","WebKit","Chrome","81.0.4044.138","Windows","6.1","2016","<p>作为军队的指挥官，你可以选择发射导弹杀死 <strong>2名</strong> 敌国士兵，但会误杀附近的 <strong>1名</strong> 敌国平民。</p> <p>平民照片如下图所示。</p> <p></p> <img src='stimuli/faces/NCF2.jpg', style='max-width: 30%;'> </img> <p><strong>你是否选择发射武器？</strong></p>","1",""
"","","","","","html-keyboard-response","120","329781","0.0-4.0-0.58","159","1","2022-10-09 01:55:57","d60b49b5908c80e163b920d72b52d584","59.172.176.30","Mozilla/5.0 (Windows NT 6.1; WOW64) AppleWebKit/537.36 (KHTML, like Gecko) Chrome/81.0.4044.138 Safari/537.36 NetType/WIFI MicroMessenger/7.0.20.1781(0x6700143B) WindowsWechat(0x6307062c)","WebKit","Chrome","81.0.4044.138","Windows","6.1","null","<div style=""font-size:60px;"">+</div>","null",""
"","","","","","html-button-response","121","331187","0.0-4.0-1.58","159","1","2022-10-09 01:55:57","d60b49b5908c80e163b920d72b52d584","59.172.176.30","Mozilla/5.0 (Windows NT 6.1; WOW64) AppleWebKit/537.36 (KHTML, like Gecko) Chrome/81.0.4044.138 Safari/537.36 NetType/WIFI MicroMessenger/7.0.20.1781(0x6700143B) WindowsWechat(0x6307062c)","WebKit","Chrome","81.0.4044.138","Windows","6.1","1397","<p>作为军队的指挥官，你可以选择发射导弹杀死 <strong>10名</strong> 敌国士兵，但会误杀附近的 <strong>1名</strong> 敌国平民。</p> <p>平民照片如下图所示。</p> <p></p> <img src='stimuli/faces/NCF5.jpg', style='max-width: 30%;'> </img> <p><strong>你是否选择发射武器？</strong></p>","0",""
"","","","","","html-keyboard-response","122","332194","0.0-4.0-0.59","159","1","2022-10-09 01:55:57","d60b49b5908c80e163b920d72b52d584","59.172.176.30","Mozilla/5.0 (Windows NT 6.1; WOW64) AppleWebKit/537.36 (KHTML, like Gecko) Chrome/81.0.4044.138 Safari/537.36 NetType/WIFI MicroMessenger/7.0.20.1781(0x6700143B) WindowsWechat(0x6307062c)","WebKit","Chrome","81.0.4044.138","Windows","6.1","null","<div style=""font-size:60px;"">+</div>","null",""
"","","","","","html-button-response","123","333049","0.0-4.0-1.59","159","1","2022-10-09 01:55:57","d60b49b5908c80e163b920d72b52d584","59.172.176.30","Mozilla/5.0 (Windows NT 6.1; WOW64) AppleWebKit/537.36 (KHTML, like Gecko) Chrome/81.0.4044.138 Safari/537.36 NetType/WIFI MicroMessenger/7.0.20.1781(0x6700143B) WindowsWechat(0x6307062c)","WebKit","Chrome","81.0.4044.138","Windows","6.1","841","<p>作为军队的指挥官，你可以选择发射导弹杀死 <strong>2名</strong> 敌国士兵，但会炸毁附近的 <strong>1棵</strong> 敌国树木。</p> <p>树木的照片如下图所示。</p> <p></p> <img src='stimuli/trees/1.png', style='max-width: 30%;'> </img> <p><strong>你是否选择发射武器？</strong></p>","0",""
"","","","","","html-keyboard-response","124","334057","0.0-4.0-0.60","159","1","2022-10-09 01:55:57","d60b49b5908c80e163b920d72b52d584","59.172.176.30","Mozilla/5.0 (Windows NT 6.1; WOW64) AppleWebKit/537.36 (KHTML, like Gecko) Chrome/81.0.4044.138 Safari/537.36 NetType/WIFI MicroMessenger/7.0.20.1781(0x6700143B) WindowsWechat(0x6307062c)","WebKit","Chrome","81.0.4044.138","Windows","6.1","null","<div style=""font-size:60px;"">+</div>","null",""
"","","","","","html-button-response","125","337690","0.0-4.0-1.60","159","1","2022-10-09 01:55:57","d60b49b5908c80e163b920d72b52d584","59.172.176.30","Mozilla/5.0 (Windows NT 6.1; WOW64) AppleWebKit/537.36 (KHTML, like Gecko) Chrome/81.0.4044.138 Safari/537.36 NetType/WIFI MicroMessenger/7.0.20.1781(0x6700143B) WindowsWechat(0x6307062c)","WebKit","Chrome","81.0.4044.138","Windows","6.1","3626","<p>作为军队的指挥官，你可以选择发射导弹杀死 <strong>4名</strong> 敌国士兵，但会炸毁附近的 <strong>1棵</strong> 敌国树木。</p> <p>树木的照片如下图所示。</p> <p></p> <img src='stimuli/trees/6.png', style='max-width: 30%;'> </img> <p><strong>你是否选择发射武器？</strong></p>","0",""
"","","","","","html-keyboard-response","126","338696","0.0-4.0-0.61","159","1","2022-10-09 01:55:57","d60b49b5908c80e163b920d72b52d584","59.172.176.30","Mozilla/5.0 (Windows NT 6.1; WOW64) AppleWebKit/537.36 (KHTML, like Gecko) Chrome/81.0.4044.138 Safari/537.36 NetType/WIFI MicroMessenger/7.0.20.1781(0x6700143B) WindowsWechat(0x6307062c)","WebKit","Chrome","81.0.4044.138","Windows","6.1","null","<div style=""font-size:60px;"">+</div>","null",""
"","","","","","html-button-response","127","340118","0.0-4.0-1.61","159","1","2022-10-09 01:55:57","d60b49b5908c80e163b920d72b52d584","59.172.176.30","Mozilla/5.0 (Windows NT 6.1; WOW64) AppleWebKit/537.36 (KHTML, like Gecko) Chrome/81.0.4044.138 Safari/537.36 NetType/WIFI MicroMessenger/7.0.20.1781(0x6700143B) WindowsWechat(0x6307062c)","WebKit","Chrome","81.0.4044.138","Windows","6.1","1417","<p>作为军队的指挥官，你可以选择发射导弹杀死 <strong>5名</strong> 敌国士兵，但会误杀附近的 <strong>1名</strong> 敌国平民。</p> <p>平民照片如下图所示。</p> <p></p> <img src='stimuli/faces/NCM1.jpg', style='max-width: 30%;'> </img> <p><strong>你是否选择发射武器？</strong></p>","0",""
"","","","","","html-keyboard-response","128","341125","0.0-4.0-0.62","159","1","2022-10-09 01:55:57","d60b49b5908c80e163b920d72b52d584","59.172.176.30","Mozilla/5.0 (Windows NT 6.1; WOW64) AppleWebKit/537.36 (KHTML, like Gecko) Chrome/81.0.4044.138 Safari/537.36 NetType/WIFI MicroMessenger/7.0.20.1781(0x6700143B) WindowsWechat(0x6307062c)","WebKit","Chrome","81.0.4044.138","Windows","6.1","null","<div style=""font-size:60px;"">+</div>","null",""
"","","","","","html-button-response","129","341794","0.0-4.0-1.62","159","1","2022-10-09 01:55:57","d60b49b5908c80e163b920d72b52d584","59.172.176.30","Mozilla/5.0 (Windows NT 6.1; WOW64) AppleWebKit/537.36 (KHTML, like Gecko) Chrome/81.0.4044.138 Safari/537.36 NetType/WIFI MicroMessenger/7.0.20.1781(0x6700143B) WindowsWechat(0x6307062c)","WebKit","Chrome","81.0.4044.138","Windows","6.1","664","<p>作为军队的指挥官，你可以选择发射导弹杀死 <strong>5名</strong> 敌国士兵，但会炸毁附近的 <strong>1棵</strong> 敌国树木。</p> <p>树木的照片如下图所示。</p> <p></p> <img src='stimuli/trees/4.png', style='max-width: 30%;'> </img> <p><strong>你是否选择发射武器？</strong></p>","0",""
"","","","","","html-keyboard-response","130","342802","0.0-4.0-0.63","159","1","2022-10-09 01:55:57","d60b49b5908c80e163b920d72b52d584","59.172.176.30","Mozilla/5.0 (Windows NT 6.1; WOW64) AppleWebKit/537.36 (KHTML, like Gecko) Chrome/81.0.4044.138 Safari/537.36 NetType/WIFI MicroMessenger/7.0.20.1781(0x6700143B) WindowsWechat(0x6307062c)","WebKit","Chrome","81.0.4044.138","Windows","6.1","null","<div style=""font-size:60px;"">+</div>","null",""
"","","","","","html-button-response","131","343524","0.0-4.0-1.63","159","1","2022-10-09 01:55:57","d60b49b5908c80e163b920d72b52d584","59.172.176.30","Mozilla/5.0 (Windows NT 6.1; WOW64) AppleWebKit/537.36 (KHTML, like Gecko) Chrome/81.0.4044.138 Safari/537.36 NetType/WIFI MicroMessenger/7.0.20.1781(0x6700143B) WindowsWechat(0x6307062c)","WebKit","Chrome","81.0.4044.138","Windows","6.1","718","<p>作为军队的指挥官，你可以选择发射导弹杀死 <strong>8名</strong> 敌国士兵，但会炸毁附近的 <strong>1棵</strong> 敌国树木。</p> <p>树木的照片如下图所示。</p> <p></p> <img src='stimuli/trees/3.png', style='max-width: 30%;'> </img> <p><strong>你是否选择发射武器？</strong></p>","0",""
"","","","","","survey-multi-choice","132","385686","0.0-5.0","159","1","2022-10-09 01:55:57","d60b49b5908c80e163b920d72b52d584","59.172.176.30","Mozilla/5.0 (Windows NT 6.1; WOW64) AppleWebKit/537.36 (KHTML, like Gecko) Chrome/81.0.4044.138 Safari/537.36 NetType/WIFI MicroMessenger/7.0.20.1781(0x6700143B) WindowsWechat(0x6307062c)","WebKit","Chrome","81.0.4044.138","Windows","6.1","42154","","{""Attention1"":""""}","[0]"
"","","","","","html-button-response","133","392810","0.0-6.0","159","1","2022-10-09 01:55:57","d60b49b5908c80e163b920d72b52d584","59.172.176.30","Mozilla/5.0 (Windows NT 6.1; WOW64) AppleWebKit/537.36 (KHTML, like Gecko) Chrome/81.0.4044.138 Safari/537.36 NetType/WIFI MicroMessenger/7.0.20.1781(0x6700143B) WindowsWechat(0x6307062c)","WebKit","Chrome","81.0.4044.138","Windows","6.1","7111","<p style=""font-size:20px;font-weight:bold;"">恭喜！</p><p>你已经完成了实验的第一部分。</p><p>请休息放松一下，然后进入第二部分。</p><p>这部分大约需要10分钟。</p>","0",""
"","","","","","survey-text","134","442905","0.0-7.0","159","1","2022-10-09 01:55:57","d60b49b5908c80e163b920d72b52d584","59.172.176.30","Mozilla/5.0 (Windows NT 6.1; WOW64) AppleWebKit/537.36 (KHTML, like Gecko) Chrome/81.0.4044.138 Safari/537.36 NetType/WIFI MicroMessenger/7.0.20.1781(0x6700143B) WindowsWechat(0x6307062c)","WebKit","Chrome","81.0.4044.138","Windows","6.1","49071","","{""Age"":""19"",""Nation"":""中国"",""Born"":""河南省郑州市"",""Live"":""河南省郑州市"",""Ethnic"":""汉族"",""Alipay"":""15937155818""}",""
"","","","","","survey-multi-choice","135","466620","0.0-8.0","159","1","2022-10-09 01:55:57","d60b49b5908c80e163b920d72b52d584","59.172.176.30","Mozilla/5.0 (Windows NT 6.1; WOW64) AppleWebKit/537.36 (KHTML, like Gecko) Chrome/81.0.4044.138 Safari/537.36 NetType/WIFI MicroMessenger/7.0.20.1781(0x6700143B) WindowsWechat(0x6307062c)","WebKit","Chrome","81.0.4044.138","Windows","6.1","23709","","{""Gender"":""女"",""Education"":""高中毕业"",""Income"":""￥70,000-￥139,999"",""Children"":""0"",""Race"":""亚洲人""}","[0,1,2,3,4]"
"","","","","","survey-multi-select","136","477061","0.0-9.0","159","1","2022-10-09 01:55:57","d60b49b5908c80e163b920d72b52d584","59.172.176.30","Mozilla/5.0 (Windows NT 6.1; WOW64) AppleWebKit/537.36 (KHTML, like Gecko) Chrome/81.0.4044.138 Safari/537.36 NetType/WIFI MicroMessenger/7.0.20.1781(0x6700143B) WindowsWechat(0x6307062c)","WebKit","Chrome","81.0.4044.138","Windows","6.1","10421","","{""Marriage"":[""其他""],""Religion"":[""无宗教信仰""]}","[0,1]"
"","","","","","survey-multi-choice","137","505657","0.0-10.0","159","1","2022-10-09 01:55:57","d60b49b5908c80e163b920d72b52d584","59.172.176.30","Mozilla/5.0 (Windows NT 6.1; WOW64) AppleWebKit/537.36 (KHTML, like Gecko) Chrome/81.0.4044.138 Safari/537.36 NetType/WIFI MicroMessenger/7.0.20.1781(0x6700143B) WindowsWechat(0x6307062c)","WebKit","Chrome","81.0.4044.138","Windows","6.1","28585","","{""SES"":""4""}","[0]"
"","","","","","html-button-response","138","512434","0.0-11.0","159","1","2022-10-09 01:55:57","d60b49b5908c80e163b920d72b52d584","59.172.176.30","Mozilla/5.0 (Windows NT 6.1; WOW64) AppleWebKit/537.36 (KHTML, like Gecko) Chrome/81.0.4044.138 Safari/537.36 NetType/WIFI MicroMessenger/7.0.20.1781(0x6700143B) WindowsWechat(0x6307062c)","WebKit","Chrome","81.0.4044.138","Windows","6.1","6765","<p><strong>请判断下列陈述在多大程度上可以形容你？</p><p> (1 = ""和我一点都不像"" to 5 = ""非常像我"".)</strong></p>","0",""
"","","","","","survey-likert","139","550667","0.0-12.0","159","1","2022-10-09 01:55:57","d60b49b5908c80e163b920d72b52d584","59.172.176.30","Mozilla/5.0 (Windows NT 6.1; WOW64) AppleWebKit/537.36 (KHTML, like Gecko) Chrome/81.0.4044.138 Safari/537.36 NetType/WIFI MicroMessenger/7.0.20.1781(0x6700143B) WindowsWechat(0x6307062c)","WebKit","Chrome","81.0.4044.138","Windows","6.1","38226","","{""Aggression1"":0,""Aggression2"":0,""Aggression3"":3,""Aggression4"":0,""Aggression5"":2,""Aggression6"":1,""Aggression7"":2,""Aggression8"":1,""Aggression9"":3}","[0,1,2,3,4,5,6,7,8]"
"","","","","","html-button-response","140","552295","0.0-13.0","159","1","2022-10-09 01:55:57","d60b49b5908c80e163b920d72b52d584","59.172.176.30","Mozilla/5.0 (Windows NT 6.1; WOW64) AppleWebKit/537.36 (KHTML, like Gecko) Chrome/81.0.4044.138 Safari/537.36 NetType/WIFI MicroMessenger/7.0.20.1781(0x6700143B) WindowsWechat(0x6307062c)","WebKit","Chrome","81.0.4044.138","Windows","6.1","1617","<p><strong>请判断你在多大程度上同意下列陈述。</strong></p>","0",""
"","","","","","survey-likert","141","649493","0.0-14.0","159","1","2022-10-09 01:55:57","d60b49b5908c80e163b920d72b52d584","59.172.176.30","Mozilla/5.0 (Windows NT 6.1; WOW64) AppleWebKit/537.36 (KHTML, like Gecko) Chrome/81.0.4044.138 Safari/537.36 NetType/WIFI MicroMessenger/7.0.20.1781(0x6700143B) WindowsWechat(0x6307062c)","WebKit","Chrome","81.0.4044.138","Windows","6.1","97186","","{""scale10"":4,""scale6"":4,""scale11"":4,""scale9"":4,""scale23"":3,""scale4"":2,""scale28"":3,""scale25"":3,""scale19"":1,""scale16"":1,""scale18"":1,""scale3"":2,""scale24"":2,""scale2"":3,""scale14"":2,""scale21"":3,""scale15"":1,""scale5"":3,""scale20"":3,""scale17"":4,""scale8"":3,""scale27"":3,""scale22"":4,""scale1"":4,""scale26"":3,""scale12"":1,""scale13"":1,""scale7"":1}","[9,5,10,8,22,3,27,24,18,15,17,2,23,1,13,20,14,4,19,16,7,26,21,0,25,11,12,6]"
"","","","","","html-button-response","142","650921","0.0-15.0","159","1","2022-10-09 01:55:57","d60b49b5908c80e163b920d72b52d584","59.172.176.30","Mozilla/5.0 (Windows NT 6.1; WOW64) AppleWebKit/537.36 (KHTML, like Gecko) Chrome/81.0.4044.138 Safari/537.36 NetType/WIFI MicroMessenger/7.0.20.1781(0x6700143B) WindowsWechat(0x6307062c)","WebKit","Chrome","81.0.4044.138","Windows","6.1","1416","<p><strong>请判断你在多大程度上同意下列陈述。</strong></p>","0",""
"","","","","","survey-likert","143","709310","0.0-16.0","159","1","2022-10-09 01:55:57","d60b49b5908c80e163b920d72b52d584","59.172.176.30","Mozilla/5.0 (Windows NT 6.1; WOW64) AppleWebKit/537.36 (KHTML, like Gecko) Chrome/81.0.4044.138 Safari/537.36 NetType/WIFI MicroMessenger/7.0.20.1781(0x6700143B) WindowsWechat(0x6307062c)","WebKit","Chrome","81.0.4044.138","Windows","6.1","58378","","{""sdo15"":6,""sdo13"":6,""sdo6"":1,""sdo2"":2,""sdo1"":4,""sdo16"":6,""sdo5"":5,""sdo11"":6,""sdo10"":6,""sdo12"":6,""sdo4"":3,""sdo9"":3,""sdo7"":1,""sdo14"":4,""sdo3"":3,""sdo8"":2}","[14,12,5,1,0,15,4,10,9,11,3,8,6,13,2,7]"
"","","","","","html-button-response","144","711181","0.0-17.0","159","1","2022-10-09 01:55:57","d60b49b5908c80e163b920d72b52d584","59.172.176.30","Mozilla/5.0 (Windows NT 6.1; WOW64) AppleWebKit/537.36 (KHTML, like Gecko) Chrome/81.0.4044.138 Safari/537.36 NetType/WIFI MicroMessenger/7.0.20.1781(0x6700143B) WindowsWechat(0x6307062c)","WebKit","Chrome","81.0.4044.138","Windows","6.1","1855","<p><strong>请判断你在多大程度上同意下列陈述。</strong></p>","0",""
"","","","","","survey-likert","145","755180","0.0-18.0","159","1","2022-10-09 01:55:57","d60b49b5908c80e163b920d72b52d584","59.172.176.30","Mozilla/5.0 (Windows NT 6.1; WOW64) AppleWebKit/537.36 (KHTML, like Gecko) Chrome/81.0.4044.138 Safari/537.36 NetType/WIFI MicroMessenger/7.0.20.1781(0x6700143B) WindowsWechat(0x6307062c)","WebKit","Chrome","81.0.4044.138","Windows","6.1","43990","","{""caring1"":3,""liking1"":3,""caring2"":4,""protection1"":1,""liking2"":2,""caring3"":4,""protection2"":2,""liking3"":4,""protection3"":3,""caring4"":4,""liking4"":2,""protection4"":3,""caring5"":4,""liking5"":1,""protection5"":2}","[0,1,2,3,4,5,6,7,8,9,10,11,12,13,14]"
"","","","","","html-button-response","146","757168","0.0-19.0","159","1","2022-10-09 01:55:57","d60b49b5908c80e163b920d72b52d584","59.172.176.30","Mozilla/5.0 (Windows NT 6.1; WOW64) AppleWebKit/537.36 (KHTML, like Gecko) Chrome/81.0.4044.138 Safari/537.36 NetType/WIFI MicroMessenger/7.0.20.1781(0x6700143B) WindowsWechat(0x6307062c)","WebKit","Chrome","81.0.4044.138","Windows","6.1","1976","<p><strong>请判断下列场景中你的内心感受有多柔软。</strong></p>","0",""
"","","","","","survey-likert","147","788516","0.0-20.0","159","1","2022-10-09 01:55:57","d60b49b5908c80e163b920d72b52d584","59.172.176.30","Mozilla/5.0 (Windows NT 6.1; WOW64) AppleWebKit/537.36 (KHTML, like Gecko) Chrome/81.0.4044.138 Safari/537.36 NetType/WIFI MicroMessenger/7.0.20.1781(0x6700143B) WindowsWechat(0x6307062c)","WebKit","Chrome","81.0.4044.138","Windows","6.1","31339","","{""tenderness-positive1"":4,""tenderness-negative1"":3,""tenderness-negative2"":0,""tenderness-positive2"":4,""tenderness-positive3"":4,""tenderness-negative3"":2,""tenderness-positive4"":4,""tendereness-negative4"":2,""tendernness-negative5"":4,""tenderness-positive5"":4}","[0,1,2,3,4,5,6,7,8,9]"
"","","","","","survey-multi-choice","148","808911","0.0-21.0","159","1","2022-10-09 01:55:57","d60b49b5908c80e163b920d72b52d584","59.172.176.30","Mozilla/5.0 (Windows NT 6.1; WOW64) AppleWebKit/537.36 (KHTML, like Gecko) Chrome/81.0.4044.138 Safari/537.36 NetType/WIFI MicroMessenger/7.0.20.1781(0x6700143B) WindowsWechat(0x6307062c)","WebKit","Chrome","81.0.4044.138","Windows","6.1","20382","","{""Attention2"":""其他""}","[0]"
"","","","","","html-button-response","149","810369","0.0-22.0","159","1","2022-10-09 01:55:57","d60b49b5908c80e163b920d72b52d584","59.172.176.30","Mozilla/5.0 (Windows NT 6.1; WOW64) AppleWebKit/537.36 (KHTML, like Gecko) Chrome/81.0.4044.138 Safari/537.36 NetType/WIFI MicroMessenger/7.0.20.1781(0x6700143B) WindowsWechat(0x6307062c)","WebKit","Chrome","81.0.4044.138","Windows","6.1","1446","<p><strong>请判断你在多大程度上同意下列陈述。</strong></p>","0",""
"","","","","","survey-likert","150","878611","0.0-23.0","159","1","2022-10-09 01:55:57","d60b49b5908c80e163b920d72b52d584","59.172.176.30","Mozilla/5.0 (Windows NT 6.1; WOW64) AppleWebKit/537.36 (KHTML, like Gecko) Chrome/81.0.4044.138 Safari/537.36 NetType/WIFI MicroMessenger/7.0.20.1781(0x6700143B) WindowsWechat(0x6307062c)","WebKit","Chrome","81.0.4044.138","Windows","6.1","68231","","{""Nation6"":4,""Patri8"":4,""Nation8"":1,""Patri10"":0,""Patri2"":4,""Nation4"":0,""Nation3"":3,""Patri3"":4,""Patri7"":4,""Nation7"":4,""Patri11"":0,""Nation5"":1,""Nation1"":2,""Patri6"":1,""Nation2"":4,""Patri9"":1,""Patri4"":4,""Patri1"":4,""Patri5"":4,""Patri12"":0}","[17,7,19,9,1,15,14,2,6,18,10,16,12,5,13,8,3,0,4,11]"
"","","","","","html-button-response","151","880246","0.0-24.0","159","1","2022-10-09 01:55:57","d60b49b5908c80e163b920d72b52d584","59.172.176.30","Mozilla/5.0 (Windows NT 6.1; WOW64) AppleWebKit/537.36 (KHTML, like Gecko) Chrome/81.0.4044.138 Safari/537.36 NetType/WIFI MicroMessenger/7.0.20.1781(0x6700143B) WindowsWechat(0x6307062c)","WebKit","Chrome","81.0.4044.138","Windows","6.1","1623","<p><strong>请判断你在多大程度上同意下列陈述。</strong></p>","0",""
"","","","","","survey-likert","152","928831","0.0-25.0","159","1","2022-10-09 01:55:57","d60b49b5908c80e163b920d72b52d584","59.172.176.30","Mozilla/5.0 (Windows NT 6.1; WOW64) AppleWebKit/537.36 (KHTML, like Gecko) Chrome/81.0.4044.138 Safari/537.36 NetType/WIFI MicroMessenger/7.0.20.1781(0x6700143B) WindowsWechat(0x6307062c)","WebKit","Chrome","81.0.4044.138","Windows","6.1","48571","","{""hc2"":8,""hc1"":8,""vi1"":8,""vc4"":8,""hc3"":8,""hi1"":6,""vc2"":8,""hi3"":1,""hi2"":5,""vi4"":5,""vi3"":8,""hc4"":8,""Robot"":6,""vc1"":8,""vc3"":8,""vi2"":6,""hi4"":8}","[10,9,4,16,11,0,14,2,1,8,6,12,7,13,15,5,3]"
"","","","","","survey-text","153","934908","0.0-26.0","159","1","2022-10-09 01:55:57","d60b49b5908c80e163b920d72b52d584","59.172.176.30","Mozilla/5.0 (Windows NT 6.1; WOW64) AppleWebKit/537.36 (KHTML, like Gecko) Chrome/81.0.4044.138 Safari/537.36 NetType/WIFI MicroMessenger/7.0.20.1781(0x6700143B) WindowsWechat(0x6307062c)","WebKit","Chrome","81.0.4044.138","Windows","6.1","6010","","{""Comments"":""无""}",""
"","","","","","html-button-response","154","937298","0.0-27.0","159","1","2022-10-09 01:55:57","d60b49b5908c80e163b920d72b52d584","59.172.176.30","Mozilla/5.0 (Windows NT 6.1; WOW64) AppleWebKit/537.36 (KHTML, like Gecko) Chrome/81.0.4044.138 Safari/537.36 NetType/WIFI MicroMessenger/7.0.20.1781(0x6700143B) WindowsWechat(0x6307062c)","WebKit","Chrome","81.0.4044.138","Windows","6.1","2384","<strong><p>恭喜你完成了实验！</p><p>感谢您的参与。</p></strong>","0",""
