"success","timeout","failed_images","failed_audio","failed_video","trial_type","trial_index","time_elapsed","internal_node_id","run_id","condition","recorded_at","source_code_version","ip","user_agent","device","browser","browser_version","platform","platform_version","rt","stimulus","response","question_order"
"true","false","[]","[]","[]","preload","0","3685","0.0-0.0","167","1","2022-10-09 13:59:46","d60b49b5908c80e163b920d72b52d584","117.21.5.38","Mozilla/5.0 (Windows NT 10.0; Win64; x64; rv:105.0) Gecko/20100101 Firefox/105.0","","Firefox","105.0","Windows","10.0","","","",""
"true","","","","","fullscreen","1","20733","0.0-1.0","167","1","2022-10-09 13:59:46","d60b49b5908c80e163b920d72b52d584","117.21.5.38","Mozilla/5.0 (Windows NT 10.0; Win64; x64; rv:105.0) Gecko/20100101 Firefox/105.0","","Firefox","105.0","Windows","10.0","","","",""
"","","","","","html-button-response","2","69563","0.0-2.0","167","1","2022-10-09 13:59:46","d60b49b5908c80e163b920d72b52d584","117.21.5.38","Mozilla/5.0 (Windows NT 10.0; Win64; x64; rv:105.0) Gecko/20100101 Firefox/105.0","","Firefox","105.0","Windows","10.0","48825","<p style=""font-size:20px;font-weight:bold;"">实验知情同意书</p><p style=""text-align:left;""><strong>实验名称：</strong>社会冲突研究</p><p style=""text-align:left;""><strong>主要研究者：</strong>韩晓春副教授（北京师范大学心理学部）</p><p style=""text-align:left;""><strong>联系方式：</strong>发送邮件至xiaochun.han@bnu.edu.cn</p><p style=""text-align:left;""><strong>研究目的：</strong>研究旨在了解人类面对群体冲突时的决策方式，以及相关的心理学特质。实验调查大约需要20分钟。</p><p style=""text-align:left;""><strong>实验流程：</strong>实验包含两部分。第一部分呈现一系列群体冲突场景，请你决定如何对这些冲突进行反应，大约需要10分钟完成。第二部分包含一系列人口统计学信息收集和心理学问卷，大约需要10分钟完成。</p><p style=""text-align:left;""><strong>参加及退出规则：</strong>参加本实验完全取决于您的个人意愿。在参与过程中，您可以随时退出，并且不用承担任何后果。</p><p style=""text-align:left;""><strong>隐私：</strong>本实验完全匿名进行，不会收集您的姓名或其他能够识别您身份的信息。实验中收集的作答仅用作科学研究使用，可能会在学术期刊/书籍上发表，或者用于教学，您的数据未来可能会和其他研究者或实验室分享，但您的个人身份不会被识别。</p><p style=""text-align:left;""><strong>实验报酬：</strong>实验完成后，您将获得15元人民币报酬，以感谢您的时间和努力。调查问卷中包含几道题目用以测验您作答时的认真度。只有完成全部实验，并且正确回答认真度测验的被试才能获得实验报酬。实验报酬将通过支付宝转账发放。</p><p style=""text-align:left;font-size:20px;""><strong>如果您同意以上实验知情同意书的内容，请点击'同意并且开始实验'按钮；否则请关闭浏览器界面，退出实验。</strong></p>","0",""
"","","","","","html-button-response","3","101861","0.0-3.0","167","1","2022-10-09 13:59:46","d60b49b5908c80e163b920d72b52d584","117.21.5.38","Mozilla/5.0 (Windows NT 10.0; Win64; x64; rv:105.0) Gecko/20100101 Firefox/105.0","","Firefox","105.0","Windows","10.0","32294","<p ><strong>实验任务一：</strong></p><p>请想象你的国家与另一个国家发生了军事冲突。</p><p>你是国家军队的指挥官，你将如何在冲突中进行决策。</p><p>具体来说，作为军队指挥官，请你决定是否发射导弹进行打击。</p><p>接下来，你会面对一系列场景，请仔细阅读每个场景，然后进行决策。</p><p>这部分实验任务大约需要10分钟。</p><p><strong>实验过程中，请集中注意力。</strong></p>","0",""
"","","","","","html-keyboard-response","4","102873","0.0-4.0-0.0","167","1","2022-10-09 13:59:46","d60b49b5908c80e163b920d72b52d584","117.21.5.38","Mozilla/5.0 (Windows NT 10.0; Win64; x64; rv:105.0) Gecko/20100101 Firefox/105.0","","Firefox","105.0","Windows","10.0","null","<div style=""font-size:60px;"">+</div>","null",""
"","","","","","html-button-response","5","133738","0.0-4.0-1.0","167","1","2022-10-09 13:59:46","d60b49b5908c80e163b920d72b52d584","117.21.5.38","Mozilla/5.0 (Windows NT 10.0; Win64; x64; rv:105.0) Gecko/20100101 Firefox/105.0","","Firefox","105.0","Windows","10.0","30862","<p>作为军队的指挥官，你可以选择发射导弹杀死 <strong>4名</strong> 敌国士兵，但会炸毁附近的 <strong>1棵</strong> 敌国树木。</p> <p>树木的照片如下图所示。</p> <p></p> <img src='stimuli/trees/8.png', style='max-width: 30%;'> </img> <p><strong>你是否选择发射武器？</strong></p>","1",""
"","","","","","html-keyboard-response","6","134749","0.0-4.0-0.1","167","1","2022-10-09 13:59:46","d60b49b5908c80e163b920d72b52d584","117.21.5.38","Mozilla/5.0 (Windows NT 10.0; Win64; x64; rv:105.0) Gecko/20100101 Firefox/105.0","","Firefox","105.0","Windows","10.0","null","<div style=""font-size:60px;"">+</div>","null",""
"","","","","","html-button-response","7","140474","0.0-4.0-1.1","167","1","2022-10-09 13:59:46","d60b49b5908c80e163b920d72b52d584","117.21.5.38","Mozilla/5.0 (Windows NT 10.0; Win64; x64; rv:105.0) Gecko/20100101 Firefox/105.0","","Firefox","105.0","Windows","10.0","5722","<p>作为军队的指挥官，你可以选择发射导弹杀死 <strong>6名</strong> 敌国士兵，但会误杀附近的 <strong>1名</strong> 敌国平民。</p> <p>平民照片如下图所示。</p> <p></p> <img src='stimuli/faces/NCF7.jpg', style='max-width: 30%;'> </img> <p><strong>你是否选择发射武器？</strong></p>","1",""
"","","","","","html-keyboard-response","8","141488","0.0-4.0-0.2","167","1","2022-10-09 13:59:46","d60b49b5908c80e163b920d72b52d584","117.21.5.38","Mozilla/5.0 (Windows NT 10.0; Win64; x64; rv:105.0) Gecko/20100101 Firefox/105.0","","Firefox","105.0","Windows","10.0","null","<div style=""font-size:60px;"">+</div>","null",""
"","","","","","html-button-response","9","207668","0.0-4.0-1.2","167","1","2022-10-09 13:59:46","d60b49b5908c80e163b920d72b52d584","117.21.5.38","Mozilla/5.0 (Windows NT 10.0; Win64; x64; rv:105.0) Gecko/20100101 Firefox/105.0","","Firefox","105.0","Windows","10.0","66177","<p>作为军队的指挥官，你可以选择发射导弹杀死 <strong>8名</strong> 敌国士兵，但会炸毁附近的 <strong>1棵</strong> 敌国树木。</p> <p>树木的照片如下图所示。</p> <p></p> <img src='stimuli/trees/12.png', style='max-width: 30%;'> </img> <p><strong>你是否选择发射武器？</strong></p>","0",""
"","","","","","html-keyboard-response","10","208684","0.0-4.0-0.3","167","1","2022-10-09 13:59:46","d60b49b5908c80e163b920d72b52d584","117.21.5.38","Mozilla/5.0 (Windows NT 10.0; Win64; x64; rv:105.0) Gecko/20100101 Firefox/105.0","","Firefox","105.0","Windows","10.0","null","<div style=""font-size:60px;"">+</div>","null",""
"","","","","","html-button-response","11","213676","0.0-4.0-1.3","167","1","2022-10-09 13:59:46","d60b49b5908c80e163b920d72b52d584","117.21.5.38","Mozilla/5.0 (Windows NT 10.0; Win64; x64; rv:105.0) Gecko/20100101 Firefox/105.0","","Firefox","105.0","Windows","10.0","4990","<p>作为军队的指挥官，你可以选择发射导弹杀死 <strong>1名</strong> 敌国士兵，但会炸毁附近的 <strong>1棵</strong> 敌国树木。</p> <p>树木的照片如下图所示。</p> <p></p> <img src='stimuli/trees/6.png', style='max-width: 30%;'> </img> <p><strong>你是否选择发射武器？</strong></p>","1",""
"","","","","","html-keyboard-response","12","214689","0.0-4.0-0.4","167","1","2022-10-09 13:59:46","d60b49b5908c80e163b920d72b52d584","117.21.5.38","Mozilla/5.0 (Windows NT 10.0; Win64; x64; rv:105.0) Gecko/20100101 Firefox/105.0","","Firefox","105.0","Windows","10.0","null","<div style=""font-size:60px;"">+</div>","null",""
"","","","","","html-button-response","13","264729","0.0-4.0-1.4","167","1","2022-10-09 13:59:46","d60b49b5908c80e163b920d72b52d584","117.21.5.38","Mozilla/5.0 (Windows NT 10.0; Win64; x64; rv:105.0) Gecko/20100101 Firefox/105.0","","Firefox","105.0","Windows","10.0","50037","<p>作为军队的指挥官，你可以选择发射导弹杀死 <strong>10名</strong> 敌国士兵，但会炸毁附近的 <strong>1棵</strong> 敌国树木。</p> <p>树木的照片如下图所示。</p> <p></p> <img src='stimuli/trees/2.png', style='max-width: 30%;'> </img> <p><strong>你是否选择发射武器？</strong></p>","0",""
"","","","","","html-keyboard-response","14","265742","0.0-4.0-0.5","167","1","2022-10-09 13:59:46","d60b49b5908c80e163b920d72b52d584","117.21.5.38","Mozilla/5.0 (Windows NT 10.0; Win64; x64; rv:105.0) Gecko/20100101 Firefox/105.0","","Firefox","105.0","Windows","10.0","null","<div style=""font-size:60px;"">+</div>","null",""
"","","","","","html-button-response","15","270474","0.0-4.0-1.5","167","1","2022-10-09 13:59:46","d60b49b5908c80e163b920d72b52d584","117.21.5.38","Mozilla/5.0 (Windows NT 10.0; Win64; x64; rv:105.0) Gecko/20100101 Firefox/105.0","","Firefox","105.0","Windows","10.0","4728","<p>作为军队的指挥官，你可以选择发射导弹杀死 <strong>3名</strong> 敌国士兵，但会误杀附近的 <strong>1名</strong> 敌国平民。</p> <p>平民照片如下图所示。</p> <p></p> <img src='stimuli/faces/NCF3.jpg', style='max-width: 30%;'> </img> <p><strong>你是否选择发射武器？</strong></p>","1",""
"","","","","","html-keyboard-response","16","271486","0.0-4.0-0.6","167","1","2022-10-09 13:59:46","d60b49b5908c80e163b920d72b52d584","117.21.5.38","Mozilla/5.0 (Windows NT 10.0; Win64; x64; rv:105.0) Gecko/20100101 Firefox/105.0","","Firefox","105.0","Windows","10.0","null","<div style=""font-size:60px;"">+</div>","null",""
"","","","","","html-button-response","17","274164","0.0-4.0-1.6","167","1","2022-10-09 13:59:46","d60b49b5908c80e163b920d72b52d584","117.21.5.38","Mozilla/5.0 (Windows NT 10.0; Win64; x64; rv:105.0) Gecko/20100101 Firefox/105.0","","Firefox","105.0","Windows","10.0","2676","<p>作为军队的指挥官，你可以选择发射导弹杀死 <strong>1名</strong> 敌国士兵，但会误杀附近的 <strong>1名</strong> 敌国平民。</p> <p>平民照片如下图所示。</p> <p></p> <img src='stimuli/faces/NCF8.jpg', style='max-width: 30%;'> </img> <p><strong>你是否选择发射武器？</strong></p>","1",""
"","","","","","html-keyboard-response","18","275175","0.0-4.0-0.7","167","1","2022-10-09 13:59:46","d60b49b5908c80e163b920d72b52d584","117.21.5.38","Mozilla/5.0 (Windows NT 10.0; Win64; x64; rv:105.0) Gecko/20100101 Firefox/105.0","","Firefox","105.0","Windows","10.0","null","<div style=""font-size:60px;"">+</div>","null",""
"","","","","","html-button-response","19","278985","0.0-4.0-1.7","167","1","2022-10-09 13:59:46","d60b49b5908c80e163b920d72b52d584","117.21.5.38","Mozilla/5.0 (Windows NT 10.0; Win64; x64; rv:105.0) Gecko/20100101 Firefox/105.0","","Firefox","105.0","Windows","10.0","3810","<p>作为军队的指挥官，你可以选择发射导弹杀死 <strong>4名</strong> 敌国士兵，但会炸毁附近的 <strong>1棵</strong> 敌国树木。</p> <p>树木的照片如下图所示。</p> <p></p> <img src='stimuli/trees/3.png', style='max-width: 30%;'> </img> <p><strong>你是否选择发射武器？</strong></p>","1",""
"","","","","","html-keyboard-response","20","279994","0.0-4.0-0.8","167","1","2022-10-09 13:59:46","d60b49b5908c80e163b920d72b52d584","117.21.5.38","Mozilla/5.0 (Windows NT 10.0; Win64; x64; rv:105.0) Gecko/20100101 Firefox/105.0","","Firefox","105.0","Windows","10.0","null","<div style=""font-size:60px;"">+</div>","null",""
"","","","","","html-button-response","21","282760","0.0-4.0-1.8","167","1","2022-10-09 13:59:46","d60b49b5908c80e163b920d72b52d584","117.21.5.38","Mozilla/5.0 (Windows NT 10.0; Win64; x64; rv:105.0) Gecko/20100101 Firefox/105.0","","Firefox","105.0","Windows","10.0","2763","<p>作为军队的指挥官，你可以选择发射导弹杀死 <strong>1名</strong> 敌国士兵，但会误杀附近的 <strong>1名</strong> 敌国平民。</p> <p>平民照片如下图所示。</p> <p></p> <img src='stimuli/faces/NCF7.jpg', style='max-width: 30%;'> </img> <p><strong>你是否选择发射武器？</strong></p>","1",""
"","","","","","html-keyboard-response","22","283767","0.0-4.0-0.9","167","1","2022-10-09 13:59:46","d60b49b5908c80e163b920d72b52d584","117.21.5.38","Mozilla/5.0 (Windows NT 10.0; Win64; x64; rv:105.0) Gecko/20100101 Firefox/105.0","","Firefox","105.0","Windows","10.0","null","<div style=""font-size:60px;"">+</div>","null",""
"","","","","","html-button-response","23","297796","0.0-4.0-1.9","167","1","2022-10-09 13:59:46","d60b49b5908c80e163b920d72b52d584","117.21.5.38","Mozilla/5.0 (Windows NT 10.0; Win64; x64; rv:105.0) Gecko/20100101 Firefox/105.0","","Firefox","105.0","Windows","10.0","14026","<p>作为军队的指挥官，你可以选择发射导弹杀死 <strong>9名</strong> 敌国士兵，但会炸毁附近的 <strong>1棵</strong> 敌国树木。</p> <p>树木的照片如下图所示。</p> <p></p> <img src='stimuli/trees/7.png', style='max-width: 30%;'> </img> <p><strong>你是否选择发射武器？</strong></p>","0",""
"","","","","","html-keyboard-response","24","298800","0.0-4.0-0.10","167","1","2022-10-09 13:59:46","d60b49b5908c80e163b920d72b52d584","117.21.5.38","Mozilla/5.0 (Windows NT 10.0; Win64; x64; rv:105.0) Gecko/20100101 Firefox/105.0","","Firefox","105.0","Windows","10.0","null","<div style=""font-size:60px;"">+</div>","null",""
"","","","","","html-button-response","25","304092","0.0-4.0-1.10","167","1","2022-10-09 13:59:46","d60b49b5908c80e163b920d72b52d584","117.21.5.38","Mozilla/5.0 (Windows NT 10.0; Win64; x64; rv:105.0) Gecko/20100101 Firefox/105.0","","Firefox","105.0","Windows","10.0","5289","<p>作为军队的指挥官，你可以选择发射导弹杀死 <strong>7名</strong> 敌国士兵，但会炸毁附近的 <strong>1棵</strong> 敌国树木。</p> <p>树木的照片如下图所示。</p> <p></p> <img src='stimuli/trees/5.png', style='max-width: 30%;'> </img> <p><strong>你是否选择发射武器？</strong></p>","0",""
"","","","","","html-keyboard-response","26","305100","0.0-4.0-0.11","167","1","2022-10-09 13:59:46","d60b49b5908c80e163b920d72b52d584","117.21.5.38","Mozilla/5.0 (Windows NT 10.0; Win64; x64; rv:105.0) Gecko/20100101 Firefox/105.0","","Firefox","105.0","Windows","10.0","null","<div style=""font-size:60px;"">+</div>","null",""
"","","","","","html-button-response","27","308293","0.0-4.0-1.11","167","1","2022-10-09 13:59:46","d60b49b5908c80e163b920d72b52d584","117.21.5.38","Mozilla/5.0 (Windows NT 10.0; Win64; x64; rv:105.0) Gecko/20100101 Firefox/105.0","","Firefox","105.0","Windows","10.0","3191","<p>作为军队的指挥官，你可以选择发射导弹杀死 <strong>8名</strong> 敌国士兵，但会误杀附近的 <strong>1名</strong> 敌国平民。</p> <p>平民照片如下图所示。</p> <p></p> <img src='stimuli/faces/NCF1.jpg', style='max-width: 30%;'> </img> <p><strong>你是否选择发射武器？</strong></p>","1",""
"","","","","","html-keyboard-response","28","309311","0.0-4.0-0.12","167","1","2022-10-09 13:59:46","d60b49b5908c80e163b920d72b52d584","117.21.5.38","Mozilla/5.0 (Windows NT 10.0; Win64; x64; rv:105.0) Gecko/20100101 Firefox/105.0","","Firefox","105.0","Windows","10.0","null","<div style=""font-size:60px;"">+</div>","null",""
"","","","","","html-button-response","29","321752","0.0-4.0-1.12","167","1","2022-10-09 13:59:46","d60b49b5908c80e163b920d72b52d584","117.21.5.38","Mozilla/5.0 (Windows NT 10.0; Win64; x64; rv:105.0) Gecko/20100101 Firefox/105.0","","Firefox","105.0","Windows","10.0","12438","<p>作为军队的指挥官，你可以选择发射导弹杀死 <strong>3名</strong> 敌国士兵，但会误杀附近的 <strong>1名</strong> 敌国平民。</p> <p>平民照片如下图所示。</p> <p></p> <img src='stimuli/faces/NCF1.jpg', style='max-width: 30%;'> </img> <p><strong>你是否选择发射武器？</strong></p>","1",""
"","","","","","html-keyboard-response","30","322765","0.0-4.0-0.13","167","1","2022-10-09 13:59:46","d60b49b5908c80e163b920d72b52d584","117.21.5.38","Mozilla/5.0 (Windows NT 10.0; Win64; x64; rv:105.0) Gecko/20100101 Firefox/105.0","","Firefox","105.0","Windows","10.0","null","<div style=""font-size:60px;"">+</div>","null",""
"","","","","","html-button-response","31","327630","0.0-4.0-1.13","167","1","2022-10-09 13:59:46","d60b49b5908c80e163b920d72b52d584","117.21.5.38","Mozilla/5.0 (Windows NT 10.0; Win64; x64; rv:105.0) Gecko/20100101 Firefox/105.0","","Firefox","105.0","Windows","10.0","4861","<p>作为军队的指挥官，你可以选择发射导弹杀死 <strong>10名</strong> 敌国士兵，但会误杀附近的 <strong>1名</strong> 敌国平民。</p> <p>平民照片如下图所示。</p> <p></p> <img src='stimuli/faces/NCF4.jpg', style='max-width: 30%;'> </img> <p><strong>你是否选择发射武器？</strong></p>","1",""
"","","","","","html-keyboard-response","32","328637","0.0-4.0-0.14","167","1","2022-10-09 13:59:46","d60b49b5908c80e163b920d72b52d584","117.21.5.38","Mozilla/5.0 (Windows NT 10.0; Win64; x64; rv:105.0) Gecko/20100101 Firefox/105.0","","Firefox","105.0","Windows","10.0","null","<div style=""font-size:60px;"">+</div>","null",""
"","","","","","html-button-response","33","335280","0.0-4.0-1.14","167","1","2022-10-09 13:59:46","d60b49b5908c80e163b920d72b52d584","117.21.5.38","Mozilla/5.0 (Windows NT 10.0; Win64; x64; rv:105.0) Gecko/20100101 Firefox/105.0","","Firefox","105.0","Windows","10.0","6640","<p>作为军队的指挥官，你可以选择发射导弹杀死 <strong>10名</strong> 敌国士兵，但会炸毁附近的 <strong>1棵</strong> 敌国树木。</p> <p>树木的照片如下图所示。</p> <p></p> <img src='stimuli/trees/1.png', style='max-width: 30%;'> </img> <p><strong>你是否选择发射武器？</strong></p>","0",""
"","","","","","html-keyboard-response","34","336297","0.0-4.0-0.15","167","1","2022-10-09 13:59:46","d60b49b5908c80e163b920d72b52d584","117.21.5.38","Mozilla/5.0 (Windows NT 10.0; Win64; x64; rv:105.0) Gecko/20100101 Firefox/105.0","","Firefox","105.0","Windows","10.0","null","<div style=""font-size:60px;"">+</div>","null",""
"","","","","","html-button-response","35","337990","0.0-4.0-1.15","167","1","2022-10-09 13:59:46","d60b49b5908c80e163b920d72b52d584","117.21.5.38","Mozilla/5.0 (Windows NT 10.0; Win64; x64; rv:105.0) Gecko/20100101 Firefox/105.0","","Firefox","105.0","Windows","10.0","1691","<p>作为军队的指挥官，你可以选择发射导弹杀死 <strong>4名</strong> 敌国士兵，但会误杀附近的 <strong>1名</strong> 敌国平民。</p> <p>平民照片如下图所示。</p> <p></p> <img src='stimuli/faces/NCM7.jpg', style='max-width: 30%;'> </img> <p><strong>你是否选择发射武器？</strong></p>","1",""
"","","","","","html-keyboard-response","36","338992","0.0-4.0-0.16","167","1","2022-10-09 13:59:46","d60b49b5908c80e163b920d72b52d584","117.21.5.38","Mozilla/5.0 (Windows NT 10.0; Win64; x64; rv:105.0) Gecko/20100101 Firefox/105.0","","Firefox","105.0","Windows","10.0","null","<div style=""font-size:60px;"">+</div>","null",""
"","","","","","html-button-response","37","341964","0.0-4.0-1.16","167","1","2022-10-09 13:59:46","d60b49b5908c80e163b920d72b52d584","117.21.5.38","Mozilla/5.0 (Windows NT 10.0; Win64; x64; rv:105.0) Gecko/20100101 Firefox/105.0","","Firefox","105.0","Windows","10.0","2969","<p>作为军队的指挥官，你可以选择发射导弹杀死 <strong>9名</strong> 敌国士兵，但会炸毁附近的 <strong>1棵</strong> 敌国树木。</p> <p>树木的照片如下图所示。</p> <p></p> <img src='stimuli/trees/13.png', style='max-width: 30%;'> </img> <p><strong>你是否选择发射武器？</strong></p>","0",""
"","","","","","html-keyboard-response","38","342972","0.0-4.0-0.17","167","1","2022-10-09 13:59:46","d60b49b5908c80e163b920d72b52d584","117.21.5.38","Mozilla/5.0 (Windows NT 10.0; Win64; x64; rv:105.0) Gecko/20100101 Firefox/105.0","","Firefox","105.0","Windows","10.0","null","<div style=""font-size:60px;"">+</div>","null",""
"","","","","","html-button-response","39","344558","0.0-4.0-1.17","167","1","2022-10-09 13:59:46","d60b49b5908c80e163b920d72b52d584","117.21.5.38","Mozilla/5.0 (Windows NT 10.0; Win64; x64; rv:105.0) Gecko/20100101 Firefox/105.0","","Firefox","105.0","Windows","10.0","1584","<p>作为军队的指挥官，你可以选择发射导弹杀死 <strong>3名</strong> 敌国士兵，但会炸毁附近的 <strong>1棵</strong> 敌国树木。</p> <p>树木的照片如下图所示。</p> <p></p> <img src='stimuli/trees/12.png', style='max-width: 30%;'> </img> <p><strong>你是否选择发射武器？</strong></p>","1",""
"","","","","","html-keyboard-response","40","345572","0.0-4.0-0.18","167","1","2022-10-09 13:59:46","d60b49b5908c80e163b920d72b52d584","117.21.5.38","Mozilla/5.0 (Windows NT 10.0; Win64; x64; rv:105.0) Gecko/20100101 Firefox/105.0","","Firefox","105.0","Windows","10.0","null","<div style=""font-size:60px;"">+</div>","null",""
"","","","","","html-button-response","41","350920","0.0-4.0-1.18","167","1","2022-10-09 13:59:46","d60b49b5908c80e163b920d72b52d584","117.21.5.38","Mozilla/5.0 (Windows NT 10.0; Win64; x64; rv:105.0) Gecko/20100101 Firefox/105.0","","Firefox","105.0","Windows","10.0","5343","<p>作为军队的指挥官，你可以选择发射导弹杀死 <strong>5名</strong> 敌国士兵，但会炸毁附近的 <strong>1棵</strong> 敌国树木。</p> <p>树木的照片如下图所示。</p> <p></p> <img src='stimuli/trees/10.png', style='max-width: 30%;'> </img> <p><strong>你是否选择发射武器？</strong></p>","1",""
"","","","","","html-keyboard-response","42","351931","0.0-4.0-0.19","167","1","2022-10-09 13:59:46","d60b49b5908c80e163b920d72b52d584","117.21.5.38","Mozilla/5.0 (Windows NT 10.0; Win64; x64; rv:105.0) Gecko/20100101 Firefox/105.0","","Firefox","105.0","Windows","10.0","null","<div style=""font-size:60px;"">+</div>","null",""
"","","","","","html-button-response","43","353674","0.0-4.0-1.19","167","1","2022-10-09 13:59:46","d60b49b5908c80e163b920d72b52d584","117.21.5.38","Mozilla/5.0 (Windows NT 10.0; Win64; x64; rv:105.0) Gecko/20100101 Firefox/105.0","","Firefox","105.0","Windows","10.0","1740","<p>作为军队的指挥官，你可以选择发射导弹杀死 <strong>3名</strong> 敌国士兵，但会误杀附近的 <strong>1名</strong> 敌国平民。</p> <p>平民照片如下图所示。</p> <p></p> <img src='stimuli/faces/NCF6.jpg', style='max-width: 30%;'> </img> <p><strong>你是否选择发射武器？</strong></p>","1",""
"","","","","","html-keyboard-response","44","354678","0.0-4.0-0.20","167","1","2022-10-09 13:59:46","d60b49b5908c80e163b920d72b52d584","117.21.5.38","Mozilla/5.0 (Windows NT 10.0; Win64; x64; rv:105.0) Gecko/20100101 Firefox/105.0","","Firefox","105.0","Windows","10.0","null","<div style=""font-size:60px;"">+</div>","null",""
"","","","","","html-button-response","45","357635","0.0-4.0-1.20","167","1","2022-10-09 13:59:46","d60b49b5908c80e163b920d72b52d584","117.21.5.38","Mozilla/5.0 (Windows NT 10.0; Win64; x64; rv:105.0) Gecko/20100101 Firefox/105.0","","Firefox","105.0","Windows","10.0","2953","<p>作为军队的指挥官，你可以选择发射导弹杀死 <strong>10名</strong> 敌国士兵，但会炸毁附近的 <strong>1棵</strong> 敌国树木。</p> <p>树木的照片如下图所示。</p> <p></p> <img src='stimuli/trees/9.png', style='max-width: 30%;'> </img> <p><strong>你是否选择发射武器？</strong></p>","0",""
"","","","","","html-keyboard-response","46","358640","0.0-4.0-0.21","167","1","2022-10-09 13:59:46","d60b49b5908c80e163b920d72b52d584","117.21.5.38","Mozilla/5.0 (Windows NT 10.0; Win64; x64; rv:105.0) Gecko/20100101 Firefox/105.0","","Firefox","105.0","Windows","10.0","null","<div style=""font-size:60px;"">+</div>","null",""
"","","","","","html-button-response","47","361092","0.0-4.0-1.21","167","1","2022-10-09 13:59:46","d60b49b5908c80e163b920d72b52d584","117.21.5.38","Mozilla/5.0 (Windows NT 10.0; Win64; x64; rv:105.0) Gecko/20100101 Firefox/105.0","","Firefox","105.0","Windows","10.0","2450","<p>作为军队的指挥官，你可以选择发射导弹杀死 <strong>1名</strong> 敌国士兵，但会炸毁附近的 <strong>1棵</strong> 敌国树木。</p> <p>树木的照片如下图所示。</p> <p></p> <img src='stimuli/trees/4.png', style='max-width: 30%;'> </img> <p><strong>你是否选择发射武器？</strong></p>","1",""
"","","","","","html-keyboard-response","48","362106","0.0-4.0-0.22","167","1","2022-10-09 13:59:46","d60b49b5908c80e163b920d72b52d584","117.21.5.38","Mozilla/5.0 (Windows NT 10.0; Win64; x64; rv:105.0) Gecko/20100101 Firefox/105.0","","Firefox","105.0","Windows","10.0","null","<div style=""font-size:60px;"">+</div>","null",""
"","","","","","html-button-response","49","363724","0.0-4.0-1.22","167","1","2022-10-09 13:59:46","d60b49b5908c80e163b920d72b52d584","117.21.5.38","Mozilla/5.0 (Windows NT 10.0; Win64; x64; rv:105.0) Gecko/20100101 Firefox/105.0","","Firefox","105.0","Windows","10.0","1616","<p>作为军队的指挥官，你可以选择发射导弹杀死 <strong>1名</strong> 敌国士兵，但会炸毁附近的 <strong>1棵</strong> 敌国树木。</p> <p>树木的照片如下图所示。</p> <p></p> <img src='stimuli/trees/2.png', style='max-width: 30%;'> </img> <p><strong>你是否选择发射武器？</strong></p>","1",""
"","","","","","html-keyboard-response","50","364729","0.0-4.0-0.23","167","1","2022-10-09 13:59:46","d60b49b5908c80e163b920d72b52d584","117.21.5.38","Mozilla/5.0 (Windows NT 10.0; Win64; x64; rv:105.0) Gecko/20100101 Firefox/105.0","","Firefox","105.0","Windows","10.0","null","<div style=""font-size:60px;"">+</div>","null",""
"","","","","","html-button-response","51","366397","0.0-4.0-1.23","167","1","2022-10-09 13:59:46","d60b49b5908c80e163b920d72b52d584","117.21.5.38","Mozilla/5.0 (Windows NT 10.0; Win64; x64; rv:105.0) Gecko/20100101 Firefox/105.0","","Firefox","105.0","Windows","10.0","1665","<p>作为军队的指挥官，你可以选择发射导弹杀死 <strong>10名</strong> 敌国士兵，但会误杀附近的 <strong>1名</strong> 敌国平民。</p> <p>平民照片如下图所示。</p> <p></p> <img src='stimuli/faces/NCM1.jpg', style='max-width: 30%;'> </img> <p><strong>你是否选择发射武器？</strong></p>","1",""
"","","","","","html-keyboard-response","52","367408","0.0-4.0-0.24","167","1","2022-10-09 13:59:46","d60b49b5908c80e163b920d72b52d584","117.21.5.38","Mozilla/5.0 (Windows NT 10.0; Win64; x64; rv:105.0) Gecko/20100101 Firefox/105.0","","Firefox","105.0","Windows","10.0","null","<div style=""font-size:60px;"">+</div>","null",""
"","","","","","html-button-response","53","370798","0.0-4.0-1.24","167","1","2022-10-09 13:59:46","d60b49b5908c80e163b920d72b52d584","117.21.5.38","Mozilla/5.0 (Windows NT 10.0; Win64; x64; rv:105.0) Gecko/20100101 Firefox/105.0","","Firefox","105.0","Windows","10.0","3389","<p>作为军队的指挥官，你可以选择发射导弹杀死 <strong>8名</strong> 敌国士兵，但会炸毁附近的 <strong>1棵</strong> 敌国树木。</p> <p>树木的照片如下图所示。</p> <p></p> <img src='stimuli/trees/10.png', style='max-width: 30%;'> </img> <p><strong>你是否选择发射武器？</strong></p>","0",""
"","","","","","html-keyboard-response","54","371816","0.0-4.0-0.25","167","1","2022-10-09 13:59:46","d60b49b5908c80e163b920d72b52d584","117.21.5.38","Mozilla/5.0 (Windows NT 10.0; Win64; x64; rv:105.0) Gecko/20100101 Firefox/105.0","","Firefox","105.0","Windows","10.0","null","<div style=""font-size:60px;"">+</div>","null",""
"","","","","","html-button-response","55","374544","0.0-4.0-1.25","167","1","2022-10-09 13:59:46","d60b49b5908c80e163b920d72b52d584","117.21.5.38","Mozilla/5.0 (Windows NT 10.0; Win64; x64; rv:105.0) Gecko/20100101 Firefox/105.0","","Firefox","105.0","Windows","10.0","2723","<p>作为军队的指挥官，你可以选择发射导弹杀死 <strong>8名</strong> 敌国士兵，但会炸毁附近的 <strong>1棵</strong> 敌国树木。</p> <p>树木的照片如下图所示。</p> <p></p> <img src='stimuli/trees/4.png', style='max-width: 30%;'> </img> <p><strong>你是否选择发射武器？</strong></p>","0",""
"","","","","","html-keyboard-response","56","375551","0.0-4.0-0.26","167","1","2022-10-09 13:59:46","d60b49b5908c80e163b920d72b52d584","117.21.5.38","Mozilla/5.0 (Windows NT 10.0; Win64; x64; rv:105.0) Gecko/20100101 Firefox/105.0","","Firefox","105.0","Windows","10.0","null","<div style=""font-size:60px;"">+</div>","null",""
"","","","","","html-button-response","57","377316","0.0-4.0-1.26","167","1","2022-10-09 13:59:46","d60b49b5908c80e163b920d72b52d584","117.21.5.38","Mozilla/5.0 (Windows NT 10.0; Win64; x64; rv:105.0) Gecko/20100101 Firefox/105.0","","Firefox","105.0","Windows","10.0","1763","<p>作为军队的指挥官，你可以选择发射导弹杀死 <strong>8名</strong> 敌国士兵，但会误杀附近的 <strong>1名</strong> 敌国平民。</p> <p>平民照片如下图所示。</p> <p></p> <img src='stimuli/faces/NCM2.jpg', style='max-width: 30%;'> </img> <p><strong>你是否选择发射武器？</strong></p>","1",""
"","","","","","html-keyboard-response","58","378327","0.0-4.0-0.27","167","1","2022-10-09 13:59:46","d60b49b5908c80e163b920d72b52d584","117.21.5.38","Mozilla/5.0 (Windows NT 10.0; Win64; x64; rv:105.0) Gecko/20100101 Firefox/105.0","","Firefox","105.0","Windows","10.0","null","<div style=""font-size:60px;"">+</div>","null",""
"","","","","","html-button-response","59","380514","0.0-4.0-1.27","167","1","2022-10-09 13:59:46","d60b49b5908c80e163b920d72b52d584","117.21.5.38","Mozilla/5.0 (Windows NT 10.0; Win64; x64; rv:105.0) Gecko/20100101 Firefox/105.0","","Firefox","105.0","Windows","10.0","2182","<p>作为军队的指挥官，你可以选择发射导弹杀死 <strong>9名</strong> 敌国士兵，但会误杀附近的 <strong>1名</strong> 敌国平民。</p> <p>平民照片如下图所示。</p> <p></p> <img src='stimuli/faces/NCM6.jpg', style='max-width: 30%;'> </img> <p><strong>你是否选择发射武器？</strong></p>","1",""
"","","","","","html-keyboard-response","60","381521","0.0-4.0-0.28","167","1","2022-10-09 13:59:46","d60b49b5908c80e163b920d72b52d584","117.21.5.38","Mozilla/5.0 (Windows NT 10.0; Win64; x64; rv:105.0) Gecko/20100101 Firefox/105.0","","Firefox","105.0","Windows","10.0","null","<div style=""font-size:60px;"">+</div>","null",""
"","","","","","html-button-response","61","383249","0.0-4.0-1.28","167","1","2022-10-09 13:59:46","d60b49b5908c80e163b920d72b52d584","117.21.5.38","Mozilla/5.0 (Windows NT 10.0; Win64; x64; rv:105.0) Gecko/20100101 Firefox/105.0","","Firefox","105.0","Windows","10.0","1725","<p>作为军队的指挥官，你可以选择发射导弹杀死 <strong>10名</strong> 敌国士兵，但会炸毁附近的 <strong>1棵</strong> 敌国树木。</p> <p>树木的照片如下图所示。</p> <p></p> <img src='stimuli/trees/14.png', style='max-width: 30%;'> </img> <p><strong>你是否选择发射武器？</strong></p>","0",""
"","","","","","html-keyboard-response","62","384265","0.0-4.0-0.29","167","1","2022-10-09 13:59:46","d60b49b5908c80e163b920d72b52d584","117.21.5.38","Mozilla/5.0 (Windows NT 10.0; Win64; x64; rv:105.0) Gecko/20100101 Firefox/105.0","","Firefox","105.0","Windows","10.0","null","<div style=""font-size:60px;"">+</div>","null",""
"","","","","","html-button-response","63","386210","0.0-4.0-1.29","167","1","2022-10-09 13:59:46","d60b49b5908c80e163b920d72b52d584","117.21.5.38","Mozilla/5.0 (Windows NT 10.0; Win64; x64; rv:105.0) Gecko/20100101 Firefox/105.0","","Firefox","105.0","Windows","10.0","1941","<p>作为军队的指挥官，你可以选择发射导弹杀死 <strong>7名</strong> 敌国士兵，但会炸毁附近的 <strong>1棵</strong> 敌国树木。</p> <p>树木的照片如下图所示。</p> <p></p> <img src='stimuli/trees/11.png', style='max-width: 30%;'> </img> <p><strong>你是否选择发射武器？</strong></p>","1",""
"","","","","","html-keyboard-response","64","387216","0.0-4.0-0.30","167","1","2022-10-09 13:59:46","d60b49b5908c80e163b920d72b52d584","117.21.5.38","Mozilla/5.0 (Windows NT 10.0; Win64; x64; rv:105.0) Gecko/20100101 Firefox/105.0","","Firefox","105.0","Windows","10.0","null","<div style=""font-size:60px;"">+</div>","null",""
"","","","","","html-button-response","65","389742","0.0-4.0-1.30","167","1","2022-10-09 13:59:46","d60b49b5908c80e163b920d72b52d584","117.21.5.38","Mozilla/5.0 (Windows NT 10.0; Win64; x64; rv:105.0) Gecko/20100101 Firefox/105.0","","Firefox","105.0","Windows","10.0","2522","<p>作为军队的指挥官，你可以选择发射导弹杀死 <strong>10名</strong> 敌国士兵，但会炸毁附近的 <strong>1棵</strong> 敌国树木。</p> <p>树木的照片如下图所示。</p> <p></p> <img src='stimuli/trees/6.png', style='max-width: 30%;'> </img> <p><strong>你是否选择发射武器？</strong></p>","0",""
"","","","","","html-keyboard-response","66","390749","0.0-4.0-0.31","167","1","2022-10-09 13:59:46","d60b49b5908c80e163b920d72b52d584","117.21.5.38","Mozilla/5.0 (Windows NT 10.0; Win64; x64; rv:105.0) Gecko/20100101 Firefox/105.0","","Firefox","105.0","Windows","10.0","null","<div style=""font-size:60px;"">+</div>","null",""
"","","","","","html-button-response","67","393116","0.0-4.0-1.31","167","1","2022-10-09 13:59:46","d60b49b5908c80e163b920d72b52d584","117.21.5.38","Mozilla/5.0 (Windows NT 10.0; Win64; x64; rv:105.0) Gecko/20100101 Firefox/105.0","","Firefox","105.0","Windows","10.0","2365","<p>作为军队的指挥官，你可以选择发射导弹杀死 <strong>5名</strong> 敌国士兵，但会误杀附近的 <strong>1名</strong> 敌国平民。</p> <p>平民照片如下图所示。</p> <p></p> <img src='stimuli/faces/NCF4.jpg', style='max-width: 30%;'> </img> <p><strong>你是否选择发射武器？</strong></p>","1",""
"","","","","","html-keyboard-response","68","394132","0.0-4.0-0.32","167","1","2022-10-09 13:59:46","d60b49b5908c80e163b920d72b52d584","117.21.5.38","Mozilla/5.0 (Windows NT 10.0; Win64; x64; rv:105.0) Gecko/20100101 Firefox/105.0","","Firefox","105.0","Windows","10.0","null","<div style=""font-size:60px;"">+</div>","null",""
"","","","","","html-button-response","69","395918","0.0-4.0-1.32","167","1","2022-10-09 13:59:46","d60b49b5908c80e163b920d72b52d584","117.21.5.38","Mozilla/5.0 (Windows NT 10.0; Win64; x64; rv:105.0) Gecko/20100101 Firefox/105.0","","Firefox","105.0","Windows","10.0","1783","<p>作为军队的指挥官，你可以选择发射导弹杀死 <strong>3名</strong> 敌国士兵，但会炸毁附近的 <strong>1棵</strong> 敌国树木。</p> <p>树木的照片如下图所示。</p> <p></p> <img src='stimuli/trees/9.png', style='max-width: 30%;'> </img> <p><strong>你是否选择发射武器？</strong></p>","1",""
"","","","","","html-keyboard-response","70","396925","0.0-4.0-0.33","167","1","2022-10-09 13:59:46","d60b49b5908c80e163b920d72b52d584","117.21.5.38","Mozilla/5.0 (Windows NT 10.0; Win64; x64; rv:105.0) Gecko/20100101 Firefox/105.0","","Firefox","105.0","Windows","10.0","null","<div style=""font-size:60px;"">+</div>","null",""
"","","","","","html-button-response","71","400098","0.0-4.0-1.33","167","1","2022-10-09 13:59:46","d60b49b5908c80e163b920d72b52d584","117.21.5.38","Mozilla/5.0 (Windows NT 10.0; Win64; x64; rv:105.0) Gecko/20100101 Firefox/105.0","","Firefox","105.0","Windows","10.0","3170","<p>作为军队的指挥官，你可以选择发射导弹杀死 <strong>3名</strong> 敌国士兵，但会炸毁附近的 <strong>1棵</strong> 敌国树木。</p> <p>树木的照片如下图所示。</p> <p></p> <img src='stimuli/trees/14.png', style='max-width: 30%;'> </img> <p><strong>你是否选择发射武器？</strong></p>","1",""
"","","","","","html-keyboard-response","72","401115","0.0-4.0-0.34","167","1","2022-10-09 13:59:46","d60b49b5908c80e163b920d72b52d584","117.21.5.38","Mozilla/5.0 (Windows NT 10.0; Win64; x64; rv:105.0) Gecko/20100101 Firefox/105.0","","Firefox","105.0","Windows","10.0","null","<div style=""font-size:60px;"">+</div>","null",""
"","","","","","html-button-response","73","402646","0.0-4.0-1.34","167","1","2022-10-09 13:59:46","d60b49b5908c80e163b920d72b52d584","117.21.5.38","Mozilla/5.0 (Windows NT 10.0; Win64; x64; rv:105.0) Gecko/20100101 Firefox/105.0","","Firefox","105.0","Windows","10.0","1526","<p>作为军队的指挥官，你可以选择发射导弹杀死 <strong>10名</strong> 敌国士兵，但会误杀附近的 <strong>1名</strong> 敌国平民。</p> <p>平民照片如下图所示。</p> <p></p> <img src='stimuli/faces/NCM3.jpg', style='max-width: 30%;'> </img> <p><strong>你是否选择发射武器？</strong></p>","1",""
"","","","","","html-keyboard-response","74","403666","0.0-4.0-0.35","167","1","2022-10-09 13:59:46","d60b49b5908c80e163b920d72b52d584","117.21.5.38","Mozilla/5.0 (Windows NT 10.0; Win64; x64; rv:105.0) Gecko/20100101 Firefox/105.0","","Firefox","105.0","Windows","10.0","null","<div style=""font-size:60px;"">+</div>","null",""
"","","","","","html-button-response","75","405870","0.0-4.0-1.35","167","1","2022-10-09 13:59:46","d60b49b5908c80e163b920d72b52d584","117.21.5.38","Mozilla/5.0 (Windows NT 10.0; Win64; x64; rv:105.0) Gecko/20100101 Firefox/105.0","","Firefox","105.0","Windows","10.0","2199","<p>作为军队的指挥官，你可以选择发射导弹杀死 <strong>8名</strong> 敌国士兵，但会炸毁附近的 <strong>1棵</strong> 敌国树木。</p> <p>树木的照片如下图所示。</p> <p></p> <img src='stimuli/trees/15.png', style='max-width: 30%;'> </img> <p><strong>你是否选择发射武器？</strong></p>","0",""
"","","","","","html-keyboard-response","76","406887","0.0-4.0-0.36","167","1","2022-10-09 13:59:46","d60b49b5908c80e163b920d72b52d584","117.21.5.38","Mozilla/5.0 (Windows NT 10.0; Win64; x64; rv:105.0) Gecko/20100101 Firefox/105.0","","Firefox","105.0","Windows","10.0","null","<div style=""font-size:60px;"">+</div>","null",""
"","","","","","html-button-response","77","408238","0.0-4.0-1.36","167","1","2022-10-09 13:59:46","d60b49b5908c80e163b920d72b52d584","117.21.5.38","Mozilla/5.0 (Windows NT 10.0; Win64; x64; rv:105.0) Gecko/20100101 Firefox/105.0","","Firefox","105.0","Windows","10.0","1347","<p>作为军队的指挥官，你可以选择发射导弹杀死 <strong>2名</strong> 敌国士兵，但会误杀附近的 <strong>1名</strong> 敌国平民。</p> <p>平民照片如下图所示。</p> <p></p> <img src='stimuli/faces/NCM5.jpg', style='max-width: 30%;'> </img> <p><strong>你是否选择发射武器？</strong></p>","1",""
"","","","","","html-keyboard-response","78","409249","0.0-4.0-0.37","167","1","2022-10-09 13:59:46","d60b49b5908c80e163b920d72b52d584","117.21.5.38","Mozilla/5.0 (Windows NT 10.0; Win64; x64; rv:105.0) Gecko/20100101 Firefox/105.0","","Firefox","105.0","Windows","10.0","null","<div style=""font-size:60px;"">+</div>","null",""
"","","","","","html-button-response","79","417354","0.0-4.0-1.37","167","1","2022-10-09 13:59:46","d60b49b5908c80e163b920d72b52d584","117.21.5.38","Mozilla/5.0 (Windows NT 10.0; Win64; x64; rv:105.0) Gecko/20100101 Firefox/105.0","","Firefox","105.0","Windows","10.0","8102","<p>作为军队的指挥官，你可以选择发射导弹杀死 <strong>4名</strong> 敌国士兵，但会误杀附近的 <strong>1名</strong> 敌国平民。</p> <p>平民照片如下图所示。</p> <p></p> <img src='stimuli/faces/NCF2.jpg', style='max-width: 30%;'> </img> <p><strong>你是否选择发射武器？</strong></p>","1",""
"","","","","","html-keyboard-response","80","418367","0.0-4.0-0.38","167","1","2022-10-09 13:59:46","d60b49b5908c80e163b920d72b52d584","117.21.5.38","Mozilla/5.0 (Windows NT 10.0; Win64; x64; rv:105.0) Gecko/20100101 Firefox/105.0","","Firefox","105.0","Windows","10.0","null","<div style=""font-size:60px;"">+</div>","null",""
"","","","","","html-button-response","81","420606","0.0-4.0-1.38","167","1","2022-10-09 13:59:46","d60b49b5908c80e163b920d72b52d584","117.21.5.38","Mozilla/5.0 (Windows NT 10.0; Win64; x64; rv:105.0) Gecko/20100101 Firefox/105.0","","Firefox","105.0","Windows","10.0","2235","<p>作为军队的指挥官，你可以选择发射导弹杀死 <strong>9名</strong> 敌国士兵，但会误杀附近的 <strong>1名</strong> 敌国平民。</p> <p>平民照片如下图所示。</p> <p></p> <img src='stimuli/faces/NCM4.jpg', style='max-width: 30%;'> </img> <p><strong>你是否选择发射武器？</strong></p>","1",""
"","","","","","html-keyboard-response","82","421619","0.0-4.0-0.39","167","1","2022-10-09 13:59:46","d60b49b5908c80e163b920d72b52d584","117.21.5.38","Mozilla/5.0 (Windows NT 10.0; Win64; x64; rv:105.0) Gecko/20100101 Firefox/105.0","","Firefox","105.0","Windows","10.0","null","<div style=""font-size:60px;"">+</div>","null",""
"","","","","","html-button-response","83","424834","0.0-4.0-1.39","167","1","2022-10-09 13:59:46","d60b49b5908c80e163b920d72b52d584","117.21.5.38","Mozilla/5.0 (Windows NT 10.0; Win64; x64; rv:105.0) Gecko/20100101 Firefox/105.0","","Firefox","105.0","Windows","10.0","3212","<p>作为军队的指挥官，你可以选择发射导弹杀死 <strong>3名</strong> 敌国士兵，但会炸毁附近的 <strong>1棵</strong> 敌国树木。</p> <p>树木的照片如下图所示。</p> <p></p> <img src='stimuli/trees/7.png', style='max-width: 30%;'> </img> <p><strong>你是否选择发射武器？</strong></p>","1",""
"","","","","","html-keyboard-response","84","425840","0.0-4.0-0.40","167","1","2022-10-09 13:59:46","d60b49b5908c80e163b920d72b52d584","117.21.5.38","Mozilla/5.0 (Windows NT 10.0; Win64; x64; rv:105.0) Gecko/20100101 Firefox/105.0","","Firefox","105.0","Windows","10.0","null","<div style=""font-size:60px;"">+</div>","null",""
"","","","","","html-button-response","85","452488","0.0-4.0-1.40","167","1","2022-10-09 13:59:46","d60b49b5908c80e163b920d72b52d584","117.21.5.38","Mozilla/5.0 (Windows NT 10.0; Win64; x64; rv:105.0) Gecko/20100101 Firefox/105.0","","Firefox","105.0","Windows","10.0","26645","<p>作为军队的指挥官，你可以选择发射导弹杀死 <strong>8名</strong> 敌国士兵，但会误杀附近的 <strong>1名</strong> 敌国平民。</p> <p>平民照片如下图所示。</p> <p></p> <img src='stimuli/faces/NCF8.jpg', style='max-width: 30%;'> </img> <p><strong>你是否选择发射武器？</strong></p>","1",""
"","","","","","html-keyboard-response","86","453507","0.0-4.0-0.41","167","1","2022-10-09 13:59:46","d60b49b5908c80e163b920d72b52d584","117.21.5.38","Mozilla/5.0 (Windows NT 10.0; Win64; x64; rv:105.0) Gecko/20100101 Firefox/105.0","","Firefox","105.0","Windows","10.0","null","<div style=""font-size:60px;"">+</div>","null",""
"","","","","","html-button-response","87","455932","0.0-4.0-1.41","167","1","2022-10-09 13:59:46","d60b49b5908c80e163b920d72b52d584","117.21.5.38","Mozilla/5.0 (Windows NT 10.0; Win64; x64; rv:105.0) Gecko/20100101 Firefox/105.0","","Firefox","105.0","Windows","10.0","2421","<p>作为军队的指挥官，你可以选择发射导弹杀死 <strong>3名</strong> 敌国士兵，但会误杀附近的 <strong>1名</strong> 敌国平民。</p> <p>平民照片如下图所示。</p> <p></p> <img src='stimuli/faces/NCM8.jpg', style='max-width: 30%;'> </img> <p><strong>你是否选择发射武器？</strong></p>","1",""
"","","","","","html-keyboard-response","88","456938","0.0-4.0-0.42","167","1","2022-10-09 13:59:46","d60b49b5908c80e163b920d72b52d584","117.21.5.38","Mozilla/5.0 (Windows NT 10.0; Win64; x64; rv:105.0) Gecko/20100101 Firefox/105.0","","Firefox","105.0","Windows","10.0","null","<div style=""font-size:60px;"">+</div>","null",""
"","","","","","html-button-response","89","458528","0.0-4.0-1.42","167","1","2022-10-09 13:59:46","d60b49b5908c80e163b920d72b52d584","117.21.5.38","Mozilla/5.0 (Windows NT 10.0; Win64; x64; rv:105.0) Gecko/20100101 Firefox/105.0","","Firefox","105.0","Windows","10.0","1587","<p>作为军队的指挥官，你可以选择发射导弹杀死 <strong>8名</strong> 敌国士兵，但会误杀附近的 <strong>1名</strong> 敌国平民。</p> <p>平民照片如下图所示。</p> <p></p> <img src='stimuli/faces/NCM8.jpg', style='max-width: 30%;'> </img> <p><strong>你是否选择发射武器？</strong></p>","1",""
"","","","","","html-keyboard-response","90","459547","0.0-4.0-0.43","167","1","2022-10-09 13:59:46","d60b49b5908c80e163b920d72b52d584","117.21.5.38","Mozilla/5.0 (Windows NT 10.0; Win64; x64; rv:105.0) Gecko/20100101 Firefox/105.0","","Firefox","105.0","Windows","10.0","null","<div style=""font-size:60px;"">+</div>","null",""
"","","","","","html-button-response","91","461457","0.0-4.0-1.43","167","1","2022-10-09 13:59:46","d60b49b5908c80e163b920d72b52d584","117.21.5.38","Mozilla/5.0 (Windows NT 10.0; Win64; x64; rv:105.0) Gecko/20100101 Firefox/105.0","","Firefox","105.0","Windows","10.0","1906","<p>作为军队的指挥官，你可以选择发射导弹杀死 <strong>5名</strong> 敌国士兵，但会炸毁附近的 <strong>1棵</strong> 敌国树木。</p> <p>树木的照片如下图所示。</p> <p></p> <img src='stimuli/trees/1.png', style='max-width: 30%;'> </img> <p><strong>你是否选择发射武器？</strong></p>","1",""
"","","","","","html-keyboard-response","92","462471","0.0-4.0-0.44","167","1","2022-10-09 13:59:46","d60b49b5908c80e163b920d72b52d584","117.21.5.38","Mozilla/5.0 (Windows NT 10.0; Win64; x64; rv:105.0) Gecko/20100101 Firefox/105.0","","Firefox","105.0","Windows","10.0","null","<div style=""font-size:60px;"">+</div>","null",""
"","","","","","html-button-response","93","465746","0.0-4.0-1.44","167","1","2022-10-09 13:59:46","d60b49b5908c80e163b920d72b52d584","117.21.5.38","Mozilla/5.0 (Windows NT 10.0; Win64; x64; rv:105.0) Gecko/20100101 Firefox/105.0","","Firefox","105.0","Windows","10.0","3271","<p>作为军队的指挥官，你可以选择发射导弹杀死 <strong>10名</strong> 敌国士兵，但会炸毁附近的 <strong>1棵</strong> 敌国树木。</p> <p>树木的照片如下图所示。</p> <p></p> <img src='stimuli/trees/16.png', style='max-width: 30%;'> </img> <p><strong>你是否选择发射武器？</strong></p>","0",""
"","","","","","html-keyboard-response","94","466755","0.0-4.0-0.45","167","1","2022-10-09 13:59:46","d60b49b5908c80e163b920d72b52d584","117.21.5.38","Mozilla/5.0 (Windows NT 10.0; Win64; x64; rv:105.0) Gecko/20100101 Firefox/105.0","","Firefox","105.0","Windows","10.0","null","<div style=""font-size:60px;"">+</div>","null",""
"","","","","","html-button-response","95","470000","0.0-4.0-1.45","167","1","2022-10-09 13:59:46","d60b49b5908c80e163b920d72b52d584","117.21.5.38","Mozilla/5.0 (Windows NT 10.0; Win64; x64; rv:105.0) Gecko/20100101 Firefox/105.0","","Firefox","105.0","Windows","10.0","3241","<p>作为军队的指挥官，你可以选择发射导弹杀死 <strong>2名</strong> 敌国士兵，但会误杀附近的 <strong>1名</strong> 敌国平民。</p> <p>平民照片如下图所示。</p> <p></p> <img src='stimuli/faces/NCM3.jpg', style='max-width: 30%;'> </img> <p><strong>你是否选择发射武器？</strong></p>","1",""
"","","","","","html-keyboard-response","96","471016","0.0-4.0-0.46","167","1","2022-10-09 13:59:46","d60b49b5908c80e163b920d72b52d584","117.21.5.38","Mozilla/5.0 (Windows NT 10.0; Win64; x64; rv:105.0) Gecko/20100101 Firefox/105.0","","Firefox","105.0","Windows","10.0","null","<div style=""font-size:60px;"">+</div>","null",""
"","","","","","html-button-response","97","473736","0.0-4.0-1.46","167","1","2022-10-09 13:59:46","d60b49b5908c80e163b920d72b52d584","117.21.5.38","Mozilla/5.0 (Windows NT 10.0; Win64; x64; rv:105.0) Gecko/20100101 Firefox/105.0","","Firefox","105.0","Windows","10.0","2715","<p>作为军队的指挥官，你可以选择发射导弹杀死 <strong>5名</strong> 敌国士兵，但会炸毁附近的 <strong>1棵</strong> 敌国树木。</p> <p>树木的照片如下图所示。</p> <p></p> <img src='stimuli/trees/5.png', style='max-width: 30%;'> </img> <p><strong>你是否选择发射武器？</strong></p>","1",""
"","","","","","html-keyboard-response","98","474740","0.0-4.0-0.47","167","1","2022-10-09 13:59:46","d60b49b5908c80e163b920d72b52d584","117.21.5.38","Mozilla/5.0 (Windows NT 10.0; Win64; x64; rv:105.0) Gecko/20100101 Firefox/105.0","","Firefox","105.0","Windows","10.0","null","<div style=""font-size:60px;"">+</div>","null",""
"","","","","","html-button-response","99","476540","0.0-4.0-1.47","167","1","2022-10-09 13:59:46","d60b49b5908c80e163b920d72b52d584","117.21.5.38","Mozilla/5.0 (Windows NT 10.0; Win64; x64; rv:105.0) Gecko/20100101 Firefox/105.0","","Firefox","105.0","Windows","10.0","1795","<p>作为军队的指挥官，你可以选择发射导弹杀死 <strong>1名</strong> 敌国士兵，但会误杀附近的 <strong>1名</strong> 敌国平民。</p> <p>平民照片如下图所示。</p> <p></p> <img src='stimuli/faces/NCM2.jpg', style='max-width: 30%;'> </img> <p><strong>你是否选择发射武器？</strong></p>","1",""
"","","","","","html-keyboard-response","100","477551","0.0-4.0-0.48","167","1","2022-10-09 13:59:46","d60b49b5908c80e163b920d72b52d584","117.21.5.38","Mozilla/5.0 (Windows NT 10.0; Win64; x64; rv:105.0) Gecko/20100101 Firefox/105.0","","Firefox","105.0","Windows","10.0","null","<div style=""font-size:60px;"">+</div>","null",""
"","","","","","html-button-response","101","478576","0.0-4.0-1.48","167","1","2022-10-09 13:59:46","d60b49b5908c80e163b920d72b52d584","117.21.5.38","Mozilla/5.0 (Windows NT 10.0; Win64; x64; rv:105.0) Gecko/20100101 Firefox/105.0","","Firefox","105.0","Windows","10.0","1022","<p>作为军队的指挥官，你可以选择发射导弹杀死 <strong>4名</strong> 敌国士兵，但会误杀附近的 <strong>1名</strong> 敌国平民。</p> <p>平民照片如下图所示。</p> <p></p> <img src='stimuli/faces/NCM1.jpg', style='max-width: 30%;'> </img> <p><strong>你是否选择发射武器？</strong></p>","1",""
"","","","","","html-keyboard-response","102","479584","0.0-4.0-0.49","167","1","2022-10-09 13:59:46","d60b49b5908c80e163b920d72b52d584","117.21.5.38","Mozilla/5.0 (Windows NT 10.0; Win64; x64; rv:105.0) Gecko/20100101 Firefox/105.0","","Firefox","105.0","Windows","10.0","null","<div style=""font-size:60px;"">+</div>","null",""
"","","","","","html-button-response","103","480296","0.0-4.0-1.49","167","1","2022-10-09 13:59:46","d60b49b5908c80e163b920d72b52d584","117.21.5.38","Mozilla/5.0 (Windows NT 10.0; Win64; x64; rv:105.0) Gecko/20100101 Firefox/105.0","","Firefox","105.0","Windows","10.0","707","<p>作为军队的指挥官，你可以选择发射导弹杀死 <strong>9名</strong> 敌国士兵，但会误杀附近的 <strong>1名</strong> 敌国平民。</p> <p>平民照片如下图所示。</p> <p></p> <img src='stimuli/faces/NCM7.jpg', style='max-width: 30%;'> </img> <p><strong>你是否选择发射武器？</strong></p>","1",""
"","","","","","html-keyboard-response","104","481308","0.0-4.0-0.50","167","1","2022-10-09 13:59:46","d60b49b5908c80e163b920d72b52d584","117.21.5.38","Mozilla/5.0 (Windows NT 10.0; Win64; x64; rv:105.0) Gecko/20100101 Firefox/105.0","","Firefox","105.0","Windows","10.0","null","<div style=""font-size:60px;"">+</div>","null",""
"","","","","","html-button-response","105","482892","0.0-4.0-1.50","167","1","2022-10-09 13:59:46","d60b49b5908c80e163b920d72b52d584","117.21.5.38","Mozilla/5.0 (Windows NT 10.0; Win64; x64; rv:105.0) Gecko/20100101 Firefox/105.0","","Firefox","105.0","Windows","10.0","1580","<p>作为军队的指挥官，你可以选择发射导弹杀死 <strong>5名</strong> 敌国士兵，但会炸毁附近的 <strong>1棵</strong> 敌国树木。</p> <p>树木的照片如下图所示。</p> <p></p> <img src='stimuli/trees/15.png', style='max-width: 30%;'> </img> <p><strong>你是否选择发射武器？</strong></p>","1",""
"","","","","","html-keyboard-response","106","483904","0.0-4.0-0.51","167","1","2022-10-09 13:59:46","d60b49b5908c80e163b920d72b52d584","117.21.5.38","Mozilla/5.0 (Windows NT 10.0; Win64; x64; rv:105.0) Gecko/20100101 Firefox/105.0","","Firefox","105.0","Windows","10.0","null","<div style=""font-size:60px;"">+</div>","null",""
"","","","","","html-button-response","107","484944","0.0-4.0-1.51","167","1","2022-10-09 13:59:46","d60b49b5908c80e163b920d72b52d584","117.21.5.38","Mozilla/5.0 (Windows NT 10.0; Win64; x64; rv:105.0) Gecko/20100101 Firefox/105.0","","Firefox","105.0","Windows","10.0","1036","<p>作为军队的指挥官，你可以选择发射导弹杀死 <strong>8名</strong> 敌国士兵，但会误杀附近的 <strong>1名</strong> 敌国平民。</p> <p>平民照片如下图所示。</p> <p></p> <img src='stimuli/faces/NCF5.jpg', style='max-width: 30%;'> </img> <p><strong>你是否选择发射武器？</strong></p>","1",""
"","","","","","html-keyboard-response","108","485962","0.0-4.0-0.52","167","1","2022-10-09 13:59:46","d60b49b5908c80e163b920d72b52d584","117.21.5.38","Mozilla/5.0 (Windows NT 10.0; Win64; x64; rv:105.0) Gecko/20100101 Firefox/105.0","","Firefox","105.0","Windows","10.0","null","<div style=""font-size:60px;"">+</div>","null",""
"","","","","","html-button-response","109","493314","0.0-4.0-1.52","167","1","2022-10-09 13:59:46","d60b49b5908c80e163b920d72b52d584","117.21.5.38","Mozilla/5.0 (Windows NT 10.0; Win64; x64; rv:105.0) Gecko/20100101 Firefox/105.0","","Firefox","105.0","Windows","10.0","7347","<p>作为军队的指挥官，你可以选择发射导弹杀死 <strong>5名</strong> 敌国士兵，但会炸毁附近的 <strong>1棵</strong> 敌国树木。</p> <p>树木的照片如下图所示。</p> <p></p> <img src='stimuli/trees/16.png', style='max-width: 30%;'> </img> <p><strong>你是否选择发射武器？</strong></p>","1",""
"","","","","","html-keyboard-response","110","494322","0.0-4.0-0.53","167","1","2022-10-09 13:59:46","d60b49b5908c80e163b920d72b52d584","117.21.5.38","Mozilla/5.0 (Windows NT 10.0; Win64; x64; rv:105.0) Gecko/20100101 Firefox/105.0","","Firefox","105.0","Windows","10.0","null","<div style=""font-size:60px;"">+</div>","null",""
"","","","","","html-button-response","111","495953","0.0-4.0-1.53","167","1","2022-10-09 13:59:46","d60b49b5908c80e163b920d72b52d584","117.21.5.38","Mozilla/5.0 (Windows NT 10.0; Win64; x64; rv:105.0) Gecko/20100101 Firefox/105.0","","Firefox","105.0","Windows","10.0","1627","<p>作为军队的指挥官，你可以选择发射导弹杀死 <strong>10名</strong> 敌国士兵，但会误杀附近的 <strong>1名</strong> 敌国平民。</p> <p>平民照片如下图所示。</p> <p></p> <img src='stimuli/faces/NCF2.jpg', style='max-width: 30%;'> </img> <p><strong>你是否选择发射武器？</strong></p>","1",""
"","","","","","html-keyboard-response","112","496969","0.0-4.0-0.54","167","1","2022-10-09 13:59:46","d60b49b5908c80e163b920d72b52d584","117.21.5.38","Mozilla/5.0 (Windows NT 10.0; Win64; x64; rv:105.0) Gecko/20100101 Firefox/105.0","","Firefox","105.0","Windows","10.0","null","<div style=""font-size:60px;"">+</div>","null",""
"","","","","","html-button-response","113","497882","0.0-4.0-1.54","167","1","2022-10-09 13:59:46","d60b49b5908c80e163b920d72b52d584","117.21.5.38","Mozilla/5.0 (Windows NT 10.0; Win64; x64; rv:105.0) Gecko/20100101 Firefox/105.0","","Firefox","105.0","Windows","10.0","909","<p>作为军队的指挥官，你可以选择发射导弹杀死 <strong>8名</strong> 敌国士兵，但会误杀附近的 <strong>1名</strong> 敌国平民。</p> <p>平民照片如下图所示。</p> <p></p> <img src='stimuli/faces/NCF3.jpg', style='max-width: 30%;'> </img> <p><strong>你是否选择发射武器？</strong></p>","1",""
"","","","","","html-keyboard-response","114","498892","0.0-4.0-0.55","167","1","2022-10-09 13:59:46","d60b49b5908c80e163b920d72b52d584","117.21.5.38","Mozilla/5.0 (Windows NT 10.0; Win64; x64; rv:105.0) Gecko/20100101 Firefox/105.0","","Firefox","105.0","Windows","10.0","null","<div style=""font-size:60px;"">+</div>","null",""
"","","","","","html-button-response","115","499454","0.0-4.0-1.55","167","1","2022-10-09 13:59:46","d60b49b5908c80e163b920d72b52d584","117.21.5.38","Mozilla/5.0 (Windows NT 10.0; Win64; x64; rv:105.0) Gecko/20100101 Firefox/105.0","","Firefox","105.0","Windows","10.0","558","<p>作为军队的指挥官，你可以选择发射导弹杀死 <strong>2名</strong> 敌国士兵，但会误杀附近的 <strong>1名</strong> 敌国平民。</p> <p>平民照片如下图所示。</p> <p></p> <img src='stimuli/faces/NCM4.jpg', style='max-width: 30%;'> </img> <p><strong>你是否选择发射武器？</strong></p>","1",""
"","","","","","html-keyboard-response","116","500464","0.0-4.0-0.56","167","1","2022-10-09 13:59:46","d60b49b5908c80e163b920d72b52d584","117.21.5.38","Mozilla/5.0 (Windows NT 10.0; Win64; x64; rv:105.0) Gecko/20100101 Firefox/105.0","","Firefox","105.0","Windows","10.0","null","<div style=""font-size:60px;"">+</div>","null",""
"","","","","","html-button-response","117","501220","0.0-4.0-1.56","167","1","2022-10-09 13:59:46","d60b49b5908c80e163b920d72b52d584","117.21.5.38","Mozilla/5.0 (Windows NT 10.0; Win64; x64; rv:105.0) Gecko/20100101 Firefox/105.0","","Firefox","105.0","Windows","10.0","752","<p>作为军队的指挥官，你可以选择发射导弹杀死 <strong>7名</strong> 敌国士兵，但会误杀附近的 <strong>1名</strong> 敌国平民。</p> <p>平民照片如下图所示。</p> <p></p> <img src='stimuli/faces/NCM5.jpg', style='max-width: 30%;'> </img> <p><strong>你是否选择发射武器？</strong></p>","1",""
"","","","","","html-keyboard-response","118","502236","0.0-4.0-0.57","167","1","2022-10-09 13:59:46","d60b49b5908c80e163b920d72b52d584","117.21.5.38","Mozilla/5.0 (Windows NT 10.0; Win64; x64; rv:105.0) Gecko/20100101 Firefox/105.0","","Firefox","105.0","Windows","10.0","null","<div style=""font-size:60px;"">+</div>","null",""
"","","","","","html-button-response","119","503446","0.0-4.0-1.57","167","1","2022-10-09 13:59:46","d60b49b5908c80e163b920d72b52d584","117.21.5.38","Mozilla/5.0 (Windows NT 10.0; Win64; x64; rv:105.0) Gecko/20100101 Firefox/105.0","","Firefox","105.0","Windows","10.0","1207","<p>作为军队的指挥官，你可以选择发射导弹杀死 <strong>5名</strong> 敌国士兵，但会炸毁附近的 <strong>1棵</strong> 敌国树木。</p> <p>树木的照片如下图所示。</p> <p></p> <img src='stimuli/trees/11.png', style='max-width: 30%;'> </img> <p><strong>你是否选择发射武器？</strong></p>","1",""
"","","","","","html-keyboard-response","120","504465","0.0-4.0-0.58","167","1","2022-10-09 13:59:46","d60b49b5908c80e163b920d72b52d584","117.21.5.38","Mozilla/5.0 (Windows NT 10.0; Win64; x64; rv:105.0) Gecko/20100101 Firefox/105.0","","Firefox","105.0","Windows","10.0","null","<div style=""font-size:60px;"">+</div>","null",""
"","","","","","html-button-response","121","505906","0.0-4.0-1.58","167","1","2022-10-09 13:59:46","d60b49b5908c80e163b920d72b52d584","117.21.5.38","Mozilla/5.0 (Windows NT 10.0; Win64; x64; rv:105.0) Gecko/20100101 Firefox/105.0","","Firefox","105.0","Windows","10.0","1436","<p>作为军队的指挥官，你可以选择发射导弹杀死 <strong>3名</strong> 敌国士兵，但会炸毁附近的 <strong>1棵</strong> 敌国树木。</p> <p>树木的照片如下图所示。</p> <p></p> <img src='stimuli/trees/13.png', style='max-width: 30%;'> </img> <p><strong>你是否选择发射武器？</strong></p>","1",""
"","","","","","html-keyboard-response","122","506918","0.0-4.0-0.59","167","1","2022-10-09 13:59:46","d60b49b5908c80e163b920d72b52d584","117.21.5.38","Mozilla/5.0 (Windows NT 10.0; Win64; x64; rv:105.0) Gecko/20100101 Firefox/105.0","","Firefox","105.0","Windows","10.0","null","<div style=""font-size:60px;"">+</div>","null",""
"","","","","","html-button-response","123","508381","0.0-4.0-1.59","167","1","2022-10-09 13:59:46","d60b49b5908c80e163b920d72b52d584","117.21.5.38","Mozilla/5.0 (Windows NT 10.0; Win64; x64; rv:105.0) Gecko/20100101 Firefox/105.0","","Firefox","105.0","Windows","10.0","1457","<p>作为军队的指挥官，你可以选择发射导弹杀死 <strong>2名</strong> 敌国士兵，但会误杀附近的 <strong>1名</strong> 敌国平民。</p> <p>平民照片如下图所示。</p> <p></p> <img src='stimuli/faces/NCF5.jpg', style='max-width: 30%;'> </img> <p><strong>你是否选择发射武器？</strong></p>","1",""
"","","","","","html-keyboard-response","124","509394","0.0-4.0-0.60","167","1","2022-10-09 13:59:46","d60b49b5908c80e163b920d72b52d584","117.21.5.38","Mozilla/5.0 (Windows NT 10.0; Win64; x64; rv:105.0) Gecko/20100101 Firefox/105.0","","Firefox","105.0","Windows","10.0","null","<div style=""font-size:60px;"">+</div>","null",""
"","","","","","html-button-response","125","510778","0.0-4.0-1.60","167","1","2022-10-09 13:59:46","d60b49b5908c80e163b920d72b52d584","117.21.5.38","Mozilla/5.0 (Windows NT 10.0; Win64; x64; rv:105.0) Gecko/20100101 Firefox/105.0","","Firefox","105.0","Windows","10.0","1377","<p>作为军队的指挥官，你可以选择发射导弹杀死 <strong>7名</strong> 敌国士兵，但会炸毁附近的 <strong>1棵</strong> 敌国树木。</p> <p>树木的照片如下图所示。</p> <p></p> <img src='stimuli/trees/3.png', style='max-width: 30%;'> </img> <p><strong>你是否选择发射武器？</strong></p>","1",""
"","","","","","html-keyboard-response","126","511786","0.0-4.0-0.61","167","1","2022-10-09 13:59:46","d60b49b5908c80e163b920d72b52d584","117.21.5.38","Mozilla/5.0 (Windows NT 10.0; Win64; x64; rv:105.0) Gecko/20100101 Firefox/105.0","","Firefox","105.0","Windows","10.0","null","<div style=""font-size:60px;"">+</div>","null",""
"","","","","","html-button-response","127","512582","0.0-4.0-1.61","167","1","2022-10-09 13:59:46","d60b49b5908c80e163b920d72b52d584","117.21.5.38","Mozilla/5.0 (Windows NT 10.0; Win64; x64; rv:105.0) Gecko/20100101 Firefox/105.0","","Firefox","105.0","Windows","10.0","792","<p>作为军队的指挥官，你可以选择发射导弹杀死 <strong>1名</strong> 敌国士兵，但会误杀附近的 <strong>1名</strong> 敌国平民。</p> <p>平民照片如下图所示。</p> <p></p> <img src='stimuli/faces/NCM6.jpg', style='max-width: 30%;'> </img> <p><strong>你是否选择发射武器？</strong></p>","1",""
"","","","","","html-keyboard-response","128","513594","0.0-4.0-0.62","167","1","2022-10-09 13:59:46","d60b49b5908c80e163b920d72b52d584","117.21.5.38","Mozilla/5.0 (Windows NT 10.0; Win64; x64; rv:105.0) Gecko/20100101 Firefox/105.0","","Firefox","105.0","Windows","10.0","null","<div style=""font-size:60px;"">+</div>","null",""
"","","","","","html-button-response","129","515970","0.0-4.0-1.62","167","1","2022-10-09 13:59:46","d60b49b5908c80e163b920d72b52d584","117.21.5.38","Mozilla/5.0 (Windows NT 10.0; Win64; x64; rv:105.0) Gecko/20100101 Firefox/105.0","","Firefox","105.0","Windows","10.0","2371","<p>作为军队的指挥官，你可以选择发射导弹杀死 <strong>6名</strong> 敌国士兵，但会炸毁附近的 <strong>1棵</strong> 敌国树木。</p> <p>树木的照片如下图所示。</p> <p></p> <img src='stimuli/trees/8.png', style='max-width: 30%;'> </img> <p><strong>你是否选择发射武器？</strong></p>","1",""
"","","","","","html-keyboard-response","130","516978","0.0-4.0-0.63","167","1","2022-10-09 13:59:46","d60b49b5908c80e163b920d72b52d584","117.21.5.38","Mozilla/5.0 (Windows NT 10.0; Win64; x64; rv:105.0) Gecko/20100101 Firefox/105.0","","Firefox","105.0","Windows","10.0","null","<div style=""font-size:60px;"">+</div>","null",""
"","","","","","html-button-response","131","518948","0.0-4.0-1.63","167","1","2022-10-09 13:59:46","d60b49b5908c80e163b920d72b52d584","117.21.5.38","Mozilla/5.0 (Windows NT 10.0; Win64; x64; rv:105.0) Gecko/20100101 Firefox/105.0","","Firefox","105.0","Windows","10.0","1965","<p>作为军队的指挥官，你可以选择发射导弹杀死 <strong>9名</strong> 敌国士兵，但会误杀附近的 <strong>1名</strong> 敌国平民。</p> <p>平民照片如下图所示。</p> <p></p> <img src='stimuli/faces/NCF6.jpg', style='max-width: 30%;'> </img> <p><strong>你是否选择发射武器？</strong></p>","1",""
"","","","","","survey-multi-choice","132","691985","0.0-5.0","167","1","2022-10-09 13:59:46","d60b49b5908c80e163b920d72b52d584","117.21.5.38","Mozilla/5.0 (Windows NT 10.0; Win64; x64; rv:105.0) Gecko/20100101 Firefox/105.0","","Firefox","105.0","Windows","10.0","173030","","{""Attention1"":""""}","[0]"
"","","","","","html-button-response","133","761730","0.0-6.0","167","1","2022-10-09 13:59:46","d60b49b5908c80e163b920d72b52d584","117.21.5.38","Mozilla/5.0 (Windows NT 10.0; Win64; x64; rv:105.0) Gecko/20100101 Firefox/105.0","","Firefox","105.0","Windows","10.0","69738","<p style=""font-size:20px;font-weight:bold;"">恭喜！</p><p>你已经完成了实验的第一部分。</p><p>请休息放松一下，然后进入第二部分。</p><p>这部分大约需要10分钟。</p>","0",""
"","","","","","survey-text","134","800159","0.0-7.0","167","1","2022-10-09 13:59:46","d60b49b5908c80e163b920d72b52d584","117.21.5.38","Mozilla/5.0 (Windows NT 10.0; Win64; x64; rv:105.0) Gecko/20100101 Firefox/105.0","","Firefox","105.0","Windows","10.0","37406","","{""Age"":""19"",""Nation"":""中国"",""Born"":""江西省九江市"",""Live"":""江西省南昌市"",""Ethnic"":""汉族"",""Alipay"":""18070427572""}",""
"","","","","","survey-multi-choice","135","817478","0.0-8.0","167","1","2022-10-09 13:59:46","d60b49b5908c80e163b920d72b52d584","117.21.5.38","Mozilla/5.0 (Windows NT 10.0; Win64; x64; rv:105.0) Gecko/20100101 Firefox/105.0","","Firefox","105.0","Windows","10.0","17312","","{""Gender"":""女"",""Education"":""本科毕业"",""Income"":""￥490,000-￥699,999"",""Children"":""2"",""Race"":""亚洲人""}","[0,1,2,3,4]"
"","","","","","survey-multi-select","136","824774","0.0-9.0","167","1","2022-10-09 13:59:46","d60b49b5908c80e163b920d72b52d584","117.21.5.38","Mozilla/5.0 (Windows NT 10.0; Win64; x64; rv:105.0) Gecko/20100101 Firefox/105.0","","Firefox","105.0","Windows","10.0","7287","","{""Marriage"":[""未婚""],""Religion"":[""无宗教信仰""]}","[0,1]"
"","","","","","survey-multi-choice","137","828773","0.0-10.0","167","1","2022-10-09 13:59:46","d60b49b5908c80e163b920d72b52d584","117.21.5.38","Mozilla/5.0 (Windows NT 10.0; Win64; x64; rv:105.0) Gecko/20100101 Firefox/105.0","","Firefox","105.0","Windows","10.0","3993","","{""SES"":""6""}","[0]"
"","","","","","html-button-response","138","831491","0.0-11.0","167","1","2022-10-09 13:59:46","d60b49b5908c80e163b920d72b52d584","117.21.5.38","Mozilla/5.0 (Windows NT 10.0; Win64; x64; rv:105.0) Gecko/20100101 Firefox/105.0","","Firefox","105.0","Windows","10.0","2713","<p><strong>请判断下列陈述在多大程度上可以形容你？</p><p> (1 = ""和我一点都不像"" to 5 = ""非常像我"".)</strong></p>","0",""
"","","","","","survey-likert","139","871887","0.0-12.0","167","1","2022-10-09 13:59:46","d60b49b5908c80e163b920d72b52d584","117.21.5.38","Mozilla/5.0 (Windows NT 10.0; Win64; x64; rv:105.0) Gecko/20100101 Firefox/105.0","","Firefox","105.0","Windows","10.0","40389","","{""Aggression1"":0,""Aggression2"":0,""Aggression3"":3,""Aggression4"":0,""Aggression5"":2,""Aggression6"":1,""Aggression7"":3,""Aggression8"":2,""Aggression9"":2}","[0,1,2,3,4,5,6,7,8]"
"","","","","","html-button-response","140","886024","0.0-13.0","167","1","2022-10-09 13:59:46","d60b49b5908c80e163b920d72b52d584","117.21.5.38","Mozilla/5.0 (Windows NT 10.0; Win64; x64; rv:105.0) Gecko/20100101 Firefox/105.0","","Firefox","105.0","Windows","10.0","14129","<p><strong>请判断你在多大程度上同意下列陈述。</strong></p>","0",""
"","","","","","survey-likert","141","1101304","0.0-14.0","167","1","2022-10-09 13:59:46","d60b49b5908c80e163b920d72b52d584","117.21.5.38","Mozilla/5.0 (Windows NT 10.0; Win64; x64; rv:105.0) Gecko/20100101 Firefox/105.0","","Firefox","105.0","Windows","10.0","215270","","{""scale15"":2,""scale7"":1,""scale27"":0,""scale11"":2,""scale8"":1,""scale5"":3,""scale3"":1,""scale14"":3,""scale10"":3,""scale23"":2,""scale21"":3,""scale28"":1,""scale6"":2,""scale1"":3,""scale2"":0,""scale26"":1,""scale19"":2,""scale25"":1,""scale16"":0,""scale4"":3,""scale24"":1,""scale18"":3,""scale20"":2,""scale17"":2,""scale13"":1,""scale12"":1,""scale22"":3,""scale9"":2}","[14,6,26,10,7,4,2,13,9,22,20,27,5,0,1,25,18,24,15,3,23,17,19,16,12,11,21,8]"
"","","","","","html-button-response","142","1102525","0.0-15.0","167","1","2022-10-09 13:59:46","d60b49b5908c80e163b920d72b52d584","117.21.5.38","Mozilla/5.0 (Windows NT 10.0; Win64; x64; rv:105.0) Gecko/20100101 Firefox/105.0","","Firefox","105.0","Windows","10.0","1215","<p><strong>请判断你在多大程度上同意下列陈述。</strong></p>","0",""
"","","","","","survey-likert","143","1231548","0.0-16.0","167","1","2022-10-09 13:59:46","d60b49b5908c80e163b920d72b52d584","117.21.5.38","Mozilla/5.0 (Windows NT 10.0; Win64; x64; rv:105.0) Gecko/20100101 Firefox/105.0","","Firefox","105.0","Windows","10.0","129013","","{""sdo9"":5,""sdo4"":4,""sdo5"":4,""sdo13"":5,""sdo16"":6,""sdo11"":5,""sdo1"":1,""sdo12"":4,""sdo8"":4,""sdo15"":4,""sdo14"":4,""sdo6"":5,""sdo10"":4,""sdo7"":0,""sdo2"":0,""sdo3"":3}","[8,3,4,12,15,10,0,11,7,14,13,5,9,6,1,2]"
"","","","","","html-button-response","144","1232615","0.0-17.0","167","1","2022-10-09 13:59:46","d60b49b5908c80e163b920d72b52d584","117.21.5.38","Mozilla/5.0 (Windows NT 10.0; Win64; x64; rv:105.0) Gecko/20100101 Firefox/105.0","","Firefox","105.0","Windows","10.0","1059","<p><strong>请判断你在多大程度上同意下列陈述。</strong></p>","0",""
"","","","","","survey-likert","145","1265815","0.0-18.0","167","1","2022-10-09 13:59:46","d60b49b5908c80e163b920d72b52d584","117.21.5.38","Mozilla/5.0 (Windows NT 10.0; Win64; x64; rv:105.0) Gecko/20100101 Firefox/105.0","","Firefox","105.0","Windows","10.0","33192","","{""caring1"":3,""liking1"":1,""caring2"":3,""protection1"":3,""liking2"":2,""caring3"":3,""protection2"":0,""liking3"":1,""protection3"":2,""caring4"":4,""liking4"":1,""protection4"":3,""caring5"":3,""liking5"":0,""protection5"":1}","[0,1,2,3,4,5,6,7,8,9,10,11,12,13,14]"
"","","","","","html-button-response","146","1266752","0.0-19.0","167","1","2022-10-09 13:59:46","d60b49b5908c80e163b920d72b52d584","117.21.5.38","Mozilla/5.0 (Windows NT 10.0; Win64; x64; rv:105.0) Gecko/20100101 Firefox/105.0","","Firefox","105.0","Windows","10.0","931","<p><strong>请判断下列场景中你的内心感受有多柔软。</strong></p>","0",""
"","","","","","survey-likert","147","1291348","0.0-20.0","167","1","2022-10-09 13:59:46","d60b49b5908c80e163b920d72b52d584","117.21.5.38","Mozilla/5.0 (Windows NT 10.0; Win64; x64; rv:105.0) Gecko/20100101 Firefox/105.0","","Firefox","105.0","Windows","10.0","24590","","{""tenderness-positive1"":4,""tenderness-negative1"":3,""tenderness-negative2"":1,""tenderness-positive2"":4,""tenderness-positive3"":2,""tenderness-negative3"":0,""tenderness-positive4"":4,""tendereness-negative4"":4,""tendernness-negative5"":4,""tenderness-positive5"":4}","[0,1,2,3,4,5,6,7,8,9]"
"","","","","","survey-multi-choice","148","1301637","0.0-21.0","167","1","2022-10-09 13:59:46","d60b49b5908c80e163b920d72b52d584","117.21.5.38","Mozilla/5.0 (Windows NT 10.0; Win64; x64; rv:105.0) Gecko/20100101 Firefox/105.0","","Firefox","105.0","Windows","10.0","10284","","{""Attention2"":""其他""}","[0]"
"","","","","","html-button-response","149","1302949","0.0-22.0","167","1","2022-10-09 13:59:46","d60b49b5908c80e163b920d72b52d584","117.21.5.38","Mozilla/5.0 (Windows NT 10.0; Win64; x64; rv:105.0) Gecko/20100101 Firefox/105.0","","Firefox","105.0","Windows","10.0","1308","<p><strong>请判断你在多大程度上同意下列陈述。</strong></p>","0",""
"","","","","","survey-likert","150","1383055","0.0-23.0","167","1","2022-10-09 13:59:46","d60b49b5908c80e163b920d72b52d584","117.21.5.38","Mozilla/5.0 (Windows NT 10.0; Win64; x64; rv:105.0) Gecko/20100101 Firefox/105.0","","Firefox","105.0","Windows","10.0","80098","","{""Nation3"":1,""Nation2"":4,""Nation7"":4,""Nation6"":3,""Patri1"":4,""Patri6"":1,""Nation8"":4,""Patri10"":0,""Patri9"":1,""Patri3"":3,""Nation4"":3,""Patri2"":4,""Patri5"":4,""Patri11"":0,""Patri4"":4,""Patri7"":4,""Patri8"":4,""Nation5"":0,""Patri12"":0,""Nation1"":2}","[14,13,18,17,0,5,19,9,8,2,15,1,4,10,3,6,7,16,11,12]"
"","","","","","html-button-response","151","1384673","0.0-24.0","167","1","2022-10-09 13:59:46","d60b49b5908c80e163b920d72b52d584","117.21.5.38","Mozilla/5.0 (Windows NT 10.0; Win64; x64; rv:105.0) Gecko/20100101 Firefox/105.0","","Firefox","105.0","Windows","10.0","1614","<p><strong>请判断你在多大程度上同意下列陈述。</strong></p>","0",""
"","","","","","survey-likert","152","1437855","0.0-25.0","167","1","2022-10-09 13:59:46","d60b49b5908c80e163b920d72b52d584","117.21.5.38","Mozilla/5.0 (Windows NT 10.0; Win64; x64; rv:105.0) Gecko/20100101 Firefox/105.0","","Firefox","105.0","Windows","10.0","53175","","{""hc1"":4,""hi1"":6,""vc1"":8,""hc3"":7,""vi3"":7,""vc3"":7,""vc4"":7,""vi2"":4,""vi4"":6,""vi1"":6,""vc2"":8,""hc2"":4,""hi4"":7,""hi2"":6,""Robot"":6,""hi3"":5,""hc4"":8}","[9,0,13,11,6,15,16,5,8,4,14,10,3,1,7,2,12]"
"","","","","","survey-text","153","1448539","0.0-26.0","167","1","2022-10-09 13:59:46","d60b49b5908c80e163b920d72b52d584","117.21.5.38","Mozilla/5.0 (Windows NT 10.0; Win64; x64; rv:105.0) Gecko/20100101 Firefox/105.0","","Firefox","105.0","Windows","10.0","10673","","{""Comments"":""无""}",""
"","","","","","html-button-response","154","1449596","0.0-27.0","167","1","2022-10-09 13:59:46","d60b49b5908c80e163b920d72b52d584","117.21.5.38","Mozilla/5.0 (Windows NT 10.0; Win64; x64; rv:105.0) Gecko/20100101 Firefox/105.0","","Firefox","105.0","Windows","10.0","1052","<strong><p>恭喜你完成了实验！</p><p>感谢您的参与。</p></strong>","0",""
