"success","timeout","failed_images","failed_audio","failed_video","trial_type","trial_index","time_elapsed","internal_node_id","run_id","condition","recorded_at","source_code_version","ip","user_agent","device","browser","browser_version","platform","platform_version","rt","stimulus","response","question_order"
"true","false","[]","[]","[]","preload","0","3636","0.0-0.0","162","1","2022-10-09 13:52:47","d60b49b5908c80e163b920d72b52d584","219.142.99.24","Mozilla/5.0 (Windows NT 6.1) AppleWebKit/537.36 (KHTML, like Gecko) Chrome/95.0.4638.69 Safari/537.36","WebKit","Chrome","95.0.4638.69","Windows","6.1","","","",""
"true","","","","","fullscreen","1","7086","0.0-1.0","162","1","2022-10-09 13:52:47","d60b49b5908c80e163b920d72b52d584","219.142.99.24","Mozilla/5.0 (Windows NT 6.1) AppleWebKit/537.36 (KHTML, like Gecko) Chrome/95.0.4638.69 Safari/537.36","WebKit","Chrome","95.0.4638.69","Windows","6.1","","","",""
"","","","","","html-button-response","2","75927","0.0-2.0","162","1","2022-10-09 13:52:47","d60b49b5908c80e163b920d72b52d584","219.142.99.24","Mozilla/5.0 (Windows NT 6.1) AppleWebKit/537.36 (KHTML, like Gecko) Chrome/95.0.4638.69 Safari/537.36","WebKit","Chrome","95.0.4638.69","Windows","6.1","68842","<p style=""font-size:20px;font-weight:bold;"">实验知情同意书</p><p style=""text-align:left;""><strong>实验名称：</strong>社会冲突研究</p><p style=""text-align:left;""><strong>主要研究者：</strong>韩晓春副教授（北京师范大学心理学部）</p><p style=""text-align:left;""><strong>联系方式：</strong>发送邮件至xiaochun.han@bnu.edu.cn</p><p style=""text-align:left;""><strong>研究目的：</strong>研究旨在了解人类面对群体冲突时的决策方式，以及相关的心理学特质。实验调查大约需要20分钟。</p><p style=""text-align:left;""><strong>实验流程：</strong>实验包含两部分。第一部分呈现一系列群体冲突场景，请你决定如何对这些冲突进行反应，大约需要10分钟完成。第二部分包含一系列人口统计学信息收集和心理学问卷，大约需要10分钟完成。</p><p style=""text-align:left;""><strong>参加及退出规则：</strong>参加本实验完全取决于您的个人意愿。在参与过程中，您可以随时退出，并且不用承担任何后果。</p><p style=""text-align:left;""><strong>隐私：</strong>本实验完全匿名进行，不会收集您的姓名或其他能够识别您身份的信息。实验中收集的作答仅用作科学研究使用，可能会在学术期刊/书籍上发表，或者用于教学，您的数据未来可能会和其他研究者或实验室分享，但您的个人身份不会被识别。</p><p style=""text-align:left;""><strong>实验报酬：</strong>实验完成后，您将获得15元人民币报酬，以感谢您的时间和努力。调查问卷中包含几道题目用以测验您作答时的认真度。只有完成全部实验，并且正确回答认真度测验的被试才能获得实验报酬。实验报酬将通过支付宝转账发放。</p><p style=""text-align:left;font-size:20px;""><strong>如果您同意以上实验知情同意书的内容，请点击'同意并且开始实验'按钮；否则请关闭浏览器界面，退出实验。</strong></p>","0",""
"","","","","","html-button-response","3","88804","0.0-3.0","162","1","2022-10-09 13:52:47","d60b49b5908c80e163b920d72b52d584","219.142.99.24","Mozilla/5.0 (Windows NT 6.1) AppleWebKit/537.36 (KHTML, like Gecko) Chrome/95.0.4638.69 Safari/537.36","WebKit","Chrome","95.0.4638.69","Windows","6.1","12877","<p ><strong>实验任务一：</strong></p><p>请想象你的国家与另一个国家发生了军事冲突。</p><p>你是国家军队的指挥官，你将如何在冲突中进行决策。</p><p>具体来说，作为军队指挥官，请你决定是否发射导弹进行打击。</p><p>接下来，你会面对一系列场景，请仔细阅读每个场景，然后进行决策。</p><p>这部分实验任务大约需要10分钟。</p><p><strong>实验过程中，请集中注意力。</strong></p>","0",""
"","","","","","html-keyboard-response","4","89806","0.0-4.0-0.0","162","1","2022-10-09 13:52:47","d60b49b5908c80e163b920d72b52d584","219.142.99.24","Mozilla/5.0 (Windows NT 6.1) AppleWebKit/537.36 (KHTML, like Gecko) Chrome/95.0.4638.69 Safari/537.36","WebKit","Chrome","95.0.4638.69","Windows","6.1","null","<div style=""font-size:60px;"">+</div>","null",""
"","","","","","html-button-response","5","104596","0.0-4.0-1.0","162","1","2022-10-09 13:52:47","d60b49b5908c80e163b920d72b52d584","219.142.99.24","Mozilla/5.0 (Windows NT 6.1) AppleWebKit/537.36 (KHTML, like Gecko) Chrome/95.0.4638.69 Safari/537.36","WebKit","Chrome","95.0.4638.69","Windows","6.1","14787","<p>作为军队的指挥官，你可以选择发射导弹杀死 <strong>10名</strong> 敌国士兵，但会炸毁附近的 <strong>1棵</strong> 敌国树木。</p> <p>树木的照片如下图所示。</p> <p></p> <img src='stimuli/trees/13.png', style='max-width: 30%;'> </img> <p><strong>你是否选择发射武器？</strong></p>","0",""
"","","","","","html-keyboard-response","6","105598","0.0-4.0-0.1","162","1","2022-10-09 13:52:47","d60b49b5908c80e163b920d72b52d584","219.142.99.24","Mozilla/5.0 (Windows NT 6.1) AppleWebKit/537.36 (KHTML, like Gecko) Chrome/95.0.4638.69 Safari/537.36","WebKit","Chrome","95.0.4638.69","Windows","6.1","null","<div style=""font-size:60px;"">+</div>","null",""
"","","","","","html-button-response","7","111532","0.0-4.0-1.1","162","1","2022-10-09 13:52:47","d60b49b5908c80e163b920d72b52d584","219.142.99.24","Mozilla/5.0 (Windows NT 6.1) AppleWebKit/537.36 (KHTML, like Gecko) Chrome/95.0.4638.69 Safari/537.36","WebKit","Chrome","95.0.4638.69","Windows","6.1","5932","<p>作为军队的指挥官，你可以选择发射导弹杀死 <strong>2名</strong> 敌国士兵，但会误杀附近的 <strong>1名</strong> 敌国平民。</p> <p>平民照片如下图所示。</p> <p></p> <img src='stimuli/faces/NCM1.jpg', style='max-width: 30%;'> </img> <p><strong>你是否选择发射武器？</strong></p>","1",""
"","","","","","html-keyboard-response","8","112533","0.0-4.0-0.2","162","1","2022-10-09 13:52:47","d60b49b5908c80e163b920d72b52d584","219.142.99.24","Mozilla/5.0 (Windows NT 6.1) AppleWebKit/537.36 (KHTML, like Gecko) Chrome/95.0.4638.69 Safari/537.36","WebKit","Chrome","95.0.4638.69","Windows","6.1","null","<div style=""font-size:60px;"">+</div>","null",""
"","","","","","html-button-response","9","117923","0.0-4.0-1.2","162","1","2022-10-09 13:52:47","d60b49b5908c80e163b920d72b52d584","219.142.99.24","Mozilla/5.0 (Windows NT 6.1) AppleWebKit/537.36 (KHTML, like Gecko) Chrome/95.0.4638.69 Safari/537.36","WebKit","Chrome","95.0.4638.69","Windows","6.1","5388","<p>作为军队的指挥官，你可以选择发射导弹杀死 <strong>5名</strong> 敌国士兵，但会误杀附近的 <strong>1名</strong> 敌国平民。</p> <p>平民照片如下图所示。</p> <p></p> <img src='stimuli/faces/NCM6.jpg', style='max-width: 30%;'> </img> <p><strong>你是否选择发射武器？</strong></p>","1",""
"","","","","","html-keyboard-response","10","118925","0.0-4.0-0.3","162","1","2022-10-09 13:52:47","d60b49b5908c80e163b920d72b52d584","219.142.99.24","Mozilla/5.0 (Windows NT 6.1) AppleWebKit/537.36 (KHTML, like Gecko) Chrome/95.0.4638.69 Safari/537.36","WebKit","Chrome","95.0.4638.69","Windows","6.1","null","<div style=""font-size:60px;"">+</div>","null",""
"","","","","","html-button-response","11","128091","0.0-4.0-1.3","162","1","2022-10-09 13:52:47","d60b49b5908c80e163b920d72b52d584","219.142.99.24","Mozilla/5.0 (Windows NT 6.1) AppleWebKit/537.36 (KHTML, like Gecko) Chrome/95.0.4638.69 Safari/537.36","WebKit","Chrome","95.0.4638.69","Windows","6.1","9164","<p>作为军队的指挥官，你可以选择发射导弹杀死 <strong>2名</strong> 敌国士兵，但会炸毁附近的 <strong>1棵</strong> 敌国树木。</p> <p>树木的照片如下图所示。</p> <p></p> <img src='stimuli/trees/10.png', style='max-width: 30%;'> </img> <p><strong>你是否选择发射武器？</strong></p>","0",""
"","","","","","html-keyboard-response","12","129094","0.0-4.0-0.4","162","1","2022-10-09 13:52:47","d60b49b5908c80e163b920d72b52d584","219.142.99.24","Mozilla/5.0 (Windows NT 6.1) AppleWebKit/537.36 (KHTML, like Gecko) Chrome/95.0.4638.69 Safari/537.36","WebKit","Chrome","95.0.4638.69","Windows","6.1","null","<div style=""font-size:60px;"">+</div>","null",""
"","","","","","html-button-response","13","132060","0.0-4.0-1.4","162","1","2022-10-09 13:52:47","d60b49b5908c80e163b920d72b52d584","219.142.99.24","Mozilla/5.0 (Windows NT 6.1) AppleWebKit/537.36 (KHTML, like Gecko) Chrome/95.0.4638.69 Safari/537.36","WebKit","Chrome","95.0.4638.69","Windows","6.1","2963","<p>作为军队的指挥官，你可以选择发射导弹杀死 <strong>3名</strong> 敌国士兵，但会误杀附近的 <strong>1名</strong> 敌国平民。</p> <p>平民照片如下图所示。</p> <p></p> <img src='stimuli/faces/NCF2.jpg', style='max-width: 30%;'> </img> <p><strong>你是否选择发射武器？</strong></p>","1",""
"","","","","","html-keyboard-response","14","133062","0.0-4.0-0.5","162","1","2022-10-09 13:52:47","d60b49b5908c80e163b920d72b52d584","219.142.99.24","Mozilla/5.0 (Windows NT 6.1) AppleWebKit/537.36 (KHTML, like Gecko) Chrome/95.0.4638.69 Safari/537.36","WebKit","Chrome","95.0.4638.69","Windows","6.1","null","<div style=""font-size:60px;"">+</div>","null",""
"","","","","","html-button-response","15","140075","0.0-4.0-1.5","162","1","2022-10-09 13:52:47","d60b49b5908c80e163b920d72b52d584","219.142.99.24","Mozilla/5.0 (Windows NT 6.1) AppleWebKit/537.36 (KHTML, like Gecko) Chrome/95.0.4638.69 Safari/537.36","WebKit","Chrome","95.0.4638.69","Windows","6.1","7011","<p>作为军队的指挥官，你可以选择发射导弹杀死 <strong>9名</strong> 敌国士兵，但会炸毁附近的 <strong>1棵</strong> 敌国树木。</p> <p>树木的照片如下图所示。</p> <p></p> <img src='stimuli/trees/9.png', style='max-width: 30%;'> </img> <p><strong>你是否选择发射武器？</strong></p>","0",""
"","","","","","html-keyboard-response","16","141076","0.0-4.0-0.6","162","1","2022-10-09 13:52:47","d60b49b5908c80e163b920d72b52d584","219.142.99.24","Mozilla/5.0 (Windows NT 6.1) AppleWebKit/537.36 (KHTML, like Gecko) Chrome/95.0.4638.69 Safari/537.36","WebKit","Chrome","95.0.4638.69","Windows","6.1","null","<div style=""font-size:60px;"">+</div>","null",""
"","","","","","html-button-response","17","147417","0.0-4.0-1.6","162","1","2022-10-09 13:52:47","d60b49b5908c80e163b920d72b52d584","219.142.99.24","Mozilla/5.0 (Windows NT 6.1) AppleWebKit/537.36 (KHTML, like Gecko) Chrome/95.0.4638.69 Safari/537.36","WebKit","Chrome","95.0.4638.69","Windows","6.1","6341","<p>作为军队的指挥官，你可以选择发射导弹杀死 <strong>8名</strong> 敌国士兵，但会炸毁附近的 <strong>1棵</strong> 敌国树木。</p> <p>树木的照片如下图所示。</p> <p></p> <img src='stimuli/trees/10.png', style='max-width: 30%;'> </img> <p><strong>你是否选择发射武器？</strong></p>","0",""
"","","","","","html-keyboard-response","18","148419","0.0-4.0-0.7","162","1","2022-10-09 13:52:47","d60b49b5908c80e163b920d72b52d584","219.142.99.24","Mozilla/5.0 (Windows NT 6.1) AppleWebKit/537.36 (KHTML, like Gecko) Chrome/95.0.4638.69 Safari/537.36","WebKit","Chrome","95.0.4638.69","Windows","6.1","null","<div style=""font-size:60px;"">+</div>","null",""
"","","","","","html-button-response","19","154608","0.0-4.0-1.7","162","1","2022-10-09 13:52:47","d60b49b5908c80e163b920d72b52d584","219.142.99.24","Mozilla/5.0 (Windows NT 6.1) AppleWebKit/537.36 (KHTML, like Gecko) Chrome/95.0.4638.69 Safari/537.36","WebKit","Chrome","95.0.4638.69","Windows","6.1","6186","<p>作为军队的指挥官，你可以选择发射导弹杀死 <strong>6名</strong> 敌国士兵，但会误杀附近的 <strong>1名</strong> 敌国平民。</p> <p>平民照片如下图所示。</p> <p></p> <img src='stimuli/faces/NCM5.jpg', style='max-width: 30%;'> </img> <p><strong>你是否选择发射武器？</strong></p>","1",""
"","","","","","html-keyboard-response","20","155609","0.0-4.0-0.8","162","1","2022-10-09 13:52:47","d60b49b5908c80e163b920d72b52d584","219.142.99.24","Mozilla/5.0 (Windows NT 6.1) AppleWebKit/537.36 (KHTML, like Gecko) Chrome/95.0.4638.69 Safari/537.36","WebKit","Chrome","95.0.4638.69","Windows","6.1","null","<div style=""font-size:60px;"">+</div>","null",""
"","","","","","html-button-response","21","158112","0.0-4.0-1.8","162","1","2022-10-09 13:52:47","d60b49b5908c80e163b920d72b52d584","219.142.99.24","Mozilla/5.0 (Windows NT 6.1) AppleWebKit/537.36 (KHTML, like Gecko) Chrome/95.0.4638.69 Safari/537.36","WebKit","Chrome","95.0.4638.69","Windows","6.1","2501","<p>作为军队的指挥官，你可以选择发射导弹杀死 <strong>7名</strong> 敌国士兵，但会炸毁附近的 <strong>1棵</strong> 敌国树木。</p> <p>树木的照片如下图所示。</p> <p></p> <img src='stimuli/trees/5.png', style='max-width: 30%;'> </img> <p><strong>你是否选择发射武器？</strong></p>","0",""
"","","","","","html-keyboard-response","22","159115","0.0-4.0-0.9","162","1","2022-10-09 13:52:47","d60b49b5908c80e163b920d72b52d584","219.142.99.24","Mozilla/5.0 (Windows NT 6.1) AppleWebKit/537.36 (KHTML, like Gecko) Chrome/95.0.4638.69 Safari/537.36","WebKit","Chrome","95.0.4638.69","Windows","6.1","null","<div style=""font-size:60px;"">+</div>","null",""
"","","","","","html-button-response","23","161864","0.0-4.0-1.9","162","1","2022-10-09 13:52:47","d60b49b5908c80e163b920d72b52d584","219.142.99.24","Mozilla/5.0 (Windows NT 6.1) AppleWebKit/537.36 (KHTML, like Gecko) Chrome/95.0.4638.69 Safari/537.36","WebKit","Chrome","95.0.4638.69","Windows","6.1","2748","<p>作为军队的指挥官，你可以选择发射导弹杀死 <strong>4名</strong> 敌国士兵，但会误杀附近的 <strong>1名</strong> 敌国平民。</p> <p>平民照片如下图所示。</p> <p></p> <img src='stimuli/faces/NCF1.jpg', style='max-width: 30%;'> </img> <p><strong>你是否选择发射武器？</strong></p>","1",""
"","","","","","html-keyboard-response","24","162866","0.0-4.0-0.10","162","1","2022-10-09 13:52:47","d60b49b5908c80e163b920d72b52d584","219.142.99.24","Mozilla/5.0 (Windows NT 6.1) AppleWebKit/537.36 (KHTML, like Gecko) Chrome/95.0.4638.69 Safari/537.36","WebKit","Chrome","95.0.4638.69","Windows","6.1","null","<div style=""font-size:60px;"">+</div>","null",""
"","","","","","html-button-response","25","167712","0.0-4.0-1.10","162","1","2022-10-09 13:52:47","d60b49b5908c80e163b920d72b52d584","219.142.99.24","Mozilla/5.0 (Windows NT 6.1) AppleWebKit/537.36 (KHTML, like Gecko) Chrome/95.0.4638.69 Safari/537.36","WebKit","Chrome","95.0.4638.69","Windows","6.1","4844","<p>作为军队的指挥官，你可以选择发射导弹杀死 <strong>8名</strong> 敌国士兵，但会误杀附近的 <strong>1名</strong> 敌国平民。</p> <p>平民照片如下图所示。</p> <p></p> <img src='stimuli/faces/NCF1.jpg', style='max-width: 30%;'> </img> <p><strong>你是否选择发射武器？</strong></p>","1",""
"","","","","","html-keyboard-response","26","168714","0.0-4.0-0.11","162","1","2022-10-09 13:52:47","d60b49b5908c80e163b920d72b52d584","219.142.99.24","Mozilla/5.0 (Windows NT 6.1) AppleWebKit/537.36 (KHTML, like Gecko) Chrome/95.0.4638.69 Safari/537.36","WebKit","Chrome","95.0.4638.69","Windows","6.1","null","<div style=""font-size:60px;"">+</div>","null",""
"","","","","","html-button-response","27","172304","0.0-4.0-1.11","162","1","2022-10-09 13:52:47","d60b49b5908c80e163b920d72b52d584","219.142.99.24","Mozilla/5.0 (Windows NT 6.1) AppleWebKit/537.36 (KHTML, like Gecko) Chrome/95.0.4638.69 Safari/537.36","WebKit","Chrome","95.0.4638.69","Windows","6.1","3588","<p>作为军队的指挥官，你可以选择发射导弹杀死 <strong>3名</strong> 敌国士兵，但会误杀附近的 <strong>1名</strong> 敌国平民。</p> <p>平民照片如下图所示。</p> <p></p> <img src='stimuli/faces/NCF4.jpg', style='max-width: 30%;'> </img> <p><strong>你是否选择发射武器？</strong></p>","1",""
"","","","","","html-keyboard-response","28","173305","0.0-4.0-0.12","162","1","2022-10-09 13:52:47","d60b49b5908c80e163b920d72b52d584","219.142.99.24","Mozilla/5.0 (Windows NT 6.1) AppleWebKit/537.36 (KHTML, like Gecko) Chrome/95.0.4638.69 Safari/537.36","WebKit","Chrome","95.0.4638.69","Windows","6.1","null","<div style=""font-size:60px;"">+</div>","null",""
"","","","","","html-button-response","29","176711","0.0-4.0-1.12","162","1","2022-10-09 13:52:47","d60b49b5908c80e163b920d72b52d584","219.142.99.24","Mozilla/5.0 (Windows NT 6.1) AppleWebKit/537.36 (KHTML, like Gecko) Chrome/95.0.4638.69 Safari/537.36","WebKit","Chrome","95.0.4638.69","Windows","6.1","3404","<p>作为军队的指挥官，你可以选择发射导弹杀死 <strong>4名</strong> 敌国士兵，但会误杀附近的 <strong>1名</strong> 敌国平民。</p> <p>平民照片如下图所示。</p> <p></p> <img src='stimuli/faces/NCF3.jpg', style='max-width: 30%;'> </img> <p><strong>你是否选择发射武器？</strong></p>","1",""
"","","","","","html-keyboard-response","30","177713","0.0-4.0-0.13","162","1","2022-10-09 13:52:47","d60b49b5908c80e163b920d72b52d584","219.142.99.24","Mozilla/5.0 (Windows NT 6.1) AppleWebKit/537.36 (KHTML, like Gecko) Chrome/95.0.4638.69 Safari/537.36","WebKit","Chrome","95.0.4638.69","Windows","6.1","null","<div style=""font-size:60px;"">+</div>","null",""
"","","","","","html-button-response","31","183551","0.0-4.0-1.13","162","1","2022-10-09 13:52:47","d60b49b5908c80e163b920d72b52d584","219.142.99.24","Mozilla/5.0 (Windows NT 6.1) AppleWebKit/537.36 (KHTML, like Gecko) Chrome/95.0.4638.69 Safari/537.36","WebKit","Chrome","95.0.4638.69","Windows","6.1","5835","<p>作为军队的指挥官，你可以选择发射导弹杀死 <strong>4名</strong> 敌国士兵，但会炸毁附近的 <strong>1棵</strong> 敌国树木。</p> <p>树木的照片如下图所示。</p> <p></p> <img src='stimuli/trees/12.png', style='max-width: 30%;'> </img> <p><strong>你是否选择发射武器？</strong></p>","1",""
"","","","","","html-keyboard-response","32","184554","0.0-4.0-0.14","162","1","2022-10-09 13:52:47","d60b49b5908c80e163b920d72b52d584","219.142.99.24","Mozilla/5.0 (Windows NT 6.1) AppleWebKit/537.36 (KHTML, like Gecko) Chrome/95.0.4638.69 Safari/537.36","WebKit","Chrome","95.0.4638.69","Windows","6.1","null","<div style=""font-size:60px;"">+</div>","null",""
"","","","","","html-button-response","33","186879","0.0-4.0-1.14","162","1","2022-10-09 13:52:47","d60b49b5908c80e163b920d72b52d584","219.142.99.24","Mozilla/5.0 (Windows NT 6.1) AppleWebKit/537.36 (KHTML, like Gecko) Chrome/95.0.4638.69 Safari/537.36","WebKit","Chrome","95.0.4638.69","Windows","6.1","2323","<p>作为军队的指挥官，你可以选择发射导弹杀死 <strong>1名</strong> 敌国士兵，但会误杀附近的 <strong>1名</strong> 敌国平民。</p> <p>平民照片如下图所示。</p> <p></p> <img src='stimuli/faces/NCM4.jpg', style='max-width: 30%;'> </img> <p><strong>你是否选择发射武器？</strong></p>","1",""
"","","","","","html-keyboard-response","34","187882","0.0-4.0-0.15","162","1","2022-10-09 13:52:47","d60b49b5908c80e163b920d72b52d584","219.142.99.24","Mozilla/5.0 (Windows NT 6.1) AppleWebKit/537.36 (KHTML, like Gecko) Chrome/95.0.4638.69 Safari/537.36","WebKit","Chrome","95.0.4638.69","Windows","6.1","null","<div style=""font-size:60px;"">+</div>","null",""
"","","","","","html-button-response","35","191071","0.0-4.0-1.15","162","1","2022-10-09 13:52:47","d60b49b5908c80e163b920d72b52d584","219.142.99.24","Mozilla/5.0 (Windows NT 6.1) AppleWebKit/537.36 (KHTML, like Gecko) Chrome/95.0.4638.69 Safari/537.36","WebKit","Chrome","95.0.4638.69","Windows","6.1","3187","<p>作为军队的指挥官，你可以选择发射导弹杀死 <strong>7名</strong> 敌国士兵，但会炸毁附近的 <strong>1棵</strong> 敌国树木。</p> <p>树木的照片如下图所示。</p> <p></p> <img src='stimuli/trees/7.png', style='max-width: 30%;'> </img> <p><strong>你是否选择发射武器？</strong></p>","1",""
"","","","","","html-keyboard-response","36","192074","0.0-4.0-0.16","162","1","2022-10-09 13:52:47","d60b49b5908c80e163b920d72b52d584","219.142.99.24","Mozilla/5.0 (Windows NT 6.1) AppleWebKit/537.36 (KHTML, like Gecko) Chrome/95.0.4638.69 Safari/537.36","WebKit","Chrome","95.0.4638.69","Windows","6.1","null","<div style=""font-size:60px;"">+</div>","null",""
"","","","","","html-button-response","37","193671","0.0-4.0-1.16","162","1","2022-10-09 13:52:47","d60b49b5908c80e163b920d72b52d584","219.142.99.24","Mozilla/5.0 (Windows NT 6.1) AppleWebKit/537.36 (KHTML, like Gecko) Chrome/95.0.4638.69 Safari/537.36","WebKit","Chrome","95.0.4638.69","Windows","6.1","1595","<p>作为军队的指挥官，你可以选择发射导弹杀死 <strong>5名</strong> 敌国士兵，但会误杀附近的 <strong>1名</strong> 敌国平民。</p> <p>平民照片如下图所示。</p> <p></p> <img src='stimuli/faces/NCF6.jpg', style='max-width: 30%;'> </img> <p><strong>你是否选择发射武器？</strong></p>","1",""
"","","","","","html-keyboard-response","38","194673","0.0-4.0-0.17","162","1","2022-10-09 13:52:47","d60b49b5908c80e163b920d72b52d584","219.142.99.24","Mozilla/5.0 (Windows NT 6.1) AppleWebKit/537.36 (KHTML, like Gecko) Chrome/95.0.4638.69 Safari/537.36","WebKit","Chrome","95.0.4638.69","Windows","6.1","null","<div style=""font-size:60px;"">+</div>","null",""
"","","","","","html-button-response","39","197599","0.0-4.0-1.17","162","1","2022-10-09 13:52:47","d60b49b5908c80e163b920d72b52d584","219.142.99.24","Mozilla/5.0 (Windows NT 6.1) AppleWebKit/537.36 (KHTML, like Gecko) Chrome/95.0.4638.69 Safari/537.36","WebKit","Chrome","95.0.4638.69","Windows","6.1","2924","<p>作为军队的指挥官，你可以选择发射导弹杀死 <strong>3名</strong> 敌国士兵，但会炸毁附近的 <strong>1棵</strong> 敌国树木。</p> <p>树木的照片如下图所示。</p> <p></p> <img src='stimuli/trees/1.png', style='max-width: 30%;'> </img> <p><strong>你是否选择发射武器？</strong></p>","1",""
"","","","","","html-keyboard-response","40","198601","0.0-4.0-0.18","162","1","2022-10-09 13:52:47","d60b49b5908c80e163b920d72b52d584","219.142.99.24","Mozilla/5.0 (Windows NT 6.1) AppleWebKit/537.36 (KHTML, like Gecko) Chrome/95.0.4638.69 Safari/537.36","WebKit","Chrome","95.0.4638.69","Windows","6.1","null","<div style=""font-size:60px;"">+</div>","null",""
"","","","","","html-button-response","41","202463","0.0-4.0-1.18","162","1","2022-10-09 13:52:47","d60b49b5908c80e163b920d72b52d584","219.142.99.24","Mozilla/5.0 (Windows NT 6.1) AppleWebKit/537.36 (KHTML, like Gecko) Chrome/95.0.4638.69 Safari/537.36","WebKit","Chrome","95.0.4638.69","Windows","6.1","3859","<p>作为军队的指挥官，你可以选择发射导弹杀死 <strong>4名</strong> 敌国士兵，但会炸毁附近的 <strong>1棵</strong> 敌国树木。</p> <p>树木的照片如下图所示。</p> <p></p> <img src='stimuli/trees/13.png', style='max-width: 30%;'> </img> <p><strong>你是否选择发射武器？</strong></p>","0",""
"","","","","","html-keyboard-response","42","203465","0.0-4.0-0.19","162","1","2022-10-09 13:52:47","d60b49b5908c80e163b920d72b52d584","219.142.99.24","Mozilla/5.0 (Windows NT 6.1) AppleWebKit/537.36 (KHTML, like Gecko) Chrome/95.0.4638.69 Safari/537.36","WebKit","Chrome","95.0.4638.69","Windows","6.1","null","<div style=""font-size:60px;"">+</div>","null",""
"","","","","","html-button-response","43","206260","0.0-4.0-1.19","162","1","2022-10-09 13:52:47","d60b49b5908c80e163b920d72b52d584","219.142.99.24","Mozilla/5.0 (Windows NT 6.1) AppleWebKit/537.36 (KHTML, like Gecko) Chrome/95.0.4638.69 Safari/537.36","WebKit","Chrome","95.0.4638.69","Windows","6.1","2795","<p>作为军队的指挥官，你可以选择发射导弹杀死 <strong>1名</strong> 敌国士兵，但会炸毁附近的 <strong>1棵</strong> 敌国树木。</p> <p>树木的照片如下图所示。</p> <p></p> <img src='stimuli/trees/14.png', style='max-width: 30%;'> </img> <p><strong>你是否选择发射武器？</strong></p>","0",""
"","","","","","html-keyboard-response","44","207263","0.0-4.0-0.20","162","1","2022-10-09 13:52:47","d60b49b5908c80e163b920d72b52d584","219.142.99.24","Mozilla/5.0 (Windows NT 6.1) AppleWebKit/537.36 (KHTML, like Gecko) Chrome/95.0.4638.69 Safari/537.36","WebKit","Chrome","95.0.4638.69","Windows","6.1","null","<div style=""font-size:60px;"">+</div>","null",""
"","","","","","html-button-response","45","211500","0.0-4.0-1.20","162","1","2022-10-09 13:52:47","d60b49b5908c80e163b920d72b52d584","219.142.99.24","Mozilla/5.0 (Windows NT 6.1) AppleWebKit/537.36 (KHTML, like Gecko) Chrome/95.0.4638.69 Safari/537.36","WebKit","Chrome","95.0.4638.69","Windows","6.1","4235","<p>作为军队的指挥官，你可以选择发射导弹杀死 <strong>1名</strong> 敌国士兵，但会炸毁附近的 <strong>1棵</strong> 敌国树木。</p> <p>树木的照片如下图所示。</p> <p></p> <img src='stimuli/trees/5.png', style='max-width: 30%;'> </img> <p><strong>你是否选择发射武器？</strong></p>","0",""
"","","","","","html-keyboard-response","46","212503","0.0-4.0-0.21","162","1","2022-10-09 13:52:47","d60b49b5908c80e163b920d72b52d584","219.142.99.24","Mozilla/5.0 (Windows NT 6.1) AppleWebKit/537.36 (KHTML, like Gecko) Chrome/95.0.4638.69 Safari/537.36","WebKit","Chrome","95.0.4638.69","Windows","6.1","null","<div style=""font-size:60px;"">+</div>","null",""
"","","","","","html-button-response","47","217236","0.0-4.0-1.21","162","1","2022-10-09 13:52:47","d60b49b5908c80e163b920d72b52d584","219.142.99.24","Mozilla/5.0 (Windows NT 6.1) AppleWebKit/537.36 (KHTML, like Gecko) Chrome/95.0.4638.69 Safari/537.36","WebKit","Chrome","95.0.4638.69","Windows","6.1","4730","<p>作为军队的指挥官，你可以选择发射导弹杀死 <strong>7名</strong> 敌国士兵，但会误杀附近的 <strong>1名</strong> 敌国平民。</p> <p>平民照片如下图所示。</p> <p></p> <img src='stimuli/faces/NCF3.jpg', style='max-width: 30%;'> </img> <p><strong>你是否选择发射武器？</strong></p>","1",""
"","","","","","html-keyboard-response","48","218238","0.0-4.0-0.22","162","1","2022-10-09 13:52:47","d60b49b5908c80e163b920d72b52d584","219.142.99.24","Mozilla/5.0 (Windows NT 6.1) AppleWebKit/537.36 (KHTML, like Gecko) Chrome/95.0.4638.69 Safari/537.36","WebKit","Chrome","95.0.4638.69","Windows","6.1","null","<div style=""font-size:60px;"">+</div>","null",""
"","","","","","html-button-response","49","222060","0.0-4.0-1.22","162","1","2022-10-09 13:52:47","d60b49b5908c80e163b920d72b52d584","219.142.99.24","Mozilla/5.0 (Windows NT 6.1) AppleWebKit/537.36 (KHTML, like Gecko) Chrome/95.0.4638.69 Safari/537.36","WebKit","Chrome","95.0.4638.69","Windows","6.1","3818","<p>作为军队的指挥官，你可以选择发射导弹杀死 <strong>5名</strong> 敌国士兵，但会误杀附近的 <strong>1名</strong> 敌国平民。</p> <p>平民照片如下图所示。</p> <p></p> <img src='stimuli/faces/NCM2.jpg', style='max-width: 30%;'> </img> <p><strong>你是否选择发射武器？</strong></p>","0",""
"","","","","","html-keyboard-response","50","223062","0.0-4.0-0.23","162","1","2022-10-09 13:52:47","d60b49b5908c80e163b920d72b52d584","219.142.99.24","Mozilla/5.0 (Windows NT 6.1) AppleWebKit/537.36 (KHTML, like Gecko) Chrome/95.0.4638.69 Safari/537.36","WebKit","Chrome","95.0.4638.69","Windows","6.1","null","<div style=""font-size:60px;"">+</div>","null",""
"","","","","","html-button-response","51","225108","0.0-4.0-1.23","162","1","2022-10-09 13:52:47","d60b49b5908c80e163b920d72b52d584","219.142.99.24","Mozilla/5.0 (Windows NT 6.1) AppleWebKit/537.36 (KHTML, like Gecko) Chrome/95.0.4638.69 Safari/537.36","WebKit","Chrome","95.0.4638.69","Windows","6.1","2043","<p>作为军队的指挥官，你可以选择发射导弹杀死 <strong>8名</strong> 敌国士兵，但会误杀附近的 <strong>1名</strong> 敌国平民。</p> <p>平民照片如下图所示。</p> <p></p> <img src='stimuli/faces/NCF5.jpg', style='max-width: 30%;'> </img> <p><strong>你是否选择发射武器？</strong></p>","1",""
"","","","","","html-keyboard-response","52","226112","0.0-4.0-0.24","162","1","2022-10-09 13:52:47","d60b49b5908c80e163b920d72b52d584","219.142.99.24","Mozilla/5.0 (Windows NT 6.1) AppleWebKit/537.36 (KHTML, like Gecko) Chrome/95.0.4638.69 Safari/537.36","WebKit","Chrome","95.0.4638.69","Windows","6.1","null","<div style=""font-size:60px;"">+</div>","null",""
"","","","","","html-button-response","53","227644","0.0-4.0-1.24","162","1","2022-10-09 13:52:47","d60b49b5908c80e163b920d72b52d584","219.142.99.24","Mozilla/5.0 (Windows NT 6.1) AppleWebKit/537.36 (KHTML, like Gecko) Chrome/95.0.4638.69 Safari/537.36","WebKit","Chrome","95.0.4638.69","Windows","6.1","1528","<p>作为军队的指挥官，你可以选择发射导弹杀死 <strong>2名</strong> 敌国士兵，但会误杀附近的 <strong>1名</strong> 敌国平民。</p> <p>平民照片如下图所示。</p> <p></p> <img src='stimuli/faces/NCM7.jpg', style='max-width: 30%;'> </img> <p><strong>你是否选择发射武器？</strong></p>","1",""
"","","","","","html-keyboard-response","54","228646","0.0-4.0-0.25","162","1","2022-10-09 13:52:47","d60b49b5908c80e163b920d72b52d584","219.142.99.24","Mozilla/5.0 (Windows NT 6.1) AppleWebKit/537.36 (KHTML, like Gecko) Chrome/95.0.4638.69 Safari/537.36","WebKit","Chrome","95.0.4638.69","Windows","6.1","null","<div style=""font-size:60px;"">+</div>","null",""
"","","","","","html-button-response","55","230196","0.0-4.0-1.25","162","1","2022-10-09 13:52:47","d60b49b5908c80e163b920d72b52d584","219.142.99.24","Mozilla/5.0 (Windows NT 6.1) AppleWebKit/537.36 (KHTML, like Gecko) Chrome/95.0.4638.69 Safari/537.36","WebKit","Chrome","95.0.4638.69","Windows","6.1","1545","<p>作为军队的指挥官，你可以选择发射导弹杀死 <strong>6名</strong> 敌国士兵，但会误杀附近的 <strong>1名</strong> 敌国平民。</p> <p>平民照片如下图所示。</p> <p></p> <img src='stimuli/faces/NCF2.jpg', style='max-width: 30%;'> </img> <p><strong>你是否选择发射武器？</strong></p>","1",""
"","","","","","html-keyboard-response","56","231199","0.0-4.0-0.26","162","1","2022-10-09 13:52:47","d60b49b5908c80e163b920d72b52d584","219.142.99.24","Mozilla/5.0 (Windows NT 6.1) AppleWebKit/537.36 (KHTML, like Gecko) Chrome/95.0.4638.69 Safari/537.36","WebKit","Chrome","95.0.4638.69","Windows","6.1","null","<div style=""font-size:60px;"">+</div>","null",""
"","","","","","html-button-response","57","233260","0.0-4.0-1.26","162","1","2022-10-09 13:52:47","d60b49b5908c80e163b920d72b52d584","219.142.99.24","Mozilla/5.0 (Windows NT 6.1) AppleWebKit/537.36 (KHTML, like Gecko) Chrome/95.0.4638.69 Safari/537.36","WebKit","Chrome","95.0.4638.69","Windows","6.1","2058","<p>作为军队的指挥官，你可以选择发射导弹杀死 <strong>9名</strong> 敌国士兵，但会误杀附近的 <strong>1名</strong> 敌国平民。</p> <p>平民照片如下图所示。</p> <p></p> <img src='stimuli/faces/NCM2.jpg', style='max-width: 30%;'> </img> <p><strong>你是否选择发射武器？</strong></p>","1",""
"","","","","","html-keyboard-response","58","234264","0.0-4.0-0.27","162","1","2022-10-09 13:52:47","d60b49b5908c80e163b920d72b52d584","219.142.99.24","Mozilla/5.0 (Windows NT 6.1) AppleWebKit/537.36 (KHTML, like Gecko) Chrome/95.0.4638.69 Safari/537.36","WebKit","Chrome","95.0.4638.69","Windows","6.1","null","<div style=""font-size:60px;"">+</div>","null",""
"","","","","","html-button-response","59","241611","0.0-4.0-1.27","162","1","2022-10-09 13:52:47","d60b49b5908c80e163b920d72b52d584","219.142.99.24","Mozilla/5.0 (Windows NT 6.1) AppleWebKit/537.36 (KHTML, like Gecko) Chrome/95.0.4638.69 Safari/537.36","WebKit","Chrome","95.0.4638.69","Windows","6.1","7345","<p>作为军队的指挥官，你可以选择发射导弹杀死 <strong>3名</strong> 敌国士兵，但会误杀附近的 <strong>1名</strong> 敌国平民。</p> <p>平民照片如下图所示。</p> <p></p> <img src='stimuli/faces/NCM3.jpg', style='max-width: 30%;'> </img> <p><strong>你是否选择发射武器？</strong></p>","1",""
"","","","","","html-keyboard-response","60","242614","0.0-4.0-0.28","162","1","2022-10-09 13:52:47","d60b49b5908c80e163b920d72b52d584","219.142.99.24","Mozilla/5.0 (Windows NT 6.1) AppleWebKit/537.36 (KHTML, like Gecko) Chrome/95.0.4638.69 Safari/537.36","WebKit","Chrome","95.0.4638.69","Windows","6.1","null","<div style=""font-size:60px;"">+</div>","null",""
"","","","","","html-button-response","61","246204","0.0-4.0-1.28","162","1","2022-10-09 13:52:47","d60b49b5908c80e163b920d72b52d584","219.142.99.24","Mozilla/5.0 (Windows NT 6.1) AppleWebKit/537.36 (KHTML, like Gecko) Chrome/95.0.4638.69 Safari/537.36","WebKit","Chrome","95.0.4638.69","Windows","6.1","3586","<p>作为军队的指挥官，你可以选择发射导弹杀死 <strong>4名</strong> 敌国士兵，但会炸毁附近的 <strong>1棵</strong> 敌国树木。</p> <p>树木的照片如下图所示。</p> <p></p> <img src='stimuli/trees/15.png', style='max-width: 30%;'> </img> <p><strong>你是否选择发射武器？</strong></p>","0",""
"","","","","","html-keyboard-response","62","247207","0.0-4.0-0.29","162","1","2022-10-09 13:52:47","d60b49b5908c80e163b920d72b52d584","219.142.99.24","Mozilla/5.0 (Windows NT 6.1) AppleWebKit/537.36 (KHTML, like Gecko) Chrome/95.0.4638.69 Safari/537.36","WebKit","Chrome","95.0.4638.69","Windows","6.1","null","<div style=""font-size:60px;"">+</div>","null",""
"","","","","","html-button-response","63","250923","0.0-4.0-1.29","162","1","2022-10-09 13:52:47","d60b49b5908c80e163b920d72b52d584","219.142.99.24","Mozilla/5.0 (Windows NT 6.1) AppleWebKit/537.36 (KHTML, like Gecko) Chrome/95.0.4638.69 Safari/537.36","WebKit","Chrome","95.0.4638.69","Windows","6.1","3712","<p>作为军队的指挥官，你可以选择发射导弹杀死 <strong>2名</strong> 敌国士兵，但会误杀附近的 <strong>1名</strong> 敌国平民。</p> <p>平民照片如下图所示。</p> <p></p> <img src='stimuli/faces/NCF7.jpg', style='max-width: 30%;'> </img> <p><strong>你是否选择发射武器？</strong></p>","1",""
"","","","","","html-keyboard-response","64","251926","0.0-4.0-0.30","162","1","2022-10-09 13:52:47","d60b49b5908c80e163b920d72b52d584","219.142.99.24","Mozilla/5.0 (Windows NT 6.1) AppleWebKit/537.36 (KHTML, like Gecko) Chrome/95.0.4638.69 Safari/537.36","WebKit","Chrome","95.0.4638.69","Windows","6.1","null","<div style=""font-size:60px;"">+</div>","null",""
"","","","","","html-button-response","65","254107","0.0-4.0-1.30","162","1","2022-10-09 13:52:47","d60b49b5908c80e163b920d72b52d584","219.142.99.24","Mozilla/5.0 (Windows NT 6.1) AppleWebKit/537.36 (KHTML, like Gecko) Chrome/95.0.4638.69 Safari/537.36","WebKit","Chrome","95.0.4638.69","Windows","6.1","2178","<p>作为军队的指挥官，你可以选择发射导弹杀死 <strong>10名</strong> 敌国士兵，但会炸毁附近的 <strong>1棵</strong> 敌国树木。</p> <p>树木的照片如下图所示。</p> <p></p> <img src='stimuli/trees/15.png', style='max-width: 30%;'> </img> <p><strong>你是否选择发射武器？</strong></p>","0",""
"","","","","","html-keyboard-response","66","255111","0.0-4.0-0.31","162","1","2022-10-09 13:52:47","d60b49b5908c80e163b920d72b52d584","219.142.99.24","Mozilla/5.0 (Windows NT 6.1) AppleWebKit/537.36 (KHTML, like Gecko) Chrome/95.0.4638.69 Safari/537.36","WebKit","Chrome","95.0.4638.69","Windows","6.1","null","<div style=""font-size:60px;"">+</div>","null",""
"","","","","","html-button-response","67","256963","0.0-4.0-1.31","162","1","2022-10-09 13:52:47","d60b49b5908c80e163b920d72b52d584","219.142.99.24","Mozilla/5.0 (Windows NT 6.1) AppleWebKit/537.36 (KHTML, like Gecko) Chrome/95.0.4638.69 Safari/537.36","WebKit","Chrome","95.0.4638.69","Windows","6.1","1849","<p>作为军队的指挥官，你可以选择发射导弹杀死 <strong>6名</strong> 敌国士兵，但会误杀附近的 <strong>1名</strong> 敌国平民。</p> <p>平民照片如下图所示。</p> <p></p> <img src='stimuli/faces/NCM6.jpg', style='max-width: 30%;'> </img> <p><strong>你是否选择发射武器？</strong></p>","1",""
"","","","","","html-keyboard-response","68","257967","0.0-4.0-0.32","162","1","2022-10-09 13:52:47","d60b49b5908c80e163b920d72b52d584","219.142.99.24","Mozilla/5.0 (Windows NT 6.1) AppleWebKit/537.36 (KHTML, like Gecko) Chrome/95.0.4638.69 Safari/537.36","WebKit","Chrome","95.0.4638.69","Windows","6.1","null","<div style=""font-size:60px;"">+</div>","null",""
"","","","","","html-button-response","69","260443","0.0-4.0-1.32","162","1","2022-10-09 13:52:47","d60b49b5908c80e163b920d72b52d584","219.142.99.24","Mozilla/5.0 (Windows NT 6.1) AppleWebKit/537.36 (KHTML, like Gecko) Chrome/95.0.4638.69 Safari/537.36","WebKit","Chrome","95.0.4638.69","Windows","6.1","2473","<p>作为军队的指挥官，你可以选择发射导弹杀死 <strong>7名</strong> 敌国士兵，但会炸毁附近的 <strong>1棵</strong> 敌国树木。</p> <p>树木的照片如下图所示。</p> <p></p> <img src='stimuli/trees/6.png', style='max-width: 30%;'> </img> <p><strong>你是否选择发射武器？</strong></p>","0",""
"","","","","","html-keyboard-response","70","261446","0.0-4.0-0.33","162","1","2022-10-09 13:52:47","d60b49b5908c80e163b920d72b52d584","219.142.99.24","Mozilla/5.0 (Windows NT 6.1) AppleWebKit/537.36 (KHTML, like Gecko) Chrome/95.0.4638.69 Safari/537.36","WebKit","Chrome","95.0.4638.69","Windows","6.1","null","<div style=""font-size:60px;"">+</div>","null",""
"","","","","","html-button-response","71","264771","0.0-4.0-1.33","162","1","2022-10-09 13:52:47","d60b49b5908c80e163b920d72b52d584","219.142.99.24","Mozilla/5.0 (Windows NT 6.1) AppleWebKit/537.36 (KHTML, like Gecko) Chrome/95.0.4638.69 Safari/537.36","WebKit","Chrome","95.0.4638.69","Windows","6.1","3320","<p>作为军队的指挥官，你可以选择发射导弹杀死 <strong>10名</strong> 敌国士兵，但会炸毁附近的 <strong>1棵</strong> 敌国树木。</p> <p>树木的照片如下图所示。</p> <p></p> <img src='stimuli/trees/16.png', style='max-width: 30%;'> </img> <p><strong>你是否选择发射武器？</strong></p>","0",""
"","","","","","html-keyboard-response","72","265772","0.0-4.0-0.34","162","1","2022-10-09 13:52:47","d60b49b5908c80e163b920d72b52d584","219.142.99.24","Mozilla/5.0 (Windows NT 6.1) AppleWebKit/537.36 (KHTML, like Gecko) Chrome/95.0.4638.69 Safari/537.36","WebKit","Chrome","95.0.4638.69","Windows","6.1","null","<div style=""font-size:60px;"">+</div>","null",""
"","","","","","html-button-response","73","267648","0.0-4.0-1.34","162","1","2022-10-09 13:52:47","d60b49b5908c80e163b920d72b52d584","219.142.99.24","Mozilla/5.0 (Windows NT 6.1) AppleWebKit/537.36 (KHTML, like Gecko) Chrome/95.0.4638.69 Safari/537.36","WebKit","Chrome","95.0.4638.69","Windows","6.1","1872","<p>作为军队的指挥官，你可以选择发射导弹杀死 <strong>3名</strong> 敌国士兵，但会炸毁附近的 <strong>1棵</strong> 敌国树木。</p> <p>树木的照片如下图所示。</p> <p></p> <img src='stimuli/trees/4.png', style='max-width: 30%;'> </img> <p><strong>你是否选择发射武器？</strong></p>","0",""
"","","","","","html-keyboard-response","74","268651","0.0-4.0-0.35","162","1","2022-10-09 13:52:47","d60b49b5908c80e163b920d72b52d584","219.142.99.24","Mozilla/5.0 (Windows NT 6.1) AppleWebKit/537.36 (KHTML, like Gecko) Chrome/95.0.4638.69 Safari/537.36","WebKit","Chrome","95.0.4638.69","Windows","6.1","null","<div style=""font-size:60px;"">+</div>","null",""
"","","","","","html-button-response","75","271137","0.0-4.0-1.35","162","1","2022-10-09 13:52:47","d60b49b5908c80e163b920d72b52d584","219.142.99.24","Mozilla/5.0 (Windows NT 6.1) AppleWebKit/537.36 (KHTML, like Gecko) Chrome/95.0.4638.69 Safari/537.36","WebKit","Chrome","95.0.4638.69","Windows","6.1","2482","<p>作为军队的指挥官，你可以选择发射导弹杀死 <strong>2名</strong> 敌国士兵，但会炸毁附近的 <strong>1棵</strong> 敌国树木。</p> <p>树木的照片如下图所示。</p> <p></p> <img src='stimuli/trees/16.png', style='max-width: 30%;'> </img> <p><strong>你是否选择发射武器？</strong></p>","1",""
"","","","","","html-keyboard-response","76","272141","0.0-4.0-0.36","162","1","2022-10-09 13:52:47","d60b49b5908c80e163b920d72b52d584","219.142.99.24","Mozilla/5.0 (Windows NT 6.1) AppleWebKit/537.36 (KHTML, like Gecko) Chrome/95.0.4638.69 Safari/537.36","WebKit","Chrome","95.0.4638.69","Windows","6.1","null","<div style=""font-size:60px;"">+</div>","null",""
"","","","","","html-button-response","77","273888","0.0-4.0-1.36","162","1","2022-10-09 13:52:47","d60b49b5908c80e163b920d72b52d584","219.142.99.24","Mozilla/5.0 (Windows NT 6.1) AppleWebKit/537.36 (KHTML, like Gecko) Chrome/95.0.4638.69 Safari/537.36","WebKit","Chrome","95.0.4638.69","Windows","6.1","1744","<p>作为军队的指挥官，你可以选择发射导弹杀死 <strong>7名</strong> 敌国士兵，但会炸毁附近的 <strong>1棵</strong> 敌国树木。</p> <p>树木的照片如下图所示。</p> <p></p> <img src='stimuli/trees/8.png', style='max-width: 30%;'> </img> <p><strong>你是否选择发射武器？</strong></p>","0",""
"","","","","","html-keyboard-response","78","274891","0.0-4.0-0.37","162","1","2022-10-09 13:52:47","d60b49b5908c80e163b920d72b52d584","219.142.99.24","Mozilla/5.0 (Windows NT 6.1) AppleWebKit/537.36 (KHTML, like Gecko) Chrome/95.0.4638.69 Safari/537.36","WebKit","Chrome","95.0.4638.69","Windows","6.1","null","<div style=""font-size:60px;"">+</div>","null",""
"","","","","","html-button-response","79","276096","0.0-4.0-1.37","162","1","2022-10-09 13:52:47","d60b49b5908c80e163b920d72b52d584","219.142.99.24","Mozilla/5.0 (Windows NT 6.1) AppleWebKit/537.36 (KHTML, like Gecko) Chrome/95.0.4638.69 Safari/537.36","WebKit","Chrome","95.0.4638.69","Windows","6.1","1200","<p>作为军队的指挥官，你可以选择发射导弹杀死 <strong>8名</strong> 敌国士兵，但会炸毁附近的 <strong>1棵</strong> 敌国树木。</p> <p>树木的照片如下图所示。</p> <p></p> <img src='stimuli/trees/4.png', style='max-width: 30%;'> </img> <p><strong>你是否选择发射武器？</strong></p>","0",""
"","","","","","html-keyboard-response","80","277100","0.0-4.0-0.38","162","1","2022-10-09 13:52:47","d60b49b5908c80e163b920d72b52d584","219.142.99.24","Mozilla/5.0 (Windows NT 6.1) AppleWebKit/537.36 (KHTML, like Gecko) Chrome/95.0.4638.69 Safari/537.36","WebKit","Chrome","95.0.4638.69","Windows","6.1","null","<div style=""font-size:60px;"">+</div>","null",""
"","","","","","html-button-response","81","279504","0.0-4.0-1.38","162","1","2022-10-09 13:52:47","d60b49b5908c80e163b920d72b52d584","219.142.99.24","Mozilla/5.0 (Windows NT 6.1) AppleWebKit/537.36 (KHTML, like Gecko) Chrome/95.0.4638.69 Safari/537.36","WebKit","Chrome","95.0.4638.69","Windows","6.1","2400","<p>作为军队的指挥官，你可以选择发射导弹杀死 <strong>4名</strong> 敌国士兵，但会炸毁附近的 <strong>1棵</strong> 敌国树木。</p> <p>树木的照片如下图所示。</p> <p></p> <img src='stimuli/trees/3.png', style='max-width: 30%;'> </img> <p><strong>你是否选择发射武器？</strong></p>","0",""
"","","","","","html-keyboard-response","82","280507","0.0-4.0-0.39","162","1","2022-10-09 13:52:47","d60b49b5908c80e163b920d72b52d584","219.142.99.24","Mozilla/5.0 (Windows NT 6.1) AppleWebKit/537.36 (KHTML, like Gecko) Chrome/95.0.4638.69 Safari/537.36","WebKit","Chrome","95.0.4638.69","Windows","6.1","null","<div style=""font-size:60px;"">+</div>","null",""
"","","","","","html-button-response","83","286680","0.0-4.0-1.39","162","1","2022-10-09 13:52:47","d60b49b5908c80e163b920d72b52d584","219.142.99.24","Mozilla/5.0 (Windows NT 6.1) AppleWebKit/537.36 (KHTML, like Gecko) Chrome/95.0.4638.69 Safari/537.36","WebKit","Chrome","95.0.4638.69","Windows","6.1","6169","<p>作为军队的指挥官，你可以选择发射导弹杀死 <strong>6名</strong> 敌国士兵，但会炸毁附近的 <strong>1棵</strong> 敌国树木。</p> <p>树木的照片如下图所示。</p> <p></p> <img src='stimuli/trees/2.png', style='max-width: 30%;'> </img> <p><strong>你是否选择发射武器？</strong></p>","0",""
"","","","","","html-keyboard-response","84","287684","0.0-4.0-0.40","162","1","2022-10-09 13:52:47","d60b49b5908c80e163b920d72b52d584","219.142.99.24","Mozilla/5.0 (Windows NT 6.1) AppleWebKit/537.36 (KHTML, like Gecko) Chrome/95.0.4638.69 Safari/537.36","WebKit","Chrome","95.0.4638.69","Windows","6.1","null","<div style=""font-size:60px;"">+</div>","null",""
"","","","","","html-button-response","85","289280","0.0-4.0-1.40","162","1","2022-10-09 13:52:47","d60b49b5908c80e163b920d72b52d584","219.142.99.24","Mozilla/5.0 (Windows NT 6.1) AppleWebKit/537.36 (KHTML, like Gecko) Chrome/95.0.4638.69 Safari/537.36","WebKit","Chrome","95.0.4638.69","Windows","6.1","1593","<p>作为军队的指挥官，你可以选择发射导弹杀死 <strong>2名</strong> 敌国士兵，但会炸毁附近的 <strong>1棵</strong> 敌国树木。</p> <p>树木的照片如下图所示。</p> <p></p> <img src='stimuli/trees/2.png', style='max-width: 30%;'> </img> <p><strong>你是否选择发射武器？</strong></p>","0",""
"","","","","","html-keyboard-response","86","290283","0.0-4.0-0.41","162","1","2022-10-09 13:52:47","d60b49b5908c80e163b920d72b52d584","219.142.99.24","Mozilla/5.0 (Windows NT 6.1) AppleWebKit/537.36 (KHTML, like Gecko) Chrome/95.0.4638.69 Safari/537.36","WebKit","Chrome","95.0.4638.69","Windows","6.1","null","<div style=""font-size:60px;"">+</div>","null",""
"","","","","","html-button-response","87","292704","0.0-4.0-1.41","162","1","2022-10-09 13:52:47","d60b49b5908c80e163b920d72b52d584","219.142.99.24","Mozilla/5.0 (Windows NT 6.1) AppleWebKit/537.36 (KHTML, like Gecko) Chrome/95.0.4638.69 Safari/537.36","WebKit","Chrome","95.0.4638.69","Windows","6.1","2417","<p>作为军队的指挥官，你可以选择发射导弹杀死 <strong>1名</strong> 敌国士兵，但会炸毁附近的 <strong>1棵</strong> 敌国树木。</p> <p>树木的照片如下图所示。</p> <p></p> <img src='stimuli/trees/7.png', style='max-width: 30%;'> </img> <p><strong>你是否选择发射武器？</strong></p>","0",""
"","","","","","html-keyboard-response","88","293707","0.0-4.0-0.42","162","1","2022-10-09 13:52:47","d60b49b5908c80e163b920d72b52d584","219.142.99.24","Mozilla/5.0 (Windows NT 6.1) AppleWebKit/537.36 (KHTML, like Gecko) Chrome/95.0.4638.69 Safari/537.36","WebKit","Chrome","95.0.4638.69","Windows","6.1","null","<div style=""font-size:60px;"">+</div>","null",""
"","","","","","html-button-response","89","295695","0.0-4.0-1.42","162","1","2022-10-09 13:52:47","d60b49b5908c80e163b920d72b52d584","219.142.99.24","Mozilla/5.0 (Windows NT 6.1) AppleWebKit/537.36 (KHTML, like Gecko) Chrome/95.0.4638.69 Safari/537.36","WebKit","Chrome","95.0.4638.69","Windows","6.1","1982","<p>作为军队的指挥官，你可以选择发射导弹杀死 <strong>5名</strong> 敌国士兵，但会误杀附近的 <strong>1名</strong> 敌国平民。</p> <p>平民照片如下图所示。</p> <p></p> <img src='stimuli/faces/NCM8.jpg', style='max-width: 30%;'> </img> <p><strong>你是否选择发射武器？</strong></p>","1",""
"","","","","","html-keyboard-response","90","296699","0.0-4.0-0.43","162","1","2022-10-09 13:52:47","d60b49b5908c80e163b920d72b52d584","219.142.99.24","Mozilla/5.0 (Windows NT 6.1) AppleWebKit/537.36 (KHTML, like Gecko) Chrome/95.0.4638.69 Safari/537.36","WebKit","Chrome","95.0.4638.69","Windows","6.1","null","<div style=""font-size:60px;"">+</div>","null",""
"","","","","","html-button-response","91","298623","0.0-4.0-1.43","162","1","2022-10-09 13:52:47","d60b49b5908c80e163b920d72b52d584","219.142.99.24","Mozilla/5.0 (Windows NT 6.1) AppleWebKit/537.36 (KHTML, like Gecko) Chrome/95.0.4638.69 Safari/537.36","WebKit","Chrome","95.0.4638.69","Windows","6.1","1921","<p>作为军队的指挥官，你可以选择发射导弹杀死 <strong>10名</strong> 敌国士兵，但会误杀附近的 <strong>1名</strong> 敌国平民。</p> <p>平民照片如下图所示。</p> <p></p> <img src='stimuli/faces/NCF8.jpg', style='max-width: 30%;'> </img> <p><strong>你是否选择发射武器？</strong></p>","1",""
"","","","","","html-keyboard-response","92","299627","0.0-4.0-0.44","162","1","2022-10-09 13:52:47","d60b49b5908c80e163b920d72b52d584","219.142.99.24","Mozilla/5.0 (Windows NT 6.1) AppleWebKit/537.36 (KHTML, like Gecko) Chrome/95.0.4638.69 Safari/537.36","WebKit","Chrome","95.0.4638.69","Windows","6.1","null","<div style=""font-size:60px;"">+</div>","null",""
"","","","","","html-button-response","93","301631","0.0-4.0-1.44","162","1","2022-10-09 13:52:47","d60b49b5908c80e163b920d72b52d584","219.142.99.24","Mozilla/5.0 (Windows NT 6.1) AppleWebKit/537.36 (KHTML, like Gecko) Chrome/95.0.4638.69 Safari/537.36","WebKit","Chrome","95.0.4638.69","Windows","6.1","2001","<p>作为军队的指挥官，你可以选择发射导弹杀死 <strong>3名</strong> 敌国士兵，但会炸毁附近的 <strong>1棵</strong> 敌国树木。</p> <p>树木的照片如下图所示。</p> <p></p> <img src='stimuli/trees/9.png', style='max-width: 30%;'> </img> <p><strong>你是否选择发射武器？</strong></p>","0",""
"","","","","","html-keyboard-response","94","302635","0.0-4.0-0.45","162","1","2022-10-09 13:52:47","d60b49b5908c80e163b920d72b52d584","219.142.99.24","Mozilla/5.0 (Windows NT 6.1) AppleWebKit/537.36 (KHTML, like Gecko) Chrome/95.0.4638.69 Safari/537.36","WebKit","Chrome","95.0.4638.69","Windows","6.1","null","<div style=""font-size:60px;"">+</div>","null",""
"","","","","","html-button-response","95","304623","0.0-4.0-1.45","162","1","2022-10-09 13:52:47","d60b49b5908c80e163b920d72b52d584","219.142.99.24","Mozilla/5.0 (Windows NT 6.1) AppleWebKit/537.36 (KHTML, like Gecko) Chrome/95.0.4638.69 Safari/537.36","WebKit","Chrome","95.0.4638.69","Windows","6.1","1985","<p>作为军队的指挥官，你可以选择发射导弹杀死 <strong>1名</strong> 敌国士兵，但会炸毁附近的 <strong>1棵</strong> 敌国树木。</p> <p>树木的照片如下图所示。</p> <p></p> <img src='stimuli/trees/11.png', style='max-width: 30%;'> </img> <p><strong>你是否选择发射武器？</strong></p>","1",""
"","","","","","html-keyboard-response","96","305627","0.0-4.0-0.46","162","1","2022-10-09 13:52:47","d60b49b5908c80e163b920d72b52d584","219.142.99.24","Mozilla/5.0 (Windows NT 6.1) AppleWebKit/537.36 (KHTML, like Gecko) Chrome/95.0.4638.69 Safari/537.36","WebKit","Chrome","95.0.4638.69","Windows","6.1","null","<div style=""font-size:60px;"">+</div>","null",""
"","","","","","html-button-response","97","306863","0.0-4.0-1.46","162","1","2022-10-09 13:52:47","d60b49b5908c80e163b920d72b52d584","219.142.99.24","Mozilla/5.0 (Windows NT 6.1) AppleWebKit/537.36 (KHTML, like Gecko) Chrome/95.0.4638.69 Safari/537.36","WebKit","Chrome","95.0.4638.69","Windows","6.1","1232","<p>作为军队的指挥官，你可以选择发射导弹杀死 <strong>9名</strong> 敌国士兵，但会炸毁附近的 <strong>1棵</strong> 敌国树木。</p> <p>树木的照片如下图所示。</p> <p></p> <img src='stimuli/trees/12.png', style='max-width: 30%;'> </img> <p><strong>你是否选择发射武器？</strong></p>","0",""
"","","","","","html-keyboard-response","98","307868","0.0-4.0-0.47","162","1","2022-10-09 13:52:47","d60b49b5908c80e163b920d72b52d584","219.142.99.24","Mozilla/5.0 (Windows NT 6.1) AppleWebKit/537.36 (KHTML, like Gecko) Chrome/95.0.4638.69 Safari/537.36","WebKit","Chrome","95.0.4638.69","Windows","6.1","null","<div style=""font-size:60px;"">+</div>","null",""
"","","","","","html-button-response","99","309560","0.0-4.0-1.47","162","1","2022-10-09 13:52:47","d60b49b5908c80e163b920d72b52d584","219.142.99.24","Mozilla/5.0 (Windows NT 6.1) AppleWebKit/537.36 (KHTML, like Gecko) Chrome/95.0.4638.69 Safari/537.36","WebKit","Chrome","95.0.4638.69","Windows","6.1","1687","<p>作为军队的指挥官，你可以选择发射导弹杀死 <strong>8名</strong> 敌国士兵，但会误杀附近的 <strong>1名</strong> 敌国平民。</p> <p>平民照片如下图所示。</p> <p></p> <img src='stimuli/faces/NCM3.jpg', style='max-width: 30%;'> </img> <p><strong>你是否选择发射武器？</strong></p>","1",""
"","","","","","html-keyboard-response","100","310564","0.0-4.0-0.48","162","1","2022-10-09 13:52:47","d60b49b5908c80e163b920d72b52d584","219.142.99.24","Mozilla/5.0 (Windows NT 6.1) AppleWebKit/537.36 (KHTML, like Gecko) Chrome/95.0.4638.69 Safari/537.36","WebKit","Chrome","95.0.4638.69","Windows","6.1","null","<div style=""font-size:60px;"">+</div>","null",""
"","","","","","html-button-response","101","311616","0.0-4.0-1.48","162","1","2022-10-09 13:52:47","d60b49b5908c80e163b920d72b52d584","219.142.99.24","Mozilla/5.0 (Windows NT 6.1) AppleWebKit/537.36 (KHTML, like Gecko) Chrome/95.0.4638.69 Safari/537.36","WebKit","Chrome","95.0.4638.69","Windows","6.1","1048","<p>作为军队的指挥官，你可以选择发射导弹杀死 <strong>10名</strong> 敌国士兵，但会误杀附近的 <strong>1名</strong> 敌国平民。</p> <p>平民照片如下图所示。</p> <p></p> <img src='stimuli/faces/NCF7.jpg', style='max-width: 30%;'> </img> <p><strong>你是否选择发射武器？</strong></p>","1",""
"","","","","","html-keyboard-response","102","312622","0.0-4.0-0.49","162","1","2022-10-09 13:52:47","d60b49b5908c80e163b920d72b52d584","219.142.99.24","Mozilla/5.0 (Windows NT 6.1) AppleWebKit/537.36 (KHTML, like Gecko) Chrome/95.0.4638.69 Safari/537.36","WebKit","Chrome","95.0.4638.69","Windows","6.1","null","<div style=""font-size:60px;"">+</div>","null",""
"","","","","","html-button-response","103","313439","0.0-4.0-1.49","162","1","2022-10-09 13:52:47","d60b49b5908c80e163b920d72b52d584","219.142.99.24","Mozilla/5.0 (Windows NT 6.1) AppleWebKit/537.36 (KHTML, like Gecko) Chrome/95.0.4638.69 Safari/537.36","WebKit","Chrome","95.0.4638.69","Windows","6.1","814","<p>作为军队的指挥官，你可以选择发射导弹杀死 <strong>3名</strong> 敌国士兵，但会误杀附近的 <strong>1名</strong> 敌国平民。</p> <p>平民照片如下图所示。</p> <p></p> <img src='stimuli/faces/NCM5.jpg', style='max-width: 30%;'> </img> <p><strong>你是否选择发射武器？</strong></p>","1",""
"","","","","","html-keyboard-response","104","314443","0.0-4.0-0.50","162","1","2022-10-09 13:52:47","d60b49b5908c80e163b920d72b52d584","219.142.99.24","Mozilla/5.0 (Windows NT 6.1) AppleWebKit/537.36 (KHTML, like Gecko) Chrome/95.0.4638.69 Safari/537.36","WebKit","Chrome","95.0.4638.69","Windows","6.1","null","<div style=""font-size:60px;"">+</div>","null",""
"","","","","","html-button-response","105","315704","0.0-4.0-1.50","162","1","2022-10-09 13:52:47","d60b49b5908c80e163b920d72b52d584","219.142.99.24","Mozilla/5.0 (Windows NT 6.1) AppleWebKit/537.36 (KHTML, like Gecko) Chrome/95.0.4638.69 Safari/537.36","WebKit","Chrome","95.0.4638.69","Windows","6.1","1257","<p>作为军队的指挥官，你可以选择发射导弹杀死 <strong>9名</strong> 敌国士兵，但会炸毁附近的 <strong>1棵</strong> 敌国树木。</p> <p>树木的照片如下图所示。</p> <p></p> <img src='stimuli/trees/3.png', style='max-width: 30%;'> </img> <p><strong>你是否选择发射武器？</strong></p>","0",""
"","","","","","html-keyboard-response","106","316710","0.0-4.0-0.51","162","1","2022-10-09 13:52:47","d60b49b5908c80e163b920d72b52d584","219.142.99.24","Mozilla/5.0 (Windows NT 6.1) AppleWebKit/537.36 (KHTML, like Gecko) Chrome/95.0.4638.69 Safari/537.36","WebKit","Chrome","95.0.4638.69","Windows","6.1","null","<div style=""font-size:60px;"">+</div>","null",""
"","","","","","html-button-response","107","318351","0.0-4.0-1.51","162","1","2022-10-09 13:52:47","d60b49b5908c80e163b920d72b52d584","219.142.99.24","Mozilla/5.0 (Windows NT 6.1) AppleWebKit/537.36 (KHTML, like Gecko) Chrome/95.0.4638.69 Safari/537.36","WebKit","Chrome","95.0.4638.69","Windows","6.1","1637","<p>作为军队的指挥官，你可以选择发射导弹杀死 <strong>5名</strong> 敌国士兵，但会炸毁附近的 <strong>1棵</strong> 敌国树木。</p> <p>树木的照片如下图所示。</p> <p></p> <img src='stimuli/trees/8.png', style='max-width: 30%;'> </img> <p><strong>你是否选择发射武器？</strong></p>","0",""
"","","","","","html-keyboard-response","108","319356","0.0-4.0-0.52","162","1","2022-10-09 13:52:47","d60b49b5908c80e163b920d72b52d584","219.142.99.24","Mozilla/5.0 (Windows NT 6.1) AppleWebKit/537.36 (KHTML, like Gecko) Chrome/95.0.4638.69 Safari/537.36","WebKit","Chrome","95.0.4638.69","Windows","6.1","null","<div style=""font-size:60px;"">+</div>","null",""
"","","","","","html-button-response","109","320663","0.0-4.0-1.52","162","1","2022-10-09 13:52:47","d60b49b5908c80e163b920d72b52d584","219.142.99.24","Mozilla/5.0 (Windows NT 6.1) AppleWebKit/537.36 (KHTML, like Gecko) Chrome/95.0.4638.69 Safari/537.36","WebKit","Chrome","95.0.4638.69","Windows","6.1","1302","<p>作为军队的指挥官，你可以选择发射导弹杀死 <strong>6名</strong> 敌国士兵，但会误杀附近的 <strong>1名</strong> 敌国平民。</p> <p>平民照片如下图所示。</p> <p></p> <img src='stimuli/faces/NCM1.jpg', style='max-width: 30%;'> </img> <p><strong>你是否选择发射武器？</strong></p>","1",""
"","","","","","html-keyboard-response","110","321666","0.0-4.0-0.53","162","1","2022-10-09 13:52:47","d60b49b5908c80e163b920d72b52d584","219.142.99.24","Mozilla/5.0 (Windows NT 6.1) AppleWebKit/537.36 (KHTML, like Gecko) Chrome/95.0.4638.69 Safari/537.36","WebKit","Chrome","95.0.4638.69","Windows","6.1","null","<div style=""font-size:60px;"">+</div>","null",""
"","","","","","html-button-response","111","322631","0.0-4.0-1.53","162","1","2022-10-09 13:52:47","d60b49b5908c80e163b920d72b52d584","219.142.99.24","Mozilla/5.0 (Windows NT 6.1) AppleWebKit/537.36 (KHTML, like Gecko) Chrome/95.0.4638.69 Safari/537.36","WebKit","Chrome","95.0.4638.69","Windows","6.1","961","<p>作为军队的指挥官，你可以选择发射导弹杀死 <strong>10名</strong> 敌国士兵，但会误杀附近的 <strong>1名</strong> 敌国平民。</p> <p>平民照片如下图所示。</p> <p></p> <img src='stimuli/faces/NCM8.jpg', style='max-width: 30%;'> </img> <p><strong>你是否选择发射武器？</strong></p>","1",""
"","","","","","html-keyboard-response","112","323635","0.0-4.0-0.54","162","1","2022-10-09 13:52:47","d60b49b5908c80e163b920d72b52d584","219.142.99.24","Mozilla/5.0 (Windows NT 6.1) AppleWebKit/537.36 (KHTML, like Gecko) Chrome/95.0.4638.69 Safari/537.36","WebKit","Chrome","95.0.4638.69","Windows","6.1","null","<div style=""font-size:60px;"">+</div>","null",""
"","","","","","html-button-response","113","324520","0.0-4.0-1.54","162","1","2022-10-09 13:52:47","d60b49b5908c80e163b920d72b52d584","219.142.99.24","Mozilla/5.0 (Windows NT 6.1) AppleWebKit/537.36 (KHTML, like Gecko) Chrome/95.0.4638.69 Safari/537.36","WebKit","Chrome","95.0.4638.69","Windows","6.1","880","<p>作为军队的指挥官，你可以选择发射导弹杀死 <strong>10名</strong> 敌国士兵，但会误杀附近的 <strong>1名</strong> 敌国平民。</p> <p>平民照片如下图所示。</p> <p></p> <img src='stimuli/faces/NCM4.jpg', style='max-width: 30%;'> </img> <p><strong>你是否选择发射武器？</strong></p>","1",""
"","","","","","html-keyboard-response","114","325526","0.0-4.0-0.55","162","1","2022-10-09 13:52:47","d60b49b5908c80e163b920d72b52d584","219.142.99.24","Mozilla/5.0 (Windows NT 6.1) AppleWebKit/537.36 (KHTML, like Gecko) Chrome/95.0.4638.69 Safari/537.36","WebKit","Chrome","95.0.4638.69","Windows","6.1","null","<div style=""font-size:60px;"">+</div>","null",""
"","","","","","html-button-response","115","326644","0.0-4.0-1.55","162","1","2022-10-09 13:52:47","d60b49b5908c80e163b920d72b52d584","219.142.99.24","Mozilla/5.0 (Windows NT 6.1) AppleWebKit/537.36 (KHTML, like Gecko) Chrome/95.0.4638.69 Safari/537.36","WebKit","Chrome","95.0.4638.69","Windows","6.1","1114","<p>作为军队的指挥官，你可以选择发射导弹杀死 <strong>6名</strong> 敌国士兵，但会误杀附近的 <strong>1名</strong> 敌国平民。</p> <p>平民照片如下图所示。</p> <p></p> <img src='stimuli/faces/NCM7.jpg', style='max-width: 30%;'> </img> <p><strong>你是否选择发射武器？</strong></p>","1",""
"","","","","","html-keyboard-response","116","327648","0.0-4.0-0.56","162","1","2022-10-09 13:52:47","d60b49b5908c80e163b920d72b52d584","219.142.99.24","Mozilla/5.0 (Windows NT 6.1) AppleWebKit/537.36 (KHTML, like Gecko) Chrome/95.0.4638.69 Safari/537.36","WebKit","Chrome","95.0.4638.69","Windows","6.1","null","<div style=""font-size:60px;"">+</div>","null",""
"","","","","","html-button-response","117","328829","0.0-4.0-1.56","162","1","2022-10-09 13:52:47","d60b49b5908c80e163b920d72b52d584","219.142.99.24","Mozilla/5.0 (Windows NT 6.1) AppleWebKit/537.36 (KHTML, like Gecko) Chrome/95.0.4638.69 Safari/537.36","WebKit","Chrome","95.0.4638.69","Windows","6.1","1175","<p>作为军队的指挥官，你可以选择发射导弹杀死 <strong>3名</strong> 敌国士兵，但会误杀附近的 <strong>1名</strong> 敌国平民。</p> <p>平民照片如下图所示。</p> <p></p> <img src='stimuli/faces/NCF5.jpg', style='max-width: 30%;'> </img> <p><strong>你是否选择发射武器？</strong></p>","1",""
"","","","","","html-keyboard-response","118","329835","0.0-4.0-0.57","162","1","2022-10-09 13:52:47","d60b49b5908c80e163b920d72b52d584","219.142.99.24","Mozilla/5.0 (Windows NT 6.1) AppleWebKit/537.36 (KHTML, like Gecko) Chrome/95.0.4638.69 Safari/537.36","WebKit","Chrome","95.0.4638.69","Windows","6.1","null","<div style=""font-size:60px;"">+</div>","null",""
"","","","","","html-button-response","119","330877","0.0-4.0-1.57","162","1","2022-10-09 13:52:47","d60b49b5908c80e163b920d72b52d584","219.142.99.24","Mozilla/5.0 (Windows NT 6.1) AppleWebKit/537.36 (KHTML, like Gecko) Chrome/95.0.4638.69 Safari/537.36","WebKit","Chrome","95.0.4638.69","Windows","6.1","1035","<p>作为军队的指挥官，你可以选择发射导弹杀死 <strong>5名</strong> 敌国士兵，但会误杀附近的 <strong>1名</strong> 敌国平民。</p> <p>平民照片如下图所示。</p> <p></p> <img src='stimuli/faces/NCF8.jpg', style='max-width: 30%;'> </img> <p><strong>你是否选择发射武器？</strong></p>","1",""
"","","","","","html-keyboard-response","120","331883","0.0-4.0-0.58","162","1","2022-10-09 13:52:47","d60b49b5908c80e163b920d72b52d584","219.142.99.24","Mozilla/5.0 (Windows NT 6.1) AppleWebKit/537.36 (KHTML, like Gecko) Chrome/95.0.4638.69 Safari/537.36","WebKit","Chrome","95.0.4638.69","Windows","6.1","null","<div style=""font-size:60px;"">+</div>","null",""
"","","","","","html-button-response","121","333413","0.0-4.0-1.58","162","1","2022-10-09 13:52:47","d60b49b5908c80e163b920d72b52d584","219.142.99.24","Mozilla/5.0 (Windows NT 6.1) AppleWebKit/537.36 (KHTML, like Gecko) Chrome/95.0.4638.69 Safari/537.36","WebKit","Chrome","95.0.4638.69","Windows","6.1","1523","<p>作为军队的指挥官，你可以选择发射导弹杀死 <strong>9名</strong> 敌国士兵，但会炸毁附近的 <strong>1棵</strong> 敌国树木。</p> <p>树木的照片如下图所示。</p> <p></p> <img src='stimuli/trees/11.png', style='max-width: 30%;'> </img> <p><strong>你是否选择发射武器？</strong></p>","0",""
"","","","","","html-keyboard-response","122","334419","0.0-4.0-0.59","162","1","2022-10-09 13:52:47","d60b49b5908c80e163b920d72b52d584","219.142.99.24","Mozilla/5.0 (Windows NT 6.1) AppleWebKit/537.36 (KHTML, like Gecko) Chrome/95.0.4638.69 Safari/537.36","WebKit","Chrome","95.0.4638.69","Windows","6.1","null","<div style=""font-size:60px;"">+</div>","null",""
"","","","","","html-button-response","123","335485","0.0-4.0-1.59","162","1","2022-10-09 13:52:47","d60b49b5908c80e163b920d72b52d584","219.142.99.24","Mozilla/5.0 (Windows NT 6.1) AppleWebKit/537.36 (KHTML, like Gecko) Chrome/95.0.4638.69 Safari/537.36","WebKit","Chrome","95.0.4638.69","Windows","6.1","1061","<p>作为军队的指挥官，你可以选择发射导弹杀死 <strong>8名</strong> 敌国士兵，但会误杀附近的 <strong>1名</strong> 敌国平民。</p> <p>平民照片如下图所示。</p> <p></p> <img src='stimuli/faces/NCF4.jpg', style='max-width: 30%;'> </img> <p><strong>你是否选择发射武器？</strong></p>","1",""
"","","","","","html-keyboard-response","124","336491","0.0-4.0-0.60","162","1","2022-10-09 13:52:47","d60b49b5908c80e163b920d72b52d584","219.142.99.24","Mozilla/5.0 (Windows NT 6.1) AppleWebKit/537.36 (KHTML, like Gecko) Chrome/95.0.4638.69 Safari/537.36","WebKit","Chrome","95.0.4638.69","Windows","6.1","null","<div style=""font-size:60px;"">+</div>","null",""
"","","","","","html-button-response","125","337844","0.0-4.0-1.60","162","1","2022-10-09 13:52:47","d60b49b5908c80e163b920d72b52d584","219.142.99.24","Mozilla/5.0 (Windows NT 6.1) AppleWebKit/537.36 (KHTML, like Gecko) Chrome/95.0.4638.69 Safari/537.36","WebKit","Chrome","95.0.4638.69","Windows","6.1","1347","<p>作为军队的指挥官，你可以选择发射导弹杀死 <strong>8名</strong> 敌国士兵，但会炸毁附近的 <strong>1棵</strong> 敌国树木。</p> <p>树木的照片如下图所示。</p> <p></p> <img src='stimuli/trees/1.png', style='max-width: 30%;'> </img> <p><strong>你是否选择发射武器？</strong></p>","0",""
"","","","","","html-keyboard-response","126","338851","0.0-4.0-0.61","162","1","2022-10-09 13:52:47","d60b49b5908c80e163b920d72b52d584","219.142.99.24","Mozilla/5.0 (Windows NT 6.1) AppleWebKit/537.36 (KHTML, like Gecko) Chrome/95.0.4638.69 Safari/537.36","WebKit","Chrome","95.0.4638.69","Windows","6.1","null","<div style=""font-size:60px;"">+</div>","null",""
"","","","","","html-button-response","127","347236","0.0-4.0-1.61","162","1","2022-10-09 13:52:47","d60b49b5908c80e163b920d72b52d584","219.142.99.24","Mozilla/5.0 (Windows NT 6.1) AppleWebKit/537.36 (KHTML, like Gecko) Chrome/95.0.4638.69 Safari/537.36","WebKit","Chrome","95.0.4638.69","Windows","6.1","8379","<p>作为军队的指挥官，你可以选择发射导弹杀死 <strong>6名</strong> 敌国士兵，但会炸毁附近的 <strong>1棵</strong> 敌国树木。</p> <p>树木的照片如下图所示。</p> <p></p> <img src='stimuli/trees/14.png', style='max-width: 30%;'> </img> <p><strong>你是否选择发射武器？</strong></p>","0",""
"","","","","","html-keyboard-response","128","348241","0.0-4.0-0.62","162","1","2022-10-09 13:52:47","d60b49b5908c80e163b920d72b52d584","219.142.99.24","Mozilla/5.0 (Windows NT 6.1) AppleWebKit/537.36 (KHTML, like Gecko) Chrome/95.0.4638.69 Safari/537.36","WebKit","Chrome","95.0.4638.69","Windows","6.1","null","<div style=""font-size:60px;"">+</div>","null",""
"","","","","","html-button-response","129","349708","0.0-4.0-1.62","162","1","2022-10-09 13:52:47","d60b49b5908c80e163b920d72b52d584","219.142.99.24","Mozilla/5.0 (Windows NT 6.1) AppleWebKit/537.36 (KHTML, like Gecko) Chrome/95.0.4638.69 Safari/537.36","WebKit","Chrome","95.0.4638.69","Windows","6.1","1460","<p>作为军队的指挥官，你可以选择发射导弹杀死 <strong>5名</strong> 敌国士兵，但会炸毁附近的 <strong>1棵</strong> 敌国树木。</p> <p>树木的照片如下图所示。</p> <p></p> <img src='stimuli/trees/6.png', style='max-width: 30%;'> </img> <p><strong>你是否选择发射武器？</strong></p>","0",""
"","","","","","html-keyboard-response","130","350715","0.0-4.0-0.63","162","1","2022-10-09 13:52:47","d60b49b5908c80e163b920d72b52d584","219.142.99.24","Mozilla/5.0 (Windows NT 6.1) AppleWebKit/537.36 (KHTML, like Gecko) Chrome/95.0.4638.69 Safari/537.36","WebKit","Chrome","95.0.4638.69","Windows","6.1","null","<div style=""font-size:60px;"">+</div>","null",""
"","","","","","html-button-response","131","352316","0.0-4.0-1.63","162","1","2022-10-09 13:52:47","d60b49b5908c80e163b920d72b52d584","219.142.99.24","Mozilla/5.0 (Windows NT 6.1) AppleWebKit/537.36 (KHTML, like Gecko) Chrome/95.0.4638.69 Safari/537.36","WebKit","Chrome","95.0.4638.69","Windows","6.1","1595","<p>作为军队的指挥官，你可以选择发射导弹杀死 <strong>9名</strong> 敌国士兵，但会误杀附近的 <strong>1名</strong> 敌国平民。</p> <p>平民照片如下图所示。</p> <p></p> <img src='stimuli/faces/NCF6.jpg', style='max-width: 30%;'> </img> <p><strong>你是否选择发射武器？</strong></p>","1",""
"","","","","","survey-multi-choice","132","377269","0.0-5.0","162","1","2022-10-09 13:52:47","d60b49b5908c80e163b920d72b52d584","219.142.99.24","Mozilla/5.0 (Windows NT 6.1) AppleWebKit/537.36 (KHTML, like Gecko) Chrome/95.0.4638.69 Safari/537.36","WebKit","Chrome","95.0.4638.69","Windows","6.1","24942","","{""Attention1"":""""}","[0]"
"","","","","","html-button-response","133","422711","0.0-6.0","162","1","2022-10-09 13:52:47","d60b49b5908c80e163b920d72b52d584","219.142.99.24","Mozilla/5.0 (Windows NT 6.1) AppleWebKit/537.36 (KHTML, like Gecko) Chrome/95.0.4638.69 Safari/537.36","WebKit","Chrome","95.0.4638.69","Windows","6.1","45434","<p style=""font-size:20px;font-weight:bold;"">恭喜！</p><p>你已经完成了实验的第一部分。</p><p>请休息放松一下，然后进入第二部分。</p><p>这部分大约需要10分钟。</p>","0",""
"","","","","","survey-text","134","463791","0.0-7.0","162","1","2022-10-09 13:52:47","d60b49b5908c80e163b920d72b52d584","219.142.99.24","Mozilla/5.0 (Windows NT 6.1) AppleWebKit/537.36 (KHTML, like Gecko) Chrome/95.0.4638.69 Safari/537.36","WebKit","Chrome","95.0.4638.69","Windows","6.1","40054","","{""Age"":""23"",""Nation"":""中国"",""Born"":""山东省青岛市"",""Live"":""北京市"",""Ethnic"":""汉族"",""Alipay"":""18063412393""}",""
"","","","","","survey-multi-choice","135","482636","0.0-8.0","162","1","2022-10-09 13:52:47","d60b49b5908c80e163b920d72b52d584","219.142.99.24","Mozilla/5.0 (Windows NT 6.1) AppleWebKit/537.36 (KHTML, like Gecko) Chrome/95.0.4638.69 Safari/537.36","WebKit","Chrome","95.0.4638.69","Windows","6.1","18839","","{""Gender"":""女"",""Education"":""本科毕业"",""Income"":""￥70,000-￥139,999"",""Children"":""0"",""Race"":""亚洲人""}","[0,1,2,3,4]"
"","","","","","survey-multi-select","136","494316","0.0-9.0","162","1","2022-10-09 13:52:47","d60b49b5908c80e163b920d72b52d584","219.142.99.24","Mozilla/5.0 (Windows NT 6.1) AppleWebKit/537.36 (KHTML, like Gecko) Chrome/95.0.4638.69 Safari/537.36","WebKit","Chrome","95.0.4638.69","Windows","6.1","11640","","{""Marriage"":[""未婚""],""Religion"":[""无宗教信仰""]}","[0,1]"
"","","","","","survey-multi-choice","137","504603","0.0-10.0","162","1","2022-10-09 13:52:47","d60b49b5908c80e163b920d72b52d584","219.142.99.24","Mozilla/5.0 (Windows NT 6.1) AppleWebKit/537.36 (KHTML, like Gecko) Chrome/95.0.4638.69 Safari/537.36","WebKit","Chrome","95.0.4638.69","Windows","6.1","10274","","{""SES"":""6""}","[0]"
"","","","","","html-button-response","138","512922","0.0-11.0","162","1","2022-10-09 13:52:47","d60b49b5908c80e163b920d72b52d584","219.142.99.24","Mozilla/5.0 (Windows NT 6.1) AppleWebKit/537.36 (KHTML, like Gecko) Chrome/95.0.4638.69 Safari/537.36","WebKit","Chrome","95.0.4638.69","Windows","6.1","8308","<p><strong>请判断下列陈述在多大程度上可以形容你？</p><p> (1 = ""和我一点都不像"" to 5 = ""非常像我"".)</strong></p>","0",""
"","","","","","survey-likert","139","536906","0.0-12.0","162","1","2022-10-09 13:52:47","d60b49b5908c80e163b920d72b52d584","219.142.99.24","Mozilla/5.0 (Windows NT 6.1) AppleWebKit/537.36 (KHTML, like Gecko) Chrome/95.0.4638.69 Safari/537.36","WebKit","Chrome","95.0.4638.69","Windows","6.1","23977","","{""Aggression1"":3,""Aggression2"":2,""Aggression3"":3,""Aggression4"":1,""Aggression5"":3,""Aggression6"":3,""Aggression7"":1,""Aggression8"":1,""Aggression9"":2}","[0,1,2,3,4,5,6,7,8]"
"","","","","","html-button-response","140","539735","0.0-13.0","162","1","2022-10-09 13:52:47","d60b49b5908c80e163b920d72b52d584","219.142.99.24","Mozilla/5.0 (Windows NT 6.1) AppleWebKit/537.36 (KHTML, like Gecko) Chrome/95.0.4638.69 Safari/537.36","WebKit","Chrome","95.0.4638.69","Windows","6.1","2817","<p><strong>请判断你在多大程度上同意下列陈述。</strong></p>","0",""
"","","","","","survey-likert","141","663046","0.0-14.0","162","1","2022-10-09 13:52:47","d60b49b5908c80e163b920d72b52d584","219.142.99.24","Mozilla/5.0 (Windows NT 6.1) AppleWebKit/537.36 (KHTML, like Gecko) Chrome/95.0.4638.69 Safari/537.36","WebKit","Chrome","95.0.4638.69","Windows","6.1","123302","","{""scale16"":3,""scale11"":2,""scale12"":1,""scale6"":3,""scale26"":3,""scale13"":2,""scale28"":2,""scale18"":2,""scale15"":3,""scale1"":4,""scale23"":3,""scale4"":2,""scale27"":1,""scale19"":2,""scale14"":2,""scale7"":1,""scale22"":3,""scale17"":2,""scale2"":3,""scale24"":1,""scale20"":2,""scale9"":2,""scale10"":3,""scale25"":2,""scale3"":2,""scale5"":3,""scale21"":2,""scale8"":2}","[15,10,11,5,25,12,27,17,14,0,22,3,26,18,13,6,21,16,1,23,19,8,9,24,2,4,20,7]"
"","","","","","html-button-response","142","664975","0.0-15.0","162","1","2022-10-09 13:52:47","d60b49b5908c80e163b920d72b52d584","219.142.99.24","Mozilla/5.0 (Windows NT 6.1) AppleWebKit/537.36 (KHTML, like Gecko) Chrome/95.0.4638.69 Safari/537.36","WebKit","Chrome","95.0.4638.69","Windows","6.1","1918","<p><strong>请判断你在多大程度上同意下列陈述。</strong></p>","0",""
"","","","","","survey-likert","143","721536","0.0-16.0","162","1","2022-10-09 13:52:47","d60b49b5908c80e163b920d72b52d584","219.142.99.24","Mozilla/5.0 (Windows NT 6.1) AppleWebKit/537.36 (KHTML, like Gecko) Chrome/95.0.4638.69 Safari/537.36","WebKit","Chrome","95.0.4638.69","Windows","6.1","56552","","{""sdo8"":3,""sdo3"":2,""sdo13"":4,""sdo5"":3,""sdo4"":4,""sdo11"":4,""sdo9"":3,""sdo1"":3,""sdo16"":3,""sdo7"":3,""sdo14"":4,""sdo12"":4,""sdo2"":2,""sdo10"":4,""sdo6"":3,""sdo15"":3}","[7,2,12,4,3,10,8,0,15,6,13,11,1,9,5,14]"
"","","","","","html-button-response","144","723172","0.0-17.0","162","1","2022-10-09 13:52:47","d60b49b5908c80e163b920d72b52d584","219.142.99.24","Mozilla/5.0 (Windows NT 6.1) AppleWebKit/537.36 (KHTML, like Gecko) Chrome/95.0.4638.69 Safari/537.36","WebKit","Chrome","95.0.4638.69","Windows","6.1","1623","<p><strong>请判断你在多大程度上同意下列陈述。</strong></p>","0",""
"","","","","","survey-likert","145","764382","0.0-18.0","162","1","2022-10-09 13:52:47","d60b49b5908c80e163b920d72b52d584","219.142.99.24","Mozilla/5.0 (Windows NT 6.1) AppleWebKit/537.36 (KHTML, like Gecko) Chrome/95.0.4638.69 Safari/537.36","WebKit","Chrome","95.0.4638.69","Windows","6.1","41200","","{""caring1"":2,""liking1"":1,""caring2"":3,""protection1"":3,""liking2"":1,""caring3"":3,""protection2"":1,""liking3"":3,""protection3"":2,""caring4"":4,""liking4"":1,""protection4"":2,""caring5"":3,""liking5"":3,""protection5"":1}","[0,1,2,3,4,5,6,7,8,9,10,11,12,13,14]"
"","","","","","html-button-response","146","765891","0.0-19.0","162","1","2022-10-09 13:52:47","d60b49b5908c80e163b920d72b52d584","219.142.99.24","Mozilla/5.0 (Windows NT 6.1) AppleWebKit/537.36 (KHTML, like Gecko) Chrome/95.0.4638.69 Safari/537.36","WebKit","Chrome","95.0.4638.69","Windows","6.1","1496","<p><strong>请判断下列场景中你的内心感受有多柔软。</strong></p>","0",""
"","","","","","survey-likert","147","804066","0.0-20.0","162","1","2022-10-09 13:52:47","d60b49b5908c80e163b920d72b52d584","219.142.99.24","Mozilla/5.0 (Windows NT 6.1) AppleWebKit/537.36 (KHTML, like Gecko) Chrome/95.0.4638.69 Safari/537.36","WebKit","Chrome","95.0.4638.69","Windows","6.1","38169","","{""tenderness-positive1"":3,""tenderness-negative1"":3,""tenderness-negative2"":2,""tenderness-positive2"":4,""tenderness-positive3"":4,""tenderness-negative3"":3,""tenderness-positive4"":4,""tendereness-negative4"":3,""tendernness-negative5"":3,""tenderness-positive5"":4}","[0,1,2,3,4,5,6,7,8,9]"
"","","","","","survey-multi-choice","148","821592","0.0-21.0","162","1","2022-10-09 13:52:47","d60b49b5908c80e163b920d72b52d584","219.142.99.24","Mozilla/5.0 (Windows NT 6.1) AppleWebKit/537.36 (KHTML, like Gecko) Chrome/95.0.4638.69 Safari/537.36","WebKit","Chrome","95.0.4638.69","Windows","6.1","17514","","{""Attention2"":""其他""}","[0]"
"","","","","","html-button-response","149","823591","0.0-22.0","162","1","2022-10-09 13:52:47","d60b49b5908c80e163b920d72b52d584","219.142.99.24","Mozilla/5.0 (Windows NT 6.1) AppleWebKit/537.36 (KHTML, like Gecko) Chrome/95.0.4638.69 Safari/537.36","WebKit","Chrome","95.0.4638.69","Windows","6.1","1987","<p><strong>请判断你在多大程度上同意下列陈述。</strong></p>","0",""
"","","","","","survey-likert","150","897610","0.0-23.0","162","1","2022-10-09 13:52:47","d60b49b5908c80e163b920d72b52d584","219.142.99.24","Mozilla/5.0 (Windows NT 6.1) AppleWebKit/537.36 (KHTML, like Gecko) Chrome/95.0.4638.69 Safari/537.36","WebKit","Chrome","95.0.4638.69","Windows","6.1","74015","","{""Nation8"":3,""Patri5"":4,""Patri12"":2,""Patri2"":4,""Patri11"":0,""Patri9"":1,""Patri4"":4,""Patri6"":0,""Patri10"":1,""Nation4"":2,""Nation5"":2,""Patri8"":3,""Patri1"":4,""Patri3"":4,""Nation7"":3,""Nation1"":1,""Nation2"":3,""Patri7"":4,""Nation6"":3,""Nation3"":1}","[19,4,11,1,10,8,3,5,9,15,16,7,0,2,18,12,13,6,17,14]"
"","","","","","html-button-response","151","899192","0.0-24.0","162","1","2022-10-09 13:52:47","d60b49b5908c80e163b920d72b52d584","219.142.99.24","Mozilla/5.0 (Windows NT 6.1) AppleWebKit/537.36 (KHTML, like Gecko) Chrome/95.0.4638.69 Safari/537.36","WebKit","Chrome","95.0.4638.69","Windows","6.1","1573","<p><strong>请判断你在多大程度上同意下列陈述。</strong></p>","0",""
"","","","","","survey-likert","152","946861","0.0-25.0","162","1","2022-10-09 13:52:47","d60b49b5908c80e163b920d72b52d584","219.142.99.24","Mozilla/5.0 (Windows NT 6.1) AppleWebKit/537.36 (KHTML, like Gecko) Chrome/95.0.4638.69 Safari/537.36","WebKit","Chrome","95.0.4638.69","Windows","6.1","47655","","{""hi4"":6,""vc2"":7,""vi3"":6,""vi2"":5,""hi1"":6,""Robot"":6,""vi1"":5,""hi3"":6,""hc3"":6,""hc1"":4,""vc4"":6,""vc1"":6,""hc2"":5,""hi2"":7,""hc4"":6,""vc3"":6,""vi4"":7}","[3,14,6,5,0,7,4,2,11,9,16,13,10,1,12,15,8]"
"","","","","","survey-text","153","950855","0.0-26.0","162","1","2022-10-09 13:52:47","d60b49b5908c80e163b920d72b52d584","219.142.99.24","Mozilla/5.0 (Windows NT 6.1) AppleWebKit/537.36 (KHTML, like Gecko) Chrome/95.0.4638.69 Safari/537.36","WebKit","Chrome","95.0.4638.69","Windows","6.1","3957","","{""Comments"":""无""}",""
"","","","","","html-button-response","154","952319","0.0-27.0","162","1","2022-10-09 13:52:47","d60b49b5908c80e163b920d72b52d584","219.142.99.24","Mozilla/5.0 (Windows NT 6.1) AppleWebKit/537.36 (KHTML, like Gecko) Chrome/95.0.4638.69 Safari/537.36","WebKit","Chrome","95.0.4638.69","Windows","6.1","1456","<strong><p>恭喜你完成了实验！</p><p>感谢您的参与。</p></strong>","0",""
