"success","timeout","failed_images","failed_audio","failed_video","trial_type","trial_index","time_elapsed","internal_node_id","run_id","condition","recorded_at","source_code_version","ip","user_agent","device","browser","browser_version","platform","platform_version","rt","stimulus","response","question_order"
"true","false","[]","[]","[]","preload","0","5568","0.0-0.0","182","1","2022-10-11 02:13:41","d60b49b5908c80e163b920d72b52d584","58.48.79.126","Mozilla/5.0 (Windows NT 10.0; Win64; x64) AppleWebKit/537.36 (KHTML, like Gecko) Chrome/103.0.0.0 Safari/537.36","WebKit","Chrome","103.0.0.0","Windows","10.0","","","",""
"true","","","","","fullscreen","1","19884","0.0-1.0","182","1","2022-10-11 02:13:41","d60b49b5908c80e163b920d72b52d584","58.48.79.126","Mozilla/5.0 (Windows NT 10.0; Win64; x64) AppleWebKit/537.36 (KHTML, like Gecko) Chrome/103.0.0.0 Safari/537.36","WebKit","Chrome","103.0.0.0","Windows","10.0","","","",""
"","","","","","html-button-response","2","21553","0.0-2.0","182","1","2022-10-11 02:13:41","d60b49b5908c80e163b920d72b52d584","58.48.79.126","Mozilla/5.0 (Windows NT 10.0; Win64; x64) AppleWebKit/537.36 (KHTML, like Gecko) Chrome/103.0.0.0 Safari/537.36","WebKit","Chrome","103.0.0.0","Windows","10.0","1668","<p style=""font-size:20px;font-weight:bold;"">实验知情同意书</p><p style=""text-align:left;""><strong>实验名称：</strong>社会冲突研究</p><p style=""text-align:left;""><strong>主要研究者：</strong>韩晓春副教授（北京师范大学心理学部）</p><p style=""text-align:left;""><strong>联系方式：</strong>发送邮件至xiaochun.han@bnu.edu.cn</p><p style=""text-align:left;""><strong>研究目的：</strong>研究旨在了解人类面对群体冲突时的决策方式，以及相关的心理学特质。实验调查大约需要20分钟。</p><p style=""text-align:left;""><strong>实验流程：</strong>实验包含两部分。第一部分呈现一系列群体冲突场景，请你决定如何对这些冲突进行反应，大约需要10分钟完成。第二部分包含一系列人口统计学信息收集和心理学问卷，大约需要10分钟完成。</p><p style=""text-align:left;""><strong>参加及退出规则：</strong>参加本实验完全取决于您的个人意愿。在参与过程中，您可以随时退出，并且不用承担任何后果。</p><p style=""text-align:left;""><strong>隐私：</strong>本实验完全匿名进行，不会收集您的姓名或其他能够识别您身份的信息。实验中收集的作答仅用作科学研究使用，可能会在学术期刊/书籍上发表，或者用于教学，您的数据未来可能会和其他研究者或实验室分享，但您的个人身份不会被识别。</p><p style=""text-align:left;""><strong>实验报酬：</strong>实验完成后，您将获得15元人民币报酬，以感谢您的时间和努力。调查问卷中包含几道题目用以测验您作答时的认真度。只有完成全部实验，并且正确回答认真度测验的被试才能获得实验报酬。实验报酬将通过支付宝转账发放。</p><p style=""text-align:left;font-size:20px;""><strong>如果您同意以上实验知情同意书的内容，请点击'同意并且开始实验'按钮；否则请关闭浏览器界面，退出实验。</strong></p>","0",""
"","","","","","html-button-response","3","32441","0.0-3.0","182","1","2022-10-11 02:13:41","d60b49b5908c80e163b920d72b52d584","58.48.79.126","Mozilla/5.0 (Windows NT 10.0; Win64; x64) AppleWebKit/537.36 (KHTML, like Gecko) Chrome/103.0.0.0 Safari/537.36","WebKit","Chrome","103.0.0.0","Windows","10.0","10887","<p ><strong>实验任务一：</strong></p><p>请想象你的国家与另一个国家发生了军事冲突。</p><p>你是国家军队的指挥官，你将如何在冲突中进行决策。</p><p>具体来说，作为军队指挥官，请你决定是否发射导弹进行打击。</p><p>接下来，你会面对一系列场景，请仔细阅读每个场景，然后进行决策。</p><p>这部分实验任务大约需要10分钟。</p><p><strong>实验过程中，请集中注意力。</strong></p>","0",""
"","","","","","html-keyboard-response","4","33443","0.0-4.0-0.0","182","1","2022-10-11 02:13:41","d60b49b5908c80e163b920d72b52d584","58.48.79.126","Mozilla/5.0 (Windows NT 10.0; Win64; x64) AppleWebKit/537.36 (KHTML, like Gecko) Chrome/103.0.0.0 Safari/537.36","WebKit","Chrome","103.0.0.0","Windows","10.0","null","<div style=""font-size:60px;"">+</div>","null",""
"","","","","","html-button-response","5","35617","0.0-4.0-1.0","182","1","2022-10-11 02:13:41","d60b49b5908c80e163b920d72b52d584","58.48.79.126","Mozilla/5.0 (Windows NT 10.0; Win64; x64) AppleWebKit/537.36 (KHTML, like Gecko) Chrome/103.0.0.0 Safari/537.36","WebKit","Chrome","103.0.0.0","Windows","10.0","2172","<p>作为军队的指挥官，你可以选择发射导弹杀死 <strong>9名</strong> 敌国士兵，但会炸毁附近的 <strong>1棵</strong> 敌国树木。</p> <p>树木的照片如下图所示。</p> <p></p> <img src='stimuli/trees/14.png', style='max-width: 30%;'> </img> <p><strong>你是否选择发射武器？</strong></p>","0",""
"","","","","","html-keyboard-response","6","36619","0.0-4.0-0.1","182","1","2022-10-11 02:13:41","d60b49b5908c80e163b920d72b52d584","58.48.79.126","Mozilla/5.0 (Windows NT 10.0; Win64; x64) AppleWebKit/537.36 (KHTML, like Gecko) Chrome/103.0.0.0 Safari/537.36","WebKit","Chrome","103.0.0.0","Windows","10.0","null","<div style=""font-size:60px;"">+</div>","null",""
"","","","","","html-button-response","7","37745","0.0-4.0-1.1","182","1","2022-10-11 02:13:41","d60b49b5908c80e163b920d72b52d584","58.48.79.126","Mozilla/5.0 (Windows NT 10.0; Win64; x64) AppleWebKit/537.36 (KHTML, like Gecko) Chrome/103.0.0.0 Safari/537.36","WebKit","Chrome","103.0.0.0","Windows","10.0","1125","<p>作为军队的指挥官，你可以选择发射导弹杀死 <strong>5名</strong> 敌国士兵，但会误杀附近的 <strong>1名</strong> 敌国平民。</p> <p>平民照片如下图所示。</p> <p></p> <img src='stimuli/faces/NCF3.jpg', style='max-width: 30%;'> </img> <p><strong>你是否选择发射武器？</strong></p>","1",""
"","","","","","html-keyboard-response","8","38746","0.0-4.0-0.2","182","1","2022-10-11 02:13:41","d60b49b5908c80e163b920d72b52d584","58.48.79.126","Mozilla/5.0 (Windows NT 10.0; Win64; x64) AppleWebKit/537.36 (KHTML, like Gecko) Chrome/103.0.0.0 Safari/537.36","WebKit","Chrome","103.0.0.0","Windows","10.0","null","<div style=""font-size:60px;"">+</div>","null",""
"","","","","","html-button-response","9","39697","0.0-4.0-1.2","182","1","2022-10-11 02:13:41","d60b49b5908c80e163b920d72b52d584","58.48.79.126","Mozilla/5.0 (Windows NT 10.0; Win64; x64) AppleWebKit/537.36 (KHTML, like Gecko) Chrome/103.0.0.0 Safari/537.36","WebKit","Chrome","103.0.0.0","Windows","10.0","949","<p>作为军队的指挥官，你可以选择发射导弹杀死 <strong>1名</strong> 敌国士兵，但会炸毁附近的 <strong>1棵</strong> 敌国树木。</p> <p>树木的照片如下图所示。</p> <p></p> <img src='stimuli/trees/2.png', style='max-width: 30%;'> </img> <p><strong>你是否选择发射武器？</strong></p>","0",""
"","","","","","html-keyboard-response","10","40699","0.0-4.0-0.3","182","1","2022-10-11 02:13:41","d60b49b5908c80e163b920d72b52d584","58.48.79.126","Mozilla/5.0 (Windows NT 10.0; Win64; x64) AppleWebKit/537.36 (KHTML, like Gecko) Chrome/103.0.0.0 Safari/537.36","WebKit","Chrome","103.0.0.0","Windows","10.0","null","<div style=""font-size:60px;"">+</div>","null",""
"","","","","","html-button-response","11","41809","0.0-4.0-1.3","182","1","2022-10-11 02:13:41","d60b49b5908c80e163b920d72b52d584","58.48.79.126","Mozilla/5.0 (Windows NT 10.0; Win64; x64) AppleWebKit/537.36 (KHTML, like Gecko) Chrome/103.0.0.0 Safari/537.36","WebKit","Chrome","103.0.0.0","Windows","10.0","1109","<p>作为军队的指挥官，你可以选择发射导弹杀死 <strong>7名</strong> 敌国士兵，但会误杀附近的 <strong>1名</strong> 敌国平民。</p> <p>平民照片如下图所示。</p> <p></p> <img src='stimuli/faces/NCM8.jpg', style='max-width: 30%;'> </img> <p><strong>你是否选择发射武器？</strong></p>","1",""
"","","","","","html-keyboard-response","12","42811","0.0-4.0-0.4","182","1","2022-10-11 02:13:41","d60b49b5908c80e163b920d72b52d584","58.48.79.126","Mozilla/5.0 (Windows NT 10.0; Win64; x64) AppleWebKit/537.36 (KHTML, like Gecko) Chrome/103.0.0.0 Safari/537.36","WebKit","Chrome","103.0.0.0","Windows","10.0","null","<div style=""font-size:60px;"">+</div>","null",""
"","","","","","html-button-response","13","43441","0.0-4.0-1.4","182","1","2022-10-11 02:13:41","d60b49b5908c80e163b920d72b52d584","58.48.79.126","Mozilla/5.0 (Windows NT 10.0; Win64; x64) AppleWebKit/537.36 (KHTML, like Gecko) Chrome/103.0.0.0 Safari/537.36","WebKit","Chrome","103.0.0.0","Windows","10.0","627","<p>作为军队的指挥官，你可以选择发射导弹杀死 <strong>2名</strong> 敌国士兵，但会误杀附近的 <strong>1名</strong> 敌国平民。</p> <p>平民照片如下图所示。</p> <p></p> <img src='stimuli/faces/NCF5.jpg', style='max-width: 30%;'> </img> <p><strong>你是否选择发射武器？</strong></p>","1",""
"","","","","","html-keyboard-response","14","44443","0.0-4.0-0.5","182","1","2022-10-11 02:13:41","d60b49b5908c80e163b920d72b52d584","58.48.79.126","Mozilla/5.0 (Windows NT 10.0; Win64; x64) AppleWebKit/537.36 (KHTML, like Gecko) Chrome/103.0.0.0 Safari/537.36","WebKit","Chrome","103.0.0.0","Windows","10.0","null","<div style=""font-size:60px;"">+</div>","null",""
"","","","","","html-button-response","15","45497","0.0-4.0-1.5","182","1","2022-10-11 02:13:41","d60b49b5908c80e163b920d72b52d584","58.48.79.126","Mozilla/5.0 (Windows NT 10.0; Win64; x64) AppleWebKit/537.36 (KHTML, like Gecko) Chrome/103.0.0.0 Safari/537.36","WebKit","Chrome","103.0.0.0","Windows","10.0","1052","<p>作为军队的指挥官，你可以选择发射导弹杀死 <strong>3名</strong> 敌国士兵，但会炸毁附近的 <strong>1棵</strong> 敌国树木。</p> <p>树木的照片如下图所示。</p> <p></p> <img src='stimuli/trees/16.png', style='max-width: 30%;'> </img> <p><strong>你是否选择发射武器？</strong></p>","0",""
"","","","","","html-keyboard-response","16","46500","0.0-4.0-0.6","182","1","2022-10-11 02:13:41","d60b49b5908c80e163b920d72b52d584","58.48.79.126","Mozilla/5.0 (Windows NT 10.0; Win64; x64) AppleWebKit/537.36 (KHTML, like Gecko) Chrome/103.0.0.0 Safari/537.36","WebKit","Chrome","103.0.0.0","Windows","10.0","null","<div style=""font-size:60px;"">+</div>","null",""
"","","","","","html-button-response","17","47521","0.0-4.0-1.6","182","1","2022-10-11 02:13:41","d60b49b5908c80e163b920d72b52d584","58.48.79.126","Mozilla/5.0 (Windows NT 10.0; Win64; x64) AppleWebKit/537.36 (KHTML, like Gecko) Chrome/103.0.0.0 Safari/537.36","WebKit","Chrome","103.0.0.0","Windows","10.0","1020","<p>作为军队的指挥官，你可以选择发射导弹杀死 <strong>6名</strong> 敌国士兵，但会误杀附近的 <strong>1名</strong> 敌国平民。</p> <p>平民照片如下图所示。</p> <p></p> <img src='stimuli/faces/NCF6.jpg', style='max-width: 30%;'> </img> <p><strong>你是否选择发射武器？</strong></p>","1",""
"","","","","","html-keyboard-response","18","48524","0.0-4.0-0.7","182","1","2022-10-11 02:13:41","d60b49b5908c80e163b920d72b52d584","58.48.79.126","Mozilla/5.0 (Windows NT 10.0; Win64; x64) AppleWebKit/537.36 (KHTML, like Gecko) Chrome/103.0.0.0 Safari/537.36","WebKit","Chrome","103.0.0.0","Windows","10.0","null","<div style=""font-size:60px;"">+</div>","null",""
"","","","","","html-button-response","19","49666","0.0-4.0-1.7","182","1","2022-10-11 02:13:41","d60b49b5908c80e163b920d72b52d584","58.48.79.126","Mozilla/5.0 (Windows NT 10.0; Win64; x64) AppleWebKit/537.36 (KHTML, like Gecko) Chrome/103.0.0.0 Safari/537.36","WebKit","Chrome","103.0.0.0","Windows","10.0","1141","<p>作为军队的指挥官，你可以选择发射导弹杀死 <strong>10名</strong> 敌国士兵，但会误杀附近的 <strong>1名</strong> 敌国平民。</p> <p>平民照片如下图所示。</p> <p></p> <img src='stimuli/faces/NCF2.jpg', style='max-width: 30%;'> </img> <p><strong>你是否选择发射武器？</strong></p>","1",""
"","","","","","html-keyboard-response","20","50668","0.0-4.0-0.8","182","1","2022-10-11 02:13:41","d60b49b5908c80e163b920d72b52d584","58.48.79.126","Mozilla/5.0 (Windows NT 10.0; Win64; x64) AppleWebKit/537.36 (KHTML, like Gecko) Chrome/103.0.0.0 Safari/537.36","WebKit","Chrome","103.0.0.0","Windows","10.0","null","<div style=""font-size:60px;"">+</div>","null",""
"","","","","","html-button-response","21","52145","0.0-4.0-1.8","182","1","2022-10-11 02:13:41","d60b49b5908c80e163b920d72b52d584","58.48.79.126","Mozilla/5.0 (Windows NT 10.0; Win64; x64) AppleWebKit/537.36 (KHTML, like Gecko) Chrome/103.0.0.0 Safari/537.36","WebKit","Chrome","103.0.0.0","Windows","10.0","1476","<p>作为军队的指挥官，你可以选择发射导弹杀死 <strong>2名</strong> 敌国士兵，但会误杀附近的 <strong>1名</strong> 敌国平民。</p> <p>平民照片如下图所示。</p> <p></p> <img src='stimuli/faces/NCF7.jpg', style='max-width: 30%;'> </img> <p><strong>你是否选择发射武器？</strong></p>","1",""
"","","","","","html-keyboard-response","22","53147","0.0-4.0-0.9","182","1","2022-10-11 02:13:41","d60b49b5908c80e163b920d72b52d584","58.48.79.126","Mozilla/5.0 (Windows NT 10.0; Win64; x64) AppleWebKit/537.36 (KHTML, like Gecko) Chrome/103.0.0.0 Safari/537.36","WebKit","Chrome","103.0.0.0","Windows","10.0","null","<div style=""font-size:60px;"">+</div>","null",""
"","","","","","html-button-response","23","55129","0.0-4.0-1.9","182","1","2022-10-11 02:13:41","d60b49b5908c80e163b920d72b52d584","58.48.79.126","Mozilla/5.0 (Windows NT 10.0; Win64; x64) AppleWebKit/537.36 (KHTML, like Gecko) Chrome/103.0.0.0 Safari/537.36","WebKit","Chrome","103.0.0.0","Windows","10.0","1981","<p>作为军队的指挥官，你可以选择发射导弹杀死 <strong>10名</strong> 敌国士兵，但会误杀附近的 <strong>1名</strong> 敌国平民。</p> <p>平民照片如下图所示。</p> <p></p> <img src='stimuli/faces/NCF7.jpg', style='max-width: 30%;'> </img> <p><strong>你是否选择发射武器？</strong></p>","1",""
"","","","","","html-keyboard-response","24","56130","0.0-4.0-0.10","182","1","2022-10-11 02:13:41","d60b49b5908c80e163b920d72b52d584","58.48.79.126","Mozilla/5.0 (Windows NT 10.0; Win64; x64) AppleWebKit/537.36 (KHTML, like Gecko) Chrome/103.0.0.0 Safari/537.36","WebKit","Chrome","103.0.0.0","Windows","10.0","null","<div style=""font-size:60px;"">+</div>","null",""
"","","","","","html-button-response","25","57817","0.0-4.0-1.10","182","1","2022-10-11 02:13:41","d60b49b5908c80e163b920d72b52d584","58.48.79.126","Mozilla/5.0 (Windows NT 10.0; Win64; x64) AppleWebKit/537.36 (KHTML, like Gecko) Chrome/103.0.0.0 Safari/537.36","WebKit","Chrome","103.0.0.0","Windows","10.0","1685","<p>作为军队的指挥官，你可以选择发射导弹杀死 <strong>2名</strong> 敌国士兵，但会炸毁附近的 <strong>1棵</strong> 敌国树木。</p> <p>树木的照片如下图所示。</p> <p></p> <img src='stimuli/trees/9.png', style='max-width: 30%;'> </img> <p><strong>你是否选择发射武器？</strong></p>","0",""
"","","","","","html-keyboard-response","26","58819","0.0-4.0-0.11","182","1","2022-10-11 02:13:41","d60b49b5908c80e163b920d72b52d584","58.48.79.126","Mozilla/5.0 (Windows NT 10.0; Win64; x64) AppleWebKit/537.36 (KHTML, like Gecko) Chrome/103.0.0.0 Safari/537.36","WebKit","Chrome","103.0.0.0","Windows","10.0","null","<div style=""font-size:60px;"">+</div>","null",""
"","","","","","html-button-response","27","60857","0.0-4.0-1.11","182","1","2022-10-11 02:13:41","d60b49b5908c80e163b920d72b52d584","58.48.79.126","Mozilla/5.0 (Windows NT 10.0; Win64; x64) AppleWebKit/537.36 (KHTML, like Gecko) Chrome/103.0.0.0 Safari/537.36","WebKit","Chrome","103.0.0.0","Windows","10.0","2037","<p>作为军队的指挥官，你可以选择发射导弹杀死 <strong>1名</strong> 敌国士兵，但会误杀附近的 <strong>1名</strong> 敌国平民。</p> <p>平民照片如下图所示。</p> <p></p> <img src='stimuli/faces/NCF6.jpg', style='max-width: 30%;'> </img> <p><strong>你是否选择发射武器？</strong></p>","1",""
"","","","","","html-keyboard-response","28","61859","0.0-4.0-0.12","182","1","2022-10-11 02:13:41","d60b49b5908c80e163b920d72b52d584","58.48.79.126","Mozilla/5.0 (Windows NT 10.0; Win64; x64) AppleWebKit/537.36 (KHTML, like Gecko) Chrome/103.0.0.0 Safari/537.36","WebKit","Chrome","103.0.0.0","Windows","10.0","null","<div style=""font-size:60px;"">+</div>","null",""
"","","","","","html-button-response","29","62537","0.0-4.0-1.12","182","1","2022-10-11 02:13:41","d60b49b5908c80e163b920d72b52d584","58.48.79.126","Mozilla/5.0 (Windows NT 10.0; Win64; x64) AppleWebKit/537.36 (KHTML, like Gecko) Chrome/103.0.0.0 Safari/537.36","WebKit","Chrome","103.0.0.0","Windows","10.0","677","<p>作为军队的指挥官，你可以选择发射导弹杀死 <strong>8名</strong> 敌国士兵，但会误杀附近的 <strong>1名</strong> 敌国平民。</p> <p>平民照片如下图所示。</p> <p></p> <img src='stimuli/faces/NCF8.jpg', style='max-width: 30%;'> </img> <p><strong>你是否选择发射武器？</strong></p>","1",""
"","","","","","html-keyboard-response","30","63538","0.0-4.0-0.13","182","1","2022-10-11 02:13:41","d60b49b5908c80e163b920d72b52d584","58.48.79.126","Mozilla/5.0 (Windows NT 10.0; Win64; x64) AppleWebKit/537.36 (KHTML, like Gecko) Chrome/103.0.0.0 Safari/537.36","WebKit","Chrome","103.0.0.0","Windows","10.0","null","<div style=""font-size:60px;"">+</div>","null",""
"","","","","","html-button-response","31","64825","0.0-4.0-1.13","182","1","2022-10-11 02:13:41","d60b49b5908c80e163b920d72b52d584","58.48.79.126","Mozilla/5.0 (Windows NT 10.0; Win64; x64) AppleWebKit/537.36 (KHTML, like Gecko) Chrome/103.0.0.0 Safari/537.36","WebKit","Chrome","103.0.0.0","Windows","10.0","1285","<p>作为军队的指挥官，你可以选择发射导弹杀死 <strong>6名</strong> 敌国士兵，但会炸毁附近的 <strong>1棵</strong> 敌国树木。</p> <p>树木的照片如下图所示。</p> <p></p> <img src='stimuli/trees/4.png', style='max-width: 30%;'> </img> <p><strong>你是否选择发射武器？</strong></p>","0",""
"","","","","","html-keyboard-response","32","65828","0.0-4.0-0.14","182","1","2022-10-11 02:13:41","d60b49b5908c80e163b920d72b52d584","58.48.79.126","Mozilla/5.0 (Windows NT 10.0; Win64; x64) AppleWebKit/537.36 (KHTML, like Gecko) Chrome/103.0.0.0 Safari/537.36","WebKit","Chrome","103.0.0.0","Windows","10.0","null","<div style=""font-size:60px;"">+</div>","null",""
"","","","","","html-button-response","33","66865","0.0-4.0-1.14","182","1","2022-10-11 02:13:41","d60b49b5908c80e163b920d72b52d584","58.48.79.126","Mozilla/5.0 (Windows NT 10.0; Win64; x64) AppleWebKit/537.36 (KHTML, like Gecko) Chrome/103.0.0.0 Safari/537.36","WebKit","Chrome","103.0.0.0","Windows","10.0","1036","<p>作为军队的指挥官，你可以选择发射导弹杀死 <strong>6名</strong> 敌国士兵，但会误杀附近的 <strong>1名</strong> 敌国平民。</p> <p>平民照片如下图所示。</p> <p></p> <img src='stimuli/faces/NCF3.jpg', style='max-width: 30%;'> </img> <p><strong>你是否选择发射武器？</strong></p>","1",""
"","","","","","html-keyboard-response","34","67867","0.0-4.0-0.15","182","1","2022-10-11 02:13:41","d60b49b5908c80e163b920d72b52d584","58.48.79.126","Mozilla/5.0 (Windows NT 10.0; Win64; x64) AppleWebKit/537.36 (KHTML, like Gecko) Chrome/103.0.0.0 Safari/537.36","WebKit","Chrome","103.0.0.0","Windows","10.0","null","<div style=""font-size:60px;"">+</div>","null",""
"","","","","","html-button-response","35","79001","0.0-4.0-1.15","182","1","2022-10-11 02:13:41","d60b49b5908c80e163b920d72b52d584","58.48.79.126","Mozilla/5.0 (Windows NT 10.0; Win64; x64) AppleWebKit/537.36 (KHTML, like Gecko) Chrome/103.0.0.0 Safari/537.36","WebKit","Chrome","103.0.0.0","Windows","10.0","11133","<p>作为军队的指挥官，你可以选择发射导弹杀死 <strong>2名</strong> 敌国士兵，但会炸毁附近的 <strong>1棵</strong> 敌国树木。</p> <p>树木的照片如下图所示。</p> <p></p> <img src='stimuli/trees/14.png', style='max-width: 30%;'> </img> <p><strong>你是否选择发射武器？</strong></p>","0",""
"","","","","","html-keyboard-response","36","80003","0.0-4.0-0.16","182","1","2022-10-11 02:13:41","d60b49b5908c80e163b920d72b52d584","58.48.79.126","Mozilla/5.0 (Windows NT 10.0; Win64; x64) AppleWebKit/537.36 (KHTML, like Gecko) Chrome/103.0.0.0 Safari/537.36","WebKit","Chrome","103.0.0.0","Windows","10.0","null","<div style=""font-size:60px;"">+</div>","null",""
"","","","","","html-button-response","37","81009","0.0-4.0-1.16","182","1","2022-10-11 02:13:41","d60b49b5908c80e163b920d72b52d584","58.48.79.126","Mozilla/5.0 (Windows NT 10.0; Win64; x64) AppleWebKit/537.36 (KHTML, like Gecko) Chrome/103.0.0.0 Safari/537.36","WebKit","Chrome","103.0.0.0","Windows","10.0","1005","<p>作为军队的指挥官，你可以选择发射导弹杀死 <strong>8名</strong> 敌国士兵，但会误杀附近的 <strong>1名</strong> 敌国平民。</p> <p>平民照片如下图所示。</p> <p></p> <img src='stimuli/faces/NCM6.jpg', style='max-width: 30%;'> </img> <p><strong>你是否选择发射武器？</strong></p>","1",""
"","","","","","html-keyboard-response","38","82010","0.0-4.0-0.17","182","1","2022-10-11 02:13:41","d60b49b5908c80e163b920d72b52d584","58.48.79.126","Mozilla/5.0 (Windows NT 10.0; Win64; x64) AppleWebKit/537.36 (KHTML, like Gecko) Chrome/103.0.0.0 Safari/537.36","WebKit","Chrome","103.0.0.0","Windows","10.0","null","<div style=""font-size:60px;"">+</div>","null",""
"","","","","","html-button-response","39","83273","0.0-4.0-1.17","182","1","2022-10-11 02:13:41","d60b49b5908c80e163b920d72b52d584","58.48.79.126","Mozilla/5.0 (Windows NT 10.0; Win64; x64) AppleWebKit/537.36 (KHTML, like Gecko) Chrome/103.0.0.0 Safari/537.36","WebKit","Chrome","103.0.0.0","Windows","10.0","1261","<p>作为军队的指挥官，你可以选择发射导弹杀死 <strong>2名</strong> 敌国士兵，但会误杀附近的 <strong>1名</strong> 敌国平民。</p> <p>平民照片如下图所示。</p> <p></p> <img src='stimuli/faces/NCF8.jpg', style='max-width: 30%;'> </img> <p><strong>你是否选择发射武器？</strong></p>","1",""
"","","","","","html-keyboard-response","40","84276","0.0-4.0-0.18","182","1","2022-10-11 02:13:41","d60b49b5908c80e163b920d72b52d584","58.48.79.126","Mozilla/5.0 (Windows NT 10.0; Win64; x64) AppleWebKit/537.36 (KHTML, like Gecko) Chrome/103.0.0.0 Safari/537.36","WebKit","Chrome","103.0.0.0","Windows","10.0","null","<div style=""font-size:60px;"">+</div>","null",""
"","","","","","html-button-response","41","835426","0.0-4.0-1.18","182","1","2022-10-11 02:13:41","d60b49b5908c80e163b920d72b52d584","58.48.79.126","Mozilla/5.0 (Windows NT 10.0; Win64; x64) AppleWebKit/537.36 (KHTML, like Gecko) Chrome/103.0.0.0 Safari/537.36","WebKit","Chrome","103.0.0.0","Windows","10.0","751149","<p>作为军队的指挥官，你可以选择发射导弹杀死 <strong>1名</strong> 敌国士兵，但会炸毁附近的 <strong>1棵</strong> 敌国树木。</p> <p>树木的照片如下图所示。</p> <p></p> <img src='stimuli/trees/3.png', style='max-width: 30%;'> </img> <p><strong>你是否选择发射武器？</strong></p>","0",""
"","","","","","html-keyboard-response","42","836429","0.0-4.0-0.19","182","1","2022-10-11 02:13:41","d60b49b5908c80e163b920d72b52d584","58.48.79.126","Mozilla/5.0 (Windows NT 10.0; Win64; x64) AppleWebKit/537.36 (KHTML, like Gecko) Chrome/103.0.0.0 Safari/537.36","WebKit","Chrome","103.0.0.0","Windows","10.0","null","<div style=""font-size:60px;"">+</div>","null",""
"","","","","","html-button-response","43","837082","0.0-4.0-1.19","182","1","2022-10-11 02:13:41","d60b49b5908c80e163b920d72b52d584","58.48.79.126","Mozilla/5.0 (Windows NT 10.0; Win64; x64) AppleWebKit/537.36 (KHTML, like Gecko) Chrome/103.0.0.0 Safari/537.36","WebKit","Chrome","103.0.0.0","Windows","10.0","652","<p>作为军队的指挥官，你可以选择发射导弹杀死 <strong>8名</strong> 敌国士兵，但会误杀附近的 <strong>1名</strong> 敌国平民。</p> <p>平民照片如下图所示。</p> <p></p> <img src='stimuli/faces/NCF1.jpg', style='max-width: 30%;'> </img> <p><strong>你是否选择发射武器？</strong></p>","1",""
"","","","","","html-keyboard-response","44","838084","0.0-4.0-0.20","182","1","2022-10-11 02:13:41","d60b49b5908c80e163b920d72b52d584","58.48.79.126","Mozilla/5.0 (Windows NT 10.0; Win64; x64) AppleWebKit/537.36 (KHTML, like Gecko) Chrome/103.0.0.0 Safari/537.36","WebKit","Chrome","103.0.0.0","Windows","10.0","null","<div style=""font-size:60px;"">+</div>","null",""
"","","","","","html-button-response","45","839434","0.0-4.0-1.20","182","1","2022-10-11 02:13:41","d60b49b5908c80e163b920d72b52d584","58.48.79.126","Mozilla/5.0 (Windows NT 10.0; Win64; x64) AppleWebKit/537.36 (KHTML, like Gecko) Chrome/103.0.0.0 Safari/537.36","WebKit","Chrome","103.0.0.0","Windows","10.0","1346","<p>作为军队的指挥官，你可以选择发射导弹杀死 <strong>2名</strong> 敌国士兵，但会炸毁附近的 <strong>1棵</strong> 敌国树木。</p> <p>树木的照片如下图所示。</p> <p></p> <img src='stimuli/trees/1.png', style='max-width: 30%;'> </img> <p><strong>你是否选择发射武器？</strong></p>","0",""
"","","","","","html-keyboard-response","46","840436","0.0-4.0-0.21","182","1","2022-10-11 02:13:41","d60b49b5908c80e163b920d72b52d584","58.48.79.126","Mozilla/5.0 (Windows NT 10.0; Win64; x64) AppleWebKit/537.36 (KHTML, like Gecko) Chrome/103.0.0.0 Safari/537.36","WebKit","Chrome","103.0.0.0","Windows","10.0","null","<div style=""font-size:60px;"">+</div>","null",""
"","","","","","html-button-response","47","841730","0.0-4.0-1.21","182","1","2022-10-11 02:13:41","d60b49b5908c80e163b920d72b52d584","58.48.79.126","Mozilla/5.0 (Windows NT 10.0; Win64; x64) AppleWebKit/537.36 (KHTML, like Gecko) Chrome/103.0.0.0 Safari/537.36","WebKit","Chrome","103.0.0.0","Windows","10.0","1293","<p>作为军队的指挥官，你可以选择发射导弹杀死 <strong>2名</strong> 敌国士兵，但会误杀附近的 <strong>1名</strong> 敌国平民。</p> <p>平民照片如下图所示。</p> <p></p> <img src='stimuli/faces/NCF1.jpg', style='max-width: 30%;'> </img> <p><strong>你是否选择发射武器？</strong></p>","1",""
"","","","","","html-keyboard-response","48","842732","0.0-4.0-0.22","182","1","2022-10-11 02:13:41","d60b49b5908c80e163b920d72b52d584","58.48.79.126","Mozilla/5.0 (Windows NT 10.0; Win64; x64) AppleWebKit/537.36 (KHTML, like Gecko) Chrome/103.0.0.0 Safari/537.36","WebKit","Chrome","103.0.0.0","Windows","10.0","null","<div style=""font-size:60px;"">+</div>","null",""
"","","","","","html-button-response","49","843586","0.0-4.0-1.22","182","1","2022-10-11 02:13:41","d60b49b5908c80e163b920d72b52d584","58.48.79.126","Mozilla/5.0 (Windows NT 10.0; Win64; x64) AppleWebKit/537.36 (KHTML, like Gecko) Chrome/103.0.0.0 Safari/537.36","WebKit","Chrome","103.0.0.0","Windows","10.0","853","<p>作为军队的指挥官，你可以选择发射导弹杀死 <strong>8名</strong> 敌国士兵，但会误杀附近的 <strong>1名</strong> 敌国平民。</p> <p>平民照片如下图所示。</p> <p></p> <img src='stimuli/faces/NCM3.jpg', style='max-width: 30%;'> </img> <p><strong>你是否选择发射武器？</strong></p>","1",""
"","","","","","html-keyboard-response","50","844589","0.0-4.0-0.23","182","1","2022-10-11 02:13:41","d60b49b5908c80e163b920d72b52d584","58.48.79.126","Mozilla/5.0 (Windows NT 10.0; Win64; x64) AppleWebKit/537.36 (KHTML, like Gecko) Chrome/103.0.0.0 Safari/537.36","WebKit","Chrome","103.0.0.0","Windows","10.0","null","<div style=""font-size:60px;"">+</div>","null",""
"","","","","","html-button-response","51","845842","0.0-4.0-1.23","182","1","2022-10-11 02:13:41","d60b49b5908c80e163b920d72b52d584","58.48.79.126","Mozilla/5.0 (Windows NT 10.0; Win64; x64) AppleWebKit/537.36 (KHTML, like Gecko) Chrome/103.0.0.0 Safari/537.36","WebKit","Chrome","103.0.0.0","Windows","10.0","1251","<p>作为军队的指挥官，你可以选择发射导弹杀死 <strong>2名</strong> 敌国士兵，但会炸毁附近的 <strong>1棵</strong> 敌国树木。</p> <p>树木的照片如下图所示。</p> <p></p> <img src='stimuli/trees/15.png', style='max-width: 30%;'> </img> <p><strong>你是否选择发射武器？</strong></p>","0",""
"","","","","","html-keyboard-response","52","846845","0.0-4.0-0.24","182","1","2022-10-11 02:13:41","d60b49b5908c80e163b920d72b52d584","58.48.79.126","Mozilla/5.0 (Windows NT 10.0; Win64; x64) AppleWebKit/537.36 (KHTML, like Gecko) Chrome/103.0.0.0 Safari/537.36","WebKit","Chrome","103.0.0.0","Windows","10.0","null","<div style=""font-size:60px;"">+</div>","null",""
"","","","","","html-button-response","53","1259099","0.0-4.0-1.24","182","1","2022-10-11 02:13:41","d60b49b5908c80e163b920d72b52d584","58.48.79.126","Mozilla/5.0 (Windows NT 10.0; Win64; x64) AppleWebKit/537.36 (KHTML, like Gecko) Chrome/103.0.0.0 Safari/537.36","WebKit","Chrome","103.0.0.0","Windows","10.0","412508","<p>作为军队的指挥官，你可以选择发射导弹杀死 <strong>1名</strong> 敌国士兵，但会炸毁附近的 <strong>1棵</strong> 敌国树木。</p> <p>树木的照片如下图所示。</p> <p></p> <img src='stimuli/trees/6.png', style='max-width: 30%;'> </img> <p><strong>你是否选择发射武器？</strong></p>","0",""
"","","","","","html-keyboard-response","54","1260101","0.0-4.0-0.25","182","1","2022-10-11 02:13:41","d60b49b5908c80e163b920d72b52d584","58.48.79.126","Mozilla/5.0 (Windows NT 10.0; Win64; x64) AppleWebKit/537.36 (KHTML, like Gecko) Chrome/103.0.0.0 Safari/537.36","WebKit","Chrome","103.0.0.0","Windows","10.0","null","<div style=""font-size:60px;"">+</div>","null",""
"","","","","","html-button-response","55","1261315","0.0-4.0-1.25","182","1","2022-10-11 02:13:41","d60b49b5908c80e163b920d72b52d584","58.48.79.126","Mozilla/5.0 (Windows NT 10.0; Win64; x64) AppleWebKit/537.36 (KHTML, like Gecko) Chrome/103.0.0.0 Safari/537.36","WebKit","Chrome","103.0.0.0","Windows","10.0","1211","<p>作为军队的指挥官，你可以选择发射导弹杀死 <strong>10名</strong> 敌国士兵，但会炸毁附近的 <strong>1棵</strong> 敌国树木。</p> <p>树木的照片如下图所示。</p> <p></p> <img src='stimuli/trees/15.png', style='max-width: 30%;'> </img> <p><strong>你是否选择发射武器？</strong></p>","0",""
"","","","","","html-keyboard-response","56","1262317","0.0-4.0-0.26","182","1","2022-10-11 02:13:41","d60b49b5908c80e163b920d72b52d584","58.48.79.126","Mozilla/5.0 (Windows NT 10.0; Win64; x64) AppleWebKit/537.36 (KHTML, like Gecko) Chrome/103.0.0.0 Safari/537.36","WebKit","Chrome","103.0.0.0","Windows","10.0","null","<div style=""font-size:60px;"">+</div>","null",""
"","","","","","html-button-response","57","1263427","0.0-4.0-1.26","182","1","2022-10-11 02:13:41","d60b49b5908c80e163b920d72b52d584","58.48.79.126","Mozilla/5.0 (Windows NT 10.0; Win64; x64) AppleWebKit/537.36 (KHTML, like Gecko) Chrome/103.0.0.0 Safari/537.36","WebKit","Chrome","103.0.0.0","Windows","10.0","1108","<p>作为军队的指挥官，你可以选择发射导弹杀死 <strong>7名</strong> 敌国士兵，但会炸毁附近的 <strong>1棵</strong> 敌国树木。</p> <p>树木的照片如下图所示。</p> <p></p> <img src='stimuli/trees/3.png', style='max-width: 30%;'> </img> <p><strong>你是否选择发射武器？</strong></p>","0",""
"","","","","","html-keyboard-response","58","1264429","0.0-4.0-0.27","182","1","2022-10-11 02:13:41","d60b49b5908c80e163b920d72b52d584","58.48.79.126","Mozilla/5.0 (Windows NT 10.0; Win64; x64) AppleWebKit/537.36 (KHTML, like Gecko) Chrome/103.0.0.0 Safari/537.36","WebKit","Chrome","103.0.0.0","Windows","10.0","null","<div style=""font-size:60px;"">+</div>","null",""
"","","","","","html-button-response","59","1264948","0.0-4.0-1.27","182","1","2022-10-11 02:13:41","d60b49b5908c80e163b920d72b52d584","58.48.79.126","Mozilla/5.0 (Windows NT 10.0; Win64; x64) AppleWebKit/537.36 (KHTML, like Gecko) Chrome/103.0.0.0 Safari/537.36","WebKit","Chrome","103.0.0.0","Windows","10.0","516","<p>作为军队的指挥官，你可以选择发射导弹杀死 <strong>5名</strong> 敌国士兵，但会炸毁附近的 <strong>1棵</strong> 敌国树木。</p> <p>树木的照片如下图所示。</p> <p></p> <img src='stimuli/trees/8.png', style='max-width: 30%;'> </img> <p><strong>你是否选择发射武器？</strong></p>","0",""
"","","","","","html-keyboard-response","60","1265950","0.0-4.0-0.28","182","1","2022-10-11 02:13:41","d60b49b5908c80e163b920d72b52d584","58.48.79.126","Mozilla/5.0 (Windows NT 10.0; Win64; x64) AppleWebKit/537.36 (KHTML, like Gecko) Chrome/103.0.0.0 Safari/537.36","WebKit","Chrome","103.0.0.0","Windows","10.0","null","<div style=""font-size:60px;"">+</div>","null",""
"","","","","","html-button-response","61","1266547","0.0-4.0-1.28","182","1","2022-10-11 02:13:41","d60b49b5908c80e163b920d72b52d584","58.48.79.126","Mozilla/5.0 (Windows NT 10.0; Win64; x64) AppleWebKit/537.36 (KHTML, like Gecko) Chrome/103.0.0.0 Safari/537.36","WebKit","Chrome","103.0.0.0","Windows","10.0","595","<p>作为军队的指挥官，你可以选择发射导弹杀死 <strong>4名</strong> 敌国士兵，但会炸毁附近的 <strong>1棵</strong> 敌国树木。</p> <p>树木的照片如下图所示。</p> <p></p> <img src='stimuli/trees/7.png', style='max-width: 30%;'> </img> <p><strong>你是否选择发射武器？</strong></p>","0",""
"","","","","","html-keyboard-response","62","1267549","0.0-4.0-0.29","182","1","2022-10-11 02:13:41","d60b49b5908c80e163b920d72b52d584","58.48.79.126","Mozilla/5.0 (Windows NT 10.0; Win64; x64) AppleWebKit/537.36 (KHTML, like Gecko) Chrome/103.0.0.0 Safari/537.36","WebKit","Chrome","103.0.0.0","Windows","10.0","null","<div style=""font-size:60px;"">+</div>","null",""
"","","","","","html-button-response","63","1269035","0.0-4.0-1.29","182","1","2022-10-11 02:13:41","d60b49b5908c80e163b920d72b52d584","58.48.79.126","Mozilla/5.0 (Windows NT 10.0; Win64; x64) AppleWebKit/537.36 (KHTML, like Gecko) Chrome/103.0.0.0 Safari/537.36","WebKit","Chrome","103.0.0.0","Windows","10.0","1480","<p>作为军队的指挥官，你可以选择发射导弹杀死 <strong>2名</strong> 敌国士兵，但会误杀附近的 <strong>1名</strong> 敌国平民。</p> <p>平民照片如下图所示。</p> <p></p> <img src='stimuli/faces/NCM8.jpg', style='max-width: 30%;'> </img> <p><strong>你是否选择发射武器？</strong></p>","1",""
"","","","","","html-keyboard-response","64","1270038","0.0-4.0-0.30","182","1","2022-10-11 02:13:41","d60b49b5908c80e163b920d72b52d584","58.48.79.126","Mozilla/5.0 (Windows NT 10.0; Win64; x64) AppleWebKit/537.36 (KHTML, like Gecko) Chrome/103.0.0.0 Safari/537.36","WebKit","Chrome","103.0.0.0","Windows","10.0","null","<div style=""font-size:60px;"">+</div>","null",""
"","","","","","html-button-response","65","1270523","0.0-4.0-1.30","182","1","2022-10-11 02:13:41","d60b49b5908c80e163b920d72b52d584","58.48.79.126","Mozilla/5.0 (Windows NT 10.0; Win64; x64) AppleWebKit/537.36 (KHTML, like Gecko) Chrome/103.0.0.0 Safari/537.36","WebKit","Chrome","103.0.0.0","Windows","10.0","483","<p>作为军队的指挥官，你可以选择发射导弹杀死 <strong>1名</strong> 敌国士兵，但会误杀附近的 <strong>1名</strong> 敌国平民。</p> <p>平民照片如下图所示。</p> <p></p> <img src='stimuli/faces/NCM5.jpg', style='max-width: 30%;'> </img> <p><strong>你是否选择发射武器？</strong></p>","1",""
"","","","","","html-keyboard-response","66","1271526","0.0-4.0-0.31","182","1","2022-10-11 02:13:41","d60b49b5908c80e163b920d72b52d584","58.48.79.126","Mozilla/5.0 (Windows NT 10.0; Win64; x64) AppleWebKit/537.36 (KHTML, like Gecko) Chrome/103.0.0.0 Safari/537.36","WebKit","Chrome","103.0.0.0","Windows","10.0","null","<div style=""font-size:60px;"">+</div>","null",""
"","","","","","html-button-response","67","1278788","0.0-4.0-1.31","182","1","2022-10-11 02:13:41","d60b49b5908c80e163b920d72b52d584","58.48.79.126","Mozilla/5.0 (Windows NT 10.0; Win64; x64) AppleWebKit/537.36 (KHTML, like Gecko) Chrome/103.0.0.0 Safari/537.36","WebKit","Chrome","103.0.0.0","Windows","10.0","7260","<p>作为军队的指挥官，你可以选择发射导弹杀死 <strong>8名</strong> 敌国士兵，但会炸毁附近的 <strong>1棵</strong> 敌国树木。</p> <p>树木的照片如下图所示。</p> <p></p> <img src='stimuli/trees/5.png', style='max-width: 30%;'> </img> <p><strong>你是否选择发射武器？</strong></p>","0",""
"","","","","","html-keyboard-response","68","1279790","0.0-4.0-0.32","182","1","2022-10-11 02:13:41","d60b49b5908c80e163b920d72b52d584","58.48.79.126","Mozilla/5.0 (Windows NT 10.0; Win64; x64) AppleWebKit/537.36 (KHTML, like Gecko) Chrome/103.0.0.0 Safari/537.36","WebKit","Chrome","103.0.0.0","Windows","10.0","null","<div style=""font-size:60px;"">+</div>","null",""
"","","","","","html-button-response","69","1280579","0.0-4.0-1.32","182","1","2022-10-11 02:13:41","d60b49b5908c80e163b920d72b52d584","58.48.79.126","Mozilla/5.0 (Windows NT 10.0; Win64; x64) AppleWebKit/537.36 (KHTML, like Gecko) Chrome/103.0.0.0 Safari/537.36","WebKit","Chrome","103.0.0.0","Windows","10.0","786","<p>作为军队的指挥官，你可以选择发射导弹杀死 <strong>7名</strong> 敌国士兵，但会炸毁附近的 <strong>1棵</strong> 敌国树木。</p> <p>树木的照片如下图所示。</p> <p></p> <img src='stimuli/trees/8.png', style='max-width: 30%;'> </img> <p><strong>你是否选择发射武器？</strong></p>","0",""
"","","","","","html-keyboard-response","70","1281582","0.0-4.0-0.33","182","1","2022-10-11 02:13:41","d60b49b5908c80e163b920d72b52d584","58.48.79.126","Mozilla/5.0 (Windows NT 10.0; Win64; x64) AppleWebKit/537.36 (KHTML, like Gecko) Chrome/103.0.0.0 Safari/537.36","WebKit","Chrome","103.0.0.0","Windows","10.0","null","<div style=""font-size:60px;"">+</div>","null",""
"","","","","","html-button-response","71","1282531","0.0-4.0-1.33","182","1","2022-10-11 02:13:41","d60b49b5908c80e163b920d72b52d584","58.48.79.126","Mozilla/5.0 (Windows NT 10.0; Win64; x64) AppleWebKit/537.36 (KHTML, like Gecko) Chrome/103.0.0.0 Safari/537.36","WebKit","Chrome","103.0.0.0","Windows","10.0","947","<p>作为军队的指挥官，你可以选择发射导弹杀死 <strong>7名</strong> 敌国士兵，但会误杀附近的 <strong>1名</strong> 敌国平民。</p> <p>平民照片如下图所示。</p> <p></p> <img src='stimuli/faces/NCM2.jpg', style='max-width: 30%;'> </img> <p><strong>你是否选择发射武器？</strong></p>","1",""
"","","","","","html-keyboard-response","72","1283534","0.0-4.0-0.34","182","1","2022-10-11 02:13:41","d60b49b5908c80e163b920d72b52d584","58.48.79.126","Mozilla/5.0 (Windows NT 10.0; Win64; x64) AppleWebKit/537.36 (KHTML, like Gecko) Chrome/103.0.0.0 Safari/537.36","WebKit","Chrome","103.0.0.0","Windows","10.0","null","<div style=""font-size:60px;"">+</div>","null",""
"","","","","","html-button-response","73","1284403","0.0-4.0-1.34","182","1","2022-10-11 02:13:41","d60b49b5908c80e163b920d72b52d584","58.48.79.126","Mozilla/5.0 (Windows NT 10.0; Win64; x64) AppleWebKit/537.36 (KHTML, like Gecko) Chrome/103.0.0.0 Safari/537.36","WebKit","Chrome","103.0.0.0","Windows","10.0","867","<p>作为军队的指挥官，你可以选择发射导弹杀死 <strong>6名</strong> 敌国士兵，但会误杀附近的 <strong>1名</strong> 敌国平民。</p> <p>平民照片如下图所示。</p> <p></p> <img src='stimuli/faces/NCM4.jpg', style='max-width: 30%;'> </img> <p><strong>你是否选择发射武器？</strong></p>","1",""
"","","","","","html-keyboard-response","74","1285405","0.0-4.0-0.35","182","1","2022-10-11 02:13:41","d60b49b5908c80e163b920d72b52d584","58.48.79.126","Mozilla/5.0 (Windows NT 10.0; Win64; x64) AppleWebKit/537.36 (KHTML, like Gecko) Chrome/103.0.0.0 Safari/537.36","WebKit","Chrome","103.0.0.0","Windows","10.0","null","<div style=""font-size:60px;"">+</div>","null",""
"","","","","","html-button-response","75","1286339","0.0-4.0-1.35","182","1","2022-10-11 02:13:41","d60b49b5908c80e163b920d72b52d584","58.48.79.126","Mozilla/5.0 (Windows NT 10.0; Win64; x64) AppleWebKit/537.36 (KHTML, like Gecko) Chrome/103.0.0.0 Safari/537.36","WebKit","Chrome","103.0.0.0","Windows","10.0","932","<p>作为军队的指挥官，你可以选择发射导弹杀死 <strong>4名</strong> 敌国士兵，但会误杀附近的 <strong>1名</strong> 敌国平民。</p> <p>平民照片如下图所示。</p> <p></p> <img src='stimuli/faces/NCM4.jpg', style='max-width: 30%;'> </img> <p><strong>你是否选择发射武器？</strong></p>","1",""
"","","","","","html-keyboard-response","76","1287342","0.0-4.0-0.36","182","1","2022-10-11 02:13:41","d60b49b5908c80e163b920d72b52d584","58.48.79.126","Mozilla/5.0 (Windows NT 10.0; Win64; x64) AppleWebKit/537.36 (KHTML, like Gecko) Chrome/103.0.0.0 Safari/537.36","WebKit","Chrome","103.0.0.0","Windows","10.0","null","<div style=""font-size:60px;"">+</div>","null",""
"","","","","","html-button-response","77","1307228","0.0-4.0-1.36","182","1","2022-10-11 02:13:41","d60b49b5908c80e163b920d72b52d584","58.48.79.126","Mozilla/5.0 (Windows NT 10.0; Win64; x64) AppleWebKit/537.36 (KHTML, like Gecko) Chrome/103.0.0.0 Safari/537.36","WebKit","Chrome","103.0.0.0","Windows","10.0","19883","<p>作为军队的指挥官，你可以选择发射导弹杀死 <strong>10名</strong> 敌国士兵，但会炸毁附近的 <strong>1棵</strong> 敌国树木。</p> <p>树木的照片如下图所示。</p> <p></p> <img src='stimuli/trees/13.png', style='max-width: 30%;'> </img> <p><strong>你是否选择发射武器？</strong></p>","0",""
"","","","","","html-keyboard-response","78","1308231","0.0-4.0-0.37","182","1","2022-10-11 02:13:41","d60b49b5908c80e163b920d72b52d584","58.48.79.126","Mozilla/5.0 (Windows NT 10.0; Win64; x64) AppleWebKit/537.36 (KHTML, like Gecko) Chrome/103.0.0.0 Safari/537.36","WebKit","Chrome","103.0.0.0","Windows","10.0","null","<div style=""font-size:60px;"">+</div>","null",""
"","","","","","html-button-response","79","1311812","0.0-4.0-1.37","182","1","2022-10-11 02:13:41","d60b49b5908c80e163b920d72b52d584","58.48.79.126","Mozilla/5.0 (Windows NT 10.0; Win64; x64) AppleWebKit/537.36 (KHTML, like Gecko) Chrome/103.0.0.0 Safari/537.36","WebKit","Chrome","103.0.0.0","Windows","10.0","3579","<p>作为军队的指挥官，你可以选择发射导弹杀死 <strong>3名</strong> 敌国士兵，但会炸毁附近的 <strong>1棵</strong> 敌国树木。</p> <p>树木的照片如下图所示。</p> <p></p> <img src='stimuli/trees/12.png', style='max-width: 30%;'> </img> <p><strong>你是否选择发射武器？</strong></p>","0",""
"","","","","","html-keyboard-response","80","1312814","0.0-4.0-0.38","182","1","2022-10-11 02:13:41","d60b49b5908c80e163b920d72b52d584","58.48.79.126","Mozilla/5.0 (Windows NT 10.0; Win64; x64) AppleWebKit/537.36 (KHTML, like Gecko) Chrome/103.0.0.0 Safari/537.36","WebKit","Chrome","103.0.0.0","Windows","10.0","null","<div style=""font-size:60px;"">+</div>","null",""
"","","","","","html-button-response","81","1314996","0.0-4.0-1.38","182","1","2022-10-11 02:13:41","d60b49b5908c80e163b920d72b52d584","58.48.79.126","Mozilla/5.0 (Windows NT 10.0; Win64; x64) AppleWebKit/537.36 (KHTML, like Gecko) Chrome/103.0.0.0 Safari/537.36","WebKit","Chrome","103.0.0.0","Windows","10.0","2179","<p>作为军队的指挥官，你可以选择发射导弹杀死 <strong>8名</strong> 敌国士兵，但会炸毁附近的 <strong>1棵</strong> 敌国树木。</p> <p>树木的照片如下图所示。</p> <p></p> <img src='stimuli/trees/6.png', style='max-width: 30%;'> </img> <p><strong>你是否选择发射武器？</strong></p>","0",""
"","","","","","html-keyboard-response","82","1315998","0.0-4.0-0.39","182","1","2022-10-11 02:13:41","d60b49b5908c80e163b920d72b52d584","58.48.79.126","Mozilla/5.0 (Windows NT 10.0; Win64; x64) AppleWebKit/537.36 (KHTML, like Gecko) Chrome/103.0.0.0 Safari/537.36","WebKit","Chrome","103.0.0.0","Windows","10.0","null","<div style=""font-size:60px;"">+</div>","null",""
"","","","","","html-button-response","83","1317012","0.0-4.0-1.39","182","1","2022-10-11 02:13:41","d60b49b5908c80e163b920d72b52d584","58.48.79.126","Mozilla/5.0 (Windows NT 10.0; Win64; x64) AppleWebKit/537.36 (KHTML, like Gecko) Chrome/103.0.0.0 Safari/537.36","WebKit","Chrome","103.0.0.0","Windows","10.0","1011","<p>作为军队的指挥官，你可以选择发射导弹杀死 <strong>2名</strong> 敌国士兵，但会误杀附近的 <strong>1名</strong> 敌国平民。</p> <p>平民照片如下图所示。</p> <p></p> <img src='stimuli/faces/NCM3.jpg', style='max-width: 30%;'> </img> <p><strong>你是否选择发射武器？</strong></p>","1",""
"","","","","","html-keyboard-response","84","1318014","0.0-4.0-0.40","182","1","2022-10-11 02:13:41","d60b49b5908c80e163b920d72b52d584","58.48.79.126","Mozilla/5.0 (Windows NT 10.0; Win64; x64) AppleWebKit/537.36 (KHTML, like Gecko) Chrome/103.0.0.0 Safari/537.36","WebKit","Chrome","103.0.0.0","Windows","10.0","null","<div style=""font-size:60px;"">+</div>","null",""
"","","","","","html-button-response","85","1318932","0.0-4.0-1.40","182","1","2022-10-11 02:13:41","d60b49b5908c80e163b920d72b52d584","58.48.79.126","Mozilla/5.0 (Windows NT 10.0; Win64; x64) AppleWebKit/537.36 (KHTML, like Gecko) Chrome/103.0.0.0 Safari/537.36","WebKit","Chrome","103.0.0.0","Windows","10.0","915","<p>作为军队的指挥官，你可以选择发射导弹杀死 <strong>9名</strong> 敌国士兵，但会炸毁附近的 <strong>1棵</strong> 敌国树木。</p> <p>树木的照片如下图所示。</p> <p></p> <img src='stimuli/trees/16.png', style='max-width: 30%;'> </img> <p><strong>你是否选择发射武器？</strong></p>","0",""
"","","","","","html-keyboard-response","86","1319934","0.0-4.0-0.41","182","1","2022-10-11 02:13:41","d60b49b5908c80e163b920d72b52d584","58.48.79.126","Mozilla/5.0 (Windows NT 10.0; Win64; x64) AppleWebKit/537.36 (KHTML, like Gecko) Chrome/103.0.0.0 Safari/537.36","WebKit","Chrome","103.0.0.0","Windows","10.0","null","<div style=""font-size:60px;"">+</div>","null",""
"","","","","","html-button-response","87","1320932","0.0-4.0-1.41","182","1","2022-10-11 02:13:41","d60b49b5908c80e163b920d72b52d584","58.48.79.126","Mozilla/5.0 (Windows NT 10.0; Win64; x64) AppleWebKit/537.36 (KHTML, like Gecko) Chrome/103.0.0.0 Safari/537.36","WebKit","Chrome","103.0.0.0","Windows","10.0","995","<p>作为军队的指挥官，你可以选择发射导弹杀死 <strong>8名</strong> 敌国士兵，但会误杀附近的 <strong>1名</strong> 敌国平民。</p> <p>平民照片如下图所示。</p> <p></p> <img src='stimuli/faces/NCM7.jpg', style='max-width: 30%;'> </img> <p><strong>你是否选择发射武器？</strong></p>","1",""
"","","","","","html-keyboard-response","88","1321934","0.0-4.0-0.42","182","1","2022-10-11 02:13:41","d60b49b5908c80e163b920d72b52d584","58.48.79.126","Mozilla/5.0 (Windows NT 10.0; Win64; x64) AppleWebKit/537.36 (KHTML, like Gecko) Chrome/103.0.0.0 Safari/537.36","WebKit","Chrome","103.0.0.0","Windows","10.0","null","<div style=""font-size:60px;"">+</div>","null",""
"","","","","","html-button-response","89","1333964","0.0-4.0-1.42","182","1","2022-10-11 02:13:41","d60b49b5908c80e163b920d72b52d584","58.48.79.126","Mozilla/5.0 (Windows NT 10.0; Win64; x64) AppleWebKit/537.36 (KHTML, like Gecko) Chrome/103.0.0.0 Safari/537.36","WebKit","Chrome","103.0.0.0","Windows","10.0","12027","<p>作为军队的指挥官，你可以选择发射导弹杀死 <strong>1名</strong> 敌国士兵，但会炸毁附近的 <strong>1棵</strong> 敌国树木。</p> <p>树木的照片如下图所示。</p> <p></p> <img src='stimuli/trees/13.png', style='max-width: 30%;'> </img> <p><strong>你是否选择发射武器？</strong></p>","0",""
"","","","","","html-keyboard-response","90","1334967","0.0-4.0-0.43","182","1","2022-10-11 02:13:41","d60b49b5908c80e163b920d72b52d584","58.48.79.126","Mozilla/5.0 (Windows NT 10.0; Win64; x64) AppleWebKit/537.36 (KHTML, like Gecko) Chrome/103.0.0.0 Safari/537.36","WebKit","Chrome","103.0.0.0","Windows","10.0","null","<div style=""font-size:60px;"">+</div>","null",""
"","","","","","html-button-response","91","1335780","0.0-4.0-1.43","182","1","2022-10-11 02:13:41","d60b49b5908c80e163b920d72b52d584","58.48.79.126","Mozilla/5.0 (Windows NT 10.0; Win64; x64) AppleWebKit/537.36 (KHTML, like Gecko) Chrome/103.0.0.0 Safari/537.36","WebKit","Chrome","103.0.0.0","Windows","10.0","810","<p>作为军队的指挥官，你可以选择发射导弹杀死 <strong>4名</strong> 敌国士兵，但会炸毁附近的 <strong>1棵</strong> 敌国树木。</p> <p>树木的照片如下图所示。</p> <p></p> <img src='stimuli/trees/5.png', style='max-width: 30%;'> </img> <p><strong>你是否选择发射武器？</strong></p>","0",""
"","","","","","html-keyboard-response","92","1336783","0.0-4.0-0.44","182","1","2022-10-11 02:13:41","d60b49b5908c80e163b920d72b52d584","58.48.79.126","Mozilla/5.0 (Windows NT 10.0; Win64; x64) AppleWebKit/537.36 (KHTML, like Gecko) Chrome/103.0.0.0 Safari/537.36","WebKit","Chrome","103.0.0.0","Windows","10.0","null","<div style=""font-size:60px;"">+</div>","null",""
"","","","","","html-button-response","93","1338164","0.0-4.0-1.44","182","1","2022-10-11 02:13:41","d60b49b5908c80e163b920d72b52d584","58.48.79.126","Mozilla/5.0 (Windows NT 10.0; Win64; x64) AppleWebKit/537.36 (KHTML, like Gecko) Chrome/103.0.0.0 Safari/537.36","WebKit","Chrome","103.0.0.0","Windows","10.0","1379","<p>作为军队的指挥官，你可以选择发射导弹杀死 <strong>1名</strong> 敌国士兵，但会误杀附近的 <strong>1名</strong> 敌国平民。</p> <p>平民照片如下图所示。</p> <p></p> <img src='stimuli/faces/NCM6.jpg', style='max-width: 30%;'> </img> <p><strong>你是否选择发射武器？</strong></p>","1",""
"","","","","","html-keyboard-response","94","1339166","0.0-4.0-0.45","182","1","2022-10-11 02:13:41","d60b49b5908c80e163b920d72b52d584","58.48.79.126","Mozilla/5.0 (Windows NT 10.0; Win64; x64) AppleWebKit/537.36 (KHTML, like Gecko) Chrome/103.0.0.0 Safari/537.36","WebKit","Chrome","103.0.0.0","Windows","10.0","null","<div style=""font-size:60px;"">+</div>","null",""
"","","","","","html-button-response","95","1339676","0.0-4.0-1.45","182","1","2022-10-11 02:13:41","d60b49b5908c80e163b920d72b52d584","58.48.79.126","Mozilla/5.0 (Windows NT 10.0; Win64; x64) AppleWebKit/537.36 (KHTML, like Gecko) Chrome/103.0.0.0 Safari/537.36","WebKit","Chrome","103.0.0.0","Windows","10.0","507","<p>作为军队的指挥官，你可以选择发射导弹杀死 <strong>10名</strong> 敌国士兵，但会误杀附近的 <strong>1名</strong> 敌国平民。</p> <p>平民照片如下图所示。</p> <p></p> <img src='stimuli/faces/NCM5.jpg', style='max-width: 30%;'> </img> <p><strong>你是否选择发射武器？</strong></p>","1",""
"","","","","","html-keyboard-response","96","1340679","0.0-4.0-0.46","182","1","2022-10-11 02:13:41","d60b49b5908c80e163b920d72b52d584","58.48.79.126","Mozilla/5.0 (Windows NT 10.0; Win64; x64) AppleWebKit/537.36 (KHTML, like Gecko) Chrome/103.0.0.0 Safari/537.36","WebKit","Chrome","103.0.0.0","Windows","10.0","null","<div style=""font-size:60px;"">+</div>","null",""
"","","","","","html-button-response","97","1341244","0.0-4.0-1.46","182","1","2022-10-11 02:13:41","d60b49b5908c80e163b920d72b52d584","58.48.79.126","Mozilla/5.0 (Windows NT 10.0; Win64; x64) AppleWebKit/537.36 (KHTML, like Gecko) Chrome/103.0.0.0 Safari/537.36","WebKit","Chrome","103.0.0.0","Windows","10.0","562","<p>作为军队的指挥官，你可以选择发射导弹杀死 <strong>4名</strong> 敌国士兵，但会误杀附近的 <strong>1名</strong> 敌国平民。</p> <p>平民照片如下图所示。</p> <p></p> <img src='stimuli/faces/NCM7.jpg', style='max-width: 30%;'> </img> <p><strong>你是否选择发射武器？</strong></p>","1",""
"","","","","","html-keyboard-response","98","1342246","0.0-4.0-0.47","182","1","2022-10-11 02:13:41","d60b49b5908c80e163b920d72b52d584","58.48.79.126","Mozilla/5.0 (Windows NT 10.0; Win64; x64) AppleWebKit/537.36 (KHTML, like Gecko) Chrome/103.0.0.0 Safari/537.36","WebKit","Chrome","103.0.0.0","Windows","10.0","null","<div style=""font-size:60px;"">+</div>","null",""
"","","","","","html-button-response","99","1343892","0.0-4.0-1.47","182","1","2022-10-11 02:13:41","d60b49b5908c80e163b920d72b52d584","58.48.79.126","Mozilla/5.0 (Windows NT 10.0; Win64; x64) AppleWebKit/537.36 (KHTML, like Gecko) Chrome/103.0.0.0 Safari/537.36","WebKit","Chrome","103.0.0.0","Windows","10.0","1643","<p>作为军队的指挥官，你可以选择发射导弹杀死 <strong>3名</strong> 敌国士兵，但会炸毁附近的 <strong>1棵</strong> 敌国树木。</p> <p>树木的照片如下图所示。</p> <p></p> <img src='stimuli/trees/11.png', style='max-width: 30%;'> </img> <p><strong>你是否选择发射武器？</strong></p>","0",""
"","","","","","html-keyboard-response","100","1344894","0.0-4.0-0.48","182","1","2022-10-11 02:13:41","d60b49b5908c80e163b920d72b52d584","58.48.79.126","Mozilla/5.0 (Windows NT 10.0; Win64; x64) AppleWebKit/537.36 (KHTML, like Gecko) Chrome/103.0.0.0 Safari/537.36","WebKit","Chrome","103.0.0.0","Windows","10.0","null","<div style=""font-size:60px;"">+</div>","null",""
"","","","","","html-button-response","101","1345397","0.0-4.0-1.48","182","1","2022-10-11 02:13:41","d60b49b5908c80e163b920d72b52d584","58.48.79.126","Mozilla/5.0 (Windows NT 10.0; Win64; x64) AppleWebKit/537.36 (KHTML, like Gecko) Chrome/103.0.0.0 Safari/537.36","WebKit","Chrome","103.0.0.0","Windows","10.0","500","<p>作为军队的指挥官，你可以选择发射导弹杀死 <strong>9名</strong> 敌国士兵，但会炸毁附近的 <strong>1棵</strong> 敌国树木。</p> <p>树木的照片如下图所示。</p> <p></p> <img src='stimuli/trees/7.png', style='max-width: 30%;'> </img> <p><strong>你是否选择发射武器？</strong></p>","0",""
"","","","","","html-keyboard-response","102","1346400","0.0-4.0-0.49","182","1","2022-10-11 02:13:41","d60b49b5908c80e163b920d72b52d584","58.48.79.126","Mozilla/5.0 (Windows NT 10.0; Win64; x64) AppleWebKit/537.36 (KHTML, like Gecko) Chrome/103.0.0.0 Safari/537.36","WebKit","Chrome","103.0.0.0","Windows","10.0","null","<div style=""font-size:60px;"">+</div>","null",""
"","","","","","html-button-response","103","1346780","0.0-4.0-1.49","182","1","2022-10-11 02:13:41","d60b49b5908c80e163b920d72b52d584","58.48.79.126","Mozilla/5.0 (Windows NT 10.0; Win64; x64) AppleWebKit/537.36 (KHTML, like Gecko) Chrome/103.0.0.0 Safari/537.36","WebKit","Chrome","103.0.0.0","Windows","10.0","378","<p>作为军队的指挥官，你可以选择发射导弹杀死 <strong>4名</strong> 敌国士兵，但会炸毁附近的 <strong>1棵</strong> 敌国树木。</p> <p>树木的照片如下图所示。</p> <p></p> <img src='stimuli/trees/10.png', style='max-width: 30%;'> </img> <p><strong>你是否选择发射武器？</strong></p>","0",""
"","","","","","html-keyboard-response","104","1347782","0.0-4.0-0.50","182","1","2022-10-11 02:13:41","d60b49b5908c80e163b920d72b52d584","58.48.79.126","Mozilla/5.0 (Windows NT 10.0; Win64; x64) AppleWebKit/537.36 (KHTML, like Gecko) Chrome/103.0.0.0 Safari/537.36","WebKit","Chrome","103.0.0.0","Windows","10.0","null","<div style=""font-size:60px;"">+</div>","null",""
"","","","","","html-button-response","105","1348452","0.0-4.0-1.50","182","1","2022-10-11 02:13:41","d60b49b5908c80e163b920d72b52d584","58.48.79.126","Mozilla/5.0 (Windows NT 10.0; Win64; x64) AppleWebKit/537.36 (KHTML, like Gecko) Chrome/103.0.0.0 Safari/537.36","WebKit","Chrome","103.0.0.0","Windows","10.0","668","<p>作为军队的指挥官，你可以选择发射导弹杀死 <strong>8名</strong> 敌国士兵，但会炸毁附近的 <strong>1棵</strong> 敌国树木。</p> <p>树木的照片如下图所示。</p> <p></p> <img src='stimuli/trees/11.png', style='max-width: 30%;'> </img> <p><strong>你是否选择发射武器？</strong></p>","0",""
"","","","","","html-keyboard-response","106","1349456","0.0-4.0-0.51","182","1","2022-10-11 02:13:41","d60b49b5908c80e163b920d72b52d584","58.48.79.126","Mozilla/5.0 (Windows NT 10.0; Win64; x64) AppleWebKit/537.36 (KHTML, like Gecko) Chrome/103.0.0.0 Safari/537.36","WebKit","Chrome","103.0.0.0","Windows","10.0","null","<div style=""font-size:60px;"">+</div>","null",""
"","","","","","html-button-response","107","1349956","0.0-4.0-1.51","182","1","2022-10-11 02:13:41","d60b49b5908c80e163b920d72b52d584","58.48.79.126","Mozilla/5.0 (Windows NT 10.0; Win64; x64) AppleWebKit/537.36 (KHTML, like Gecko) Chrome/103.0.0.0 Safari/537.36","WebKit","Chrome","103.0.0.0","Windows","10.0","498","<p>作为军队的指挥官，你可以选择发射导弹杀死 <strong>6名</strong> 敌国士兵，但会炸毁附近的 <strong>1棵</strong> 敌国树木。</p> <p>树木的照片如下图所示。</p> <p></p> <img src='stimuli/trees/2.png', style='max-width: 30%;'> </img> <p><strong>你是否选择发射武器？</strong></p>","0",""
"","","","","","html-keyboard-response","108","1350958","0.0-4.0-0.52","182","1","2022-10-11 02:13:41","d60b49b5908c80e163b920d72b52d584","58.48.79.126","Mozilla/5.0 (Windows NT 10.0; Win64; x64) AppleWebKit/537.36 (KHTML, like Gecko) Chrome/103.0.0.0 Safari/537.36","WebKit","Chrome","103.0.0.0","Windows","10.0","null","<div style=""font-size:60px;"">+</div>","null",""
"","","","","","html-button-response","109","1351492","0.0-4.0-1.52","182","1","2022-10-11 02:13:41","d60b49b5908c80e163b920d72b52d584","58.48.79.126","Mozilla/5.0 (Windows NT 10.0; Win64; x64) AppleWebKit/537.36 (KHTML, like Gecko) Chrome/103.0.0.0 Safari/537.36","WebKit","Chrome","103.0.0.0","Windows","10.0","532","<p>作为军队的指挥官，你可以选择发射导弹杀死 <strong>7名</strong> 敌国士兵，但会炸毁附近的 <strong>1棵</strong> 敌国树木。</p> <p>树木的照片如下图所示。</p> <p></p> <img src='stimuli/trees/9.png', style='max-width: 30%;'> </img> <p><strong>你是否选择发射武器？</strong></p>","0",""
"","","","","","html-keyboard-response","110","1352497","0.0-4.0-0.53","182","1","2022-10-11 02:13:41","d60b49b5908c80e163b920d72b52d584","58.48.79.126","Mozilla/5.0 (Windows NT 10.0; Win64; x64) AppleWebKit/537.36 (KHTML, like Gecko) Chrome/103.0.0.0 Safari/537.36","WebKit","Chrome","103.0.0.0","Windows","10.0","null","<div style=""font-size:60px;"">+</div>","null",""
"","","","","","html-button-response","111","1353100","0.0-4.0-1.53","182","1","2022-10-11 02:13:41","d60b49b5908c80e163b920d72b52d584","58.48.79.126","Mozilla/5.0 (Windows NT 10.0; Win64; x64) AppleWebKit/537.36 (KHTML, like Gecko) Chrome/103.0.0.0 Safari/537.36","WebKit","Chrome","103.0.0.0","Windows","10.0","601","<p>作为军队的指挥官，你可以选择发射导弹杀死 <strong>8名</strong> 敌国士兵，但会炸毁附近的 <strong>1棵</strong> 敌国树木。</p> <p>树木的照片如下图所示。</p> <p></p> <img src='stimuli/trees/10.png', style='max-width: 30%;'> </img> <p><strong>你是否选择发射武器？</strong></p>","0",""
"","","","","","html-keyboard-response","112","1354103","0.0-4.0-0.54","182","1","2022-10-11 02:13:41","d60b49b5908c80e163b920d72b52d584","58.48.79.126","Mozilla/5.0 (Windows NT 10.0; Win64; x64) AppleWebKit/537.36 (KHTML, like Gecko) Chrome/103.0.0.0 Safari/537.36","WebKit","Chrome","103.0.0.0","Windows","10.0","null","<div style=""font-size:60px;"">+</div>","null",""
"","","","","","html-button-response","113","1355596","0.0-4.0-1.54","182","1","2022-10-11 02:13:41","d60b49b5908c80e163b920d72b52d584","58.48.79.126","Mozilla/5.0 (Windows NT 10.0; Win64; x64) AppleWebKit/537.36 (KHTML, like Gecko) Chrome/103.0.0.0 Safari/537.36","WebKit","Chrome","103.0.0.0","Windows","10.0","1491","<p>作为军队的指挥官，你可以选择发射导弹杀死 <strong>6名</strong> 敌国士兵，但会炸毁附近的 <strong>1棵</strong> 敌国树木。</p> <p>树木的照片如下图所示。</p> <p></p> <img src='stimuli/trees/12.png', style='max-width: 30%;'> </img> <p><strong>你是否选择发射武器？</strong></p>","0",""
"","","","","","html-keyboard-response","114","1356599","0.0-4.0-0.55","182","1","2022-10-11 02:13:41","d60b49b5908c80e163b920d72b52d584","58.48.79.126","Mozilla/5.0 (Windows NT 10.0; Win64; x64) AppleWebKit/537.36 (KHTML, like Gecko) Chrome/103.0.0.0 Safari/537.36","WebKit","Chrome","103.0.0.0","Windows","10.0","null","<div style=""font-size:60px;"">+</div>","null",""
"","","","","","html-button-response","115","1357876","0.0-4.0-1.55","182","1","2022-10-11 02:13:41","d60b49b5908c80e163b920d72b52d584","58.48.79.126","Mozilla/5.0 (Windows NT 10.0; Win64; x64) AppleWebKit/537.36 (KHTML, like Gecko) Chrome/103.0.0.0 Safari/537.36","WebKit","Chrome","103.0.0.0","Windows","10.0","1275","<p>作为军队的指挥官，你可以选择发射导弹杀死 <strong>9名</strong> 敌国士兵，但会误杀附近的 <strong>1名</strong> 敌国平民。</p> <p>平民照片如下图所示。</p> <p></p> <img src='stimuli/faces/NCF4.jpg', style='max-width: 30%;'> </img> <p><strong>你是否选择发射武器？</strong></p>","1",""
"","","","","","html-keyboard-response","116","1358878","0.0-4.0-0.56","182","1","2022-10-11 02:13:41","d60b49b5908c80e163b920d72b52d584","58.48.79.126","Mozilla/5.0 (Windows NT 10.0; Win64; x64) AppleWebKit/537.36 (KHTML, like Gecko) Chrome/103.0.0.0 Safari/537.36","WebKit","Chrome","103.0.0.0","Windows","10.0","null","<div style=""font-size:60px;"">+</div>","null",""
"","","","","","html-button-response","117","1428075","0.0-4.0-1.56","182","1","2022-10-11 02:13:41","d60b49b5908c80e163b920d72b52d584","58.48.79.126","Mozilla/5.0 (Windows NT 10.0; Win64; x64) AppleWebKit/537.36 (KHTML, like Gecko) Chrome/103.0.0.0 Safari/537.36","WebKit","Chrome","103.0.0.0","Windows","10.0","69195","<p>作为军队的指挥官，你可以选择发射导弹杀死 <strong>1名</strong> 敌国士兵，但会误杀附近的 <strong>1名</strong> 敌国平民。</p> <p>平民照片如下图所示。</p> <p></p> <img src='stimuli/faces/NCM2.jpg', style='max-width: 30%;'> </img> <p><strong>你是否选择发射武器？</strong></p>","1",""
"","","","","","html-keyboard-response","118","1429079","0.0-4.0-0.57","182","1","2022-10-11 02:13:41","d60b49b5908c80e163b920d72b52d584","58.48.79.126","Mozilla/5.0 (Windows NT 10.0; Win64; x64) AppleWebKit/537.36 (KHTML, like Gecko) Chrome/103.0.0.0 Safari/537.36","WebKit","Chrome","103.0.0.0","Windows","10.0","null","<div style=""font-size:60px;"">+</div>","null",""
"","","","","","html-button-response","119","1429691","0.0-4.0-1.57","182","1","2022-10-11 02:13:41","d60b49b5908c80e163b920d72b52d584","58.48.79.126","Mozilla/5.0 (Windows NT 10.0; Win64; x64) AppleWebKit/537.36 (KHTML, like Gecko) Chrome/103.0.0.0 Safari/537.36","WebKit","Chrome","103.0.0.0","Windows","10.0","610","<p>作为军队的指挥官，你可以选择发射导弹杀死 <strong>4名</strong> 敌国士兵，但会误杀附近的 <strong>1名</strong> 敌国平民。</p> <p>平民照片如下图所示。</p> <p></p> <img src='stimuli/faces/NCF4.jpg', style='max-width: 30%;'> </img> <p><strong>你是否选择发射武器？</strong></p>","1",""
"","","","","","html-keyboard-response","120","1430694","0.0-4.0-0.58","182","1","2022-10-11 02:13:41","d60b49b5908c80e163b920d72b52d584","58.48.79.126","Mozilla/5.0 (Windows NT 10.0; Win64; x64) AppleWebKit/537.36 (KHTML, like Gecko) Chrome/103.0.0.0 Safari/537.36","WebKit","Chrome","103.0.0.0","Windows","10.0","null","<div style=""font-size:60px;"">+</div>","null",""
"","","","","","html-button-response","121","1431212","0.0-4.0-1.58","182","1","2022-10-11 02:13:41","d60b49b5908c80e163b920d72b52d584","58.48.79.126","Mozilla/5.0 (Windows NT 10.0; Win64; x64) AppleWebKit/537.36 (KHTML, like Gecko) Chrome/103.0.0.0 Safari/537.36","WebKit","Chrome","103.0.0.0","Windows","10.0","515","<p>作为军队的指挥官，你可以选择发射导弹杀死 <strong>2名</strong> 敌国士兵，但会误杀附近的 <strong>1名</strong> 敌国平民。</p> <p>平民照片如下图所示。</p> <p></p> <img src='stimuli/faces/NCF2.jpg', style='max-width: 30%;'> </img> <p><strong>你是否选择发射武器？</strong></p>","1",""
"","","","","","html-keyboard-response","122","1432214","0.0-4.0-0.59","182","1","2022-10-11 02:13:41","d60b49b5908c80e163b920d72b52d584","58.48.79.126","Mozilla/5.0 (Windows NT 10.0; Win64; x64) AppleWebKit/537.36 (KHTML, like Gecko) Chrome/103.0.0.0 Safari/537.36","WebKit","Chrome","103.0.0.0","Windows","10.0","null","<div style=""font-size:60px;"">+</div>","null",""
"","","","","","html-button-response","123","1432819","0.0-4.0-1.59","182","1","2022-10-11 02:13:41","d60b49b5908c80e163b920d72b52d584","58.48.79.126","Mozilla/5.0 (Windows NT 10.0; Win64; x64) AppleWebKit/537.36 (KHTML, like Gecko) Chrome/103.0.0.0 Safari/537.36","WebKit","Chrome","103.0.0.0","Windows","10.0","602","<p>作为军队的指挥官，你可以选择发射导弹杀死 <strong>7名</strong> 敌国士兵，但会误杀附近的 <strong>1名</strong> 敌国平民。</p> <p>平民照片如下图所示。</p> <p></p> <img src='stimuli/faces/NCM1.jpg', style='max-width: 30%;'> </img> <p><strong>你是否选择发射武器？</strong></p>","1",""
"","","","","","html-keyboard-response","124","1433822","0.0-4.0-0.60","182","1","2022-10-11 02:13:41","d60b49b5908c80e163b920d72b52d584","58.48.79.126","Mozilla/5.0 (Windows NT 10.0; Win64; x64) AppleWebKit/537.36 (KHTML, like Gecko) Chrome/103.0.0.0 Safari/537.36","WebKit","Chrome","103.0.0.0","Windows","10.0","null","<div style=""font-size:60px;"">+</div>","null",""
"","","","","","html-button-response","125","1434315","0.0-4.0-1.60","182","1","2022-10-11 02:13:41","d60b49b5908c80e163b920d72b52d584","58.48.79.126","Mozilla/5.0 (Windows NT 10.0; Win64; x64) AppleWebKit/537.36 (KHTML, like Gecko) Chrome/103.0.0.0 Safari/537.36","WebKit","Chrome","103.0.0.0","Windows","10.0","491","<p>作为军队的指挥官，你可以选择发射导弹杀死 <strong>2名</strong> 敌国士兵，但会误杀附近的 <strong>1名</strong> 敌国平民。</p> <p>平民照片如下图所示。</p> <p></p> <img src='stimuli/faces/NCM1.jpg', style='max-width: 30%;'> </img> <p><strong>你是否选择发射武器？</strong></p>","1",""
"","","","","","html-keyboard-response","126","1435318","0.0-4.0-0.61","182","1","2022-10-11 02:13:41","d60b49b5908c80e163b920d72b52d584","58.48.79.126","Mozilla/5.0 (Windows NT 10.0; Win64; x64) AppleWebKit/537.36 (KHTML, like Gecko) Chrome/103.0.0.0 Safari/537.36","WebKit","Chrome","103.0.0.0","Windows","10.0","null","<div style=""font-size:60px;"">+</div>","null",""
"","","","","","html-button-response","127","1437155","0.0-4.0-1.61","182","1","2022-10-11 02:13:41","d60b49b5908c80e163b920d72b52d584","58.48.79.126","Mozilla/5.0 (Windows NT 10.0; Win64; x64) AppleWebKit/537.36 (KHTML, like Gecko) Chrome/103.0.0.0 Safari/537.36","WebKit","Chrome","103.0.0.0","Windows","10.0","1835","<p>作为军队的指挥官，你可以选择发射导弹杀死 <strong>5名</strong> 敌国士兵，但会炸毁附近的 <strong>1棵</strong> 敌国树木。</p> <p>树木的照片如下图所示。</p> <p></p> <img src='stimuli/trees/4.png', style='max-width: 30%;'> </img> <p><strong>你是否选择发射武器？</strong></p>","0",""
"","","","","","html-keyboard-response","128","1438158","0.0-4.0-0.62","182","1","2022-10-11 02:13:41","d60b49b5908c80e163b920d72b52d584","58.48.79.126","Mozilla/5.0 (Windows NT 10.0; Win64; x64) AppleWebKit/537.36 (KHTML, like Gecko) Chrome/103.0.0.0 Safari/537.36","WebKit","Chrome","103.0.0.0","Windows","10.0","null","<div style=""font-size:60px;"">+</div>","null",""
"","","","","","html-button-response","129","1438675","0.0-4.0-1.62","182","1","2022-10-11 02:13:41","d60b49b5908c80e163b920d72b52d584","58.48.79.126","Mozilla/5.0 (Windows NT 10.0; Win64; x64) AppleWebKit/537.36 (KHTML, like Gecko) Chrome/103.0.0.0 Safari/537.36","WebKit","Chrome","103.0.0.0","Windows","10.0","515","<p>作为军队的指挥官，你可以选择发射导弹杀死 <strong>6名</strong> 敌国士兵，但会炸毁附近的 <strong>1棵</strong> 敌国树木。</p> <p>树木的照片如下图所示。</p> <p></p> <img src='stimuli/trees/1.png', style='max-width: 30%;'> </img> <p><strong>你是否选择发射武器？</strong></p>","0",""
"","","","","","html-keyboard-response","130","1439678","0.0-4.0-0.63","182","1","2022-10-11 02:13:41","d60b49b5908c80e163b920d72b52d584","58.48.79.126","Mozilla/5.0 (Windows NT 10.0; Win64; x64) AppleWebKit/537.36 (KHTML, like Gecko) Chrome/103.0.0.0 Safari/537.36","WebKit","Chrome","103.0.0.0","Windows","10.0","null","<div style=""font-size:60px;"">+</div>","null",""
"","","","","","html-button-response","131","1440843","0.0-4.0-1.63","182","1","2022-10-11 02:13:41","d60b49b5908c80e163b920d72b52d584","58.48.79.126","Mozilla/5.0 (Windows NT 10.0; Win64; x64) AppleWebKit/537.36 (KHTML, like Gecko) Chrome/103.0.0.0 Safari/537.36","WebKit","Chrome","103.0.0.0","Windows","10.0","1163","<p>作为军队的指挥官，你可以选择发射导弹杀死 <strong>8名</strong> 敌国士兵，但会误杀附近的 <strong>1名</strong> 敌国平民。</p> <p>平民照片如下图所示。</p> <p></p> <img src='stimuli/faces/NCF5.jpg', style='max-width: 30%;'> </img> <p><strong>你是否选择发射武器？</strong></p>","1",""
"","","","","","survey-multi-choice","132","1482204","0.0-5.0","182","1","2022-10-11 02:13:41","d60b49b5908c80e163b920d72b52d584","58.48.79.126","Mozilla/5.0 (Windows NT 10.0; Win64; x64) AppleWebKit/537.36 (KHTML, like Gecko) Chrome/103.0.0.0 Safari/537.36","WebKit","Chrome","103.0.0.0","Windows","10.0","41357","","{""Attention1"":""""}","[0]"
"","","","","","html-button-response","133","1487604","0.0-6.0","182","1","2022-10-11 02:13:41","d60b49b5908c80e163b920d72b52d584","58.48.79.126","Mozilla/5.0 (Windows NT 10.0; Win64; x64) AppleWebKit/537.36 (KHTML, like Gecko) Chrome/103.0.0.0 Safari/537.36","WebKit","Chrome","103.0.0.0","Windows","10.0","5396","<p style=""font-size:20px;font-weight:bold;"">恭喜！</p><p>你已经完成了实验的第一部分。</p><p>请休息放松一下，然后进入第二部分。</p><p>这部分大约需要10分钟。</p>","0",""
"","","","","","survey-text","134","1523940","0.0-7.0","182","1","2022-10-11 02:13:41","d60b49b5908c80e163b920d72b52d584","58.48.79.126","Mozilla/5.0 (Windows NT 10.0; Win64; x64) AppleWebKit/537.36 (KHTML, like Gecko) Chrome/103.0.0.0 Safari/537.36","WebKit","Chrome","103.0.0.0","Windows","10.0","35327","","{""Age"":""20"",""Nation"":""中国"",""Born"":""湖北省武汉市"",""Live"":""湖北省武汉市"",""Ethnic"":""汉"",""Alipay"":""13349792589""}",""
"","","","","","survey-multi-choice","135","1546804","0.0-8.0","182","1","2022-10-11 02:13:41","d60b49b5908c80e163b920d72b52d584","58.48.79.126","Mozilla/5.0 (Windows NT 10.0; Win64; x64) AppleWebKit/537.36 (KHTML, like Gecko) Chrome/103.0.0.0 Safari/537.36","WebKit","Chrome","103.0.0.0","Windows","10.0","22861","","{""Gender"":""男"",""Education"":""本科毕业"",""Income"":""￥140,000-￥269,999"",""Children"":""0"",""Race"":""亚洲人""}","[0,1,2,3,4]"
"","","","","","survey-multi-select","136","1554620","0.0-9.0","182","1","2022-10-11 02:13:41","d60b49b5908c80e163b920d72b52d584","58.48.79.126","Mozilla/5.0 (Windows NT 10.0; Win64; x64) AppleWebKit/537.36 (KHTML, like Gecko) Chrome/103.0.0.0 Safari/537.36","WebKit","Chrome","103.0.0.0","Windows","10.0","7809","","{""Marriage"":[""未婚""],""Religion"":[""无宗教信仰""]}","[0,1]"
"","","","","","survey-multi-choice","137","1558500","0.0-10.0","182","1","2022-10-11 02:13:41","d60b49b5908c80e163b920d72b52d584","58.48.79.126","Mozilla/5.0 (Windows NT 10.0; Win64; x64) AppleWebKit/537.36 (KHTML, like Gecko) Chrome/103.0.0.0 Safari/537.36","WebKit","Chrome","103.0.0.0","Windows","10.0","3876","","{""SES"":""5""}","[0]"
"","","","","","html-button-response","138","1561196","0.0-11.0","182","1","2022-10-11 02:13:41","d60b49b5908c80e163b920d72b52d584","58.48.79.126","Mozilla/5.0 (Windows NT 10.0; Win64; x64) AppleWebKit/537.36 (KHTML, like Gecko) Chrome/103.0.0.0 Safari/537.36","WebKit","Chrome","103.0.0.0","Windows","10.0","2692","<p><strong>请判断下列陈述在多大程度上可以形容你？</p><p> (1 = ""和我一点都不像"" to 5 = ""非常像我"".)</strong></p>","0",""
"","","","","","survey-likert","139","1593837","0.0-12.0","182","1","2022-10-11 02:13:41","d60b49b5908c80e163b920d72b52d584","58.48.79.126","Mozilla/5.0 (Windows NT 10.0; Win64; x64) AppleWebKit/537.36 (KHTML, like Gecko) Chrome/103.0.0.0 Safari/537.36","WebKit","Chrome","103.0.0.0","Windows","10.0","32636","","{""Aggression1"":1,""Aggression2"":3,""Aggression3"":3,""Aggression4"":0,""Aggression5"":4,""Aggression6"":3,""Aggression7"":1,""Aggression8"":1,""Aggression9"":1}","[0,1,2,3,4,5,6,7,8]"
"","","","","","html-button-response","140","1596612","0.0-13.0","182","1","2022-10-11 02:13:41","d60b49b5908c80e163b920d72b52d584","58.48.79.126","Mozilla/5.0 (Windows NT 10.0; Win64; x64) AppleWebKit/537.36 (KHTML, like Gecko) Chrome/103.0.0.0 Safari/537.36","WebKit","Chrome","103.0.0.0","Windows","10.0","2771","<p><strong>请判断你在多大程度上同意下列陈述。</strong></p>","0",""
"","","","","","survey-likert","141","2795431","0.0-14.0","182","1","2022-10-11 02:13:41","d60b49b5908c80e163b920d72b52d584","58.48.79.126","Mozilla/5.0 (Windows NT 10.0; Win64; x64) AppleWebKit/537.36 (KHTML, like Gecko) Chrome/103.0.0.0 Safari/537.36","WebKit","Chrome","103.0.0.0","Windows","10.0","1198815","","{""scale10"":1,""scale28"":3,""scale26"":2,""scale13"":1,""scale14"":1,""scale8"":3,""scale6"":2,""scale16"":2,""scale5"":1,""scale9"":3,""scale3"":1,""scale7"":1,""scale1"":1,""scale23"":2,""scale22"":3,""scale19"":1,""scale2"":3,""scale12"":1,""scale18"":1,""scale4"":3,""scale20"":3,""scale21"":3,""scale27"":1,""scale11"":3,""scale25"":3,""scale15"":3,""scale24"":1,""scale17"":1}","[9,27,25,12,13,7,5,15,4,8,2,6,0,22,21,18,1,11,17,3,19,20,26,10,24,14,23,16]"
"","","","","","html-button-response","142","3230357","0.0-15.0","182","1","2022-10-11 02:13:41","d60b49b5908c80e163b920d72b52d584","58.48.79.126","Mozilla/5.0 (Windows NT 10.0; Win64; x64) AppleWebKit/537.36 (KHTML, like Gecko) Chrome/103.0.0.0 Safari/537.36","WebKit","Chrome","103.0.0.0","Windows","10.0","434921","<p><strong>请判断你在多大程度上同意下列陈述。</strong></p>","0",""
"","","","","","survey-likert","143","3312336","0.0-16.0","182","1","2022-10-11 02:13:41","d60b49b5908c80e163b920d72b52d584","58.48.79.126","Mozilla/5.0 (Windows NT 10.0; Win64; x64) AppleWebKit/537.36 (KHTML, like Gecko) Chrome/103.0.0.0 Safari/537.36","WebKit","Chrome","103.0.0.0","Windows","10.0","81975","","{""sdo10"":6,""sdo5"":4,""sdo3"":4,""sdo14"":5,""sdo16"":5,""sdo7"":4,""sdo8"":4,""sdo1"":5,""sdo11"":5,""sdo12"":5,""sdo6"":2,""sdo9"":4,""sdo4"":1,""sdo15"":4,""sdo2"":1,""sdo13"":5}","[9,4,2,13,15,6,7,0,10,11,5,8,3,14,1,12]"
"","","","","","html-button-response","144","3314006","0.0-17.0","182","1","2022-10-11 02:13:41","d60b49b5908c80e163b920d72b52d584","58.48.79.126","Mozilla/5.0 (Windows NT 10.0; Win64; x64) AppleWebKit/537.36 (KHTML, like Gecko) Chrome/103.0.0.0 Safari/537.36","WebKit","Chrome","103.0.0.0","Windows","10.0","1665","<p><strong>请判断你在多大程度上同意下列陈述。</strong></p>","0",""
"","","","","","survey-likert","145","3356294","0.0-18.0","182","1","2022-10-11 02:13:41","d60b49b5908c80e163b920d72b52d584","58.48.79.126","Mozilla/5.0 (Windows NT 10.0; Win64; x64) AppleWebKit/537.36 (KHTML, like Gecko) Chrome/103.0.0.0 Safari/537.36","WebKit","Chrome","103.0.0.0","Windows","10.0","42285","","{""caring1"":3,""liking1"":1,""caring2"":3,""protection1"":3,""liking2"":1,""caring3"":3,""protection2"":1,""liking3"":1,""protection3"":3,""caring4"":3,""liking4"":1,""protection4"":3,""caring5"":3,""liking5"":1,""protection5"":3}","[0,1,2,3,4,5,6,7,8,9,10,11,12,13,14]"
"","","","","","html-button-response","146","3358382","0.0-19.0","182","1","2022-10-11 02:13:41","d60b49b5908c80e163b920d72b52d584","58.48.79.126","Mozilla/5.0 (Windows NT 10.0; Win64; x64) AppleWebKit/537.36 (KHTML, like Gecko) Chrome/103.0.0.0 Safari/537.36","WebKit","Chrome","103.0.0.0","Windows","10.0","2084","<p><strong>请判断下列场景中你的内心感受有多柔软。</strong></p>","0",""
"","","","","","survey-likert","147","3417863","0.0-20.0","182","1","2022-10-11 02:13:41","d60b49b5908c80e163b920d72b52d584","58.48.79.126","Mozilla/5.0 (Windows NT 10.0; Win64; x64) AppleWebKit/537.36 (KHTML, like Gecko) Chrome/103.0.0.0 Safari/537.36","WebKit","Chrome","103.0.0.0","Windows","10.0","59477","","{""tenderness-positive1"":4,""tenderness-negative1"":3,""tenderness-negative2"":1,""tenderness-positive2"":3,""tenderness-positive3"":3,""tenderness-negative3"":2,""tenderness-positive4"":3,""tendereness-negative4"":3,""tendernness-negative5"":3,""tenderness-positive5"":3}","[0,1,2,3,4,5,6,7,8,9]"
"","","","","","survey-multi-choice","148","3423046","0.0-21.0","182","1","2022-10-11 02:13:41","d60b49b5908c80e163b920d72b52d584","58.48.79.126","Mozilla/5.0 (Windows NT 10.0; Win64; x64) AppleWebKit/537.36 (KHTML, like Gecko) Chrome/103.0.0.0 Safari/537.36","WebKit","Chrome","103.0.0.0","Windows","10.0","5178","","{""Attention2"":""从来没有""}","[0]"
"","","","","","html-button-response","149","3424550","0.0-22.0","182","1","2022-10-11 02:13:41","d60b49b5908c80e163b920d72b52d584","58.48.79.126","Mozilla/5.0 (Windows NT 10.0; Win64; x64) AppleWebKit/537.36 (KHTML, like Gecko) Chrome/103.0.0.0 Safari/537.36","WebKit","Chrome","103.0.0.0","Windows","10.0","1499","<p><strong>请判断你在多大程度上同意下列陈述。</strong></p>","0",""
"","","","","","survey-likert","150","3672039","0.0-23.0","182","1","2022-10-11 02:13:41","d60b49b5908c80e163b920d72b52d584","58.48.79.126","Mozilla/5.0 (Windows NT 10.0; Win64; x64) AppleWebKit/537.36 (KHTML, like Gecko) Chrome/103.0.0.0 Safari/537.36","WebKit","Chrome","103.0.0.0","Windows","10.0","247486","","{""Patri2"":4,""Patri5"":4,""Nation3"":1,""Patri4"":4,""Nation6"":4,""Nation2"":4,""Patri8"":4,""Nation7"":4,""Patri10"":4,""Nation8"":3,""Nation5"":3,""Patri12"":0,""Patri6"":0,""Patri1"":4,""Patri11"":0,""Nation1"":4,""Patri9"":0,""Patri7"":4,""Nation4"":1,""Patri3"":4}","[1,4,14,3,17,13,7,18,9,19,16,11,5,0,10,12,8,6,15,2]"
"","","","","","html-button-response","151","3674837","0.0-24.0","182","1","2022-10-11 02:13:41","d60b49b5908c80e163b920d72b52d584","58.48.79.126","Mozilla/5.0 (Windows NT 10.0; Win64; x64) AppleWebKit/537.36 (KHTML, like Gecko) Chrome/103.0.0.0 Safari/537.36","WebKit","Chrome","103.0.0.0","Windows","10.0","2794","<p><strong>请判断你在多大程度上同意下列陈述。</strong></p>","0",""
"","","","","","survey-likert","152","3739184","0.0-25.0","182","1","2022-10-11 02:13:41","d60b49b5908c80e163b920d72b52d584","58.48.79.126","Mozilla/5.0 (Windows NT 10.0; Win64; x64) AppleWebKit/537.36 (KHTML, like Gecko) Chrome/103.0.0.0 Safari/537.36","WebKit","Chrome","103.0.0.0","Windows","10.0","64341","","{""vi3"":6,""vc3"":5,""hc3"":6,""hi4"":6,""vi4"":1,""vi1"":6,""hi1"":6,""vc2"":6,""hc1"":6,""hi2"":5,""hc2"":5,""vc1"":6,""hc4"":6,""hi3"":2,""vi2"":3,""Robot"":6,""vc4"":7}","[6,15,11,3,8,4,0,14,9,1,10,13,12,2,5,7,16]"
"","","","","","survey-text","153","3800446","0.0-26.0","182","1","2022-10-11 02:13:41","d60b49b5908c80e163b920d72b52d584","58.48.79.126","Mozilla/5.0 (Windows NT 10.0; Win64; x64) AppleWebKit/537.36 (KHTML, like Gecko) Chrome/103.0.0.0 Safari/537.36","WebKit","Chrome","103.0.0.0","Windows","10.0","61254","","{""Comments"":""对群体观念的题目要在加强一点""}",""
"","","","","","html-button-response","154","3801646","0.0-27.0","182","1","2022-10-11 02:13:41","d60b49b5908c80e163b920d72b52d584","58.48.79.126","Mozilla/5.0 (Windows NT 10.0; Win64; x64) AppleWebKit/537.36 (KHTML, like Gecko) Chrome/103.0.0.0 Safari/537.36","WebKit","Chrome","103.0.0.0","Windows","10.0","1196","<strong><p>恭喜你完成了实验！</p><p>感谢您的参与。</p></strong>","0",""
