"success","timeout","failed_images","failed_audio","failed_video","trial_type","trial_index","time_elapsed","internal_node_id","run_id","condition","recorded_at","source_code_version","ip","user_agent","device","browser","browser_version","platform","platform_version","rt","stimulus","response","question_order"
"true","false","[]","[]","[]","preload","0","1113","0.0-0.0","186","1","2022-10-11 02:57:33","d60b49b5908c80e163b920d72b52d584","124.207.151.185","Mozilla/5.0 (Windows NT 10.0; Win64; x64) AppleWebKit/537.36 (KHTML, like Gecko) Chrome/106.0.0.0 Safari/537.36 Edg/106.0.1370.37","WebKit","Edge","106.0.1370.37","Windows","10.0","","","",""
"true","","","","","fullscreen","1","4965","0.0-1.0","186","1","2022-10-11 02:57:33","d60b49b5908c80e163b920d72b52d584","124.207.151.185","Mozilla/5.0 (Windows NT 10.0; Win64; x64) AppleWebKit/537.36 (KHTML, like Gecko) Chrome/106.0.0.0 Safari/537.36 Edg/106.0.1370.37","WebKit","Edge","106.0.1370.37","Windows","10.0","","","",""
"","","","","","html-button-response","2","7484","0.0-2.0","186","1","2022-10-11 02:57:33","d60b49b5908c80e163b920d72b52d584","124.207.151.185","Mozilla/5.0 (Windows NT 10.0; Win64; x64) AppleWebKit/537.36 (KHTML, like Gecko) Chrome/106.0.0.0 Safari/537.36 Edg/106.0.1370.37","WebKit","Edge","106.0.1370.37","Windows","10.0","2517","<p style=""font-size:20px;font-weight:bold;"">实验知情同意书</p><p style=""text-align:left;""><strong>实验名称：</strong>社会冲突研究</p><p style=""text-align:left;""><strong>主要研究者：</strong>韩晓春副教授（北京师范大学心理学部）</p><p style=""text-align:left;""><strong>联系方式：</strong>发送邮件至xiaochun.han@bnu.edu.cn</p><p style=""text-align:left;""><strong>研究目的：</strong>研究旨在了解人类面对群体冲突时的决策方式，以及相关的心理学特质。实验调查大约需要20分钟。</p><p style=""text-align:left;""><strong>实验流程：</strong>实验包含两部分。第一部分呈现一系列群体冲突场景，请你决定如何对这些冲突进行反应，大约需要10分钟完成。第二部分包含一系列人口统计学信息收集和心理学问卷，大约需要10分钟完成。</p><p style=""text-align:left;""><strong>参加及退出规则：</strong>参加本实验完全取决于您的个人意愿。在参与过程中，您可以随时退出，并且不用承担任何后果。</p><p style=""text-align:left;""><strong>隐私：</strong>本实验完全匿名进行，不会收集您的姓名或其他能够识别您身份的信息。实验中收集的作答仅用作科学研究使用，可能会在学术期刊/书籍上发表，或者用于教学，您的数据未来可能会和其他研究者或实验室分享，但您的个人身份不会被识别。</p><p style=""text-align:left;""><strong>实验报酬：</strong>实验完成后，您将获得15元人民币报酬，以感谢您的时间和努力。调查问卷中包含几道题目用以测验您作答时的认真度。只有完成全部实验，并且正确回答认真度测验的被试才能获得实验报酬。实验报酬将通过支付宝转账发放。</p><p style=""text-align:left;font-size:20px;""><strong>如果您同意以上实验知情同意书的内容，请点击'同意并且开始实验'按钮；否则请关闭浏览器界面，退出实验。</strong></p>","0",""
"","","","","","html-button-response","3","25432","0.0-3.0","186","1","2022-10-11 02:57:33","d60b49b5908c80e163b920d72b52d584","124.207.151.185","Mozilla/5.0 (Windows NT 10.0; Win64; x64) AppleWebKit/537.36 (KHTML, like Gecko) Chrome/106.0.0.0 Safari/537.36 Edg/106.0.1370.37","WebKit","Edge","106.0.1370.37","Windows","10.0","17946","<p ><strong>实验任务一：</strong></p><p>请想象你的国家与另一个国家发生了军事冲突。</p><p>你是国家军队的指挥官，你将如何在冲突中进行决策。</p><p>具体来说，作为军队指挥官，请你决定是否发射导弹进行打击。</p><p>接下来，你会面对一系列场景，请仔细阅读每个场景，然后进行决策。</p><p>这部分实验任务大约需要10分钟。</p><p><strong>实验过程中，请集中注意力。</strong></p>","0",""
"","","","","","html-keyboard-response","4","26444","0.0-4.0-0.0","186","1","2022-10-11 02:57:33","d60b49b5908c80e163b920d72b52d584","124.207.151.185","Mozilla/5.0 (Windows NT 10.0; Win64; x64) AppleWebKit/537.36 (KHTML, like Gecko) Chrome/106.0.0.0 Safari/537.36 Edg/106.0.1370.37","WebKit","Edge","106.0.1370.37","Windows","10.0","null","<div style=""font-size:60px;"">+</div>","null",""
"","","","","","html-button-response","5","41264","0.0-4.0-1.0","186","1","2022-10-11 02:57:33","d60b49b5908c80e163b920d72b52d584","124.207.151.185","Mozilla/5.0 (Windows NT 10.0; Win64; x64) AppleWebKit/537.36 (KHTML, like Gecko) Chrome/106.0.0.0 Safari/537.36 Edg/106.0.1370.37","WebKit","Edge","106.0.1370.37","Windows","10.0","14816","<p>作为军队的指挥官，你可以选择发射导弹杀死 <strong>9名</strong> 敌国士兵，但会炸毁附近的 <strong>1棵</strong> 敌国树木。</p> <p>树木的照片如下图所示。</p> <p></p> <img src='stimuli/trees/1.png', style='max-width: 30%;'> </img> <p><strong>你是否选择发射武器？</strong></p>","0",""
"","","","","","html-keyboard-response","6","42280","0.0-4.0-0.1","186","1","2022-10-11 02:57:33","d60b49b5908c80e163b920d72b52d584","124.207.151.185","Mozilla/5.0 (Windows NT 10.0; Win64; x64) AppleWebKit/537.36 (KHTML, like Gecko) Chrome/106.0.0.0 Safari/537.36 Edg/106.0.1370.37","WebKit","Edge","106.0.1370.37","Windows","10.0","null","<div style=""font-size:60px;"">+</div>","null",""
"","","","","","html-button-response","7","52796","0.0-4.0-1.1","186","1","2022-10-11 02:57:33","d60b49b5908c80e163b920d72b52d584","124.207.151.185","Mozilla/5.0 (Windows NT 10.0; Win64; x64) AppleWebKit/537.36 (KHTML, like Gecko) Chrome/106.0.0.0 Safari/537.36 Edg/106.0.1370.37","WebKit","Edge","106.0.1370.37","Windows","10.0","10513","<p>作为军队的指挥官，你可以选择发射导弹杀死 <strong>10名</strong> 敌国士兵，但会炸毁附近的 <strong>1棵</strong> 敌国树木。</p> <p>树木的照片如下图所示。</p> <p></p> <img src='stimuli/trees/11.png', style='max-width: 30%;'> </img> <p><strong>你是否选择发射武器？</strong></p>","0",""
"","","","","","html-keyboard-response","8","53799","0.0-4.0-0.2","186","1","2022-10-11 02:57:33","d60b49b5908c80e163b920d72b52d584","124.207.151.185","Mozilla/5.0 (Windows NT 10.0; Win64; x64) AppleWebKit/537.36 (KHTML, like Gecko) Chrome/106.0.0.0 Safari/537.36 Edg/106.0.1370.37","WebKit","Edge","106.0.1370.37","Windows","10.0","null","<div style=""font-size:60px;"">+</div>","null",""
"","","","","","html-button-response","9","62746","0.0-4.0-1.2","186","1","2022-10-11 02:57:33","d60b49b5908c80e163b920d72b52d584","124.207.151.185","Mozilla/5.0 (Windows NT 10.0; Win64; x64) AppleWebKit/537.36 (KHTML, like Gecko) Chrome/106.0.0.0 Safari/537.36 Edg/106.0.1370.37","WebKit","Edge","106.0.1370.37","Windows","10.0","8945","<p>作为军队的指挥官，你可以选择发射导弹杀死 <strong>3名</strong> 敌国士兵，但会炸毁附近的 <strong>1棵</strong> 敌国树木。</p> <p>树木的照片如下图所示。</p> <p></p> <img src='stimuli/trees/5.png', style='max-width: 30%;'> </img> <p><strong>你是否选择发射武器？</strong></p>","1",""
"","","","","","html-keyboard-response","10","63751","0.0-4.0-0.3","186","1","2022-10-11 02:57:33","d60b49b5908c80e163b920d72b52d584","124.207.151.185","Mozilla/5.0 (Windows NT 10.0; Win64; x64) AppleWebKit/537.36 (KHTML, like Gecko) Chrome/106.0.0.0 Safari/537.36 Edg/106.0.1370.37","WebKit","Edge","106.0.1370.37","Windows","10.0","null","<div style=""font-size:60px;"">+</div>","null",""
"","","","","","html-button-response","11","69232","0.0-4.0-1.3","186","1","2022-10-11 02:57:33","d60b49b5908c80e163b920d72b52d584","124.207.151.185","Mozilla/5.0 (Windows NT 10.0; Win64; x64) AppleWebKit/537.36 (KHTML, like Gecko) Chrome/106.0.0.0 Safari/537.36 Edg/106.0.1370.37","WebKit","Edge","106.0.1370.37","Windows","10.0","5478","<p>作为军队的指挥官，你可以选择发射导弹杀死 <strong>7名</strong> 敌国士兵，但会炸毁附近的 <strong>1棵</strong> 敌国树木。</p> <p>树木的照片如下图所示。</p> <p></p> <img src='stimuli/trees/6.png', style='max-width: 30%;'> </img> <p><strong>你是否选择发射武器？</strong></p>","0",""
"","","","","","html-keyboard-response","12","70238","0.0-4.0-0.4","186","1","2022-10-11 02:57:33","d60b49b5908c80e163b920d72b52d584","124.207.151.185","Mozilla/5.0 (Windows NT 10.0; Win64; x64) AppleWebKit/537.36 (KHTML, like Gecko) Chrome/106.0.0.0 Safari/537.36 Edg/106.0.1370.37","WebKit","Edge","106.0.1370.37","Windows","10.0","null","<div style=""font-size:60px;"">+</div>","null",""
"","","","","","html-button-response","13","73842","0.0-4.0-1.4","186","1","2022-10-11 02:57:33","d60b49b5908c80e163b920d72b52d584","124.207.151.185","Mozilla/5.0 (Windows NT 10.0; Win64; x64) AppleWebKit/537.36 (KHTML, like Gecko) Chrome/106.0.0.0 Safari/537.36 Edg/106.0.1370.37","WebKit","Edge","106.0.1370.37","Windows","10.0","3601","<p>作为军队的指挥官，你可以选择发射导弹杀死 <strong>10名</strong> 敌国士兵，但会炸毁附近的 <strong>1棵</strong> 敌国树木。</p> <p>树木的照片如下图所示。</p> <p></p> <img src='stimuli/trees/3.png', style='max-width: 30%;'> </img> <p><strong>你是否选择发射武器？</strong></p>","0",""
"","","","","","html-keyboard-response","14","74854","0.0-4.0-0.5","186","1","2022-10-11 02:57:33","d60b49b5908c80e163b920d72b52d584","124.207.151.185","Mozilla/5.0 (Windows NT 10.0; Win64; x64) AppleWebKit/537.36 (KHTML, like Gecko) Chrome/106.0.0.0 Safari/537.36 Edg/106.0.1370.37","WebKit","Edge","106.0.1370.37","Windows","10.0","null","<div style=""font-size:60px;"">+</div>","null",""
"","","","","","html-button-response","15","82412","0.0-4.0-1.5","186","1","2022-10-11 02:57:33","d60b49b5908c80e163b920d72b52d584","124.207.151.185","Mozilla/5.0 (Windows NT 10.0; Win64; x64) AppleWebKit/537.36 (KHTML, like Gecko) Chrome/106.0.0.0 Safari/537.36 Edg/106.0.1370.37","WebKit","Edge","106.0.1370.37","Windows","10.0","7556","<p>作为军队的指挥官，你可以选择发射导弹杀死 <strong>5名</strong> 敌国士兵，但会误杀附近的 <strong>1名</strong> 敌国平民。</p> <p>平民照片如下图所示。</p> <p></p> <img src='stimuli/faces/NCF8.jpg', style='max-width: 30%;'> </img> <p><strong>你是否选择发射武器？</strong></p>","1",""
"","","","","","html-keyboard-response","16","83416","0.0-4.0-0.6","186","1","2022-10-11 02:57:33","d60b49b5908c80e163b920d72b52d584","124.207.151.185","Mozilla/5.0 (Windows NT 10.0; Win64; x64) AppleWebKit/537.36 (KHTML, like Gecko) Chrome/106.0.0.0 Safari/537.36 Edg/106.0.1370.37","WebKit","Edge","106.0.1370.37","Windows","10.0","null","<div style=""font-size:60px;"">+</div>","null",""
"","","","","","html-button-response","17","87062","0.0-4.0-1.6","186","1","2022-10-11 02:57:33","d60b49b5908c80e163b920d72b52d584","124.207.151.185","Mozilla/5.0 (Windows NT 10.0; Win64; x64) AppleWebKit/537.36 (KHTML, like Gecko) Chrome/106.0.0.0 Safari/537.36 Edg/106.0.1370.37","WebKit","Edge","106.0.1370.37","Windows","10.0","3644","<p>作为军队的指挥官，你可以选择发射导弹杀死 <strong>1名</strong> 敌国士兵，但会误杀附近的 <strong>1名</strong> 敌国平民。</p> <p>平民照片如下图所示。</p> <p></p> <img src='stimuli/faces/NCF7.jpg', style='max-width: 30%;'> </img> <p><strong>你是否选择发射武器？</strong></p>","1",""
"","","","","","html-keyboard-response","18","88065","0.0-4.0-0.7","186","1","2022-10-11 02:57:33","d60b49b5908c80e163b920d72b52d584","124.207.151.185","Mozilla/5.0 (Windows NT 10.0; Win64; x64) AppleWebKit/537.36 (KHTML, like Gecko) Chrome/106.0.0.0 Safari/537.36 Edg/106.0.1370.37","WebKit","Edge","106.0.1370.37","Windows","10.0","null","<div style=""font-size:60px;"">+</div>","null",""
"","","","","","html-button-response","19","93092","0.0-4.0-1.7","186","1","2022-10-11 02:57:33","d60b49b5908c80e163b920d72b52d584","124.207.151.185","Mozilla/5.0 (Windows NT 10.0; Win64; x64) AppleWebKit/537.36 (KHTML, like Gecko) Chrome/106.0.0.0 Safari/537.36 Edg/106.0.1370.37","WebKit","Edge","106.0.1370.37","Windows","10.0","5025","<p>作为军队的指挥官，你可以选择发射导弹杀死 <strong>10名</strong> 敌国士兵，但会炸毁附近的 <strong>1棵</strong> 敌国树木。</p> <p>树木的照片如下图所示。</p> <p></p> <img src='stimuli/trees/10.png', style='max-width: 30%;'> </img> <p><strong>你是否选择发射武器？</strong></p>","0",""
"","","","","","html-keyboard-response","20","94108","0.0-4.0-0.8","186","1","2022-10-11 02:57:33","d60b49b5908c80e163b920d72b52d584","124.207.151.185","Mozilla/5.0 (Windows NT 10.0; Win64; x64) AppleWebKit/537.36 (KHTML, like Gecko) Chrome/106.0.0.0 Safari/537.36 Edg/106.0.1370.37","WebKit","Edge","106.0.1370.37","Windows","10.0","null","<div style=""font-size:60px;"">+</div>","null",""
"","","","","","html-button-response","21","97223","0.0-4.0-1.8","186","1","2022-10-11 02:57:33","d60b49b5908c80e163b920d72b52d584","124.207.151.185","Mozilla/5.0 (Windows NT 10.0; Win64; x64) AppleWebKit/537.36 (KHTML, like Gecko) Chrome/106.0.0.0 Safari/537.36 Edg/106.0.1370.37","WebKit","Edge","106.0.1370.37","Windows","10.0","3113","<p>作为军队的指挥官，你可以选择发射导弹杀死 <strong>8名</strong> 敌国士兵，但会炸毁附近的 <strong>1棵</strong> 敌国树木。</p> <p>树木的照片如下图所示。</p> <p></p> <img src='stimuli/trees/5.png', style='max-width: 30%;'> </img> <p><strong>你是否选择发射武器？</strong></p>","0",""
"","","","","","html-keyboard-response","22","98233","0.0-4.0-0.9","186","1","2022-10-11 02:57:33","d60b49b5908c80e163b920d72b52d584","124.207.151.185","Mozilla/5.0 (Windows NT 10.0; Win64; x64) AppleWebKit/537.36 (KHTML, like Gecko) Chrome/106.0.0.0 Safari/537.36 Edg/106.0.1370.37","WebKit","Edge","106.0.1370.37","Windows","10.0","null","<div style=""font-size:60px;"">+</div>","null",""
"","","","","","html-button-response","23","101602","0.0-4.0-1.9","186","1","2022-10-11 02:57:33","d60b49b5908c80e163b920d72b52d584","124.207.151.185","Mozilla/5.0 (Windows NT 10.0; Win64; x64) AppleWebKit/537.36 (KHTML, like Gecko) Chrome/106.0.0.0 Safari/537.36 Edg/106.0.1370.37","WebKit","Edge","106.0.1370.37","Windows","10.0","3368","<p>作为军队的指挥官，你可以选择发射导弹杀死 <strong>1名</strong> 敌国士兵，但会炸毁附近的 <strong>1棵</strong> 敌国树木。</p> <p>树木的照片如下图所示。</p> <p></p> <img src='stimuli/trees/9.png', style='max-width: 30%;'> </img> <p><strong>你是否选择发射武器？</strong></p>","1",""
"","","","","","html-keyboard-response","24","102618","0.0-4.0-0.10","186","1","2022-10-11 02:57:33","d60b49b5908c80e163b920d72b52d584","124.207.151.185","Mozilla/5.0 (Windows NT 10.0; Win64; x64) AppleWebKit/537.36 (KHTML, like Gecko) Chrome/106.0.0.0 Safari/537.36 Edg/106.0.1370.37","WebKit","Edge","106.0.1370.37","Windows","10.0","null","<div style=""font-size:60px;"">+</div>","null",""
"","","","","","html-button-response","25","117217","0.0-4.0-1.10","186","1","2022-10-11 02:57:33","d60b49b5908c80e163b920d72b52d584","124.207.151.185","Mozilla/5.0 (Windows NT 10.0; Win64; x64) AppleWebKit/537.36 (KHTML, like Gecko) Chrome/106.0.0.0 Safari/537.36 Edg/106.0.1370.37","WebKit","Edge","106.0.1370.37","Windows","10.0","14596","<p>作为军队的指挥官，你可以选择发射导弹杀死 <strong>9名</strong> 敌国士兵，但会误杀附近的 <strong>1名</strong> 敌国平民。</p> <p>平民照片如下图所示。</p> <p></p> <img src='stimuli/faces/NCF8.jpg', style='max-width: 30%;'> </img> <p><strong>你是否选择发射武器？</strong></p>","0",""
"","","","","","html-keyboard-response","26","118224","0.0-4.0-0.11","186","1","2022-10-11 02:57:33","d60b49b5908c80e163b920d72b52d584","124.207.151.185","Mozilla/5.0 (Windows NT 10.0; Win64; x64) AppleWebKit/537.36 (KHTML, like Gecko) Chrome/106.0.0.0 Safari/537.36 Edg/106.0.1370.37","WebKit","Edge","106.0.1370.37","Windows","10.0","null","<div style=""font-size:60px;"">+</div>","null",""
"","","","","","html-button-response","27","120780","0.0-4.0-1.11","186","1","2022-10-11 02:57:33","d60b49b5908c80e163b920d72b52d584","124.207.151.185","Mozilla/5.0 (Windows NT 10.0; Win64; x64) AppleWebKit/537.36 (KHTML, like Gecko) Chrome/106.0.0.0 Safari/537.36 Edg/106.0.1370.37","WebKit","Edge","106.0.1370.37","Windows","10.0","2553","<p>作为军队的指挥官，你可以选择发射导弹杀死 <strong>10名</strong> 敌国士兵，但会误杀附近的 <strong>1名</strong> 敌国平民。</p> <p>平民照片如下图所示。</p> <p></p> <img src='stimuli/faces/NCF5.jpg', style='max-width: 30%;'> </img> <p><strong>你是否选择发射武器？</strong></p>","0",""
"","","","","","html-keyboard-response","28","121792","0.0-4.0-0.12","186","1","2022-10-11 02:57:33","d60b49b5908c80e163b920d72b52d584","124.207.151.185","Mozilla/5.0 (Windows NT 10.0; Win64; x64) AppleWebKit/537.36 (KHTML, like Gecko) Chrome/106.0.0.0 Safari/537.36 Edg/106.0.1370.37","WebKit","Edge","106.0.1370.37","Windows","10.0","null","<div style=""font-size:60px;"">+</div>","null",""
"","","","","","html-button-response","29","123780","0.0-4.0-1.12","186","1","2022-10-11 02:57:33","d60b49b5908c80e163b920d72b52d584","124.207.151.185","Mozilla/5.0 (Windows NT 10.0; Win64; x64) AppleWebKit/537.36 (KHTML, like Gecko) Chrome/106.0.0.0 Safari/537.36 Edg/106.0.1370.37","WebKit","Edge","106.0.1370.37","Windows","10.0","1985","<p>作为军队的指挥官，你可以选择发射导弹杀死 <strong>10名</strong> 敌国士兵，但会误杀附近的 <strong>1名</strong> 敌国平民。</p> <p>平民照片如下图所示。</p> <p></p> <img src='stimuli/faces/NCF2.jpg', style='max-width: 30%;'> </img> <p><strong>你是否选择发射武器？</strong></p>","0",""
"","","","","","html-keyboard-response","30","124793","0.0-4.0-0.13","186","1","2022-10-11 02:57:33","d60b49b5908c80e163b920d72b52d584","124.207.151.185","Mozilla/5.0 (Windows NT 10.0; Win64; x64) AppleWebKit/537.36 (KHTML, like Gecko) Chrome/106.0.0.0 Safari/537.36 Edg/106.0.1370.37","WebKit","Edge","106.0.1370.37","Windows","10.0","null","<div style=""font-size:60px;"">+</div>","null",""
"","","","","","html-button-response","31","132069","0.0-4.0-1.13","186","1","2022-10-11 02:57:33","d60b49b5908c80e163b920d72b52d584","124.207.151.185","Mozilla/5.0 (Windows NT 10.0; Win64; x64) AppleWebKit/537.36 (KHTML, like Gecko) Chrome/106.0.0.0 Safari/537.36 Edg/106.0.1370.37","WebKit","Edge","106.0.1370.37","Windows","10.0","7273","<p>作为军队的指挥官，你可以选择发射导弹杀死 <strong>7名</strong> 敌国士兵，但会误杀附近的 <strong>1名</strong> 敌国平民。</p> <p>平民照片如下图所示。</p> <p></p> <img src='stimuli/faces/NCF4.jpg', style='max-width: 30%;'> </img> <p><strong>你是否选择发射武器？</strong></p>","0",""
"","","","","","html-keyboard-response","32","133081","0.0-4.0-0.14","186","1","2022-10-11 02:57:33","d60b49b5908c80e163b920d72b52d584","124.207.151.185","Mozilla/5.0 (Windows NT 10.0; Win64; x64) AppleWebKit/537.36 (KHTML, like Gecko) Chrome/106.0.0.0 Safari/537.36 Edg/106.0.1370.37","WebKit","Edge","106.0.1370.37","Windows","10.0","null","<div style=""font-size:60px;"">+</div>","null",""
"","","","","","html-button-response","33","136703","0.0-4.0-1.14","186","1","2022-10-11 02:57:33","d60b49b5908c80e163b920d72b52d584","124.207.151.185","Mozilla/5.0 (Windows NT 10.0; Win64; x64) AppleWebKit/537.36 (KHTML, like Gecko) Chrome/106.0.0.0 Safari/537.36 Edg/106.0.1370.37","WebKit","Edge","106.0.1370.37","Windows","10.0","3620","<p>作为军队的指挥官，你可以选择发射导弹杀死 <strong>9名</strong> 敌国士兵，但会误杀附近的 <strong>1名</strong> 敌国平民。</p> <p>平民照片如下图所示。</p> <p></p> <img src='stimuli/faces/NCM5.jpg', style='max-width: 30%;'> </img> <p><strong>你是否选择发射武器？</strong></p>","0",""
"","","","","","html-keyboard-response","34","137706","0.0-4.0-0.15","186","1","2022-10-11 02:57:33","d60b49b5908c80e163b920d72b52d584","124.207.151.185","Mozilla/5.0 (Windows NT 10.0; Win64; x64) AppleWebKit/537.36 (KHTML, like Gecko) Chrome/106.0.0.0 Safari/537.36 Edg/106.0.1370.37","WebKit","Edge","106.0.1370.37","Windows","10.0","null","<div style=""font-size:60px;"">+</div>","null",""
"","","","","","html-button-response","35","140545","0.0-4.0-1.15","186","1","2022-10-11 02:57:33","d60b49b5908c80e163b920d72b52d584","124.207.151.185","Mozilla/5.0 (Windows NT 10.0; Win64; x64) AppleWebKit/537.36 (KHTML, like Gecko) Chrome/106.0.0.0 Safari/537.36 Edg/106.0.1370.37","WebKit","Edge","106.0.1370.37","Windows","10.0","2836","<p>作为军队的指挥官，你可以选择发射导弹杀死 <strong>4名</strong> 敌国士兵，但会误杀附近的 <strong>1名</strong> 敌国平民。</p> <p>平民照片如下图所示。</p> <p></p> <img src='stimuli/faces/NCF3.jpg', style='max-width: 30%;'> </img> <p><strong>你是否选择发射武器？</strong></p>","1",""
"","","","","","html-keyboard-response","36","141566","0.0-4.0-0.16","186","1","2022-10-11 02:57:33","d60b49b5908c80e163b920d72b52d584","124.207.151.185","Mozilla/5.0 (Windows NT 10.0; Win64; x64) AppleWebKit/537.36 (KHTML, like Gecko) Chrome/106.0.0.0 Safari/537.36 Edg/106.0.1370.37","WebKit","Edge","106.0.1370.37","Windows","10.0","null","<div style=""font-size:60px;"">+</div>","null",""
"","","","","","html-button-response","37","143998","0.0-4.0-1.16","186","1","2022-10-11 02:57:33","d60b49b5908c80e163b920d72b52d584","124.207.151.185","Mozilla/5.0 (Windows NT 10.0; Win64; x64) AppleWebKit/537.36 (KHTML, like Gecko) Chrome/106.0.0.0 Safari/537.36 Edg/106.0.1370.37","WebKit","Edge","106.0.1370.37","Windows","10.0","2428","<p>作为军队的指挥官，你可以选择发射导弹杀死 <strong>8名</strong> 敌国士兵，但会炸毁附近的 <strong>1棵</strong> 敌国树木。</p> <p>树木的照片如下图所示。</p> <p></p> <img src='stimuli/trees/4.png', style='max-width: 30%;'> </img> <p><strong>你是否选择发射武器？</strong></p>","0",""
"","","","","","html-keyboard-response","38","145012","0.0-4.0-0.17","186","1","2022-10-11 02:57:33","d60b49b5908c80e163b920d72b52d584","124.207.151.185","Mozilla/5.0 (Windows NT 10.0; Win64; x64) AppleWebKit/537.36 (KHTML, like Gecko) Chrome/106.0.0.0 Safari/537.36 Edg/106.0.1370.37","WebKit","Edge","106.0.1370.37","Windows","10.0","null","<div style=""font-size:60px;"">+</div>","null",""
"","","","","","html-button-response","39","147006","0.0-4.0-1.17","186","1","2022-10-11 02:57:33","d60b49b5908c80e163b920d72b52d584","124.207.151.185","Mozilla/5.0 (Windows NT 10.0; Win64; x64) AppleWebKit/537.36 (KHTML, like Gecko) Chrome/106.0.0.0 Safari/537.36 Edg/106.0.1370.37","WebKit","Edge","106.0.1370.37","Windows","10.0","1992","<p>作为军队的指挥官，你可以选择发射导弹杀死 <strong>10名</strong> 敌国士兵，但会误杀附近的 <strong>1名</strong> 敌国平民。</p> <p>平民照片如下图所示。</p> <p></p> <img src='stimuli/faces/NCM4.jpg', style='max-width: 30%;'> </img> <p><strong>你是否选择发射武器？</strong></p>","0",""
"","","","","","html-keyboard-response","40","148021","0.0-4.0-0.18","186","1","2022-10-11 02:57:33","d60b49b5908c80e163b920d72b52d584","124.207.151.185","Mozilla/5.0 (Windows NT 10.0; Win64; x64) AppleWebKit/537.36 (KHTML, like Gecko) Chrome/106.0.0.0 Safari/537.36 Edg/106.0.1370.37","WebKit","Edge","106.0.1370.37","Windows","10.0","null","<div style=""font-size:60px;"">+</div>","null",""
"","","","","","html-button-response","41","149500","0.0-4.0-1.18","186","1","2022-10-11 02:57:33","d60b49b5908c80e163b920d72b52d584","124.207.151.185","Mozilla/5.0 (Windows NT 10.0; Win64; x64) AppleWebKit/537.36 (KHTML, like Gecko) Chrome/106.0.0.0 Safari/537.36 Edg/106.0.1370.37","WebKit","Edge","106.0.1370.37","Windows","10.0","1476","<p>作为军队的指挥官，你可以选择发射导弹杀死 <strong>10名</strong> 敌国士兵，但会误杀附近的 <strong>1名</strong> 敌国平民。</p> <p>平民照片如下图所示。</p> <p></p> <img src='stimuli/faces/NCM7.jpg', style='max-width: 30%;'> </img> <p><strong>你是否选择发射武器？</strong></p>","0",""
"","","","","","html-keyboard-response","42","150504","0.0-4.0-0.19","186","1","2022-10-11 02:57:33","d60b49b5908c80e163b920d72b52d584","124.207.151.185","Mozilla/5.0 (Windows NT 10.0; Win64; x64) AppleWebKit/537.36 (KHTML, like Gecko) Chrome/106.0.0.0 Safari/537.36 Edg/106.0.1370.37","WebKit","Edge","106.0.1370.37","Windows","10.0","null","<div style=""font-size:60px;"">+</div>","null",""
"","","","","","html-button-response","43","154681","0.0-4.0-1.19","186","1","2022-10-11 02:57:33","d60b49b5908c80e163b920d72b52d584","124.207.151.185","Mozilla/5.0 (Windows NT 10.0; Win64; x64) AppleWebKit/537.36 (KHTML, like Gecko) Chrome/106.0.0.0 Safari/537.36 Edg/106.0.1370.37","WebKit","Edge","106.0.1370.37","Windows","10.0","4174","<p>作为军队的指挥官，你可以选择发射导弹杀死 <strong>4名</strong> 敌国士兵，但会炸毁附近的 <strong>1棵</strong> 敌国树木。</p> <p>树木的照片如下图所示。</p> <p></p> <img src='stimuli/trees/4.png', style='max-width: 30%;'> </img> <p><strong>你是否选择发射武器？</strong></p>","0",""
"","","","","","html-keyboard-response","44","155687","0.0-4.0-0.20","186","1","2022-10-11 02:57:33","d60b49b5908c80e163b920d72b52d584","124.207.151.185","Mozilla/5.0 (Windows NT 10.0; Win64; x64) AppleWebKit/537.36 (KHTML, like Gecko) Chrome/106.0.0.0 Safari/537.36 Edg/106.0.1370.37","WebKit","Edge","106.0.1370.37","Windows","10.0","null","<div style=""font-size:60px;"">+</div>","null",""
"","","","","","html-button-response","45","158185","0.0-4.0-1.20","186","1","2022-10-11 02:57:33","d60b49b5908c80e163b920d72b52d584","124.207.151.185","Mozilla/5.0 (Windows NT 10.0; Win64; x64) AppleWebKit/537.36 (KHTML, like Gecko) Chrome/106.0.0.0 Safari/537.36 Edg/106.0.1370.37","WebKit","Edge","106.0.1370.37","Windows","10.0","2495","<p>作为军队的指挥官，你可以选择发射导弹杀死 <strong>6名</strong> 敌国士兵，但会炸毁附近的 <strong>1棵</strong> 敌国树木。</p> <p>树木的照片如下图所示。</p> <p></p> <img src='stimuli/trees/8.png', style='max-width: 30%;'> </img> <p><strong>你是否选择发射武器？</strong></p>","0",""
"","","","","","html-keyboard-response","46","159197","0.0-4.0-0.21","186","1","2022-10-11 02:57:33","d60b49b5908c80e163b920d72b52d584","124.207.151.185","Mozilla/5.0 (Windows NT 10.0; Win64; x64) AppleWebKit/537.36 (KHTML, like Gecko) Chrome/106.0.0.0 Safari/537.36 Edg/106.0.1370.37","WebKit","Edge","106.0.1370.37","Windows","10.0","null","<div style=""font-size:60px;"">+</div>","null",""
"","","","","","html-button-response","47","161201","0.0-4.0-1.21","186","1","2022-10-11 02:57:33","d60b49b5908c80e163b920d72b52d584","124.207.151.185","Mozilla/5.0 (Windows NT 10.0; Win64; x64) AppleWebKit/537.36 (KHTML, like Gecko) Chrome/106.0.0.0 Safari/537.36 Edg/106.0.1370.37","WebKit","Edge","106.0.1370.37","Windows","10.0","2001","<p>作为军队的指挥官，你可以选择发射导弹杀死 <strong>1名</strong> 敌国士兵，但会误杀附近的 <strong>1名</strong> 敌国平民。</p> <p>平民照片如下图所示。</p> <p></p> <img src='stimuli/faces/NCM6.jpg', style='max-width: 30%;'> </img> <p><strong>你是否选择发射武器？</strong></p>","1",""
"","","","","","html-keyboard-response","48","162222","0.0-4.0-0.22","186","1","2022-10-11 02:57:33","d60b49b5908c80e163b920d72b52d584","124.207.151.185","Mozilla/5.0 (Windows NT 10.0; Win64; x64) AppleWebKit/537.36 (KHTML, like Gecko) Chrome/106.0.0.0 Safari/537.36 Edg/106.0.1370.37","WebKit","Edge","106.0.1370.37","Windows","10.0","null","<div style=""font-size:60px;"">+</div>","null",""
"","","","","","html-button-response","49","164032","0.0-4.0-1.22","186","1","2022-10-11 02:57:33","d60b49b5908c80e163b920d72b52d584","124.207.151.185","Mozilla/5.0 (Windows NT 10.0; Win64; x64) AppleWebKit/537.36 (KHTML, like Gecko) Chrome/106.0.0.0 Safari/537.36 Edg/106.0.1370.37","WebKit","Edge","106.0.1370.37","Windows","10.0","1807","<p>作为军队的指挥官，你可以选择发射导弹杀死 <strong>8名</strong> 敌国士兵，但会炸毁附近的 <strong>1棵</strong> 敌国树木。</p> <p>树木的照片如下图所示。</p> <p></p> <img src='stimuli/trees/16.png', style='max-width: 30%;'> </img> <p><strong>你是否选择发射武器？</strong></p>","0",""
"","","","","","html-keyboard-response","50","165042","0.0-4.0-0.23","186","1","2022-10-11 02:57:33","d60b49b5908c80e163b920d72b52d584","124.207.151.185","Mozilla/5.0 (Windows NT 10.0; Win64; x64) AppleWebKit/537.36 (KHTML, like Gecko) Chrome/106.0.0.0 Safari/537.36 Edg/106.0.1370.37","WebKit","Edge","106.0.1370.37","Windows","10.0","null","<div style=""font-size:60px;"">+</div>","null",""
"","","","","","html-button-response","51","168384","0.0-4.0-1.23","186","1","2022-10-11 02:57:33","d60b49b5908c80e163b920d72b52d584","124.207.151.185","Mozilla/5.0 (Windows NT 10.0; Win64; x64) AppleWebKit/537.36 (KHTML, like Gecko) Chrome/106.0.0.0 Safari/537.36 Edg/106.0.1370.37","WebKit","Edge","106.0.1370.37","Windows","10.0","3339","<p>作为军队的指挥官，你可以选择发射导弹杀死 <strong>2名</strong> 敌国士兵，但会误杀附近的 <strong>1名</strong> 敌国平民。</p> <p>平民照片如下图所示。</p> <p></p> <img src='stimuli/faces/NCF2.jpg', style='max-width: 30%;'> </img> <p><strong>你是否选择发射武器？</strong></p>","1",""
"","","","","","html-keyboard-response","52","169393","0.0-4.0-0.24","186","1","2022-10-11 02:57:33","d60b49b5908c80e163b920d72b52d584","124.207.151.185","Mozilla/5.0 (Windows NT 10.0; Win64; x64) AppleWebKit/537.36 (KHTML, like Gecko) Chrome/106.0.0.0 Safari/537.36 Edg/106.0.1370.37","WebKit","Edge","106.0.1370.37","Windows","10.0","null","<div style=""font-size:60px;"">+</div>","null",""
"","","","","","html-button-response","53","175787","0.0-4.0-1.24","186","1","2022-10-11 02:57:33","d60b49b5908c80e163b920d72b52d584","124.207.151.185","Mozilla/5.0 (Windows NT 10.0; Win64; x64) AppleWebKit/537.36 (KHTML, like Gecko) Chrome/106.0.0.0 Safari/537.36 Edg/106.0.1370.37","WebKit","Edge","106.0.1370.37","Windows","10.0","6391","<p>作为军队的指挥官，你可以选择发射导弹杀死 <strong>3名</strong> 敌国士兵，但会炸毁附近的 <strong>1棵</strong> 敌国树木。</p> <p>树木的照片如下图所示。</p> <p></p> <img src='stimuli/trees/7.png', style='max-width: 30%;'> </img> <p><strong>你是否选择发射武器？</strong></p>","0",""
"","","","","","html-keyboard-response","54","176791","0.0-4.0-0.25","186","1","2022-10-11 02:57:33","d60b49b5908c80e163b920d72b52d584","124.207.151.185","Mozilla/5.0 (Windows NT 10.0; Win64; x64) AppleWebKit/537.36 (KHTML, like Gecko) Chrome/106.0.0.0 Safari/537.36 Edg/106.0.1370.37","WebKit","Edge","106.0.1370.37","Windows","10.0","null","<div style=""font-size:60px;"">+</div>","null",""
"","","","","","html-button-response","55","179807","0.0-4.0-1.25","186","1","2022-10-11 02:57:33","d60b49b5908c80e163b920d72b52d584","124.207.151.185","Mozilla/5.0 (Windows NT 10.0; Win64; x64) AppleWebKit/537.36 (KHTML, like Gecko) Chrome/106.0.0.0 Safari/537.36 Edg/106.0.1370.37","WebKit","Edge","106.0.1370.37","Windows","10.0","3013","<p>作为军队的指挥官，你可以选择发射导弹杀死 <strong>6名</strong> 敌国士兵，但会误杀附近的 <strong>1名</strong> 敌国平民。</p> <p>平民照片如下图所示。</p> <p></p> <img src='stimuli/faces/NCF6.jpg', style='max-width: 30%;'> </img> <p><strong>你是否选择发射武器？</strong></p>","0",""
"","","","","","html-keyboard-response","56","180823","0.0-4.0-0.26","186","1","2022-10-11 02:57:33","d60b49b5908c80e163b920d72b52d584","124.207.151.185","Mozilla/5.0 (Windows NT 10.0; Win64; x64) AppleWebKit/537.36 (KHTML, like Gecko) Chrome/106.0.0.0 Safari/537.36 Edg/106.0.1370.37","WebKit","Edge","106.0.1370.37","Windows","10.0","null","<div style=""font-size:60px;"">+</div>","null",""
"","","","","","html-button-response","57","181711","0.0-4.0-1.26","186","1","2022-10-11 02:57:33","d60b49b5908c80e163b920d72b52d584","124.207.151.185","Mozilla/5.0 (Windows NT 10.0; Win64; x64) AppleWebKit/537.36 (KHTML, like Gecko) Chrome/106.0.0.0 Safari/537.36 Edg/106.0.1370.37","WebKit","Edge","106.0.1370.37","Windows","10.0","885","<p>作为军队的指挥官，你可以选择发射导弹杀死 <strong>9名</strong> 敌国士兵，但会误杀附近的 <strong>1名</strong> 敌国平民。</p> <p>平民照片如下图所示。</p> <p></p> <img src='stimuli/faces/NCF7.jpg', style='max-width: 30%;'> </img> <p><strong>你是否选择发射武器？</strong></p>","0",""
"","","","","","html-keyboard-response","58","182726","0.0-4.0-0.27","186","1","2022-10-11 02:57:33","d60b49b5908c80e163b920d72b52d584","124.207.151.185","Mozilla/5.0 (Windows NT 10.0; Win64; x64) AppleWebKit/537.36 (KHTML, like Gecko) Chrome/106.0.0.0 Safari/537.36 Edg/106.0.1370.37","WebKit","Edge","106.0.1370.37","Windows","10.0","null","<div style=""font-size:60px;"">+</div>","null",""
"","","","","","html-button-response","59","187093","0.0-4.0-1.27","186","1","2022-10-11 02:57:33","d60b49b5908c80e163b920d72b52d584","124.207.151.185","Mozilla/5.0 (Windows NT 10.0; Win64; x64) AppleWebKit/537.36 (KHTML, like Gecko) Chrome/106.0.0.0 Safari/537.36 Edg/106.0.1370.37","WebKit","Edge","106.0.1370.37","Windows","10.0","4365","<p>作为军队的指挥官，你可以选择发射导弹杀死 <strong>4名</strong> 敌国士兵，但会误杀附近的 <strong>1名</strong> 敌国平民。</p> <p>平民照片如下图所示。</p> <p></p> <img src='stimuli/faces/NCM8.jpg', style='max-width: 30%;'> </img> <p><strong>你是否选择发射武器？</strong></p>","1",""
"","","","","","html-keyboard-response","60","188103","0.0-4.0-0.28","186","1","2022-10-11 02:57:33","d60b49b5908c80e163b920d72b52d584","124.207.151.185","Mozilla/5.0 (Windows NT 10.0; Win64; x64) AppleWebKit/537.36 (KHTML, like Gecko) Chrome/106.0.0.0 Safari/537.36 Edg/106.0.1370.37","WebKit","Edge","106.0.1370.37","Windows","10.0","null","<div style=""font-size:60px;"">+</div>","null",""
"","","","","","html-button-response","61","191248","0.0-4.0-1.28","186","1","2022-10-11 02:57:33","d60b49b5908c80e163b920d72b52d584","124.207.151.185","Mozilla/5.0 (Windows NT 10.0; Win64; x64) AppleWebKit/537.36 (KHTML, like Gecko) Chrome/106.0.0.0 Safari/537.36 Edg/106.0.1370.37","WebKit","Edge","106.0.1370.37","Windows","10.0","3142","<p>作为军队的指挥官，你可以选择发射导弹杀死 <strong>7名</strong> 敌国士兵，但会炸毁附近的 <strong>1棵</strong> 敌国树木。</p> <p>树木的照片如下图所示。</p> <p></p> <img src='stimuli/trees/9.png', style='max-width: 30%;'> </img> <p><strong>你是否选择发射武器？</strong></p>","0",""
"","","","","","html-keyboard-response","62","192250","0.0-4.0-0.29","186","1","2022-10-11 02:57:33","d60b49b5908c80e163b920d72b52d584","124.207.151.185","Mozilla/5.0 (Windows NT 10.0; Win64; x64) AppleWebKit/537.36 (KHTML, like Gecko) Chrome/106.0.0.0 Safari/537.36 Edg/106.0.1370.37","WebKit","Edge","106.0.1370.37","Windows","10.0","null","<div style=""font-size:60px;"">+</div>","null",""
"","","","","","html-button-response","63","195056","0.0-4.0-1.29","186","1","2022-10-11 02:57:33","d60b49b5908c80e163b920d72b52d584","124.207.151.185","Mozilla/5.0 (Windows NT 10.0; Win64; x64) AppleWebKit/537.36 (KHTML, like Gecko) Chrome/106.0.0.0 Safari/537.36 Edg/106.0.1370.37","WebKit","Edge","106.0.1370.37","Windows","10.0","2803","<p>作为军队的指挥官，你可以选择发射导弹杀死 <strong>3名</strong> 敌国士兵，但会炸毁附近的 <strong>1棵</strong> 敌国树木。</p> <p>树木的照片如下图所示。</p> <p></p> <img src='stimuli/trees/12.png', style='max-width: 30%;'> </img> <p><strong>你是否选择发射武器？</strong></p>","0",""
"","","","","","html-keyboard-response","64","196060","0.0-4.0-0.30","186","1","2022-10-11 02:57:33","d60b49b5908c80e163b920d72b52d584","124.207.151.185","Mozilla/5.0 (Windows NT 10.0; Win64; x64) AppleWebKit/537.36 (KHTML, like Gecko) Chrome/106.0.0.0 Safari/537.36 Edg/106.0.1370.37","WebKit","Edge","106.0.1370.37","Windows","10.0","null","<div style=""font-size:60px;"">+</div>","null",""
"","","","","","html-button-response","65","198258","0.0-4.0-1.30","186","1","2022-10-11 02:57:33","d60b49b5908c80e163b920d72b52d584","124.207.151.185","Mozilla/5.0 (Windows NT 10.0; Win64; x64) AppleWebKit/537.36 (KHTML, like Gecko) Chrome/106.0.0.0 Safari/537.36 Edg/106.0.1370.37","WebKit","Edge","106.0.1370.37","Windows","10.0","2195","<p>作为军队的指挥官，你可以选择发射导弹杀死 <strong>1名</strong> 敌国士兵，但会误杀附近的 <strong>1名</strong> 敌国平民。</p> <p>平民照片如下图所示。</p> <p></p> <img src='stimuli/faces/NCF5.jpg', style='max-width: 30%;'> </img> <p><strong>你是否选择发射武器？</strong></p>","1",""
"","","","","","html-keyboard-response","66","199273","0.0-4.0-0.31","186","1","2022-10-11 02:57:33","d60b49b5908c80e163b920d72b52d584","124.207.151.185","Mozilla/5.0 (Windows NT 10.0; Win64; x64) AppleWebKit/537.36 (KHTML, like Gecko) Chrome/106.0.0.0 Safari/537.36 Edg/106.0.1370.37","WebKit","Edge","106.0.1370.37","Windows","10.0","null","<div style=""font-size:60px;"">+</div>","null",""
"","","","","","html-button-response","67","201445","0.0-4.0-1.31","186","1","2022-10-11 02:57:33","d60b49b5908c80e163b920d72b52d584","124.207.151.185","Mozilla/5.0 (Windows NT 10.0; Win64; x64) AppleWebKit/537.36 (KHTML, like Gecko) Chrome/106.0.0.0 Safari/537.36 Edg/106.0.1370.37","WebKit","Edge","106.0.1370.37","Windows","10.0","2169","<p>作为军队的指挥官，你可以选择发射导弹杀死 <strong>10名</strong> 敌国士兵，但会炸毁附近的 <strong>1棵</strong> 敌国树木。</p> <p>树木的照片如下图所示。</p> <p></p> <img src='stimuli/trees/2.png', style='max-width: 30%;'> </img> <p><strong>你是否选择发射武器？</strong></p>","0",""
"","","","","","html-keyboard-response","68","202451","0.0-4.0-0.32","186","1","2022-10-11 02:57:33","d60b49b5908c80e163b920d72b52d584","124.207.151.185","Mozilla/5.0 (Windows NT 10.0; Win64; x64) AppleWebKit/537.36 (KHTML, like Gecko) Chrome/106.0.0.0 Safari/537.36 Edg/106.0.1370.37","WebKit","Edge","106.0.1370.37","Windows","10.0","null","<div style=""font-size:60px;"">+</div>","null",""
"","","","","","html-button-response","69","205957","0.0-4.0-1.32","186","1","2022-10-11 02:57:33","d60b49b5908c80e163b920d72b52d584","124.207.151.185","Mozilla/5.0 (Windows NT 10.0; Win64; x64) AppleWebKit/537.36 (KHTML, like Gecko) Chrome/106.0.0.0 Safari/537.36 Edg/106.0.1370.37","WebKit","Edge","106.0.1370.37","Windows","10.0","3502","<p>作为军队的指挥官，你可以选择发射导弹杀死 <strong>4名</strong> 敌国士兵，但会炸毁附近的 <strong>1棵</strong> 敌国树木。</p> <p>树木的照片如下图所示。</p> <p></p> <img src='stimuli/trees/3.png', style='max-width: 30%;'> </img> <p><strong>你是否选择发射武器？</strong></p>","0",""
"","","","","","html-keyboard-response","70","206959","0.0-4.0-0.33","186","1","2022-10-11 02:57:33","d60b49b5908c80e163b920d72b52d584","124.207.151.185","Mozilla/5.0 (Windows NT 10.0; Win64; x64) AppleWebKit/537.36 (KHTML, like Gecko) Chrome/106.0.0.0 Safari/537.36 Edg/106.0.1370.37","WebKit","Edge","106.0.1370.37","Windows","10.0","null","<div style=""font-size:60px;"">+</div>","null",""
"","","","","","html-button-response","71","208572","0.0-4.0-1.33","186","1","2022-10-11 02:57:33","d60b49b5908c80e163b920d72b52d584","124.207.151.185","Mozilla/5.0 (Windows NT 10.0; Win64; x64) AppleWebKit/537.36 (KHTML, like Gecko) Chrome/106.0.0.0 Safari/537.36 Edg/106.0.1370.37","WebKit","Edge","106.0.1370.37","Windows","10.0","1610","<p>作为军队的指挥官，你可以选择发射导弹杀死 <strong>1名</strong> 敌国士兵，但会误杀附近的 <strong>1名</strong> 敌国平民。</p> <p>平民照片如下图所示。</p> <p></p> <img src='stimuli/faces/NCM5.jpg', style='max-width: 30%;'> </img> <p><strong>你是否选择发射武器？</strong></p>","1",""
"","","","","","html-keyboard-response","72","209577","0.0-4.0-0.34","186","1","2022-10-11 02:57:33","d60b49b5908c80e163b920d72b52d584","124.207.151.185","Mozilla/5.0 (Windows NT 10.0; Win64; x64) AppleWebKit/537.36 (KHTML, like Gecko) Chrome/106.0.0.0 Safari/537.36 Edg/106.0.1370.37","WebKit","Edge","106.0.1370.37","Windows","10.0","null","<div style=""font-size:60px;"">+</div>","null",""
"","","","","","html-button-response","73","215753","0.0-4.0-1.34","186","1","2022-10-11 02:57:33","d60b49b5908c80e163b920d72b52d584","124.207.151.185","Mozilla/5.0 (Windows NT 10.0; Win64; x64) AppleWebKit/537.36 (KHTML, like Gecko) Chrome/106.0.0.0 Safari/537.36 Edg/106.0.1370.37","WebKit","Edge","106.0.1370.37","Windows","10.0","6172","<p>作为军队的指挥官，你可以选择发射导弹杀死 <strong>1名</strong> 敌国士兵，但会误杀附近的 <strong>1名</strong> 敌国平民。</p> <p>平民照片如下图所示。</p> <p></p> <img src='stimuli/faces/NCF6.jpg', style='max-width: 30%;'> </img> <p><strong>你是否选择发射武器？</strong></p>","1",""
"","","","","","html-keyboard-response","74","216756","0.0-4.0-0.35","186","1","2022-10-11 02:57:33","d60b49b5908c80e163b920d72b52d584","124.207.151.185","Mozilla/5.0 (Windows NT 10.0; Win64; x64) AppleWebKit/537.36 (KHTML, like Gecko) Chrome/106.0.0.0 Safari/537.36 Edg/106.0.1370.37","WebKit","Edge","106.0.1370.37","Windows","10.0","null","<div style=""font-size:60px;"">+</div>","null",""
"","","","","","html-button-response","75","218224","0.0-4.0-1.35","186","1","2022-10-11 02:57:33","d60b49b5908c80e163b920d72b52d584","124.207.151.185","Mozilla/5.0 (Windows NT 10.0; Win64; x64) AppleWebKit/537.36 (KHTML, like Gecko) Chrome/106.0.0.0 Safari/537.36 Edg/106.0.1370.37","WebKit","Edge","106.0.1370.37","Windows","10.0","1464","<p>作为军队的指挥官，你可以选择发射导弹杀死 <strong>7名</strong> 敌国士兵，但会误杀附近的 <strong>1名</strong> 敌国平民。</p> <p>平民照片如下图所示。</p> <p></p> <img src='stimuli/faces/NCM8.jpg', style='max-width: 30%;'> </img> <p><strong>你是否选择发射武器？</strong></p>","0",""
"","","","","","html-keyboard-response","76","219233","0.0-4.0-0.36","186","1","2022-10-11 02:57:33","d60b49b5908c80e163b920d72b52d584","124.207.151.185","Mozilla/5.0 (Windows NT 10.0; Win64; x64) AppleWebKit/537.36 (KHTML, like Gecko) Chrome/106.0.0.0 Safari/537.36 Edg/106.0.1370.37","WebKit","Edge","106.0.1370.37","Windows","10.0","null","<div style=""font-size:60px;"">+</div>","null",""
"","","","","","html-button-response","77","220400","0.0-4.0-1.36","186","1","2022-10-11 02:57:33","d60b49b5908c80e163b920d72b52d584","124.207.151.185","Mozilla/5.0 (Windows NT 10.0; Win64; x64) AppleWebKit/537.36 (KHTML, like Gecko) Chrome/106.0.0.0 Safari/537.36 Edg/106.0.1370.37","WebKit","Edge","106.0.1370.37","Windows","10.0","1163","<p>作为军队的指挥官，你可以选择发射导弹杀死 <strong>10名</strong> 敌国士兵，但会炸毁附近的 <strong>1棵</strong> 敌国树木。</p> <p>树木的照片如下图所示。</p> <p></p> <img src='stimuli/trees/7.png', style='max-width: 30%;'> </img> <p><strong>你是否选择发射武器？</strong></p>","0",""
"","","","","","html-keyboard-response","78","221402","0.0-4.0-0.37","186","1","2022-10-11 02:57:33","d60b49b5908c80e163b920d72b52d584","124.207.151.185","Mozilla/5.0 (Windows NT 10.0; Win64; x64) AppleWebKit/537.36 (KHTML, like Gecko) Chrome/106.0.0.0 Safari/537.36 Edg/106.0.1370.37","WebKit","Edge","106.0.1370.37","Windows","10.0","null","<div style=""font-size:60px;"">+</div>","null",""
"","","","","","html-button-response","79","222587","0.0-4.0-1.37","186","1","2022-10-11 02:57:33","d60b49b5908c80e163b920d72b52d584","124.207.151.185","Mozilla/5.0 (Windows NT 10.0; Win64; x64) AppleWebKit/537.36 (KHTML, like Gecko) Chrome/106.0.0.0 Safari/537.36 Edg/106.0.1370.37","WebKit","Edge","106.0.1370.37","Windows","10.0","1180","<p>作为军队的指挥官，你可以选择发射导弹杀死 <strong>3名</strong> 敌国士兵，但会炸毁附近的 <strong>1棵</strong> 敌国树木。</p> <p>树木的照片如下图所示。</p> <p></p> <img src='stimuli/trees/8.png', style='max-width: 30%;'> </img> <p><strong>你是否选择发射武器？</strong></p>","0",""
"","","","","","html-keyboard-response","80","223598","0.0-4.0-0.38","186","1","2022-10-11 02:57:33","d60b49b5908c80e163b920d72b52d584","124.207.151.185","Mozilla/5.0 (Windows NT 10.0; Win64; x64) AppleWebKit/537.36 (KHTML, like Gecko) Chrome/106.0.0.0 Safari/537.36 Edg/106.0.1370.37","WebKit","Edge","106.0.1370.37","Windows","10.0","null","<div style=""font-size:60px;"">+</div>","null",""
"","","","","","html-button-response","81","225741","0.0-4.0-1.38","186","1","2022-10-11 02:57:33","d60b49b5908c80e163b920d72b52d584","124.207.151.185","Mozilla/5.0 (Windows NT 10.0; Win64; x64) AppleWebKit/537.36 (KHTML, like Gecko) Chrome/106.0.0.0 Safari/537.36 Edg/106.0.1370.37","WebKit","Edge","106.0.1370.37","Windows","10.0","2141","<p>作为军队的指挥官，你可以选择发射导弹杀死 <strong>3名</strong> 敌国士兵，但会误杀附近的 <strong>1名</strong> 敌国平民。</p> <p>平民照片如下图所示。</p> <p></p> <img src='stimuli/faces/NCM2.jpg', style='max-width: 30%;'> </img> <p><strong>你是否选择发射武器？</strong></p>","1",""
"","","","","","html-keyboard-response","82","226753","0.0-4.0-0.39","186","1","2022-10-11 02:57:33","d60b49b5908c80e163b920d72b52d584","124.207.151.185","Mozilla/5.0 (Windows NT 10.0; Win64; x64) AppleWebKit/537.36 (KHTML, like Gecko) Chrome/106.0.0.0 Safari/537.36 Edg/106.0.1370.37","WebKit","Edge","106.0.1370.37","Windows","10.0","null","<div style=""font-size:60px;"">+</div>","null",""
"","","","","","html-button-response","83","228966","0.0-4.0-1.39","186","1","2022-10-11 02:57:33","d60b49b5908c80e163b920d72b52d584","124.207.151.185","Mozilla/5.0 (Windows NT 10.0; Win64; x64) AppleWebKit/537.36 (KHTML, like Gecko) Chrome/106.0.0.0 Safari/537.36 Edg/106.0.1370.37","WebKit","Edge","106.0.1370.37","Windows","10.0","2209","<p>作为军队的指挥官，你可以选择发射导弹杀死 <strong>3名</strong> 敌国士兵，但会炸毁附近的 <strong>1棵</strong> 敌国树木。</p> <p>树木的照片如下图所示。</p> <p></p> <img src='stimuli/trees/1.png', style='max-width: 30%;'> </img> <p><strong>你是否选择发射武器？</strong></p>","0",""
"","","","","","html-keyboard-response","84","229979","0.0-4.0-0.40","186","1","2022-10-11 02:57:33","d60b49b5908c80e163b920d72b52d584","124.207.151.185","Mozilla/5.0 (Windows NT 10.0; Win64; x64) AppleWebKit/537.36 (KHTML, like Gecko) Chrome/106.0.0.0 Safari/537.36 Edg/106.0.1370.37","WebKit","Edge","106.0.1370.37","Windows","10.0","null","<div style=""font-size:60px;"">+</div>","null",""
"","","","","","html-button-response","85","232444","0.0-4.0-1.40","186","1","2022-10-11 02:57:33","d60b49b5908c80e163b920d72b52d584","124.207.151.185","Mozilla/5.0 (Windows NT 10.0; Win64; x64) AppleWebKit/537.36 (KHTML, like Gecko) Chrome/106.0.0.0 Safari/537.36 Edg/106.0.1370.37","WebKit","Edge","106.0.1370.37","Windows","10.0","2461","<p>作为军队的指挥官，你可以选择发射导弹杀死 <strong>7名</strong> 敌国士兵，但会误杀附近的 <strong>1名</strong> 敌国平民。</p> <p>平民照片如下图所示。</p> <p></p> <img src='stimuli/faces/NCF1.jpg', style='max-width: 30%;'> </img> <p><strong>你是否选择发射武器？</strong></p>","0",""
"","","","","","html-keyboard-response","86","233450","0.0-4.0-0.41","186","1","2022-10-11 02:57:33","d60b49b5908c80e163b920d72b52d584","124.207.151.185","Mozilla/5.0 (Windows NT 10.0; Win64; x64) AppleWebKit/537.36 (KHTML, like Gecko) Chrome/106.0.0.0 Safari/537.36 Edg/106.0.1370.37","WebKit","Edge","106.0.1370.37","Windows","10.0","null","<div style=""font-size:60px;"">+</div>","null",""
"","","","","","html-button-response","87","234567","0.0-4.0-1.41","186","1","2022-10-11 02:57:33","d60b49b5908c80e163b920d72b52d584","124.207.151.185","Mozilla/5.0 (Windows NT 10.0; Win64; x64) AppleWebKit/537.36 (KHTML, like Gecko) Chrome/106.0.0.0 Safari/537.36 Edg/106.0.1370.37","WebKit","Edge","106.0.1370.37","Windows","10.0","1113","<p>作为军队的指挥官，你可以选择发射导弹杀死 <strong>5名</strong> 敌国士兵，但会误杀附近的 <strong>1名</strong> 敌国平民。</p> <p>平民照片如下图所示。</p> <p></p> <img src='stimuli/faces/NCM1.jpg', style='max-width: 30%;'> </img> <p><strong>你是否选择发射武器？</strong></p>","0",""
"","","","","","html-keyboard-response","88","235580","0.0-4.0-0.42","186","1","2022-10-11 02:57:33","d60b49b5908c80e163b920d72b52d584","124.207.151.185","Mozilla/5.0 (Windows NT 10.0; Win64; x64) AppleWebKit/537.36 (KHTML, like Gecko) Chrome/106.0.0.0 Safari/537.36 Edg/106.0.1370.37","WebKit","Edge","106.0.1370.37","Windows","10.0","null","<div style=""font-size:60px;"">+</div>","null",""
"","","","","","html-button-response","89","236787","0.0-4.0-1.42","186","1","2022-10-11 02:57:33","d60b49b5908c80e163b920d72b52d584","124.207.151.185","Mozilla/5.0 (Windows NT 10.0; Win64; x64) AppleWebKit/537.36 (KHTML, like Gecko) Chrome/106.0.0.0 Safari/537.36 Edg/106.0.1370.37","WebKit","Edge","106.0.1370.37","Windows","10.0","1204","<p>作为军队的指挥官，你可以选择发射导弹杀死 <strong>3名</strong> 敌国士兵，但会炸毁附近的 <strong>1棵</strong> 敌国树木。</p> <p>树木的照片如下图所示。</p> <p></p> <img src='stimuli/trees/6.png', style='max-width: 30%;'> </img> <p><strong>你是否选择发射武器？</strong></p>","0",""
"","","","","","html-keyboard-response","90","237804","0.0-4.0-0.43","186","1","2022-10-11 02:57:33","d60b49b5908c80e163b920d72b52d584","124.207.151.185","Mozilla/5.0 (Windows NT 10.0; Win64; x64) AppleWebKit/537.36 (KHTML, like Gecko) Chrome/106.0.0.0 Safari/537.36 Edg/106.0.1370.37","WebKit","Edge","106.0.1370.37","Windows","10.0","null","<div style=""font-size:60px;"">+</div>","null",""
"","","","","","html-button-response","91","238780","0.0-4.0-1.43","186","1","2022-10-11 02:57:33","d60b49b5908c80e163b920d72b52d584","124.207.151.185","Mozilla/5.0 (Windows NT 10.0; Win64; x64) AppleWebKit/537.36 (KHTML, like Gecko) Chrome/106.0.0.0 Safari/537.36 Edg/106.0.1370.37","WebKit","Edge","106.0.1370.37","Windows","10.0","972","<p>作为军队的指挥官，你可以选择发射导弹杀死 <strong>6名</strong> 敌国士兵，但会炸毁附近的 <strong>1棵</strong> 敌国树木。</p> <p>树木的照片如下图所示。</p> <p></p> <img src='stimuli/trees/12.png', style='max-width: 30%;'> </img> <p><strong>你是否选择发射武器？</strong></p>","0",""
"","","","","","html-keyboard-response","92","239805","0.0-4.0-0.44","186","1","2022-10-11 02:57:33","d60b49b5908c80e163b920d72b52d584","124.207.151.185","Mozilla/5.0 (Windows NT 10.0; Win64; x64) AppleWebKit/537.36 (KHTML, like Gecko) Chrome/106.0.0.0 Safari/537.36 Edg/106.0.1370.37","WebKit","Edge","106.0.1370.37","Windows","10.0","null","<div style=""font-size:60px;"">+</div>","null",""
"","","","","","html-button-response","93","240665","0.0-4.0-1.44","186","1","2022-10-11 02:57:33","d60b49b5908c80e163b920d72b52d584","124.207.151.185","Mozilla/5.0 (Windows NT 10.0; Win64; x64) AppleWebKit/537.36 (KHTML, like Gecko) Chrome/106.0.0.0 Safari/537.36 Edg/106.0.1370.37","WebKit","Edge","106.0.1370.37","Windows","10.0","856","<p>作为军队的指挥官，你可以选择发射导弹杀死 <strong>9名</strong> 敌国士兵，但会炸毁附近的 <strong>1棵</strong> 敌国树木。</p> <p>树木的照片如下图所示。</p> <p></p> <img src='stimuli/trees/15.png', style='max-width: 30%;'> </img> <p><strong>你是否选择发射武器？</strong></p>","0",""
"","","","","","html-keyboard-response","94","241682","0.0-4.0-0.45","186","1","2022-10-11 02:57:33","d60b49b5908c80e163b920d72b52d584","124.207.151.185","Mozilla/5.0 (Windows NT 10.0; Win64; x64) AppleWebKit/537.36 (KHTML, like Gecko) Chrome/106.0.0.0 Safari/537.36 Edg/106.0.1370.37","WebKit","Edge","106.0.1370.37","Windows","10.0","null","<div style=""font-size:60px;"">+</div>","null",""
"","","","","","html-button-response","95","243289","0.0-4.0-1.45","186","1","2022-10-11 02:57:33","d60b49b5908c80e163b920d72b52d584","124.207.151.185","Mozilla/5.0 (Windows NT 10.0; Win64; x64) AppleWebKit/537.36 (KHTML, like Gecko) Chrome/106.0.0.0 Safari/537.36 Edg/106.0.1370.37","WebKit","Edge","106.0.1370.37","Windows","10.0","1603","<p>作为军队的指挥官，你可以选择发射导弹杀死 <strong>1名</strong> 敌国士兵，但会误杀附近的 <strong>1名</strong> 敌国平民。</p> <p>平民照片如下图所示。</p> <p></p> <img src='stimuli/faces/NCF4.jpg', style='max-width: 30%;'> </img> <p><strong>你是否选择发射武器？</strong></p>","1",""
"","","","","","html-keyboard-response","96","244312","0.0-4.0-0.46","186","1","2022-10-11 02:57:33","d60b49b5908c80e163b920d72b52d584","124.207.151.185","Mozilla/5.0 (Windows NT 10.0; Win64; x64) AppleWebKit/537.36 (KHTML, like Gecko) Chrome/106.0.0.0 Safari/537.36 Edg/106.0.1370.37","WebKit","Edge","106.0.1370.37","Windows","10.0","null","<div style=""font-size:60px;"">+</div>","null",""
"","","","","","html-button-response","97","246099","0.0-4.0-1.46","186","1","2022-10-11 02:57:33","d60b49b5908c80e163b920d72b52d584","124.207.151.185","Mozilla/5.0 (Windows NT 10.0; Win64; x64) AppleWebKit/537.36 (KHTML, like Gecko) Chrome/106.0.0.0 Safari/537.36 Edg/106.0.1370.37","WebKit","Edge","106.0.1370.37","Windows","10.0","1783","<p>作为军队的指挥官，你可以选择发射导弹杀死 <strong>8名</strong> 敌国士兵，但会误杀附近的 <strong>1名</strong> 敌国平民。</p> <p>平民照片如下图所示。</p> <p></p> <img src='stimuli/faces/NCM2.jpg', style='max-width: 30%;'> </img> <p><strong>你是否选择发射武器？</strong></p>","0",""
"","","","","","html-keyboard-response","98","247110","0.0-4.0-0.47","186","1","2022-10-11 02:57:33","d60b49b5908c80e163b920d72b52d584","124.207.151.185","Mozilla/5.0 (Windows NT 10.0; Win64; x64) AppleWebKit/537.36 (KHTML, like Gecko) Chrome/106.0.0.0 Safari/537.36 Edg/106.0.1370.37","WebKit","Edge","106.0.1370.37","Windows","10.0","null","<div style=""font-size:60px;"">+</div>","null",""
"","","","","","html-button-response","99","248720","0.0-4.0-1.47","186","1","2022-10-11 02:57:33","d60b49b5908c80e163b920d72b52d584","124.207.151.185","Mozilla/5.0 (Windows NT 10.0; Win64; x64) AppleWebKit/537.36 (KHTML, like Gecko) Chrome/106.0.0.0 Safari/537.36 Edg/106.0.1370.37","WebKit","Edge","106.0.1370.37","Windows","10.0","1606","<p>作为军队的指挥官，你可以选择发射导弹杀死 <strong>5名</strong> 敌国士兵，但会误杀附近的 <strong>1名</strong> 敌国平民。</p> <p>平民照片如下图所示。</p> <p></p> <img src='stimuli/faces/NCF1.jpg', style='max-width: 30%;'> </img> <p><strong>你是否选择发射武器？</strong></p>","0",""
"","","","","","html-keyboard-response","100","249731","0.0-4.0-0.48","186","1","2022-10-11 02:57:33","d60b49b5908c80e163b920d72b52d584","124.207.151.185","Mozilla/5.0 (Windows NT 10.0; Win64; x64) AppleWebKit/537.36 (KHTML, like Gecko) Chrome/106.0.0.0 Safari/537.36 Edg/106.0.1370.37","WebKit","Edge","106.0.1370.37","Windows","10.0","null","<div style=""font-size:60px;"">+</div>","null",""
"","","","","","html-button-response","101","250488","0.0-4.0-1.48","186","1","2022-10-11 02:57:33","d60b49b5908c80e163b920d72b52d584","124.207.151.185","Mozilla/5.0 (Windows NT 10.0; Win64; x64) AppleWebKit/537.36 (KHTML, like Gecko) Chrome/106.0.0.0 Safari/537.36 Edg/106.0.1370.37","WebKit","Edge","106.0.1370.37","Windows","10.0","753","<p>作为军队的指挥官，你可以选择发射导弹杀死 <strong>9名</strong> 敌国士兵，但会误杀附近的 <strong>1名</strong> 敌国平民。</p> <p>平民照片如下图所示。</p> <p></p> <img src='stimuli/faces/NCM6.jpg', style='max-width: 30%;'> </img> <p><strong>你是否选择发射武器？</strong></p>","0",""
"","","","","","html-keyboard-response","102","251505","0.0-4.0-0.49","186","1","2022-10-11 02:57:33","d60b49b5908c80e163b920d72b52d584","124.207.151.185","Mozilla/5.0 (Windows NT 10.0; Win64; x64) AppleWebKit/537.36 (KHTML, like Gecko) Chrome/106.0.0.0 Safari/537.36 Edg/106.0.1370.37","WebKit","Edge","106.0.1370.37","Windows","10.0","null","<div style=""font-size:60px;"">+</div>","null",""
"","","","","","html-button-response","103","252575","0.0-4.0-1.49","186","1","2022-10-11 02:57:33","d60b49b5908c80e163b920d72b52d584","124.207.151.185","Mozilla/5.0 (Windows NT 10.0; Win64; x64) AppleWebKit/537.36 (KHTML, like Gecko) Chrome/106.0.0.0 Safari/537.36 Edg/106.0.1370.37","WebKit","Edge","106.0.1370.37","Windows","10.0","1066","<p>作为军队的指挥官，你可以选择发射导弹杀死 <strong>9名</strong> 敌国士兵，但会误杀附近的 <strong>1名</strong> 敌国平民。</p> <p>平民照片如下图所示。</p> <p></p> <img src='stimuli/faces/NCM1.jpg', style='max-width: 30%;'> </img> <p><strong>你是否选择发射武器？</strong></p>","0",""
"","","","","","html-keyboard-response","104","253592","0.0-4.0-0.50","186","1","2022-10-11 02:57:33","d60b49b5908c80e163b920d72b52d584","124.207.151.185","Mozilla/5.0 (Windows NT 10.0; Win64; x64) AppleWebKit/537.36 (KHTML, like Gecko) Chrome/106.0.0.0 Safari/537.36 Edg/106.0.1370.37","WebKit","Edge","106.0.1370.37","Windows","10.0","null","<div style=""font-size:60px;"">+</div>","null",""
"","","","","","html-button-response","105","254597","0.0-4.0-1.50","186","1","2022-10-11 02:57:33","d60b49b5908c80e163b920d72b52d584","124.207.151.185","Mozilla/5.0 (Windows NT 10.0; Win64; x64) AppleWebKit/537.36 (KHTML, like Gecko) Chrome/106.0.0.0 Safari/537.36 Edg/106.0.1370.37","WebKit","Edge","106.0.1370.37","Windows","10.0","1001","<p>作为军队的指挥官，你可以选择发射导弹杀死 <strong>5名</strong> 敌国士兵，但会误杀附近的 <strong>1名</strong> 敌国平民。</p> <p>平民照片如下图所示。</p> <p></p> <img src='stimuli/faces/NCM7.jpg', style='max-width: 30%;'> </img> <p><strong>你是否选择发射武器？</strong></p>","0",""
"","","","","","html-keyboard-response","106","255606","0.0-4.0-0.51","186","1","2022-10-11 02:57:33","d60b49b5908c80e163b920d72b52d584","124.207.151.185","Mozilla/5.0 (Windows NT 10.0; Win64; x64) AppleWebKit/537.36 (KHTML, like Gecko) Chrome/106.0.0.0 Safari/537.36 Edg/106.0.1370.37","WebKit","Edge","106.0.1370.37","Windows","10.0","null","<div style=""font-size:60px;"">+</div>","null",""
"","","","","","html-button-response","107","256570","0.0-4.0-1.51","186","1","2022-10-11 02:57:33","d60b49b5908c80e163b920d72b52d584","124.207.151.185","Mozilla/5.0 (Windows NT 10.0; Win64; x64) AppleWebKit/537.36 (KHTML, like Gecko) Chrome/106.0.0.0 Safari/537.36 Edg/106.0.1370.37","WebKit","Edge","106.0.1370.37","Windows","10.0","960","<p>作为军队的指挥官，你可以选择发射导弹杀死 <strong>4名</strong> 敌国士兵，但会误杀附近的 <strong>1名</strong> 敌国平民。</p> <p>平民照片如下图所示。</p> <p></p> <img src='stimuli/faces/NCM4.jpg', style='max-width: 30%;'> </img> <p><strong>你是否选择发射武器？</strong></p>","0",""
"","","","","","html-keyboard-response","108","257584","0.0-4.0-0.52","186","1","2022-10-11 02:57:33","d60b49b5908c80e163b920d72b52d584","124.207.151.185","Mozilla/5.0 (Windows NT 10.0; Win64; x64) AppleWebKit/537.36 (KHTML, like Gecko) Chrome/106.0.0.0 Safari/537.36 Edg/106.0.1370.37","WebKit","Edge","106.0.1370.37","Windows","10.0","null","<div style=""font-size:60px;"">+</div>","null",""
"","","","","","html-button-response","109","258494","0.0-4.0-1.52","186","1","2022-10-11 02:57:33","d60b49b5908c80e163b920d72b52d584","124.207.151.185","Mozilla/5.0 (Windows NT 10.0; Win64; x64) AppleWebKit/537.36 (KHTML, like Gecko) Chrome/106.0.0.0 Safari/537.36 Edg/106.0.1370.37","WebKit","Edge","106.0.1370.37","Windows","10.0","906","<p>作为军队的指挥官，你可以选择发射导弹杀死 <strong>2名</strong> 敌国士兵，但会炸毁附近的 <strong>1棵</strong> 敌国树木。</p> <p>树木的照片如下图所示。</p> <p></p> <img src='stimuli/trees/15.png', style='max-width: 30%;'> </img> <p><strong>你是否选择发射武器？</strong></p>","0",""
"","","","","","html-keyboard-response","110","259513","0.0-4.0-0.53","186","1","2022-10-11 02:57:33","d60b49b5908c80e163b920d72b52d584","124.207.151.185","Mozilla/5.0 (Windows NT 10.0; Win64; x64) AppleWebKit/537.36 (KHTML, like Gecko) Chrome/106.0.0.0 Safari/537.36 Edg/106.0.1370.37","WebKit","Edge","106.0.1370.37","Windows","10.0","null","<div style=""font-size:60px;"">+</div>","null",""
"","","","","","html-button-response","111","262412","0.0-4.0-1.53","186","1","2022-10-11 02:57:33","d60b49b5908c80e163b920d72b52d584","124.207.151.185","Mozilla/5.0 (Windows NT 10.0; Win64; x64) AppleWebKit/537.36 (KHTML, like Gecko) Chrome/106.0.0.0 Safari/537.36 Edg/106.0.1370.37","WebKit","Edge","106.0.1370.37","Windows","10.0","2895","<p>作为军队的指挥官，你可以选择发射导弹杀死 <strong>1名</strong> 敌国士兵，但会炸毁附近的 <strong>1棵</strong> 敌国树木。</p> <p>树木的照片如下图所示。</p> <p></p> <img src='stimuli/trees/11.png', style='max-width: 30%;'> </img> <p><strong>你是否选择发射武器？</strong></p>","1",""
"","","","","","html-keyboard-response","112","263430","0.0-4.0-0.54","186","1","2022-10-11 02:57:33","d60b49b5908c80e163b920d72b52d584","124.207.151.185","Mozilla/5.0 (Windows NT 10.0; Win64; x64) AppleWebKit/537.36 (KHTML, like Gecko) Chrome/106.0.0.0 Safari/537.36 Edg/106.0.1370.37","WebKit","Edge","106.0.1370.37","Windows","10.0","null","<div style=""font-size:60px;"">+</div>","null",""
"","","","","","html-button-response","113","265464","0.0-4.0-1.54","186","1","2022-10-11 02:57:33","d60b49b5908c80e163b920d72b52d584","124.207.151.185","Mozilla/5.0 (Windows NT 10.0; Win64; x64) AppleWebKit/537.36 (KHTML, like Gecko) Chrome/106.0.0.0 Safari/537.36 Edg/106.0.1370.37","WebKit","Edge","106.0.1370.37","Windows","10.0","2030","<p>作为军队的指挥官，你可以选择发射导弹杀死 <strong>1名</strong> 敌国士兵，但会误杀附近的 <strong>1名</strong> 敌国平民。</p> <p>平民照片如下图所示。</p> <p></p> <img src='stimuli/faces/NCM3.jpg', style='max-width: 30%;'> </img> <p><strong>你是否选择发射武器？</strong></p>","1",""
"","","","","","html-keyboard-response","114","266480","0.0-4.0-0.55","186","1","2022-10-11 02:57:33","d60b49b5908c80e163b920d72b52d584","124.207.151.185","Mozilla/5.0 (Windows NT 10.0; Win64; x64) AppleWebKit/537.36 (KHTML, like Gecko) Chrome/106.0.0.0 Safari/537.36 Edg/106.0.1370.37","WebKit","Edge","106.0.1370.37","Windows","10.0","null","<div style=""font-size:60px;"">+</div>","null",""
"","","","","","html-button-response","115","267578","0.0-4.0-1.55","186","1","2022-10-11 02:57:33","d60b49b5908c80e163b920d72b52d584","124.207.151.185","Mozilla/5.0 (Windows NT 10.0; Win64; x64) AppleWebKit/537.36 (KHTML, like Gecko) Chrome/106.0.0.0 Safari/537.36 Edg/106.0.1370.37","WebKit","Edge","106.0.1370.37","Windows","10.0","1094","<p>作为军队的指挥官，你可以选择发射导弹杀死 <strong>7名</strong> 敌国士兵，但会误杀附近的 <strong>1名</strong> 敌国平民。</p> <p>平民照片如下图所示。</p> <p></p> <img src='stimuli/faces/NCF3.jpg', style='max-width: 30%;'> </img> <p><strong>你是否选择发射武器？</strong></p>","0",""
"","","","","","html-keyboard-response","116","268585","0.0-4.0-0.56","186","1","2022-10-11 02:57:33","d60b49b5908c80e163b920d72b52d584","124.207.151.185","Mozilla/5.0 (Windows NT 10.0; Win64; x64) AppleWebKit/537.36 (KHTML, like Gecko) Chrome/106.0.0.0 Safari/537.36 Edg/106.0.1370.37","WebKit","Edge","106.0.1370.37","Windows","10.0","null","<div style=""font-size:60px;"">+</div>","null",""
"","","","","","html-button-response","117","270513","0.0-4.0-1.56","186","1","2022-10-11 02:57:33","d60b49b5908c80e163b920d72b52d584","124.207.151.185","Mozilla/5.0 (Windows NT 10.0; Win64; x64) AppleWebKit/537.36 (KHTML, like Gecko) Chrome/106.0.0.0 Safari/537.36 Edg/106.0.1370.37","WebKit","Edge","106.0.1370.37","Windows","10.0","1925","<p>作为军队的指挥官，你可以选择发射导弹杀死 <strong>10名</strong> 敌国士兵，但会炸毁附近的 <strong>1棵</strong> 敌国树木。</p> <p>树木的照片如下图所示。</p> <p></p> <img src='stimuli/trees/13.png', style='max-width: 30%;'> </img> <p><strong>你是否选择发射武器？</strong></p>","0",""
"","","","","","html-keyboard-response","118","271541","0.0-4.0-0.57","186","1","2022-10-11 02:57:33","d60b49b5908c80e163b920d72b52d584","124.207.151.185","Mozilla/5.0 (Windows NT 10.0; Win64; x64) AppleWebKit/537.36 (KHTML, like Gecko) Chrome/106.0.0.0 Safari/537.36 Edg/106.0.1370.37","WebKit","Edge","106.0.1370.37","Windows","10.0","null","<div style=""font-size:60px;"">+</div>","null",""
"","","","","","html-button-response","119","272657","0.0-4.0-1.57","186","1","2022-10-11 02:57:33","d60b49b5908c80e163b920d72b52d584","124.207.151.185","Mozilla/5.0 (Windows NT 10.0; Win64; x64) AppleWebKit/537.36 (KHTML, like Gecko) Chrome/106.0.0.0 Safari/537.36 Edg/106.0.1370.37","WebKit","Edge","106.0.1370.37","Windows","10.0","1112","<p>作为军队的指挥官，你可以选择发射导弹杀死 <strong>4名</strong> 敌国士兵，但会炸毁附近的 <strong>1棵</strong> 敌国树木。</p> <p>树木的照片如下图所示。</p> <p></p> <img src='stimuli/trees/2.png', style='max-width: 30%;'> </img> <p><strong>你是否选择发射武器？</strong></p>","0",""
"","","","","","html-keyboard-response","120","273669","0.0-4.0-0.58","186","1","2022-10-11 02:57:33","d60b49b5908c80e163b920d72b52d584","124.207.151.185","Mozilla/5.0 (Windows NT 10.0; Win64; x64) AppleWebKit/537.36 (KHTML, like Gecko) Chrome/106.0.0.0 Safari/537.36 Edg/106.0.1370.37","WebKit","Edge","106.0.1370.37","Windows","10.0","null","<div style=""font-size:60px;"">+</div>","null",""
"","","","","","html-button-response","121","275144","0.0-4.0-1.58","186","1","2022-10-11 02:57:33","d60b49b5908c80e163b920d72b52d584","124.207.151.185","Mozilla/5.0 (Windows NT 10.0; Win64; x64) AppleWebKit/537.36 (KHTML, like Gecko) Chrome/106.0.0.0 Safari/537.36 Edg/106.0.1370.37","WebKit","Edge","106.0.1370.37","Windows","10.0","1471","<p>作为军队的指挥官，你可以选择发射导弹杀死 <strong>5名</strong> 敌国士兵，但会炸毁附近的 <strong>1棵</strong> 敌国树木。</p> <p>树木的照片如下图所示。</p> <p></p> <img src='stimuli/trees/10.png', style='max-width: 30%;'> </img> <p><strong>你是否选择发射武器？</strong></p>","0",""
"","","","","","html-keyboard-response","122","276160","0.0-4.0-0.59","186","1","2022-10-11 02:57:33","d60b49b5908c80e163b920d72b52d584","124.207.151.185","Mozilla/5.0 (Windows NT 10.0; Win64; x64) AppleWebKit/537.36 (KHTML, like Gecko) Chrome/106.0.0.0 Safari/537.36 Edg/106.0.1370.37","WebKit","Edge","106.0.1370.37","Windows","10.0","null","<div style=""font-size:60px;"">+</div>","null",""
"","","","","","html-button-response","123","277764","0.0-4.0-1.59","186","1","2022-10-11 02:57:33","d60b49b5908c80e163b920d72b52d584","124.207.151.185","Mozilla/5.0 (Windows NT 10.0; Win64; x64) AppleWebKit/537.36 (KHTML, like Gecko) Chrome/106.0.0.0 Safari/537.36 Edg/106.0.1370.37","WebKit","Edge","106.0.1370.37","Windows","10.0","1598","<p>作为军队的指挥官，你可以选择发射导弹杀死 <strong>6名</strong> 敌国士兵，但会炸毁附近的 <strong>1棵</strong> 敌国树木。</p> <p>树木的照片如下图所示。</p> <p></p> <img src='stimuli/trees/14.png', style='max-width: 30%;'> </img> <p><strong>你是否选择发射武器？</strong></p>","0",""
"","","","","","html-keyboard-response","124","278779","0.0-4.0-0.60","186","1","2022-10-11 02:57:33","d60b49b5908c80e163b920d72b52d584","124.207.151.185","Mozilla/5.0 (Windows NT 10.0; Win64; x64) AppleWebKit/537.36 (KHTML, like Gecko) Chrome/106.0.0.0 Safari/537.36 Edg/106.0.1370.37","WebKit","Edge","106.0.1370.37","Windows","10.0","null","<div style=""font-size:60px;"">+</div>","null",""
"","","","","","html-button-response","125","280404","0.0-4.0-1.60","186","1","2022-10-11 02:57:33","d60b49b5908c80e163b920d72b52d584","124.207.151.185","Mozilla/5.0 (Windows NT 10.0; Win64; x64) AppleWebKit/537.36 (KHTML, like Gecko) Chrome/106.0.0.0 Safari/537.36 Edg/106.0.1370.37","WebKit","Edge","106.0.1370.37","Windows","10.0","1621","<p>作为军队的指挥官，你可以选择发射导弹杀死 <strong>9名</strong> 敌国士兵，但会误杀附近的 <strong>1名</strong> 敌国平民。</p> <p>平民照片如下图所示。</p> <p></p> <img src='stimuli/faces/NCM3.jpg', style='max-width: 30%;'> </img> <p><strong>你是否选择发射武器？</strong></p>","0",""
"","","","","","html-keyboard-response","126","281411","0.0-4.0-0.61","186","1","2022-10-11 02:57:33","d60b49b5908c80e163b920d72b52d584","124.207.151.185","Mozilla/5.0 (Windows NT 10.0; Win64; x64) AppleWebKit/537.36 (KHTML, like Gecko) Chrome/106.0.0.0 Safari/537.36 Edg/106.0.1370.37","WebKit","Edge","106.0.1370.37","Windows","10.0","null","<div style=""font-size:60px;"">+</div>","null",""
"","","","","","html-button-response","127","283786","0.0-4.0-1.61","186","1","2022-10-11 02:57:33","d60b49b5908c80e163b920d72b52d584","124.207.151.185","Mozilla/5.0 (Windows NT 10.0; Win64; x64) AppleWebKit/537.36 (KHTML, like Gecko) Chrome/106.0.0.0 Safari/537.36 Edg/106.0.1370.37","WebKit","Edge","106.0.1370.37","Windows","10.0","2371","<p>作为军队的指挥官，你可以选择发射导弹杀死 <strong>2名</strong> 敌国士兵，但会炸毁附近的 <strong>1棵</strong> 敌国树木。</p> <p>树木的照片如下图所示。</p> <p></p> <img src='stimuli/trees/16.png', style='max-width: 30%;'> </img> <p><strong>你是否选择发射武器？</strong></p>","0",""
"","","","","","html-keyboard-response","128","284793","0.0-4.0-0.62","186","1","2022-10-11 02:57:33","d60b49b5908c80e163b920d72b52d584","124.207.151.185","Mozilla/5.0 (Windows NT 10.0; Win64; x64) AppleWebKit/537.36 (KHTML, like Gecko) Chrome/106.0.0.0 Safari/537.36 Edg/106.0.1370.37","WebKit","Edge","106.0.1370.37","Windows","10.0","null","<div style=""font-size:60px;"">+</div>","null",""
"","","","","","html-button-response","129","286037","0.0-4.0-1.62","186","1","2022-10-11 02:57:33","d60b49b5908c80e163b920d72b52d584","124.207.151.185","Mozilla/5.0 (Windows NT 10.0; Win64; x64) AppleWebKit/537.36 (KHTML, like Gecko) Chrome/106.0.0.0 Safari/537.36 Edg/106.0.1370.37","WebKit","Edge","106.0.1370.37","Windows","10.0","1240","<p>作为军队的指挥官，你可以选择发射导弹杀死 <strong>1名</strong> 敌国士兵，但会炸毁附近的 <strong>1棵</strong> 敌国树木。</p> <p>树木的照片如下图所示。</p> <p></p> <img src='stimuli/trees/13.png', style='max-width: 30%;'> </img> <p><strong>你是否选择发射武器？</strong></p>","0",""
"","","","","","html-keyboard-response","130","287047","0.0-4.0-0.63","186","1","2022-10-11 02:57:33","d60b49b5908c80e163b920d72b52d584","124.207.151.185","Mozilla/5.0 (Windows NT 10.0; Win64; x64) AppleWebKit/537.36 (KHTML, like Gecko) Chrome/106.0.0.0 Safari/537.36 Edg/106.0.1370.37","WebKit","Edge","106.0.1370.37","Windows","10.0","null","<div style=""font-size:60px;"">+</div>","null",""
"","","","","","html-button-response","131","289188","0.0-4.0-1.63","186","1","2022-10-11 02:57:33","d60b49b5908c80e163b920d72b52d584","124.207.151.185","Mozilla/5.0 (Windows NT 10.0; Win64; x64) AppleWebKit/537.36 (KHTML, like Gecko) Chrome/106.0.0.0 Safari/537.36 Edg/106.0.1370.37","WebKit","Edge","106.0.1370.37","Windows","10.0","2138","<p>作为军队的指挥官，你可以选择发射导弹杀死 <strong>1名</strong> 敌国士兵，但会炸毁附近的 <strong>1棵</strong> 敌国树木。</p> <p>树木的照片如下图所示。</p> <p></p> <img src='stimuli/trees/14.png', style='max-width: 30%;'> </img> <p><strong>你是否选择发射武器？</strong></p>","1",""
"","","","","","survey-multi-choice","132","342726","0.0-5.0","186","1","2022-10-11 02:57:33","d60b49b5908c80e163b920d72b52d584","124.207.151.185","Mozilla/5.0 (Windows NT 10.0; Win64; x64) AppleWebKit/537.36 (KHTML, like Gecko) Chrome/106.0.0.0 Safari/537.36 Edg/106.0.1370.37","WebKit","Edge","106.0.1370.37","Windows","10.0","53533","","{""Attention1"":""3""}","[0]"
"","","","","","html-button-response","133","345539","0.0-6.0","186","1","2022-10-11 02:57:33","d60b49b5908c80e163b920d72b52d584","124.207.151.185","Mozilla/5.0 (Windows NT 10.0; Win64; x64) AppleWebKit/537.36 (KHTML, like Gecko) Chrome/106.0.0.0 Safari/537.36 Edg/106.0.1370.37","WebKit","Edge","106.0.1370.37","Windows","10.0","2807","<p style=""font-size:20px;font-weight:bold;"">恭喜！</p><p>你已经完成了实验的第一部分。</p><p>请休息放松一下，然后进入第二部分。</p><p>这部分大约需要10分钟。</p>","0",""
"","","","","","survey-text","134","406797","0.0-7.0","186","1","2022-10-11 02:57:33","d60b49b5908c80e163b920d72b52d584","124.207.151.185","Mozilla/5.0 (Windows NT 10.0; Win64; x64) AppleWebKit/537.36 (KHTML, like Gecko) Chrome/106.0.0.0 Safari/537.36 Edg/106.0.1370.37","WebKit","Edge","106.0.1370.37","Windows","10.0","60237","","{""Age"":""19"",""Nation"":""中国"",""Born"":""北京"",""Live"":""北京"",""Ethnic"":""汉族"",""Alipay"":""18701565932""}",""
"","","","","","survey-multi-choice","135","464851","0.0-8.0","186","1","2022-10-11 02:57:33","d60b49b5908c80e163b920d72b52d584","124.207.151.185","Mozilla/5.0 (Windows NT 10.0; Win64; x64) AppleWebKit/537.36 (KHTML, like Gecko) Chrome/106.0.0.0 Safari/537.36 Edg/106.0.1370.37","WebKit","Edge","106.0.1370.37","Windows","10.0","58048","","{""Gender"":""女"",""Education"":""高中毕业"",""Income"":""￥35,000-￥69,999"",""Children"":""0"",""Race"":""亚洲人""}","[0,1,2,3,4]"
"","","","","","survey-multi-select","136","472985","0.0-9.0","186","1","2022-10-11 02:57:33","d60b49b5908c80e163b920d72b52d584","124.207.151.185","Mozilla/5.0 (Windows NT 10.0; Win64; x64) AppleWebKit/537.36 (KHTML, like Gecko) Chrome/106.0.0.0 Safari/537.36 Edg/106.0.1370.37","WebKit","Edge","106.0.1370.37","Windows","10.0","8120","","{""Marriage"":[""未婚""],""Religion"":[""无宗教信仰""]}","[0,1]"
"","","","","","survey-multi-choice","137","500551","0.0-10.0","186","1","2022-10-11 02:57:33","d60b49b5908c80e163b920d72b52d584","124.207.151.185","Mozilla/5.0 (Windows NT 10.0; Win64; x64) AppleWebKit/537.36 (KHTML, like Gecko) Chrome/106.0.0.0 Safari/537.36 Edg/106.0.1370.37","WebKit","Edge","106.0.1370.37","Windows","10.0","27559","","{""SES"":""5""}","[0]"
"","","","","","html-button-response","138","507913","0.0-11.0","186","1","2022-10-11 02:57:33","d60b49b5908c80e163b920d72b52d584","124.207.151.185","Mozilla/5.0 (Windows NT 10.0; Win64; x64) AppleWebKit/537.36 (KHTML, like Gecko) Chrome/106.0.0.0 Safari/537.36 Edg/106.0.1370.37","WebKit","Edge","106.0.1370.37","Windows","10.0","7357","<p><strong>请判断下列陈述在多大程度上可以形容你？</p><p> (1 = ""和我一点都不像"" to 5 = ""非常像我"".)</strong></p>","0",""
"","","","","","survey-likert","139","549847","0.0-12.0","186","1","2022-10-11 02:57:33","d60b49b5908c80e163b920d72b52d584","124.207.151.185","Mozilla/5.0 (Windows NT 10.0; Win64; x64) AppleWebKit/537.36 (KHTML, like Gecko) Chrome/106.0.0.0 Safari/537.36 Edg/106.0.1370.37","WebKit","Edge","106.0.1370.37","Windows","10.0","41930","","{""Aggression1"":4,""Aggression2"":1,""Aggression3"":4,""Aggression4"":1,""Aggression5"":4,""Aggression6"":4,""Aggression7"":1,""Aggression8"":0,""Aggression9"":4}","[0,1,2,3,4,5,6,7,8]"
"","","","","","html-button-response","140","551213","0.0-13.0","186","1","2022-10-11 02:57:33","d60b49b5908c80e163b920d72b52d584","124.207.151.185","Mozilla/5.0 (Windows NT 10.0; Win64; x64) AppleWebKit/537.36 (KHTML, like Gecko) Chrome/106.0.0.0 Safari/537.36 Edg/106.0.1370.37","WebKit","Edge","106.0.1370.37","Windows","10.0","1360","<p><strong>请判断你在多大程度上同意下列陈述。</strong></p>","0",""
"","","","","","survey-likert","141","658278","0.0-14.0","186","1","2022-10-11 02:57:33","d60b49b5908c80e163b920d72b52d584","124.207.151.185","Mozilla/5.0 (Windows NT 10.0; Win64; x64) AppleWebKit/537.36 (KHTML, like Gecko) Chrome/106.0.0.0 Safari/537.36 Edg/106.0.1370.37","WebKit","Edge","106.0.1370.37","Windows","10.0","107057","","{""scale8"":3,""scale5"":3,""scale19"":2,""scale1"":1,""scale15"":4,""scale20"":4,""scale10"":4,""scale22"":4,""scale18"":0,""scale25"":3,""scale26"":3,""scale13"":1,""scale14"":1,""scale28"":3,""scale3"":3,""scale27"":2,""scale9"":4,""scale17"":4,""scale2"":4,""scale11"":3,""scale6"":3,""scale7"":1,""scale4"":1,""scale12"":1,""scale21"":3,""scale23"":4,""scale16"":3,""scale24"":1}","[7,4,18,0,14,19,9,21,17,24,25,12,13,27,2,26,8,16,1,10,5,6,3,11,20,22,15,23]"
"","","","","","html-button-response","142","659823","0.0-15.0","186","1","2022-10-11 02:57:33","d60b49b5908c80e163b920d72b52d584","124.207.151.185","Mozilla/5.0 (Windows NT 10.0; Win64; x64) AppleWebKit/537.36 (KHTML, like Gecko) Chrome/106.0.0.0 Safari/537.36 Edg/106.0.1370.37","WebKit","Edge","106.0.1370.37","Windows","10.0","1539","<p><strong>请判断你在多大程度上同意下列陈述。</strong></p>","0",""
"","","","","","survey-likert","143","748411","0.0-16.0","186","1","2022-10-11 02:57:33","d60b49b5908c80e163b920d72b52d584","124.207.151.185","Mozilla/5.0 (Windows NT 10.0; Win64; x64) AppleWebKit/537.36 (KHTML, like Gecko) Chrome/106.0.0.0 Safari/537.36 Edg/106.0.1370.37","WebKit","Edge","106.0.1370.37","Windows","10.0","88584","","{""sdo11"":6,""sdo9"":6,""sdo13"":6,""sdo12"":6,""sdo14"":6,""sdo1"":0,""sdo6"":1,""sdo3"":4,""sdo15"":5,""sdo7"":1,""sdo10"":5,""sdo8"":1,""sdo16"":6,""sdo4"":1,""sdo2"":0,""sdo5"":0}","[10,8,12,11,13,0,5,2,14,6,9,7,15,3,1,4]"
"","","","","","html-button-response","144","749821","0.0-17.0","186","1","2022-10-11 02:57:33","d60b49b5908c80e163b920d72b52d584","124.207.151.185","Mozilla/5.0 (Windows NT 10.0; Win64; x64) AppleWebKit/537.36 (KHTML, like Gecko) Chrome/106.0.0.0 Safari/537.36 Edg/106.0.1370.37","WebKit","Edge","106.0.1370.37","Windows","10.0","1403","<p><strong>请判断你在多大程度上同意下列陈述。</strong></p>","0",""
"","","","","","survey-likert","145","805150","0.0-18.0","186","1","2022-10-11 02:57:33","d60b49b5908c80e163b920d72b52d584","124.207.151.185","Mozilla/5.0 (Windows NT 10.0; Win64; x64) AppleWebKit/537.36 (KHTML, like Gecko) Chrome/106.0.0.0 Safari/537.36 Edg/106.0.1370.37","WebKit","Edge","106.0.1370.37","Windows","10.0","55325","","{""caring1"":3,""liking1"":4,""caring2"":4,""protection1"":3,""liking2"":2,""caring3"":2,""protection2"":3,""liking3"":3,""protection3"":3,""caring4"":3,""liking4"":3,""protection4"":3,""caring5"":2,""liking5"":3,""protection5"":3}","[0,1,2,3,4,5,6,7,8,9,10,11,12,13,14]"
"","","","","","html-button-response","146","808799","0.0-19.0","186","1","2022-10-11 02:57:33","d60b49b5908c80e163b920d72b52d584","124.207.151.185","Mozilla/5.0 (Windows NT 10.0; Win64; x64) AppleWebKit/537.36 (KHTML, like Gecko) Chrome/106.0.0.0 Safari/537.36 Edg/106.0.1370.37","WebKit","Edge","106.0.1370.37","Windows","10.0","3644","<p><strong>请判断下列场景中你的内心感受有多柔软。</strong></p>","0",""
"","","","","","survey-likert","147","837005","0.0-20.0","186","1","2022-10-11 02:57:33","d60b49b5908c80e163b920d72b52d584","124.207.151.185","Mozilla/5.0 (Windows NT 10.0; Win64; x64) AppleWebKit/537.36 (KHTML, like Gecko) Chrome/106.0.0.0 Safari/537.36 Edg/106.0.1370.37","WebKit","Edge","106.0.1370.37","Windows","10.0","28201","","{""tenderness-positive1"":3,""tenderness-negative1"":1,""tenderness-negative2"":0,""tenderness-positive2"":3,""tenderness-positive3"":4,""tenderness-negative3"":1,""tenderness-positive4"":4,""tendereness-negative4"":1,""tendernness-negative5"":1,""tenderness-positive5"":4}","[0,1,2,3,4,5,6,7,8,9]"
"","","","","","survey-multi-choice","148","857232","0.0-21.0","186","1","2022-10-11 02:57:33","d60b49b5908c80e163b920d72b52d584","124.207.151.185","Mozilla/5.0 (Windows NT 10.0; Win64; x64) AppleWebKit/537.36 (KHTML, like Gecko) Chrome/106.0.0.0 Safari/537.36 Edg/106.0.1370.37","WebKit","Edge","106.0.1370.37","Windows","10.0","20220","","{""Attention2"":""其他""}","[0]"
"","","","","","html-button-response","149","858477","0.0-22.0","186","1","2022-10-11 02:57:33","d60b49b5908c80e163b920d72b52d584","124.207.151.185","Mozilla/5.0 (Windows NT 10.0; Win64; x64) AppleWebKit/537.36 (KHTML, like Gecko) Chrome/106.0.0.0 Safari/537.36 Edg/106.0.1370.37","WebKit","Edge","106.0.1370.37","Windows","10.0","1238","<p><strong>请判断你在多大程度上同意下列陈述。</strong></p>","0",""
"","","","","","survey-likert","150","947912","0.0-23.0","186","1","2022-10-11 02:57:33","d60b49b5908c80e163b920d72b52d584","124.207.151.185","Mozilla/5.0 (Windows NT 10.0; Win64; x64) AppleWebKit/537.36 (KHTML, like Gecko) Chrome/106.0.0.0 Safari/537.36 Edg/106.0.1370.37","WebKit","Edge","106.0.1370.37","Windows","10.0","89428","","{""Patri6"":0,""Patri5"":4,""Patri8"":4,""Nation7"":1,""Patri11"":0,""Patri1"":4,""Nation8"":4,""Patri9"":1,""Nation2"":4,""Nation1"":2,""Patri3"":4,""Nation4"":1,""Nation5"":1,""Patri12"":2,""Patri2"":4,""Nation3"":1,""Patri7"":4,""Patri10"":0,""Nation6"":4,""Patri4"":4}","[5,4,7,18,10,0,19,8,13,12,2,15,16,11,1,14,6,9,17,3]"
"","","","","","html-button-response","151","949175","0.0-24.0","186","1","2022-10-11 02:57:33","d60b49b5908c80e163b920d72b52d584","124.207.151.185","Mozilla/5.0 (Windows NT 10.0; Win64; x64) AppleWebKit/537.36 (KHTML, like Gecko) Chrome/106.0.0.0 Safari/537.36 Edg/106.0.1370.37","WebKit","Edge","106.0.1370.37","Windows","10.0","1257","<p><strong>请判断你在多大程度上同意下列陈述。</strong></p>","0",""
"","","","","","survey-likert","152","1014112","0.0-25.0","186","1","2022-10-11 02:57:33","d60b49b5908c80e163b920d72b52d584","124.207.151.185","Mozilla/5.0 (Windows NT 10.0; Win64; x64) AppleWebKit/537.36 (KHTML, like Gecko) Chrome/106.0.0.0 Safari/537.36 Edg/106.0.1370.37","WebKit","Edge","106.0.1370.37","Windows","10.0","64930","","{""hi4"":8,""vi4"":8,""hc2"":7,""vc2"":3,""hi1"":8,""hc1"":5,""hi3"":3,""hc3"":4,""vi1"":6,""vc1"":8,""hi2"":8,""vi2"":1,""vc3"":0,""vc4"":8,""hc4"":8,""Robot"":6,""vi3"":7}","[3,8,10,14,0,9,2,11,4,13,1,5,15,16,12,7,6]"
"","","","","","survey-text","153","1018609","0.0-26.0","186","1","2022-10-11 02:57:33","d60b49b5908c80e163b920d72b52d584","124.207.151.185","Mozilla/5.0 (Windows NT 10.0; Win64; x64) AppleWebKit/537.36 (KHTML, like Gecko) Chrome/106.0.0.0 Safari/537.36 Edg/106.0.1370.37","WebKit","Edge","106.0.1370.37","Windows","10.0","4469","","{""Comments"":""无""}",""
"","","","","","html-button-response","154","1020343","0.0-27.0","186","1","2022-10-11 02:57:33","d60b49b5908c80e163b920d72b52d584","124.207.151.185","Mozilla/5.0 (Windows NT 10.0; Win64; x64) AppleWebKit/537.36 (KHTML, like Gecko) Chrome/106.0.0.0 Safari/537.36 Edg/106.0.1370.37","WebKit","Edge","106.0.1370.37","Windows","10.0","1729","<strong><p>恭喜你完成了实验！</p><p>感谢您的参与。</p></strong>","0",""
