"success","timeout","failed_images","failed_audio","failed_video","trial_type","trial_index","time_elapsed","internal_node_id","run_id","condition","recorded_at","source_code_version","ip","user_agent","device","browser","browser_version","platform","platform_version","rt","stimulus","response","question_order"
"true","false","[]","[]","[]","preload","0","112","0.0-0.0","191","1","2022-10-11 03:24:27","d60b49b5908c80e163b920d72b52d584","183.217.173.10","Mozilla/5.0 (Windows NT 6.1; WOW64) AppleWebKit/537.36 (KHTML, like Gecko) Chrome/81.0.4044.138 Safari/537.36 NetType/WIFI MicroMessenger/7.0.20.1781(0x6700143B) WindowsWechat(0x6307062c)","WebKit","Chrome","81.0.4044.138","Windows","6.1","","","",""
"true","","","","","fullscreen","1","3830","0.0-1.0","191","1","2022-10-11 03:24:27","d60b49b5908c80e163b920d72b52d584","183.217.173.10","Mozilla/5.0 (Windows NT 6.1; WOW64) AppleWebKit/537.36 (KHTML, like Gecko) Chrome/81.0.4044.138 Safari/537.36 NetType/WIFI MicroMessenger/7.0.20.1781(0x6700143B) WindowsWechat(0x6307062c)","WebKit","Chrome","81.0.4044.138","Windows","6.1","","","",""
"","","","","","html-button-response","2","10360","0.0-2.0","191","1","2022-10-11 03:24:27","d60b49b5908c80e163b920d72b52d584","183.217.173.10","Mozilla/5.0 (Windows NT 6.1; WOW64) AppleWebKit/537.36 (KHTML, like Gecko) Chrome/81.0.4044.138 Safari/537.36 NetType/WIFI MicroMessenger/7.0.20.1781(0x6700143B) WindowsWechat(0x6307062c)","WebKit","Chrome","81.0.4044.138","Windows","6.1","6527","<p style=""font-size:20px;font-weight:bold;"">实验知情同意书</p><p style=""text-align:left;""><strong>实验名称：</strong>社会冲突研究</p><p style=""text-align:left;""><strong>主要研究者：</strong>韩晓春副教授（北京师范大学心理学部）</p><p style=""text-align:left;""><strong>联系方式：</strong>发送邮件至xiaochun.han@bnu.edu.cn</p><p style=""text-align:left;""><strong>研究目的：</strong>研究旨在了解人类面对群体冲突时的决策方式，以及相关的心理学特质。实验调查大约需要20分钟。</p><p style=""text-align:left;""><strong>实验流程：</strong>实验包含两部分。第一部分呈现一系列群体冲突场景，请你决定如何对这些冲突进行反应，大约需要10分钟完成。第二部分包含一系列人口统计学信息收集和心理学问卷，大约需要10分钟完成。</p><p style=""text-align:left;""><strong>参加及退出规则：</strong>参加本实验完全取决于您的个人意愿。在参与过程中，您可以随时退出，并且不用承担任何后果。</p><p style=""text-align:left;""><strong>隐私：</strong>本实验完全匿名进行，不会收集您的姓名或其他能够识别您身份的信息。实验中收集的作答仅用作科学研究使用，可能会在学术期刊/书籍上发表，或者用于教学，您的数据未来可能会和其他研究者或实验室分享，但您的个人身份不会被识别。</p><p style=""text-align:left;""><strong>实验报酬：</strong>实验完成后，您将获得15元人民币报酬，以感谢您的时间和努力。调查问卷中包含几道题目用以测验您作答时的认真度。只有完成全部实验，并且正确回答认真度测验的被试才能获得实验报酬。实验报酬将通过支付宝转账发放。</p><p style=""text-align:left;font-size:20px;""><strong>如果您同意以上实验知情同意书的内容，请点击'同意并且开始实验'按钮；否则请关闭浏览器界面，退出实验。</strong></p>","0",""
"","","","","","html-button-response","3","12704","0.0-3.0","191","1","2022-10-11 03:24:27","d60b49b5908c80e163b920d72b52d584","183.217.173.10","Mozilla/5.0 (Windows NT 6.1; WOW64) AppleWebKit/537.36 (KHTML, like Gecko) Chrome/81.0.4044.138 Safari/537.36 NetType/WIFI MicroMessenger/7.0.20.1781(0x6700143B) WindowsWechat(0x6307062c)","WebKit","Chrome","81.0.4044.138","Windows","6.1","2341","<p ><strong>实验任务一：</strong></p><p>请想象你的国家与另一个国家发生了军事冲突。</p><p>你是国家军队的指挥官，你将如何在冲突中进行决策。</p><p>具体来说，作为军队指挥官，请你决定是否发射导弹进行打击。</p><p>接下来，你会面对一系列场景，请仔细阅读每个场景，然后进行决策。</p><p>这部分实验任务大约需要10分钟。</p><p><strong>实验过程中，请集中注意力。</strong></p>","0",""
"","","","","","html-keyboard-response","4","13721","0.0-4.0-0.0","191","1","2022-10-11 03:24:27","d60b49b5908c80e163b920d72b52d584","183.217.173.10","Mozilla/5.0 (Windows NT 6.1; WOW64) AppleWebKit/537.36 (KHTML, like Gecko) Chrome/81.0.4044.138 Safari/537.36 NetType/WIFI MicroMessenger/7.0.20.1781(0x6700143B) WindowsWechat(0x6307062c)","WebKit","Chrome","81.0.4044.138","Windows","6.1","null","<div style=""font-size:60px;"">+</div>","null",""
"","","","","","html-button-response","5","20729","0.0-4.0-1.0","191","1","2022-10-11 03:24:27","d60b49b5908c80e163b920d72b52d584","183.217.173.10","Mozilla/5.0 (Windows NT 6.1; WOW64) AppleWebKit/537.36 (KHTML, like Gecko) Chrome/81.0.4044.138 Safari/537.36 NetType/WIFI MicroMessenger/7.0.20.1781(0x6700143B) WindowsWechat(0x6307062c)","WebKit","Chrome","81.0.4044.138","Windows","6.1","7004","<p>作为军队的指挥官，你可以选择发射导弹杀死 <strong>7名</strong> 敌国士兵，但会误杀附近的 <strong>1名</strong> 敌国平民。</p> <p>平民照片如下图所示。</p> <p></p> <img src='stimuli/faces/NCM3.jpg', style='max-width: 30%;'> </img> <p><strong>你是否选择发射武器？</strong></p>","1",""
"","","","","","html-keyboard-response","6","21733","0.0-4.0-0.1","191","1","2022-10-11 03:24:27","d60b49b5908c80e163b920d72b52d584","183.217.173.10","Mozilla/5.0 (Windows NT 6.1; WOW64) AppleWebKit/537.36 (KHTML, like Gecko) Chrome/81.0.4044.138 Safari/537.36 NetType/WIFI MicroMessenger/7.0.20.1781(0x6700143B) WindowsWechat(0x6307062c)","WebKit","Chrome","81.0.4044.138","Windows","6.1","null","<div style=""font-size:60px;"">+</div>","null",""
"","","","","","html-button-response","7","24128","0.0-4.0-1.1","191","1","2022-10-11 03:24:27","d60b49b5908c80e163b920d72b52d584","183.217.173.10","Mozilla/5.0 (Windows NT 6.1; WOW64) AppleWebKit/537.36 (KHTML, like Gecko) Chrome/81.0.4044.138 Safari/537.36 NetType/WIFI MicroMessenger/7.0.20.1781(0x6700143B) WindowsWechat(0x6307062c)","WebKit","Chrome","81.0.4044.138","Windows","6.1","2391","<p>作为军队的指挥官，你可以选择发射导弹杀死 <strong>5名</strong> 敌国士兵，但会炸毁附近的 <strong>1棵</strong> 敌国树木。</p> <p>树木的照片如下图所示。</p> <p></p> <img src='stimuli/trees/2.png', style='max-width: 30%;'> </img> <p><strong>你是否选择发射武器？</strong></p>","0",""
"","","","","","html-keyboard-response","8","25131","0.0-4.0-0.2","191","1","2022-10-11 03:24:27","d60b49b5908c80e163b920d72b52d584","183.217.173.10","Mozilla/5.0 (Windows NT 6.1; WOW64) AppleWebKit/537.36 (KHTML, like Gecko) Chrome/81.0.4044.138 Safari/537.36 NetType/WIFI MicroMessenger/7.0.20.1781(0x6700143B) WindowsWechat(0x6307062c)","WebKit","Chrome","81.0.4044.138","Windows","6.1","null","<div style=""font-size:60px;"">+</div>","null",""
"","","","","","html-button-response","9","27480","0.0-4.0-1.2","191","1","2022-10-11 03:24:27","d60b49b5908c80e163b920d72b52d584","183.217.173.10","Mozilla/5.0 (Windows NT 6.1; WOW64) AppleWebKit/537.36 (KHTML, like Gecko) Chrome/81.0.4044.138 Safari/537.36 NetType/WIFI MicroMessenger/7.0.20.1781(0x6700143B) WindowsWechat(0x6307062c)","WebKit","Chrome","81.0.4044.138","Windows","6.1","2346","<p>作为军队的指挥官，你可以选择发射导弹杀死 <strong>2名</strong> 敌国士兵，但会误杀附近的 <strong>1名</strong> 敌国平民。</p> <p>平民照片如下图所示。</p> <p></p> <img src='stimuli/faces/NCF3.jpg', style='max-width: 30%;'> </img> <p><strong>你是否选择发射武器？</strong></p>","1",""
"","","","","","html-keyboard-response","10","28487","0.0-4.0-0.3","191","1","2022-10-11 03:24:27","d60b49b5908c80e163b920d72b52d584","183.217.173.10","Mozilla/5.0 (Windows NT 6.1; WOW64) AppleWebKit/537.36 (KHTML, like Gecko) Chrome/81.0.4044.138 Safari/537.36 NetType/WIFI MicroMessenger/7.0.20.1781(0x6700143B) WindowsWechat(0x6307062c)","WebKit","Chrome","81.0.4044.138","Windows","6.1","null","<div style=""font-size:60px;"">+</div>","null",""
"","","","","","html-button-response","11","30808","0.0-4.0-1.3","191","1","2022-10-11 03:24:27","d60b49b5908c80e163b920d72b52d584","183.217.173.10","Mozilla/5.0 (Windows NT 6.1; WOW64) AppleWebKit/537.36 (KHTML, like Gecko) Chrome/81.0.4044.138 Safari/537.36 NetType/WIFI MicroMessenger/7.0.20.1781(0x6700143B) WindowsWechat(0x6307062c)","WebKit","Chrome","81.0.4044.138","Windows","6.1","2320","<p>作为军队的指挥官，你可以选择发射导弹杀死 <strong>7名</strong> 敌国士兵，但会误杀附近的 <strong>1名</strong> 敌国平民。</p> <p>平民照片如下图所示。</p> <p></p> <img src='stimuli/faces/NCM4.jpg', style='max-width: 30%;'> </img> <p><strong>你是否选择发射武器？</strong></p>","1",""
"","","","","","html-keyboard-response","12","31810","0.0-4.0-0.4","191","1","2022-10-11 03:24:27","d60b49b5908c80e163b920d72b52d584","183.217.173.10","Mozilla/5.0 (Windows NT 6.1; WOW64) AppleWebKit/537.36 (KHTML, like Gecko) Chrome/81.0.4044.138 Safari/537.36 NetType/WIFI MicroMessenger/7.0.20.1781(0x6700143B) WindowsWechat(0x6307062c)","WebKit","Chrome","81.0.4044.138","Windows","6.1","null","<div style=""font-size:60px;"">+</div>","null",""
"","","","","","html-button-response","13","35216","0.0-4.0-1.4","191","1","2022-10-11 03:24:27","d60b49b5908c80e163b920d72b52d584","183.217.173.10","Mozilla/5.0 (Windows NT 6.1; WOW64) AppleWebKit/537.36 (KHTML, like Gecko) Chrome/81.0.4044.138 Safari/537.36 NetType/WIFI MicroMessenger/7.0.20.1781(0x6700143B) WindowsWechat(0x6307062c)","WebKit","Chrome","81.0.4044.138","Windows","6.1","3402","<p>作为军队的指挥官，你可以选择发射导弹杀死 <strong>4名</strong> 敌国士兵，但会误杀附近的 <strong>1名</strong> 敌国平民。</p> <p>平民照片如下图所示。</p> <p></p> <img src='stimuli/faces/NCF6.jpg', style='max-width: 30%;'> </img> <p><strong>你是否选择发射武器？</strong></p>","1",""
"","","","","","html-keyboard-response","14","36219","0.0-4.0-0.5","191","1","2022-10-11 03:24:27","d60b49b5908c80e163b920d72b52d584","183.217.173.10","Mozilla/5.0 (Windows NT 6.1; WOW64) AppleWebKit/537.36 (KHTML, like Gecko) Chrome/81.0.4044.138 Safari/537.36 NetType/WIFI MicroMessenger/7.0.20.1781(0x6700143B) WindowsWechat(0x6307062c)","WebKit","Chrome","81.0.4044.138","Windows","6.1","null","<div style=""font-size:60px;"">+</div>","null",""
"","","","","","html-button-response","15","38200","0.0-4.0-1.5","191","1","2022-10-11 03:24:27","d60b49b5908c80e163b920d72b52d584","183.217.173.10","Mozilla/5.0 (Windows NT 6.1; WOW64) AppleWebKit/537.36 (KHTML, like Gecko) Chrome/81.0.4044.138 Safari/537.36 NetType/WIFI MicroMessenger/7.0.20.1781(0x6700143B) WindowsWechat(0x6307062c)","WebKit","Chrome","81.0.4044.138","Windows","6.1","1978","<p>作为军队的指挥官，你可以选择发射导弹杀死 <strong>7名</strong> 敌国士兵，但会炸毁附近的 <strong>1棵</strong> 敌国树木。</p> <p>树木的照片如下图所示。</p> <p></p> <img src='stimuli/trees/8.png', style='max-width: 30%;'> </img> <p><strong>你是否选择发射武器？</strong></p>","0",""
"","","","","","html-keyboard-response","16","39203","0.0-4.0-0.6","191","1","2022-10-11 03:24:27","d60b49b5908c80e163b920d72b52d584","183.217.173.10","Mozilla/5.0 (Windows NT 6.1; WOW64) AppleWebKit/537.36 (KHTML, like Gecko) Chrome/81.0.4044.138 Safari/537.36 NetType/WIFI MicroMessenger/7.0.20.1781(0x6700143B) WindowsWechat(0x6307062c)","WebKit","Chrome","81.0.4044.138","Windows","6.1","null","<div style=""font-size:60px;"">+</div>","null",""
"","","","","","html-button-response","17","40256","0.0-4.0-1.6","191","1","2022-10-11 03:24:27","d60b49b5908c80e163b920d72b52d584","183.217.173.10","Mozilla/5.0 (Windows NT 6.1; WOW64) AppleWebKit/537.36 (KHTML, like Gecko) Chrome/81.0.4044.138 Safari/537.36 NetType/WIFI MicroMessenger/7.0.20.1781(0x6700143B) WindowsWechat(0x6307062c)","WebKit","Chrome","81.0.4044.138","Windows","6.1","1049","<p>作为军队的指挥官，你可以选择发射导弹杀死 <strong>2名</strong> 敌国士兵，但会误杀附近的 <strong>1名</strong> 敌国平民。</p> <p>平民照片如下图所示。</p> <p></p> <img src='stimuli/faces/NCM8.jpg', style='max-width: 30%;'> </img> <p><strong>你是否选择发射武器？</strong></p>","1",""
"","","","","","html-keyboard-response","18","41260","0.0-4.0-0.7","191","1","2022-10-11 03:24:27","d60b49b5908c80e163b920d72b52d584","183.217.173.10","Mozilla/5.0 (Windows NT 6.1; WOW64) AppleWebKit/537.36 (KHTML, like Gecko) Chrome/81.0.4044.138 Safari/537.36 NetType/WIFI MicroMessenger/7.0.20.1781(0x6700143B) WindowsWechat(0x6307062c)","WebKit","Chrome","81.0.4044.138","Windows","6.1","null","<div style=""font-size:60px;"">+</div>","null",""
"","","","","","html-button-response","19","43712","0.0-4.0-1.7","191","1","2022-10-11 03:24:27","d60b49b5908c80e163b920d72b52d584","183.217.173.10","Mozilla/5.0 (Windows NT 6.1; WOW64) AppleWebKit/537.36 (KHTML, like Gecko) Chrome/81.0.4044.138 Safari/537.36 NetType/WIFI MicroMessenger/7.0.20.1781(0x6700143B) WindowsWechat(0x6307062c)","WebKit","Chrome","81.0.4044.138","Windows","6.1","2450","<p>作为军队的指挥官，你可以选择发射导弹杀死 <strong>4名</strong> 敌国士兵，但会误杀附近的 <strong>1名</strong> 敌国平民。</p> <p>平民照片如下图所示。</p> <p></p> <img src='stimuli/faces/NCF2.jpg', style='max-width: 30%;'> </img> <p><strong>你是否选择发射武器？</strong></p>","1",""
"","","","","","html-keyboard-response","20","44715","0.0-4.0-0.8","191","1","2022-10-11 03:24:27","d60b49b5908c80e163b920d72b52d584","183.217.173.10","Mozilla/5.0 (Windows NT 6.1; WOW64) AppleWebKit/537.36 (KHTML, like Gecko) Chrome/81.0.4044.138 Safari/537.36 NetType/WIFI MicroMessenger/7.0.20.1781(0x6700143B) WindowsWechat(0x6307062c)","WebKit","Chrome","81.0.4044.138","Windows","6.1","null","<div style=""font-size:60px;"">+</div>","null",""
"","","","","","html-button-response","21","155935","0.0-4.0-1.8","191","1","2022-10-11 03:24:27","d60b49b5908c80e163b920d72b52d584","183.217.173.10","Mozilla/5.0 (Windows NT 6.1; WOW64) AppleWebKit/537.36 (KHTML, like Gecko) Chrome/81.0.4044.138 Safari/537.36 NetType/WIFI MicroMessenger/7.0.20.1781(0x6700143B) WindowsWechat(0x6307062c)","WebKit","Chrome","81.0.4044.138","Windows","6.1","111216","<p>作为军队的指挥官，你可以选择发射导弹杀死 <strong>5名</strong> 敌国士兵，但会炸毁附近的 <strong>1棵</strong> 敌国树木。</p> <p>树木的照片如下图所示。</p> <p></p> <img src='stimuli/trees/16.png', style='max-width: 30%;'> </img> <p><strong>你是否选择发射武器？</strong></p>","0",""
"","","","","","html-keyboard-response","22","156937","0.0-4.0-0.9","191","1","2022-10-11 03:24:27","d60b49b5908c80e163b920d72b52d584","183.217.173.10","Mozilla/5.0 (Windows NT 6.1; WOW64) AppleWebKit/537.36 (KHTML, like Gecko) Chrome/81.0.4044.138 Safari/537.36 NetType/WIFI MicroMessenger/7.0.20.1781(0x6700143B) WindowsWechat(0x6307062c)","WebKit","Chrome","81.0.4044.138","Windows","6.1","null","<div style=""font-size:60px;"">+</div>","null",""
"","","","","","html-button-response","23","157967","0.0-4.0-1.9","191","1","2022-10-11 03:24:27","d60b49b5908c80e163b920d72b52d584","183.217.173.10","Mozilla/5.0 (Windows NT 6.1; WOW64) AppleWebKit/537.36 (KHTML, like Gecko) Chrome/81.0.4044.138 Safari/537.36 NetType/WIFI MicroMessenger/7.0.20.1781(0x6700143B) WindowsWechat(0x6307062c)","WebKit","Chrome","81.0.4044.138","Windows","6.1","1027","<p>作为军队的指挥官，你可以选择发射导弹杀死 <strong>9名</strong> 敌国士兵，但会炸毁附近的 <strong>1棵</strong> 敌国树木。</p> <p>树木的照片如下图所示。</p> <p></p> <img src='stimuli/trees/1.png', style='max-width: 30%;'> </img> <p><strong>你是否选择发射武器？</strong></p>","0",""
"","","","","","html-keyboard-response","24","158969","0.0-4.0-0.10","191","1","2022-10-11 03:24:27","d60b49b5908c80e163b920d72b52d584","183.217.173.10","Mozilla/5.0 (Windows NT 6.1; WOW64) AppleWebKit/537.36 (KHTML, like Gecko) Chrome/81.0.4044.138 Safari/537.36 NetType/WIFI MicroMessenger/7.0.20.1781(0x6700143B) WindowsWechat(0x6307062c)","WebKit","Chrome","81.0.4044.138","Windows","6.1","null","<div style=""font-size:60px;"">+</div>","null",""
"","","","","","html-button-response","25","160511","0.0-4.0-1.10","191","1","2022-10-11 03:24:27","d60b49b5908c80e163b920d72b52d584","183.217.173.10","Mozilla/5.0 (Windows NT 6.1; WOW64) AppleWebKit/537.36 (KHTML, like Gecko) Chrome/81.0.4044.138 Safari/537.36 NetType/WIFI MicroMessenger/7.0.20.1781(0x6700143B) WindowsWechat(0x6307062c)","WebKit","Chrome","81.0.4044.138","Windows","6.1","1539","<p>作为军队的指挥官，你可以选择发射导弹杀死 <strong>10名</strong> 敌国士兵，但会炸毁附近的 <strong>1棵</strong> 敌国树木。</p> <p>树木的照片如下图所示。</p> <p></p> <img src='stimuli/trees/13.png', style='max-width: 30%;'> </img> <p><strong>你是否选择发射武器？</strong></p>","0",""
"","","","","","html-keyboard-response","26","161513","0.0-4.0-0.11","191","1","2022-10-11 03:24:27","d60b49b5908c80e163b920d72b52d584","183.217.173.10","Mozilla/5.0 (Windows NT 6.1; WOW64) AppleWebKit/537.36 (KHTML, like Gecko) Chrome/81.0.4044.138 Safari/537.36 NetType/WIFI MicroMessenger/7.0.20.1781(0x6700143B) WindowsWechat(0x6307062c)","WebKit","Chrome","81.0.4044.138","Windows","6.1","null","<div style=""font-size:60px;"">+</div>","null",""
"","","","","","html-button-response","27","163015","0.0-4.0-1.11","191","1","2022-10-11 03:24:27","d60b49b5908c80e163b920d72b52d584","183.217.173.10","Mozilla/5.0 (Windows NT 6.1; WOW64) AppleWebKit/537.36 (KHTML, like Gecko) Chrome/81.0.4044.138 Safari/537.36 NetType/WIFI MicroMessenger/7.0.20.1781(0x6700143B) WindowsWechat(0x6307062c)","WebKit","Chrome","81.0.4044.138","Windows","6.1","1497","<p>作为军队的指挥官，你可以选择发射导弹杀死 <strong>7名</strong> 敌国士兵，但会误杀附近的 <strong>1名</strong> 敌国平民。</p> <p>平民照片如下图所示。</p> <p></p> <img src='stimuli/faces/NCF5.jpg', style='max-width: 30%;'> </img> <p><strong>你是否选择发射武器？</strong></p>","1",""
"","","","","","html-keyboard-response","28","164016","0.0-4.0-0.12","191","1","2022-10-11 03:24:27","d60b49b5908c80e163b920d72b52d584","183.217.173.10","Mozilla/5.0 (Windows NT 6.1; WOW64) AppleWebKit/537.36 (KHTML, like Gecko) Chrome/81.0.4044.138 Safari/537.36 NetType/WIFI MicroMessenger/7.0.20.1781(0x6700143B) WindowsWechat(0x6307062c)","WebKit","Chrome","81.0.4044.138","Windows","6.1","null","<div style=""font-size:60px;"">+</div>","null",""
"","","","","","html-button-response","29","176824","0.0-4.0-1.12","191","1","2022-10-11 03:24:27","d60b49b5908c80e163b920d72b52d584","183.217.173.10","Mozilla/5.0 (Windows NT 6.1; WOW64) AppleWebKit/537.36 (KHTML, like Gecko) Chrome/81.0.4044.138 Safari/537.36 NetType/WIFI MicroMessenger/7.0.20.1781(0x6700143B) WindowsWechat(0x6307062c)","WebKit","Chrome","81.0.4044.138","Windows","6.1","12803","<p>作为军队的指挥官，你可以选择发射导弹杀死 <strong>9名</strong> 敌国士兵，但会误杀附近的 <strong>1名</strong> 敌国平民。</p> <p>平民照片如下图所示。</p> <p></p> <img src='stimuli/faces/NCF8.jpg', style='max-width: 30%;'> </img> <p><strong>你是否选择发射武器？</strong></p>","1",""
"","","","","","html-keyboard-response","30","177825","0.0-4.0-0.13","191","1","2022-10-11 03:24:27","d60b49b5908c80e163b920d72b52d584","183.217.173.10","Mozilla/5.0 (Windows NT 6.1; WOW64) AppleWebKit/537.36 (KHTML, like Gecko) Chrome/81.0.4044.138 Safari/537.36 NetType/WIFI MicroMessenger/7.0.20.1781(0x6700143B) WindowsWechat(0x6307062c)","WebKit","Chrome","81.0.4044.138","Windows","6.1","null","<div style=""font-size:60px;"">+</div>","null",""
"","","","","","html-button-response","31","180079","0.0-4.0-1.13","191","1","2022-10-11 03:24:27","d60b49b5908c80e163b920d72b52d584","183.217.173.10","Mozilla/5.0 (Windows NT 6.1; WOW64) AppleWebKit/537.36 (KHTML, like Gecko) Chrome/81.0.4044.138 Safari/537.36 NetType/WIFI MicroMessenger/7.0.20.1781(0x6700143B) WindowsWechat(0x6307062c)","WebKit","Chrome","81.0.4044.138","Windows","6.1","2252","<p>作为军队的指挥官，你可以选择发射导弹杀死 <strong>8名</strong> 敌国士兵，但会误杀附近的 <strong>1名</strong> 敌国平民。</p> <p>平民照片如下图所示。</p> <p></p> <img src='stimuli/faces/NCM8.jpg', style='max-width: 30%;'> </img> <p><strong>你是否选择发射武器？</strong></p>","1",""
"","","","","","html-keyboard-response","32","181081","0.0-4.0-0.14","191","1","2022-10-11 03:24:27","d60b49b5908c80e163b920d72b52d584","183.217.173.10","Mozilla/5.0 (Windows NT 6.1; WOW64) AppleWebKit/537.36 (KHTML, like Gecko) Chrome/81.0.4044.138 Safari/537.36 NetType/WIFI MicroMessenger/7.0.20.1781(0x6700143B) WindowsWechat(0x6307062c)","WebKit","Chrome","81.0.4044.138","Windows","6.1","null","<div style=""font-size:60px;"">+</div>","null",""
"","","","","","html-button-response","33","181855","0.0-4.0-1.14","191","1","2022-10-11 03:24:27","d60b49b5908c80e163b920d72b52d584","183.217.173.10","Mozilla/5.0 (Windows NT 6.1; WOW64) AppleWebKit/537.36 (KHTML, like Gecko) Chrome/81.0.4044.138 Safari/537.36 NetType/WIFI MicroMessenger/7.0.20.1781(0x6700143B) WindowsWechat(0x6307062c)","WebKit","Chrome","81.0.4044.138","Windows","6.1","770","<p>作为军队的指挥官，你可以选择发射导弹杀死 <strong>2名</strong> 敌国士兵，但会误杀附近的 <strong>1名</strong> 敌国平民。</p> <p>平民照片如下图所示。</p> <p></p> <img src='stimuli/faces/NCF8.jpg', style='max-width: 30%;'> </img> <p><strong>你是否选择发射武器？</strong></p>","1",""
"","","","","","html-keyboard-response","34","182858","0.0-4.0-0.15","191","1","2022-10-11 03:24:27","d60b49b5908c80e163b920d72b52d584","183.217.173.10","Mozilla/5.0 (Windows NT 6.1; WOW64) AppleWebKit/537.36 (KHTML, like Gecko) Chrome/81.0.4044.138 Safari/537.36 NetType/WIFI MicroMessenger/7.0.20.1781(0x6700143B) WindowsWechat(0x6307062c)","WebKit","Chrome","81.0.4044.138","Windows","6.1","null","<div style=""font-size:60px;"">+</div>","null",""
"","","","","","html-button-response","35","184879","0.0-4.0-1.15","191","1","2022-10-11 03:24:27","d60b49b5908c80e163b920d72b52d584","183.217.173.10","Mozilla/5.0 (Windows NT 6.1; WOW64) AppleWebKit/537.36 (KHTML, like Gecko) Chrome/81.0.4044.138 Safari/537.36 NetType/WIFI MicroMessenger/7.0.20.1781(0x6700143B) WindowsWechat(0x6307062c)","WebKit","Chrome","81.0.4044.138","Windows","6.1","2017","<p>作为军队的指挥官，你可以选择发射导弹杀死 <strong>4名</strong> 敌国士兵，但会炸毁附近的 <strong>1棵</strong> 敌国树木。</p> <p>树木的照片如下图所示。</p> <p></p> <img src='stimuli/trees/10.png', style='max-width: 30%;'> </img> <p><strong>你是否选择发射武器？</strong></p>","0",""
"","","","","","html-keyboard-response","36","185882","0.0-4.0-0.16","191","1","2022-10-11 03:24:27","d60b49b5908c80e163b920d72b52d584","183.217.173.10","Mozilla/5.0 (Windows NT 6.1; WOW64) AppleWebKit/537.36 (KHTML, like Gecko) Chrome/81.0.4044.138 Safari/537.36 NetType/WIFI MicroMessenger/7.0.20.1781(0x6700143B) WindowsWechat(0x6307062c)","WebKit","Chrome","81.0.4044.138","Windows","6.1","null","<div style=""font-size:60px;"">+</div>","null",""
"","","","","","html-button-response","37","187047","0.0-4.0-1.16","191","1","2022-10-11 03:24:27","d60b49b5908c80e163b920d72b52d584","183.217.173.10","Mozilla/5.0 (Windows NT 6.1; WOW64) AppleWebKit/537.36 (KHTML, like Gecko) Chrome/81.0.4044.138 Safari/537.36 NetType/WIFI MicroMessenger/7.0.20.1781(0x6700143B) WindowsWechat(0x6307062c)","WebKit","Chrome","81.0.4044.138","Windows","6.1","1161","<p>作为军队的指挥官，你可以选择发射导弹杀死 <strong>9名</strong> 敌国士兵，但会炸毁附近的 <strong>1棵</strong> 敌国树木。</p> <p>树木的照片如下图所示。</p> <p></p> <img src='stimuli/trees/9.png', style='max-width: 30%;'> </img> <p><strong>你是否选择发射武器？</strong></p>","0",""
"","","","","","html-keyboard-response","38","188050","0.0-4.0-0.17","191","1","2022-10-11 03:24:27","d60b49b5908c80e163b920d72b52d584","183.217.173.10","Mozilla/5.0 (Windows NT 6.1; WOW64) AppleWebKit/537.36 (KHTML, like Gecko) Chrome/81.0.4044.138 Safari/537.36 NetType/WIFI MicroMessenger/7.0.20.1781(0x6700143B) WindowsWechat(0x6307062c)","WebKit","Chrome","81.0.4044.138","Windows","6.1","null","<div style=""font-size:60px;"">+</div>","null",""
"","","","","","html-button-response","39","188975","0.0-4.0-1.17","191","1","2022-10-11 03:24:27","d60b49b5908c80e163b920d72b52d584","183.217.173.10","Mozilla/5.0 (Windows NT 6.1; WOW64) AppleWebKit/537.36 (KHTML, like Gecko) Chrome/81.0.4044.138 Safari/537.36 NetType/WIFI MicroMessenger/7.0.20.1781(0x6700143B) WindowsWechat(0x6307062c)","WebKit","Chrome","81.0.4044.138","Windows","6.1","923","<p>作为军队的指挥官，你可以选择发射导弹杀死 <strong>3名</strong> 敌国士兵，但会炸毁附近的 <strong>1棵</strong> 敌国树木。</p> <p>树木的照片如下图所示。</p> <p></p> <img src='stimuli/trees/4.png', style='max-width: 30%;'> </img> <p><strong>你是否选择发射武器？</strong></p>","0",""
"","","","","","html-keyboard-response","40","189978","0.0-4.0-0.18","191","1","2022-10-11 03:24:27","d60b49b5908c80e163b920d72b52d584","183.217.173.10","Mozilla/5.0 (Windows NT 6.1; WOW64) AppleWebKit/537.36 (KHTML, like Gecko) Chrome/81.0.4044.138 Safari/537.36 NetType/WIFI MicroMessenger/7.0.20.1781(0x6700143B) WindowsWechat(0x6307062c)","WebKit","Chrome","81.0.4044.138","Windows","6.1","null","<div style=""font-size:60px;"">+</div>","null",""
"","","","","","html-button-response","41","191527","0.0-4.0-1.18","191","1","2022-10-11 03:24:27","d60b49b5908c80e163b920d72b52d584","183.217.173.10","Mozilla/5.0 (Windows NT 6.1; WOW64) AppleWebKit/537.36 (KHTML, like Gecko) Chrome/81.0.4044.138 Safari/537.36 NetType/WIFI MicroMessenger/7.0.20.1781(0x6700143B) WindowsWechat(0x6307062c)","WebKit","Chrome","81.0.4044.138","Windows","6.1","1545","<p>作为军队的指挥官，你可以选择发射导弹杀死 <strong>7名</strong> 敌国士兵，但会误杀附近的 <strong>1名</strong> 敌国平民。</p> <p>平民照片如下图所示。</p> <p></p> <img src='stimuli/faces/NCM7.jpg', style='max-width: 30%;'> </img> <p><strong>你是否选择发射武器？</strong></p>","1",""
"","","","","","html-keyboard-response","42","192530","0.0-4.0-0.19","191","1","2022-10-11 03:24:27","d60b49b5908c80e163b920d72b52d584","183.217.173.10","Mozilla/5.0 (Windows NT 6.1; WOW64) AppleWebKit/537.36 (KHTML, like Gecko) Chrome/81.0.4044.138 Safari/537.36 NetType/WIFI MicroMessenger/7.0.20.1781(0x6700143B) WindowsWechat(0x6307062c)","WebKit","Chrome","81.0.4044.138","Windows","6.1","null","<div style=""font-size:60px;"">+</div>","null",""
"","","","","","html-button-response","43","193504","0.0-4.0-1.19","191","1","2022-10-11 03:24:27","d60b49b5908c80e163b920d72b52d584","183.217.173.10","Mozilla/5.0 (Windows NT 6.1; WOW64) AppleWebKit/537.36 (KHTML, like Gecko) Chrome/81.0.4044.138 Safari/537.36 NetType/WIFI MicroMessenger/7.0.20.1781(0x6700143B) WindowsWechat(0x6307062c)","WebKit","Chrome","81.0.4044.138","Windows","6.1","971","<p>作为军队的指挥官，你可以选择发射导弹杀死 <strong>9名</strong> 敌国士兵，但会炸毁附近的 <strong>1棵</strong> 敌国树木。</p> <p>树木的照片如下图所示。</p> <p></p> <img src='stimuli/trees/11.png', style='max-width: 30%;'> </img> <p><strong>你是否选择发射武器？</strong></p>","0",""
"","","","","","html-keyboard-response","44","194507","0.0-4.0-0.20","191","1","2022-10-11 03:24:27","d60b49b5908c80e163b920d72b52d584","183.217.173.10","Mozilla/5.0 (Windows NT 6.1; WOW64) AppleWebKit/537.36 (KHTML, like Gecko) Chrome/81.0.4044.138 Safari/537.36 NetType/WIFI MicroMessenger/7.0.20.1781(0x6700143B) WindowsWechat(0x6307062c)","WebKit","Chrome","81.0.4044.138","Windows","6.1","null","<div style=""font-size:60px;"">+</div>","null",""
"","","","","","html-button-response","45","195239","0.0-4.0-1.20","191","1","2022-10-11 03:24:27","d60b49b5908c80e163b920d72b52d584","183.217.173.10","Mozilla/5.0 (Windows NT 6.1; WOW64) AppleWebKit/537.36 (KHTML, like Gecko) Chrome/81.0.4044.138 Safari/537.36 NetType/WIFI MicroMessenger/7.0.20.1781(0x6700143B) WindowsWechat(0x6307062c)","WebKit","Chrome","81.0.4044.138","Windows","6.1","728","<p>作为军队的指挥官，你可以选择发射导弹杀死 <strong>7名</strong> 敌国士兵，但会误杀附近的 <strong>1名</strong> 敌国平民。</p> <p>平民照片如下图所示。</p> <p></p> <img src='stimuli/faces/NCF7.jpg', style='max-width: 30%;'> </img> <p><strong>你是否选择发射武器？</strong></p>","1",""
"","","","","","html-keyboard-response","46","196242","0.0-4.0-0.21","191","1","2022-10-11 03:24:27","d60b49b5908c80e163b920d72b52d584","183.217.173.10","Mozilla/5.0 (Windows NT 6.1; WOW64) AppleWebKit/537.36 (KHTML, like Gecko) Chrome/81.0.4044.138 Safari/537.36 NetType/WIFI MicroMessenger/7.0.20.1781(0x6700143B) WindowsWechat(0x6307062c)","WebKit","Chrome","81.0.4044.138","Windows","6.1","null","<div style=""font-size:60px;"">+</div>","null",""
"","","","","","html-button-response","47","197192","0.0-4.0-1.21","191","1","2022-10-11 03:24:27","d60b49b5908c80e163b920d72b52d584","183.217.173.10","Mozilla/5.0 (Windows NT 6.1; WOW64) AppleWebKit/537.36 (KHTML, like Gecko) Chrome/81.0.4044.138 Safari/537.36 NetType/WIFI MicroMessenger/7.0.20.1781(0x6700143B) WindowsWechat(0x6307062c)","WebKit","Chrome","81.0.4044.138","Windows","6.1","945","<p>作为军队的指挥官，你可以选择发射导弹杀死 <strong>9名</strong> 敌国士兵，但会炸毁附近的 <strong>1棵</strong> 敌国树木。</p> <p>树木的照片如下图所示。</p> <p></p> <img src='stimuli/trees/4.png', style='max-width: 30%;'> </img> <p><strong>你是否选择发射武器？</strong></p>","0",""
"","","","","","html-keyboard-response","48","198195","0.0-4.0-0.22","191","1","2022-10-11 03:24:27","d60b49b5908c80e163b920d72b52d584","183.217.173.10","Mozilla/5.0 (Windows NT 6.1; WOW64) AppleWebKit/537.36 (KHTML, like Gecko) Chrome/81.0.4044.138 Safari/537.36 NetType/WIFI MicroMessenger/7.0.20.1781(0x6700143B) WindowsWechat(0x6307062c)","WebKit","Chrome","81.0.4044.138","Windows","6.1","null","<div style=""font-size:60px;"">+</div>","null",""
"","","","","","html-button-response","49","198647","0.0-4.0-1.22","191","1","2022-10-11 03:24:27","d60b49b5908c80e163b920d72b52d584","183.217.173.10","Mozilla/5.0 (Windows NT 6.1; WOW64) AppleWebKit/537.36 (KHTML, like Gecko) Chrome/81.0.4044.138 Safari/537.36 NetType/WIFI MicroMessenger/7.0.20.1781(0x6700143B) WindowsWechat(0x6307062c)","WebKit","Chrome","81.0.4044.138","Windows","6.1","447","<p>作为军队的指挥官，你可以选择发射导弹杀死 <strong>7名</strong> 敌国士兵，但会炸毁附近的 <strong>1棵</strong> 敌国树木。</p> <p>树木的照片如下图所示。</p> <p></p> <img src='stimuli/trees/6.png', style='max-width: 30%;'> </img> <p><strong>你是否选择发射武器？</strong></p>","0",""
"","","","","","html-keyboard-response","50","199651","0.0-4.0-0.23","191","1","2022-10-11 03:24:27","d60b49b5908c80e163b920d72b52d584","183.217.173.10","Mozilla/5.0 (Windows NT 6.1; WOW64) AppleWebKit/537.36 (KHTML, like Gecko) Chrome/81.0.4044.138 Safari/537.36 NetType/WIFI MicroMessenger/7.0.20.1781(0x6700143B) WindowsWechat(0x6307062c)","WebKit","Chrome","81.0.4044.138","Windows","6.1","null","<div style=""font-size:60px;"">+</div>","null",""
"","","","","","html-button-response","51","200743","0.0-4.0-1.23","191","1","2022-10-11 03:24:27","d60b49b5908c80e163b920d72b52d584","183.217.173.10","Mozilla/5.0 (Windows NT 6.1; WOW64) AppleWebKit/537.36 (KHTML, like Gecko) Chrome/81.0.4044.138 Safari/537.36 NetType/WIFI MicroMessenger/7.0.20.1781(0x6700143B) WindowsWechat(0x6307062c)","WebKit","Chrome","81.0.4044.138","Windows","6.1","1087","<p>作为军队的指挥官，你可以选择发射导弹杀死 <strong>8名</strong> 敌国士兵，但会误杀附近的 <strong>1名</strong> 敌国平民。</p> <p>平民照片如下图所示。</p> <p></p> <img src='stimuli/faces/NCF4.jpg', style='max-width: 30%;'> </img> <p><strong>你是否选择发射武器？</strong></p>","1",""
"","","","","","html-keyboard-response","52","201747","0.0-4.0-0.24","191","1","2022-10-11 03:24:27","d60b49b5908c80e163b920d72b52d584","183.217.173.10","Mozilla/5.0 (Windows NT 6.1; WOW64) AppleWebKit/537.36 (KHTML, like Gecko) Chrome/81.0.4044.138 Safari/537.36 NetType/WIFI MicroMessenger/7.0.20.1781(0x6700143B) WindowsWechat(0x6307062c)","WebKit","Chrome","81.0.4044.138","Windows","6.1","null","<div style=""font-size:60px;"">+</div>","null",""
"","","","","","html-button-response","53","202983","0.0-4.0-1.24","191","1","2022-10-11 03:24:27","d60b49b5908c80e163b920d72b52d584","183.217.173.10","Mozilla/5.0 (Windows NT 6.1; WOW64) AppleWebKit/537.36 (KHTML, like Gecko) Chrome/81.0.4044.138 Safari/537.36 NetType/WIFI MicroMessenger/7.0.20.1781(0x6700143B) WindowsWechat(0x6307062c)","WebKit","Chrome","81.0.4044.138","Windows","6.1","1232","<p>作为军队的指挥官，你可以选择发射导弹杀死 <strong>4名</strong> 敌国士兵，但会炸毁附近的 <strong>1棵</strong> 敌国树木。</p> <p>树木的照片如下图所示。</p> <p></p> <img src='stimuli/trees/15.png', style='max-width: 30%;'> </img> <p><strong>你是否选择发射武器？</strong></p>","0",""
"","","","","","html-keyboard-response","54","203986","0.0-4.0-0.25","191","1","2022-10-11 03:24:27","d60b49b5908c80e163b920d72b52d584","183.217.173.10","Mozilla/5.0 (Windows NT 6.1; WOW64) AppleWebKit/537.36 (KHTML, like Gecko) Chrome/81.0.4044.138 Safari/537.36 NetType/WIFI MicroMessenger/7.0.20.1781(0x6700143B) WindowsWechat(0x6307062c)","WebKit","Chrome","81.0.4044.138","Windows","6.1","null","<div style=""font-size:60px;"">+</div>","null",""
"","","","","","html-button-response","55","204839","0.0-4.0-1.25","191","1","2022-10-11 03:24:27","d60b49b5908c80e163b920d72b52d584","183.217.173.10","Mozilla/5.0 (Windows NT 6.1; WOW64) AppleWebKit/537.36 (KHTML, like Gecko) Chrome/81.0.4044.138 Safari/537.36 NetType/WIFI MicroMessenger/7.0.20.1781(0x6700143B) WindowsWechat(0x6307062c)","WebKit","Chrome","81.0.4044.138","Windows","6.1","847","<p>作为军队的指挥官，你可以选择发射导弹杀死 <strong>7名</strong> 敌国士兵，但会炸毁附近的 <strong>1棵</strong> 敌国树木。</p> <p>树木的照片如下图所示。</p> <p></p> <img src='stimuli/trees/2.png', style='max-width: 30%;'> </img> <p><strong>你是否选择发射武器？</strong></p>","0",""
"","","","","","html-keyboard-response","56","205842","0.0-4.0-0.26","191","1","2022-10-11 03:24:27","d60b49b5908c80e163b920d72b52d584","183.217.173.10","Mozilla/5.0 (Windows NT 6.1; WOW64) AppleWebKit/537.36 (KHTML, like Gecko) Chrome/81.0.4044.138 Safari/537.36 NetType/WIFI MicroMessenger/7.0.20.1781(0x6700143B) WindowsWechat(0x6307062c)","WebKit","Chrome","81.0.4044.138","Windows","6.1","null","<div style=""font-size:60px;"">+</div>","null",""
"","","","","","html-button-response","57","206736","0.0-4.0-1.26","191","1","2022-10-11 03:24:27","d60b49b5908c80e163b920d72b52d584","183.217.173.10","Mozilla/5.0 (Windows NT 6.1; WOW64) AppleWebKit/537.36 (KHTML, like Gecko) Chrome/81.0.4044.138 Safari/537.36 NetType/WIFI MicroMessenger/7.0.20.1781(0x6700143B) WindowsWechat(0x6307062c)","WebKit","Chrome","81.0.4044.138","Windows","6.1","892","<p>作为军队的指挥官，你可以选择发射导弹杀死 <strong>9名</strong> 敌国士兵，但会误杀附近的 <strong>1名</strong> 敌国平民。</p> <p>平民照片如下图所示。</p> <p></p> <img src='stimuli/faces/NCM2.jpg', style='max-width: 30%;'> </img> <p><strong>你是否选择发射武器？</strong></p>","1",""
"","","","","","html-keyboard-response","58","207738","0.0-4.0-0.27","191","1","2022-10-11 03:24:27","d60b49b5908c80e163b920d72b52d584","183.217.173.10","Mozilla/5.0 (Windows NT 6.1; WOW64) AppleWebKit/537.36 (KHTML, like Gecko) Chrome/81.0.4044.138 Safari/537.36 NetType/WIFI MicroMessenger/7.0.20.1781(0x6700143B) WindowsWechat(0x6307062c)","WebKit","Chrome","81.0.4044.138","Windows","6.1","null","<div style=""font-size:60px;"">+</div>","null",""
"","","","","","html-button-response","59","208735","0.0-4.0-1.27","191","1","2022-10-11 03:24:27","d60b49b5908c80e163b920d72b52d584","183.217.173.10","Mozilla/5.0 (Windows NT 6.1; WOW64) AppleWebKit/537.36 (KHTML, like Gecko) Chrome/81.0.4044.138 Safari/537.36 NetType/WIFI MicroMessenger/7.0.20.1781(0x6700143B) WindowsWechat(0x6307062c)","WebKit","Chrome","81.0.4044.138","Windows","6.1","995","<p>作为军队的指挥官，你可以选择发射导弹杀死 <strong>3名</strong> 敌国士兵，但会炸毁附近的 <strong>1棵</strong> 敌国树木。</p> <p>树木的照片如下图所示。</p> <p></p> <img src='stimuli/trees/1.png', style='max-width: 30%;'> </img> <p><strong>你是否选择发射武器？</strong></p>","0",""
"","","","","","html-keyboard-response","60","209739","0.0-4.0-0.28","191","1","2022-10-11 03:24:27","d60b49b5908c80e163b920d72b52d584","183.217.173.10","Mozilla/5.0 (Windows NT 6.1; WOW64) AppleWebKit/537.36 (KHTML, like Gecko) Chrome/81.0.4044.138 Safari/537.36 NetType/WIFI MicroMessenger/7.0.20.1781(0x6700143B) WindowsWechat(0x6307062c)","WebKit","Chrome","81.0.4044.138","Windows","6.1","null","<div style=""font-size:60px;"">+</div>","null",""
"","","","","","html-button-response","61","213440","0.0-4.0-1.28","191","1","2022-10-11 03:24:27","d60b49b5908c80e163b920d72b52d584","183.217.173.10","Mozilla/5.0 (Windows NT 6.1; WOW64) AppleWebKit/537.36 (KHTML, like Gecko) Chrome/81.0.4044.138 Safari/537.36 NetType/WIFI MicroMessenger/7.0.20.1781(0x6700143B) WindowsWechat(0x6307062c)","WebKit","Chrome","81.0.4044.138","Windows","6.1","3695","<p>作为军队的指挥官，你可以选择发射导弹杀死 <strong>1名</strong> 敌国士兵，但会误杀附近的 <strong>1名</strong> 敌国平民。</p> <p>平民照片如下图所示。</p> <p></p> <img src='stimuli/faces/NCM2.jpg', style='max-width: 30%;'> </img> <p><strong>你是否选择发射武器？</strong></p>","1",""
"","","","","","html-keyboard-response","62","214444","0.0-4.0-0.29","191","1","2022-10-11 03:24:27","d60b49b5908c80e163b920d72b52d584","183.217.173.10","Mozilla/5.0 (Windows NT 6.1; WOW64) AppleWebKit/537.36 (KHTML, like Gecko) Chrome/81.0.4044.138 Safari/537.36 NetType/WIFI MicroMessenger/7.0.20.1781(0x6700143B) WindowsWechat(0x6307062c)","WebKit","Chrome","81.0.4044.138","Windows","6.1","null","<div style=""font-size:60px;"">+</div>","null",""
"","","","","","html-button-response","63","215375","0.0-4.0-1.29","191","1","2022-10-11 03:24:27","d60b49b5908c80e163b920d72b52d584","183.217.173.10","Mozilla/5.0 (Windows NT 6.1; WOW64) AppleWebKit/537.36 (KHTML, like Gecko) Chrome/81.0.4044.138 Safari/537.36 NetType/WIFI MicroMessenger/7.0.20.1781(0x6700143B) WindowsWechat(0x6307062c)","WebKit","Chrome","81.0.4044.138","Windows","6.1","927","<p>作为军队的指挥官，你可以选择发射导弹杀死 <strong>10名</strong> 敌国士兵，但会炸毁附近的 <strong>1棵</strong> 敌国树木。</p> <p>树木的照片如下图所示。</p> <p></p> <img src='stimuli/trees/3.png', style='max-width: 30%;'> </img> <p><strong>你是否选择发射武器？</strong></p>","0",""
"","","","","","html-keyboard-response","64","216379","0.0-4.0-0.30","191","1","2022-10-11 03:24:27","d60b49b5908c80e163b920d72b52d584","183.217.173.10","Mozilla/5.0 (Windows NT 6.1; WOW64) AppleWebKit/537.36 (KHTML, like Gecko) Chrome/81.0.4044.138 Safari/537.36 NetType/WIFI MicroMessenger/7.0.20.1781(0x6700143B) WindowsWechat(0x6307062c)","WebKit","Chrome","81.0.4044.138","Windows","6.1","null","<div style=""font-size:60px;"">+</div>","null",""
"","","","","","html-button-response","65","217376","0.0-4.0-1.30","191","1","2022-10-11 03:24:27","d60b49b5908c80e163b920d72b52d584","183.217.173.10","Mozilla/5.0 (Windows NT 6.1; WOW64) AppleWebKit/537.36 (KHTML, like Gecko) Chrome/81.0.4044.138 Safari/537.36 NetType/WIFI MicroMessenger/7.0.20.1781(0x6700143B) WindowsWechat(0x6307062c)","WebKit","Chrome","81.0.4044.138","Windows","6.1","994","<p>作为军队的指挥官，你可以选择发射导弹杀死 <strong>5名</strong> 敌国士兵，但会炸毁附近的 <strong>1棵</strong> 敌国树木。</p> <p>树木的照片如下图所示。</p> <p></p> <img src='stimuli/trees/7.png', style='max-width: 30%;'> </img> <p><strong>你是否选择发射武器？</strong></p>","0",""
"","","","","","html-keyboard-response","66","218379","0.0-4.0-0.31","191","1","2022-10-11 03:24:27","d60b49b5908c80e163b920d72b52d584","183.217.173.10","Mozilla/5.0 (Windows NT 6.1; WOW64) AppleWebKit/537.36 (KHTML, like Gecko) Chrome/81.0.4044.138 Safari/537.36 NetType/WIFI MicroMessenger/7.0.20.1781(0x6700143B) WindowsWechat(0x6307062c)","WebKit","Chrome","81.0.4044.138","Windows","6.1","null","<div style=""font-size:60px;"">+</div>","null",""
"","","","","","html-button-response","67","218936","0.0-4.0-1.31","191","1","2022-10-11 03:24:27","d60b49b5908c80e163b920d72b52d584","183.217.173.10","Mozilla/5.0 (Windows NT 6.1; WOW64) AppleWebKit/537.36 (KHTML, like Gecko) Chrome/81.0.4044.138 Safari/537.36 NetType/WIFI MicroMessenger/7.0.20.1781(0x6700143B) WindowsWechat(0x6307062c)","WebKit","Chrome","81.0.4044.138","Windows","6.1","552","<p>作为军队的指挥官，你可以选择发射导弹杀死 <strong>4名</strong> 敌国士兵，但会炸毁附近的 <strong>1棵</strong> 敌国树木。</p> <p>树木的照片如下图所示。</p> <p></p> <img src='stimuli/trees/12.png', style='max-width: 30%;'> </img> <p><strong>你是否选择发射武器？</strong></p>","0",""
"","","","","","html-keyboard-response","68","219940","0.0-4.0-0.32","191","1","2022-10-11 03:24:27","d60b49b5908c80e163b920d72b52d584","183.217.173.10","Mozilla/5.0 (Windows NT 6.1; WOW64) AppleWebKit/537.36 (KHTML, like Gecko) Chrome/81.0.4044.138 Safari/537.36 NetType/WIFI MicroMessenger/7.0.20.1781(0x6700143B) WindowsWechat(0x6307062c)","WebKit","Chrome","81.0.4044.138","Windows","6.1","null","<div style=""font-size:60px;"">+</div>","null",""
"","","","","","html-button-response","69","220712","0.0-4.0-1.32","191","1","2022-10-11 03:24:27","d60b49b5908c80e163b920d72b52d584","183.217.173.10","Mozilla/5.0 (Windows NT 6.1; WOW64) AppleWebKit/537.36 (KHTML, like Gecko) Chrome/81.0.4044.138 Safari/537.36 NetType/WIFI MicroMessenger/7.0.20.1781(0x6700143B) WindowsWechat(0x6307062c)","WebKit","Chrome","81.0.4044.138","Windows","6.1","767","<p>作为军队的指挥官，你可以选择发射导弹杀死 <strong>1名</strong> 敌国士兵，但会误杀附近的 <strong>1名</strong> 敌国平民。</p> <p>平民照片如下图所示。</p> <p></p> <img src='stimuli/faces/NCM3.jpg', style='max-width: 30%;'> </img> <p><strong>你是否选择发射武器？</strong></p>","1",""
"","","","","","html-keyboard-response","70","221716","0.0-4.0-0.33","191","1","2022-10-11 03:24:27","d60b49b5908c80e163b920d72b52d584","183.217.173.10","Mozilla/5.0 (Windows NT 6.1; WOW64) AppleWebKit/537.36 (KHTML, like Gecko) Chrome/81.0.4044.138 Safari/537.36 NetType/WIFI MicroMessenger/7.0.20.1781(0x6700143B) WindowsWechat(0x6307062c)","WebKit","Chrome","81.0.4044.138","Windows","6.1","null","<div style=""font-size:60px;"">+</div>","null",""
"","","","","","html-button-response","71","222632","0.0-4.0-1.33","191","1","2022-10-11 03:24:27","d60b49b5908c80e163b920d72b52d584","183.217.173.10","Mozilla/5.0 (Windows NT 6.1; WOW64) AppleWebKit/537.36 (KHTML, like Gecko) Chrome/81.0.4044.138 Safari/537.36 NetType/WIFI MicroMessenger/7.0.20.1781(0x6700143B) WindowsWechat(0x6307062c)","WebKit","Chrome","81.0.4044.138","Windows","6.1","911","<p>作为军队的指挥官，你可以选择发射导弹杀死 <strong>1名</strong> 敌国士兵，但会炸毁附近的 <strong>1棵</strong> 敌国树木。</p> <p>树木的照片如下图所示。</p> <p></p> <img src='stimuli/trees/9.png', style='max-width: 30%;'> </img> <p><strong>你是否选择发射武器？</strong></p>","0",""
"","","","","","html-keyboard-response","72","223636","0.0-4.0-0.34","191","1","2022-10-11 03:24:27","d60b49b5908c80e163b920d72b52d584","183.217.173.10","Mozilla/5.0 (Windows NT 6.1; WOW64) AppleWebKit/537.36 (KHTML, like Gecko) Chrome/81.0.4044.138 Safari/537.36 NetType/WIFI MicroMessenger/7.0.20.1781(0x6700143B) WindowsWechat(0x6307062c)","WebKit","Chrome","81.0.4044.138","Windows","6.1","null","<div style=""font-size:60px;"">+</div>","null",""
"","","","","","html-button-response","73","224696","0.0-4.0-1.34","191","1","2022-10-11 03:24:27","d60b49b5908c80e163b920d72b52d584","183.217.173.10","Mozilla/5.0 (Windows NT 6.1; WOW64) AppleWebKit/537.36 (KHTML, like Gecko) Chrome/81.0.4044.138 Safari/537.36 NetType/WIFI MicroMessenger/7.0.20.1781(0x6700143B) WindowsWechat(0x6307062c)","WebKit","Chrome","81.0.4044.138","Windows","6.1","1055","<p>作为军队的指挥官，你可以选择发射导弹杀死 <strong>5名</strong> 敌国士兵，但会误杀附近的 <strong>1名</strong> 敌国平民。</p> <p>平民照片如下图所示。</p> <p></p> <img src='stimuli/faces/NCF4.jpg', style='max-width: 30%;'> </img> <p><strong>你是否选择发射武器？</strong></p>","1",""
"","","","","","html-keyboard-response","74","225699","0.0-4.0-0.35","191","1","2022-10-11 03:24:27","d60b49b5908c80e163b920d72b52d584","183.217.173.10","Mozilla/5.0 (Windows NT 6.1; WOW64) AppleWebKit/537.36 (KHTML, like Gecko) Chrome/81.0.4044.138 Safari/537.36 NetType/WIFI MicroMessenger/7.0.20.1781(0x6700143B) WindowsWechat(0x6307062c)","WebKit","Chrome","81.0.4044.138","Windows","6.1","null","<div style=""font-size:60px;"">+</div>","null",""
"","","","","","html-button-response","75","226568","0.0-4.0-1.35","191","1","2022-10-11 03:24:27","d60b49b5908c80e163b920d72b52d584","183.217.173.10","Mozilla/5.0 (Windows NT 6.1; WOW64) AppleWebKit/537.36 (KHTML, like Gecko) Chrome/81.0.4044.138 Safari/537.36 NetType/WIFI MicroMessenger/7.0.20.1781(0x6700143B) WindowsWechat(0x6307062c)","WebKit","Chrome","81.0.4044.138","Windows","6.1","864","<p>作为军队的指挥官，你可以选择发射导弹杀死 <strong>6名</strong> 敌国士兵，但会误杀附近的 <strong>1名</strong> 敌国平民。</p> <p>平民照片如下图所示。</p> <p></p> <img src='stimuli/faces/NCF3.jpg', style='max-width: 30%;'> </img> <p><strong>你是否选择发射武器？</strong></p>","1",""
"","","","","","html-keyboard-response","76","227571","0.0-4.0-0.36","191","1","2022-10-11 03:24:27","d60b49b5908c80e163b920d72b52d584","183.217.173.10","Mozilla/5.0 (Windows NT 6.1; WOW64) AppleWebKit/537.36 (KHTML, like Gecko) Chrome/81.0.4044.138 Safari/537.36 NetType/WIFI MicroMessenger/7.0.20.1781(0x6700143B) WindowsWechat(0x6307062c)","WebKit","Chrome","81.0.4044.138","Windows","6.1","null","<div style=""font-size:60px;"">+</div>","null",""
"","","","","","html-button-response","77","228344","0.0-4.0-1.36","191","1","2022-10-11 03:24:27","d60b49b5908c80e163b920d72b52d584","183.217.173.10","Mozilla/5.0 (Windows NT 6.1; WOW64) AppleWebKit/537.36 (KHTML, like Gecko) Chrome/81.0.4044.138 Safari/537.36 NetType/WIFI MicroMessenger/7.0.20.1781(0x6700143B) WindowsWechat(0x6307062c)","WebKit","Chrome","81.0.4044.138","Windows","6.1","767","<p>作为军队的指挥官，你可以选择发射导弹杀死 <strong>2名</strong> 敌国士兵，但会误杀附近的 <strong>1名</strong> 敌国平民。</p> <p>平民照片如下图所示。</p> <p></p> <img src='stimuli/faces/NCM1.jpg', style='max-width: 30%;'> </img> <p><strong>你是否选择发射武器？</strong></p>","1",""
"","","","","","html-keyboard-response","78","229348","0.0-4.0-0.37","191","1","2022-10-11 03:24:27","d60b49b5908c80e163b920d72b52d584","183.217.173.10","Mozilla/5.0 (Windows NT 6.1; WOW64) AppleWebKit/537.36 (KHTML, like Gecko) Chrome/81.0.4044.138 Safari/537.36 NetType/WIFI MicroMessenger/7.0.20.1781(0x6700143B) WindowsWechat(0x6307062c)","WebKit","Chrome","81.0.4044.138","Windows","6.1","null","<div style=""font-size:60px;"">+</div>","null",""
"","","","","","html-button-response","79","229992","0.0-4.0-1.37","191","1","2022-10-11 03:24:27","d60b49b5908c80e163b920d72b52d584","183.217.173.10","Mozilla/5.0 (Windows NT 6.1; WOW64) AppleWebKit/537.36 (KHTML, like Gecko) Chrome/81.0.4044.138 Safari/537.36 NetType/WIFI MicroMessenger/7.0.20.1781(0x6700143B) WindowsWechat(0x6307062c)","WebKit","Chrome","81.0.4044.138","Windows","6.1","643","<p>作为军队的指挥官，你可以选择发射导弹杀死 <strong>8名</strong> 敌国士兵，但会误杀附近的 <strong>1名</strong> 敌国平民。</p> <p>平民照片如下图所示。</p> <p></p> <img src='stimuli/faces/NCF2.jpg', style='max-width: 30%;'> </img> <p><strong>你是否选择发射武器？</strong></p>","1",""
"","","","","","html-keyboard-response","80","230997","0.0-4.0-0.38","191","1","2022-10-11 03:24:27","d60b49b5908c80e163b920d72b52d584","183.217.173.10","Mozilla/5.0 (Windows NT 6.1; WOW64) AppleWebKit/537.36 (KHTML, like Gecko) Chrome/81.0.4044.138 Safari/537.36 NetType/WIFI MicroMessenger/7.0.20.1781(0x6700143B) WindowsWechat(0x6307062c)","WebKit","Chrome","81.0.4044.138","Windows","6.1","null","<div style=""font-size:60px;"">+</div>","null",""
"","","","","","html-button-response","81","232224","0.0-4.0-1.38","191","1","2022-10-11 03:24:27","d60b49b5908c80e163b920d72b52d584","183.217.173.10","Mozilla/5.0 (Windows NT 6.1; WOW64) AppleWebKit/537.36 (KHTML, like Gecko) Chrome/81.0.4044.138 Safari/537.36 NetType/WIFI MicroMessenger/7.0.20.1781(0x6700143B) WindowsWechat(0x6307062c)","WebKit","Chrome","81.0.4044.138","Windows","6.1","1221","<p>作为军队的指挥官，你可以选择发射导弹杀死 <strong>3名</strong> 敌国士兵，但会炸毁附近的 <strong>1棵</strong> 敌国树木。</p> <p>树木的照片如下图所示。</p> <p></p> <img src='stimuli/trees/6.png', style='max-width: 30%;'> </img> <p><strong>你是否选择发射武器？</strong></p>","0",""
"","","","","","html-keyboard-response","82","233228","0.0-4.0-0.39","191","1","2022-10-11 03:24:27","d60b49b5908c80e163b920d72b52d584","183.217.173.10","Mozilla/5.0 (Windows NT 6.1; WOW64) AppleWebKit/537.36 (KHTML, like Gecko) Chrome/81.0.4044.138 Safari/537.36 NetType/WIFI MicroMessenger/7.0.20.1781(0x6700143B) WindowsWechat(0x6307062c)","WebKit","Chrome","81.0.4044.138","Windows","6.1","null","<div style=""font-size:60px;"">+</div>","null",""
"","","","","","html-button-response","83","234160","0.0-4.0-1.39","191","1","2022-10-11 03:24:27","d60b49b5908c80e163b920d72b52d584","183.217.173.10","Mozilla/5.0 (Windows NT 6.1; WOW64) AppleWebKit/537.36 (KHTML, like Gecko) Chrome/81.0.4044.138 Safari/537.36 NetType/WIFI MicroMessenger/7.0.20.1781(0x6700143B) WindowsWechat(0x6307062c)","WebKit","Chrome","81.0.4044.138","Windows","6.1","927","<p>作为军队的指挥官，你可以选择发射导弹杀死 <strong>3名</strong> 敌国士兵，但会误杀附近的 <strong>1名</strong> 敌国平民。</p> <p>平民照片如下图所示。</p> <p></p> <img src='stimuli/faces/NCM5.jpg', style='max-width: 30%;'> </img> <p><strong>你是否选择发射武器？</strong></p>","1",""
"","","","","","html-keyboard-response","84","235164","0.0-4.0-0.40","191","1","2022-10-11 03:24:27","d60b49b5908c80e163b920d72b52d584","183.217.173.10","Mozilla/5.0 (Windows NT 6.1; WOW64) AppleWebKit/537.36 (KHTML, like Gecko) Chrome/81.0.4044.138 Safari/537.36 NetType/WIFI MicroMessenger/7.0.20.1781(0x6700143B) WindowsWechat(0x6307062c)","WebKit","Chrome","81.0.4044.138","Windows","6.1","null","<div style=""font-size:60px;"">+</div>","null",""
"","","","","","html-button-response","85","236008","0.0-4.0-1.40","191","1","2022-10-11 03:24:27","d60b49b5908c80e163b920d72b52d584","183.217.173.10","Mozilla/5.0 (Windows NT 6.1; WOW64) AppleWebKit/537.36 (KHTML, like Gecko) Chrome/81.0.4044.138 Safari/537.36 NetType/WIFI MicroMessenger/7.0.20.1781(0x6700143B) WindowsWechat(0x6307062c)","WebKit","Chrome","81.0.4044.138","Windows","6.1","841","<p>作为军队的指挥官，你可以选择发射导弹杀死 <strong>4名</strong> 敌国士兵，但会炸毁附近的 <strong>1棵</strong> 敌国树木。</p> <p>树木的照片如下图所示。</p> <p></p> <img src='stimuli/trees/11.png', style='max-width: 30%;'> </img> <p><strong>你是否选择发射武器？</strong></p>","0",""
"","","","","","html-keyboard-response","86","237012","0.0-4.0-0.41","191","1","2022-10-11 03:24:27","d60b49b5908c80e163b920d72b52d584","183.217.173.10","Mozilla/5.0 (Windows NT 6.1; WOW64) AppleWebKit/537.36 (KHTML, like Gecko) Chrome/81.0.4044.138 Safari/537.36 NetType/WIFI MicroMessenger/7.0.20.1781(0x6700143B) WindowsWechat(0x6307062c)","WebKit","Chrome","81.0.4044.138","Windows","6.1","null","<div style=""font-size:60px;"">+</div>","null",""
"","","","","","html-button-response","87","237888","0.0-4.0-1.41","191","1","2022-10-11 03:24:27","d60b49b5908c80e163b920d72b52d584","183.217.173.10","Mozilla/5.0 (Windows NT 6.1; WOW64) AppleWebKit/537.36 (KHTML, like Gecko) Chrome/81.0.4044.138 Safari/537.36 NetType/WIFI MicroMessenger/7.0.20.1781(0x6700143B) WindowsWechat(0x6307062c)","WebKit","Chrome","81.0.4044.138","Windows","6.1","870","<p>作为军队的指挥官，你可以选择发射导弹杀死 <strong>7名</strong> 敌国士兵，但会误杀附近的 <strong>1名</strong> 敌国平民。</p> <p>平民照片如下图所示。</p> <p></p> <img src='stimuli/faces/NCM1.jpg', style='max-width: 30%;'> </img> <p><strong>你是否选择发射武器？</strong></p>","1",""
"","","","","","html-keyboard-response","88","238895","0.0-4.0-0.42","191","1","2022-10-11 03:24:27","d60b49b5908c80e163b920d72b52d584","183.217.173.10","Mozilla/5.0 (Windows NT 6.1; WOW64) AppleWebKit/537.36 (KHTML, like Gecko) Chrome/81.0.4044.138 Safari/537.36 NetType/WIFI MicroMessenger/7.0.20.1781(0x6700143B) WindowsWechat(0x6307062c)","WebKit","Chrome","81.0.4044.138","Windows","6.1","null","<div style=""font-size:60px;"">+</div>","null",""
"","","","","","html-button-response","89","240551","0.0-4.0-1.42","191","1","2022-10-11 03:24:27","d60b49b5908c80e163b920d72b52d584","183.217.173.10","Mozilla/5.0 (Windows NT 6.1; WOW64) AppleWebKit/537.36 (KHTML, like Gecko) Chrome/81.0.4044.138 Safari/537.36 NetType/WIFI MicroMessenger/7.0.20.1781(0x6700143B) WindowsWechat(0x6307062c)","WebKit","Chrome","81.0.4044.138","Windows","6.1","1651","<p>作为军队的指挥官，你可以选择发射导弹杀死 <strong>1名</strong> 敌国士兵，但会炸毁附近的 <strong>1棵</strong> 敌国树木。</p> <p>树木的照片如下图所示。</p> <p></p> <img src='stimuli/trees/8.png', style='max-width: 30%;'> </img> <p><strong>你是否选择发射武器？</strong></p>","0",""
"","","","","","html-keyboard-response","90","241554","0.0-4.0-0.43","191","1","2022-10-11 03:24:27","d60b49b5908c80e163b920d72b52d584","183.217.173.10","Mozilla/5.0 (Windows NT 6.1; WOW64) AppleWebKit/537.36 (KHTML, like Gecko) Chrome/81.0.4044.138 Safari/537.36 NetType/WIFI MicroMessenger/7.0.20.1781(0x6700143B) WindowsWechat(0x6307062c)","WebKit","Chrome","81.0.4044.138","Windows","6.1","null","<div style=""font-size:60px;"">+</div>","null",""
"","","","","","html-button-response","91","242376","0.0-4.0-1.43","191","1","2022-10-11 03:24:27","d60b49b5908c80e163b920d72b52d584","183.217.173.10","Mozilla/5.0 (Windows NT 6.1; WOW64) AppleWebKit/537.36 (KHTML, like Gecko) Chrome/81.0.4044.138 Safari/537.36 NetType/WIFI MicroMessenger/7.0.20.1781(0x6700143B) WindowsWechat(0x6307062c)","WebKit","Chrome","81.0.4044.138","Windows","6.1","816","<p>作为军队的指挥官，你可以选择发射导弹杀死 <strong>10名</strong> 敌国士兵，但会误杀附近的 <strong>1名</strong> 敌国平民。</p> <p>平民照片如下图所示。</p> <p></p> <img src='stimuli/faces/NCM6.jpg', style='max-width: 30%;'> </img> <p><strong>你是否选择发射武器？</strong></p>","1",""
"","","","","","html-keyboard-response","92","243378","0.0-4.0-0.44","191","1","2022-10-11 03:24:27","d60b49b5908c80e163b920d72b52d584","183.217.173.10","Mozilla/5.0 (Windows NT 6.1; WOW64) AppleWebKit/537.36 (KHTML, like Gecko) Chrome/81.0.4044.138 Safari/537.36 NetType/WIFI MicroMessenger/7.0.20.1781(0x6700143B) WindowsWechat(0x6307062c)","WebKit","Chrome","81.0.4044.138","Windows","6.1","null","<div style=""font-size:60px;"">+</div>","null",""
"","","","","","html-button-response","93","244415","0.0-4.0-1.44","191","1","2022-10-11 03:24:27","d60b49b5908c80e163b920d72b52d584","183.217.173.10","Mozilla/5.0 (Windows NT 6.1; WOW64) AppleWebKit/537.36 (KHTML, like Gecko) Chrome/81.0.4044.138 Safari/537.36 NetType/WIFI MicroMessenger/7.0.20.1781(0x6700143B) WindowsWechat(0x6307062c)","WebKit","Chrome","81.0.4044.138","Windows","6.1","1035","<p>作为军队的指挥官，你可以选择发射导弹杀死 <strong>9名</strong> 敌国士兵，但会炸毁附近的 <strong>1棵</strong> 敌国树木。</p> <p>树木的照片如下图所示。</p> <p></p> <img src='stimuli/trees/10.png', style='max-width: 30%;'> </img> <p><strong>你是否选择发射武器？</strong></p>","0",""
"","","","","","html-keyboard-response","94","245418","0.0-4.0-0.45","191","1","2022-10-11 03:24:27","d60b49b5908c80e163b920d72b52d584","183.217.173.10","Mozilla/5.0 (Windows NT 6.1; WOW64) AppleWebKit/537.36 (KHTML, like Gecko) Chrome/81.0.4044.138 Safari/537.36 NetType/WIFI MicroMessenger/7.0.20.1781(0x6700143B) WindowsWechat(0x6307062c)","WebKit","Chrome","81.0.4044.138","Windows","6.1","null","<div style=""font-size:60px;"">+</div>","null",""
"","","","","","html-button-response","95","246064","0.0-4.0-1.45","191","1","2022-10-11 03:24:27","d60b49b5908c80e163b920d72b52d584","183.217.173.10","Mozilla/5.0 (Windows NT 6.1; WOW64) AppleWebKit/537.36 (KHTML, like Gecko) Chrome/81.0.4044.138 Safari/537.36 NetType/WIFI MicroMessenger/7.0.20.1781(0x6700143B) WindowsWechat(0x6307062c)","WebKit","Chrome","81.0.4044.138","Windows","6.1","643","<p>作为军队的指挥官，你可以选择发射导弹杀死 <strong>2名</strong> 敌国士兵，但会炸毁附近的 <strong>1棵</strong> 敌国树木。</p> <p>树木的照片如下图所示。</p> <p></p> <img src='stimuli/trees/5.png', style='max-width: 30%;'> </img> <p><strong>你是否选择发射武器？</strong></p>","0",""
"","","","","","html-keyboard-response","96","247067","0.0-4.0-0.46","191","1","2022-10-11 03:24:27","d60b49b5908c80e163b920d72b52d584","183.217.173.10","Mozilla/5.0 (Windows NT 6.1; WOW64) AppleWebKit/537.36 (KHTML, like Gecko) Chrome/81.0.4044.138 Safari/537.36 NetType/WIFI MicroMessenger/7.0.20.1781(0x6700143B) WindowsWechat(0x6307062c)","WebKit","Chrome","81.0.4044.138","Windows","6.1","null","<div style=""font-size:60px;"">+</div>","null",""
"","","","","","html-button-response","97","247984","0.0-4.0-1.46","191","1","2022-10-11 03:24:27","d60b49b5908c80e163b920d72b52d584","183.217.173.10","Mozilla/5.0 (Windows NT 6.1; WOW64) AppleWebKit/537.36 (KHTML, like Gecko) Chrome/81.0.4044.138 Safari/537.36 NetType/WIFI MicroMessenger/7.0.20.1781(0x6700143B) WindowsWechat(0x6307062c)","WebKit","Chrome","81.0.4044.138","Windows","6.1","911","<p>作为军队的指挥官，你可以选择发射导弹杀死 <strong>6名</strong> 敌国士兵，但会误杀附近的 <strong>1名</strong> 敌国平民。</p> <p>平民照片如下图所示。</p> <p></p> <img src='stimuli/faces/NCF6.jpg', style='max-width: 30%;'> </img> <p><strong>你是否选择发射武器？</strong></p>","1",""
"","","","","","html-keyboard-response","98","248986","0.0-4.0-0.47","191","1","2022-10-11 03:24:27","d60b49b5908c80e163b920d72b52d584","183.217.173.10","Mozilla/5.0 (Windows NT 6.1; WOW64) AppleWebKit/537.36 (KHTML, like Gecko) Chrome/81.0.4044.138 Safari/537.36 NetType/WIFI MicroMessenger/7.0.20.1781(0x6700143B) WindowsWechat(0x6307062c)","WebKit","Chrome","81.0.4044.138","Windows","6.1","null","<div style=""font-size:60px;"">+</div>","null",""
"","","","","","html-button-response","99","249679","0.0-4.0-1.47","191","1","2022-10-11 03:24:27","d60b49b5908c80e163b920d72b52d584","183.217.173.10","Mozilla/5.0 (Windows NT 6.1; WOW64) AppleWebKit/537.36 (KHTML, like Gecko) Chrome/81.0.4044.138 Safari/537.36 NetType/WIFI MicroMessenger/7.0.20.1781(0x6700143B) WindowsWechat(0x6307062c)","WebKit","Chrome","81.0.4044.138","Windows","6.1","688","<p>作为军队的指挥官，你可以选择发射导弹杀死 <strong>1名</strong> 敌国士兵，但会误杀附近的 <strong>1名</strong> 敌国平民。</p> <p>平民照片如下图所示。</p> <p></p> <img src='stimuli/faces/NCF1.jpg', style='max-width: 30%;'> </img> <p><strong>你是否选择发射武器？</strong></p>","1",""
"","","","","","html-keyboard-response","100","250681","0.0-4.0-0.48","191","1","2022-10-11 03:24:27","d60b49b5908c80e163b920d72b52d584","183.217.173.10","Mozilla/5.0 (Windows NT 6.1; WOW64) AppleWebKit/537.36 (KHTML, like Gecko) Chrome/81.0.4044.138 Safari/537.36 NetType/WIFI MicroMessenger/7.0.20.1781(0x6700143B) WindowsWechat(0x6307062c)","WebKit","Chrome","81.0.4044.138","Windows","6.1","null","<div style=""font-size:60px;"">+</div>","null",""
"","","","","","html-button-response","101","251608","0.0-4.0-1.48","191","1","2022-10-11 03:24:27","d60b49b5908c80e163b920d72b52d584","183.217.173.10","Mozilla/5.0 (Windows NT 6.1; WOW64) AppleWebKit/537.36 (KHTML, like Gecko) Chrome/81.0.4044.138 Safari/537.36 NetType/WIFI MicroMessenger/7.0.20.1781(0x6700143B) WindowsWechat(0x6307062c)","WebKit","Chrome","81.0.4044.138","Windows","6.1","922","<p>作为军队的指挥官，你可以选择发射导弹杀死 <strong>1名</strong> 敌国士兵，但会炸毁附近的 <strong>1棵</strong> 敌国树木。</p> <p>树木的照片如下图所示。</p> <p></p> <img src='stimuli/trees/13.png', style='max-width: 30%;'> </img> <p><strong>你是否选择发射武器？</strong></p>","0",""
"","","","","","html-keyboard-response","102","252612","0.0-4.0-0.49","191","1","2022-10-11 03:24:27","d60b49b5908c80e163b920d72b52d584","183.217.173.10","Mozilla/5.0 (Windows NT 6.1; WOW64) AppleWebKit/537.36 (KHTML, like Gecko) Chrome/81.0.4044.138 Safari/537.36 NetType/WIFI MicroMessenger/7.0.20.1781(0x6700143B) WindowsWechat(0x6307062c)","WebKit","Chrome","81.0.4044.138","Windows","6.1","null","<div style=""font-size:60px;"">+</div>","null",""
"","","","","","html-button-response","103","253184","0.0-4.0-1.49","191","1","2022-10-11 03:24:27","d60b49b5908c80e163b920d72b52d584","183.217.173.10","Mozilla/5.0 (Windows NT 6.1; WOW64) AppleWebKit/537.36 (KHTML, like Gecko) Chrome/81.0.4044.138 Safari/537.36 NetType/WIFI MicroMessenger/7.0.20.1781(0x6700143B) WindowsWechat(0x6307062c)","WebKit","Chrome","81.0.4044.138","Windows","6.1","571","<p>作为军队的指挥官，你可以选择发射导弹杀死 <strong>10名</strong> 敌国士兵，但会炸毁附近的 <strong>1棵</strong> 敌国树木。</p> <p>树木的照片如下图所示。</p> <p></p> <img src='stimuli/trees/7.png', style='max-width: 30%;'> </img> <p><strong>你是否选择发射武器？</strong></p>","0",""
"","","","","","html-keyboard-response","104","254187","0.0-4.0-0.50","191","1","2022-10-11 03:24:27","d60b49b5908c80e163b920d72b52d584","183.217.173.10","Mozilla/5.0 (Windows NT 6.1; WOW64) AppleWebKit/537.36 (KHTML, like Gecko) Chrome/81.0.4044.138 Safari/537.36 NetType/WIFI MicroMessenger/7.0.20.1781(0x6700143B) WindowsWechat(0x6307062c)","WebKit","Chrome","81.0.4044.138","Windows","6.1","null","<div style=""font-size:60px;"">+</div>","null",""
"","","","","","html-button-response","105","255256","0.0-4.0-1.50","191","1","2022-10-11 03:24:27","d60b49b5908c80e163b920d72b52d584","183.217.173.10","Mozilla/5.0 (Windows NT 6.1; WOW64) AppleWebKit/537.36 (KHTML, like Gecko) Chrome/81.0.4044.138 Safari/537.36 NetType/WIFI MicroMessenger/7.0.20.1781(0x6700143B) WindowsWechat(0x6307062c)","WebKit","Chrome","81.0.4044.138","Windows","6.1","1064","<p>作为军队的指挥官，你可以选择发射导弹杀死 <strong>3名</strong> 敌国士兵，但会误杀附近的 <strong>1名</strong> 敌国平民。</p> <p>平民照片如下图所示。</p> <p></p> <img src='stimuli/faces/NCF5.jpg', style='max-width: 30%;'> </img> <p><strong>你是否选择发射武器？</strong></p>","1",""
"","","","","","html-keyboard-response","106","256260","0.0-4.0-0.51","191","1","2022-10-11 03:24:27","d60b49b5908c80e163b920d72b52d584","183.217.173.10","Mozilla/5.0 (Windows NT 6.1; WOW64) AppleWebKit/537.36 (KHTML, like Gecko) Chrome/81.0.4044.138 Safari/537.36 NetType/WIFI MicroMessenger/7.0.20.1781(0x6700143B) WindowsWechat(0x6307062c)","WebKit","Chrome","81.0.4044.138","Windows","6.1","null","<div style=""font-size:60px;"">+</div>","null",""
"","","","","","html-button-response","107","258079","0.0-4.0-1.51","191","1","2022-10-11 03:24:27","d60b49b5908c80e163b920d72b52d584","183.217.173.10","Mozilla/5.0 (Windows NT 6.1; WOW64) AppleWebKit/537.36 (KHTML, like Gecko) Chrome/81.0.4044.138 Safari/537.36 NetType/WIFI MicroMessenger/7.0.20.1781(0x6700143B) WindowsWechat(0x6307062c)","WebKit","Chrome","81.0.4044.138","Windows","6.1","1812","<p>作为军队的指挥官，你可以选择发射导弹杀死 <strong>10名</strong> 敌国士兵，但会误杀附近的 <strong>1名</strong> 敌国平民。</p> <p>平民照片如下图所示。</p> <p></p> <img src='stimuli/faces/NCM5.jpg', style='max-width: 30%;'> </img> <p><strong>你是否选择发射武器？</strong></p>","1",""
"","","","","","html-keyboard-response","108","259083","0.0-4.0-0.52","191","1","2022-10-11 03:24:27","d60b49b5908c80e163b920d72b52d584","183.217.173.10","Mozilla/5.0 (Windows NT 6.1; WOW64) AppleWebKit/537.36 (KHTML, like Gecko) Chrome/81.0.4044.138 Safari/537.36 NetType/WIFI MicroMessenger/7.0.20.1781(0x6700143B) WindowsWechat(0x6307062c)","WebKit","Chrome","81.0.4044.138","Windows","6.1","null","<div style=""font-size:60px;"">+</div>","null",""
"","","","","","html-button-response","109","259632","0.0-4.0-1.52","191","1","2022-10-11 03:24:27","d60b49b5908c80e163b920d72b52d584","183.217.173.10","Mozilla/5.0 (Windows NT 6.1; WOW64) AppleWebKit/537.36 (KHTML, like Gecko) Chrome/81.0.4044.138 Safari/537.36 NetType/WIFI MicroMessenger/7.0.20.1781(0x6700143B) WindowsWechat(0x6307062c)","WebKit","Chrome","81.0.4044.138","Windows","6.1","544","<p>作为军队的指挥官，你可以选择发射导弹杀死 <strong>10名</strong> 敌国士兵，但会误杀附近的 <strong>1名</strong> 敌国平民。</p> <p>平民照片如下图所示。</p> <p></p> <img src='stimuli/faces/NCF1.jpg', style='max-width: 30%;'> </img> <p><strong>你是否选择发射武器？</strong></p>","1",""
"","","","","","html-keyboard-response","110","260636","0.0-4.0-0.53","191","1","2022-10-11 03:24:27","d60b49b5908c80e163b920d72b52d584","183.217.173.10","Mozilla/5.0 (Windows NT 6.1; WOW64) AppleWebKit/537.36 (KHTML, like Gecko) Chrome/81.0.4044.138 Safari/537.36 NetType/WIFI MicroMessenger/7.0.20.1781(0x6700143B) WindowsWechat(0x6307062c)","WebKit","Chrome","81.0.4044.138","Windows","6.1","null","<div style=""font-size:60px;"">+</div>","null",""
"","","","","","html-button-response","111","261664","0.0-4.0-1.53","191","1","2022-10-11 03:24:27","d60b49b5908c80e163b920d72b52d584","183.217.173.10","Mozilla/5.0 (Windows NT 6.1; WOW64) AppleWebKit/537.36 (KHTML, like Gecko) Chrome/81.0.4044.138 Safari/537.36 NetType/WIFI MicroMessenger/7.0.20.1781(0x6700143B) WindowsWechat(0x6307062c)","WebKit","Chrome","81.0.4044.138","Windows","6.1","1020","<p>作为军队的指挥官，你可以选择发射导弹杀死 <strong>10名</strong> 敌国士兵，但会炸毁附近的 <strong>1棵</strong> 敌国树木。</p> <p>树木的照片如下图所示。</p> <p></p> <img src='stimuli/trees/5.png', style='max-width: 30%;'> </img> <p><strong>你是否选择发射武器？</strong></p>","0",""
"","","","","","html-keyboard-response","112","262669","0.0-4.0-0.54","191","1","2022-10-11 03:24:27","d60b49b5908c80e163b920d72b52d584","183.217.173.10","Mozilla/5.0 (Windows NT 6.1; WOW64) AppleWebKit/537.36 (KHTML, like Gecko) Chrome/81.0.4044.138 Safari/537.36 NetType/WIFI MicroMessenger/7.0.20.1781(0x6700143B) WindowsWechat(0x6307062c)","WebKit","Chrome","81.0.4044.138","Windows","6.1","null","<div style=""font-size:60px;"">+</div>","null",""
"","","","","","html-button-response","113","263152","0.0-4.0-1.54","191","1","2022-10-11 03:24:27","d60b49b5908c80e163b920d72b52d584","183.217.173.10","Mozilla/5.0 (Windows NT 6.1; WOW64) AppleWebKit/537.36 (KHTML, like Gecko) Chrome/81.0.4044.138 Safari/537.36 NetType/WIFI MicroMessenger/7.0.20.1781(0x6700143B) WindowsWechat(0x6307062c)","WebKit","Chrome","81.0.4044.138","Windows","6.1","477","<p>作为军队的指挥官，你可以选择发射导弹杀死 <strong>7名</strong> 敌国士兵，但会炸毁附近的 <strong>1棵</strong> 敌国树木。</p> <p>树木的照片如下图所示。</p> <p></p> <img src='stimuli/trees/14.png', style='max-width: 30%;'> </img> <p><strong>你是否选择发射武器？</strong></p>","0",""
"","","","","","html-keyboard-response","114","264157","0.0-4.0-0.55","191","1","2022-10-11 03:24:27","d60b49b5908c80e163b920d72b52d584","183.217.173.10","Mozilla/5.0 (Windows NT 6.1; WOW64) AppleWebKit/537.36 (KHTML, like Gecko) Chrome/81.0.4044.138 Safari/537.36 NetType/WIFI MicroMessenger/7.0.20.1781(0x6700143B) WindowsWechat(0x6307062c)","WebKit","Chrome","81.0.4044.138","Windows","6.1","null","<div style=""font-size:60px;"">+</div>","null",""
"","","","","","html-button-response","115","265695","0.0-4.0-1.55","191","1","2022-10-11 03:24:27","d60b49b5908c80e163b920d72b52d584","183.217.173.10","Mozilla/5.0 (Windows NT 6.1; WOW64) AppleWebKit/537.36 (KHTML, like Gecko) Chrome/81.0.4044.138 Safari/537.36 NetType/WIFI MicroMessenger/7.0.20.1781(0x6700143B) WindowsWechat(0x6307062c)","WebKit","Chrome","81.0.4044.138","Windows","6.1","1532","<p>作为军队的指挥官，你可以选择发射导弹杀死 <strong>6名</strong> 敌国士兵，但会炸毁附近的 <strong>1棵</strong> 敌国树木。</p> <p>树木的照片如下图所示。</p> <p></p> <img src='stimuli/trees/16.png', style='max-width: 30%;'> </img> <p><strong>你是否选择发射武器？</strong></p>","0",""
"","","","","","html-keyboard-response","116","266698","0.0-4.0-0.56","191","1","2022-10-11 03:24:27","d60b49b5908c80e163b920d72b52d584","183.217.173.10","Mozilla/5.0 (Windows NT 6.1; WOW64) AppleWebKit/537.36 (KHTML, like Gecko) Chrome/81.0.4044.138 Safari/537.36 NetType/WIFI MicroMessenger/7.0.20.1781(0x6700143B) WindowsWechat(0x6307062c)","WebKit","Chrome","81.0.4044.138","Windows","6.1","null","<div style=""font-size:60px;"">+</div>","null",""
"","","","","","html-button-response","117","267624","0.0-4.0-1.56","191","1","2022-10-11 03:24:27","d60b49b5908c80e163b920d72b52d584","183.217.173.10","Mozilla/5.0 (Windows NT 6.1; WOW64) AppleWebKit/537.36 (KHTML, like Gecko) Chrome/81.0.4044.138 Safari/537.36 NetType/WIFI MicroMessenger/7.0.20.1781(0x6700143B) WindowsWechat(0x6307062c)","WebKit","Chrome","81.0.4044.138","Windows","6.1","920","<p>作为军队的指挥官，你可以选择发射导弹杀死 <strong>1名</strong> 敌国士兵，但会炸毁附近的 <strong>1棵</strong> 敌国树木。</p> <p>树木的照片如下图所示。</p> <p></p> <img src='stimuli/trees/3.png', style='max-width: 30%;'> </img> <p><strong>你是否选择发射武器？</strong></p>","0",""
"","","","","","html-keyboard-response","118","268628","0.0-4.0-0.57","191","1","2022-10-11 03:24:27","d60b49b5908c80e163b920d72b52d584","183.217.173.10","Mozilla/5.0 (Windows NT 6.1; WOW64) AppleWebKit/537.36 (KHTML, like Gecko) Chrome/81.0.4044.138 Safari/537.36 NetType/WIFI MicroMessenger/7.0.20.1781(0x6700143B) WindowsWechat(0x6307062c)","WebKit","Chrome","81.0.4044.138","Windows","6.1","null","<div style=""font-size:60px;"">+</div>","null",""
"","","","","","html-button-response","119","269160","0.0-4.0-1.57","191","1","2022-10-11 03:24:27","d60b49b5908c80e163b920d72b52d584","183.217.173.10","Mozilla/5.0 (Windows NT 6.1; WOW64) AppleWebKit/537.36 (KHTML, like Gecko) Chrome/81.0.4044.138 Safari/537.36 NetType/WIFI MicroMessenger/7.0.20.1781(0x6700143B) WindowsWechat(0x6307062c)","WebKit","Chrome","81.0.4044.138","Windows","6.1","524","<p>作为军队的指挥官，你可以选择发射导弹杀死 <strong>7名</strong> 敌国士兵，但会炸毁附近的 <strong>1棵</strong> 敌国树木。</p> <p>树木的照片如下图所示。</p> <p></p> <img src='stimuli/trees/15.png', style='max-width: 30%;'> </img> <p><strong>你是否选择发射武器？</strong></p>","0",""
"","","","","","html-keyboard-response","120","270164","0.0-4.0-0.58","191","1","2022-10-11 03:24:27","d60b49b5908c80e163b920d72b52d584","183.217.173.10","Mozilla/5.0 (Windows NT 6.1; WOW64) AppleWebKit/537.36 (KHTML, like Gecko) Chrome/81.0.4044.138 Safari/537.36 NetType/WIFI MicroMessenger/7.0.20.1781(0x6700143B) WindowsWechat(0x6307062c)","WebKit","Chrome","81.0.4044.138","Windows","6.1","null","<div style=""font-size:60px;"">+</div>","null",""
"","","","","","html-button-response","121","271256","0.0-4.0-1.58","191","1","2022-10-11 03:24:27","d60b49b5908c80e163b920d72b52d584","183.217.173.10","Mozilla/5.0 (Windows NT 6.1; WOW64) AppleWebKit/537.36 (KHTML, like Gecko) Chrome/81.0.4044.138 Safari/537.36 NetType/WIFI MicroMessenger/7.0.20.1781(0x6700143B) WindowsWechat(0x6307062c)","WebKit","Chrome","81.0.4044.138","Windows","6.1","1089","<p>作为军队的指挥官，你可以选择发射导弹杀死 <strong>5名</strong> 敌国士兵，但会误杀附近的 <strong>1名</strong> 敌国平民。</p> <p>平民照片如下图所示。</p> <p></p> <img src='stimuli/faces/NCM4.jpg', style='max-width: 30%;'> </img> <p><strong>你是否选择发射武器？</strong></p>","1",""
"","","","","","html-keyboard-response","122","272261","0.0-4.0-0.59","191","1","2022-10-11 03:24:27","d60b49b5908c80e163b920d72b52d584","183.217.173.10","Mozilla/5.0 (Windows NT 6.1; WOW64) AppleWebKit/537.36 (KHTML, like Gecko) Chrome/81.0.4044.138 Safari/537.36 NetType/WIFI MicroMessenger/7.0.20.1781(0x6700143B) WindowsWechat(0x6307062c)","WebKit","Chrome","81.0.4044.138","Windows","6.1","null","<div style=""font-size:60px;"">+</div>","null",""
"","","","","","html-button-response","123","273104","0.0-4.0-1.59","191","1","2022-10-11 03:24:27","d60b49b5908c80e163b920d72b52d584","183.217.173.10","Mozilla/5.0 (Windows NT 6.1; WOW64) AppleWebKit/537.36 (KHTML, like Gecko) Chrome/81.0.4044.138 Safari/537.36 NetType/WIFI MicroMessenger/7.0.20.1781(0x6700143B) WindowsWechat(0x6307062c)","WebKit","Chrome","81.0.4044.138","Windows","6.1","840","<p>作为军队的指挥官，你可以选择发射导弹杀死 <strong>3名</strong> 敌国士兵，但会误杀附近的 <strong>1名</strong> 敌国平民。</p> <p>平民照片如下图所示。</p> <p></p> <img src='stimuli/faces/NCF7.jpg', style='max-width: 30%;'> </img> <p><strong>你是否选择发射武器？</strong></p>","1",""
"","","","","","html-keyboard-response","124","274108","0.0-4.0-0.60","191","1","2022-10-11 03:24:27","d60b49b5908c80e163b920d72b52d584","183.217.173.10","Mozilla/5.0 (Windows NT 6.1; WOW64) AppleWebKit/537.36 (KHTML, like Gecko) Chrome/81.0.4044.138 Safari/537.36 NetType/WIFI MicroMessenger/7.0.20.1781(0x6700143B) WindowsWechat(0x6307062c)","WebKit","Chrome","81.0.4044.138","Windows","6.1","null","<div style=""font-size:60px;"">+</div>","null",""
"","","","","","html-button-response","125","274856","0.0-4.0-1.60","191","1","2022-10-11 03:24:27","d60b49b5908c80e163b920d72b52d584","183.217.173.10","Mozilla/5.0 (Windows NT 6.1; WOW64) AppleWebKit/537.36 (KHTML, like Gecko) Chrome/81.0.4044.138 Safari/537.36 NetType/WIFI MicroMessenger/7.0.20.1781(0x6700143B) WindowsWechat(0x6307062c)","WebKit","Chrome","81.0.4044.138","Windows","6.1","742","<p>作为军队的指挥官，你可以选择发射导弹杀死 <strong>3名</strong> 敌国士兵，但会误杀附近的 <strong>1名</strong> 敌国平民。</p> <p>平民照片如下图所示。</p> <p></p> <img src='stimuli/faces/NCM7.jpg', style='max-width: 30%;'> </img> <p><strong>你是否选择发射武器？</strong></p>","1",""
"","","","","","html-keyboard-response","126","275860","0.0-4.0-0.61","191","1","2022-10-11 03:24:27","d60b49b5908c80e163b920d72b52d584","183.217.173.10","Mozilla/5.0 (Windows NT 6.1; WOW64) AppleWebKit/537.36 (KHTML, like Gecko) Chrome/81.0.4044.138 Safari/537.36 NetType/WIFI MicroMessenger/7.0.20.1781(0x6700143B) WindowsWechat(0x6307062c)","WebKit","Chrome","81.0.4044.138","Windows","6.1","null","<div style=""font-size:60px;"">+</div>","null",""
"","","","","","html-button-response","127","277008","0.0-4.0-1.61","191","1","2022-10-11 03:24:27","d60b49b5908c80e163b920d72b52d584","183.217.173.10","Mozilla/5.0 (Windows NT 6.1; WOW64) AppleWebKit/537.36 (KHTML, like Gecko) Chrome/81.0.4044.138 Safari/537.36 NetType/WIFI MicroMessenger/7.0.20.1781(0x6700143B) WindowsWechat(0x6307062c)","WebKit","Chrome","81.0.4044.138","Windows","6.1","1144","<p>作为军队的指挥官，你可以选择发射导弹杀死 <strong>1名</strong> 敌国士兵，但会炸毁附近的 <strong>1棵</strong> 敌国树木。</p> <p>树木的照片如下图所示。</p> <p></p> <img src='stimuli/trees/14.png', style='max-width: 30%;'> </img> <p><strong>你是否选择发射武器？</strong></p>","0",""
"","","","","","html-keyboard-response","128","278012","0.0-4.0-0.62","191","1","2022-10-11 03:24:27","d60b49b5908c80e163b920d72b52d584","183.217.173.10","Mozilla/5.0 (Windows NT 6.1; WOW64) AppleWebKit/537.36 (KHTML, like Gecko) Chrome/81.0.4044.138 Safari/537.36 NetType/WIFI MicroMessenger/7.0.20.1781(0x6700143B) WindowsWechat(0x6307062c)","WebKit","Chrome","81.0.4044.138","Windows","6.1","null","<div style=""font-size:60px;"">+</div>","null",""
"","","","","","html-button-response","129","278760","0.0-4.0-1.62","191","1","2022-10-11 03:24:27","d60b49b5908c80e163b920d72b52d584","183.217.173.10","Mozilla/5.0 (Windows NT 6.1; WOW64) AppleWebKit/537.36 (KHTML, like Gecko) Chrome/81.0.4044.138 Safari/537.36 NetType/WIFI MicroMessenger/7.0.20.1781(0x6700143B) WindowsWechat(0x6307062c)","WebKit","Chrome","81.0.4044.138","Windows","6.1","742","<p>作为军队的指挥官，你可以选择发射导弹杀死 <strong>4名</strong> 敌国士兵，但会误杀附近的 <strong>1名</strong> 敌国平民。</p> <p>平民照片如下图所示。</p> <p></p> <img src='stimuli/faces/NCM6.jpg', style='max-width: 30%;'> </img> <p><strong>你是否选择发射武器？</strong></p>","1",""
"","","","","","html-keyboard-response","130","279764","0.0-4.0-0.63","191","1","2022-10-11 03:24:27","d60b49b5908c80e163b920d72b52d584","183.217.173.10","Mozilla/5.0 (Windows NT 6.1; WOW64) AppleWebKit/537.36 (KHTML, like Gecko) Chrome/81.0.4044.138 Safari/537.36 NetType/WIFI MicroMessenger/7.0.20.1781(0x6700143B) WindowsWechat(0x6307062c)","WebKit","Chrome","81.0.4044.138","Windows","6.1","null","<div style=""font-size:60px;"">+</div>","null",""
"","","","","","html-button-response","131","280680","0.0-4.0-1.63","191","1","2022-10-11 03:24:27","d60b49b5908c80e163b920d72b52d584","183.217.173.10","Mozilla/5.0 (Windows NT 6.1; WOW64) AppleWebKit/537.36 (KHTML, like Gecko) Chrome/81.0.4044.138 Safari/537.36 NetType/WIFI MicroMessenger/7.0.20.1781(0x6700143B) WindowsWechat(0x6307062c)","WebKit","Chrome","81.0.4044.138","Windows","6.1","908","<p>作为军队的指挥官，你可以选择发射导弹杀死 <strong>8名</strong> 敌国士兵，但会炸毁附近的 <strong>1棵</strong> 敌国树木。</p> <p>树木的照片如下图所示。</p> <p></p> <img src='stimuli/trees/12.png', style='max-width: 30%;'> </img> <p><strong>你是否选择发射武器？</strong></p>","0",""
"","","","","","survey-multi-choice","132","302264","0.0-5.0","191","1","2022-10-11 03:24:27","d60b49b5908c80e163b920d72b52d584","183.217.173.10","Mozilla/5.0 (Windows NT 6.1; WOW64) AppleWebKit/537.36 (KHTML, like Gecko) Chrome/81.0.4044.138 Safari/537.36 NetType/WIFI MicroMessenger/7.0.20.1781(0x6700143B) WindowsWechat(0x6307062c)","WebKit","Chrome","81.0.4044.138","Windows","6.1","21578","","{""Attention1"":""""}","[0]"
"","","","","","html-button-response","133","353640","0.0-6.0","191","1","2022-10-11 03:24:27","d60b49b5908c80e163b920d72b52d584","183.217.173.10","Mozilla/5.0 (Windows NT 6.1; WOW64) AppleWebKit/537.36 (KHTML, like Gecko) Chrome/81.0.4044.138 Safari/537.36 NetType/WIFI MicroMessenger/7.0.20.1781(0x6700143B) WindowsWechat(0x6307062c)","WebKit","Chrome","81.0.4044.138","Windows","6.1","51367","<p style=""font-size:20px;font-weight:bold;"">恭喜！</p><p>你已经完成了实验的第一部分。</p><p>请休息放松一下，然后进入第二部分。</p><p>这部分大约需要10分钟。</p>","0",""
"","","","","","survey-text","134","395657","0.0-7.0","191","1","2022-10-11 03:24:27","d60b49b5908c80e163b920d72b52d584","183.217.173.10","Mozilla/5.0 (Windows NT 6.1; WOW64) AppleWebKit/537.36 (KHTML, like Gecko) Chrome/81.0.4044.138 Safari/537.36 NetType/WIFI MicroMessenger/7.0.20.1781(0x6700143B) WindowsWechat(0x6307062c)","WebKit","Chrome","81.0.4044.138","Windows","6.1","40997","","{""Age"":""22"",""Nation"":""中国"",""Born"":""江西南昌"",""Live"":""江西南昌"",""Ethnic"":""汉族"",""Alipay"":""18042569616""}",""
"","","","","","survey-multi-choice","135","417176","0.0-8.0","191","1","2022-10-11 03:24:27","d60b49b5908c80e163b920d72b52d584","183.217.173.10","Mozilla/5.0 (Windows NT 6.1; WOW64) AppleWebKit/537.36 (KHTML, like Gecko) Chrome/81.0.4044.138 Safari/537.36 NetType/WIFI MicroMessenger/7.0.20.1781(0x6700143B) WindowsWechat(0x6307062c)","WebKit","Chrome","81.0.4044.138","Windows","6.1","21513","","{""Gender"":""男"",""Education"":""本科毕业"",""Income"":""￥490,000-￥699,999"",""Children"":""0"",""Race"":""亚洲人""}","[0,1,2,3,4]"
"","","","","","survey-multi-select","136","427144","0.0-9.0","191","1","2022-10-11 03:24:27","d60b49b5908c80e163b920d72b52d584","183.217.173.10","Mozilla/5.0 (Windows NT 6.1; WOW64) AppleWebKit/537.36 (KHTML, like Gecko) Chrome/81.0.4044.138 Safari/537.36 NetType/WIFI MicroMessenger/7.0.20.1781(0x6700143B) WindowsWechat(0x6307062c)","WebKit","Chrome","81.0.4044.138","Windows","6.1","9956","","{""Marriage"":[""未婚""],""Religion"":[""无宗教信仰""]}","[0,1]"
"","","","","","survey-multi-choice","137","444959","0.0-10.0","191","1","2022-10-11 03:24:27","d60b49b5908c80e163b920d72b52d584","183.217.173.10","Mozilla/5.0 (Windows NT 6.1; WOW64) AppleWebKit/537.36 (KHTML, like Gecko) Chrome/81.0.4044.138 Safari/537.36 NetType/WIFI MicroMessenger/7.0.20.1781(0x6700143B) WindowsWechat(0x6307062c)","WebKit","Chrome","81.0.4044.138","Windows","6.1","17806","","{""SES"":""7""}","[0]"
"","","","","","html-button-response","138","449375","0.0-11.0","191","1","2022-10-11 03:24:27","d60b49b5908c80e163b920d72b52d584","183.217.173.10","Mozilla/5.0 (Windows NT 6.1; WOW64) AppleWebKit/537.36 (KHTML, like Gecko) Chrome/81.0.4044.138 Safari/537.36 NetType/WIFI MicroMessenger/7.0.20.1781(0x6700143B) WindowsWechat(0x6307062c)","WebKit","Chrome","81.0.4044.138","Windows","6.1","4407","<p><strong>请判断下列陈述在多大程度上可以形容你？</p><p> (1 = ""和我一点都不像"" to 5 = ""非常像我"".)</strong></p>","0",""
"","","","","","survey-likert","139","498569","0.0-12.0","191","1","2022-10-11 03:24:27","d60b49b5908c80e163b920d72b52d584","183.217.173.10","Mozilla/5.0 (Windows NT 6.1; WOW64) AppleWebKit/537.36 (KHTML, like Gecko) Chrome/81.0.4044.138 Safari/537.36 NetType/WIFI MicroMessenger/7.0.20.1781(0x6700143B) WindowsWechat(0x6307062c)","WebKit","Chrome","81.0.4044.138","Windows","6.1","49187","","{""Aggression1"":0,""Aggression2"":0,""Aggression3"":0,""Aggression4"":1,""Aggression5"":0,""Aggression6"":0,""Aggression7"":1,""Aggression8"":0,""Aggression9"":0}","[0,1,2,3,4,5,6,7,8]"
"","","","","","html-button-response","140","500655","0.0-13.0","191","1","2022-10-11 03:24:27","d60b49b5908c80e163b920d72b52d584","183.217.173.10","Mozilla/5.0 (Windows NT 6.1; WOW64) AppleWebKit/537.36 (KHTML, like Gecko) Chrome/81.0.4044.138 Safari/537.36 NetType/WIFI MicroMessenger/7.0.20.1781(0x6700143B) WindowsWechat(0x6307062c)","WebKit","Chrome","81.0.4044.138","Windows","6.1","2078","<p><strong>请判断你在多大程度上同意下列陈述。</strong></p>","0",""
"","","","","","survey-likert","141","631209","0.0-14.0","191","1","2022-10-11 03:24:27","d60b49b5908c80e163b920d72b52d584","183.217.173.10","Mozilla/5.0 (Windows NT 6.1; WOW64) AppleWebKit/537.36 (KHTML, like Gecko) Chrome/81.0.4044.138 Safari/537.36 NetType/WIFI MicroMessenger/7.0.20.1781(0x6700143B) WindowsWechat(0x6307062c)","WebKit","Chrome","81.0.4044.138","Windows","6.1","130544","","{""scale3"":0,""scale21"":3,""scale11"":4,""scale18"":0,""scale4"":0,""scale15"":0,""scale1"":0,""scale28"":4,""scale19"":4,""scale22"":3,""scale7"":3,""scale9"":3,""scale6"":0,""scale14"":1,""scale12"":1,""scale26"":3,""scale25"":3,""scale10"":0,""scale5"":3,""scale23"":3,""scale24"":0,""scale27"":0,""scale16"":3,""scale13"":0,""scale2"":3,""scale8"":3,""scale17"":0,""scale20"":3}","[2,20,10,17,3,14,0,27,18,21,6,8,5,13,11,25,24,9,4,22,23,26,15,12,1,7,16,19]"
"","","","","","html-button-response","142","632783","0.0-15.0","191","1","2022-10-11 03:24:27","d60b49b5908c80e163b920d72b52d584","183.217.173.10","Mozilla/5.0 (Windows NT 6.1; WOW64) AppleWebKit/537.36 (KHTML, like Gecko) Chrome/81.0.4044.138 Safari/537.36 NetType/WIFI MicroMessenger/7.0.20.1781(0x6700143B) WindowsWechat(0x6307062c)","WebKit","Chrome","81.0.4044.138","Windows","6.1","1566","<p><strong>请判断你在多大程度上同意下列陈述。</strong></p>","0",""
"","","","","","survey-likert","143","737401","0.0-16.0","191","1","2022-10-11 03:24:27","d60b49b5908c80e163b920d72b52d584","183.217.173.10","Mozilla/5.0 (Windows NT 6.1; WOW64) AppleWebKit/537.36 (KHTML, like Gecko) Chrome/81.0.4044.138 Safari/537.36 NetType/WIFI MicroMessenger/7.0.20.1781(0x6700143B) WindowsWechat(0x6307062c)","WebKit","Chrome","81.0.4044.138","Windows","6.1","104611","","{""sdo4"":0,""sdo13"":6,""sdo6"":1,""sdo11"":6,""sdo10"":6,""sdo5"":5,""sdo9"":6,""sdo14"":6,""sdo3"":2,""sdo1"":0,""sdo15"":6,""sdo12"":6,""sdo16"":6,""sdo7"":0,""sdo8"":0,""sdo2"":0}","[3,12,5,10,9,4,8,13,2,0,14,11,15,6,7,1]"
"","","","","","html-button-response","144","738936","0.0-17.0","191","1","2022-10-11 03:24:27","d60b49b5908c80e163b920d72b52d584","183.217.173.10","Mozilla/5.0 (Windows NT 6.1; WOW64) AppleWebKit/537.36 (KHTML, like Gecko) Chrome/81.0.4044.138 Safari/537.36 NetType/WIFI MicroMessenger/7.0.20.1781(0x6700143B) WindowsWechat(0x6307062c)","WebKit","Chrome","81.0.4044.138","Windows","6.1","1528","<p><strong>请判断你在多大程度上同意下列陈述。</strong></p>","0",""
"","","","","","survey-likert","145","777105","0.0-18.0","191","1","2022-10-11 03:24:27","d60b49b5908c80e163b920d72b52d584","183.217.173.10","Mozilla/5.0 (Windows NT 6.1; WOW64) AppleWebKit/537.36 (KHTML, like Gecko) Chrome/81.0.4044.138 Safari/537.36 NetType/WIFI MicroMessenger/7.0.20.1781(0x6700143B) WindowsWechat(0x6307062c)","WebKit","Chrome","81.0.4044.138","Windows","6.1","38163","","{""caring1"":4,""liking1"":0,""caring2"":4,""protection1"":4,""liking2"":0,""caring3"":4,""protection2"":3,""liking3"":0,""protection3"":3,""caring4"":4,""liking4"":4,""protection4"":3,""caring5"":4,""liking5"":0,""protection5"":3}","[0,1,2,3,4,5,6,7,8,9,10,11,12,13,14]"
"","","","","","html-button-response","146","778336","0.0-19.0","191","1","2022-10-11 03:24:27","d60b49b5908c80e163b920d72b52d584","183.217.173.10","Mozilla/5.0 (Windows NT 6.1; WOW64) AppleWebKit/537.36 (KHTML, like Gecko) Chrome/81.0.4044.138 Safari/537.36 NetType/WIFI MicroMessenger/7.0.20.1781(0x6700143B) WindowsWechat(0x6307062c)","WebKit","Chrome","81.0.4044.138","Windows","6.1","1212","<p><strong>请判断下列场景中你的内心感受有多柔软。</strong></p>","0",""
"","","","","","survey-likert","147","828225","0.0-20.0","191","1","2022-10-11 03:24:27","d60b49b5908c80e163b920d72b52d584","183.217.173.10","Mozilla/5.0 (Windows NT 6.1; WOW64) AppleWebKit/537.36 (KHTML, like Gecko) Chrome/81.0.4044.138 Safari/537.36 NetType/WIFI MicroMessenger/7.0.20.1781(0x6700143B) WindowsWechat(0x6307062c)","WebKit","Chrome","81.0.4044.138","Windows","6.1","49883","","{""tenderness-positive1"":4,""tenderness-negative1"":0,""tenderness-negative2"":1,""tenderness-positive2"":4,""tenderness-positive3"":4,""tenderness-negative3"":3,""tenderness-positive4"":4,""tendereness-negative4"":0,""tendernness-negative5"":0,""tenderness-positive5"":4}","[0,1,2,3,4,5,6,7,8,9]"
"","","","","","survey-multi-choice","148","854848","0.0-21.0","191","1","2022-10-11 03:24:27","d60b49b5908c80e163b920d72b52d584","183.217.173.10","Mozilla/5.0 (Windows NT 6.1; WOW64) AppleWebKit/537.36 (KHTML, like Gecko) Chrome/81.0.4044.138 Safari/537.36 NetType/WIFI MicroMessenger/7.0.20.1781(0x6700143B) WindowsWechat(0x6307062c)","WebKit","Chrome","81.0.4044.138","Windows","6.1","26614","","{""Attention2"":""其他""}","[0]"
"","","","","","html-button-response","149","856367","0.0-22.0","191","1","2022-10-11 03:24:27","d60b49b5908c80e163b920d72b52d584","183.217.173.10","Mozilla/5.0 (Windows NT 6.1; WOW64) AppleWebKit/537.36 (KHTML, like Gecko) Chrome/81.0.4044.138 Safari/537.36 NetType/WIFI MicroMessenger/7.0.20.1781(0x6700143B) WindowsWechat(0x6307062c)","WebKit","Chrome","81.0.4044.138","Windows","6.1","1508","<p><strong>请判断你在多大程度上同意下列陈述。</strong></p>","0",""
"","","","","","survey-likert","150","932496","0.0-23.0","191","1","2022-10-11 03:24:27","d60b49b5908c80e163b920d72b52d584","183.217.173.10","Mozilla/5.0 (Windows NT 6.1; WOW64) AppleWebKit/537.36 (KHTML, like Gecko) Chrome/81.0.4044.138 Safari/537.36 NetType/WIFI MicroMessenger/7.0.20.1781(0x6700143B) WindowsWechat(0x6307062c)","WebKit","Chrome","81.0.4044.138","Windows","6.1","76123","","{""Patri5"":4,""Patri9"":0,""Patri1"":4,""Patri10"":0,""Nation3"":0,""Patri12"":0,""Nation6"":4,""Patri7"":4,""Nation5"":3,""Patri11"":0,""Patri4"":4,""Nation1"":4,""Patri2"":4,""Patri8"":4,""Nation8"":0,""Nation2"":4,""Nation4"":4,""Patri6"":0,""Patri3"":4,""Nation7"":4}","[4,8,0,9,14,11,17,6,16,10,3,12,1,7,19,13,15,5,2,18]"
"","","","","","html-button-response","151","934424","0.0-24.0","191","1","2022-10-11 03:24:27","d60b49b5908c80e163b920d72b52d584","183.217.173.10","Mozilla/5.0 (Windows NT 6.1; WOW64) AppleWebKit/537.36 (KHTML, like Gecko) Chrome/81.0.4044.138 Safari/537.36 NetType/WIFI MicroMessenger/7.0.20.1781(0x6700143B) WindowsWechat(0x6307062c)","WebKit","Chrome","81.0.4044.138","Windows","6.1","1920","<p><strong>请判断你在多大程度上同意下列陈述。</strong></p>","0",""
"","","","","","survey-likert","152","988674","0.0-25.0","191","1","2022-10-11 03:24:27","d60b49b5908c80e163b920d72b52d584","183.217.173.10","Mozilla/5.0 (Windows NT 6.1; WOW64) AppleWebKit/537.36 (KHTML, like Gecko) Chrome/81.0.4044.138 Safari/537.36 NetType/WIFI MicroMessenger/7.0.20.1781(0x6700143B) WindowsWechat(0x6307062c)","WebKit","Chrome","81.0.4044.138","Windows","6.1","54242","","{""hi1"":8,""hi3"":0,""vc4"":6,""vc3"":7,""Robot"":6,""hc2"":7,""hi4"":7,""vi4"":0,""vi2"":0,""vi3"":1,""hc4"":8,""hi2"":8,""hc1"":8,""vc1"":8,""vc2"":8,""vi1"":1,""hc3"":8}","[0,2,16,15,7,10,3,8,5,6,12,1,9,13,14,4,11]"
"","","","","","survey-text","153","1172055","0.0-26.0","191","1","2022-10-11 03:24:27","d60b49b5908c80e163b920d72b52d584","183.217.173.10","Mozilla/5.0 (Windows NT 6.1; WOW64) AppleWebKit/537.36 (KHTML, like Gecko) Chrome/81.0.4044.138 Safari/537.36 NetType/WIFI MicroMessenger/7.0.20.1781(0x6700143B) WindowsWechat(0x6307062c)","WebKit","Chrome","81.0.4044.138","Windows","6.1","183338","","{""Comments"":""很好，没有建议""}",""
"","","","","","html-button-response","154","1173312","0.0-27.0","191","1","2022-10-11 03:24:27","d60b49b5908c80e163b920d72b52d584","183.217.173.10","Mozilla/5.0 (Windows NT 6.1; WOW64) AppleWebKit/537.36 (KHTML, like Gecko) Chrome/81.0.4044.138 Safari/537.36 NetType/WIFI MicroMessenger/7.0.20.1781(0x6700143B) WindowsWechat(0x6307062c)","WebKit","Chrome","81.0.4044.138","Windows","6.1","1252","<strong><p>恭喜你完成了实验！</p><p>感谢您的参与。</p></strong>","0",""
