"success","timeout","failed_images","failed_audio","failed_video","trial_type","trial_index","time_elapsed","internal_node_id","run_id","condition","recorded_at","source_code_version","ip","user_agent","device","browser","browser_version","platform","platform_version","rt","stimulus","response","question_order"
"true","false","[]","[]","[]","preload","0","1491","0.0-0.0","190","1","2022-10-11 03:21:34","d60b49b5908c80e163b920d72b52d584","182.118.239.50","Mozilla/5.0 (Linux; Android 12; M2012K11AC) AppleWebKit/537.36 (KHTML, like Gecko) Chrome/105.0.0.0 Mobile Safari/537.36 EdgA/105.0.1343.50","WebKit","Edge","","AndroidOS","12","","","",""
"true","","","","","fullscreen","1","4047","0.0-1.0","190","1","2022-10-11 03:21:34","d60b49b5908c80e163b920d72b52d584","182.118.239.50","Mozilla/5.0 (Linux; Android 12; M2012K11AC) AppleWebKit/537.36 (KHTML, like Gecko) Chrome/105.0.0.0 Mobile Safari/537.36 EdgA/105.0.1343.50","WebKit","Edge","","AndroidOS","12","","","",""
"","","","","","html-button-response","2","7762","0.0-2.0","190","1","2022-10-11 03:21:34","d60b49b5908c80e163b920d72b52d584","182.118.239.50","Mozilla/5.0 (Linux; Android 12; M2012K11AC) AppleWebKit/537.36 (KHTML, like Gecko) Chrome/105.0.0.0 Mobile Safari/537.36 EdgA/105.0.1343.50","WebKit","Edge","","AndroidOS","12","3706","<p style=""font-size:20px;font-weight:bold;"">实验知情同意书</p><p style=""text-align:left;""><strong>实验名称：</strong>社会冲突研究</p><p style=""text-align:left;""><strong>主要研究者：</strong>韩晓春副教授（北京师范大学心理学部）</p><p style=""text-align:left;""><strong>联系方式：</strong>发送邮件至xiaochun.han@bnu.edu.cn</p><p style=""text-align:left;""><strong>研究目的：</strong>研究旨在了解人类面对群体冲突时的决策方式，以及相关的心理学特质。实验调查大约需要20分钟。</p><p style=""text-align:left;""><strong>实验流程：</strong>实验包含两部分。第一部分呈现一系列群体冲突场景，请你决定如何对这些冲突进行反应，大约需要10分钟完成。第二部分包含一系列人口统计学信息收集和心理学问卷，大约需要10分钟完成。</p><p style=""text-align:left;""><strong>参加及退出规则：</strong>参加本实验完全取决于您的个人意愿。在参与过程中，您可以随时退出，并且不用承担任何后果。</p><p style=""text-align:left;""><strong>隐私：</strong>本实验完全匿名进行，不会收集您的姓名或其他能够识别您身份的信息。实验中收集的作答仅用作科学研究使用，可能会在学术期刊/书籍上发表，或者用于教学，您的数据未来可能会和其他研究者或实验室分享，但您的个人身份不会被识别。</p><p style=""text-align:left;""><strong>实验报酬：</strong>实验完成后，您将获得15元人民币报酬，以感谢您的时间和努力。调查问卷中包含几道题目用以测验您作答时的认真度。只有完成全部实验，并且正确回答认真度测验的被试才能获得实验报酬。实验报酬将通过支付宝转账发放。</p><p style=""text-align:left;font-size:20px;""><strong>如果您同意以上实验知情同意书的内容，请点击'同意并且开始实验'按钮；否则请关闭浏览器界面，退出实验。</strong></p>","0",""
"","","","","","html-button-response","3","8926","0.0-3.0","190","1","2022-10-11 03:21:34","d60b49b5908c80e163b920d72b52d584","182.118.239.50","Mozilla/5.0 (Linux; Android 12; M2012K11AC) AppleWebKit/537.36 (KHTML, like Gecko) Chrome/105.0.0.0 Mobile Safari/537.36 EdgA/105.0.1343.50","WebKit","Edge","","AndroidOS","12","1157","<p ><strong>实验任务一：</strong></p><p>请想象你的国家与另一个国家发生了军事冲突。</p><p>你是国家军队的指挥官，你将如何在冲突中进行决策。</p><p>具体来说，作为军队指挥官，请你决定是否发射导弹进行打击。</p><p>接下来，你会面对一系列场景，请仔细阅读每个场景，然后进行决策。</p><p>这部分实验任务大约需要10分钟。</p><p><strong>实验过程中，请集中注意力。</strong></p>","0",""
"","","","","","html-keyboard-response","4","9934","0.0-4.0-0.0","190","1","2022-10-11 03:21:34","d60b49b5908c80e163b920d72b52d584","182.118.239.50","Mozilla/5.0 (Linux; Android 12; M2012K11AC) AppleWebKit/537.36 (KHTML, like Gecko) Chrome/105.0.0.0 Mobile Safari/537.36 EdgA/105.0.1343.50","WebKit","Edge","","AndroidOS","12","null","<div style=""font-size:60px;"">+</div>","null",""
"","","","","","html-button-response","5","13926","0.0-4.0-1.0","190","1","2022-10-11 03:21:34","d60b49b5908c80e163b920d72b52d584","182.118.239.50","Mozilla/5.0 (Linux; Android 12; M2012K11AC) AppleWebKit/537.36 (KHTML, like Gecko) Chrome/105.0.0.0 Mobile Safari/537.36 EdgA/105.0.1343.50","WebKit","Edge","","AndroidOS","12","3969","<p>作为军队的指挥官，你可以选择发射导弹杀死 <strong>9名</strong> 敌国士兵，但会炸毁附近的 <strong>1棵</strong> 敌国树木。</p> <p>树木的照片如下图所示。</p> <p></p> <img src='stimuli/trees/10.png', style='max-width: 30%;'> </img> <p><strong>你是否选择发射武器？</strong></p>","0",""
"","","","","","html-keyboard-response","6","14938","0.0-4.0-0.1","190","1","2022-10-11 03:21:34","d60b49b5908c80e163b920d72b52d584","182.118.239.50","Mozilla/5.0 (Linux; Android 12; M2012K11AC) AppleWebKit/537.36 (KHTML, like Gecko) Chrome/105.0.0.0 Mobile Safari/537.36 EdgA/105.0.1343.50","WebKit","Edge","","AndroidOS","12","null","<div style=""font-size:60px;"">+</div>","null",""
"","","","","","html-button-response","7","15961","0.0-4.0-1.1","190","1","2022-10-11 03:21:34","d60b49b5908c80e163b920d72b52d584","182.118.239.50","Mozilla/5.0 (Linux; Android 12; M2012K11AC) AppleWebKit/537.36 (KHTML, like Gecko) Chrome/105.0.0.0 Mobile Safari/537.36 EdgA/105.0.1343.50","WebKit","Edge","","AndroidOS","12","1002","<p>作为军队的指挥官，你可以选择发射导弹杀死 <strong>5名</strong> 敌国士兵，但会误杀附近的 <strong>1名</strong> 敌国平民。</p> <p>平民照片如下图所示。</p> <p></p> <img src='stimuli/faces/NCM8.jpg', style='max-width: 30%;'> </img> <p><strong>你是否选择发射武器？</strong></p>","0",""
"","","","","","html-keyboard-response","8","16970","0.0-4.0-0.2","190","1","2022-10-11 03:21:34","d60b49b5908c80e163b920d72b52d584","182.118.239.50","Mozilla/5.0 (Linux; Android 12; M2012K11AC) AppleWebKit/537.36 (KHTML, like Gecko) Chrome/105.0.0.0 Mobile Safari/537.36 EdgA/105.0.1343.50","WebKit","Edge","","AndroidOS","12","null","<div style=""font-size:60px;"">+</div>","null",""
"","","","","","html-button-response","9","17684","0.0-4.0-1.2","190","1","2022-10-11 03:21:34","d60b49b5908c80e163b920d72b52d584","182.118.239.50","Mozilla/5.0 (Linux; Android 12; M2012K11AC) AppleWebKit/537.36 (KHTML, like Gecko) Chrome/105.0.0.0 Mobile Safari/537.36 EdgA/105.0.1343.50","WebKit","Edge","","AndroidOS","12","692","<p>作为军队的指挥官，你可以选择发射导弹杀死 <strong>9名</strong> 敌国士兵，但会炸毁附近的 <strong>1棵</strong> 敌国树木。</p> <p>树木的照片如下图所示。</p> <p></p> <img src='stimuli/trees/15.png', style='max-width: 30%;'> </img> <p><strong>你是否选择发射武器？</strong></p>","0",""
"","","","","","html-keyboard-response","10","18692","0.0-4.0-0.3","190","1","2022-10-11 03:21:34","d60b49b5908c80e163b920d72b52d584","182.118.239.50","Mozilla/5.0 (Linux; Android 12; M2012K11AC) AppleWebKit/537.36 (KHTML, like Gecko) Chrome/105.0.0.0 Mobile Safari/537.36 EdgA/105.0.1343.50","WebKit","Edge","","AndroidOS","12","null","<div style=""font-size:60px;"">+</div>","null",""
"","","","","","html-button-response","11","19554","0.0-4.0-1.3","190","1","2022-10-11 03:21:34","d60b49b5908c80e163b920d72b52d584","182.118.239.50","Mozilla/5.0 (Linux; Android 12; M2012K11AC) AppleWebKit/537.36 (KHTML, like Gecko) Chrome/105.0.0.0 Mobile Safari/537.36 EdgA/105.0.1343.50","WebKit","Edge","","AndroidOS","12","844","<p>作为军队的指挥官，你可以选择发射导弹杀死 <strong>3名</strong> 敌国士兵，但会炸毁附近的 <strong>1棵</strong> 敌国树木。</p> <p>树木的照片如下图所示。</p> <p></p> <img src='stimuli/trees/15.png', style='max-width: 30%;'> </img> <p><strong>你是否选择发射武器？</strong></p>","1",""
"","","","","","html-keyboard-response","12","20563","0.0-4.0-0.4","190","1","2022-10-11 03:21:34","d60b49b5908c80e163b920d72b52d584","182.118.239.50","Mozilla/5.0 (Linux; Android 12; M2012K11AC) AppleWebKit/537.36 (KHTML, like Gecko) Chrome/105.0.0.0 Mobile Safari/537.36 EdgA/105.0.1343.50","WebKit","Edge","","AndroidOS","12","null","<div style=""font-size:60px;"">+</div>","null",""
"","","","","","html-button-response","13","21244","0.0-4.0-1.4","190","1","2022-10-11 03:21:34","d60b49b5908c80e163b920d72b52d584","182.118.239.50","Mozilla/5.0 (Linux; Android 12; M2012K11AC) AppleWebKit/537.36 (KHTML, like Gecko) Chrome/105.0.0.0 Mobile Safari/537.36 EdgA/105.0.1343.50","WebKit","Edge","","AndroidOS","12","669","<p>作为军队的指挥官，你可以选择发射导弹杀死 <strong>9名</strong> 敌国士兵，但会误杀附近的 <strong>1名</strong> 敌国平民。</p> <p>平民照片如下图所示。</p> <p></p> <img src='stimuli/faces/NCF1.jpg', style='max-width: 30%;'> </img> <p><strong>你是否选择发射武器？</strong></p>","0",""
"","","","","","html-keyboard-response","14","22269","0.0-4.0-0.5","190","1","2022-10-11 03:21:34","d60b49b5908c80e163b920d72b52d584","182.118.239.50","Mozilla/5.0 (Linux; Android 12; M2012K11AC) AppleWebKit/537.36 (KHTML, like Gecko) Chrome/105.0.0.0 Mobile Safari/537.36 EdgA/105.0.1343.50","WebKit","Edge","","AndroidOS","12","null","<div style=""font-size:60px;"">+</div>","null",""
"","","","","","html-button-response","15","23013","0.0-4.0-1.5","190","1","2022-10-11 03:21:34","d60b49b5908c80e163b920d72b52d584","182.118.239.50","Mozilla/5.0 (Linux; Android 12; M2012K11AC) AppleWebKit/537.36 (KHTML, like Gecko) Chrome/105.0.0.0 Mobile Safari/537.36 EdgA/105.0.1343.50","WebKit","Edge","","AndroidOS","12","724","<p>作为军队的指挥官，你可以选择发射导弹杀死 <strong>1名</strong> 敌国士兵，但会炸毁附近的 <strong>1棵</strong> 敌国树木。</p> <p>树木的照片如下图所示。</p> <p></p> <img src='stimuli/trees/3.png', style='max-width: 30%;'> </img> <p><strong>你是否选择发射武器？</strong></p>","1",""
"","","","","","html-keyboard-response","16","24024","0.0-4.0-0.6","190","1","2022-10-11 03:21:34","d60b49b5908c80e163b920d72b52d584","182.118.239.50","Mozilla/5.0 (Linux; Android 12; M2012K11AC) AppleWebKit/537.36 (KHTML, like Gecko) Chrome/105.0.0.0 Mobile Safari/537.36 EdgA/105.0.1343.50","WebKit","Edge","","AndroidOS","12","null","<div style=""font-size:60px;"">+</div>","null",""
"","","","","","html-button-response","17","24739","0.0-4.0-1.6","190","1","2022-10-11 03:21:34","d60b49b5908c80e163b920d72b52d584","182.118.239.50","Mozilla/5.0 (Linux; Android 12; M2012K11AC) AppleWebKit/537.36 (KHTML, like Gecko) Chrome/105.0.0.0 Mobile Safari/537.36 EdgA/105.0.1343.50","WebKit","Edge","","AndroidOS","12","697","<p>作为军队的指挥官，你可以选择发射导弹杀死 <strong>10名</strong> 敌国士兵，但会误杀附近的 <strong>1名</strong> 敌国平民。</p> <p>平民照片如下图所示。</p> <p></p> <img src='stimuli/faces/NCF8.jpg', style='max-width: 30%;'> </img> <p><strong>你是否选择发射武器？</strong></p>","0",""
"","","","","","html-keyboard-response","18","25754","0.0-4.0-0.7","190","1","2022-10-11 03:21:34","d60b49b5908c80e163b920d72b52d584","182.118.239.50","Mozilla/5.0 (Linux; Android 12; M2012K11AC) AppleWebKit/537.36 (KHTML, like Gecko) Chrome/105.0.0.0 Mobile Safari/537.36 EdgA/105.0.1343.50","WebKit","Edge","","AndroidOS","12","null","<div style=""font-size:60px;"">+</div>","null",""
"","","","","","html-button-response","19","26341","0.0-4.0-1.7","190","1","2022-10-11 03:21:34","d60b49b5908c80e163b920d72b52d584","182.118.239.50","Mozilla/5.0 (Linux; Android 12; M2012K11AC) AppleWebKit/537.36 (KHTML, like Gecko) Chrome/105.0.0.0 Mobile Safari/537.36 EdgA/105.0.1343.50","WebKit","Edge","","AndroidOS","12","566","<p>作为军队的指挥官，你可以选择发射导弹杀死 <strong>8名</strong> 敌国士兵，但会炸毁附近的 <strong>1棵</strong> 敌国树木。</p> <p>树木的照片如下图所示。</p> <p></p> <img src='stimuli/trees/3.png', style='max-width: 30%;'> </img> <p><strong>你是否选择发射武器？</strong></p>","0",""
"","","","","","html-keyboard-response","20","27351","0.0-4.0-0.8","190","1","2022-10-11 03:21:34","d60b49b5908c80e163b920d72b52d584","182.118.239.50","Mozilla/5.0 (Linux; Android 12; M2012K11AC) AppleWebKit/537.36 (KHTML, like Gecko) Chrome/105.0.0.0 Mobile Safari/537.36 EdgA/105.0.1343.50","WebKit","Edge","","AndroidOS","12","null","<div style=""font-size:60px;"">+</div>","null",""
"","","","","","html-button-response","21","28080","0.0-4.0-1.8","190","1","2022-10-11 03:21:34","d60b49b5908c80e163b920d72b52d584","182.118.239.50","Mozilla/5.0 (Linux; Android 12; M2012K11AC) AppleWebKit/537.36 (KHTML, like Gecko) Chrome/105.0.0.0 Mobile Safari/537.36 EdgA/105.0.1343.50","WebKit","Edge","","AndroidOS","12","708","<p>作为军队的指挥官，你可以选择发射导弹杀死 <strong>1名</strong> 敌国士兵，但会误杀附近的 <strong>1名</strong> 敌国平民。</p> <p>平民照片如下图所示。</p> <p></p> <img src='stimuli/faces/NCM6.jpg', style='max-width: 30%;'> </img> <p><strong>你是否选择发射武器？</strong></p>","1",""
"","","","","","html-keyboard-response","22","29091","0.0-4.0-0.9","190","1","2022-10-11 03:21:34","d60b49b5908c80e163b920d72b52d584","182.118.239.50","Mozilla/5.0 (Linux; Android 12; M2012K11AC) AppleWebKit/537.36 (KHTML, like Gecko) Chrome/105.0.0.0 Mobile Safari/537.36 EdgA/105.0.1343.50","WebKit","Edge","","AndroidOS","12","null","<div style=""font-size:60px;"">+</div>","null",""
"","","","","","html-button-response","23","29938","0.0-4.0-1.9","190","1","2022-10-11 03:21:34","d60b49b5908c80e163b920d72b52d584","182.118.239.50","Mozilla/5.0 (Linux; Android 12; M2012K11AC) AppleWebKit/537.36 (KHTML, like Gecko) Chrome/105.0.0.0 Mobile Safari/537.36 EdgA/105.0.1343.50","WebKit","Edge","","AndroidOS","12","826","<p>作为军队的指挥官，你可以选择发射导弹杀死 <strong>4名</strong> 敌国士兵，但会误杀附近的 <strong>1名</strong> 敌国平民。</p> <p>平民照片如下图所示。</p> <p></p> <img src='stimuli/faces/NCM5.jpg', style='max-width: 30%;'> </img> <p><strong>你是否选择发射武器？</strong></p>","0",""
"","","","","","html-keyboard-response","24","30945","0.0-4.0-0.10","190","1","2022-10-11 03:21:34","d60b49b5908c80e163b920d72b52d584","182.118.239.50","Mozilla/5.0 (Linux; Android 12; M2012K11AC) AppleWebKit/537.36 (KHTML, like Gecko) Chrome/105.0.0.0 Mobile Safari/537.36 EdgA/105.0.1343.50","WebKit","Edge","","AndroidOS","12","null","<div style=""font-size:60px;"">+</div>","null",""
"","","","","","html-button-response","25","31556","0.0-4.0-1.10","190","1","2022-10-11 03:21:34","d60b49b5908c80e163b920d72b52d584","182.118.239.50","Mozilla/5.0 (Linux; Android 12; M2012K11AC) AppleWebKit/537.36 (KHTML, like Gecko) Chrome/105.0.0.0 Mobile Safari/537.36 EdgA/105.0.1343.50","WebKit","Edge","","AndroidOS","12","599","<p>作为军队的指挥官，你可以选择发射导弹杀死 <strong>10名</strong> 敌国士兵，但会误杀附近的 <strong>1名</strong> 敌国平民。</p> <p>平民照片如下图所示。</p> <p></p> <img src='stimuli/faces/NCF7.jpg', style='max-width: 30%;'> </img> <p><strong>你是否选择发射武器？</strong></p>","0",""
"","","","","","html-keyboard-response","26","32565","0.0-4.0-0.11","190","1","2022-10-11 03:21:34","d60b49b5908c80e163b920d72b52d584","182.118.239.50","Mozilla/5.0 (Linux; Android 12; M2012K11AC) AppleWebKit/537.36 (KHTML, like Gecko) Chrome/105.0.0.0 Mobile Safari/537.36 EdgA/105.0.1343.50","WebKit","Edge","","AndroidOS","12","null","<div style=""font-size:60px;"">+</div>","null",""
"","","","","","html-button-response","27","33341","0.0-4.0-1.11","190","1","2022-10-11 03:21:34","d60b49b5908c80e163b920d72b52d584","182.118.239.50","Mozilla/5.0 (Linux; Android 12; M2012K11AC) AppleWebKit/537.36 (KHTML, like Gecko) Chrome/105.0.0.0 Mobile Safari/537.36 EdgA/105.0.1343.50","WebKit","Edge","","AndroidOS","12","755","<p>作为军队的指挥官，你可以选择发射导弹杀死 <strong>6名</strong> 敌国士兵，但会误杀附近的 <strong>1名</strong> 敌国平民。</p> <p>平民照片如下图所示。</p> <p></p> <img src='stimuli/faces/NCF5.jpg', style='max-width: 30%;'> </img> <p><strong>你是否选择发射武器？</strong></p>","0",""
"","","","","","html-keyboard-response","28","34349","0.0-4.0-0.12","190","1","2022-10-11 03:21:34","d60b49b5908c80e163b920d72b52d584","182.118.239.50","Mozilla/5.0 (Linux; Android 12; M2012K11AC) AppleWebKit/537.36 (KHTML, like Gecko) Chrome/105.0.0.0 Mobile Safari/537.36 EdgA/105.0.1343.50","WebKit","Edge","","AndroidOS","12","null","<div style=""font-size:60px;"">+</div>","null",""
"","","","","","html-button-response","29","35184","0.0-4.0-1.12","190","1","2022-10-11 03:21:34","d60b49b5908c80e163b920d72b52d584","182.118.239.50","Mozilla/5.0 (Linux; Android 12; M2012K11AC) AppleWebKit/537.36 (KHTML, like Gecko) Chrome/105.0.0.0 Mobile Safari/537.36 EdgA/105.0.1343.50","WebKit","Edge","","AndroidOS","12","812","<p>作为军队的指挥官，你可以选择发射导弹杀死 <strong>3名</strong> 敌国士兵，但会炸毁附近的 <strong>1棵</strong> 敌国树木。</p> <p>树木的照片如下图所示。</p> <p></p> <img src='stimuli/trees/12.png', style='max-width: 30%;'> </img> <p><strong>你是否选择发射武器？</strong></p>","1",""
"","","","","","html-keyboard-response","30","36195","0.0-4.0-0.13","190","1","2022-10-11 03:21:34","d60b49b5908c80e163b920d72b52d584","182.118.239.50","Mozilla/5.0 (Linux; Android 12; M2012K11AC) AppleWebKit/537.36 (KHTML, like Gecko) Chrome/105.0.0.0 Mobile Safari/537.36 EdgA/105.0.1343.50","WebKit","Edge","","AndroidOS","12","null","<div style=""font-size:60px;"">+</div>","null",""
"","","","","","html-button-response","31","36864","0.0-4.0-1.13","190","1","2022-10-11 03:21:34","d60b49b5908c80e163b920d72b52d584","182.118.239.50","Mozilla/5.0 (Linux; Android 12; M2012K11AC) AppleWebKit/537.36 (KHTML, like Gecko) Chrome/105.0.0.0 Mobile Safari/537.36 EdgA/105.0.1343.50","WebKit","Edge","","AndroidOS","12","648","<p>作为军队的指挥官，你可以选择发射导弹杀死 <strong>4名</strong> 敌国士兵，但会误杀附近的 <strong>1名</strong> 敌国平民。</p> <p>平民照片如下图所示。</p> <p></p> <img src='stimuli/faces/NCF6.jpg', style='max-width: 30%;'> </img> <p><strong>你是否选择发射武器？</strong></p>","0",""
"","","","","","html-keyboard-response","32","37875","0.0-4.0-0.14","190","1","2022-10-11 03:21:34","d60b49b5908c80e163b920d72b52d584","182.118.239.50","Mozilla/5.0 (Linux; Android 12; M2012K11AC) AppleWebKit/537.36 (KHTML, like Gecko) Chrome/105.0.0.0 Mobile Safari/537.36 EdgA/105.0.1343.50","WebKit","Edge","","AndroidOS","12","null","<div style=""font-size:60px;"">+</div>","null",""
"","","","","","html-button-response","33","38588","0.0-4.0-1.14","190","1","2022-10-11 03:21:34","d60b49b5908c80e163b920d72b52d584","182.118.239.50","Mozilla/5.0 (Linux; Android 12; M2012K11AC) AppleWebKit/537.36 (KHTML, like Gecko) Chrome/105.0.0.0 Mobile Safari/537.36 EdgA/105.0.1343.50","WebKit","Edge","","AndroidOS","12","690","<p>作为军队的指挥官，你可以选择发射导弹杀死 <strong>5名</strong> 敌国士兵，但会误杀附近的 <strong>1名</strong> 敌国平民。</p> <p>平民照片如下图所示。</p> <p></p> <img src='stimuli/faces/NCF8.jpg', style='max-width: 30%;'> </img> <p><strong>你是否选择发射武器？</strong></p>","0",""
"","","","","","html-keyboard-response","34","39597","0.0-4.0-0.15","190","1","2022-10-11 03:21:34","d60b49b5908c80e163b920d72b52d584","182.118.239.50","Mozilla/5.0 (Linux; Android 12; M2012K11AC) AppleWebKit/537.36 (KHTML, like Gecko) Chrome/105.0.0.0 Mobile Safari/537.36 EdgA/105.0.1343.50","WebKit","Edge","","AndroidOS","12","null","<div style=""font-size:60px;"">+</div>","null",""
"","","","","","html-button-response","35","40345","0.0-4.0-1.15","190","1","2022-10-11 03:21:34","d60b49b5908c80e163b920d72b52d584","182.118.239.50","Mozilla/5.0 (Linux; Android 12; M2012K11AC) AppleWebKit/537.36 (KHTML, like Gecko) Chrome/105.0.0.0 Mobile Safari/537.36 EdgA/105.0.1343.50","WebKit","Edge","","AndroidOS","12","734","<p>作为军队的指挥官，你可以选择发射导弹杀死 <strong>5名</strong> 敌国士兵，但会误杀附近的 <strong>1名</strong> 敌国平民。</p> <p>平民照片如下图所示。</p> <p></p> <img src='stimuli/faces/NCF5.jpg', style='max-width: 30%;'> </img> <p><strong>你是否选择发射武器？</strong></p>","0",""
"","","","","","html-keyboard-response","36","41352","0.0-4.0-0.16","190","1","2022-10-11 03:21:34","d60b49b5908c80e163b920d72b52d584","182.118.239.50","Mozilla/5.0 (Linux; Android 12; M2012K11AC) AppleWebKit/537.36 (KHTML, like Gecko) Chrome/105.0.0.0 Mobile Safari/537.36 EdgA/105.0.1343.50","WebKit","Edge","","AndroidOS","12","null","<div style=""font-size:60px;"">+</div>","null",""
"","","","","","html-button-response","37","42211","0.0-4.0-1.16","190","1","2022-10-11 03:21:34","d60b49b5908c80e163b920d72b52d584","182.118.239.50","Mozilla/5.0 (Linux; Android 12; M2012K11AC) AppleWebKit/537.36 (KHTML, like Gecko) Chrome/105.0.0.0 Mobile Safari/537.36 EdgA/105.0.1343.50","WebKit","Edge","","AndroidOS","12","850","<p>作为军队的指挥官，你可以选择发射导弹杀死 <strong>2名</strong> 敌国士兵，但会误杀附近的 <strong>1名</strong> 敌国平民。</p> <p>平民照片如下图所示。</p> <p></p> <img src='stimuli/faces/NCM3.jpg', style='max-width: 30%;'> </img> <p><strong>你是否选择发射武器？</strong></p>","1",""
"","","","","","html-keyboard-response","38","43220","0.0-4.0-0.17","190","1","2022-10-11 03:21:34","d60b49b5908c80e163b920d72b52d584","182.118.239.50","Mozilla/5.0 (Linux; Android 12; M2012K11AC) AppleWebKit/537.36 (KHTML, like Gecko) Chrome/105.0.0.0 Mobile Safari/537.36 EdgA/105.0.1343.50","WebKit","Edge","","AndroidOS","12","null","<div style=""font-size:60px;"">+</div>","null",""
"","","","","","html-button-response","39","44012","0.0-4.0-1.17","190","1","2022-10-11 03:21:34","d60b49b5908c80e163b920d72b52d584","182.118.239.50","Mozilla/5.0 (Linux; Android 12; M2012K11AC) AppleWebKit/537.36 (KHTML, like Gecko) Chrome/105.0.0.0 Mobile Safari/537.36 EdgA/105.0.1343.50","WebKit","Edge","","AndroidOS","12","783","<p>作为军队的指挥官，你可以选择发射导弹杀死 <strong>2名</strong> 敌国士兵，但会炸毁附近的 <strong>1棵</strong> 敌国树木。</p> <p>树木的照片如下图所示。</p> <p></p> <img src='stimuli/trees/13.png', style='max-width: 30%;'> </img> <p><strong>你是否选择发射武器？</strong></p>","1",""
"","","","","","html-keyboard-response","40","45021","0.0-4.0-0.18","190","1","2022-10-11 03:21:34","d60b49b5908c80e163b920d72b52d584","182.118.239.50","Mozilla/5.0 (Linux; Android 12; M2012K11AC) AppleWebKit/537.36 (KHTML, like Gecko) Chrome/105.0.0.0 Mobile Safari/537.36 EdgA/105.0.1343.50","WebKit","Edge","","AndroidOS","12","null","<div style=""font-size:60px;"">+</div>","null",""
"","","","","","html-button-response","41","45870","0.0-4.0-1.18","190","1","2022-10-11 03:21:34","d60b49b5908c80e163b920d72b52d584","182.118.239.50","Mozilla/5.0 (Linux; Android 12; M2012K11AC) AppleWebKit/537.36 (KHTML, like Gecko) Chrome/105.0.0.0 Mobile Safari/537.36 EdgA/105.0.1343.50","WebKit","Edge","","AndroidOS","12","824","<p>作为军队的指挥官，你可以选择发射导弹杀死 <strong>5名</strong> 敌国士兵，但会误杀附近的 <strong>1名</strong> 敌国平民。</p> <p>平民照片如下图所示。</p> <p></p> <img src='stimuli/faces/NCF4.jpg', style='max-width: 30%;'> </img> <p><strong>你是否选择发射武器？</strong></p>","0",""
"","","","","","html-keyboard-response","42","46883","0.0-4.0-0.19","190","1","2022-10-11 03:21:34","d60b49b5908c80e163b920d72b52d584","182.118.239.50","Mozilla/5.0 (Linux; Android 12; M2012K11AC) AppleWebKit/537.36 (KHTML, like Gecko) Chrome/105.0.0.0 Mobile Safari/537.36 EdgA/105.0.1343.50","WebKit","Edge","","AndroidOS","12","null","<div style=""font-size:60px;"">+</div>","null",""
"","","","","","html-button-response","43","47757","0.0-4.0-1.19","190","1","2022-10-11 03:21:34","d60b49b5908c80e163b920d72b52d584","182.118.239.50","Mozilla/5.0 (Linux; Android 12; M2012K11AC) AppleWebKit/537.36 (KHTML, like Gecko) Chrome/105.0.0.0 Mobile Safari/537.36 EdgA/105.0.1343.50","WebKit","Edge","","AndroidOS","12","860","<p>作为军队的指挥官，你可以选择发射导弹杀死 <strong>2名</strong> 敌国士兵，但会炸毁附近的 <strong>1棵</strong> 敌国树木。</p> <p>树木的照片如下图所示。</p> <p></p> <img src='stimuli/trees/1.png', style='max-width: 30%;'> </img> <p><strong>你是否选择发射武器？</strong></p>","1",""
"","","","","","html-keyboard-response","44","48768","0.0-4.0-0.20","190","1","2022-10-11 03:21:34","d60b49b5908c80e163b920d72b52d584","182.118.239.50","Mozilla/5.0 (Linux; Android 12; M2012K11AC) AppleWebKit/537.36 (KHTML, like Gecko) Chrome/105.0.0.0 Mobile Safari/537.36 EdgA/105.0.1343.50","WebKit","Edge","","AndroidOS","12","null","<div style=""font-size:60px;"">+</div>","null",""
"","","","","","html-button-response","45","49825","0.0-4.0-1.20","190","1","2022-10-11 03:21:34","d60b49b5908c80e163b920d72b52d584","182.118.239.50","Mozilla/5.0 (Linux; Android 12; M2012K11AC) AppleWebKit/537.36 (KHTML, like Gecko) Chrome/105.0.0.0 Mobile Safari/537.36 EdgA/105.0.1343.50","WebKit","Edge","","AndroidOS","12","1039","<p>作为军队的指挥官，你可以选择发射导弹杀死 <strong>10名</strong> 敌国士兵，但会炸毁附近的 <strong>1棵</strong> 敌国树木。</p> <p>树木的照片如下图所示。</p> <p></p> <img src='stimuli/trees/7.png', style='max-width: 30%;'> </img> <p><strong>你是否选择发射武器？</strong></p>","0",""
"","","","","","html-keyboard-response","46","50833","0.0-4.0-0.21","190","1","2022-10-11 03:21:34","d60b49b5908c80e163b920d72b52d584","182.118.239.50","Mozilla/5.0 (Linux; Android 12; M2012K11AC) AppleWebKit/537.36 (KHTML, like Gecko) Chrome/105.0.0.0 Mobile Safari/537.36 EdgA/105.0.1343.50","WebKit","Edge","","AndroidOS","12","null","<div style=""font-size:60px;"">+</div>","null",""
"","","","","","html-button-response","47","51513","0.0-4.0-1.21","190","1","2022-10-11 03:21:34","d60b49b5908c80e163b920d72b52d584","182.118.239.50","Mozilla/5.0 (Linux; Android 12; M2012K11AC) AppleWebKit/537.36 (KHTML, like Gecko) Chrome/105.0.0.0 Mobile Safari/537.36 EdgA/105.0.1343.50","WebKit","Edge","","AndroidOS","12","667","<p>作为军队的指挥官，你可以选择发射导弹杀死 <strong>5名</strong> 敌国士兵，但会炸毁附近的 <strong>1棵</strong> 敌国树木。</p> <p>树木的照片如下图所示。</p> <p></p> <img src='stimuli/trees/16.png', style='max-width: 30%;'> </img> <p><strong>你是否选择发射武器？</strong></p>","0",""
"","","","","","html-keyboard-response","48","52522","0.0-4.0-0.22","190","1","2022-10-11 03:21:34","d60b49b5908c80e163b920d72b52d584","182.118.239.50","Mozilla/5.0 (Linux; Android 12; M2012K11AC) AppleWebKit/537.36 (KHTML, like Gecko) Chrome/105.0.0.0 Mobile Safari/537.36 EdgA/105.0.1343.50","WebKit","Edge","","AndroidOS","12","null","<div style=""font-size:60px;"">+</div>","null",""
"","","","","","html-button-response","49","53274","0.0-4.0-1.22","190","1","2022-10-11 03:21:34","d60b49b5908c80e163b920d72b52d584","182.118.239.50","Mozilla/5.0 (Linux; Android 12; M2012K11AC) AppleWebKit/537.36 (KHTML, like Gecko) Chrome/105.0.0.0 Mobile Safari/537.36 EdgA/105.0.1343.50","WebKit","Edge","","AndroidOS","12","731","<p>作为军队的指挥官，你可以选择发射导弹杀死 <strong>3名</strong> 敌国士兵，但会炸毁附近的 <strong>1棵</strong> 敌国树木。</p> <p>树木的照片如下图所示。</p> <p></p> <img src='stimuli/trees/7.png', style='max-width: 30%;'> </img> <p><strong>你是否选择发射武器？</strong></p>","1",""
"","","","","","html-keyboard-response","50","54281","0.0-4.0-0.23","190","1","2022-10-11 03:21:34","d60b49b5908c80e163b920d72b52d584","182.118.239.50","Mozilla/5.0 (Linux; Android 12; M2012K11AC) AppleWebKit/537.36 (KHTML, like Gecko) Chrome/105.0.0.0 Mobile Safari/537.36 EdgA/105.0.1343.50","WebKit","Edge","","AndroidOS","12","null","<div style=""font-size:60px;"">+</div>","null",""
"","","","","","html-button-response","51","54940","0.0-4.0-1.23","190","1","2022-10-11 03:21:34","d60b49b5908c80e163b920d72b52d584","182.118.239.50","Mozilla/5.0 (Linux; Android 12; M2012K11AC) AppleWebKit/537.36 (KHTML, like Gecko) Chrome/105.0.0.0 Mobile Safari/537.36 EdgA/105.0.1343.50","WebKit","Edge","","AndroidOS","12","645","<p>作为军队的指挥官，你可以选择发射导弹杀死 <strong>7名</strong> 敌国士兵，但会炸毁附近的 <strong>1棵</strong> 敌国树木。</p> <p>树木的照片如下图所示。</p> <p></p> <img src='stimuli/trees/6.png', style='max-width: 30%;'> </img> <p><strong>你是否选择发射武器？</strong></p>","0",""
"","","","","","html-keyboard-response","52","55945","0.0-4.0-0.24","190","1","2022-10-11 03:21:34","d60b49b5908c80e163b920d72b52d584","182.118.239.50","Mozilla/5.0 (Linux; Android 12; M2012K11AC) AppleWebKit/537.36 (KHTML, like Gecko) Chrome/105.0.0.0 Mobile Safari/537.36 EdgA/105.0.1343.50","WebKit","Edge","","AndroidOS","12","null","<div style=""font-size:60px;"">+</div>","null",""
"","","","","","html-button-response","53","56518","0.0-4.0-1.24","190","1","2022-10-11 03:21:34","d60b49b5908c80e163b920d72b52d584","182.118.239.50","Mozilla/5.0 (Linux; Android 12; M2012K11AC) AppleWebKit/537.36 (KHTML, like Gecko) Chrome/105.0.0.0 Mobile Safari/537.36 EdgA/105.0.1343.50","WebKit","Edge","","AndroidOS","12","560","<p>作为军队的指挥官，你可以选择发射导弹杀死 <strong>6名</strong> 敌国士兵，但会误杀附近的 <strong>1名</strong> 敌国平民。</p> <p>平民照片如下图所示。</p> <p></p> <img src='stimuli/faces/NCF2.jpg', style='max-width: 30%;'> </img> <p><strong>你是否选择发射武器？</strong></p>","0",""
"","","","","","html-keyboard-response","54","57536","0.0-4.0-0.25","190","1","2022-10-11 03:21:34","d60b49b5908c80e163b920d72b52d584","182.118.239.50","Mozilla/5.0 (Linux; Android 12; M2012K11AC) AppleWebKit/537.36 (KHTML, like Gecko) Chrome/105.0.0.0 Mobile Safari/537.36 EdgA/105.0.1343.50","WebKit","Edge","","AndroidOS","12","null","<div style=""font-size:60px;"">+</div>","null",""
"","","","","","html-button-response","55","58159","0.0-4.0-1.25","190","1","2022-10-11 03:21:34","d60b49b5908c80e163b920d72b52d584","182.118.239.50","Mozilla/5.0 (Linux; Android 12; M2012K11AC) AppleWebKit/537.36 (KHTML, like Gecko) Chrome/105.0.0.0 Mobile Safari/537.36 EdgA/105.0.1343.50","WebKit","Edge","","AndroidOS","12","597","<p>作为军队的指挥官，你可以选择发射导弹杀死 <strong>5名</strong> 敌国士兵，但会炸毁附近的 <strong>1棵</strong> 敌国树木。</p> <p>树木的照片如下图所示。</p> <p></p> <img src='stimuli/trees/9.png', style='max-width: 30%;'> </img> <p><strong>你是否选择发射武器？</strong></p>","0",""
"","","","","","html-keyboard-response","56","59165","0.0-4.0-0.26","190","1","2022-10-11 03:21:34","d60b49b5908c80e163b920d72b52d584","182.118.239.50","Mozilla/5.0 (Linux; Android 12; M2012K11AC) AppleWebKit/537.36 (KHTML, like Gecko) Chrome/105.0.0.0 Mobile Safari/537.36 EdgA/105.0.1343.50","WebKit","Edge","","AndroidOS","12","null","<div style=""font-size:60px;"">+</div>","null",""
"","","","","","html-button-response","57","59854","0.0-4.0-1.26","190","1","2022-10-11 03:21:34","d60b49b5908c80e163b920d72b52d584","182.118.239.50","Mozilla/5.0 (Linux; Android 12; M2012K11AC) AppleWebKit/537.36 (KHTML, like Gecko) Chrome/105.0.0.0 Mobile Safari/537.36 EdgA/105.0.1343.50","WebKit","Edge","","AndroidOS","12","677","<p>作为军队的指挥官，你可以选择发射导弹杀死 <strong>10名</strong> 敌国士兵，但会误杀附近的 <strong>1名</strong> 敌国平民。</p> <p>平民照片如下图所示。</p> <p></p> <img src='stimuli/faces/NCF4.jpg', style='max-width: 30%;'> </img> <p><strong>你是否选择发射武器？</strong></p>","0",""
"","","","","","html-keyboard-response","58","60865","0.0-4.0-0.27","190","1","2022-10-11 03:21:34","d60b49b5908c80e163b920d72b52d584","182.118.239.50","Mozilla/5.0 (Linux; Android 12; M2012K11AC) AppleWebKit/537.36 (KHTML, like Gecko) Chrome/105.0.0.0 Mobile Safari/537.36 EdgA/105.0.1343.50","WebKit","Edge","","AndroidOS","12","null","<div style=""font-size:60px;"">+</div>","null",""
"","","","","","html-button-response","59","61556","0.0-4.0-1.27","190","1","2022-10-11 03:21:34","d60b49b5908c80e163b920d72b52d584","182.118.239.50","Mozilla/5.0 (Linux; Android 12; M2012K11AC) AppleWebKit/537.36 (KHTML, like Gecko) Chrome/105.0.0.0 Mobile Safari/537.36 EdgA/105.0.1343.50","WebKit","Edge","","AndroidOS","12","675","<p>作为军队的指挥官，你可以选择发射导弹杀死 <strong>2名</strong> 敌国士兵，但会炸毁附近的 <strong>1棵</strong> 敌国树木。</p> <p>树木的照片如下图所示。</p> <p></p> <img src='stimuli/trees/6.png', style='max-width: 30%;'> </img> <p><strong>你是否选择发射武器？</strong></p>","1",""
"","","","","","html-keyboard-response","60","62566","0.0-4.0-0.28","190","1","2022-10-11 03:21:34","d60b49b5908c80e163b920d72b52d584","182.118.239.50","Mozilla/5.0 (Linux; Android 12; M2012K11AC) AppleWebKit/537.36 (KHTML, like Gecko) Chrome/105.0.0.0 Mobile Safari/537.36 EdgA/105.0.1343.50","WebKit","Edge","","AndroidOS","12","null","<div style=""font-size:60px;"">+</div>","null",""
"","","","","","html-button-response","61","63290","0.0-4.0-1.28","190","1","2022-10-11 03:21:34","d60b49b5908c80e163b920d72b52d584","182.118.239.50","Mozilla/5.0 (Linux; Android 12; M2012K11AC) AppleWebKit/537.36 (KHTML, like Gecko) Chrome/105.0.0.0 Mobile Safari/537.36 EdgA/105.0.1343.50","WebKit","Edge","","AndroidOS","12","699","<p>作为军队的指挥官，你可以选择发射导弹杀死 <strong>2名</strong> 敌国士兵，但会误杀附近的 <strong>1名</strong> 敌国平民。</p> <p>平民照片如下图所示。</p> <p></p> <img src='stimuli/faces/NCF3.jpg', style='max-width: 30%;'> </img> <p><strong>你是否选择发射武器？</strong></p>","1",""
"","","","","","html-keyboard-response","62","64300","0.0-4.0-0.29","190","1","2022-10-11 03:21:34","d60b49b5908c80e163b920d72b52d584","182.118.239.50","Mozilla/5.0 (Linux; Android 12; M2012K11AC) AppleWebKit/537.36 (KHTML, like Gecko) Chrome/105.0.0.0 Mobile Safari/537.36 EdgA/105.0.1343.50","WebKit","Edge","","AndroidOS","12","null","<div style=""font-size:60px;"">+</div>","null",""
"","","","","","html-button-response","63","65075","0.0-4.0-1.29","190","1","2022-10-11 03:21:34","d60b49b5908c80e163b920d72b52d584","182.118.239.50","Mozilla/5.0 (Linux; Android 12; M2012K11AC) AppleWebKit/537.36 (KHTML, like Gecko) Chrome/105.0.0.0 Mobile Safari/537.36 EdgA/105.0.1343.50","WebKit","Edge","","AndroidOS","12","744","<p>作为军队的指挥官，你可以选择发射导弹杀死 <strong>1名</strong> 敌国士兵，但会炸毁附近的 <strong>1棵</strong> 敌国树木。</p> <p>树木的照片如下图所示。</p> <p></p> <img src='stimuli/trees/10.png', style='max-width: 30%;'> </img> <p><strong>你是否选择发射武器？</strong></p>","1",""
"","","","","","html-keyboard-response","64","66089","0.0-4.0-0.30","190","1","2022-10-11 03:21:34","d60b49b5908c80e163b920d72b52d584","182.118.239.50","Mozilla/5.0 (Linux; Android 12; M2012K11AC) AppleWebKit/537.36 (KHTML, like Gecko) Chrome/105.0.0.0 Mobile Safari/537.36 EdgA/105.0.1343.50","WebKit","Edge","","AndroidOS","12","null","<div style=""font-size:60px;"">+</div>","null",""
"","","","","","html-button-response","65","66771","0.0-4.0-1.30","190","1","2022-10-11 03:21:34","d60b49b5908c80e163b920d72b52d584","182.118.239.50","Mozilla/5.0 (Linux; Android 12; M2012K11AC) AppleWebKit/537.36 (KHTML, like Gecko) Chrome/105.0.0.0 Mobile Safari/537.36 EdgA/105.0.1343.50","WebKit","Edge","","AndroidOS","12","670","<p>作为军队的指挥官，你可以选择发射导弹杀死 <strong>8名</strong> 敌国士兵，但会误杀附近的 <strong>1名</strong> 敌国平民。</p> <p>平民照片如下图所示。</p> <p></p> <img src='stimuli/faces/NCM2.jpg', style='max-width: 30%;'> </img> <p><strong>你是否选择发射武器？</strong></p>","0",""
"","","","","","html-keyboard-response","66","67788","0.0-4.0-0.31","190","1","2022-10-11 03:21:34","d60b49b5908c80e163b920d72b52d584","182.118.239.50","Mozilla/5.0 (Linux; Android 12; M2012K11AC) AppleWebKit/537.36 (KHTML, like Gecko) Chrome/105.0.0.0 Mobile Safari/537.36 EdgA/105.0.1343.50","WebKit","Edge","","AndroidOS","12","null","<div style=""font-size:60px;"">+</div>","null",""
"","","","","","html-button-response","67","68568","0.0-4.0-1.31","190","1","2022-10-11 03:21:34","d60b49b5908c80e163b920d72b52d584","182.118.239.50","Mozilla/5.0 (Linux; Android 12; M2012K11AC) AppleWebKit/537.36 (KHTML, like Gecko) Chrome/105.0.0.0 Mobile Safari/537.36 EdgA/105.0.1343.50","WebKit","Edge","","AndroidOS","12","749","<p>作为军队的指挥官，你可以选择发射导弹杀死 <strong>4名</strong> 敌国士兵，但会误杀附近的 <strong>1名</strong> 敌国平民。</p> <p>平民照片如下图所示。</p> <p></p> <img src='stimuli/faces/NCM1.jpg', style='max-width: 30%;'> </img> <p><strong>你是否选择发射武器？</strong></p>","0",""
"","","","","","html-keyboard-response","68","69585","0.0-4.0-0.32","190","1","2022-10-11 03:21:34","d60b49b5908c80e163b920d72b52d584","182.118.239.50","Mozilla/5.0 (Linux; Android 12; M2012K11AC) AppleWebKit/537.36 (KHTML, like Gecko) Chrome/105.0.0.0 Mobile Safari/537.36 EdgA/105.0.1343.50","WebKit","Edge","","AndroidOS","12","null","<div style=""font-size:60px;"">+</div>","null",""
"","","","","","html-button-response","69","70279","0.0-4.0-1.32","190","1","2022-10-11 03:21:34","d60b49b5908c80e163b920d72b52d584","182.118.239.50","Mozilla/5.0 (Linux; Android 12; M2012K11AC) AppleWebKit/537.36 (KHTML, like Gecko) Chrome/105.0.0.0 Mobile Safari/537.36 EdgA/105.0.1343.50","WebKit","Edge","","AndroidOS","12","667","<p>作为军队的指挥官，你可以选择发射导弹杀死 <strong>6名</strong> 敌国士兵，但会误杀附近的 <strong>1名</strong> 敌国平民。</p> <p>平民照片如下图所示。</p> <p></p> <img src='stimuli/faces/NCM7.jpg', style='max-width: 30%;'> </img> <p><strong>你是否选择发射武器？</strong></p>","0",""
"","","","","","html-keyboard-response","70","71292","0.0-4.0-0.33","190","1","2022-10-11 03:21:34","d60b49b5908c80e163b920d72b52d584","182.118.239.50","Mozilla/5.0 (Linux; Android 12; M2012K11AC) AppleWebKit/537.36 (KHTML, like Gecko) Chrome/105.0.0.0 Mobile Safari/537.36 EdgA/105.0.1343.50","WebKit","Edge","","AndroidOS","12","null","<div style=""font-size:60px;"">+</div>","null",""
"","","","","","html-button-response","71","71990","0.0-4.0-1.33","190","1","2022-10-11 03:21:34","d60b49b5908c80e163b920d72b52d584","182.118.239.50","Mozilla/5.0 (Linux; Android 12; M2012K11AC) AppleWebKit/537.36 (KHTML, like Gecko) Chrome/105.0.0.0 Mobile Safari/537.36 EdgA/105.0.1343.50","WebKit","Edge","","AndroidOS","12","667","<p>作为军队的指挥官，你可以选择发射导弹杀死 <strong>2名</strong> 敌国士兵，但会炸毁附近的 <strong>1棵</strong> 敌国树木。</p> <p>树木的照片如下图所示。</p> <p></p> <img src='stimuli/trees/5.png', style='max-width: 30%;'> </img> <p><strong>你是否选择发射武器？</strong></p>","1",""
"","","","","","html-keyboard-response","72","73006","0.0-4.0-0.34","190","1","2022-10-11 03:21:34","d60b49b5908c80e163b920d72b52d584","182.118.239.50","Mozilla/5.0 (Linux; Android 12; M2012K11AC) AppleWebKit/537.36 (KHTML, like Gecko) Chrome/105.0.0.0 Mobile Safari/537.36 EdgA/105.0.1343.50","WebKit","Edge","","AndroidOS","12","null","<div style=""font-size:60px;"">+</div>","null",""
"","","","","","html-button-response","73","73811","0.0-4.0-1.34","190","1","2022-10-11 03:21:34","d60b49b5908c80e163b920d72b52d584","182.118.239.50","Mozilla/5.0 (Linux; Android 12; M2012K11AC) AppleWebKit/537.36 (KHTML, like Gecko) Chrome/105.0.0.0 Mobile Safari/537.36 EdgA/105.0.1343.50","WebKit","Edge","","AndroidOS","12","788","<p>作为军队的指挥官，你可以选择发射导弹杀死 <strong>8名</strong> 敌国士兵，但会误杀附近的 <strong>1名</strong> 敌国平民。</p> <p>平民照片如下图所示。</p> <p></p> <img src='stimuli/faces/NCM4.jpg', style='max-width: 30%;'> </img> <p><strong>你是否选择发射武器？</strong></p>","0",""
"","","","","","html-keyboard-response","74","74829","0.0-4.0-0.35","190","1","2022-10-11 03:21:34","d60b49b5908c80e163b920d72b52d584","182.118.239.50","Mozilla/5.0 (Linux; Android 12; M2012K11AC) AppleWebKit/537.36 (KHTML, like Gecko) Chrome/105.0.0.0 Mobile Safari/537.36 EdgA/105.0.1343.50","WebKit","Edge","","AndroidOS","12","null","<div style=""font-size:60px;"">+</div>","null",""
"","","","","","html-button-response","75","75436","0.0-4.0-1.35","190","1","2022-10-11 03:21:34","d60b49b5908c80e163b920d72b52d584","182.118.239.50","Mozilla/5.0 (Linux; Android 12; M2012K11AC) AppleWebKit/537.36 (KHTML, like Gecko) Chrome/105.0.0.0 Mobile Safari/537.36 EdgA/105.0.1343.50","WebKit","Edge","","AndroidOS","12","576","<p>作为军队的指挥官，你可以选择发射导弹杀死 <strong>7名</strong> 敌国士兵，但会误杀附近的 <strong>1名</strong> 敌国平民。</p> <p>平民照片如下图所示。</p> <p></p> <img src='stimuli/faces/NCM5.jpg', style='max-width: 30%;'> </img> <p><strong>你是否选择发射武器？</strong></p>","0",""
"","","","","","html-keyboard-response","76","76447","0.0-4.0-0.36","190","1","2022-10-11 03:21:34","d60b49b5908c80e163b920d72b52d584","182.118.239.50","Mozilla/5.0 (Linux; Android 12; M2012K11AC) AppleWebKit/537.36 (KHTML, like Gecko) Chrome/105.0.0.0 Mobile Safari/537.36 EdgA/105.0.1343.50","WebKit","Edge","","AndroidOS","12","null","<div style=""font-size:60px;"">+</div>","null",""
"","","","","","html-button-response","77","77108","0.0-4.0-1.36","190","1","2022-10-11 03:21:34","d60b49b5908c80e163b920d72b52d584","182.118.239.50","Mozilla/5.0 (Linux; Android 12; M2012K11AC) AppleWebKit/537.36 (KHTML, like Gecko) Chrome/105.0.0.0 Mobile Safari/537.36 EdgA/105.0.1343.50","WebKit","Edge","","AndroidOS","12","628","<p>作为军队的指挥官，你可以选择发射导弹杀死 <strong>9名</strong> 敌国士兵，但会误杀附近的 <strong>1名</strong> 敌国平民。</p> <p>平民照片如下图所示。</p> <p></p> <img src='stimuli/faces/NCM1.jpg', style='max-width: 30%;'> </img> <p><strong>你是否选择发射武器？</strong></p>","0",""
"","","","","","html-keyboard-response","78","78122","0.0-4.0-0.37","190","1","2022-10-11 03:21:34","d60b49b5908c80e163b920d72b52d584","182.118.239.50","Mozilla/5.0 (Linux; Android 12; M2012K11AC) AppleWebKit/537.36 (KHTML, like Gecko) Chrome/105.0.0.0 Mobile Safari/537.36 EdgA/105.0.1343.50","WebKit","Edge","","AndroidOS","12","null","<div style=""font-size:60px;"">+</div>","null",""
"","","","","","html-button-response","79","78694","0.0-4.0-1.37","190","1","2022-10-11 03:21:34","d60b49b5908c80e163b920d72b52d584","182.118.239.50","Mozilla/5.0 (Linux; Android 12; M2012K11AC) AppleWebKit/537.36 (KHTML, like Gecko) Chrome/105.0.0.0 Mobile Safari/537.36 EdgA/105.0.1343.50","WebKit","Edge","","AndroidOS","12","555","<p>作为军队的指挥官，你可以选择发射导弹杀死 <strong>9名</strong> 敌国士兵，但会误杀附近的 <strong>1名</strong> 敌国平民。</p> <p>平民照片如下图所示。</p> <p></p> <img src='stimuli/faces/NCM6.jpg', style='max-width: 30%;'> </img> <p><strong>你是否选择发射武器？</strong></p>","0",""
"","","","","","html-keyboard-response","80","79711","0.0-4.0-0.38","190","1","2022-10-11 03:21:34","d60b49b5908c80e163b920d72b52d584","182.118.239.50","Mozilla/5.0 (Linux; Android 12; M2012K11AC) AppleWebKit/537.36 (KHTML, like Gecko) Chrome/105.0.0.0 Mobile Safari/537.36 EdgA/105.0.1343.50","WebKit","Edge","","AndroidOS","12","null","<div style=""font-size:60px;"">+</div>","null",""
"","","","","","html-button-response","81","80220","0.0-4.0-1.38","190","1","2022-10-11 03:21:34","d60b49b5908c80e163b920d72b52d584","182.118.239.50","Mozilla/5.0 (Linux; Android 12; M2012K11AC) AppleWebKit/537.36 (KHTML, like Gecko) Chrome/105.0.0.0 Mobile Safari/537.36 EdgA/105.0.1343.50","WebKit","Edge","","AndroidOS","12","479","<p>作为军队的指挥官，你可以选择发射导弹杀死 <strong>5名</strong> 敌国士兵，但会误杀附近的 <strong>1名</strong> 敌国平民。</p> <p>平民照片如下图所示。</p> <p></p> <img src='stimuli/faces/NCF2.jpg', style='max-width: 30%;'> </img> <p><strong>你是否选择发射武器？</strong></p>","0",""
"","","","","","html-keyboard-response","82","81230","0.0-4.0-0.39","190","1","2022-10-11 03:21:34","d60b49b5908c80e163b920d72b52d584","182.118.239.50","Mozilla/5.0 (Linux; Android 12; M2012K11AC) AppleWebKit/537.36 (KHTML, like Gecko) Chrome/105.0.0.0 Mobile Safari/537.36 EdgA/105.0.1343.50","WebKit","Edge","","AndroidOS","12","null","<div style=""font-size:60px;"">+</div>","null",""
"","","","","","html-button-response","83","81842","0.0-4.0-1.39","190","1","2022-10-11 03:21:34","d60b49b5908c80e163b920d72b52d584","182.118.239.50","Mozilla/5.0 (Linux; Android 12; M2012K11AC) AppleWebKit/537.36 (KHTML, like Gecko) Chrome/105.0.0.0 Mobile Safari/537.36 EdgA/105.0.1343.50","WebKit","Edge","","AndroidOS","12","582","<p>作为军队的指挥官，你可以选择发射导弹杀死 <strong>10名</strong> 敌国士兵，但会炸毁附近的 <strong>1棵</strong> 敌国树木。</p> <p>树木的照片如下图所示。</p> <p></p> <img src='stimuli/trees/2.png', style='max-width: 30%;'> </img> <p><strong>你是否选择发射武器？</strong></p>","0",""
"","","","","","html-keyboard-response","84","82851","0.0-4.0-0.40","190","1","2022-10-11 03:21:34","d60b49b5908c80e163b920d72b52d584","182.118.239.50","Mozilla/5.0 (Linux; Android 12; M2012K11AC) AppleWebKit/537.36 (KHTML, like Gecko) Chrome/105.0.0.0 Mobile Safari/537.36 EdgA/105.0.1343.50","WebKit","Edge","","AndroidOS","12","null","<div style=""font-size:60px;"">+</div>","null",""
"","","","","","html-button-response","85","83649","0.0-4.0-1.40","190","1","2022-10-11 03:21:34","d60b49b5908c80e163b920d72b52d584","182.118.239.50","Mozilla/5.0 (Linux; Android 12; M2012K11AC) AppleWebKit/537.36 (KHTML, like Gecko) Chrome/105.0.0.0 Mobile Safari/537.36 EdgA/105.0.1343.50","WebKit","Edge","","AndroidOS","12","767","<p>作为军队的指挥官，你可以选择发射导弹杀死 <strong>5名</strong> 敌国士兵，但会误杀附近的 <strong>1名</strong> 敌国平民。</p> <p>平民照片如下图所示。</p> <p></p> <img src='stimuli/faces/NCF1.jpg', style='max-width: 30%;'> </img> <p><strong>你是否选择发射武器？</strong></p>","0",""
"","","","","","html-keyboard-response","86","84666","0.0-4.0-0.41","190","1","2022-10-11 03:21:34","d60b49b5908c80e163b920d72b52d584","182.118.239.50","Mozilla/5.0 (Linux; Android 12; M2012K11AC) AppleWebKit/537.36 (KHTML, like Gecko) Chrome/105.0.0.0 Mobile Safari/537.36 EdgA/105.0.1343.50","WebKit","Edge","","AndroidOS","12","null","<div style=""font-size:60px;"">+</div>","null",""
"","","","","","html-button-response","87","85336","0.0-4.0-1.41","190","1","2022-10-11 03:21:34","d60b49b5908c80e163b920d72b52d584","182.118.239.50","Mozilla/5.0 (Linux; Android 12; M2012K11AC) AppleWebKit/537.36 (KHTML, like Gecko) Chrome/105.0.0.0 Mobile Safari/537.36 EdgA/105.0.1343.50","WebKit","Edge","","AndroidOS","12","635","<p>作为军队的指挥官，你可以选择发射导弹杀死 <strong>10名</strong> 敌国士兵，但会炸毁附近的 <strong>1棵</strong> 敌国树木。</p> <p>树木的照片如下图所示。</p> <p></p> <img src='stimuli/trees/16.png', style='max-width: 30%;'> </img> <p><strong>你是否选择发射武器？</strong></p>","0",""
"","","","","","html-keyboard-response","88","86350","0.0-4.0-0.42","190","1","2022-10-11 03:21:34","d60b49b5908c80e163b920d72b52d584","182.118.239.50","Mozilla/5.0 (Linux; Android 12; M2012K11AC) AppleWebKit/537.36 (KHTML, like Gecko) Chrome/105.0.0.0 Mobile Safari/537.36 EdgA/105.0.1343.50","WebKit","Edge","","AndroidOS","12","null","<div style=""font-size:60px;"">+</div>","null",""
"","","","","","html-button-response","89","87057","0.0-4.0-1.42","190","1","2022-10-11 03:21:34","d60b49b5908c80e163b920d72b52d584","182.118.239.50","Mozilla/5.0 (Linux; Android 12; M2012K11AC) AppleWebKit/537.36 (KHTML, like Gecko) Chrome/105.0.0.0 Mobile Safari/537.36 EdgA/105.0.1343.50","WebKit","Edge","","AndroidOS","12","672","<p>作为军队的指挥官，你可以选择发射导弹杀死 <strong>2名</strong> 敌国士兵，但会误杀附近的 <strong>1名</strong> 敌国平民。</p> <p>平民照片如下图所示。</p> <p></p> <img src='stimuli/faces/NCM2.jpg', style='max-width: 30%;'> </img> <p><strong>你是否选择发射武器？</strong></p>","1",""
"","","","","","html-keyboard-response","90","88078","0.0-4.0-0.43","190","1","2022-10-11 03:21:34","d60b49b5908c80e163b920d72b52d584","182.118.239.50","Mozilla/5.0 (Linux; Android 12; M2012K11AC) AppleWebKit/537.36 (KHTML, like Gecko) Chrome/105.0.0.0 Mobile Safari/537.36 EdgA/105.0.1343.50","WebKit","Edge","","AndroidOS","12","null","<div style=""font-size:60px;"">+</div>","null",""
"","","","","","html-button-response","91","88860","0.0-4.0-1.43","190","1","2022-10-11 03:21:34","d60b49b5908c80e163b920d72b52d584","182.118.239.50","Mozilla/5.0 (Linux; Android 12; M2012K11AC) AppleWebKit/537.36 (KHTML, like Gecko) Chrome/105.0.0.0 Mobile Safari/537.36 EdgA/105.0.1343.50","WebKit","Edge","","AndroidOS","12","749","<p>作为军队的指挥官，你可以选择发射导弹杀死 <strong>1名</strong> 敌国士兵，但会炸毁附近的 <strong>1棵</strong> 敌国树木。</p> <p>树木的照片如下图所示。</p> <p></p> <img src='stimuli/trees/8.png', style='max-width: 30%;'> </img> <p><strong>你是否选择发射武器？</strong></p>","1",""
"","","","","","html-keyboard-response","92","89879","0.0-4.0-0.44","190","1","2022-10-11 03:21:34","d60b49b5908c80e163b920d72b52d584","182.118.239.50","Mozilla/5.0 (Linux; Android 12; M2012K11AC) AppleWebKit/537.36 (KHTML, like Gecko) Chrome/105.0.0.0 Mobile Safari/537.36 EdgA/105.0.1343.50","WebKit","Edge","","AndroidOS","12","null","<div style=""font-size:60px;"">+</div>","null",""
"","","","","","html-button-response","93","90555","0.0-4.0-1.44","190","1","2022-10-11 03:21:34","d60b49b5908c80e163b920d72b52d584","182.118.239.50","Mozilla/5.0 (Linux; Android 12; M2012K11AC) AppleWebKit/537.36 (KHTML, like Gecko) Chrome/105.0.0.0 Mobile Safari/537.36 EdgA/105.0.1343.50","WebKit","Edge","","AndroidOS","12","647","<p>作为军队的指挥官，你可以选择发射导弹杀死 <strong>8名</strong> 敌国士兵，但会炸毁附近的 <strong>1棵</strong> 敌国树木。</p> <p>树木的照片如下图所示。</p> <p></p> <img src='stimuli/trees/9.png', style='max-width: 30%;'> </img> <p><strong>你是否选择发射武器？</strong></p>","0",""
"","","","","","html-keyboard-response","94","91570","0.0-4.0-0.45","190","1","2022-10-11 03:21:34","d60b49b5908c80e163b920d72b52d584","182.118.239.50","Mozilla/5.0 (Linux; Android 12; M2012K11AC) AppleWebKit/537.36 (KHTML, like Gecko) Chrome/105.0.0.0 Mobile Safari/537.36 EdgA/105.0.1343.50","WebKit","Edge","","AndroidOS","12","null","<div style=""font-size:60px;"">+</div>","null",""
"","","","","","html-button-response","95","92411","0.0-4.0-1.45","190","1","2022-10-11 03:21:34","d60b49b5908c80e163b920d72b52d584","182.118.239.50","Mozilla/5.0 (Linux; Android 12; M2012K11AC) AppleWebKit/537.36 (KHTML, like Gecko) Chrome/105.0.0.0 Mobile Safari/537.36 EdgA/105.0.1343.50","WebKit","Edge","","AndroidOS","12","801","<p>作为军队的指挥官，你可以选择发射导弹杀死 <strong>9名</strong> 敌国士兵，但会炸毁附近的 <strong>1棵</strong> 敌国树木。</p> <p>树木的照片如下图所示。</p> <p></p> <img src='stimuli/trees/1.png', style='max-width: 30%;'> </img> <p><strong>你是否选择发射武器？</strong></p>","0",""
"","","","","","html-keyboard-response","96","93427","0.0-4.0-0.46","190","1","2022-10-11 03:21:34","d60b49b5908c80e163b920d72b52d584","182.118.239.50","Mozilla/5.0 (Linux; Android 12; M2012K11AC) AppleWebKit/537.36 (KHTML, like Gecko) Chrome/105.0.0.0 Mobile Safari/537.36 EdgA/105.0.1343.50","WebKit","Edge","","AndroidOS","12","null","<div style=""font-size:60px;"">+</div>","null",""
"","","","","","html-button-response","97","94175","0.0-4.0-1.46","190","1","2022-10-11 03:21:34","d60b49b5908c80e163b920d72b52d584","182.118.239.50","Mozilla/5.0 (Linux; Android 12; M2012K11AC) AppleWebKit/537.36 (KHTML, like Gecko) Chrome/105.0.0.0 Mobile Safari/537.36 EdgA/105.0.1343.50","WebKit","Edge","","AndroidOS","12","727","<p>作为军队的指挥官，你可以选择发射导弹杀死 <strong>8名</strong> 敌国士兵，但会炸毁附近的 <strong>1棵</strong> 敌国树木。</p> <p>树木的照片如下图所示。</p> <p></p> <img src='stimuli/trees/5.png', style='max-width: 30%;'> </img> <p><strong>你是否选择发射武器？</strong></p>","0",""
"","","","","","html-keyboard-response","98","95190","0.0-4.0-0.47","190","1","2022-10-11 03:21:34","d60b49b5908c80e163b920d72b52d584","182.118.239.50","Mozilla/5.0 (Linux; Android 12; M2012K11AC) AppleWebKit/537.36 (KHTML, like Gecko) Chrome/105.0.0.0 Mobile Safari/537.36 EdgA/105.0.1343.50","WebKit","Edge","","AndroidOS","12","null","<div style=""font-size:60px;"">+</div>","null",""
"","","","","","html-button-response","99","95932","0.0-4.0-1.47","190","1","2022-10-11 03:21:34","d60b49b5908c80e163b920d72b52d584","182.118.239.50","Mozilla/5.0 (Linux; Android 12; M2012K11AC) AppleWebKit/537.36 (KHTML, like Gecko) Chrome/105.0.0.0 Mobile Safari/537.36 EdgA/105.0.1343.50","WebKit","Edge","","AndroidOS","12","706","<p>作为军队的指挥官，你可以选择发射导弹杀死 <strong>10名</strong> 敌国士兵，但会误杀附近的 <strong>1名</strong> 敌国平民。</p> <p>平民照片如下图所示。</p> <p></p> <img src='stimuli/faces/NCM3.jpg', style='max-width: 30%;'> </img> <p><strong>你是否选择发射武器？</strong></p>","0",""
"","","","","","html-keyboard-response","100","96948","0.0-4.0-0.48","190","1","2022-10-11 03:21:34","d60b49b5908c80e163b920d72b52d584","182.118.239.50","Mozilla/5.0 (Linux; Android 12; M2012K11AC) AppleWebKit/537.36 (KHTML, like Gecko) Chrome/105.0.0.0 Mobile Safari/537.36 EdgA/105.0.1343.50","WebKit","Edge","","AndroidOS","12","null","<div style=""font-size:60px;"">+</div>","null",""
"","","","","","html-button-response","101","97601","0.0-4.0-1.48","190","1","2022-10-11 03:21:34","d60b49b5908c80e163b920d72b52d584","182.118.239.50","Mozilla/5.0 (Linux; Android 12; M2012K11AC) AppleWebKit/537.36 (KHTML, like Gecko) Chrome/105.0.0.0 Mobile Safari/537.36 EdgA/105.0.1343.50","WebKit","Edge","","AndroidOS","12","627","<p>作为军队的指挥官，你可以选择发射导弹杀死 <strong>9名</strong> 敌国士兵，但会炸毁附近的 <strong>1棵</strong> 敌国树木。</p> <p>树木的照片如下图所示。</p> <p></p> <img src='stimuli/trees/12.png', style='max-width: 30%;'> </img> <p><strong>你是否选择发射武器？</strong></p>","0",""
"","","","","","html-keyboard-response","102","98619","0.0-4.0-0.49","190","1","2022-10-11 03:21:34","d60b49b5908c80e163b920d72b52d584","182.118.239.50","Mozilla/5.0 (Linux; Android 12; M2012K11AC) AppleWebKit/537.36 (KHTML, like Gecko) Chrome/105.0.0.0 Mobile Safari/537.36 EdgA/105.0.1343.50","WebKit","Edge","","AndroidOS","12","null","<div style=""font-size:60px;"">+</div>","null",""
"","","","","","html-button-response","103","99559","0.0-4.0-1.49","190","1","2022-10-11 03:21:34","d60b49b5908c80e163b920d72b52d584","182.118.239.50","Mozilla/5.0 (Linux; Android 12; M2012K11AC) AppleWebKit/537.36 (KHTML, like Gecko) Chrome/105.0.0.0 Mobile Safari/537.36 EdgA/105.0.1343.50","WebKit","Edge","","AndroidOS","12","905","<p>作为军队的指挥官，你可以选择发射导弹杀死 <strong>3名</strong> 敌国士兵，但会炸毁附近的 <strong>1棵</strong> 敌国树木。</p> <p>树木的照片如下图所示。</p> <p></p> <img src='stimuli/trees/14.png', style='max-width: 30%;'> </img> <p><strong>你是否选择发射武器？</strong></p>","1",""
"","","","","","html-keyboard-response","104","100573","0.0-4.0-0.50","190","1","2022-10-11 03:21:34","d60b49b5908c80e163b920d72b52d584","182.118.239.50","Mozilla/5.0 (Linux; Android 12; M2012K11AC) AppleWebKit/537.36 (KHTML, like Gecko) Chrome/105.0.0.0 Mobile Safari/537.36 EdgA/105.0.1343.50","WebKit","Edge","","AndroidOS","12","null","<div style=""font-size:60px;"">+</div>","null",""
"","","","","","html-button-response","105","101270","0.0-4.0-1.50","190","1","2022-10-11 03:21:34","d60b49b5908c80e163b920d72b52d584","182.118.239.50","Mozilla/5.0 (Linux; Android 12; M2012K11AC) AppleWebKit/537.36 (KHTML, like Gecko) Chrome/105.0.0.0 Mobile Safari/537.36 EdgA/105.0.1343.50","WebKit","Edge","","AndroidOS","12","667","<p>作为军队的指挥官，你可以选择发射导弹杀死 <strong>4名</strong> 敌国士兵，但会误杀附近的 <strong>1名</strong> 敌国平民。</p> <p>平民照片如下图所示。</p> <p></p> <img src='stimuli/faces/NCM4.jpg', style='max-width: 30%;'> </img> <p><strong>你是否选择发射武器？</strong></p>","0",""
"","","","","","html-keyboard-response","106","102283","0.0-4.0-0.51","190","1","2022-10-11 03:21:34","d60b49b5908c80e163b920d72b52d584","182.118.239.50","Mozilla/5.0 (Linux; Android 12; M2012K11AC) AppleWebKit/537.36 (KHTML, like Gecko) Chrome/105.0.0.0 Mobile Safari/537.36 EdgA/105.0.1343.50","WebKit","Edge","","AndroidOS","12","null","<div style=""font-size:60px;"">+</div>","null",""
"","","","","","html-button-response","107","102975","0.0-4.0-1.51","190","1","2022-10-11 03:21:34","d60b49b5908c80e163b920d72b52d584","182.118.239.50","Mozilla/5.0 (Linux; Android 12; M2012K11AC) AppleWebKit/537.36 (KHTML, like Gecko) Chrome/105.0.0.0 Mobile Safari/537.36 EdgA/105.0.1343.50","WebKit","Edge","","AndroidOS","12","677","<p>作为军队的指挥官，你可以选择发射导弹杀死 <strong>7名</strong> 敌国士兵，但会炸毁附近的 <strong>1棵</strong> 敌国树木。</p> <p>树木的照片如下图所示。</p> <p></p> <img src='stimuli/trees/4.png', style='max-width: 30%;'> </img> <p><strong>你是否选择发射武器？</strong></p>","0",""
"","","","","","html-keyboard-response","108","103990","0.0-4.0-0.52","190","1","2022-10-11 03:21:34","d60b49b5908c80e163b920d72b52d584","182.118.239.50","Mozilla/5.0 (Linux; Android 12; M2012K11AC) AppleWebKit/537.36 (KHTML, like Gecko) Chrome/105.0.0.0 Mobile Safari/537.36 EdgA/105.0.1343.50","WebKit","Edge","","AndroidOS","12","null","<div style=""font-size:60px;"">+</div>","null",""
"","","","","","html-button-response","109","104622","0.0-4.0-1.52","190","1","2022-10-11 03:21:34","d60b49b5908c80e163b920d72b52d584","182.118.239.50","Mozilla/5.0 (Linux; Android 12; M2012K11AC) AppleWebKit/537.36 (KHTML, like Gecko) Chrome/105.0.0.0 Mobile Safari/537.36 EdgA/105.0.1343.50","WebKit","Edge","","AndroidOS","12","593","<p>作为军队的指挥官，你可以选择发射导弹杀死 <strong>8名</strong> 敌国士兵，但会炸毁附近的 <strong>1棵</strong> 敌国树木。</p> <p>树木的照片如下图所示。</p> <p></p> <img src='stimuli/trees/13.png', style='max-width: 30%;'> </img> <p><strong>你是否选择发射武器？</strong></p>","0",""
"","","","","","html-keyboard-response","110","105634","0.0-4.0-0.53","190","1","2022-10-11 03:21:34","d60b49b5908c80e163b920d72b52d584","182.118.239.50","Mozilla/5.0 (Linux; Android 12; M2012K11AC) AppleWebKit/537.36 (KHTML, like Gecko) Chrome/105.0.0.0 Mobile Safari/537.36 EdgA/105.0.1343.50","WebKit","Edge","","AndroidOS","12","null","<div style=""font-size:60px;"">+</div>","null",""
"","","","","","html-button-response","111","106317","0.0-4.0-1.53","190","1","2022-10-11 03:21:34","d60b49b5908c80e163b920d72b52d584","182.118.239.50","Mozilla/5.0 (Linux; Android 12; M2012K11AC) AppleWebKit/537.36 (KHTML, like Gecko) Chrome/105.0.0.0 Mobile Safari/537.36 EdgA/105.0.1343.50","WebKit","Edge","","AndroidOS","12","658","<p>作为军队的指挥官，你可以选择发射导弹杀死 <strong>9名</strong> 敌国士兵，但会炸毁附近的 <strong>1棵</strong> 敌国树木。</p> <p>树木的照片如下图所示。</p> <p></p> <img src='stimuli/trees/11.png', style='max-width: 30%;'> </img> <p><strong>你是否选择发射武器？</strong></p>","0",""
"","","","","","html-keyboard-response","112","107335","0.0-4.0-0.54","190","1","2022-10-11 03:21:34","d60b49b5908c80e163b920d72b52d584","182.118.239.50","Mozilla/5.0 (Linux; Android 12; M2012K11AC) AppleWebKit/537.36 (KHTML, like Gecko) Chrome/105.0.0.0 Mobile Safari/537.36 EdgA/105.0.1343.50","WebKit","Edge","","AndroidOS","12","null","<div style=""font-size:60px;"">+</div>","null",""
"","","","","","html-button-response","113","108177","0.0-4.0-1.54","190","1","2022-10-11 03:21:34","d60b49b5908c80e163b920d72b52d584","182.118.239.50","Mozilla/5.0 (Linux; Android 12; M2012K11AC) AppleWebKit/537.36 (KHTML, like Gecko) Chrome/105.0.0.0 Mobile Safari/537.36 EdgA/105.0.1343.50","WebKit","Edge","","AndroidOS","12","806","<p>作为军队的指挥官，你可以选择发射导弹杀死 <strong>4名</strong> 敌国士兵，但会炸毁附近的 <strong>1棵</strong> 敌国树木。</p> <p>树木的照片如下图所示。</p> <p></p> <img src='stimuli/trees/4.png', style='max-width: 30%;'> </img> <p><strong>你是否选择发射武器？</strong></p>","0",""
"","","","","","html-keyboard-response","114","109198","0.0-4.0-0.55","190","1","2022-10-11 03:21:34","d60b49b5908c80e163b920d72b52d584","182.118.239.50","Mozilla/5.0 (Linux; Android 12; M2012K11AC) AppleWebKit/537.36 (KHTML, like Gecko) Chrome/105.0.0.0 Mobile Safari/537.36 EdgA/105.0.1343.50","WebKit","Edge","","AndroidOS","12","null","<div style=""font-size:60px;"">+</div>","null",""
"","","","","","html-button-response","115","110078","0.0-4.0-1.55","190","1","2022-10-11 03:21:34","d60b49b5908c80e163b920d72b52d584","182.118.239.50","Mozilla/5.0 (Linux; Android 12; M2012K11AC) AppleWebKit/537.36 (KHTML, like Gecko) Chrome/105.0.0.0 Mobile Safari/537.36 EdgA/105.0.1343.50","WebKit","Edge","","AndroidOS","12","845","<p>作为军队的指挥官，你可以选择发射导弹杀死 <strong>2名</strong> 敌国士兵，但会炸毁附近的 <strong>1棵</strong> 敌国树木。</p> <p>树木的照片如下图所示。</p> <p></p> <img src='stimuli/trees/11.png', style='max-width: 30%;'> </img> <p><strong>你是否选择发射武器？</strong></p>","1",""
"","","","","","html-keyboard-response","116","111100","0.0-4.0-0.56","190","1","2022-10-11 03:21:34","d60b49b5908c80e163b920d72b52d584","182.118.239.50","Mozilla/5.0 (Linux; Android 12; M2012K11AC) AppleWebKit/537.36 (KHTML, like Gecko) Chrome/105.0.0.0 Mobile Safari/537.36 EdgA/105.0.1343.50","WebKit","Edge","","AndroidOS","12","null","<div style=""font-size:60px;"">+</div>","null",""
"","","","","","html-button-response","117","111956","0.0-4.0-1.56","190","1","2022-10-11 03:21:34","d60b49b5908c80e163b920d72b52d584","182.118.239.50","Mozilla/5.0 (Linux; Android 12; M2012K11AC) AppleWebKit/537.36 (KHTML, like Gecko) Chrome/105.0.0.0 Mobile Safari/537.36 EdgA/105.0.1343.50","WebKit","Edge","","AndroidOS","12","839","<p>作为军队的指挥官，你可以选择发射导弹杀死 <strong>8名</strong> 敌国士兵，但会炸毁附近的 <strong>1棵</strong> 敌国树木。</p> <p>树木的照片如下图所示。</p> <p></p> <img src='stimuli/trees/14.png', style='max-width: 30%;'> </img> <p><strong>你是否选择发射武器？</strong></p>","0",""
"","","","","","html-keyboard-response","118","112969","0.0-4.0-0.57","190","1","2022-10-11 03:21:34","d60b49b5908c80e163b920d72b52d584","182.118.239.50","Mozilla/5.0 (Linux; Android 12; M2012K11AC) AppleWebKit/537.36 (KHTML, like Gecko) Chrome/105.0.0.0 Mobile Safari/537.36 EdgA/105.0.1343.50","WebKit","Edge","","AndroidOS","12","null","<div style=""font-size:60px;"">+</div>","null",""
"","","","","","html-button-response","119","113965","0.0-4.0-1.57","190","1","2022-10-11 03:21:34","d60b49b5908c80e163b920d72b52d584","182.118.239.50","Mozilla/5.0 (Linux; Android 12; M2012K11AC) AppleWebKit/537.36 (KHTML, like Gecko) Chrome/105.0.0.0 Mobile Safari/537.36 EdgA/105.0.1343.50","WebKit","Edge","","AndroidOS","12","972","<p>作为军队的指挥官，你可以选择发射导弹杀死 <strong>3名</strong> 敌国士兵，但会炸毁附近的 <strong>1棵</strong> 敌国树木。</p> <p>树木的照片如下图所示。</p> <p></p> <img src='stimuli/trees/2.png', style='max-width: 30%;'> </img> <p><strong>你是否选择发射武器？</strong></p>","1",""
"","","","","","html-keyboard-response","120","114977","0.0-4.0-0.58","190","1","2022-10-11 03:21:34","d60b49b5908c80e163b920d72b52d584","182.118.239.50","Mozilla/5.0 (Linux; Android 12; M2012K11AC) AppleWebKit/537.36 (KHTML, like Gecko) Chrome/105.0.0.0 Mobile Safari/537.36 EdgA/105.0.1343.50","WebKit","Edge","","AndroidOS","12","null","<div style=""font-size:60px;"">+</div>","null",""
"","","","","","html-button-response","121","115683","0.0-4.0-1.58","190","1","2022-10-11 03:21:34","d60b49b5908c80e163b920d72b52d584","182.118.239.50","Mozilla/5.0 (Linux; Android 12; M2012K11AC) AppleWebKit/537.36 (KHTML, like Gecko) Chrome/105.0.0.0 Mobile Safari/537.36 EdgA/105.0.1343.50","WebKit","Edge","","AndroidOS","12","689","<p>作为军队的指挥官，你可以选择发射导弹杀死 <strong>4名</strong> 敌国士兵，但会误杀附近的 <strong>1名</strong> 敌国平民。</p> <p>平民照片如下图所示。</p> <p></p> <img src='stimuli/faces/NCM7.jpg', style='max-width: 30%;'> </img> <p><strong>你是否选择发射武器？</strong></p>","0",""
"","","","","","html-keyboard-response","122","116699","0.0-4.0-0.59","190","1","2022-10-11 03:21:34","d60b49b5908c80e163b920d72b52d584","182.118.239.50","Mozilla/5.0 (Linux; Android 12; M2012K11AC) AppleWebKit/537.36 (KHTML, like Gecko) Chrome/105.0.0.0 Mobile Safari/537.36 EdgA/105.0.1343.50","WebKit","Edge","","AndroidOS","12","null","<div style=""font-size:60px;"">+</div>","null",""
"","","","","","html-button-response","123","117388","0.0-4.0-1.59","190","1","2022-10-11 03:21:34","d60b49b5908c80e163b920d72b52d584","182.118.239.50","Mozilla/5.0 (Linux; Android 12; M2012K11AC) AppleWebKit/537.36 (KHTML, like Gecko) Chrome/105.0.0.0 Mobile Safari/537.36 EdgA/105.0.1343.50","WebKit","Edge","","AndroidOS","12","651","<p>作为军队的指挥官，你可以选择发射导弹杀死 <strong>7名</strong> 敌国士兵，但会误杀附近的 <strong>1名</strong> 敌国平民。</p> <p>平民照片如下图所示。</p> <p></p> <img src='stimuli/faces/NCF6.jpg', style='max-width: 30%;'> </img> <p><strong>你是否选择发射武器？</strong></p>","0",""
"","","","","","html-keyboard-response","124","118409","0.0-4.0-0.60","190","1","2022-10-11 03:21:34","d60b49b5908c80e163b920d72b52d584","182.118.239.50","Mozilla/5.0 (Linux; Android 12; M2012K11AC) AppleWebKit/537.36 (KHTML, like Gecko) Chrome/105.0.0.0 Mobile Safari/537.36 EdgA/105.0.1343.50","WebKit","Edge","","AndroidOS","12","null","<div style=""font-size:60px;"">+</div>","null",""
"","","","","","html-button-response","125","119015","0.0-4.0-1.60","190","1","2022-10-11 03:21:34","d60b49b5908c80e163b920d72b52d584","182.118.239.50","Mozilla/5.0 (Linux; Android 12; M2012K11AC) AppleWebKit/537.36 (KHTML, like Gecko) Chrome/105.0.0.0 Mobile Safari/537.36 EdgA/105.0.1343.50","WebKit","Edge","","AndroidOS","12","589","<p>作为军队的指挥官，你可以选择发射导弹杀死 <strong>7名</strong> 敌国士兵，但会炸毁附近的 <strong>1棵</strong> 敌国树木。</p> <p>树木的照片如下图所示。</p> <p></p> <img src='stimuli/trees/8.png', style='max-width: 30%;'> </img> <p><strong>你是否选择发射武器？</strong></p>","0",""
"","","","","","html-keyboard-response","126","120025","0.0-4.0-0.61","190","1","2022-10-11 03:21:34","d60b49b5908c80e163b920d72b52d584","182.118.239.50","Mozilla/5.0 (Linux; Android 12; M2012K11AC) AppleWebKit/537.36 (KHTML, like Gecko) Chrome/105.0.0.0 Mobile Safari/537.36 EdgA/105.0.1343.50","WebKit","Edge","","AndroidOS","12","null","<div style=""font-size:60px;"">+</div>","null",""
"","","","","","html-button-response","127","120688","0.0-4.0-1.61","190","1","2022-10-11 03:21:34","d60b49b5908c80e163b920d72b52d584","182.118.239.50","Mozilla/5.0 (Linux; Android 12; M2012K11AC) AppleWebKit/537.36 (KHTML, like Gecko) Chrome/105.0.0.0 Mobile Safari/537.36 EdgA/105.0.1343.50","WebKit","Edge","","AndroidOS","12","640","<p>作为军队的指挥官，你可以选择发射导弹杀死 <strong>6名</strong> 敌国士兵，但会误杀附近的 <strong>1名</strong> 敌国平民。</p> <p>平民照片如下图所示。</p> <p></p> <img src='stimuli/faces/NCF3.jpg', style='max-width: 30%;'> </img> <p><strong>你是否选择发射武器？</strong></p>","0",""
"","","","","","html-keyboard-response","128","121704","0.0-4.0-0.62","190","1","2022-10-11 03:21:34","d60b49b5908c80e163b920d72b52d584","182.118.239.50","Mozilla/5.0 (Linux; Android 12; M2012K11AC) AppleWebKit/537.36 (KHTML, like Gecko) Chrome/105.0.0.0 Mobile Safari/537.36 EdgA/105.0.1343.50","WebKit","Edge","","AndroidOS","12","null","<div style=""font-size:60px;"">+</div>","null",""
"","","","","","html-button-response","129","122852","0.0-4.0-1.62","190","1","2022-10-11 03:21:34","d60b49b5908c80e163b920d72b52d584","182.118.239.50","Mozilla/5.0 (Linux; Android 12; M2012K11AC) AppleWebKit/537.36 (KHTML, like Gecko) Chrome/105.0.0.0 Mobile Safari/537.36 EdgA/105.0.1343.50","WebKit","Edge","","AndroidOS","12","1135","<p>作为军队的指挥官，你可以选择发射导弹杀死 <strong>9名</strong> 敌国士兵，但会误杀附近的 <strong>1名</strong> 敌国平民。</p> <p>平民照片如下图所示。</p> <p></p> <img src='stimuli/faces/NCM8.jpg', style='max-width: 30%;'> </img> <p><strong>你是否选择发射武器？</strong></p>","0",""
"","","","","","html-keyboard-response","130","123860","0.0-4.0-0.63","190","1","2022-10-11 03:21:34","d60b49b5908c80e163b920d72b52d584","182.118.239.50","Mozilla/5.0 (Linux; Android 12; M2012K11AC) AppleWebKit/537.36 (KHTML, like Gecko) Chrome/105.0.0.0 Mobile Safari/537.36 EdgA/105.0.1343.50","WebKit","Edge","","AndroidOS","12","null","<div style=""font-size:60px;"">+</div>","null",""
"","","","","","html-button-response","131","125390","0.0-4.0-1.63","190","1","2022-10-11 03:21:34","d60b49b5908c80e163b920d72b52d584","182.118.239.50","Mozilla/5.0 (Linux; Android 12; M2012K11AC) AppleWebKit/537.36 (KHTML, like Gecko) Chrome/105.0.0.0 Mobile Safari/537.36 EdgA/105.0.1343.50","WebKit","Edge","","AndroidOS","12","1523","<p>作为军队的指挥官，你可以选择发射导弹杀死 <strong>1名</strong> 敌国士兵，但会误杀附近的 <strong>1名</strong> 敌国平民。</p> <p>平民照片如下图所示。</p> <p></p> <img src='stimuli/faces/NCF7.jpg', style='max-width: 30%;'> </img> <p><strong>你是否选择发射武器？</strong></p>","1",""
"","","","","","survey-multi-choice","132","129240","0.0-5.0","190","1","2022-10-11 03:21:34","d60b49b5908c80e163b920d72b52d584","182.118.239.50","Mozilla/5.0 (Linux; Android 12; M2012K11AC) AppleWebKit/537.36 (KHTML, like Gecko) Chrome/105.0.0.0 Mobile Safari/537.36 EdgA/105.0.1343.50","WebKit","Edge","","AndroidOS","12","3837","","{""Attention1"":""""}","[0]"
"","","","","","html-button-response","133","130367","0.0-6.0","190","1","2022-10-11 03:21:34","d60b49b5908c80e163b920d72b52d584","182.118.239.50","Mozilla/5.0 (Linux; Android 12; M2012K11AC) AppleWebKit/537.36 (KHTML, like Gecko) Chrome/105.0.0.0 Mobile Safari/537.36 EdgA/105.0.1343.50","WebKit","Edge","","AndroidOS","12","1106","<p style=""font-size:20px;font-weight:bold;"">恭喜！</p><p>你已经完成了实验的第一部分。</p><p>请休息放松一下，然后进入第二部分。</p><p>这部分大约需要10分钟。</p>","0",""
"","","","","","survey-text","134","166588","0.0-7.0","190","1","2022-10-11 03:21:34","d60b49b5908c80e163b920d72b52d584","182.118.239.50","Mozilla/5.0 (Linux; Android 12; M2012K11AC) AppleWebKit/537.36 (KHTML, like Gecko) Chrome/105.0.0.0 Mobile Safari/537.36 EdgA/105.0.1343.50","WebKit","Edge","","AndroidOS","12","35149","","{""Age"":""20"",""Nation"":""中国"",""Born"":""河北省邯郸市"",""Live"":""河南省鹤壁市"",""Ethnic"":""汉族"",""Alipay"":""16639229329""}",""
"","","","","","survey-multi-choice","135","185508","0.0-8.0","190","1","2022-10-11 03:21:34","d60b49b5908c80e163b920d72b52d584","182.118.239.50","Mozilla/5.0 (Linux; Android 12; M2012K11AC) AppleWebKit/537.36 (KHTML, like Gecko) Chrome/105.0.0.0 Mobile Safari/537.36 EdgA/105.0.1343.50","WebKit","Edge","","AndroidOS","12","18897","","{""Gender"":""男"",""Education"":""高中毕业"",""Income"":""￥35,000-￥69,999"",""Children"":""0"",""Race"":""亚洲人""}","[0,1,2,3,4]"
"","","","","","survey-multi-select","136","194408","0.0-9.0","190","1","2022-10-11 03:21:34","d60b49b5908c80e163b920d72b52d584","182.118.239.50","Mozilla/5.0 (Linux; Android 12; M2012K11AC) AppleWebKit/537.36 (KHTML, like Gecko) Chrome/105.0.0.0 Mobile Safari/537.36 EdgA/105.0.1343.50","WebKit","Edge","","AndroidOS","12","8870","","{""Marriage"":[""未婚""],""Religion"":[""无宗教信仰""]}","[0,1]"
"","","","","","survey-multi-choice","137","198267","0.0-10.0","190","1","2022-10-11 03:21:34","d60b49b5908c80e163b920d72b52d584","182.118.239.50","Mozilla/5.0 (Linux; Android 12; M2012K11AC) AppleWebKit/537.36 (KHTML, like Gecko) Chrome/105.0.0.0 Mobile Safari/537.36 EdgA/105.0.1343.50","WebKit","Edge","","AndroidOS","12","3831","","{""SES"":""3""}","[0]"
"","","","","","html-button-response","138","200513","0.0-11.0","190","1","2022-10-11 03:21:34","d60b49b5908c80e163b920d72b52d584","182.118.239.50","Mozilla/5.0 (Linux; Android 12; M2012K11AC) AppleWebKit/537.36 (KHTML, like Gecko) Chrome/105.0.0.0 Mobile Safari/537.36 EdgA/105.0.1343.50","WebKit","Edge","","AndroidOS","12","2221","<p><strong>请判断下列陈述在多大程度上可以形容你？</p><p> (1 = ""和我一点都不像"" to 5 = ""非常像我"".)</strong></p>","0",""
"","","","","","survey-likert","139","212479","0.0-12.0","190","1","2022-10-11 03:21:34","d60b49b5908c80e163b920d72b52d584","182.118.239.50","Mozilla/5.0 (Linux; Android 12; M2012K11AC) AppleWebKit/537.36 (KHTML, like Gecko) Chrome/105.0.0.0 Mobile Safari/537.36 EdgA/105.0.1343.50","WebKit","Edge","","AndroidOS","12","11927","","{""Aggression1"":3,""Aggression2"":2,""Aggression3"":4,""Aggression4"":1,""Aggression5"":4,""Aggression6"":3,""Aggression7"":1,""Aggression8"":4,""Aggression9"":3}","[0,1,2,3,4,5,6,7,8]"
"","","","","","html-button-response","140","213942","0.0-13.0","190","1","2022-10-11 03:21:34","d60b49b5908c80e163b920d72b52d584","182.118.239.50","Mozilla/5.0 (Linux; Android 12; M2012K11AC) AppleWebKit/537.36 (KHTML, like Gecko) Chrome/105.0.0.0 Mobile Safari/537.36 EdgA/105.0.1343.50","WebKit","Edge","","AndroidOS","12","1440","<p><strong>请判断你在多大程度上同意下列陈述。</strong></p>","0",""
"","","","","","survey-likert","141","240977","0.0-14.0","190","1","2022-10-11 03:21:34","d60b49b5908c80e163b920d72b52d584","182.118.239.50","Mozilla/5.0 (Linux; Android 12; M2012K11AC) AppleWebKit/537.36 (KHTML, like Gecko) Chrome/105.0.0.0 Mobile Safari/537.36 EdgA/105.0.1343.50","WebKit","Edge","","AndroidOS","12","26987","","{""scale13"":3,""scale6"":4,""scale17"":4,""scale4"":3,""scale28"":4,""scale19"":2,""scale20"":3,""scale16"":3,""scale18"":2,""scale26"":4,""scale25"":3,""scale21"":4,""scale1"":3,""scale10"":3,""scale14"":2,""scale22"":4,""scale15"":3,""scale3"":4,""scale12"":4,""scale8"":2,""scale11"":3,""scale9"":3,""scale27"":2,""scale23"":3,""scale2"":4,""scale24"":3,""scale5"":3,""scale7"":2}","[12,5,16,3,27,18,19,15,17,25,24,20,0,9,13,21,14,2,11,7,10,8,26,22,1,23,4,6]"
"","","","","","html-button-response","142","242536","0.0-15.0","190","1","2022-10-11 03:21:34","d60b49b5908c80e163b920d72b52d584","182.118.239.50","Mozilla/5.0 (Linux; Android 12; M2012K11AC) AppleWebKit/537.36 (KHTML, like Gecko) Chrome/105.0.0.0 Mobile Safari/537.36 EdgA/105.0.1343.50","WebKit","Edge","","AndroidOS","12","1532","<p><strong>请判断你在多大程度上同意下列陈述。</strong></p>","0",""
"","","","","","survey-likert","143","258785","0.0-16.0","190","1","2022-10-11 03:21:34","d60b49b5908c80e163b920d72b52d584","182.118.239.50","Mozilla/5.0 (Linux; Android 12; M2012K11AC) AppleWebKit/537.36 (KHTML, like Gecko) Chrome/105.0.0.0 Mobile Safari/537.36 EdgA/105.0.1343.50","WebKit","Edge","","AndroidOS","12","16212","","{""sdo12"":5,""sdo2"":4,""sdo11"":6,""sdo5"":6,""sdo1"":3,""sdo13"":5,""sdo15"":5,""sdo4"":4,""sdo14"":6,""sdo7"":3,""sdo8"":5,""sdo16"":4,""sdo6"":6,""sdo3"":5,""sdo9"":5,""sdo10"":3}","[11,1,10,4,0,12,14,3,13,6,7,15,5,2,8,9]"
"","","","","","html-button-response","144","259794","0.0-17.0","190","1","2022-10-11 03:21:34","d60b49b5908c80e163b920d72b52d584","182.118.239.50","Mozilla/5.0 (Linux; Android 12; M2012K11AC) AppleWebKit/537.36 (KHTML, like Gecko) Chrome/105.0.0.0 Mobile Safari/537.36 EdgA/105.0.1343.50","WebKit","Edge","","AndroidOS","12","984","<p><strong>请判断你在多大程度上同意下列陈述。</strong></p>","0",""
"","","","","","survey-likert","145","278163","0.0-18.0","190","1","2022-10-11 03:21:34","d60b49b5908c80e163b920d72b52d584","182.118.239.50","Mozilla/5.0 (Linux; Android 12; M2012K11AC) AppleWebKit/537.36 (KHTML, like Gecko) Chrome/105.0.0.0 Mobile Safari/537.36 EdgA/105.0.1343.50","WebKit","Edge","","AndroidOS","12","18334","","{""caring1"":3,""liking1"":0,""caring2"":4,""protection1"":3,""liking2"":1,""caring3"":4,""protection2"":3,""liking3"":1,""protection3"":4,""caring4"":3,""liking4"":0,""protection4"":3,""caring5"":4,""liking5"":3,""protection5"":1}","[0,1,2,3,4,5,6,7,8,9,10,11,12,13,14]"
"","","","","","html-button-response","146","279279","0.0-19.0","190","1","2022-10-11 03:21:34","d60b49b5908c80e163b920d72b52d584","182.118.239.50","Mozilla/5.0 (Linux; Android 12; M2012K11AC) AppleWebKit/537.36 (KHTML, like Gecko) Chrome/105.0.0.0 Mobile Safari/537.36 EdgA/105.0.1343.50","WebKit","Edge","","AndroidOS","12","1094","<p><strong>请判断下列场景中你的内心感受有多柔软。</strong></p>","0",""
"","","","","","survey-likert","147","289732","0.0-20.0","190","1","2022-10-11 03:21:34","d60b49b5908c80e163b920d72b52d584","182.118.239.50","Mozilla/5.0 (Linux; Android 12; M2012K11AC) AppleWebKit/537.36 (KHTML, like Gecko) Chrome/105.0.0.0 Mobile Safari/537.36 EdgA/105.0.1343.50","WebKit","Edge","","AndroidOS","12","10427","","{""tenderness-positive1"":4,""tenderness-negative1"":2,""tenderness-negative2"":3,""tenderness-positive2"":3,""tenderness-positive3"":2,""tenderness-negative3"":1,""tenderness-positive4"":3,""tendereness-negative4"":2,""tendernness-negative5"":4,""tenderness-positive5"":3}","[0,1,2,3,4,5,6,7,8,9]"
"","","","","","survey-multi-choice","148","295656","0.0-21.0","190","1","2022-10-11 03:21:34","d60b49b5908c80e163b920d72b52d584","182.118.239.50","Mozilla/5.0 (Linux; Android 12; M2012K11AC) AppleWebKit/537.36 (KHTML, like Gecko) Chrome/105.0.0.0 Mobile Safari/537.36 EdgA/105.0.1343.50","WebKit","Edge","","AndroidOS","12","5902","","{""Attention2"":""其他""}","[0]"
"","","","","","html-button-response","149","296721","0.0-22.0","190","1","2022-10-11 03:21:34","d60b49b5908c80e163b920d72b52d584","182.118.239.50","Mozilla/5.0 (Linux; Android 12; M2012K11AC) AppleWebKit/537.36 (KHTML, like Gecko) Chrome/105.0.0.0 Mobile Safari/537.36 EdgA/105.0.1343.50","WebKit","Edge","","AndroidOS","12","1045","<p><strong>请判断你在多大程度上同意下列陈述。</strong></p>","0",""
"","","","","","survey-likert","150","324672","0.0-23.0","190","1","2022-10-11 03:21:34","d60b49b5908c80e163b920d72b52d584","182.118.239.50","Mozilla/5.0 (Linux; Android 12; M2012K11AC) AppleWebKit/537.36 (KHTML, like Gecko) Chrome/105.0.0.0 Mobile Safari/537.36 EdgA/105.0.1343.50","WebKit","Edge","","AndroidOS","12","27917","","{""Nation4"":3,""Nation7"":2,""Patri2"":4,""Patri9"":1,""Patri10"":3,""Nation5"":4,""Nation8"":3,""Patri7"":4,""Patri3"":4,""Patri6"":2,""Patri5"":3,""Patri12"":0,""Nation6"":4,""Patri4"":3,""Patri11"":4,""Nation3"":2,""Patri1"":4,""Nation2"":3,""Nation1"":3,""Patri8"":2}","[15,18,1,8,9,16,19,6,2,5,4,11,17,3,10,14,0,13,12,7]"
"","","","","","html-button-response","151","325664","0.0-24.0","190","1","2022-10-11 03:21:34","d60b49b5908c80e163b920d72b52d584","182.118.239.50","Mozilla/5.0 (Linux; Android 12; M2012K11AC) AppleWebKit/537.36 (KHTML, like Gecko) Chrome/105.0.0.0 Mobile Safari/537.36 EdgA/105.0.1343.50","WebKit","Edge","","AndroidOS","12","964","<p><strong>请判断你在多大程度上同意下列陈述。</strong></p>","0",""
"","","","","","survey-likert","152","347932","0.0-25.0","190","1","2022-10-11 03:21:34","d60b49b5908c80e163b920d72b52d584","182.118.239.50","Mozilla/5.0 (Linux; Android 12; M2012K11AC) AppleWebKit/537.36 (KHTML, like Gecko) Chrome/105.0.0.0 Mobile Safari/537.36 EdgA/105.0.1343.50","WebKit","Edge","","AndroidOS","12","22232","","{""vc4"":7,""vi2"":5,""Robot"":6,""vc3"":4,""hc2"":8,""hi1"":6,""hi3"":7,""vi4"":5,""vi1"":8,""hi2"":7,""hc4"":7,""vc2"":5,""vc1"":8,""vi3"":6,""hi4"":8,""hc1"":6,""hc3"":7}","[16,5,7,15,10,0,2,8,4,1,12,14,13,6,3,9,11]"
"","","","","","survey-text","153","1171782","0.0-26.0","190","1","2022-10-11 03:21:34","d60b49b5908c80e163b920d72b52d584","182.118.239.50","Mozilla/5.0 (Linux; Android 12; M2012K11AC) AppleWebKit/537.36 (KHTML, like Gecko) Chrome/105.0.0.0 Mobile Safari/537.36 EdgA/105.0.1343.50","WebKit","Edge","","AndroidOS","12","823818","","{""Comments"":""没有""}",""
"","","","","","html-button-response","154","1173203","0.0-27.0","190","1","2022-10-11 03:21:34","d60b49b5908c80e163b920d72b52d584","182.118.239.50","Mozilla/5.0 (Linux; Android 12; M2012K11AC) AppleWebKit/537.36 (KHTML, like Gecko) Chrome/105.0.0.0 Mobile Safari/537.36 EdgA/105.0.1343.50","WebKit","Edge","","AndroidOS","12","1393","<strong><p>恭喜你完成了实验！</p><p>感谢您的参与。</p></strong>","0",""
