"success","timeout","failed_images","failed_audio","failed_video","trial_type","trial_index","time_elapsed","internal_node_id","run_id","condition","recorded_at","source_code_version","ip","user_agent","device","browser","browser_version","platform","platform_version","rt","stimulus","response","question_order"
"true","false","[]","[]","[]","preload","0","1714","0.0-0.0","2","1","2022-10-06 05:48:53","ab77af23db77f379346475f7099b4f97","220.246.255.87","Mozilla/5.0 (Windows NT 10.0; Win64; x64) AppleWebKit/537.36 (KHTML, like Gecko) Chrome/105.0.0.0 Safari/537.36 Edg/105.0.1343.53","WebKit","Edge","105.0.1343.53","Windows","10.0","","","",""
"true","","","","","fullscreen","1","3675","0.0-1.0","2","1","2022-10-06 05:48:53","ab77af23db77f379346475f7099b4f97","220.246.255.87","Mozilla/5.0 (Windows NT 10.0; Win64; x64) AppleWebKit/537.36 (KHTML, like Gecko) Chrome/105.0.0.0 Safari/537.36 Edg/105.0.1343.53","WebKit","Edge","105.0.1343.53","Windows","10.0","","","",""
"","","","","","html-button-response","2","11177","0.0-2.0","2","1","2022-10-06 05:48:53","ab77af23db77f379346475f7099b4f97","220.246.255.87","Mozilla/5.0 (Windows NT 10.0; Win64; x64) AppleWebKit/537.36 (KHTML, like Gecko) Chrome/105.0.0.0 Safari/537.36 Edg/105.0.1343.53","WebKit","Edge","105.0.1343.53","Windows","10.0","7500","<p style=""font-size:20px;font-weight:bold;"">实验知情同意书</p><p style=""text-align:left;""><strong>实验名称：</strong>社会冲突研究</p><p style=""text-align:left;""><strong>主要研究者：</strong>韩晓春副教授（北京师范大学心理学部）</p><p style=""text-align:left;""><strong>联系方式：</strong>发送邮件至xiaochun.han@bnu.edu.cn</p><p style=""text-align:left;""><strong>研究目的：</strong>研究旨在了解人类面对群体冲突时的决策方式，以及相关的心理学特质。实验调查大约需要20分钟。</p><p style=""text-align:left;""><strong>实验流程：</strong>实验包含两部分。第一部分呈现一系列群体冲突场景，请你决定如何对这些冲突进行反应，大约需要10分钟完成。第二部分包含一系列人口统计学信息收集和心理学问卷，大约需要10分钟完成。</p><p style=""text-align:left;""><strong>参加及退出规则：</strong>参加本实验完全取决于您的个人意愿。在参与过程中，您可以随时退出，并且不用承担任何后果。</p><p style=""text-align:left;""><strong>隐私：</strong>本实验完全匿名进行，不会收集您的姓名或其他能够识别您身份的信息。实验中收集的作答仅用作科学研究使用，可能会在学术期刊/书籍上发表，或者用于教学，您的数据未来可能会和其他研究者或实验室分享，但您的个人身份不会被识别。</p><p style=""text-align:left;""><strong>实验报酬：</strong>实验完成后，您将获得15元人民币报酬，以感谢您的时间和努力。调查问卷中包含几道题目用以测验您作答时的认真度。只有完成全部实验，并且正确回答认真度测验的被试才能获得实验报酬。实验报酬将通过支付宝转账发放。</p><p style=""text-align:left;font-size:20px;""><strong>如果您同意以上实验知情同意书的内容，请点击'同意并且开始实验'按钮；否则请关闭浏览器界面，退出实验。</strong></p>","0",""
"","","","","","html-button-response","3","30463","0.0-3.0","2","1","2022-10-06 05:48:53","ab77af23db77f379346475f7099b4f97","220.246.255.87","Mozilla/5.0 (Windows NT 10.0; Win64; x64) AppleWebKit/537.36 (KHTML, like Gecko) Chrome/105.0.0.0 Safari/537.36 Edg/105.0.1343.53","WebKit","Edge","105.0.1343.53","Windows","10.0","19284","<p ><strong>实验任务一：</strong></p><p>请想象你的国家与另一个国家发生了军事冲突。</p><p>你是国家军队的指挥官，你将如何在冲突中进行决策。</p><p>具体来说，作为军队指挥官，请你决定是否发射导弹进行打击。</p><p>接下来，你会面对一系列场景，请仔细阅读每个场景，然后进行决策。</p><p>这部分实验任务大约需要10分钟。</p><p><strong>实验过程中，请集中注意力。</strong></p>","0",""
"","","","","","html-keyboard-response","4","31466","0.0-4.0-0.0","2","1","2022-10-06 05:48:53","ab77af23db77f379346475f7099b4f97","220.246.255.87","Mozilla/5.0 (Windows NT 10.0; Win64; x64) AppleWebKit/537.36 (KHTML, like Gecko) Chrome/105.0.0.0 Safari/537.36 Edg/105.0.1343.53","WebKit","Edge","105.0.1343.53","Windows","10.0","null","<div style=""font-size:60px;"">+</div>","null",""
"","","","","","html-button-response","5","58829","0.0-4.0-1.0","2","1","2022-10-06 05:48:53","ab77af23db77f379346475f7099b4f97","220.246.255.87","Mozilla/5.0 (Windows NT 10.0; Win64; x64) AppleWebKit/537.36 (KHTML, like Gecko) Chrome/105.0.0.0 Safari/537.36 Edg/105.0.1343.53","WebKit","Edge","105.0.1343.53","Windows","10.0","27358","<p>作为军队的指挥官，你可以选择发射导弹杀死 <strong>1名</strong> 敌国士兵，但会误杀附近的 <strong>1名</strong> 敌国平民。</p> <p>平民照片如下图所示。</p> <p></p> <img src='stimuli/faces/NCM1.jpg', style='max-width: 30%;'> </img> <p><strong>你是否选择发射武器？</strong></p>","1",""
"","","","","","html-keyboard-response","6","59845","0.0-4.0-0.1","2","1","2022-10-06 05:48:53","ab77af23db77f379346475f7099b4f97","220.246.255.87","Mozilla/5.0 (Windows NT 10.0; Win64; x64) AppleWebKit/537.36 (KHTML, like Gecko) Chrome/105.0.0.0 Safari/537.36 Edg/105.0.1343.53","WebKit","Edge","105.0.1343.53","Windows","10.0","null","<div style=""font-size:60px;"">+</div>","null",""
"","","","","","html-button-response","7","61377","0.0-4.0-1.1","2","1","2022-10-06 05:48:53","ab77af23db77f379346475f7099b4f97","220.246.255.87","Mozilla/5.0 (Windows NT 10.0; Win64; x64) AppleWebKit/537.36 (KHTML, like Gecko) Chrome/105.0.0.0 Safari/537.36 Edg/105.0.1343.53","WebKit","Edge","105.0.1343.53","Windows","10.0","1528","<p>作为军队的指挥官，你可以选择发射导弹杀死 <strong>7名</strong> 敌国士兵，但会误杀附近的 <strong>1名</strong> 敌国平民。</p> <p>平民照片如下图所示。</p> <p></p> <img src='stimuli/faces/NCM3.jpg', style='max-width: 30%;'> </img> <p><strong>你是否选择发射武器？</strong></p>","1",""
"","","","","","html-keyboard-response","8","62383","0.0-4.0-0.2","2","1","2022-10-06 05:48:53","ab77af23db77f379346475f7099b4f97","220.246.255.87","Mozilla/5.0 (Windows NT 10.0; Win64; x64) AppleWebKit/537.36 (KHTML, like Gecko) Chrome/105.0.0.0 Safari/537.36 Edg/105.0.1343.53","WebKit","Edge","105.0.1343.53","Windows","10.0","null","<div style=""font-size:60px;"">+</div>","null",""
"","","","","","html-button-response","9","65843","0.0-4.0-1.2","2","1","2022-10-06 05:48:53","ab77af23db77f379346475f7099b4f97","220.246.255.87","Mozilla/5.0 (Windows NT 10.0; Win64; x64) AppleWebKit/537.36 (KHTML, like Gecko) Chrome/105.0.0.0 Safari/537.36 Edg/105.0.1343.53","WebKit","Edge","105.0.1343.53","Windows","10.0","3457","<p>作为军队的指挥官，你可以选择发射导弹杀死 <strong>8名</strong> 敌国士兵，但会炸毁附近的 <strong>1棵</strong> 敌国树木。</p> <p>树木的照片如下图所示。</p> <p></p> <img src='stimuli/trees/14.png', style='max-width: 30%;'> </img> <p><strong>你是否选择发射武器？</strong></p>","0",""
"","","","","","html-keyboard-response","10","66846","0.0-4.0-0.3","2","1","2022-10-06 05:48:53","ab77af23db77f379346475f7099b4f97","220.246.255.87","Mozilla/5.0 (Windows NT 10.0; Win64; x64) AppleWebKit/537.36 (KHTML, like Gecko) Chrome/105.0.0.0 Safari/537.36 Edg/105.0.1343.53","WebKit","Edge","105.0.1343.53","Windows","10.0","null","<div style=""font-size:60px;"">+</div>","null",""
"","","","","","html-button-response","11","70511","0.0-4.0-1.3","2","1","2022-10-06 05:48:53","ab77af23db77f379346475f7099b4f97","220.246.255.87","Mozilla/5.0 (Windows NT 10.0; Win64; x64) AppleWebKit/537.36 (KHTML, like Gecko) Chrome/105.0.0.0 Safari/537.36 Edg/105.0.1343.53","WebKit","Edge","105.0.1343.53","Windows","10.0","3662","<p>作为军队的指挥官，你可以选择发射导弹杀死 <strong>7名</strong> 敌国士兵，但会误杀附近的 <strong>1名</strong> 敌国平民。</p> <p>平民照片如下图所示。</p> <p></p> <img src='stimuli/faces/NCM7.jpg', style='max-width: 30%;'> </img> <p><strong>你是否选择发射武器？</strong></p>","1",""
"","","","","","html-keyboard-response","12","71513","0.0-4.0-0.4","2","1","2022-10-06 05:48:53","ab77af23db77f379346475f7099b4f97","220.246.255.87","Mozilla/5.0 (Windows NT 10.0; Win64; x64) AppleWebKit/537.36 (KHTML, like Gecko) Chrome/105.0.0.0 Safari/537.36 Edg/105.0.1343.53","WebKit","Edge","105.0.1343.53","Windows","10.0","null","<div style=""font-size:60px;"">+</div>","null",""
"","","","","","html-button-response","13","73821","0.0-4.0-1.4","2","1","2022-10-06 05:48:53","ab77af23db77f379346475f7099b4f97","220.246.255.87","Mozilla/5.0 (Windows NT 10.0; Win64; x64) AppleWebKit/537.36 (KHTML, like Gecko) Chrome/105.0.0.0 Safari/537.36 Edg/105.0.1343.53","WebKit","Edge","105.0.1343.53","Windows","10.0","2304","<p>作为军队的指挥官，你可以选择发射导弹杀死 <strong>7名</strong> 敌国士兵，但会误杀附近的 <strong>1名</strong> 敌国平民。</p> <p>平民照片如下图所示。</p> <p></p> <img src='stimuli/faces/NCM2.jpg', style='max-width: 30%;'> </img> <p><strong>你是否选择发射武器？</strong></p>","1",""
"","","","","","html-keyboard-response","14","74825","0.0-4.0-0.5","2","1","2022-10-06 05:48:53","ab77af23db77f379346475f7099b4f97","220.246.255.87","Mozilla/5.0 (Windows NT 10.0; Win64; x64) AppleWebKit/537.36 (KHTML, like Gecko) Chrome/105.0.0.0 Safari/537.36 Edg/105.0.1343.53","WebKit","Edge","105.0.1343.53","Windows","10.0","null","<div style=""font-size:60px;"">+</div>","null",""
"","","","","","html-button-response","15","76409","0.0-4.0-1.5","2","1","2022-10-06 05:48:53","ab77af23db77f379346475f7099b4f97","220.246.255.87","Mozilla/5.0 (Windows NT 10.0; Win64; x64) AppleWebKit/537.36 (KHTML, like Gecko) Chrome/105.0.0.0 Safari/537.36 Edg/105.0.1343.53","WebKit","Edge","105.0.1343.53","Windows","10.0","1579","<p>作为军队的指挥官，你可以选择发射导弹杀死 <strong>10名</strong> 敌国士兵，但会误杀附近的 <strong>1名</strong> 敌国平民。</p> <p>平民照片如下图所示。</p> <p></p> <img src='stimuli/faces/NCF4.jpg', style='max-width: 30%;'> </img> <p><strong>你是否选择发射武器？</strong></p>","1",""
"","","","","","html-keyboard-response","16","77425","0.0-4.0-0.6","2","1","2022-10-06 05:48:53","ab77af23db77f379346475f7099b4f97","220.246.255.87","Mozilla/5.0 (Windows NT 10.0; Win64; x64) AppleWebKit/537.36 (KHTML, like Gecko) Chrome/105.0.0.0 Safari/537.36 Edg/105.0.1343.53","WebKit","Edge","105.0.1343.53","Windows","10.0","null","<div style=""font-size:60px;"">+</div>","null",""
"","","","","","html-button-response","17","78467","0.0-4.0-1.6","2","1","2022-10-06 05:48:53","ab77af23db77f379346475f7099b4f97","220.246.255.87","Mozilla/5.0 (Windows NT 10.0; Win64; x64) AppleWebKit/537.36 (KHTML, like Gecko) Chrome/105.0.0.0 Safari/537.36 Edg/105.0.1343.53","WebKit","Edge","105.0.1343.53","Windows","10.0","1039","<p>作为军队的指挥官，你可以选择发射导弹杀死 <strong>8名</strong> 敌国士兵，但会误杀附近的 <strong>1名</strong> 敌国平民。</p> <p>平民照片如下图所示。</p> <p></p> <img src='stimuli/faces/NCM5.jpg', style='max-width: 30%;'> </img> <p><strong>你是否选择发射武器？</strong></p>","1",""
"","","","","","html-keyboard-response","18","79469","0.0-4.0-0.7","2","1","2022-10-06 05:48:53","ab77af23db77f379346475f7099b4f97","220.246.255.87","Mozilla/5.0 (Windows NT 10.0; Win64; x64) AppleWebKit/537.36 (KHTML, like Gecko) Chrome/105.0.0.0 Safari/537.36 Edg/105.0.1343.53","WebKit","Edge","105.0.1343.53","Windows","10.0","null","<div style=""font-size:60px;"">+</div>","null",""
"","","","","","html-button-response","19","80363","0.0-4.0-1.7","2","1","2022-10-06 05:48:53","ab77af23db77f379346475f7099b4f97","220.246.255.87","Mozilla/5.0 (Windows NT 10.0; Win64; x64) AppleWebKit/537.36 (KHTML, like Gecko) Chrome/105.0.0.0 Safari/537.36 Edg/105.0.1343.53","WebKit","Edge","105.0.1343.53","Windows","10.0","893","<p>作为军队的指挥官，你可以选择发射导弹杀死 <strong>3名</strong> 敌国士兵，但会误杀附近的 <strong>1名</strong> 敌国平民。</p> <p>平民照片如下图所示。</p> <p></p> <img src='stimuli/faces/NCM7.jpg', style='max-width: 30%;'> </img> <p><strong>你是否选择发射武器？</strong></p>","1",""
"","","","","","html-keyboard-response","20","81366","0.0-4.0-0.8","2","1","2022-10-06 05:48:53","ab77af23db77f379346475f7099b4f97","220.246.255.87","Mozilla/5.0 (Windows NT 10.0; Win64; x64) AppleWebKit/537.36 (KHTML, like Gecko) Chrome/105.0.0.0 Safari/537.36 Edg/105.0.1343.53","WebKit","Edge","105.0.1343.53","Windows","10.0","null","<div style=""font-size:60px;"">+</div>","null",""
"","","","","","html-button-response","21","82903","0.0-4.0-1.8","2","1","2022-10-06 05:48:53","ab77af23db77f379346475f7099b4f97","220.246.255.87","Mozilla/5.0 (Windows NT 10.0; Win64; x64) AppleWebKit/537.36 (KHTML, like Gecko) Chrome/105.0.0.0 Safari/537.36 Edg/105.0.1343.53","WebKit","Edge","105.0.1343.53","Windows","10.0","1534","<p>作为军队的指挥官，你可以选择发射导弹杀死 <strong>7名</strong> 敌国士兵，但会炸毁附近的 <strong>1棵</strong> 敌国树木。</p> <p>树木的照片如下图所示。</p> <p></p> <img src='stimuli/trees/16.png', style='max-width: 30%;'> </img> <p><strong>你是否选择发射武器？</strong></p>","0",""
"","","","","","html-keyboard-response","22","83905","0.0-4.0-0.9","2","1","2022-10-06 05:48:53","ab77af23db77f379346475f7099b4f97","220.246.255.87","Mozilla/5.0 (Windows NT 10.0; Win64; x64) AppleWebKit/537.36 (KHTML, like Gecko) Chrome/105.0.0.0 Safari/537.36 Edg/105.0.1343.53","WebKit","Edge","105.0.1343.53","Windows","10.0","null","<div style=""font-size:60px;"">+</div>","null",""
"","","","","","html-button-response","23","85373","0.0-4.0-1.9","2","1","2022-10-06 05:48:53","ab77af23db77f379346475f7099b4f97","220.246.255.87","Mozilla/5.0 (Windows NT 10.0; Win64; x64) AppleWebKit/537.36 (KHTML, like Gecko) Chrome/105.0.0.0 Safari/537.36 Edg/105.0.1343.53","WebKit","Edge","105.0.1343.53","Windows","10.0","1463","<p>作为军队的指挥官，你可以选择发射导弹杀死 <strong>10名</strong> 敌国士兵，但会炸毁附近的 <strong>1棵</strong> 敌国树木。</p> <p>树木的照片如下图所示。</p> <p></p> <img src='stimuli/trees/1.png', style='max-width: 30%;'> </img> <p><strong>你是否选择发射武器？</strong></p>","0",""
"","","","","","html-keyboard-response","24","86378","0.0-4.0-0.10","2","1","2022-10-06 05:48:53","ab77af23db77f379346475f7099b4f97","220.246.255.87","Mozilla/5.0 (Windows NT 10.0; Win64; x64) AppleWebKit/537.36 (KHTML, like Gecko) Chrome/105.0.0.0 Safari/537.36 Edg/105.0.1343.53","WebKit","Edge","105.0.1343.53","Windows","10.0","null","<div style=""font-size:60px;"">+</div>","null",""
"","","","","","html-button-response","25","87881","0.0-4.0-1.10","2","1","2022-10-06 05:48:53","ab77af23db77f379346475f7099b4f97","220.246.255.87","Mozilla/5.0 (Windows NT 10.0; Win64; x64) AppleWebKit/537.36 (KHTML, like Gecko) Chrome/105.0.0.0 Safari/537.36 Edg/105.0.1343.53","WebKit","Edge","105.0.1343.53","Windows","10.0","1501","<p>作为军队的指挥官，你可以选择发射导弹杀死 <strong>2名</strong> 敌国士兵，但会误杀附近的 <strong>1名</strong> 敌国平民。</p> <p>平民照片如下图所示。</p> <p></p> <img src='stimuli/faces/NCF1.jpg', style='max-width: 30%;'> </img> <p><strong>你是否选择发射武器？</strong></p>","1",""
"","","","","","html-keyboard-response","26","88896","0.0-4.0-0.11","2","1","2022-10-06 05:48:53","ab77af23db77f379346475f7099b4f97","220.246.255.87","Mozilla/5.0 (Windows NT 10.0; Win64; x64) AppleWebKit/537.36 (KHTML, like Gecko) Chrome/105.0.0.0 Safari/537.36 Edg/105.0.1343.53","WebKit","Edge","105.0.1343.53","Windows","10.0","null","<div style=""font-size:60px;"">+</div>","null",""
"","","","","","html-button-response","27","89668","0.0-4.0-1.11","2","1","2022-10-06 05:48:53","ab77af23db77f379346475f7099b4f97","220.246.255.87","Mozilla/5.0 (Windows NT 10.0; Win64; x64) AppleWebKit/537.36 (KHTML, like Gecko) Chrome/105.0.0.0 Safari/537.36 Edg/105.0.1343.53","WebKit","Edge","105.0.1343.53","Windows","10.0","768","<p>作为军队的指挥官，你可以选择发射导弹杀死 <strong>4名</strong> 敌国士兵，但会误杀附近的 <strong>1名</strong> 敌国平民。</p> <p>平民照片如下图所示。</p> <p></p> <img src='stimuli/faces/NCF2.jpg', style='max-width: 30%;'> </img> <p><strong>你是否选择发射武器？</strong></p>","1",""
"","","","","","html-keyboard-response","28","90670","0.0-4.0-0.12","2","1","2022-10-06 05:48:53","ab77af23db77f379346475f7099b4f97","220.246.255.87","Mozilla/5.0 (Windows NT 10.0; Win64; x64) AppleWebKit/537.36 (KHTML, like Gecko) Chrome/105.0.0.0 Safari/537.36 Edg/105.0.1343.53","WebKit","Edge","105.0.1343.53","Windows","10.0","null","<div style=""font-size:60px;"">+</div>","null",""
"","","","","","html-button-response","29","91455","0.0-4.0-1.12","2","1","2022-10-06 05:48:53","ab77af23db77f379346475f7099b4f97","220.246.255.87","Mozilla/5.0 (Windows NT 10.0; Win64; x64) AppleWebKit/537.36 (KHTML, like Gecko) Chrome/105.0.0.0 Safari/537.36 Edg/105.0.1343.53","WebKit","Edge","105.0.1343.53","Windows","10.0","781","<p>作为军队的指挥官，你可以选择发射导弹杀死 <strong>7名</strong> 敌国士兵，但会炸毁附近的 <strong>1棵</strong> 敌国树木。</p> <p>树木的照片如下图所示。</p> <p></p> <img src='stimuli/trees/8.png', style='max-width: 30%;'> </img> <p><strong>你是否选择发射武器？</strong></p>","0",""
"","","","","","html-keyboard-response","30","92467","0.0-4.0-0.13","2","1","2022-10-06 05:48:53","ab77af23db77f379346475f7099b4f97","220.246.255.87","Mozilla/5.0 (Windows NT 10.0; Win64; x64) AppleWebKit/537.36 (KHTML, like Gecko) Chrome/105.0.0.0 Safari/537.36 Edg/105.0.1343.53","WebKit","Edge","105.0.1343.53","Windows","10.0","null","<div style=""font-size:60px;"">+</div>","null",""
"","","","","","html-button-response","31","92953","0.0-4.0-1.13","2","1","2022-10-06 05:48:53","ab77af23db77f379346475f7099b4f97","220.246.255.87","Mozilla/5.0 (Windows NT 10.0; Win64; x64) AppleWebKit/537.36 (KHTML, like Gecko) Chrome/105.0.0.0 Safari/537.36 Edg/105.0.1343.53","WebKit","Edge","105.0.1343.53","Windows","10.0","483","<p>作为军队的指挥官，你可以选择发射导弹杀死 <strong>5名</strong> 敌国士兵，但会炸毁附近的 <strong>1棵</strong> 敌国树木。</p> <p>树木的照片如下图所示。</p> <p></p> <img src='stimuli/trees/8.png', style='max-width: 30%;'> </img> <p><strong>你是否选择发射武器？</strong></p>","0",""
"","","","","","html-keyboard-response","32","93962","0.0-4.0-0.14","2","1","2022-10-06 05:48:53","ab77af23db77f379346475f7099b4f97","220.246.255.87","Mozilla/5.0 (Windows NT 10.0; Win64; x64) AppleWebKit/537.36 (KHTML, like Gecko) Chrome/105.0.0.0 Safari/537.36 Edg/105.0.1343.53","WebKit","Edge","105.0.1343.53","Windows","10.0","null","<div style=""font-size:60px;"">+</div>","null",""
"","","","","","html-button-response","33","94508","0.0-4.0-1.14","2","1","2022-10-06 05:48:53","ab77af23db77f379346475f7099b4f97","220.246.255.87","Mozilla/5.0 (Windows NT 10.0; Win64; x64) AppleWebKit/537.36 (KHTML, like Gecko) Chrome/105.0.0.0 Safari/537.36 Edg/105.0.1343.53","WebKit","Edge","105.0.1343.53","Windows","10.0","540","<p>作为军队的指挥官，你可以选择发射导弹杀死 <strong>9名</strong> 敌国士兵，但会炸毁附近的 <strong>1棵</strong> 敌国树木。</p> <p>树木的照片如下图所示。</p> <p></p> <img src='stimuli/trees/12.png', style='max-width: 30%;'> </img> <p><strong>你是否选择发射武器？</strong></p>","0",""
"","","","","","html-keyboard-response","34","95520","0.0-4.0-0.15","2","1","2022-10-06 05:48:53","ab77af23db77f379346475f7099b4f97","220.246.255.87","Mozilla/5.0 (Windows NT 10.0; Win64; x64) AppleWebKit/537.36 (KHTML, like Gecko) Chrome/105.0.0.0 Safari/537.36 Edg/105.0.1343.53","WebKit","Edge","105.0.1343.53","Windows","10.0","null","<div style=""font-size:60px;"">+</div>","null",""
"","","","","","html-button-response","35","96465","0.0-4.0-1.15","2","1","2022-10-06 05:48:53","ab77af23db77f379346475f7099b4f97","220.246.255.87","Mozilla/5.0 (Windows NT 10.0; Win64; x64) AppleWebKit/537.36 (KHTML, like Gecko) Chrome/105.0.0.0 Safari/537.36 Edg/105.0.1343.53","WebKit","Edge","105.0.1343.53","Windows","10.0","941","<p>作为军队的指挥官，你可以选择发射导弹杀死 <strong>1名</strong> 敌国士兵，但会误杀附近的 <strong>1名</strong> 敌国平民。</p> <p>平民照片如下图所示。</p> <p></p> <img src='stimuli/faces/NCM3.jpg', style='max-width: 30%;'> </img> <p><strong>你是否选择发射武器？</strong></p>","1",""
"","","","","","html-keyboard-response","36","97467","0.0-4.0-0.16","2","1","2022-10-06 05:48:53","ab77af23db77f379346475f7099b4f97","220.246.255.87","Mozilla/5.0 (Windows NT 10.0; Win64; x64) AppleWebKit/537.36 (KHTML, like Gecko) Chrome/105.0.0.0 Safari/537.36 Edg/105.0.1343.53","WebKit","Edge","105.0.1343.53","Windows","10.0","null","<div style=""font-size:60px;"">+</div>","null",""
"","","","","","html-button-response","37","98523","0.0-4.0-1.16","2","1","2022-10-06 05:48:53","ab77af23db77f379346475f7099b4f97","220.246.255.87","Mozilla/5.0 (Windows NT 10.0; Win64; x64) AppleWebKit/537.36 (KHTML, like Gecko) Chrome/105.0.0.0 Safari/537.36 Edg/105.0.1343.53","WebKit","Edge","105.0.1343.53","Windows","10.0","1051","<p>作为军队的指挥官，你可以选择发射导弹杀死 <strong>4名</strong> 敌国士兵，但会炸毁附近的 <strong>1棵</strong> 敌国树木。</p> <p>树木的照片如下图所示。</p> <p></p> <img src='stimuli/trees/2.png', style='max-width: 30%;'> </img> <p><strong>你是否选择发射武器？</strong></p>","0",""
"","","","","","html-keyboard-response","38","99534","0.0-4.0-0.17","2","1","2022-10-06 05:48:53","ab77af23db77f379346475f7099b4f97","220.246.255.87","Mozilla/5.0 (Windows NT 10.0; Win64; x64) AppleWebKit/537.36 (KHTML, like Gecko) Chrome/105.0.0.0 Safari/537.36 Edg/105.0.1343.53","WebKit","Edge","105.0.1343.53","Windows","10.0","null","<div style=""font-size:60px;"">+</div>","null",""
"","","","","","html-button-response","39","100977","0.0-4.0-1.17","2","1","2022-10-06 05:48:53","ab77af23db77f379346475f7099b4f97","220.246.255.87","Mozilla/5.0 (Windows NT 10.0; Win64; x64) AppleWebKit/537.36 (KHTML, like Gecko) Chrome/105.0.0.0 Safari/537.36 Edg/105.0.1343.53","WebKit","Edge","105.0.1343.53","Windows","10.0","1439","<p>作为军队的指挥官，你可以选择发射导弹杀死 <strong>4名</strong> 敌国士兵，但会误杀附近的 <strong>1名</strong> 敌国平民。</p> <p>平民照片如下图所示。</p> <p></p> <img src='stimuli/faces/NCM8.jpg', style='max-width: 30%;'> </img> <p><strong>你是否选择发射武器？</strong></p>","1",""
"","","","","","html-keyboard-response","40","101992","0.0-4.0-0.18","2","1","2022-10-06 05:48:53","ab77af23db77f379346475f7099b4f97","220.246.255.87","Mozilla/5.0 (Windows NT 10.0; Win64; x64) AppleWebKit/537.36 (KHTML, like Gecko) Chrome/105.0.0.0 Safari/537.36 Edg/105.0.1343.53","WebKit","Edge","105.0.1343.53","Windows","10.0","null","<div style=""font-size:60px;"">+</div>","null",""
"","","","","","html-button-response","41","103021","0.0-4.0-1.18","2","1","2022-10-06 05:48:53","ab77af23db77f379346475f7099b4f97","220.246.255.87","Mozilla/5.0 (Windows NT 10.0; Win64; x64) AppleWebKit/537.36 (KHTML, like Gecko) Chrome/105.0.0.0 Safari/537.36 Edg/105.0.1343.53","WebKit","Edge","105.0.1343.53","Windows","10.0","1025","<p>作为军队的指挥官，你可以选择发射导弹杀死 <strong>9名</strong> 敌国士兵，但会炸毁附近的 <strong>1棵</strong> 敌国树木。</p> <p>树木的照片如下图所示。</p> <p></p> <img src='stimuli/trees/15.png', style='max-width: 30%;'> </img> <p><strong>你是否选择发射武器？</strong></p>","0",""
"","","","","","html-keyboard-response","42","104026","0.0-4.0-0.19","2","1","2022-10-06 05:48:53","ab77af23db77f379346475f7099b4f97","220.246.255.87","Mozilla/5.0 (Windows NT 10.0; Win64; x64) AppleWebKit/537.36 (KHTML, like Gecko) Chrome/105.0.0.0 Safari/537.36 Edg/105.0.1343.53","WebKit","Edge","105.0.1343.53","Windows","10.0","null","<div style=""font-size:60px;"">+</div>","null",""
"","","","","","html-button-response","43","105451","0.0-4.0-1.19","2","1","2022-10-06 05:48:53","ab77af23db77f379346475f7099b4f97","220.246.255.87","Mozilla/5.0 (Windows NT 10.0; Win64; x64) AppleWebKit/537.36 (KHTML, like Gecko) Chrome/105.0.0.0 Safari/537.36 Edg/105.0.1343.53","WebKit","Edge","105.0.1343.53","Windows","10.0","1423","<p>作为军队的指挥官，你可以选择发射导弹杀死 <strong>6名</strong> 敌国士兵，但会误杀附近的 <strong>1名</strong> 敌国平民。</p> <p>平民照片如下图所示。</p> <p></p> <img src='stimuli/faces/NCF1.jpg', style='max-width: 30%;'> </img> <p><strong>你是否选择发射武器？</strong></p>","1",""
"","","","","","html-keyboard-response","44","106454","0.0-4.0-0.20","2","1","2022-10-06 05:48:53","ab77af23db77f379346475f7099b4f97","220.246.255.87","Mozilla/5.0 (Windows NT 10.0; Win64; x64) AppleWebKit/537.36 (KHTML, like Gecko) Chrome/105.0.0.0 Safari/537.36 Edg/105.0.1343.53","WebKit","Edge","105.0.1343.53","Windows","10.0","null","<div style=""font-size:60px;"">+</div>","null",""
"","","","","","html-button-response","45","107199","0.0-4.0-1.20","2","1","2022-10-06 05:48:53","ab77af23db77f379346475f7099b4f97","220.246.255.87","Mozilla/5.0 (Windows NT 10.0; Win64; x64) AppleWebKit/537.36 (KHTML, like Gecko) Chrome/105.0.0.0 Safari/537.36 Edg/105.0.1343.53","WebKit","Edge","105.0.1343.53","Windows","10.0","744","<p>作为军队的指挥官，你可以选择发射导弹杀死 <strong>2名</strong> 敌国士兵，但会炸毁附近的 <strong>1棵</strong> 敌国树木。</p> <p>树木的照片如下图所示。</p> <p></p> <img src='stimuli/trees/4.png', style='max-width: 30%;'> </img> <p><strong>你是否选择发射武器？</strong></p>","0",""
"","","","","","html-keyboard-response","46","108200","0.0-4.0-0.21","2","1","2022-10-06 05:48:53","ab77af23db77f379346475f7099b4f97","220.246.255.87","Mozilla/5.0 (Windows NT 10.0; Win64; x64) AppleWebKit/537.36 (KHTML, like Gecko) Chrome/105.0.0.0 Safari/537.36 Edg/105.0.1343.53","WebKit","Edge","105.0.1343.53","Windows","10.0","null","<div style=""font-size:60px;"">+</div>","null",""
"","","","","","html-button-response","47","109281","0.0-4.0-1.21","2","1","2022-10-06 05:48:53","ab77af23db77f379346475f7099b4f97","220.246.255.87","Mozilla/5.0 (Windows NT 10.0; Win64; x64) AppleWebKit/537.36 (KHTML, like Gecko) Chrome/105.0.0.0 Safari/537.36 Edg/105.0.1343.53","WebKit","Edge","105.0.1343.53","Windows","10.0","1079","<p>作为军队的指挥官，你可以选择发射导弹杀死 <strong>3名</strong> 敌国士兵，但会误杀附近的 <strong>1名</strong> 敌国平民。</p> <p>平民照片如下图所示。</p> <p></p> <img src='stimuli/faces/NCF8.jpg', style='max-width: 30%;'> </img> <p><strong>你是否选择发射武器？</strong></p>","1",""
"","","","","","html-keyboard-response","48","110292","0.0-4.0-0.22","2","1","2022-10-06 05:48:53","ab77af23db77f379346475f7099b4f97","220.246.255.87","Mozilla/5.0 (Windows NT 10.0; Win64; x64) AppleWebKit/537.36 (KHTML, like Gecko) Chrome/105.0.0.0 Safari/537.36 Edg/105.0.1343.53","WebKit","Edge","105.0.1343.53","Windows","10.0","null","<div style=""font-size:60px;"">+</div>","null",""
"","","","","","html-button-response","49","110811","0.0-4.0-1.22","2","1","2022-10-06 05:48:53","ab77af23db77f379346475f7099b4f97","220.246.255.87","Mozilla/5.0 (Windows NT 10.0; Win64; x64) AppleWebKit/537.36 (KHTML, like Gecko) Chrome/105.0.0.0 Safari/537.36 Edg/105.0.1343.53","WebKit","Edge","105.0.1343.53","Windows","10.0","517","<p>作为军队的指挥官，你可以选择发射导弹杀死 <strong>5名</strong> 敌国士兵，但会误杀附近的 <strong>1名</strong> 敌国平民。</p> <p>平民照片如下图所示。</p> <p></p> <img src='stimuli/faces/NCF6.jpg', style='max-width: 30%;'> </img> <p><strong>你是否选择发射武器？</strong></p>","1",""
"","","","","","html-keyboard-response","50","111818","0.0-4.0-0.23","2","1","2022-10-06 05:48:53","ab77af23db77f379346475f7099b4f97","220.246.255.87","Mozilla/5.0 (Windows NT 10.0; Win64; x64) AppleWebKit/537.36 (KHTML, like Gecko) Chrome/105.0.0.0 Safari/537.36 Edg/105.0.1343.53","WebKit","Edge","105.0.1343.53","Windows","10.0","null","<div style=""font-size:60px;"">+</div>","null",""
"","","","","","html-button-response","51","112481","0.0-4.0-1.23","2","1","2022-10-06 05:48:53","ab77af23db77f379346475f7099b4f97","220.246.255.87","Mozilla/5.0 (Windows NT 10.0; Win64; x64) AppleWebKit/537.36 (KHTML, like Gecko) Chrome/105.0.0.0 Safari/537.36 Edg/105.0.1343.53","WebKit","Edge","105.0.1343.53","Windows","10.0","660","<p>作为军队的指挥官，你可以选择发射导弹杀死 <strong>2名</strong> 敌国士兵，但会误杀附近的 <strong>1名</strong> 敌国平民。</p> <p>平民照片如下图所示。</p> <p></p> <img src='stimuli/faces/NCF3.jpg', style='max-width: 30%;'> </img> <p><strong>你是否选择发射武器？</strong></p>","1",""
"","","","","","html-keyboard-response","52","113484","0.0-4.0-0.24","2","1","2022-10-06 05:48:53","ab77af23db77f379346475f7099b4f97","220.246.255.87","Mozilla/5.0 (Windows NT 10.0; Win64; x64) AppleWebKit/537.36 (KHTML, like Gecko) Chrome/105.0.0.0 Safari/537.36 Edg/105.0.1343.53","WebKit","Edge","105.0.1343.53","Windows","10.0","null","<div style=""font-size:60px;"">+</div>","null",""
"","","","","","html-button-response","53","114469","0.0-4.0-1.24","2","1","2022-10-06 05:48:53","ab77af23db77f379346475f7099b4f97","220.246.255.87","Mozilla/5.0 (Windows NT 10.0; Win64; x64) AppleWebKit/537.36 (KHTML, like Gecko) Chrome/105.0.0.0 Safari/537.36 Edg/105.0.1343.53","WebKit","Edge","105.0.1343.53","Windows","10.0","983","<p>作为军队的指挥官，你可以选择发射导弹杀死 <strong>6名</strong> 敌国士兵，但会误杀附近的 <strong>1名</strong> 敌国平民。</p> <p>平民照片如下图所示。</p> <p></p> <img src='stimuli/faces/NCM4.jpg', style='max-width: 30%;'> </img> <p><strong>你是否选择发射武器？</strong></p>","1",""
"","","","","","html-keyboard-response","54","115476","0.0-4.0-0.25","2","1","2022-10-06 05:48:53","ab77af23db77f379346475f7099b4f97","220.246.255.87","Mozilla/5.0 (Windows NT 10.0; Win64; x64) AppleWebKit/537.36 (KHTML, like Gecko) Chrome/105.0.0.0 Safari/537.36 Edg/105.0.1343.53","WebKit","Edge","105.0.1343.53","Windows","10.0","null","<div style=""font-size:60px;"">+</div>","null",""
"","","","","","html-button-response","55","116101","0.0-4.0-1.25","2","1","2022-10-06 05:48:53","ab77af23db77f379346475f7099b4f97","220.246.255.87","Mozilla/5.0 (Windows NT 10.0; Win64; x64) AppleWebKit/537.36 (KHTML, like Gecko) Chrome/105.0.0.0 Safari/537.36 Edg/105.0.1343.53","WebKit","Edge","105.0.1343.53","Windows","10.0","620","<p>作为军队的指挥官，你可以选择发射导弹杀死 <strong>1名</strong> 敌国士兵，但会炸毁附近的 <strong>1棵</strong> 敌国树木。</p> <p>树木的照片如下图所示。</p> <p></p> <img src='stimuli/trees/5.png', style='max-width: 30%;'> </img> <p><strong>你是否选择发射武器？</strong></p>","0",""
"","","","","","html-keyboard-response","56","117112","0.0-4.0-0.26","2","1","2022-10-06 05:48:53","ab77af23db77f379346475f7099b4f97","220.246.255.87","Mozilla/5.0 (Windows NT 10.0; Win64; x64) AppleWebKit/537.36 (KHTML, like Gecko) Chrome/105.0.0.0 Safari/537.36 Edg/105.0.1343.53","WebKit","Edge","105.0.1343.53","Windows","10.0","null","<div style=""font-size:60px;"">+</div>","null",""
"","","","","","html-button-response","57","118089","0.0-4.0-1.26","2","1","2022-10-06 05:48:53","ab77af23db77f379346475f7099b4f97","220.246.255.87","Mozilla/5.0 (Windows NT 10.0; Win64; x64) AppleWebKit/537.36 (KHTML, like Gecko) Chrome/105.0.0.0 Safari/537.36 Edg/105.0.1343.53","WebKit","Edge","105.0.1343.53","Windows","10.0","971","<p>作为军队的指挥官，你可以选择发射导弹杀死 <strong>1名</strong> 敌国士兵，但会炸毁附近的 <strong>1棵</strong> 敌国树木。</p> <p>树木的照片如下图所示。</p> <p></p> <img src='stimuli/trees/14.png', style='max-width: 30%;'> </img> <p><strong>你是否选择发射武器？</strong></p>","0",""
"","","","","","html-keyboard-response","58","119103","0.0-4.0-0.27","2","1","2022-10-06 05:48:53","ab77af23db77f379346475f7099b4f97","220.246.255.87","Mozilla/5.0 (Windows NT 10.0; Win64; x64) AppleWebKit/537.36 (KHTML, like Gecko) Chrome/105.0.0.0 Safari/537.36 Edg/105.0.1343.53","WebKit","Edge","105.0.1343.53","Windows","10.0","null","<div style=""font-size:60px;"">+</div>","null",""
"","","","","","html-button-response","59","119775","0.0-4.0-1.27","2","1","2022-10-06 05:48:53","ab77af23db77f379346475f7099b4f97","220.246.255.87","Mozilla/5.0 (Windows NT 10.0; Win64; x64) AppleWebKit/537.36 (KHTML, like Gecko) Chrome/105.0.0.0 Safari/537.36 Edg/105.0.1343.53","WebKit","Edge","105.0.1343.53","Windows","10.0","667","<p>作为军队的指挥官，你可以选择发射导弹杀死 <strong>8名</strong> 敌国士兵，但会炸毁附近的 <strong>1棵</strong> 敌国树木。</p> <p>树木的照片如下图所示。</p> <p></p> <img src='stimuli/trees/10.png', style='max-width: 30%;'> </img> <p><strong>你是否选择发射武器？</strong></p>","0",""
"","","","","","html-keyboard-response","60","120777","0.0-4.0-0.28","2","1","2022-10-06 05:48:53","ab77af23db77f379346475f7099b4f97","220.246.255.87","Mozilla/5.0 (Windows NT 10.0; Win64; x64) AppleWebKit/537.36 (KHTML, like Gecko) Chrome/105.0.0.0 Safari/537.36 Edg/105.0.1343.53","WebKit","Edge","105.0.1343.53","Windows","10.0","null","<div style=""font-size:60px;"">+</div>","null",""
"","","","","","html-button-response","61","121305","0.0-4.0-1.28","2","1","2022-10-06 05:48:53","ab77af23db77f379346475f7099b4f97","220.246.255.87","Mozilla/5.0 (Windows NT 10.0; Win64; x64) AppleWebKit/537.36 (KHTML, like Gecko) Chrome/105.0.0.0 Safari/537.36 Edg/105.0.1343.53","WebKit","Edge","105.0.1343.53","Windows","10.0","522","<p>作为军队的指挥官，你可以选择发射导弹杀死 <strong>4名</strong> 敌国士兵，但会炸毁附近的 <strong>1棵</strong> 敌国树木。</p> <p>树木的照片如下图所示。</p> <p></p> <img src='stimuli/trees/10.png', style='max-width: 30%;'> </img> <p><strong>你是否选择发射武器？</strong></p>","0",""
"","","","","","html-keyboard-response","62","122311","0.0-4.0-0.29","2","1","2022-10-06 05:48:53","ab77af23db77f379346475f7099b4f97","220.246.255.87","Mozilla/5.0 (Windows NT 10.0; Win64; x64) AppleWebKit/537.36 (KHTML, like Gecko) Chrome/105.0.0.0 Safari/537.36 Edg/105.0.1343.53","WebKit","Edge","105.0.1343.53","Windows","10.0","null","<div style=""font-size:60px;"">+</div>","null",""
"","","","","","html-button-response","63","122757","0.0-4.0-1.29","2","1","2022-10-06 05:48:53","ab77af23db77f379346475f7099b4f97","220.246.255.87","Mozilla/5.0 (Windows NT 10.0; Win64; x64) AppleWebKit/537.36 (KHTML, like Gecko) Chrome/105.0.0.0 Safari/537.36 Edg/105.0.1343.53","WebKit","Edge","105.0.1343.53","Windows","10.0","439","<p>作为军队的指挥官，你可以选择发射导弹杀死 <strong>1名</strong> 敌国士兵，但会炸毁附近的 <strong>1棵</strong> 敌国树木。</p> <p>树木的照片如下图所示。</p> <p></p> <img src='stimuli/trees/11.png', style='max-width: 30%;'> </img> <p><strong>你是否选择发射武器？</strong></p>","0",""
"","","","","","html-keyboard-response","64","123774","0.0-4.0-0.30","2","1","2022-10-06 05:48:53","ab77af23db77f379346475f7099b4f97","220.246.255.87","Mozilla/5.0 (Windows NT 10.0; Win64; x64) AppleWebKit/537.36 (KHTML, like Gecko) Chrome/105.0.0.0 Safari/537.36 Edg/105.0.1343.53","WebKit","Edge","105.0.1343.53","Windows","10.0","null","<div style=""font-size:60px;"">+</div>","null",""
"","","","","","html-button-response","65","124249","0.0-4.0-1.30","2","1","2022-10-06 05:48:53","ab77af23db77f379346475f7099b4f97","220.246.255.87","Mozilla/5.0 (Windows NT 10.0; Win64; x64) AppleWebKit/537.36 (KHTML, like Gecko) Chrome/105.0.0.0 Safari/537.36 Edg/105.0.1343.53","WebKit","Edge","105.0.1343.53","Windows","10.0","469","<p>作为军队的指挥官，你可以选择发射导弹杀死 <strong>6名</strong> 敌国士兵，但会炸毁附近的 <strong>1棵</strong> 敌国树木。</p> <p>树木的照片如下图所示。</p> <p></p> <img src='stimuli/trees/3.png', style='max-width: 30%;'> </img> <p><strong>你是否选择发射武器？</strong></p>","0",""
"","","","","","html-keyboard-response","66","125252","0.0-4.0-0.31","2","1","2022-10-06 05:48:53","ab77af23db77f379346475f7099b4f97","220.246.255.87","Mozilla/5.0 (Windows NT 10.0; Win64; x64) AppleWebKit/537.36 (KHTML, like Gecko) Chrome/105.0.0.0 Safari/537.36 Edg/105.0.1343.53","WebKit","Edge","105.0.1343.53","Windows","10.0","null","<div style=""font-size:60px;"">+</div>","null",""
"","","","","","html-button-response","67","126043","0.0-4.0-1.31","2","1","2022-10-06 05:48:53","ab77af23db77f379346475f7099b4f97","220.246.255.87","Mozilla/5.0 (Windows NT 10.0; Win64; x64) AppleWebKit/537.36 (KHTML, like Gecko) Chrome/105.0.0.0 Safari/537.36 Edg/105.0.1343.53","WebKit","Edge","105.0.1343.53","Windows","10.0","790","<p>作为军队的指挥官，你可以选择发射导弹杀死 <strong>10名</strong> 敌国士兵，但会误杀附近的 <strong>1名</strong> 敌国平民。</p> <p>平民照片如下图所示。</p> <p></p> <img src='stimuli/faces/NCF6.jpg', style='max-width: 30%;'> </img> <p><strong>你是否选择发射武器？</strong></p>","1",""
"","","","","","html-keyboard-response","68","127060","0.0-4.0-0.32","2","1","2022-10-06 05:48:53","ab77af23db77f379346475f7099b4f97","220.246.255.87","Mozilla/5.0 (Windows NT 10.0; Win64; x64) AppleWebKit/537.36 (KHTML, like Gecko) Chrome/105.0.0.0 Safari/537.36 Edg/105.0.1343.53","WebKit","Edge","105.0.1343.53","Windows","10.0","null","<div style=""font-size:60px;"">+</div>","null",""
"","","","","","html-button-response","69","127681","0.0-4.0-1.32","2","1","2022-10-06 05:48:53","ab77af23db77f379346475f7099b4f97","220.246.255.87","Mozilla/5.0 (Windows NT 10.0; Win64; x64) AppleWebKit/537.36 (KHTML, like Gecko) Chrome/105.0.0.0 Safari/537.36 Edg/105.0.1343.53","WebKit","Edge","105.0.1343.53","Windows","10.0","619","<p>作为军队的指挥官，你可以选择发射导弹杀死 <strong>3名</strong> 敌国士兵，但会误杀附近的 <strong>1名</strong> 敌国平民。</p> <p>平民照片如下图所示。</p> <p></p> <img src='stimuli/faces/NCM4.jpg', style='max-width: 30%;'> </img> <p><strong>你是否选择发射武器？</strong></p>","1",""
"","","","","","html-keyboard-response","70","128692","0.0-4.0-0.33","2","1","2022-10-06 05:48:53","ab77af23db77f379346475f7099b4f97","220.246.255.87","Mozilla/5.0 (Windows NT 10.0; Win64; x64) AppleWebKit/537.36 (KHTML, like Gecko) Chrome/105.0.0.0 Safari/537.36 Edg/105.0.1343.53","WebKit","Edge","105.0.1343.53","Windows","10.0","null","<div style=""font-size:60px;"">+</div>","null",""
"","","","","","html-button-response","71","129119","0.0-4.0-1.33","2","1","2022-10-06 05:48:53","ab77af23db77f379346475f7099b4f97","220.246.255.87","Mozilla/5.0 (Windows NT 10.0; Win64; x64) AppleWebKit/537.36 (KHTML, like Gecko) Chrome/105.0.0.0 Safari/537.36 Edg/105.0.1343.53","WebKit","Edge","105.0.1343.53","Windows","10.0","422","<p>作为军队的指挥官，你可以选择发射导弹杀死 <strong>8名</strong> 敌国士兵，但会误杀附近的 <strong>1名</strong> 敌国平民。</p> <p>平民照片如下图所示。</p> <p></p> <img src='stimuli/faces/NCM8.jpg', style='max-width: 30%;'> </img> <p><strong>你是否选择发射武器？</strong></p>","1",""
"","","","","","html-keyboard-response","72","130123","0.0-4.0-0.34","2","1","2022-10-06 05:48:53","ab77af23db77f379346475f7099b4f97","220.246.255.87","Mozilla/5.0 (Windows NT 10.0; Win64; x64) AppleWebKit/537.36 (KHTML, like Gecko) Chrome/105.0.0.0 Safari/537.36 Edg/105.0.1343.53","WebKit","Edge","105.0.1343.53","Windows","10.0","null","<div style=""font-size:60px;"">+</div>","null",""
"","","","","","html-button-response","73","130595","0.0-4.0-1.34","2","1","2022-10-06 05:48:53","ab77af23db77f379346475f7099b4f97","220.246.255.87","Mozilla/5.0 (Windows NT 10.0; Win64; x64) AppleWebKit/537.36 (KHTML, like Gecko) Chrome/105.0.0.0 Safari/537.36 Edg/105.0.1343.53","WebKit","Edge","105.0.1343.53","Windows","10.0","467","<p>作为军队的指挥官，你可以选择发射导弹杀死 <strong>6名</strong> 敌国士兵，但会误杀附近的 <strong>1名</strong> 敌国平民。</p> <p>平民照片如下图所示。</p> <p></p> <img src='stimuli/faces/NCF7.jpg', style='max-width: 30%;'> </img> <p><strong>你是否选择发射武器？</strong></p>","1",""
"","","","","","html-keyboard-response","74","131603","0.0-4.0-0.35","2","1","2022-10-06 05:48:53","ab77af23db77f379346475f7099b4f97","220.246.255.87","Mozilla/5.0 (Windows NT 10.0; Win64; x64) AppleWebKit/537.36 (KHTML, like Gecko) Chrome/105.0.0.0 Safari/537.36 Edg/105.0.1343.53","WebKit","Edge","105.0.1343.53","Windows","10.0","null","<div style=""font-size:60px;"">+</div>","null",""
"","","","","","html-button-response","75","131993","0.0-4.0-1.35","2","1","2022-10-06 05:48:53","ab77af23db77f379346475f7099b4f97","220.246.255.87","Mozilla/5.0 (Windows NT 10.0; Win64; x64) AppleWebKit/537.36 (KHTML, like Gecko) Chrome/105.0.0.0 Safari/537.36 Edg/105.0.1343.53","WebKit","Edge","105.0.1343.53","Windows","10.0","385","<p>作为军队的指挥官，你可以选择发射导弹杀死 <strong>7名</strong> 敌国士兵，但会误杀附近的 <strong>1名</strong> 敌国平民。</p> <p>平民照片如下图所示。</p> <p></p> <img src='stimuli/faces/NCM6.jpg', style='max-width: 30%;'> </img> <p><strong>你是否选择发射武器？</strong></p>","1",""
"","","","","","html-keyboard-response","76","133002","0.0-4.0-0.36","2","1","2022-10-06 05:48:53","ab77af23db77f379346475f7099b4f97","220.246.255.87","Mozilla/5.0 (Windows NT 10.0; Win64; x64) AppleWebKit/537.36 (KHTML, like Gecko) Chrome/105.0.0.0 Safari/537.36 Edg/105.0.1343.53","WebKit","Edge","105.0.1343.53","Windows","10.0","null","<div style=""font-size:60px;"">+</div>","null",""
"","","","","","html-button-response","77","133825","0.0-4.0-1.36","2","1","2022-10-06 05:48:53","ab77af23db77f379346475f7099b4f97","220.246.255.87","Mozilla/5.0 (Windows NT 10.0; Win64; x64) AppleWebKit/537.36 (KHTML, like Gecko) Chrome/105.0.0.0 Safari/537.36 Edg/105.0.1343.53","WebKit","Edge","105.0.1343.53","Windows","10.0","821","<p>作为军队的指挥官，你可以选择发射导弹杀死 <strong>10名</strong> 敌国士兵，但会炸毁附近的 <strong>1棵</strong> 敌国树木。</p> <p>树木的照片如下图所示。</p> <p></p> <img src='stimuli/trees/13.png', style='max-width: 30%;'> </img> <p><strong>你是否选择发射武器？</strong></p>","0",""
"","","","","","html-keyboard-response","78","134844","0.0-4.0-0.37","2","1","2022-10-06 05:48:53","ab77af23db77f379346475f7099b4f97","220.246.255.87","Mozilla/5.0 (Windows NT 10.0; Win64; x64) AppleWebKit/537.36 (KHTML, like Gecko) Chrome/105.0.0.0 Safari/537.36 Edg/105.0.1343.53","WebKit","Edge","105.0.1343.53","Windows","10.0","null","<div style=""font-size:60px;"">+</div>","null",""
"","","","","","html-button-response","79","135333","0.0-4.0-1.37","2","1","2022-10-06 05:48:53","ab77af23db77f379346475f7099b4f97","220.246.255.87","Mozilla/5.0 (Windows NT 10.0; Win64; x64) AppleWebKit/537.36 (KHTML, like Gecko) Chrome/105.0.0.0 Safari/537.36 Edg/105.0.1343.53","WebKit","Edge","105.0.1343.53","Windows","10.0","488","<p>作为军队的指挥官，你可以选择发射导弹杀死 <strong>1名</strong> 敌国士兵，但会误杀附近的 <strong>1名</strong> 敌国平民。</p> <p>平民照片如下图所示。</p> <p></p> <img src='stimuli/faces/NCF4.jpg', style='max-width: 30%;'> </img> <p><strong>你是否选择发射武器？</strong></p>","0",""
"","","","","","html-keyboard-response","80","136336","0.0-4.0-0.38","2","1","2022-10-06 05:48:53","ab77af23db77f379346475f7099b4f97","220.246.255.87","Mozilla/5.0 (Windows NT 10.0; Win64; x64) AppleWebKit/537.36 (KHTML, like Gecko) Chrome/105.0.0.0 Safari/537.36 Edg/105.0.1343.53","WebKit","Edge","105.0.1343.53","Windows","10.0","null","<div style=""font-size:60px;"">+</div>","null",""
"","","","","","html-button-response","81","137142","0.0-4.0-1.38","2","1","2022-10-06 05:48:53","ab77af23db77f379346475f7099b4f97","220.246.255.87","Mozilla/5.0 (Windows NT 10.0; Win64; x64) AppleWebKit/537.36 (KHTML, like Gecko) Chrome/105.0.0.0 Safari/537.36 Edg/105.0.1343.53","WebKit","Edge","105.0.1343.53","Windows","10.0","804","<p>作为军队的指挥官，你可以选择发射导弹杀死 <strong>1名</strong> 敌国士兵，但会误杀附近的 <strong>1名</strong> 敌国平民。</p> <p>平民照片如下图所示。</p> <p></p> <img src='stimuli/faces/NCM2.jpg', style='max-width: 30%;'> </img> <p><strong>你是否选择发射武器？</strong></p>","1",""
"","","","","","html-keyboard-response","82","138146","0.0-4.0-0.39","2","1","2022-10-06 05:48:53","ab77af23db77f379346475f7099b4f97","220.246.255.87","Mozilla/5.0 (Windows NT 10.0; Win64; x64) AppleWebKit/537.36 (KHTML, like Gecko) Chrome/105.0.0.0 Safari/537.36 Edg/105.0.1343.53","WebKit","Edge","105.0.1343.53","Windows","10.0","null","<div style=""font-size:60px;"">+</div>","null",""
"","","","","","html-button-response","83","138881","0.0-4.0-1.39","2","1","2022-10-06 05:48:53","ab77af23db77f379346475f7099b4f97","220.246.255.87","Mozilla/5.0 (Windows NT 10.0; Win64; x64) AppleWebKit/537.36 (KHTML, like Gecko) Chrome/105.0.0.0 Safari/537.36 Edg/105.0.1343.53","WebKit","Edge","105.0.1343.53","Windows","10.0","730","<p>作为军队的指挥官，你可以选择发射导弹杀死 <strong>9名</strong> 敌国士兵，但会误杀附近的 <strong>1名</strong> 敌国平民。</p> <p>平民照片如下图所示。</p> <p></p> <img src='stimuli/faces/NCM1.jpg', style='max-width: 30%;'> </img> <p><strong>你是否选择发射武器？</strong></p>","1",""
"","","","","","html-keyboard-response","84","139893","0.0-4.0-0.40","2","1","2022-10-06 05:48:53","ab77af23db77f379346475f7099b4f97","220.246.255.87","Mozilla/5.0 (Windows NT 10.0; Win64; x64) AppleWebKit/537.36 (KHTML, like Gecko) Chrome/105.0.0.0 Safari/537.36 Edg/105.0.1343.53","WebKit","Edge","105.0.1343.53","Windows","10.0","null","<div style=""font-size:60px;"">+</div>","null",""
"","","","","","html-button-response","85","140739","0.0-4.0-1.40","2","1","2022-10-06 05:48:53","ab77af23db77f379346475f7099b4f97","220.246.255.87","Mozilla/5.0 (Windows NT 10.0; Win64; x64) AppleWebKit/537.36 (KHTML, like Gecko) Chrome/105.0.0.0 Safari/537.36 Edg/105.0.1343.53","WebKit","Edge","105.0.1343.53","Windows","10.0","841","<p>作为军队的指挥官，你可以选择发射导弹杀死 <strong>1名</strong> 敌国士兵，但会误杀附近的 <strong>1名</strong> 敌国平民。</p> <p>平民照片如下图所示。</p> <p></p> <img src='stimuli/faces/NCF7.jpg', style='max-width: 30%;'> </img> <p><strong>你是否选择发射武器？</strong></p>","1",""
"","","","","","html-keyboard-response","86","141749","0.0-4.0-0.41","2","1","2022-10-06 05:48:53","ab77af23db77f379346475f7099b4f97","220.246.255.87","Mozilla/5.0 (Windows NT 10.0; Win64; x64) AppleWebKit/537.36 (KHTML, like Gecko) Chrome/105.0.0.0 Safari/537.36 Edg/105.0.1343.53","WebKit","Edge","105.0.1343.53","Windows","10.0","null","<div style=""font-size:60px;"">+</div>","null",""
"","","","","","html-button-response","87","142533","0.0-4.0-1.41","2","1","2022-10-06 05:48:53","ab77af23db77f379346475f7099b4f97","220.246.255.87","Mozilla/5.0 (Windows NT 10.0; Win64; x64) AppleWebKit/537.36 (KHTML, like Gecko) Chrome/105.0.0.0 Safari/537.36 Edg/105.0.1343.53","WebKit","Edge","105.0.1343.53","Windows","10.0","778","<p>作为军队的指挥官，你可以选择发射导弹杀死 <strong>10名</strong> 敌国士兵，但会炸毁附近的 <strong>1棵</strong> 敌国树木。</p> <p>树木的照片如下图所示。</p> <p></p> <img src='stimuli/trees/4.png', style='max-width: 30%;'> </img> <p><strong>你是否选择发射武器？</strong></p>","0",""
"","","","","","html-keyboard-response","88","143547","0.0-4.0-0.42","2","1","2022-10-06 05:48:53","ab77af23db77f379346475f7099b4f97","220.246.255.87","Mozilla/5.0 (Windows NT 10.0; Win64; x64) AppleWebKit/537.36 (KHTML, like Gecko) Chrome/105.0.0.0 Safari/537.36 Edg/105.0.1343.53","WebKit","Edge","105.0.1343.53","Windows","10.0","null","<div style=""font-size:60px;"">+</div>","null",""
"","","","","","html-button-response","89","144419","0.0-4.0-1.42","2","1","2022-10-06 05:48:53","ab77af23db77f379346475f7099b4f97","220.246.255.87","Mozilla/5.0 (Windows NT 10.0; Win64; x64) AppleWebKit/537.36 (KHTML, like Gecko) Chrome/105.0.0.0 Safari/537.36 Edg/105.0.1343.53","WebKit","Edge","105.0.1343.53","Windows","10.0","869","<p>作为军队的指挥官，你可以选择发射导弹杀死 <strong>8名</strong> 敌国士兵，但会误杀附近的 <strong>1名</strong> 敌国平民。</p> <p>平民照片如下图所示。</p> <p></p> <img src='stimuli/faces/NCF5.jpg', style='max-width: 30%;'> </img> <p><strong>你是否选择发射武器？</strong></p>","1",""
"","","","","","html-keyboard-response","90","145436","0.0-4.0-0.43","2","1","2022-10-06 05:48:53","ab77af23db77f379346475f7099b4f97","220.246.255.87","Mozilla/5.0 (Windows NT 10.0; Win64; x64) AppleWebKit/537.36 (KHTML, like Gecko) Chrome/105.0.0.0 Safari/537.36 Edg/105.0.1343.53","WebKit","Edge","105.0.1343.53","Windows","10.0","null","<div style=""font-size:60px;"">+</div>","null",""
"","","","","","html-button-response","91","146425","0.0-4.0-1.43","2","1","2022-10-06 05:48:53","ab77af23db77f379346475f7099b4f97","220.246.255.87","Mozilla/5.0 (Windows NT 10.0; Win64; x64) AppleWebKit/537.36 (KHTML, like Gecko) Chrome/105.0.0.0 Safari/537.36 Edg/105.0.1343.53","WebKit","Edge","105.0.1343.53","Windows","10.0","984","<p>作为军队的指挥官，你可以选择发射导弹杀死 <strong>8名</strong> 敌国士兵，但会误杀附近的 <strong>1名</strong> 敌国平民。</p> <p>平民照片如下图所示。</p> <p></p> <img src='stimuli/faces/NCF8.jpg', style='max-width: 30%;'> </img> <p><strong>你是否选择发射武器？</strong></p>","1",""
"","","","","","html-keyboard-response","92","147439","0.0-4.0-0.44","2","1","2022-10-06 05:48:53","ab77af23db77f379346475f7099b4f97","220.246.255.87","Mozilla/5.0 (Windows NT 10.0; Win64; x64) AppleWebKit/537.36 (KHTML, like Gecko) Chrome/105.0.0.0 Safari/537.36 Edg/105.0.1343.53","WebKit","Edge","105.0.1343.53","Windows","10.0","null","<div style=""font-size:60px;"">+</div>","null",""
"","","","","","html-button-response","93","149259","0.0-4.0-1.44","2","1","2022-10-06 05:48:53","ab77af23db77f379346475f7099b4f97","220.246.255.87","Mozilla/5.0 (Windows NT 10.0; Win64; x64) AppleWebKit/537.36 (KHTML, like Gecko) Chrome/105.0.0.0 Safari/537.36 Edg/105.0.1343.53","WebKit","Edge","105.0.1343.53","Windows","10.0","1814","<p>作为军队的指挥官，你可以选择发射导弹杀死 <strong>3名</strong> 敌国士兵，但会误杀附近的 <strong>1名</strong> 敌国平民。</p> <p>平民照片如下图所示。</p> <p></p> <img src='stimuli/faces/NCM6.jpg', style='max-width: 30%;'> </img> <p><strong>你是否选择发射武器？</strong></p>","1",""
"","","","","","html-keyboard-response","94","150278","0.0-4.0-0.45","2","1","2022-10-06 05:48:53","ab77af23db77f379346475f7099b4f97","220.246.255.87","Mozilla/5.0 (Windows NT 10.0; Win64; x64) AppleWebKit/537.36 (KHTML, like Gecko) Chrome/105.0.0.0 Safari/537.36 Edg/105.0.1343.53","WebKit","Edge","105.0.1343.53","Windows","10.0","null","<div style=""font-size:60px;"">+</div>","null",""
"","","","","","html-button-response","95","150969","0.0-4.0-1.45","2","1","2022-10-06 05:48:53","ab77af23db77f379346475f7099b4f97","220.246.255.87","Mozilla/5.0 (Windows NT 10.0; Win64; x64) AppleWebKit/537.36 (KHTML, like Gecko) Chrome/105.0.0.0 Safari/537.36 Edg/105.0.1343.53","WebKit","Edge","105.0.1343.53","Windows","10.0","683","<p>作为军队的指挥官，你可以选择发射导弹杀死 <strong>6名</strong> 敌国士兵，但会炸毁附近的 <strong>1棵</strong> 敌国树木。</p> <p>树木的照片如下图所示。</p> <p></p> <img src='stimuli/trees/7.png', style='max-width: 30%;'> </img> <p><strong>你是否选择发射武器？</strong></p>","0",""
"","","","","","html-keyboard-response","96","151976","0.0-4.0-0.46","2","1","2022-10-06 05:48:53","ab77af23db77f379346475f7099b4f97","220.246.255.87","Mozilla/5.0 (Windows NT 10.0; Win64; x64) AppleWebKit/537.36 (KHTML, like Gecko) Chrome/105.0.0.0 Safari/537.36 Edg/105.0.1343.53","WebKit","Edge","105.0.1343.53","Windows","10.0","null","<div style=""font-size:60px;"">+</div>","null",""
"","","","","","html-button-response","97","152444","0.0-4.0-1.46","2","1","2022-10-06 05:48:53","ab77af23db77f379346475f7099b4f97","220.246.255.87","Mozilla/5.0 (Windows NT 10.0; Win64; x64) AppleWebKit/537.36 (KHTML, like Gecko) Chrome/105.0.0.0 Safari/537.36 Edg/105.0.1343.53","WebKit","Edge","105.0.1343.53","Windows","10.0","465","<p>作为军队的指挥官，你可以选择发射导弹杀死 <strong>8名</strong> 敌国士兵，但会炸毁附近的 <strong>1棵</strong> 敌国树木。</p> <p>树木的照片如下图所示。</p> <p></p> <img src='stimuli/trees/6.png', style='max-width: 30%;'> </img> <p><strong>你是否选择发射武器？</strong></p>","0",""
"","","","","","html-keyboard-response","98","153455","0.0-4.0-0.47","2","1","2022-10-06 05:48:53","ab77af23db77f379346475f7099b4f97","220.246.255.87","Mozilla/5.0 (Windows NT 10.0; Win64; x64) AppleWebKit/537.36 (KHTML, like Gecko) Chrome/105.0.0.0 Safari/537.36 Edg/105.0.1343.53","WebKit","Edge","105.0.1343.53","Windows","10.0","null","<div style=""font-size:60px;"">+</div>","null",""
"","","","","","html-button-response","99","153927","0.0-4.0-1.47","2","1","2022-10-06 05:48:53","ab77af23db77f379346475f7099b4f97","220.246.255.87","Mozilla/5.0 (Windows NT 10.0; Win64; x64) AppleWebKit/537.36 (KHTML, like Gecko) Chrome/105.0.0.0 Safari/537.36 Edg/105.0.1343.53","WebKit","Edge","105.0.1343.53","Windows","10.0","470","<p>作为军队的指挥官，你可以选择发射导弹杀死 <strong>8名</strong> 敌国士兵，但会炸毁附近的 <strong>1棵</strong> 敌国树木。</p> <p>树木的照片如下图所示。</p> <p></p> <img src='stimuli/trees/2.png', style='max-width: 30%;'> </img> <p><strong>你是否选择发射武器？</strong></p>","0",""
"","","","","","html-keyboard-response","100","154933","0.0-4.0-0.48","2","1","2022-10-06 05:48:53","ab77af23db77f379346475f7099b4f97","220.246.255.87","Mozilla/5.0 (Windows NT 10.0; Win64; x64) AppleWebKit/537.36 (KHTML, like Gecko) Chrome/105.0.0.0 Safari/537.36 Edg/105.0.1343.53","WebKit","Edge","105.0.1343.53","Windows","10.0","null","<div style=""font-size:60px;"">+</div>","null",""
"","","","","","html-button-response","101","155403","0.0-4.0-1.48","2","1","2022-10-06 05:48:53","ab77af23db77f379346475f7099b4f97","220.246.255.87","Mozilla/5.0 (Windows NT 10.0; Win64; x64) AppleWebKit/537.36 (KHTML, like Gecko) Chrome/105.0.0.0 Safari/537.36 Edg/105.0.1343.53","WebKit","Edge","105.0.1343.53","Windows","10.0","469","<p>作为军队的指挥官，你可以选择发射导弹杀死 <strong>2名</strong> 敌国士兵，但会炸毁附近的 <strong>1棵</strong> 敌国树木。</p> <p>树木的照片如下图所示。</p> <p></p> <img src='stimuli/trees/1.png', style='max-width: 30%;'> </img> <p><strong>你是否选择发射武器？</strong></p>","0",""
"","","","","","html-keyboard-response","102","156412","0.0-4.0-0.49","2","1","2022-10-06 05:48:53","ab77af23db77f379346475f7099b4f97","220.246.255.87","Mozilla/5.0 (Windows NT 10.0; Win64; x64) AppleWebKit/537.36 (KHTML, like Gecko) Chrome/105.0.0.0 Safari/537.36 Edg/105.0.1343.53","WebKit","Edge","105.0.1343.53","Windows","10.0","null","<div style=""font-size:60px;"">+</div>","null",""
"","","","","","html-button-response","103","156887","0.0-4.0-1.49","2","1","2022-10-06 05:48:53","ab77af23db77f379346475f7099b4f97","220.246.255.87","Mozilla/5.0 (Windows NT 10.0; Win64; x64) AppleWebKit/537.36 (KHTML, like Gecko) Chrome/105.0.0.0 Safari/537.36 Edg/105.0.1343.53","WebKit","Edge","105.0.1343.53","Windows","10.0","469","<p>作为军队的指挥官，你可以选择发射导弹杀死 <strong>4名</strong> 敌国士兵，但会炸毁附近的 <strong>1棵</strong> 敌国树木。</p> <p>树木的照片如下图所示。</p> <p></p> <img src='stimuli/trees/3.png', style='max-width: 30%;'> </img> <p><strong>你是否选择发射武器？</strong></p>","0",""
"","","","","","html-keyboard-response","104","157904","0.0-4.0-0.50","2","1","2022-10-06 05:48:53","ab77af23db77f379346475f7099b4f97","220.246.255.87","Mozilla/5.0 (Windows NT 10.0; Win64; x64) AppleWebKit/537.36 (KHTML, like Gecko) Chrome/105.0.0.0 Safari/537.36 Edg/105.0.1343.53","WebKit","Edge","105.0.1343.53","Windows","10.0","null","<div style=""font-size:60px;"">+</div>","null",""
"","","","","","html-button-response","105","158333","0.0-4.0-1.50","2","1","2022-10-06 05:48:53","ab77af23db77f379346475f7099b4f97","220.246.255.87","Mozilla/5.0 (Windows NT 10.0; Win64; x64) AppleWebKit/537.36 (KHTML, like Gecko) Chrome/105.0.0.0 Safari/537.36 Edg/105.0.1343.53","WebKit","Edge","105.0.1343.53","Windows","10.0","426","<p>作为军队的指挥官，你可以选择发射导弹杀死 <strong>5名</strong> 敌国士兵，但会炸毁附近的 <strong>1棵</strong> 敌国树木。</p> <p>树木的照片如下图所示。</p> <p></p> <img src='stimuli/trees/16.png', style='max-width: 30%;'> </img> <p><strong>你是否选择发射武器？</strong></p>","0",""
"","","","","","html-keyboard-response","106","159348","0.0-4.0-0.51","2","1","2022-10-06 05:48:53","ab77af23db77f379346475f7099b4f97","220.246.255.87","Mozilla/5.0 (Windows NT 10.0; Win64; x64) AppleWebKit/537.36 (KHTML, like Gecko) Chrome/105.0.0.0 Safari/537.36 Edg/105.0.1343.53","WebKit","Edge","105.0.1343.53","Windows","10.0","null","<div style=""font-size:60px;"">+</div>","null",""
"","","","","","html-button-response","107","159770","0.0-4.0-1.51","2","1","2022-10-06 05:48:53","ab77af23db77f379346475f7099b4f97","220.246.255.87","Mozilla/5.0 (Windows NT 10.0; Win64; x64) AppleWebKit/537.36 (KHTML, like Gecko) Chrome/105.0.0.0 Safari/537.36 Edg/105.0.1343.53","WebKit","Edge","105.0.1343.53","Windows","10.0","417","<p>作为军队的指挥官，你可以选择发射导弹杀死 <strong>3名</strong> 敌国士兵，但会炸毁附近的 <strong>1棵</strong> 敌国树木。</p> <p>树木的照片如下图所示。</p> <p></p> <img src='stimuli/trees/15.png', style='max-width: 30%;'> </img> <p><strong>你是否选择发射武器？</strong></p>","0",""
"","","","","","html-keyboard-response","108","160776","0.0-4.0-0.52","2","1","2022-10-06 05:48:53","ab77af23db77f379346475f7099b4f97","220.246.255.87","Mozilla/5.0 (Windows NT 10.0; Win64; x64) AppleWebKit/537.36 (KHTML, like Gecko) Chrome/105.0.0.0 Safari/537.36 Edg/105.0.1343.53","WebKit","Edge","105.0.1343.53","Windows","10.0","null","<div style=""font-size:60px;"">+</div>","null",""
"","","","","","html-button-response","109","161595","0.0-4.0-1.52","2","1","2022-10-06 05:48:53","ab77af23db77f379346475f7099b4f97","220.246.255.87","Mozilla/5.0 (Windows NT 10.0; Win64; x64) AppleWebKit/537.36 (KHTML, like Gecko) Chrome/105.0.0.0 Safari/537.36 Edg/105.0.1343.53","WebKit","Edge","105.0.1343.53","Windows","10.0","813","<p>作为军队的指挥官，你可以选择发射导弹杀死 <strong>10名</strong> 敌国士兵，但会误杀附近的 <strong>1名</strong> 敌国平民。</p> <p>平民照片如下图所示。</p> <p></p> <img src='stimuli/faces/NCF2.jpg', style='max-width: 30%;'> </img> <p><strong>你是否选择发射武器？</strong></p>","1",""
"","","","","","html-keyboard-response","110","162599","0.0-4.0-0.53","2","1","2022-10-06 05:48:53","ab77af23db77f379346475f7099b4f97","220.246.255.87","Mozilla/5.0 (Windows NT 10.0; Win64; x64) AppleWebKit/537.36 (KHTML, like Gecko) Chrome/105.0.0.0 Safari/537.36 Edg/105.0.1343.53","WebKit","Edge","105.0.1343.53","Windows","10.0","null","<div style=""font-size:60px;"">+</div>","null",""
"","","","","","html-button-response","111","163265","0.0-4.0-1.53","2","1","2022-10-06 05:48:53","ab77af23db77f379346475f7099b4f97","220.246.255.87","Mozilla/5.0 (Windows NT 10.0; Win64; x64) AppleWebKit/537.36 (KHTML, like Gecko) Chrome/105.0.0.0 Safari/537.36 Edg/105.0.1343.53","WebKit","Edge","105.0.1343.53","Windows","10.0","662","<p>作为军队的指挥官，你可以选择发射导弹杀死 <strong>8名</strong> 敌国士兵，但会炸毁附近的 <strong>1棵</strong> 敌国树木。</p> <p>树木的照片如下图所示。</p> <p></p> <img src='stimuli/trees/5.png', style='max-width: 30%;'> </img> <p><strong>你是否选择发射武器？</strong></p>","0",""
"","","","","","html-keyboard-response","112","164271","0.0-4.0-0.54","2","1","2022-10-06 05:48:53","ab77af23db77f379346475f7099b4f97","220.246.255.87","Mozilla/5.0 (Windows NT 10.0; Win64; x64) AppleWebKit/537.36 (KHTML, like Gecko) Chrome/105.0.0.0 Safari/537.36 Edg/105.0.1343.53","WebKit","Edge","105.0.1343.53","Windows","10.0","null","<div style=""font-size:60px;"">+</div>","null",""
"","","","","","html-button-response","113","164725","0.0-4.0-1.54","2","1","2022-10-06 05:48:53","ab77af23db77f379346475f7099b4f97","220.246.255.87","Mozilla/5.0 (Windows NT 10.0; Win64; x64) AppleWebKit/537.36 (KHTML, like Gecko) Chrome/105.0.0.0 Safari/537.36 Edg/105.0.1343.53","WebKit","Edge","105.0.1343.53","Windows","10.0","449","<p>作为军队的指挥官，你可以选择发射导弹杀死 <strong>2名</strong> 敌国士兵，但会炸毁附近的 <strong>1棵</strong> 敌国树木。</p> <p>树木的照片如下图所示。</p> <p></p> <img src='stimuli/trees/7.png', style='max-width: 30%;'> </img> <p><strong>你是否选择发射武器？</strong></p>","0",""
"","","","","","html-keyboard-response","114","165734","0.0-4.0-0.55","2","1","2022-10-06 05:48:53","ab77af23db77f379346475f7099b4f97","220.246.255.87","Mozilla/5.0 (Windows NT 10.0; Win64; x64) AppleWebKit/537.36 (KHTML, like Gecko) Chrome/105.0.0.0 Safari/537.36 Edg/105.0.1343.53","WebKit","Edge","105.0.1343.53","Windows","10.0","null","<div style=""font-size:60px;"">+</div>","null",""
"","","","","","html-button-response","115","166185","0.0-4.0-1.55","2","1","2022-10-06 05:48:53","ab77af23db77f379346475f7099b4f97","220.246.255.87","Mozilla/5.0 (Windows NT 10.0; Win64; x64) AppleWebKit/537.36 (KHTML, like Gecko) Chrome/105.0.0.0 Safari/537.36 Edg/105.0.1343.53","WebKit","Edge","105.0.1343.53","Windows","10.0","449","<p>作为军队的指挥官，你可以选择发射导弹杀死 <strong>3名</strong> 敌国士兵，但会炸毁附近的 <strong>1棵</strong> 敌国树木。</p> <p>树木的照片如下图所示。</p> <p></p> <img src='stimuli/trees/13.png', style='max-width: 30%;'> </img> <p><strong>你是否选择发射武器？</strong></p>","0",""
"","","","","","html-keyboard-response","116","167197","0.0-4.0-0.56","2","1","2022-10-06 05:48:53","ab77af23db77f379346475f7099b4f97","220.246.255.87","Mozilla/5.0 (Windows NT 10.0; Win64; x64) AppleWebKit/537.36 (KHTML, like Gecko) Chrome/105.0.0.0 Safari/537.36 Edg/105.0.1343.53","WebKit","Edge","105.0.1343.53","Windows","10.0","null","<div style=""font-size:60px;"">+</div>","null",""
"","","","","","html-button-response","117","167847","0.0-4.0-1.56","2","1","2022-10-06 05:48:53","ab77af23db77f379346475f7099b4f97","220.246.255.87","Mozilla/5.0 (Windows NT 10.0; Win64; x64) AppleWebKit/537.36 (KHTML, like Gecko) Chrome/105.0.0.0 Safari/537.36 Edg/105.0.1343.53","WebKit","Edge","105.0.1343.53","Windows","10.0","645","<p>作为军队的指挥官，你可以选择发射导弹杀死 <strong>4名</strong> 敌国士兵，但会炸毁附近的 <strong>1棵</strong> 敌国树木。</p> <p>树木的照片如下图所示。</p> <p></p> <img src='stimuli/trees/12.png', style='max-width: 30%;'> </img> <p><strong>你是否选择发射武器？</strong></p>","0",""
"","","","","","html-keyboard-response","118","168862","0.0-4.0-0.57","2","1","2022-10-06 05:48:53","ab77af23db77f379346475f7099b4f97","220.246.255.87","Mozilla/5.0 (Windows NT 10.0; Win64; x64) AppleWebKit/537.36 (KHTML, like Gecko) Chrome/105.0.0.0 Safari/537.36 Edg/105.0.1343.53","WebKit","Edge","105.0.1343.53","Windows","10.0","null","<div style=""font-size:60px;"">+</div>","null",""
"","","","","","html-button-response","119","169307","0.0-4.0-1.57","2","1","2022-10-06 05:48:53","ab77af23db77f379346475f7099b4f97","220.246.255.87","Mozilla/5.0 (Windows NT 10.0; Win64; x64) AppleWebKit/537.36 (KHTML, like Gecko) Chrome/105.0.0.0 Safari/537.36 Edg/105.0.1343.53","WebKit","Edge","105.0.1343.53","Windows","10.0","439","<p>作为军队的指挥官，你可以选择发射导弹杀死 <strong>2名</strong> 敌国士兵，但会炸毁附近的 <strong>1棵</strong> 敌国树木。</p> <p>树木的照片如下图所示。</p> <p></p> <img src='stimuli/trees/6.png', style='max-width: 30%;'> </img> <p><strong>你是否选择发射武器？</strong></p>","0",""
"","","","","","html-keyboard-response","120","170311","0.0-4.0-0.58","2","1","2022-10-06 05:48:53","ab77af23db77f379346475f7099b4f97","220.246.255.87","Mozilla/5.0 (Windows NT 10.0; Win64; x64) AppleWebKit/537.36 (KHTML, like Gecko) Chrome/105.0.0.0 Safari/537.36 Edg/105.0.1343.53","WebKit","Edge","105.0.1343.53","Windows","10.0","null","<div style=""font-size:60px;"">+</div>","null",""
"","","","","","html-button-response","121","170969","0.0-4.0-1.58","2","1","2022-10-06 05:48:53","ab77af23db77f379346475f7099b4f97","220.246.255.87","Mozilla/5.0 (Windows NT 10.0; Win64; x64) AppleWebKit/537.36 (KHTML, like Gecko) Chrome/105.0.0.0 Safari/537.36 Edg/105.0.1343.53","WebKit","Edge","105.0.1343.53","Windows","10.0","653","<p>作为军队的指挥官，你可以选择发射导弹杀死 <strong>3名</strong> 敌国士兵，但会炸毁附近的 <strong>1棵</strong> 敌国树木。</p> <p>树木的照片如下图所示。</p> <p></p> <img src='stimuli/trees/9.png', style='max-width: 30%;'> </img> <p><strong>你是否选择发射武器？</strong></p>","0",""
"","","","","","html-keyboard-response","122","171973","0.0-4.0-0.59","2","1","2022-10-06 05:48:53","ab77af23db77f379346475f7099b4f97","220.246.255.87","Mozilla/5.0 (Windows NT 10.0; Win64; x64) AppleWebKit/537.36 (KHTML, like Gecko) Chrome/105.0.0.0 Safari/537.36 Edg/105.0.1343.53","WebKit","Edge","105.0.1343.53","Windows","10.0","null","<div style=""font-size:60px;"">+</div>","null",""
"","","","","","html-button-response","123","172873","0.0-4.0-1.59","2","1","2022-10-06 05:48:53","ab77af23db77f379346475f7099b4f97","220.246.255.87","Mozilla/5.0 (Windows NT 10.0; Win64; x64) AppleWebKit/537.36 (KHTML, like Gecko) Chrome/105.0.0.0 Safari/537.36 Edg/105.0.1343.53","WebKit","Edge","105.0.1343.53","Windows","10.0","896","<p>作为军队的指挥官，你可以选择发射导弹杀死 <strong>9名</strong> 敌国士兵，但会误杀附近的 <strong>1名</strong> 敌国平民。</p> <p>平民照片如下图所示。</p> <p></p> <img src='stimuli/faces/NCF3.jpg', style='max-width: 30%;'> </img> <p><strong>你是否选择发射武器？</strong></p>","1",""
"","","","","","html-keyboard-response","124","173882","0.0-4.0-0.60","2","1","2022-10-06 05:48:53","ab77af23db77f379346475f7099b4f97","220.246.255.87","Mozilla/5.0 (Windows NT 10.0; Win64; x64) AppleWebKit/537.36 (KHTML, like Gecko) Chrome/105.0.0.0 Safari/537.36 Edg/105.0.1343.53","WebKit","Edge","105.0.1343.53","Windows","10.0","null","<div style=""font-size:60px;"">+</div>","null",""
"","","","","","html-button-response","125","175101","0.0-4.0-1.60","2","1","2022-10-06 05:48:53","ab77af23db77f379346475f7099b4f97","220.246.255.87","Mozilla/5.0 (Windows NT 10.0; Win64; x64) AppleWebKit/537.36 (KHTML, like Gecko) Chrome/105.0.0.0 Safari/537.36 Edg/105.0.1343.53","WebKit","Edge","105.0.1343.53","Windows","10.0","1216","<p>作为军队的指挥官，你可以选择发射导弹杀死 <strong>10名</strong> 敌国士兵，但会炸毁附近的 <strong>1棵</strong> 敌国树木。</p> <p>树木的照片如下图所示。</p> <p></p> <img src='stimuli/trees/9.png', style='max-width: 30%;'> </img> <p><strong>你是否选择发射武器？</strong></p>","0",""
"","","","","","html-keyboard-response","126","176103","0.0-4.0-0.61","2","1","2022-10-06 05:48:53","ab77af23db77f379346475f7099b4f97","220.246.255.87","Mozilla/5.0 (Windows NT 10.0; Win64; x64) AppleWebKit/537.36 (KHTML, like Gecko) Chrome/105.0.0.0 Safari/537.36 Edg/105.0.1343.53","WebKit","Edge","105.0.1343.53","Windows","10.0","null","<div style=""font-size:60px;"">+</div>","null",""
"","","","","","html-button-response","127","176630","0.0-4.0-1.61","2","1","2022-10-06 05:48:53","ab77af23db77f379346475f7099b4f97","220.246.255.87","Mozilla/5.0 (Windows NT 10.0; Win64; x64) AppleWebKit/537.36 (KHTML, like Gecko) Chrome/105.0.0.0 Safari/537.36 Edg/105.0.1343.53","WebKit","Edge","105.0.1343.53","Windows","10.0","521","<p>作为军队的指挥官，你可以选择发射导弹杀死 <strong>9名</strong> 敌国士兵，但会炸毁附近的 <strong>1棵</strong> 敌国树木。</p> <p>树木的照片如下图所示。</p> <p></p> <img src='stimuli/trees/11.png', style='max-width: 30%;'> </img> <p><strong>你是否选择发射武器？</strong></p>","0",""
"","","","","","html-keyboard-response","128","177637","0.0-4.0-0.62","2","1","2022-10-06 05:48:53","ab77af23db77f379346475f7099b4f97","220.246.255.87","Mozilla/5.0 (Windows NT 10.0; Win64; x64) AppleWebKit/537.36 (KHTML, like Gecko) Chrome/105.0.0.0 Safari/537.36 Edg/105.0.1343.53","WebKit","Edge","105.0.1343.53","Windows","10.0","null","<div style=""font-size:60px;"">+</div>","null",""
"","","","","","html-button-response","129","178526","0.0-4.0-1.62","2","1","2022-10-06 05:48:53","ab77af23db77f379346475f7099b4f97","220.246.255.87","Mozilla/5.0 (Windows NT 10.0; Win64; x64) AppleWebKit/537.36 (KHTML, like Gecko) Chrome/105.0.0.0 Safari/537.36 Edg/105.0.1343.53","WebKit","Edge","105.0.1343.53","Windows","10.0","884","<p>作为军队的指挥官，你可以选择发射导弹杀死 <strong>5名</strong> 敌国士兵，但会误杀附近的 <strong>1名</strong> 敌国平民。</p> <p>平民照片如下图所示。</p> <p></p> <img src='stimuli/faces/NCF5.jpg', style='max-width: 30%;'> </img> <p><strong>你是否选择发射武器？</strong></p>","1",""
"","","","","","html-keyboard-response","130","179529","0.0-4.0-0.63","2","1","2022-10-06 05:48:53","ab77af23db77f379346475f7099b4f97","220.246.255.87","Mozilla/5.0 (Windows NT 10.0; Win64; x64) AppleWebKit/537.36 (KHTML, like Gecko) Chrome/105.0.0.0 Safari/537.36 Edg/105.0.1343.53","WebKit","Edge","105.0.1343.53","Windows","10.0","null","<div style=""font-size:60px;"">+</div>","null",""
"","","","","","html-button-response","131","180032","0.0-4.0-1.63","2","1","2022-10-06 05:48:53","ab77af23db77f379346475f7099b4f97","220.246.255.87","Mozilla/5.0 (Windows NT 10.0; Win64; x64) AppleWebKit/537.36 (KHTML, like Gecko) Chrome/105.0.0.0 Safari/537.36 Edg/105.0.1343.53","WebKit","Edge","105.0.1343.53","Windows","10.0","499","<p>作为军队的指挥官，你可以选择发射导弹杀死 <strong>1名</strong> 敌国士兵，但会误杀附近的 <strong>1名</strong> 敌国平民。</p> <p>平民照片如下图所示。</p> <p></p> <img src='stimuli/faces/NCM5.jpg', style='max-width: 30%;'> </img> <p><strong>你是否选择发射武器？</strong></p>","1",""
"","","","","","survey-multi-choice","132","193067","0.0-5.0","2","1","2022-10-06 05:48:53","ab77af23db77f379346475f7099b4f97","220.246.255.87","Mozilla/5.0 (Windows NT 10.0; Win64; x64) AppleWebKit/537.36 (KHTML, like Gecko) Chrome/105.0.0.0 Safari/537.36 Edg/105.0.1343.53","WebKit","Edge","105.0.1343.53","Windows","10.0","13031","","{""Attention1"":""""}","[0]"
"","","","","","html-button-response","133","195038","0.0-6.0","2","1","2022-10-06 05:48:53","ab77af23db77f379346475f7099b4f97","220.246.255.87","Mozilla/5.0 (Windows NT 10.0; Win64; x64) AppleWebKit/537.36 (KHTML, like Gecko) Chrome/105.0.0.0 Safari/537.36 Edg/105.0.1343.53","WebKit","Edge","105.0.1343.53","Windows","10.0","1967","<p style=""font-size:20px;font-weight:bold;"">恭喜！</p><p>你已经完成了实验的第一部分。</p><p>请休息放松一下，然后进入第二部分。</p><p>这部分大约需要10分钟。</p>","0",""
"","","","","","survey-text","134","229243","0.0-7.0","2","1","2022-10-06 05:48:53","ab77af23db77f379346475f7099b4f97","220.246.255.87","Mozilla/5.0 (Windows NT 10.0; Win64; x64) AppleWebKit/537.36 (KHTML, like Gecko) Chrome/105.0.0.0 Safari/537.36 Edg/105.0.1343.53","WebKit","Edge","105.0.1343.53","Windows","10.0","33187","","{""Age"":""22"",""Nation"":""中国"",""Born"":""山东省泰安市"",""Live"":""北京"",""Ethnic"":""汉"",""Alipay"":""15377501029""}",""
"","","","","","survey-multi-choice","135","244820","0.0-8.0","2","1","2022-10-06 05:48:53","ab77af23db77f379346475f7099b4f97","220.246.255.87","Mozilla/5.0 (Windows NT 10.0; Win64; x64) AppleWebKit/537.36 (KHTML, like Gecko) Chrome/105.0.0.0 Safari/537.36 Edg/105.0.1343.53","WebKit","Edge","105.0.1343.53","Windows","10.0","15572","","{""Gender"":""女"",""Education"":""本科毕业"",""Income"":""￥140,000-￥269,999"",""Children"":""0"",""Race"":""亚洲人""}","[0,1,2,3,4]"
"","","","","","survey-multi-select","136","249726","0.0-9.0","2","1","2022-10-06 05:48:53","ab77af23db77f379346475f7099b4f97","220.246.255.87","Mozilla/5.0 (Windows NT 10.0; Win64; x64) AppleWebKit/537.36 (KHTML, like Gecko) Chrome/105.0.0.0 Safari/537.36 Edg/105.0.1343.53","WebKit","Edge","105.0.1343.53","Windows","10.0","4896","","{""Marriage"":[""未婚""],""Religion"":[""无宗教信仰""]}","[0,1]"
"","","","","","survey-multi-choice","137","267944","0.0-10.0","2","1","2022-10-06 05:48:53","ab77af23db77f379346475f7099b4f97","220.246.255.87","Mozilla/5.0 (Windows NT 10.0; Win64; x64) AppleWebKit/537.36 (KHTML, like Gecko) Chrome/105.0.0.0 Safari/537.36 Edg/105.0.1343.53","WebKit","Edge","105.0.1343.53","Windows","10.0","18212","","{""SES"":""5""}","[0]"
"","","","","","html-button-response","138","269125","0.0-11.0","2","1","2022-10-06 05:48:53","ab77af23db77f379346475f7099b4f97","220.246.255.87","Mozilla/5.0 (Windows NT 10.0; Win64; x64) AppleWebKit/537.36 (KHTML, like Gecko) Chrome/105.0.0.0 Safari/537.36 Edg/105.0.1343.53","WebKit","Edge","105.0.1343.53","Windows","10.0","1176","<p><strong>请判断下列陈述在多大程度上可以形容你？</p><p> (1 = ""和我一点都不像"" to 5 = ""非常像我"".)</strong></p>","0",""
"","","","","","survey-likert","139","291938","0.0-12.0","2","1","2022-10-06 05:48:53","ab77af23db77f379346475f7099b4f97","220.246.255.87","Mozilla/5.0 (Windows NT 10.0; Win64; x64) AppleWebKit/537.36 (KHTML, like Gecko) Chrome/105.0.0.0 Safari/537.36 Edg/105.0.1343.53","WebKit","Edge","105.0.1343.53","Windows","10.0","22809","","{""Aggression1"":0,""Aggression2"":0,""Aggression3"":4,""Aggression4"":0,""Aggression5"":4,""Aggression6"":0,""Aggression7"":2,""Aggression8"":0,""Aggression9"":0}","[0,1,2,3,4,5,6,7,8]"
"","","","","","html-button-response","140","292815","0.0-13.0","2","1","2022-10-06 05:48:53","ab77af23db77f379346475f7099b4f97","220.246.255.87","Mozilla/5.0 (Windows NT 10.0; Win64; x64) AppleWebKit/537.36 (KHTML, like Gecko) Chrome/105.0.0.0 Safari/537.36 Edg/105.0.1343.53","WebKit","Edge","105.0.1343.53","Windows","10.0","872","<p><strong>请判断你在多大程度上同意下列陈述。</strong></p>","0",""
"","","","","","survey-likert","141","358421","0.0-14.0","2","1","2022-10-06 05:48:53","ab77af23db77f379346475f7099b4f97","220.246.255.87","Mozilla/5.0 (Windows NT 10.0; Win64; x64) AppleWebKit/537.36 (KHTML, like Gecko) Chrome/105.0.0.0 Safari/537.36 Edg/105.0.1343.53","WebKit","Edge","105.0.1343.53","Windows","10.0","65602","","{""scale19"":4,""scale11"":4,""scale21"":4,""scale5"":4,""scale25"":2,""scale28"":4,""scale17"":4,""scale4"":2,""scale14"":4,""scale26"":3,""scale10"":4,""scale27"":0,""scale12"":0,""scale2"":2,""scale18"":1,""scale6"":2,""scale15"":2,""scale24"":1,""scale8"":3,""scale1"":1,""scale9"":3,""scale16"":1,""scale3"":1,""scale23"":3,""scale20"":3,""scale13"":1,""scale22"":2,""scale7"":1}","[18,10,20,4,24,27,16,3,13,25,9,26,11,1,17,5,14,23,7,0,8,15,2,22,19,12,21,6]"
"","","","","","html-button-response","142","359254","0.0-15.0","2","1","2022-10-06 05:48:53","ab77af23db77f379346475f7099b4f97","220.246.255.87","Mozilla/5.0 (Windows NT 10.0; Win64; x64) AppleWebKit/537.36 (KHTML, like Gecko) Chrome/105.0.0.0 Safari/537.36 Edg/105.0.1343.53","WebKit","Edge","105.0.1343.53","Windows","10.0","828","<p><strong>请判断你在多大程度上同意下列陈述。</strong></p>","0",""
"","","","","","survey-likert","143","408915","0.0-16.0","2","1","2022-10-06 05:48:53","ab77af23db77f379346475f7099b4f97","220.246.255.87","Mozilla/5.0 (Windows NT 10.0; Win64; x64) AppleWebKit/537.36 (KHTML, like Gecko) Chrome/105.0.0.0 Safari/537.36 Edg/105.0.1343.53","WebKit","Edge","105.0.1343.53","Windows","10.0","49657","","{""sdo9"":3,""sdo3"":2,""sdo16"":4,""sdo8"":6,""sdo7"":3,""sdo1"":3,""sdo4"":3,""sdo11"":6,""sdo6"":3,""sdo14"":3,""sdo13"":5,""sdo12"":4,""sdo15"":3,""sdo5"":5,""sdo10"":3,""sdo2"":1}","[8,2,15,7,6,0,3,10,5,13,12,11,14,4,9,1]"
"","","","","","html-button-response","144","409914","0.0-17.0","2","1","2022-10-06 05:48:53","ab77af23db77f379346475f7099b4f97","220.246.255.87","Mozilla/5.0 (Windows NT 10.0; Win64; x64) AppleWebKit/537.36 (KHTML, like Gecko) Chrome/105.0.0.0 Safari/537.36 Edg/105.0.1343.53","WebKit","Edge","105.0.1343.53","Windows","10.0","995","<p><strong>请判断你在多大程度上同意下列陈述。</strong></p>","0",""
"","","","","","survey-likert","145","443100","0.0-18.0","2","1","2022-10-06 05:48:53","ab77af23db77f379346475f7099b4f97","220.246.255.87","Mozilla/5.0 (Windows NT 10.0; Win64; x64) AppleWebKit/537.36 (KHTML, like Gecko) Chrome/105.0.0.0 Safari/537.36 Edg/105.0.1343.53","WebKit","Edge","105.0.1343.53","Windows","10.0","33182","","{""caring1"":0,""liking1"":4,""caring2"":2,""protection1"":2,""liking2"":3,""caring3"":1,""protection2"":0,""liking3"":4,""protection3"":0,""caring4"":1,""liking4"":3,""protection4"":1,""caring5"":1,""liking5"":4,""protection5"":1}","[0,1,2,3,4,5,6,7,8,9,10,11,12,13,14]"
"","","","","","html-button-response","146","443885","0.0-19.0","2","1","2022-10-06 05:48:53","ab77af23db77f379346475f7099b4f97","220.246.255.87","Mozilla/5.0 (Windows NT 10.0; Win64; x64) AppleWebKit/537.36 (KHTML, like Gecko) Chrome/105.0.0.0 Safari/537.36 Edg/105.0.1343.53","WebKit","Edge","105.0.1343.53","Windows","10.0","780","<p><strong>请判断下列场景中你的内心感受有多柔软。</strong></p>","0",""
"","","","","","survey-likert","147","496003","0.0-20.0","2","1","2022-10-06 05:48:53","ab77af23db77f379346475f7099b4f97","220.246.255.87","Mozilla/5.0 (Windows NT 10.0; Win64; x64) AppleWebKit/537.36 (KHTML, like Gecko) Chrome/105.0.0.0 Safari/537.36 Edg/105.0.1343.53","WebKit","Edge","105.0.1343.53","Windows","10.0","52115","","{""tenderness-positive1"":2,""tenderness-negative1"":0,""tenderness-negative2"":0,""tenderness-positive2"":1,""tenderness-positive3"":3,""tenderness-negative3"":0,""tenderness-positive4"":4,""tendereness-negative4"":0,""tendernness-negative5"":1,""tenderness-positive5"":0}","[0,1,2,3,4,5,6,7,8,9]"
"","","","","","survey-multi-choice","148","501407","0.0-21.0","2","1","2022-10-06 05:48:53","ab77af23db77f379346475f7099b4f97","220.246.255.87","Mozilla/5.0 (Windows NT 10.0; Win64; x64) AppleWebKit/537.36 (KHTML, like Gecko) Chrome/105.0.0.0 Safari/537.36 Edg/105.0.1343.53","WebKit","Edge","105.0.1343.53","Windows","10.0","5398","","{""Attention2"":""其他""}","[0]"
"","","","","","html-button-response","149","502253","0.0-22.0","2","1","2022-10-06 05:48:53","ab77af23db77f379346475f7099b4f97","220.246.255.87","Mozilla/5.0 (Windows NT 10.0; Win64; x64) AppleWebKit/537.36 (KHTML, like Gecko) Chrome/105.0.0.0 Safari/537.36 Edg/105.0.1343.53","WebKit","Edge","105.0.1343.53","Windows","10.0","841","<p><strong>请判断你在多大程度上同意下列陈述。</strong></p>","0",""
"","","","","","survey-likert","150","568683","0.0-23.0","2","1","2022-10-06 05:48:53","ab77af23db77f379346475f7099b4f97","220.246.255.87","Mozilla/5.0 (Windows NT 10.0; Win64; x64) AppleWebKit/537.36 (KHTML, like Gecko) Chrome/105.0.0.0 Safari/537.36 Edg/105.0.1343.53","WebKit","Edge","105.0.1343.53","Windows","10.0","66427","","{""Patri12"":2,""Nation7"":0,""Patri2"":3,""Patri11"":0,""Patri6"":2,""Patri7"":3,""Patri8"":3,""Nation3"":0,""Patri10"":0,""Nation1"":2,""Patri1"":4,""Nation2"":4,""Nation8"":3,""Patri9"":1,""Nation6"":2,""Patri5"":4,""Patri3"":3,""Nation5"":2,""Patri4"":4,""Nation4"":1}","[11,18,1,10,5,6,7,14,9,12,0,13,19,8,17,4,2,16,3,15]"
"","","","","","html-button-response","151","569631","0.0-24.0","2","1","2022-10-06 05:48:53","ab77af23db77f379346475f7099b4f97","220.246.255.87","Mozilla/5.0 (Windows NT 10.0; Win64; x64) AppleWebKit/537.36 (KHTML, like Gecko) Chrome/105.0.0.0 Safari/537.36 Edg/105.0.1343.53","WebKit","Edge","105.0.1343.53","Windows","10.0","943","<p><strong>请判断你在多大程度上同意下列陈述。</strong></p>","0",""
"","","","","","survey-likert","152","607007","0.0-25.0","2","1","2022-10-06 05:48:53","ab77af23db77f379346475f7099b4f97","220.246.255.87","Mozilla/5.0 (Windows NT 10.0; Win64; x64) AppleWebKit/537.36 (KHTML, like Gecko) Chrome/105.0.0.0 Safari/537.36 Edg/105.0.1343.53","WebKit","Edge","105.0.1343.53","Windows","10.0","37372","","{""vi2"":0,""vc1"":6,""hi4"":8,""hi3"":7,""hi1"":8,""hi2"":8,""hc1"":7,""Robot"":6,""vi3"":8,""hc2"":8,""vi4"":8,""vc2"":6,""vc3"":4,""hc3"":5,""vc4"":5,""vi1"":7,""hc4"":7}","[5,13,3,2,0,1,9,7,6,10,8,14,15,11,16,4,12]"
"","","","","","survey-text","153","610407","0.0-26.0","2","1","2022-10-06 05:48:53","ab77af23db77f379346475f7099b4f97","220.246.255.87","Mozilla/5.0 (Windows NT 10.0; Win64; x64) AppleWebKit/537.36 (KHTML, like Gecko) Chrome/105.0.0.0 Safari/537.36 Edg/105.0.1343.53","WebKit","Edge","105.0.1343.53","Windows","10.0","3391","","{""Comments"":""无""}",""
"","","","","","html-button-response","154","611177","0.0-27.0","2","1","2022-10-06 05:48:53","ab77af23db77f379346475f7099b4f97","220.246.255.87","Mozilla/5.0 (Windows NT 10.0; Win64; x64) AppleWebKit/537.36 (KHTML, like Gecko) Chrome/105.0.0.0 Safari/537.36 Edg/105.0.1343.53","WebKit","Edge","105.0.1343.53","Windows","10.0","766","<strong><p>恭喜你完成了实验！</p><p>感谢您的参与。</p></strong>","0",""
