"success","timeout","failed_images","failed_audio","failed_video","trial_type","trial_index","time_elapsed","internal_node_id","run_id","condition","recorded_at","source_code_version","ip","user_agent","device","browser","browser_version","platform","platform_version","rt","stimulus","response","question_order"
"true","false","[]","[]","[]","preload","0","658","0.0-0.0","20","1","2022-10-07 05:56:47","d60b49b5908c80e163b920d72b52d584","219.154.208.162","Mozilla/5.0 (Windows NT 10.0; WOW64) AppleWebKit/537.36 (KHTML, like Gecko) Chrome/92.0.4515.131 Safari/537.36 SLBrowser/8.0.0.7271 SLBChan/105","WebKit","Chrome","92.0.4515.131","Windows","10.0","","","",""
"true","","","","","fullscreen","1","3440","0.0-1.0","20","1","2022-10-07 05:56:47","d60b49b5908c80e163b920d72b52d584","219.154.208.162","Mozilla/5.0 (Windows NT 10.0; WOW64) AppleWebKit/537.36 (KHTML, like Gecko) Chrome/92.0.4515.131 Safari/537.36 SLBrowser/8.0.0.7271 SLBChan/105","WebKit","Chrome","92.0.4515.131","Windows","10.0","","","",""
"","","","","","html-button-response","2","38743","0.0-2.0","20","1","2022-10-07 05:56:47","d60b49b5908c80e163b920d72b52d584","219.154.208.162","Mozilla/5.0 (Windows NT 10.0; WOW64) AppleWebKit/537.36 (KHTML, like Gecko) Chrome/92.0.4515.131 Safari/537.36 SLBrowser/8.0.0.7271 SLBChan/105","WebKit","Chrome","92.0.4515.131","Windows","10.0","35301","<p style=""font-size:20px;font-weight:bold;"">实验知情同意书</p><p style=""text-align:left;""><strong>实验名称：</strong>社会冲突研究</p><p style=""text-align:left;""><strong>主要研究者：</strong>韩晓春副教授（北京师范大学心理学部）</p><p style=""text-align:left;""><strong>联系方式：</strong>发送邮件至xiaochun.han@bnu.edu.cn</p><p style=""text-align:left;""><strong>研究目的：</strong>研究旨在了解人类面对群体冲突时的决策方式，以及相关的心理学特质。实验调查大约需要20分钟。</p><p style=""text-align:left;""><strong>实验流程：</strong>实验包含两部分。第一部分呈现一系列群体冲突场景，请你决定如何对这些冲突进行反应，大约需要10分钟完成。第二部分包含一系列人口统计学信息收集和心理学问卷，大约需要10分钟完成。</p><p style=""text-align:left;""><strong>参加及退出规则：</strong>参加本实验完全取决于您的个人意愿。在参与过程中，您可以随时退出，并且不用承担任何后果。</p><p style=""text-align:left;""><strong>隐私：</strong>本实验完全匿名进行，不会收集您的姓名或其他能够识别您身份的信息。实验中收集的作答仅用作科学研究使用，可能会在学术期刊/书籍上发表，或者用于教学，您的数据未来可能会和其他研究者或实验室分享，但您的个人身份不会被识别。</p><p style=""text-align:left;""><strong>实验报酬：</strong>实验完成后，您将获得15元人民币报酬，以感谢您的时间和努力。调查问卷中包含几道题目用以测验您作答时的认真度。只有完成全部实验，并且正确回答认真度测验的被试才能获得实验报酬。实验报酬将通过支付宝转账发放。</p><p style=""text-align:left;font-size:20px;""><strong>如果您同意以上实验知情同意书的内容，请点击'同意并且开始实验'按钮；否则请关闭浏览器界面，退出实验。</strong></p>","0",""
"","","","","","html-button-response","3","50463","0.0-3.0","20","1","2022-10-07 05:56:47","d60b49b5908c80e163b920d72b52d584","219.154.208.162","Mozilla/5.0 (Windows NT 10.0; WOW64) AppleWebKit/537.36 (KHTML, like Gecko) Chrome/92.0.4515.131 Safari/537.36 SLBrowser/8.0.0.7271 SLBChan/105","WebKit","Chrome","92.0.4515.131","Windows","10.0","11718","<p ><strong>实验任务一：</strong></p><p>请想象你的国家与另一个国家发生了军事冲突。</p><p>你是国家军队的指挥官，你将如何在冲突中进行决策。</p><p>具体来说，作为军队指挥官，请你决定是否发射导弹进行打击。</p><p>接下来，你会面对一系列场景，请仔细阅读每个场景，然后进行决策。</p><p>这部分实验任务大约需要10分钟。</p><p><strong>实验过程中，请集中注意力。</strong></p>","0",""
"","","","","","html-keyboard-response","4","51465","0.0-4.0-0.0","20","1","2022-10-07 05:56:47","d60b49b5908c80e163b920d72b52d584","219.154.208.162","Mozilla/5.0 (Windows NT 10.0; WOW64) AppleWebKit/537.36 (KHTML, like Gecko) Chrome/92.0.4515.131 Safari/537.36 SLBrowser/8.0.0.7271 SLBChan/105","WebKit","Chrome","92.0.4515.131","Windows","10.0","null","<div style=""font-size:60px;"">+</div>","null",""
"","","","","","html-button-response","5","59487","0.0-4.0-1.0","20","1","2022-10-07 05:56:47","d60b49b5908c80e163b920d72b52d584","219.154.208.162","Mozilla/5.0 (Windows NT 10.0; WOW64) AppleWebKit/537.36 (KHTML, like Gecko) Chrome/92.0.4515.131 Safari/537.36 SLBrowser/8.0.0.7271 SLBChan/105","WebKit","Chrome","92.0.4515.131","Windows","10.0","8020","<p>作为军队的指挥官，你可以选择发射导弹杀死 <strong>8名</strong> 敌国士兵，但会炸毁附近的 <strong>1棵</strong> 敌国树木。</p> <p>树木的照片如下图所示。</p> <p></p> <img src='stimuli/trees/1.png', style='max-width: 30%;'> </img> <p><strong>你是否选择发射武器？</strong></p>","1",""
"","","","","","html-keyboard-response","6","60489","0.0-4.0-0.1","20","1","2022-10-07 05:56:47","d60b49b5908c80e163b920d72b52d584","219.154.208.162","Mozilla/5.0 (Windows NT 10.0; WOW64) AppleWebKit/537.36 (KHTML, like Gecko) Chrome/92.0.4515.131 Safari/537.36 SLBrowser/8.0.0.7271 SLBChan/105","WebKit","Chrome","92.0.4515.131","Windows","10.0","null","<div style=""font-size:60px;"">+</div>","null",""
"","","","","","html-button-response","7","65398","0.0-4.0-1.1","20","1","2022-10-07 05:56:47","d60b49b5908c80e163b920d72b52d584","219.154.208.162","Mozilla/5.0 (Windows NT 10.0; WOW64) AppleWebKit/537.36 (KHTML, like Gecko) Chrome/92.0.4515.131 Safari/537.36 SLBrowser/8.0.0.7271 SLBChan/105","WebKit","Chrome","92.0.4515.131","Windows","10.0","4907","<p>作为军队的指挥官，你可以选择发射导弹杀死 <strong>4名</strong> 敌国士兵，但会误杀附近的 <strong>1名</strong> 敌国平民。</p> <p>平民照片如下图所示。</p> <p></p> <img src='stimuli/faces/NCF2.jpg', style='max-width: 30%;'> </img> <p><strong>你是否选择发射武器？</strong></p>","1",""
"","","","","","html-keyboard-response","8","66403","0.0-4.0-0.2","20","1","2022-10-07 05:56:47","d60b49b5908c80e163b920d72b52d584","219.154.208.162","Mozilla/5.0 (Windows NT 10.0; WOW64) AppleWebKit/537.36 (KHTML, like Gecko) Chrome/92.0.4515.131 Safari/537.36 SLBrowser/8.0.0.7271 SLBChan/105","WebKit","Chrome","92.0.4515.131","Windows","10.0","null","<div style=""font-size:60px;"">+</div>","null",""
"","","","","","html-button-response","9","75070","0.0-4.0-1.2","20","1","2022-10-07 05:56:47","d60b49b5908c80e163b920d72b52d584","219.154.208.162","Mozilla/5.0 (Windows NT 10.0; WOW64) AppleWebKit/537.36 (KHTML, like Gecko) Chrome/92.0.4515.131 Safari/537.36 SLBrowser/8.0.0.7271 SLBChan/105","WebKit","Chrome","92.0.4515.131","Windows","10.0","8665","<p>作为军队的指挥官，你可以选择发射导弹杀死 <strong>9名</strong> 敌国士兵，但会炸毁附近的 <strong>1棵</strong> 敌国树木。</p> <p>树木的照片如下图所示。</p> <p></p> <img src='stimuli/trees/14.png', style='max-width: 30%;'> </img> <p><strong>你是否选择发射武器？</strong></p>","0",""
"","","","","","html-keyboard-response","10","76071","0.0-4.0-0.3","20","1","2022-10-07 05:56:47","d60b49b5908c80e163b920d72b52d584","219.154.208.162","Mozilla/5.0 (Windows NT 10.0; WOW64) AppleWebKit/537.36 (KHTML, like Gecko) Chrome/92.0.4515.131 Safari/537.36 SLBrowser/8.0.0.7271 SLBChan/105","WebKit","Chrome","92.0.4515.131","Windows","10.0","null","<div style=""font-size:60px;"">+</div>","null",""
"","","","","","html-button-response","11","78534","0.0-4.0-1.3","20","1","2022-10-07 05:56:47","d60b49b5908c80e163b920d72b52d584","219.154.208.162","Mozilla/5.0 (Windows NT 10.0; WOW64) AppleWebKit/537.36 (KHTML, like Gecko) Chrome/92.0.4515.131 Safari/537.36 SLBrowser/8.0.0.7271 SLBChan/105","WebKit","Chrome","92.0.4515.131","Windows","10.0","2460","<p>作为军队的指挥官，你可以选择发射导弹杀死 <strong>8名</strong> 敌国士兵，但会误杀附近的 <strong>1名</strong> 敌国平民。</p> <p>平民照片如下图所示。</p> <p></p> <img src='stimuli/faces/NCF3.jpg', style='max-width: 30%;'> </img> <p><strong>你是否选择发射武器？</strong></p>","1",""
"","","","","","html-keyboard-response","12","79536","0.0-4.0-0.4","20","1","2022-10-07 05:56:47","d60b49b5908c80e163b920d72b52d584","219.154.208.162","Mozilla/5.0 (Windows NT 10.0; WOW64) AppleWebKit/537.36 (KHTML, like Gecko) Chrome/92.0.4515.131 Safari/537.36 SLBrowser/8.0.0.7271 SLBChan/105","WebKit","Chrome","92.0.4515.131","Windows","10.0","null","<div style=""font-size:60px;"">+</div>","null",""
"","","","","","html-button-response","13","81902","0.0-4.0-1.4","20","1","2022-10-07 05:56:47","d60b49b5908c80e163b920d72b52d584","219.154.208.162","Mozilla/5.0 (Windows NT 10.0; WOW64) AppleWebKit/537.36 (KHTML, like Gecko) Chrome/92.0.4515.131 Safari/537.36 SLBrowser/8.0.0.7271 SLBChan/105","WebKit","Chrome","92.0.4515.131","Windows","10.0","2365","<p>作为军队的指挥官，你可以选择发射导弹杀死 <strong>3名</strong> 敌国士兵，但会误杀附近的 <strong>1名</strong> 敌国平民。</p> <p>平民照片如下图所示。</p> <p></p> <img src='stimuli/faces/NCM6.jpg', style='max-width: 30%;'> </img> <p><strong>你是否选择发射武器？</strong></p>","1",""
"","","","","","html-keyboard-response","14","82904","0.0-4.0-0.5","20","1","2022-10-07 05:56:47","d60b49b5908c80e163b920d72b52d584","219.154.208.162","Mozilla/5.0 (Windows NT 10.0; WOW64) AppleWebKit/537.36 (KHTML, like Gecko) Chrome/92.0.4515.131 Safari/537.36 SLBrowser/8.0.0.7271 SLBChan/105","WebKit","Chrome","92.0.4515.131","Windows","10.0","null","<div style=""font-size:60px;"">+</div>","null",""
"","","","","","html-button-response","15","86926","0.0-4.0-1.5","20","1","2022-10-07 05:56:47","d60b49b5908c80e163b920d72b52d584","219.154.208.162","Mozilla/5.0 (Windows NT 10.0; WOW64) AppleWebKit/537.36 (KHTML, like Gecko) Chrome/92.0.4515.131 Safari/537.36 SLBrowser/8.0.0.7271 SLBChan/105","WebKit","Chrome","92.0.4515.131","Windows","10.0","4019","<p>作为军队的指挥官，你可以选择发射导弹杀死 <strong>3名</strong> 敌国士兵，但会炸毁附近的 <strong>1棵</strong> 敌国树木。</p> <p>树木的照片如下图所示。</p> <p></p> <img src='stimuli/trees/4.png', style='max-width: 30%;'> </img> <p><strong>你是否选择发射武器？</strong></p>","0",""
"","","","","","html-keyboard-response","16","87939","0.0-4.0-0.6","20","1","2022-10-07 05:56:47","d60b49b5908c80e163b920d72b52d584","219.154.208.162","Mozilla/5.0 (Windows NT 10.0; WOW64) AppleWebKit/537.36 (KHTML, like Gecko) Chrome/92.0.4515.131 Safari/537.36 SLBrowser/8.0.0.7271 SLBChan/105","WebKit","Chrome","92.0.4515.131","Windows","10.0","null","<div style=""font-size:60px;"">+</div>","null",""
"","","","","","html-button-response","17","90246","0.0-4.0-1.6","20","1","2022-10-07 05:56:47","d60b49b5908c80e163b920d72b52d584","219.154.208.162","Mozilla/5.0 (Windows NT 10.0; WOW64) AppleWebKit/537.36 (KHTML, like Gecko) Chrome/92.0.4515.131 Safari/537.36 SLBrowser/8.0.0.7271 SLBChan/105","WebKit","Chrome","92.0.4515.131","Windows","10.0","2306","<p>作为军队的指挥官，你可以选择发射导弹杀死 <strong>7名</strong> 敌国士兵，但会炸毁附近的 <strong>1棵</strong> 敌国树木。</p> <p>树木的照片如下图所示。</p> <p></p> <img src='stimuli/trees/7.png', style='max-width: 30%;'> </img> <p><strong>你是否选择发射武器？</strong></p>","0",""
"","","","","","html-keyboard-response","18","91259","0.0-4.0-0.7","20","1","2022-10-07 05:56:47","d60b49b5908c80e163b920d72b52d584","219.154.208.162","Mozilla/5.0 (Windows NT 10.0; WOW64) AppleWebKit/537.36 (KHTML, like Gecko) Chrome/92.0.4515.131 Safari/537.36 SLBrowser/8.0.0.7271 SLBChan/105","WebKit","Chrome","92.0.4515.131","Windows","10.0","null","<div style=""font-size:60px;"">+</div>","null",""
"","","","","","html-button-response","19","92726","0.0-4.0-1.7","20","1","2022-10-07 05:56:47","d60b49b5908c80e163b920d72b52d584","219.154.208.162","Mozilla/5.0 (Windows NT 10.0; WOW64) AppleWebKit/537.36 (KHTML, like Gecko) Chrome/92.0.4515.131 Safari/537.36 SLBrowser/8.0.0.7271 SLBChan/105","WebKit","Chrome","92.0.4515.131","Windows","10.0","1464","<p>作为军队的指挥官，你可以选择发射导弹杀死 <strong>9名</strong> 敌国士兵，但会误杀附近的 <strong>1名</strong> 敌国平民。</p> <p>平民照片如下图所示。</p> <p></p> <img src='stimuli/faces/NCF8.jpg', style='max-width: 30%;'> </img> <p><strong>你是否选择发射武器？</strong></p>","1",""
"","","","","","html-keyboard-response","20","93727","0.0-4.0-0.8","20","1","2022-10-07 05:56:47","d60b49b5908c80e163b920d72b52d584","219.154.208.162","Mozilla/5.0 (Windows NT 10.0; WOW64) AppleWebKit/537.36 (KHTML, like Gecko) Chrome/92.0.4515.131 Safari/537.36 SLBrowser/8.0.0.7271 SLBChan/105","WebKit","Chrome","92.0.4515.131","Windows","10.0","null","<div style=""font-size:60px;"">+</div>","null",""
"","","","","","html-button-response","21","97207","0.0-4.0-1.8","20","1","2022-10-07 05:56:47","d60b49b5908c80e163b920d72b52d584","219.154.208.162","Mozilla/5.0 (Windows NT 10.0; WOW64) AppleWebKit/537.36 (KHTML, like Gecko) Chrome/92.0.4515.131 Safari/537.36 SLBrowser/8.0.0.7271 SLBChan/105","WebKit","Chrome","92.0.4515.131","Windows","10.0","3478","<p>作为军队的指挥官，你可以选择发射导弹杀死 <strong>10名</strong> 敌国士兵，但会炸毁附近的 <strong>1棵</strong> 敌国树木。</p> <p>树木的照片如下图所示。</p> <p></p> <img src='stimuli/trees/15.png', style='max-width: 30%;'> </img> <p><strong>你是否选择发射武器？</strong></p>","1",""
"","","","","","html-keyboard-response","22","98210","0.0-4.0-0.9","20","1","2022-10-07 05:56:47","d60b49b5908c80e163b920d72b52d584","219.154.208.162","Mozilla/5.0 (Windows NT 10.0; WOW64) AppleWebKit/537.36 (KHTML, like Gecko) Chrome/92.0.4515.131 Safari/537.36 SLBrowser/8.0.0.7271 SLBChan/105","WebKit","Chrome","92.0.4515.131","Windows","10.0","null","<div style=""font-size:60px;"">+</div>","null",""
"","","","","","html-button-response","23","101110","0.0-4.0-1.9","20","1","2022-10-07 05:56:47","d60b49b5908c80e163b920d72b52d584","219.154.208.162","Mozilla/5.0 (Windows NT 10.0; WOW64) AppleWebKit/537.36 (KHTML, like Gecko) Chrome/92.0.4515.131 Safari/537.36 SLBrowser/8.0.0.7271 SLBChan/105","WebKit","Chrome","92.0.4515.131","Windows","10.0","2898","<p>作为军队的指挥官，你可以选择发射导弹杀死 <strong>9名</strong> 敌国士兵，但会误杀附近的 <strong>1名</strong> 敌国平民。</p> <p>平民照片如下图所示。</p> <p></p> <img src='stimuli/faces/NCF1.jpg', style='max-width: 30%;'> </img> <p><strong>你是否选择发射武器？</strong></p>","1",""
"","","","","","html-keyboard-response","24","102113","0.0-4.0-0.10","20","1","2022-10-07 05:56:47","d60b49b5908c80e163b920d72b52d584","219.154.208.162","Mozilla/5.0 (Windows NT 10.0; WOW64) AppleWebKit/537.36 (KHTML, like Gecko) Chrome/92.0.4515.131 Safari/537.36 SLBrowser/8.0.0.7271 SLBChan/105","WebKit","Chrome","92.0.4515.131","Windows","10.0","null","<div style=""font-size:60px;"">+</div>","null",""
"","","","","","html-button-response","25","103886","0.0-4.0-1.10","20","1","2022-10-07 05:56:47","d60b49b5908c80e163b920d72b52d584","219.154.208.162","Mozilla/5.0 (Windows NT 10.0; WOW64) AppleWebKit/537.36 (KHTML, like Gecko) Chrome/92.0.4515.131 Safari/537.36 SLBrowser/8.0.0.7271 SLBChan/105","WebKit","Chrome","92.0.4515.131","Windows","10.0","1771","<p>作为军队的指挥官，你可以选择发射导弹杀死 <strong>9名</strong> 敌国士兵，但会炸毁附近的 <strong>1棵</strong> 敌国树木。</p> <p>树木的照片如下图所示。</p> <p></p> <img src='stimuli/trees/6.png', style='max-width: 30%;'> </img> <p><strong>你是否选择发射武器？</strong></p>","1",""
"","","","","","html-keyboard-response","26","104889","0.0-4.0-0.11","20","1","2022-10-07 05:56:47","d60b49b5908c80e163b920d72b52d584","219.154.208.162","Mozilla/5.0 (Windows NT 10.0; WOW64) AppleWebKit/537.36 (KHTML, like Gecko) Chrome/92.0.4515.131 Safari/537.36 SLBrowser/8.0.0.7271 SLBChan/105","WebKit","Chrome","92.0.4515.131","Windows","10.0","null","<div style=""font-size:60px;"">+</div>","null",""
"","","","","","html-button-response","27","106678","0.0-4.0-1.11","20","1","2022-10-07 05:56:47","d60b49b5908c80e163b920d72b52d584","219.154.208.162","Mozilla/5.0 (Windows NT 10.0; WOW64) AppleWebKit/537.36 (KHTML, like Gecko) Chrome/92.0.4515.131 Safari/537.36 SLBrowser/8.0.0.7271 SLBChan/105","WebKit","Chrome","92.0.4515.131","Windows","10.0","1787","<p>作为军队的指挥官，你可以选择发射导弹杀死 <strong>6名</strong> 敌国士兵，但会误杀附近的 <strong>1名</strong> 敌国平民。</p> <p>平民照片如下图所示。</p> <p></p> <img src='stimuli/faces/NCF6.jpg', style='max-width: 30%;'> </img> <p><strong>你是否选择发射武器？</strong></p>","1",""
"","","","","","html-keyboard-response","28","107680","0.0-4.0-0.12","20","1","2022-10-07 05:56:47","d60b49b5908c80e163b920d72b52d584","219.154.208.162","Mozilla/5.0 (Windows NT 10.0; WOW64) AppleWebKit/537.36 (KHTML, like Gecko) Chrome/92.0.4515.131 Safari/537.36 SLBrowser/8.0.0.7271 SLBChan/105","WebKit","Chrome","92.0.4515.131","Windows","10.0","null","<div style=""font-size:60px;"">+</div>","null",""
"","","","","","html-button-response","29","110302","0.0-4.0-1.12","20","1","2022-10-07 05:56:47","d60b49b5908c80e163b920d72b52d584","219.154.208.162","Mozilla/5.0 (Windows NT 10.0; WOW64) AppleWebKit/537.36 (KHTML, like Gecko) Chrome/92.0.4515.131 Safari/537.36 SLBrowser/8.0.0.7271 SLBChan/105","WebKit","Chrome","92.0.4515.131","Windows","10.0","2621","<p>作为军队的指挥官，你可以选择发射导弹杀死 <strong>5名</strong> 敌国士兵，但会误杀附近的 <strong>1名</strong> 敌国平民。</p> <p>平民照片如下图所示。</p> <p></p> <img src='stimuli/faces/NCM4.jpg', style='max-width: 30%;'> </img> <p><strong>你是否选择发射武器？</strong></p>","1",""
"","","","","","html-keyboard-response","30","111305","0.0-4.0-0.13","20","1","2022-10-07 05:56:47","d60b49b5908c80e163b920d72b52d584","219.154.208.162","Mozilla/5.0 (Windows NT 10.0; WOW64) AppleWebKit/537.36 (KHTML, like Gecko) Chrome/92.0.4515.131 Safari/537.36 SLBrowser/8.0.0.7271 SLBChan/105","WebKit","Chrome","92.0.4515.131","Windows","10.0","null","<div style=""font-size:60px;"">+</div>","null",""
"","","","","","html-button-response","31","113278","0.0-4.0-1.13","20","1","2022-10-07 05:56:47","d60b49b5908c80e163b920d72b52d584","219.154.208.162","Mozilla/5.0 (Windows NT 10.0; WOW64) AppleWebKit/537.36 (KHTML, like Gecko) Chrome/92.0.4515.131 Safari/537.36 SLBrowser/8.0.0.7271 SLBChan/105","WebKit","Chrome","92.0.4515.131","Windows","10.0","1971","<p>作为军队的指挥官，你可以选择发射导弹杀死 <strong>6名</strong> 敌国士兵，但会误杀附近的 <strong>1名</strong> 敌国平民。</p> <p>平民照片如下图所示。</p> <p></p> <img src='stimuli/faces/NCF2.jpg', style='max-width: 30%;'> </img> <p><strong>你是否选择发射武器？</strong></p>","1",""
"","","","","","html-keyboard-response","32","114280","0.0-4.0-0.14","20","1","2022-10-07 05:56:47","d60b49b5908c80e163b920d72b52d584","219.154.208.162","Mozilla/5.0 (Windows NT 10.0; WOW64) AppleWebKit/537.36 (KHTML, like Gecko) Chrome/92.0.4515.131 Safari/537.36 SLBrowser/8.0.0.7271 SLBChan/105","WebKit","Chrome","92.0.4515.131","Windows","10.0","null","<div style=""font-size:60px;"">+</div>","null",""
"","","","","","html-button-response","33","116823","0.0-4.0-1.14","20","1","2022-10-07 05:56:47","d60b49b5908c80e163b920d72b52d584","219.154.208.162","Mozilla/5.0 (Windows NT 10.0; WOW64) AppleWebKit/537.36 (KHTML, like Gecko) Chrome/92.0.4515.131 Safari/537.36 SLBrowser/8.0.0.7271 SLBChan/105","WebKit","Chrome","92.0.4515.131","Windows","10.0","2540","<p>作为军队的指挥官，你可以选择发射导弹杀死 <strong>5名</strong> 敌国士兵，但会误杀附近的 <strong>1名</strong> 敌国平民。</p> <p>平民照片如下图所示。</p> <p></p> <img src='stimuli/faces/NCM3.jpg', style='max-width: 30%;'> </img> <p><strong>你是否选择发射武器？</strong></p>","1",""
"","","","","","html-keyboard-response","34","117825","0.0-4.0-0.15","20","1","2022-10-07 05:56:47","d60b49b5908c80e163b920d72b52d584","219.154.208.162","Mozilla/5.0 (Windows NT 10.0; WOW64) AppleWebKit/537.36 (KHTML, like Gecko) Chrome/92.0.4515.131 Safari/537.36 SLBrowser/8.0.0.7271 SLBChan/105","WebKit","Chrome","92.0.4515.131","Windows","10.0","null","<div style=""font-size:60px;"">+</div>","null",""
"","","","","","html-button-response","35","120079","0.0-4.0-1.15","20","1","2022-10-07 05:56:47","d60b49b5908c80e163b920d72b52d584","219.154.208.162","Mozilla/5.0 (Windows NT 10.0; WOW64) AppleWebKit/537.36 (KHTML, like Gecko) Chrome/92.0.4515.131 Safari/537.36 SLBrowser/8.0.0.7271 SLBChan/105","WebKit","Chrome","92.0.4515.131","Windows","10.0","2251","<p>作为军队的指挥官，你可以选择发射导弹杀死 <strong>2名</strong> 敌国士兵，但会误杀附近的 <strong>1名</strong> 敌国平民。</p> <p>平民照片如下图所示。</p> <p></p> <img src='stimuli/faces/NCM7.jpg', style='max-width: 30%;'> </img> <p><strong>你是否选择发射武器？</strong></p>","1",""
"","","","","","html-keyboard-response","36","121081","0.0-4.0-0.16","20","1","2022-10-07 05:56:47","d60b49b5908c80e163b920d72b52d584","219.154.208.162","Mozilla/5.0 (Windows NT 10.0; WOW64) AppleWebKit/537.36 (KHTML, like Gecko) Chrome/92.0.4515.131 Safari/537.36 SLBrowser/8.0.0.7271 SLBChan/105","WebKit","Chrome","92.0.4515.131","Windows","10.0","null","<div style=""font-size:60px;"">+</div>","null",""
"","","","","","html-button-response","37","124079","0.0-4.0-1.16","20","1","2022-10-07 05:56:47","d60b49b5908c80e163b920d72b52d584","219.154.208.162","Mozilla/5.0 (Windows NT 10.0; WOW64) AppleWebKit/537.36 (KHTML, like Gecko) Chrome/92.0.4515.131 Safari/537.36 SLBrowser/8.0.0.7271 SLBChan/105","WebKit","Chrome","92.0.4515.131","Windows","10.0","2996","<p>作为军队的指挥官，你可以选择发射导弹杀死 <strong>4名</strong> 敌国士兵，但会误杀附近的 <strong>1名</strong> 敌国平民。</p> <p>平民照片如下图所示。</p> <p></p> <img src='stimuli/faces/NCM2.jpg', style='max-width: 30%;'> </img> <p><strong>你是否选择发射武器？</strong></p>","1",""
"","","","","","html-keyboard-response","38","125080","0.0-4.0-0.17","20","1","2022-10-07 05:56:47","d60b49b5908c80e163b920d72b52d584","219.154.208.162","Mozilla/5.0 (Windows NT 10.0; WOW64) AppleWebKit/537.36 (KHTML, like Gecko) Chrome/92.0.4515.131 Safari/537.36 SLBrowser/8.0.0.7271 SLBChan/105","WebKit","Chrome","92.0.4515.131","Windows","10.0","null","<div style=""font-size:60px;"">+</div>","null",""
"","","","","","html-button-response","39","126943","0.0-4.0-1.17","20","1","2022-10-07 05:56:47","d60b49b5908c80e163b920d72b52d584","219.154.208.162","Mozilla/5.0 (Windows NT 10.0; WOW64) AppleWebKit/537.36 (KHTML, like Gecko) Chrome/92.0.4515.131 Safari/537.36 SLBrowser/8.0.0.7271 SLBChan/105","WebKit","Chrome","92.0.4515.131","Windows","10.0","1860","<p>作为军队的指挥官，你可以选择发射导弹杀死 <strong>4名</strong> 敌国士兵，但会误杀附近的 <strong>1名</strong> 敌国平民。</p> <p>平民照片如下图所示。</p> <p></p> <img src='stimuli/faces/NCF4.jpg', style='max-width: 30%;'> </img> <p><strong>你是否选择发射武器？</strong></p>","1",""
"","","","","","html-keyboard-response","40","127945","0.0-4.0-0.18","20","1","2022-10-07 05:56:47","d60b49b5908c80e163b920d72b52d584","219.154.208.162","Mozilla/5.0 (Windows NT 10.0; WOW64) AppleWebKit/537.36 (KHTML, like Gecko) Chrome/92.0.4515.131 Safari/537.36 SLBrowser/8.0.0.7271 SLBChan/105","WebKit","Chrome","92.0.4515.131","Windows","10.0","null","<div style=""font-size:60px;"">+</div>","null",""
"","","","","","html-button-response","41","135383","0.0-4.0-1.18","20","1","2022-10-07 05:56:47","d60b49b5908c80e163b920d72b52d584","219.154.208.162","Mozilla/5.0 (Windows NT 10.0; WOW64) AppleWebKit/537.36 (KHTML, like Gecko) Chrome/92.0.4515.131 Safari/537.36 SLBrowser/8.0.0.7271 SLBChan/105","WebKit","Chrome","92.0.4515.131","Windows","10.0","7434","<p>作为军队的指挥官，你可以选择发射导弹杀死 <strong>2名</strong> 敌国士兵，但会炸毁附近的 <strong>1棵</strong> 敌国树木。</p> <p>树木的照片如下图所示。</p> <p></p> <img src='stimuli/trees/7.png', style='max-width: 30%;'> </img> <p><strong>你是否选择发射武器？</strong></p>","0",""
"","","","","","html-keyboard-response","42","136385","0.0-4.0-0.19","20","1","2022-10-07 05:56:47","d60b49b5908c80e163b920d72b52d584","219.154.208.162","Mozilla/5.0 (Windows NT 10.0; WOW64) AppleWebKit/537.36 (KHTML, like Gecko) Chrome/92.0.4515.131 Safari/537.36 SLBrowser/8.0.0.7271 SLBChan/105","WebKit","Chrome","92.0.4515.131","Windows","10.0","null","<div style=""font-size:60px;"">+</div>","null",""
"","","","","","html-button-response","43","138799","0.0-4.0-1.19","20","1","2022-10-07 05:56:47","d60b49b5908c80e163b920d72b52d584","219.154.208.162","Mozilla/5.0 (Windows NT 10.0; WOW64) AppleWebKit/537.36 (KHTML, like Gecko) Chrome/92.0.4515.131 Safari/537.36 SLBrowser/8.0.0.7271 SLBChan/105","WebKit","Chrome","92.0.4515.131","Windows","10.0","2412","<p>作为军队的指挥官，你可以选择发射导弹杀死 <strong>3名</strong> 敌国士兵，但会炸毁附近的 <strong>1棵</strong> 敌国树木。</p> <p>树木的照片如下图所示。</p> <p></p> <img src='stimuli/trees/8.png', style='max-width: 30%;'> </img> <p><strong>你是否选择发射武器？</strong></p>","1",""
"","","","","","html-keyboard-response","44","139803","0.0-4.0-0.20","20","1","2022-10-07 05:56:47","d60b49b5908c80e163b920d72b52d584","219.154.208.162","Mozilla/5.0 (Windows NT 10.0; WOW64) AppleWebKit/537.36 (KHTML, like Gecko) Chrome/92.0.4515.131 Safari/537.36 SLBrowser/8.0.0.7271 SLBChan/105","WebKit","Chrome","92.0.4515.131","Windows","10.0","null","<div style=""font-size:60px;"">+</div>","null",""
"","","","","","html-button-response","45","141591","0.0-4.0-1.20","20","1","2022-10-07 05:56:47","d60b49b5908c80e163b920d72b52d584","219.154.208.162","Mozilla/5.0 (Windows NT 10.0; WOW64) AppleWebKit/537.36 (KHTML, like Gecko) Chrome/92.0.4515.131 Safari/537.36 SLBrowser/8.0.0.7271 SLBChan/105","WebKit","Chrome","92.0.4515.131","Windows","10.0","1786","<p>作为军队的指挥官，你可以选择发射导弹杀死 <strong>1名</strong> 敌国士兵，但会误杀附近的 <strong>1名</strong> 敌国平民。</p> <p>平民照片如下图所示。</p> <p></p> <img src='stimuli/faces/NCF8.jpg', style='max-width: 30%;'> </img> <p><strong>你是否选择发射武器？</strong></p>","1",""
"","","","","","html-keyboard-response","46","142593","0.0-4.0-0.21","20","1","2022-10-07 05:56:47","d60b49b5908c80e163b920d72b52d584","219.154.208.162","Mozilla/5.0 (Windows NT 10.0; WOW64) AppleWebKit/537.36 (KHTML, like Gecko) Chrome/92.0.4515.131 Safari/537.36 SLBrowser/8.0.0.7271 SLBChan/105","WebKit","Chrome","92.0.4515.131","Windows","10.0","null","<div style=""font-size:60px;"">+</div>","null",""
"","","","","","html-button-response","47","143759","0.0-4.0-1.21","20","1","2022-10-07 05:56:47","d60b49b5908c80e163b920d72b52d584","219.154.208.162","Mozilla/5.0 (Windows NT 10.0; WOW64) AppleWebKit/537.36 (KHTML, like Gecko) Chrome/92.0.4515.131 Safari/537.36 SLBrowser/8.0.0.7271 SLBChan/105","WebKit","Chrome","92.0.4515.131","Windows","10.0","1163","<p>作为军队的指挥官，你可以选择发射导弹杀死 <strong>6名</strong> 敌国士兵，但会误杀附近的 <strong>1名</strong> 敌国平民。</p> <p>平民照片如下图所示。</p> <p></p> <img src='stimuli/faces/NCM6.jpg', style='max-width: 30%;'> </img> <p><strong>你是否选择发射武器？</strong></p>","1",""
"","","","","","html-keyboard-response","48","144762","0.0-4.0-0.22","20","1","2022-10-07 05:56:47","d60b49b5908c80e163b920d72b52d584","219.154.208.162","Mozilla/5.0 (Windows NT 10.0; WOW64) AppleWebKit/537.36 (KHTML, like Gecko) Chrome/92.0.4515.131 Safari/537.36 SLBrowser/8.0.0.7271 SLBChan/105","WebKit","Chrome","92.0.4515.131","Windows","10.0","null","<div style=""font-size:60px;"">+</div>","null",""
"","","","","","html-button-response","49","146111","0.0-4.0-1.22","20","1","2022-10-07 05:56:47","d60b49b5908c80e163b920d72b52d584","219.154.208.162","Mozilla/5.0 (Windows NT 10.0; WOW64) AppleWebKit/537.36 (KHTML, like Gecko) Chrome/92.0.4515.131 Safari/537.36 SLBrowser/8.0.0.7271 SLBChan/105","WebKit","Chrome","92.0.4515.131","Windows","10.0","1346","<p>作为军队的指挥官，你可以选择发射导弹杀死 <strong>3名</strong> 敌国士兵，但会误杀附近的 <strong>1名</strong> 敌国平民。</p> <p>平民照片如下图所示。</p> <p></p> <img src='stimuli/faces/NCF3.jpg', style='max-width: 30%;'> </img> <p><strong>你是否选择发射武器？</strong></p>","1",""
"","","","","","html-keyboard-response","50","147120","0.0-4.0-0.23","20","1","2022-10-07 05:56:47","d60b49b5908c80e163b920d72b52d584","219.154.208.162","Mozilla/5.0 (Windows NT 10.0; WOW64) AppleWebKit/537.36 (KHTML, like Gecko) Chrome/92.0.4515.131 Safari/537.36 SLBrowser/8.0.0.7271 SLBChan/105","WebKit","Chrome","92.0.4515.131","Windows","10.0","null","<div style=""font-size:60px;"">+</div>","null",""
"","","","","","html-button-response","51","150495","0.0-4.0-1.23","20","1","2022-10-07 05:56:47","d60b49b5908c80e163b920d72b52d584","219.154.208.162","Mozilla/5.0 (Windows NT 10.0; WOW64) AppleWebKit/537.36 (KHTML, like Gecko) Chrome/92.0.4515.131 Safari/537.36 SLBrowser/8.0.0.7271 SLBChan/105","WebKit","Chrome","92.0.4515.131","Windows","10.0","3372","<p>作为军队的指挥官，你可以选择发射导弹杀死 <strong>8名</strong> 敌国士兵，但会炸毁附近的 <strong>1棵</strong> 敌国树木。</p> <p>树木的照片如下图所示。</p> <p></p> <img src='stimuli/trees/11.png', style='max-width: 30%;'> </img> <p><strong>你是否选择发射武器？</strong></p>","1",""
"","","","","","html-keyboard-response","52","151510","0.0-4.0-0.24","20","1","2022-10-07 05:56:47","d60b49b5908c80e163b920d72b52d584","219.154.208.162","Mozilla/5.0 (Windows NT 10.0; WOW64) AppleWebKit/537.36 (KHTML, like Gecko) Chrome/92.0.4515.131 Safari/537.36 SLBrowser/8.0.0.7271 SLBChan/105","WebKit","Chrome","92.0.4515.131","Windows","10.0","null","<div style=""font-size:60px;"">+</div>","null",""
"","","","","","html-button-response","53","153319","0.0-4.0-1.24","20","1","2022-10-07 05:56:47","d60b49b5908c80e163b920d72b52d584","219.154.208.162","Mozilla/5.0 (Windows NT 10.0; WOW64) AppleWebKit/537.36 (KHTML, like Gecko) Chrome/92.0.4515.131 Safari/537.36 SLBrowser/8.0.0.7271 SLBChan/105","WebKit","Chrome","92.0.4515.131","Windows","10.0","1806","<p>作为军队的指挥官，你可以选择发射导弹杀死 <strong>3名</strong> 敌国士兵，但会炸毁附近的 <strong>1棵</strong> 敌国树木。</p> <p>树木的照片如下图所示。</p> <p></p> <img src='stimuli/trees/16.png', style='max-width: 30%;'> </img> <p><strong>你是否选择发射武器？</strong></p>","0",""
"","","","","","html-keyboard-response","54","154322","0.0-4.0-0.25","20","1","2022-10-07 05:56:47","d60b49b5908c80e163b920d72b52d584","219.154.208.162","Mozilla/5.0 (Windows NT 10.0; WOW64) AppleWebKit/537.36 (KHTML, like Gecko) Chrome/92.0.4515.131 Safari/537.36 SLBrowser/8.0.0.7271 SLBChan/105","WebKit","Chrome","92.0.4515.131","Windows","10.0","null","<div style=""font-size:60px;"">+</div>","null",""
"","","","","","html-button-response","55","155296","0.0-4.0-1.25","20","1","2022-10-07 05:56:47","d60b49b5908c80e163b920d72b52d584","219.154.208.162","Mozilla/5.0 (Windows NT 10.0; WOW64) AppleWebKit/537.36 (KHTML, like Gecko) Chrome/92.0.4515.131 Safari/537.36 SLBrowser/8.0.0.7271 SLBChan/105","WebKit","Chrome","92.0.4515.131","Windows","10.0","971","<p>作为军队的指挥官，你可以选择发射导弹杀死 <strong>1名</strong> 敌国士兵，但会误杀附近的 <strong>1名</strong> 敌国平民。</p> <p>平民照片如下图所示。</p> <p></p> <img src='stimuli/faces/NCF5.jpg', style='max-width: 30%;'> </img> <p><strong>你是否选择发射武器？</strong></p>","1",""
"","","","","","html-keyboard-response","56","156298","0.0-4.0-0.26","20","1","2022-10-07 05:56:47","d60b49b5908c80e163b920d72b52d584","219.154.208.162","Mozilla/5.0 (Windows NT 10.0; WOW64) AppleWebKit/537.36 (KHTML, like Gecko) Chrome/92.0.4515.131 Safari/537.36 SLBrowser/8.0.0.7271 SLBChan/105","WebKit","Chrome","92.0.4515.131","Windows","10.0","null","<div style=""font-size:60px;"">+</div>","null",""
"","","","","","html-button-response","57","157719","0.0-4.0-1.26","20","1","2022-10-07 05:56:47","d60b49b5908c80e163b920d72b52d584","219.154.208.162","Mozilla/5.0 (Windows NT 10.0; WOW64) AppleWebKit/537.36 (KHTML, like Gecko) Chrome/92.0.4515.131 Safari/537.36 SLBrowser/8.0.0.7271 SLBChan/105","WebKit","Chrome","92.0.4515.131","Windows","10.0","1419","<p>作为军队的指挥官，你可以选择发射导弹杀死 <strong>5名</strong> 敌国士兵，但会炸毁附近的 <strong>1棵</strong> 敌国树木。</p> <p>树木的照片如下图所示。</p> <p></p> <img src='stimuli/trees/1.png', style='max-width: 30%;'> </img> <p><strong>你是否选择发射武器？</strong></p>","1",""
"","","","","","html-keyboard-response","58","158730","0.0-4.0-0.27","20","1","2022-10-07 05:56:47","d60b49b5908c80e163b920d72b52d584","219.154.208.162","Mozilla/5.0 (Windows NT 10.0; WOW64) AppleWebKit/537.36 (KHTML, like Gecko) Chrome/92.0.4515.131 Safari/537.36 SLBrowser/8.0.0.7271 SLBChan/105","WebKit","Chrome","92.0.4515.131","Windows","10.0","null","<div style=""font-size:60px;"">+</div>","null",""
"","","","","","html-button-response","59","159783","0.0-4.0-1.27","20","1","2022-10-07 05:56:47","d60b49b5908c80e163b920d72b52d584","219.154.208.162","Mozilla/5.0 (Windows NT 10.0; WOW64) AppleWebKit/537.36 (KHTML, like Gecko) Chrome/92.0.4515.131 Safari/537.36 SLBrowser/8.0.0.7271 SLBChan/105","WebKit","Chrome","92.0.4515.131","Windows","10.0","1049","<p>作为军队的指挥官，你可以选择发射导弹杀死 <strong>7名</strong> 敌国士兵，但会误杀附近的 <strong>1名</strong> 敌国平民。</p> <p>平民照片如下图所示。</p> <p></p> <img src='stimuli/faces/NCM5.jpg', style='max-width: 30%;'> </img> <p><strong>你是否选择发射武器？</strong></p>","1",""
"","","","","","html-keyboard-response","60","160785","0.0-4.0-0.28","20","1","2022-10-07 05:56:47","d60b49b5908c80e163b920d72b52d584","219.154.208.162","Mozilla/5.0 (Windows NT 10.0; WOW64) AppleWebKit/537.36 (KHTML, like Gecko) Chrome/92.0.4515.131 Safari/537.36 SLBrowser/8.0.0.7271 SLBChan/105","WebKit","Chrome","92.0.4515.131","Windows","10.0","null","<div style=""font-size:60px;"">+</div>","null",""
"","","","","","html-button-response","61","162607","0.0-4.0-1.28","20","1","2022-10-07 05:56:47","d60b49b5908c80e163b920d72b52d584","219.154.208.162","Mozilla/5.0 (Windows NT 10.0; WOW64) AppleWebKit/537.36 (KHTML, like Gecko) Chrome/92.0.4515.131 Safari/537.36 SLBrowser/8.0.0.7271 SLBChan/105","WebKit","Chrome","92.0.4515.131","Windows","10.0","1819","<p>作为军队的指挥官，你可以选择发射导弹杀死 <strong>3名</strong> 敌国士兵，但会炸毁附近的 <strong>1棵</strong> 敌国树木。</p> <p>树木的照片如下图所示。</p> <p></p> <img src='stimuli/trees/11.png', style='max-width: 30%;'> </img> <p><strong>你是否选择发射武器？</strong></p>","1",""
"","","","","","html-keyboard-response","62","163612","0.0-4.0-0.29","20","1","2022-10-07 05:56:47","d60b49b5908c80e163b920d72b52d584","219.154.208.162","Mozilla/5.0 (Windows NT 10.0; WOW64) AppleWebKit/537.36 (KHTML, like Gecko) Chrome/92.0.4515.131 Safari/537.36 SLBrowser/8.0.0.7271 SLBChan/105","WebKit","Chrome","92.0.4515.131","Windows","10.0","null","<div style=""font-size:60px;"">+</div>","null",""
"","","","","","html-button-response","63","164752","0.0-4.0-1.29","20","1","2022-10-07 05:56:47","d60b49b5908c80e163b920d72b52d584","219.154.208.162","Mozilla/5.0 (Windows NT 10.0; WOW64) AppleWebKit/537.36 (KHTML, like Gecko) Chrome/92.0.4515.131 Safari/537.36 SLBrowser/8.0.0.7271 SLBChan/105","WebKit","Chrome","92.0.4515.131","Windows","10.0","1137","<p>作为军队的指挥官，你可以选择发射导弹杀死 <strong>8名</strong> 敌国士兵，但会误杀附近的 <strong>1名</strong> 敌国平民。</p> <p>平民照片如下图所示。</p> <p></p> <img src='stimuli/faces/NCM4.jpg', style='max-width: 30%;'> </img> <p><strong>你是否选择发射武器？</strong></p>","1",""
"","","","","","html-keyboard-response","64","165765","0.0-4.0-0.30","20","1","2022-10-07 05:56:47","d60b49b5908c80e163b920d72b52d584","219.154.208.162","Mozilla/5.0 (Windows NT 10.0; WOW64) AppleWebKit/537.36 (KHTML, like Gecko) Chrome/92.0.4515.131 Safari/537.36 SLBrowser/8.0.0.7271 SLBChan/105","WebKit","Chrome","92.0.4515.131","Windows","10.0","null","<div style=""font-size:60px;"">+</div>","null",""
"","","","","","html-button-response","65","168262","0.0-4.0-1.30","20","1","2022-10-07 05:56:47","d60b49b5908c80e163b920d72b52d584","219.154.208.162","Mozilla/5.0 (Windows NT 10.0; WOW64) AppleWebKit/537.36 (KHTML, like Gecko) Chrome/92.0.4515.131 Safari/537.36 SLBrowser/8.0.0.7271 SLBChan/105","WebKit","Chrome","92.0.4515.131","Windows","10.0","2495","<p>作为军队的指挥官，你可以选择发射导弹杀死 <strong>6名</strong> 敌国士兵，但会炸毁附近的 <strong>1棵</strong> 敌国树木。</p> <p>树木的照片如下图所示。</p> <p></p> <img src='stimuli/trees/4.png', style='max-width: 30%;'> </img> <p><strong>你是否选择发射武器？</strong></p>","0",""
"","","","","","html-keyboard-response","66","169280","0.0-4.0-0.31","20","1","2022-10-07 05:56:47","d60b49b5908c80e163b920d72b52d584","219.154.208.162","Mozilla/5.0 (Windows NT 10.0; WOW64) AppleWebKit/537.36 (KHTML, like Gecko) Chrome/92.0.4515.131 Safari/537.36 SLBrowser/8.0.0.7271 SLBChan/105","WebKit","Chrome","92.0.4515.131","Windows","10.0","null","<div style=""font-size:60px;"">+</div>","null",""
"","","","","","html-button-response","67","170303","0.0-4.0-1.31","20","1","2022-10-07 05:56:47","d60b49b5908c80e163b920d72b52d584","219.154.208.162","Mozilla/5.0 (Windows NT 10.0; WOW64) AppleWebKit/537.36 (KHTML, like Gecko) Chrome/92.0.4515.131 Safari/537.36 SLBrowser/8.0.0.7271 SLBChan/105","WebKit","Chrome","92.0.4515.131","Windows","10.0","1020","<p>作为军队的指挥官，你可以选择发射导弹杀死 <strong>5名</strong> 敌国士兵，但会误杀附近的 <strong>1名</strong> 敌国平民。</p> <p>平民照片如下图所示。</p> <p></p> <img src='stimuli/faces/NCM5.jpg', style='max-width: 30%;'> </img> <p><strong>你是否选择发射武器？</strong></p>","1",""
"","","","","","html-keyboard-response","68","171312","0.0-4.0-0.32","20","1","2022-10-07 05:56:47","d60b49b5908c80e163b920d72b52d584","219.154.208.162","Mozilla/5.0 (Windows NT 10.0; WOW64) AppleWebKit/537.36 (KHTML, like Gecko) Chrome/92.0.4515.131 Safari/537.36 SLBrowser/8.0.0.7271 SLBChan/105","WebKit","Chrome","92.0.4515.131","Windows","10.0","null","<div style=""font-size:60px;"">+</div>","null",""
"","","","","","html-button-response","69","172727","0.0-4.0-1.32","20","1","2022-10-07 05:56:47","d60b49b5908c80e163b920d72b52d584","219.154.208.162","Mozilla/5.0 (Windows NT 10.0; WOW64) AppleWebKit/537.36 (KHTML, like Gecko) Chrome/92.0.4515.131 Safari/537.36 SLBrowser/8.0.0.7271 SLBChan/105","WebKit","Chrome","92.0.4515.131","Windows","10.0","1413","<p>作为军队的指挥官，你可以选择发射导弹杀死 <strong>7名</strong> 敌国士兵，但会误杀附近的 <strong>1名</strong> 敌国平民。</p> <p>平民照片如下图所示。</p> <p></p> <img src='stimuli/faces/NCM7.jpg', style='max-width: 30%;'> </img> <p><strong>你是否选择发射武器？</strong></p>","1",""
"","","","","","html-keyboard-response","70","173738","0.0-4.0-0.33","20","1","2022-10-07 05:56:47","d60b49b5908c80e163b920d72b52d584","219.154.208.162","Mozilla/5.0 (Windows NT 10.0; WOW64) AppleWebKit/537.36 (KHTML, like Gecko) Chrome/92.0.4515.131 Safari/537.36 SLBrowser/8.0.0.7271 SLBChan/105","WebKit","Chrome","92.0.4515.131","Windows","10.0","null","<div style=""font-size:60px;"">+</div>","null",""
"","","","","","html-button-response","71","177790","0.0-4.0-1.33","20","1","2022-10-07 05:56:47","d60b49b5908c80e163b920d72b52d584","219.154.208.162","Mozilla/5.0 (Windows NT 10.0; WOW64) AppleWebKit/537.36 (KHTML, like Gecko) Chrome/92.0.4515.131 Safari/537.36 SLBrowser/8.0.0.7271 SLBChan/105","WebKit","Chrome","92.0.4515.131","Windows","10.0","4049","<p>作为军队的指挥官，你可以选择发射导弹杀死 <strong>5名</strong> 敌国士兵，但会炸毁附近的 <strong>1棵</strong> 敌国树木。</p> <p>树木的照片如下图所示。</p> <p></p> <img src='stimuli/trees/14.png', style='max-width: 30%;'> </img> <p><strong>你是否选择发射武器？</strong></p>","0",""
"","","","","","html-keyboard-response","72","178805","0.0-4.0-0.34","20","1","2022-10-07 05:56:47","d60b49b5908c80e163b920d72b52d584","219.154.208.162","Mozilla/5.0 (Windows NT 10.0; WOW64) AppleWebKit/537.36 (KHTML, like Gecko) Chrome/92.0.4515.131 Safari/537.36 SLBrowser/8.0.0.7271 SLBChan/105","WebKit","Chrome","92.0.4515.131","Windows","10.0","null","<div style=""font-size:60px;"">+</div>","null",""
"","","","","","html-button-response","73","180542","0.0-4.0-1.34","20","1","2022-10-07 05:56:47","d60b49b5908c80e163b920d72b52d584","219.154.208.162","Mozilla/5.0 (Windows NT 10.0; WOW64) AppleWebKit/537.36 (KHTML, like Gecko) Chrome/92.0.4515.131 Safari/537.36 SLBrowser/8.0.0.7271 SLBChan/105","WebKit","Chrome","92.0.4515.131","Windows","10.0","1736","<p>作为军队的指挥官，你可以选择发射导弹杀死 <strong>9名</strong> 敌国士兵，但会炸毁附近的 <strong>1棵</strong> 敌国树木。</p> <p>树木的照片如下图所示。</p> <p></p> <img src='stimuli/trees/12.png', style='max-width: 30%;'> </img> <p><strong>你是否选择发射武器？</strong></p>","0",""
"","","","","","html-keyboard-response","74","181546","0.0-4.0-0.35","20","1","2022-10-07 05:56:47","d60b49b5908c80e163b920d72b52d584","219.154.208.162","Mozilla/5.0 (Windows NT 10.0; WOW64) AppleWebKit/537.36 (KHTML, like Gecko) Chrome/92.0.4515.131 Safari/537.36 SLBrowser/8.0.0.7271 SLBChan/105","WebKit","Chrome","92.0.4515.131","Windows","10.0","null","<div style=""font-size:60px;"">+</div>","null",""
"","","","","","html-button-response","75","183134","0.0-4.0-1.35","20","1","2022-10-07 05:56:47","d60b49b5908c80e163b920d72b52d584","219.154.208.162","Mozilla/5.0 (Windows NT 10.0; WOW64) AppleWebKit/537.36 (KHTML, like Gecko) Chrome/92.0.4515.131 Safari/537.36 SLBrowser/8.0.0.7271 SLBChan/105","WebKit","Chrome","92.0.4515.131","Windows","10.0","1587","<p>作为军队的指挥官，你可以选择发射导弹杀死 <strong>7名</strong> 敌国士兵，但会炸毁附近的 <strong>1棵</strong> 敌国树木。</p> <p>树木的照片如下图所示。</p> <p></p> <img src='stimuli/trees/16.png', style='max-width: 30%;'> </img> <p><strong>你是否选择发射武器？</strong></p>","0",""
"","","","","","html-keyboard-response","76","184140","0.0-4.0-0.36","20","1","2022-10-07 05:56:47","d60b49b5908c80e163b920d72b52d584","219.154.208.162","Mozilla/5.0 (Windows NT 10.0; WOW64) AppleWebKit/537.36 (KHTML, like Gecko) Chrome/92.0.4515.131 Safari/537.36 SLBrowser/8.0.0.7271 SLBChan/105","WebKit","Chrome","92.0.4515.131","Windows","10.0","null","<div style=""font-size:60px;"">+</div>","null",""
"","","","","","html-button-response","77","185448","0.0-4.0-1.36","20","1","2022-10-07 05:56:47","d60b49b5908c80e163b920d72b52d584","219.154.208.162","Mozilla/5.0 (Windows NT 10.0; WOW64) AppleWebKit/537.36 (KHTML, like Gecko) Chrome/92.0.4515.131 Safari/537.36 SLBrowser/8.0.0.7271 SLBChan/105","WebKit","Chrome","92.0.4515.131","Windows","10.0","1305","<p>作为军队的指挥官，你可以选择发射导弹杀死 <strong>2名</strong> 敌国士兵，但会误杀附近的 <strong>1名</strong> 敌国平民。</p> <p>平民照片如下图所示。</p> <p></p> <img src='stimuli/faces/NCM1.jpg', style='max-width: 30%;'> </img> <p><strong>你是否选择发射武器？</strong></p>","1",""
"","","","","","html-keyboard-response","78","186462","0.0-4.0-0.37","20","1","2022-10-07 05:56:47","d60b49b5908c80e163b920d72b52d584","219.154.208.162","Mozilla/5.0 (Windows NT 10.0; WOW64) AppleWebKit/537.36 (KHTML, like Gecko) Chrome/92.0.4515.131 Safari/537.36 SLBrowser/8.0.0.7271 SLBChan/105","WebKit","Chrome","92.0.4515.131","Windows","10.0","null","<div style=""font-size:60px;"">+</div>","null",""
"","","","","","html-button-response","79","187775","0.0-4.0-1.37","20","1","2022-10-07 05:56:47","d60b49b5908c80e163b920d72b52d584","219.154.208.162","Mozilla/5.0 (Windows NT 10.0; WOW64) AppleWebKit/537.36 (KHTML, like Gecko) Chrome/92.0.4515.131 Safari/537.36 SLBrowser/8.0.0.7271 SLBChan/105","WebKit","Chrome","92.0.4515.131","Windows","10.0","1309","<p>作为军队的指挥官，你可以选择发射导弹杀死 <strong>9名</strong> 敌国士兵，但会炸毁附近的 <strong>1棵</strong> 敌国树木。</p> <p>树木的照片如下图所示。</p> <p></p> <img src='stimuli/trees/3.png', style='max-width: 30%;'> </img> <p><strong>你是否选择发射武器？</strong></p>","0",""
"","","","","","html-keyboard-response","80","188789","0.0-4.0-0.38","20","1","2022-10-07 05:56:47","d60b49b5908c80e163b920d72b52d584","219.154.208.162","Mozilla/5.0 (Windows NT 10.0; WOW64) AppleWebKit/537.36 (KHTML, like Gecko) Chrome/92.0.4515.131 Safari/537.36 SLBrowser/8.0.0.7271 SLBChan/105","WebKit","Chrome","92.0.4515.131","Windows","10.0","null","<div style=""font-size:60px;"">+</div>","null",""
"","","","","","html-button-response","81","192911","0.0-4.0-1.38","20","1","2022-10-07 05:56:47","d60b49b5908c80e163b920d72b52d584","219.154.208.162","Mozilla/5.0 (Windows NT 10.0; WOW64) AppleWebKit/537.36 (KHTML, like Gecko) Chrome/92.0.4515.131 Safari/537.36 SLBrowser/8.0.0.7271 SLBChan/105","WebKit","Chrome","92.0.4515.131","Windows","10.0","4119","<p>作为军队的指挥官，你可以选择发射导弹杀死 <strong>4名</strong> 敌国士兵，但会炸毁附近的 <strong>1棵</strong> 敌国树木。</p> <p>树木的照片如下图所示。</p> <p></p> <img src='stimuli/trees/15.png', style='max-width: 30%;'> </img> <p><strong>你是否选择发射武器？</strong></p>","1",""
"","","","","","html-keyboard-response","82","193923","0.0-4.0-0.39","20","1","2022-10-07 05:56:47","d60b49b5908c80e163b920d72b52d584","219.154.208.162","Mozilla/5.0 (Windows NT 10.0; WOW64) AppleWebKit/537.36 (KHTML, like Gecko) Chrome/92.0.4515.131 Safari/537.36 SLBrowser/8.0.0.7271 SLBChan/105","WebKit","Chrome","92.0.4515.131","Windows","10.0","null","<div style=""font-size:60px;"">+</div>","null",""
"","","","","","html-button-response","83","195791","0.0-4.0-1.39","20","1","2022-10-07 05:56:47","d60b49b5908c80e163b920d72b52d584","219.154.208.162","Mozilla/5.0 (Windows NT 10.0; WOW64) AppleWebKit/537.36 (KHTML, like Gecko) Chrome/92.0.4515.131 Safari/537.36 SLBrowser/8.0.0.7271 SLBChan/105","WebKit","Chrome","92.0.4515.131","Windows","10.0","1865","<p>作为军队的指挥官，你可以选择发射导弹杀死 <strong>4名</strong> 敌国士兵，但会炸毁附近的 <strong>1棵</strong> 敌国树木。</p> <p>树木的照片如下图所示。</p> <p></p> <img src='stimuli/trees/2.png', style='max-width: 30%;'> </img> <p><strong>你是否选择发射武器？</strong></p>","1",""
"","","","","","html-keyboard-response","84","196797","0.0-4.0-0.40","20","1","2022-10-07 05:56:47","d60b49b5908c80e163b920d72b52d584","219.154.208.162","Mozilla/5.0 (Windows NT 10.0; WOW64) AppleWebKit/537.36 (KHTML, like Gecko) Chrome/92.0.4515.131 Safari/537.36 SLBrowser/8.0.0.7271 SLBChan/105","WebKit","Chrome","92.0.4515.131","Windows","10.0","null","<div style=""font-size:60px;"">+</div>","null",""
"","","","","","html-button-response","85","198199","0.0-4.0-1.40","20","1","2022-10-07 05:56:47","d60b49b5908c80e163b920d72b52d584","219.154.208.162","Mozilla/5.0 (Windows NT 10.0; WOW64) AppleWebKit/537.36 (KHTML, like Gecko) Chrome/92.0.4515.131 Safari/537.36 SLBrowser/8.0.0.7271 SLBChan/105","WebKit","Chrome","92.0.4515.131","Windows","10.0","1398","<p>作为军队的指挥官，你可以选择发射导弹杀死 <strong>2名</strong> 敌国士兵，但会炸毁附近的 <strong>1棵</strong> 敌国树木。</p> <p>树木的照片如下图所示。</p> <p></p> <img src='stimuli/trees/6.png', style='max-width: 30%;'> </img> <p><strong>你是否选择发射武器？</strong></p>","1",""
"","","","","","html-keyboard-response","86","199204","0.0-4.0-0.41","20","1","2022-10-07 05:56:47","d60b49b5908c80e163b920d72b52d584","219.154.208.162","Mozilla/5.0 (Windows NT 10.0; WOW64) AppleWebKit/537.36 (KHTML, like Gecko) Chrome/92.0.4515.131 Safari/537.36 SLBrowser/8.0.0.7271 SLBChan/105","WebKit","Chrome","92.0.4515.131","Windows","10.0","null","<div style=""font-size:60px;"">+</div>","null",""
"","","","","","html-button-response","87","202607","0.0-4.0-1.41","20","1","2022-10-07 05:56:47","d60b49b5908c80e163b920d72b52d584","219.154.208.162","Mozilla/5.0 (Windows NT 10.0; WOW64) AppleWebKit/537.36 (KHTML, like Gecko) Chrome/92.0.4515.131 Safari/537.36 SLBrowser/8.0.0.7271 SLBChan/105","WebKit","Chrome","92.0.4515.131","Windows","10.0","3400","<p>作为军队的指挥官，你可以选择发射导弹杀死 <strong>4名</strong> 敌国士兵，但会炸毁附近的 <strong>1棵</strong> 敌国树木。</p> <p>树木的照片如下图所示。</p> <p></p> <img src='stimuli/trees/5.png', style='max-width: 30%;'> </img> <p><strong>你是否选择发射武器？</strong></p>","1",""
"","","","","","html-keyboard-response","88","203610","0.0-4.0-0.42","20","1","2022-10-07 05:56:47","d60b49b5908c80e163b920d72b52d584","219.154.208.162","Mozilla/5.0 (Windows NT 10.0; WOW64) AppleWebKit/537.36 (KHTML, like Gecko) Chrome/92.0.4515.131 Safari/537.36 SLBrowser/8.0.0.7271 SLBChan/105","WebKit","Chrome","92.0.4515.131","Windows","10.0","null","<div style=""font-size:60px;"">+</div>","null",""
"","","","","","html-button-response","89","204792","0.0-4.0-1.42","20","1","2022-10-07 05:56:47","d60b49b5908c80e163b920d72b52d584","219.154.208.162","Mozilla/5.0 (Windows NT 10.0; WOW64) AppleWebKit/537.36 (KHTML, like Gecko) Chrome/92.0.4515.131 Safari/537.36 SLBrowser/8.0.0.7271 SLBChan/105","WebKit","Chrome","92.0.4515.131","Windows","10.0","1178","<p>作为军队的指挥官，你可以选择发射导弹杀死 <strong>1名</strong> 敌国士兵，但会误杀附近的 <strong>1名</strong> 敌国平民。</p> <p>平民照片如下图所示。</p> <p></p> <img src='stimuli/faces/NCM8.jpg', style='max-width: 30%;'> </img> <p><strong>你是否选择发射武器？</strong></p>","1",""
"","","","","","html-keyboard-response","90","205807","0.0-4.0-0.43","20","1","2022-10-07 05:56:47","d60b49b5908c80e163b920d72b52d584","219.154.208.162","Mozilla/5.0 (Windows NT 10.0; WOW64) AppleWebKit/537.36 (KHTML, like Gecko) Chrome/92.0.4515.131 Safari/537.36 SLBrowser/8.0.0.7271 SLBChan/105","WebKit","Chrome","92.0.4515.131","Windows","10.0","null","<div style=""font-size:60px;"">+</div>","null",""
"","","","","","html-button-response","91","206911","0.0-4.0-1.43","20","1","2022-10-07 05:56:47","d60b49b5908c80e163b920d72b52d584","219.154.208.162","Mozilla/5.0 (Windows NT 10.0; WOW64) AppleWebKit/537.36 (KHTML, like Gecko) Chrome/92.0.4515.131 Safari/537.36 SLBrowser/8.0.0.7271 SLBChan/105","WebKit","Chrome","92.0.4515.131","Windows","10.0","1101","<p>作为军队的指挥官，你可以选择发射导弹杀死 <strong>6名</strong> 敌国士兵，但会误杀附近的 <strong>1名</strong> 敌国平民。</p> <p>平民照片如下图所示。</p> <p></p> <img src='stimuli/faces/NCM8.jpg', style='max-width: 30%;'> </img> <p><strong>你是否选择发射武器？</strong></p>","1",""
"","","","","","html-keyboard-response","92","207917","0.0-4.0-0.44","20","1","2022-10-07 05:56:47","d60b49b5908c80e163b920d72b52d584","219.154.208.162","Mozilla/5.0 (Windows NT 10.0; WOW64) AppleWebKit/537.36 (KHTML, like Gecko) Chrome/92.0.4515.131 Safari/537.36 SLBrowser/8.0.0.7271 SLBChan/105","WebKit","Chrome","92.0.4515.131","Windows","10.0","null","<div style=""font-size:60px;"">+</div>","null",""
"","","","","","html-button-response","93","209639","0.0-4.0-1.44","20","1","2022-10-07 05:56:47","d60b49b5908c80e163b920d72b52d584","219.154.208.162","Mozilla/5.0 (Windows NT 10.0; WOW64) AppleWebKit/537.36 (KHTML, like Gecko) Chrome/92.0.4515.131 Safari/537.36 SLBrowser/8.0.0.7271 SLBChan/105","WebKit","Chrome","92.0.4515.131","Windows","10.0","1719","<p>作为军队的指挥官，你可以选择发射导弹杀死 <strong>5名</strong> 敌国士兵，但会误杀附近的 <strong>1名</strong> 敌国平民。</p> <p>平民照片如下图所示。</p> <p></p> <img src='stimuli/faces/NCF6.jpg', style='max-width: 30%;'> </img> <p><strong>你是否选择发射武器？</strong></p>","1",""
"","","","","","html-keyboard-response","94","210647","0.0-4.0-0.45","20","1","2022-10-07 05:56:47","d60b49b5908c80e163b920d72b52d584","219.154.208.162","Mozilla/5.0 (Windows NT 10.0; WOW64) AppleWebKit/537.36 (KHTML, like Gecko) Chrome/92.0.4515.131 Safari/537.36 SLBrowser/8.0.0.7271 SLBChan/105","WebKit","Chrome","92.0.4515.131","Windows","10.0","null","<div style=""font-size:60px;"">+</div>","null",""
"","","","","","html-button-response","95","215046","0.0-4.0-1.45","20","1","2022-10-07 05:56:47","d60b49b5908c80e163b920d72b52d584","219.154.208.162","Mozilla/5.0 (Windows NT 10.0; WOW64) AppleWebKit/537.36 (KHTML, like Gecko) Chrome/92.0.4515.131 Safari/537.36 SLBrowser/8.0.0.7271 SLBChan/105","WebKit","Chrome","92.0.4515.131","Windows","10.0","4397","<p>作为军队的指挥官，你可以选择发射导弹杀死 <strong>2名</strong> 敌国士兵，但会炸毁附近的 <strong>1棵</strong> 敌国树木。</p> <p>树木的照片如下图所示。</p> <p></p> <img src='stimuli/trees/12.png', style='max-width: 30%;'> </img> <p><strong>你是否选择发射武器？</strong></p>","1",""
"","","","","","html-keyboard-response","96","216052","0.0-4.0-0.46","20","1","2022-10-07 05:56:47","d60b49b5908c80e163b920d72b52d584","219.154.208.162","Mozilla/5.0 (Windows NT 10.0; WOW64) AppleWebKit/537.36 (KHTML, like Gecko) Chrome/92.0.4515.131 Safari/537.36 SLBrowser/8.0.0.7271 SLBChan/105","WebKit","Chrome","92.0.4515.131","Windows","10.0","null","<div style=""font-size:60px;"">+</div>","null",""
"","","","","","html-button-response","97","222495","0.0-4.0-1.46","20","1","2022-10-07 05:56:47","d60b49b5908c80e163b920d72b52d584","219.154.208.162","Mozilla/5.0 (Windows NT 10.0; WOW64) AppleWebKit/537.36 (KHTML, like Gecko) Chrome/92.0.4515.131 Safari/537.36 SLBrowser/8.0.0.7271 SLBChan/105","WebKit","Chrome","92.0.4515.131","Windows","10.0","6440","<p>作为军队的指挥官，你可以选择发射导弹杀死 <strong>3名</strong> 敌国士兵，但会炸毁附近的 <strong>1棵</strong> 敌国树木。</p> <p>树木的照片如下图所示。</p> <p></p> <img src='stimuli/trees/10.png', style='max-width: 30%;'> </img> <p><strong>你是否选择发射武器？</strong></p>","0",""
"","","","","","html-keyboard-response","98","223498","0.0-4.0-0.47","20","1","2022-10-07 05:56:47","d60b49b5908c80e163b920d72b52d584","219.154.208.162","Mozilla/5.0 (Windows NT 10.0; WOW64) AppleWebKit/537.36 (KHTML, like Gecko) Chrome/92.0.4515.131 Safari/537.36 SLBrowser/8.0.0.7271 SLBChan/105","WebKit","Chrome","92.0.4515.131","Windows","10.0","null","<div style=""font-size:60px;"">+</div>","null",""
"","","","","","html-button-response","99","225279","0.0-4.0-1.47","20","1","2022-10-07 05:56:47","d60b49b5908c80e163b920d72b52d584","219.154.208.162","Mozilla/5.0 (Windows NT 10.0; WOW64) AppleWebKit/537.36 (KHTML, like Gecko) Chrome/92.0.4515.131 Safari/537.36 SLBrowser/8.0.0.7271 SLBChan/105","WebKit","Chrome","92.0.4515.131","Windows","10.0","1777","<p>作为军队的指挥官，你可以选择发射导弹杀死 <strong>7名</strong> 敌国士兵，但会误杀附近的 <strong>1名</strong> 敌国平民。</p> <p>平民照片如下图所示。</p> <p></p> <img src='stimuli/faces/NCF7.jpg', style='max-width: 30%;'> </img> <p><strong>你是否选择发射武器？</strong></p>","1",""
"","","","","","html-keyboard-response","100","226282","0.0-4.0-0.48","20","1","2022-10-07 05:56:47","d60b49b5908c80e163b920d72b52d584","219.154.208.162","Mozilla/5.0 (Windows NT 10.0; WOW64) AppleWebKit/537.36 (KHTML, like Gecko) Chrome/92.0.4515.131 Safari/537.36 SLBrowser/8.0.0.7271 SLBChan/105","WebKit","Chrome","92.0.4515.131","Windows","10.0","null","<div style=""font-size:60px;"">+</div>","null",""
"","","","","","html-button-response","101","230975","0.0-4.0-1.48","20","1","2022-10-07 05:56:47","d60b49b5908c80e163b920d72b52d584","219.154.208.162","Mozilla/5.0 (Windows NT 10.0; WOW64) AppleWebKit/537.36 (KHTML, like Gecko) Chrome/92.0.4515.131 Safari/537.36 SLBrowser/8.0.0.7271 SLBChan/105","WebKit","Chrome","92.0.4515.131","Windows","10.0","4690","<p>作为军队的指挥官，你可以选择发射导弹杀死 <strong>7名</strong> 敌国士兵，但会炸毁附近的 <strong>1棵</strong> 敌国树木。</p> <p>树木的照片如下图所示。</p> <p></p> <img src='stimuli/trees/8.png', style='max-width: 30%;'> </img> <p><strong>你是否选择发射武器？</strong></p>","1",""
"","","","","","html-keyboard-response","102","231984","0.0-4.0-0.49","20","1","2022-10-07 05:56:47","d60b49b5908c80e163b920d72b52d584","219.154.208.162","Mozilla/5.0 (Windows NT 10.0; WOW64) AppleWebKit/537.36 (KHTML, like Gecko) Chrome/92.0.4515.131 Safari/537.36 SLBrowser/8.0.0.7271 SLBChan/105","WebKit","Chrome","92.0.4515.131","Windows","10.0","null","<div style=""font-size:60px;"">+</div>","null",""
"","","","","","html-button-response","103","233423","0.0-4.0-1.49","20","1","2022-10-07 05:56:47","d60b49b5908c80e163b920d72b52d584","219.154.208.162","Mozilla/5.0 (Windows NT 10.0; WOW64) AppleWebKit/537.36 (KHTML, like Gecko) Chrome/92.0.4515.131 Safari/537.36 SLBrowser/8.0.0.7271 SLBChan/105","WebKit","Chrome","92.0.4515.131","Windows","10.0","1435","<p>作为军队的指挥官，你可以选择发射导弹杀死 <strong>10名</strong> 敌国士兵，但会误杀附近的 <strong>1名</strong> 敌国平民。</p> <p>平民照片如下图所示。</p> <p></p> <img src='stimuli/faces/NCF5.jpg', style='max-width: 30%;'> </img> <p><strong>你是否选择发射武器？</strong></p>","1",""
"","","","","","html-keyboard-response","104","234432","0.0-4.0-0.50","20","1","2022-10-07 05:56:47","d60b49b5908c80e163b920d72b52d584","219.154.208.162","Mozilla/5.0 (Windows NT 10.0; WOW64) AppleWebKit/537.36 (KHTML, like Gecko) Chrome/92.0.4515.131 Safari/537.36 SLBrowser/8.0.0.7271 SLBChan/105","WebKit","Chrome","92.0.4515.131","Windows","10.0","null","<div style=""font-size:60px;"">+</div>","null",""
"","","","","","html-button-response","105","235583","0.0-4.0-1.50","20","1","2022-10-07 05:56:47","d60b49b5908c80e163b920d72b52d584","219.154.208.162","Mozilla/5.0 (Windows NT 10.0; WOW64) AppleWebKit/537.36 (KHTML, like Gecko) Chrome/92.0.4515.131 Safari/537.36 SLBrowser/8.0.0.7271 SLBChan/105","WebKit","Chrome","92.0.4515.131","Windows","10.0","1148","<p>作为军队的指挥官，你可以选择发射导弹杀死 <strong>4名</strong> 敌国士兵，但会误杀附近的 <strong>1名</strong> 敌国平民。</p> <p>平民照片如下图所示。</p> <p></p> <img src='stimuli/faces/NCF1.jpg', style='max-width: 30%;'> </img> <p><strong>你是否选择发射武器？</strong></p>","1",""
"","","","","","html-keyboard-response","106","236592","0.0-4.0-0.51","20","1","2022-10-07 05:56:47","d60b49b5908c80e163b920d72b52d584","219.154.208.162","Mozilla/5.0 (Windows NT 10.0; WOW64) AppleWebKit/537.36 (KHTML, like Gecko) Chrome/92.0.4515.131 Safari/537.36 SLBrowser/8.0.0.7271 SLBChan/105","WebKit","Chrome","92.0.4515.131","Windows","10.0","null","<div style=""font-size:60px;"">+</div>","null",""
"","","","","","html-button-response","107","239303","0.0-4.0-1.51","20","1","2022-10-07 05:56:47","d60b49b5908c80e163b920d72b52d584","219.154.208.162","Mozilla/5.0 (Windows NT 10.0; WOW64) AppleWebKit/537.36 (KHTML, like Gecko) Chrome/92.0.4515.131 Safari/537.36 SLBrowser/8.0.0.7271 SLBChan/105","WebKit","Chrome","92.0.4515.131","Windows","10.0","2708","<p>作为军队的指挥官，你可以选择发射导弹杀死 <strong>2名</strong> 敌国士兵，但会炸毁附近的 <strong>1棵</strong> 敌国树木。</p> <p>树木的照片如下图所示。</p> <p></p> <img src='stimuli/trees/3.png', style='max-width: 30%;'> </img> <p><strong>你是否选择发射武器？</strong></p>","1",""
"","","","","","html-keyboard-response","108","240319","0.0-4.0-0.52","20","1","2022-10-07 05:56:47","d60b49b5908c80e163b920d72b52d584","219.154.208.162","Mozilla/5.0 (Windows NT 10.0; WOW64) AppleWebKit/537.36 (KHTML, like Gecko) Chrome/92.0.4515.131 Safari/537.36 SLBrowser/8.0.0.7271 SLBChan/105","WebKit","Chrome","92.0.4515.131","Windows","10.0","null","<div style=""font-size:60px;"">+</div>","null",""
"","","","","","html-button-response","109","245311","0.0-4.0-1.52","20","1","2022-10-07 05:56:47","d60b49b5908c80e163b920d72b52d584","219.154.208.162","Mozilla/5.0 (Windows NT 10.0; WOW64) AppleWebKit/537.36 (KHTML, like Gecko) Chrome/92.0.4515.131 Safari/537.36 SLBrowser/8.0.0.7271 SLBChan/105","WebKit","Chrome","92.0.4515.131","Windows","10.0","4988","<p>作为军队的指挥官，你可以选择发射导弹杀死 <strong>1名</strong> 敌国士兵，但会炸毁附近的 <strong>1棵</strong> 敌国树木。</p> <p>树木的照片如下图所示。</p> <p></p> <img src='stimuli/trees/9.png', style='max-width: 30%;'> </img> <p><strong>你是否选择发射武器？</strong></p>","0",""
"","","","","","html-keyboard-response","110","246324","0.0-4.0-0.53","20","1","2022-10-07 05:56:47","d60b49b5908c80e163b920d72b52d584","219.154.208.162","Mozilla/5.0 (Windows NT 10.0; WOW64) AppleWebKit/537.36 (KHTML, like Gecko) Chrome/92.0.4515.131 Safari/537.36 SLBrowser/8.0.0.7271 SLBChan/105","WebKit","Chrome","92.0.4515.131","Windows","10.0","null","<div style=""font-size:60px;"">+</div>","null",""
"","","","","","html-button-response","111","251183","0.0-4.0-1.53","20","1","2022-10-07 05:56:47","d60b49b5908c80e163b920d72b52d584","219.154.208.162","Mozilla/5.0 (Windows NT 10.0; WOW64) AppleWebKit/537.36 (KHTML, like Gecko) Chrome/92.0.4515.131 Safari/537.36 SLBrowser/8.0.0.7271 SLBChan/105","WebKit","Chrome","92.0.4515.131","Windows","10.0","4855","<p>作为军队的指挥官，你可以选择发射导弹杀死 <strong>10名</strong> 敌国士兵，但会误杀附近的 <strong>1名</strong> 敌国平民。</p> <p>平民照片如下图所示。</p> <p></p> <img src='stimuli/faces/NCF4.jpg', style='max-width: 30%;'> </img> <p><strong>你是否选择发射武器？</strong></p>","1",""
"","","","","","html-keyboard-response","112","252197","0.0-4.0-0.54","20","1","2022-10-07 05:56:47","d60b49b5908c80e163b920d72b52d584","219.154.208.162","Mozilla/5.0 (Windows NT 10.0; WOW64) AppleWebKit/537.36 (KHTML, like Gecko) Chrome/92.0.4515.131 Safari/537.36 SLBrowser/8.0.0.7271 SLBChan/105","WebKit","Chrome","92.0.4515.131","Windows","10.0","null","<div style=""font-size:60px;"">+</div>","null",""
"","","","","","html-button-response","113","253768","0.0-4.0-1.54","20","1","2022-10-07 05:56:47","d60b49b5908c80e163b920d72b52d584","219.154.208.162","Mozilla/5.0 (Windows NT 10.0; WOW64) AppleWebKit/537.36 (KHTML, like Gecko) Chrome/92.0.4515.131 Safari/537.36 SLBrowser/8.0.0.7271 SLBChan/105","WebKit","Chrome","92.0.4515.131","Windows","10.0","1567","<p>作为军队的指挥官，你可以选择发射导弹杀死 <strong>9名</strong> 敌国士兵，但会误杀附近的 <strong>1名</strong> 敌国平民。</p> <p>平民照片如下图所示。</p> <p></p> <img src='stimuli/faces/NCM2.jpg', style='max-width: 30%;'> </img> <p><strong>你是否选择发射武器？</strong></p>","1",""
"","","","","","html-keyboard-response","114","254771","0.0-4.0-0.55","20","1","2022-10-07 05:56:47","d60b49b5908c80e163b920d72b52d584","219.154.208.162","Mozilla/5.0 (Windows NT 10.0; WOW64) AppleWebKit/537.36 (KHTML, like Gecko) Chrome/92.0.4515.131 Safari/537.36 SLBrowser/8.0.0.7271 SLBChan/105","WebKit","Chrome","92.0.4515.131","Windows","10.0","null","<div style=""font-size:60px;"">+</div>","null",""
"","","","","","html-button-response","115","256087","0.0-4.0-1.55","20","1","2022-10-07 05:56:47","d60b49b5908c80e163b920d72b52d584","219.154.208.162","Mozilla/5.0 (Windows NT 10.0; WOW64) AppleWebKit/537.36 (KHTML, like Gecko) Chrome/92.0.4515.131 Safari/537.36 SLBrowser/8.0.0.7271 SLBChan/105","WebKit","Chrome","92.0.4515.131","Windows","10.0","1312","<p>作为军队的指挥官，你可以选择发射导弹杀死 <strong>7名</strong> 敌国士兵，但会误杀附近的 <strong>1名</strong> 敌国平民。</p> <p>平民照片如下图所示。</p> <p></p> <img src='stimuli/faces/NCM3.jpg', style='max-width: 30%;'> </img> <p><strong>你是否选择发射武器？</strong></p>","1",""
"","","","","","html-keyboard-response","116","257090","0.0-4.0-0.56","20","1","2022-10-07 05:56:47","d60b49b5908c80e163b920d72b52d584","219.154.208.162","Mozilla/5.0 (Windows NT 10.0; WOW64) AppleWebKit/537.36 (KHTML, like Gecko) Chrome/92.0.4515.131 Safari/537.36 SLBrowser/8.0.0.7271 SLBChan/105","WebKit","Chrome","92.0.4515.131","Windows","10.0","null","<div style=""font-size:60px;"">+</div>","null",""
"","","","","","html-button-response","117","259575","0.0-4.0-1.56","20","1","2022-10-07 05:56:47","d60b49b5908c80e163b920d72b52d584","219.154.208.162","Mozilla/5.0 (Windows NT 10.0; WOW64) AppleWebKit/537.36 (KHTML, like Gecko) Chrome/92.0.4515.131 Safari/537.36 SLBrowser/8.0.0.7271 SLBChan/105","WebKit","Chrome","92.0.4515.131","Windows","10.0","2482","<p>作为军队的指挥官，你可以选择发射导弹杀死 <strong>9名</strong> 敌国士兵，但会炸毁附近的 <strong>1棵</strong> 敌国树木。</p> <p>树木的照片如下图所示。</p> <p></p> <img src='stimuli/trees/2.png', style='max-width: 30%;'> </img> <p><strong>你是否选择发射武器？</strong></p>","0",""
"","","","","","html-keyboard-response","118","260587","0.0-4.0-0.57","20","1","2022-10-07 05:56:47","d60b49b5908c80e163b920d72b52d584","219.154.208.162","Mozilla/5.0 (Windows NT 10.0; WOW64) AppleWebKit/537.36 (KHTML, like Gecko) Chrome/92.0.4515.131 Safari/537.36 SLBrowser/8.0.0.7271 SLBChan/105","WebKit","Chrome","92.0.4515.131","Windows","10.0","null","<div style=""font-size:60px;"">+</div>","null",""
"","","","","","html-button-response","119","261799","0.0-4.0-1.57","20","1","2022-10-07 05:56:47","d60b49b5908c80e163b920d72b52d584","219.154.208.162","Mozilla/5.0 (Windows NT 10.0; WOW64) AppleWebKit/537.36 (KHTML, like Gecko) Chrome/92.0.4515.131 Safari/537.36 SLBrowser/8.0.0.7271 SLBChan/105","WebKit","Chrome","92.0.4515.131","Windows","10.0","1208","<p>作为军队的指挥官，你可以选择发射导弹杀死 <strong>10名</strong> 敌国士兵，但会炸毁附近的 <strong>1棵</strong> 敌国树木。</p> <p>树木的照片如下图所示。</p> <p></p> <img src='stimuli/trees/10.png', style='max-width: 30%;'> </img> <p><strong>你是否选择发射武器？</strong></p>","0",""
"","","","","","html-keyboard-response","120","262803","0.0-4.0-0.58","20","1","2022-10-07 05:56:47","d60b49b5908c80e163b920d72b52d584","219.154.208.162","Mozilla/5.0 (Windows NT 10.0; WOW64) AppleWebKit/537.36 (KHTML, like Gecko) Chrome/92.0.4515.131 Safari/537.36 SLBrowser/8.0.0.7271 SLBChan/105","WebKit","Chrome","92.0.4515.131","Windows","10.0","null","<div style=""font-size:60px;"">+</div>","null",""
"","","","","","html-button-response","121","263799","0.0-4.0-1.58","20","1","2022-10-07 05:56:47","d60b49b5908c80e163b920d72b52d584","219.154.208.162","Mozilla/5.0 (Windows NT 10.0; WOW64) AppleWebKit/537.36 (KHTML, like Gecko) Chrome/92.0.4515.131 Safari/537.36 SLBrowser/8.0.0.7271 SLBChan/105","WebKit","Chrome","92.0.4515.131","Windows","10.0","992","<p>作为军队的指挥官，你可以选择发射导弹杀死 <strong>4名</strong> 敌国士兵，但会误杀附近的 <strong>1名</strong> 敌国平民。</p> <p>平民照片如下图所示。</p> <p></p> <img src='stimuli/faces/NCF7.jpg', style='max-width: 30%;'> </img> <p><strong>你是否选择发射武器？</strong></p>","1",""
"","","","","","html-keyboard-response","122","264809","0.0-4.0-0.59","20","1","2022-10-07 05:56:47","d60b49b5908c80e163b920d72b52d584","219.154.208.162","Mozilla/5.0 (Windows NT 10.0; WOW64) AppleWebKit/537.36 (KHTML, like Gecko) Chrome/92.0.4515.131 Safari/537.36 SLBrowser/8.0.0.7271 SLBChan/105","WebKit","Chrome","92.0.4515.131","Windows","10.0","null","<div style=""font-size:60px;"">+</div>","null",""
"","","","","","html-button-response","123","266736","0.0-4.0-1.59","20","1","2022-10-07 05:56:47","d60b49b5908c80e163b920d72b52d584","219.154.208.162","Mozilla/5.0 (Windows NT 10.0; WOW64) AppleWebKit/537.36 (KHTML, like Gecko) Chrome/92.0.4515.131 Safari/537.36 SLBrowser/8.0.0.7271 SLBChan/105","WebKit","Chrome","92.0.4515.131","Windows","10.0","1922","<p>作为军队的指挥官，你可以选择发射导弹杀死 <strong>10名</strong> 敌国士兵，但会炸毁附近的 <strong>1棵</strong> 敌国树木。</p> <p>树木的照片如下图所示。</p> <p></p> <img src='stimuli/trees/13.png', style='max-width: 30%;'> </img> <p><strong>你是否选择发射武器？</strong></p>","0",""
"","","","","","html-keyboard-response","124","267743","0.0-4.0-0.60","20","1","2022-10-07 05:56:47","d60b49b5908c80e163b920d72b52d584","219.154.208.162","Mozilla/5.0 (Windows NT 10.0; WOW64) AppleWebKit/537.36 (KHTML, like Gecko) Chrome/92.0.4515.131 Safari/537.36 SLBrowser/8.0.0.7271 SLBChan/105","WebKit","Chrome","92.0.4515.131","Windows","10.0","null","<div style=""font-size:60px;"">+</div>","null",""
"","","","","","html-button-response","125","268895","0.0-4.0-1.60","20","1","2022-10-07 05:56:47","d60b49b5908c80e163b920d72b52d584","219.154.208.162","Mozilla/5.0 (Windows NT 10.0; WOW64) AppleWebKit/537.36 (KHTML, like Gecko) Chrome/92.0.4515.131 Safari/537.36 SLBrowser/8.0.0.7271 SLBChan/105","WebKit","Chrome","92.0.4515.131","Windows","10.0","1148","<p>作为军队的指挥官，你可以选择发射导弹杀死 <strong>8名</strong> 敌国士兵，但会炸毁附近的 <strong>1棵</strong> 敌国树木。</p> <p>树木的照片如下图所示。</p> <p></p> <img src='stimuli/trees/9.png', style='max-width: 30%;'> </img> <p><strong>你是否选择发射武器？</strong></p>","0",""
"","","","","","html-keyboard-response","126","269909","0.0-4.0-0.61","20","1","2022-10-07 05:56:47","d60b49b5908c80e163b920d72b52d584","219.154.208.162","Mozilla/5.0 (Windows NT 10.0; WOW64) AppleWebKit/537.36 (KHTML, like Gecko) Chrome/92.0.4515.131 Safari/537.36 SLBrowser/8.0.0.7271 SLBChan/105","WebKit","Chrome","92.0.4515.131","Windows","10.0","null","<div style=""font-size:60px;"">+</div>","null",""
"","","","","","html-button-response","127","270975","0.0-4.0-1.61","20","1","2022-10-07 05:56:47","d60b49b5908c80e163b920d72b52d584","219.154.208.162","Mozilla/5.0 (Windows NT 10.0; WOW64) AppleWebKit/537.36 (KHTML, like Gecko) Chrome/92.0.4515.131 Safari/537.36 SLBrowser/8.0.0.7271 SLBChan/105","WebKit","Chrome","92.0.4515.131","Windows","10.0","1063","<p>作为军队的指挥官，你可以选择发射导弹杀死 <strong>6名</strong> 敌国士兵，但会误杀附近的 <strong>1名</strong> 敌国平民。</p> <p>平民照片如下图所示。</p> <p></p> <img src='stimuli/faces/NCM1.jpg', style='max-width: 30%;'> </img> <p><strong>你是否选择发射武器？</strong></p>","1",""
"","","","","","html-keyboard-response","128","271979","0.0-4.0-0.62","20","1","2022-10-07 05:56:47","d60b49b5908c80e163b920d72b52d584","219.154.208.162","Mozilla/5.0 (Windows NT 10.0; WOW64) AppleWebKit/537.36 (KHTML, like Gecko) Chrome/92.0.4515.131 Safari/537.36 SLBrowser/8.0.0.7271 SLBChan/105","WebKit","Chrome","92.0.4515.131","Windows","10.0","null","<div style=""font-size:60px;"">+</div>","null",""
"","","","","","html-button-response","129","273848","0.0-4.0-1.62","20","1","2022-10-07 05:56:47","d60b49b5908c80e163b920d72b52d584","219.154.208.162","Mozilla/5.0 (Windows NT 10.0; WOW64) AppleWebKit/537.36 (KHTML, like Gecko) Chrome/92.0.4515.131 Safari/537.36 SLBrowser/8.0.0.7271 SLBChan/105","WebKit","Chrome","92.0.4515.131","Windows","10.0","1865","<p>作为军队的指挥官，你可以选择发射导弹杀死 <strong>7名</strong> 敌国士兵，但会炸毁附近的 <strong>1棵</strong> 敌国树木。</p> <p>树木的照片如下图所示。</p> <p></p> <img src='stimuli/trees/5.png', style='max-width: 30%;'> </img> <p><strong>你是否选择发射武器？</strong></p>","0",""
"","","","","","html-keyboard-response","130","274856","0.0-4.0-0.63","20","1","2022-10-07 05:56:47","d60b49b5908c80e163b920d72b52d584","219.154.208.162","Mozilla/5.0 (Windows NT 10.0; WOW64) AppleWebKit/537.36 (KHTML, like Gecko) Chrome/92.0.4515.131 Safari/537.36 SLBrowser/8.0.0.7271 SLBChan/105","WebKit","Chrome","92.0.4515.131","Windows","10.0","null","<div style=""font-size:60px;"">+</div>","null",""
"","","","","","html-button-response","131","278265","0.0-4.0-1.63","20","1","2022-10-07 05:56:47","d60b49b5908c80e163b920d72b52d584","219.154.208.162","Mozilla/5.0 (Windows NT 10.0; WOW64) AppleWebKit/537.36 (KHTML, like Gecko) Chrome/92.0.4515.131 Safari/537.36 SLBrowser/8.0.0.7271 SLBChan/105","WebKit","Chrome","92.0.4515.131","Windows","10.0","3405","<p>作为军队的指挥官，你可以选择发射导弹杀死 <strong>3名</strong> 敌国士兵，但会炸毁附近的 <strong>1棵</strong> 敌国树木。</p> <p>树木的照片如下图所示。</p> <p></p> <img src='stimuli/trees/13.png', style='max-width: 30%;'> </img> <p><strong>你是否选择发射武器？</strong></p>","0",""
"","","","","","survey-multi-choice","132","298825","0.0-5.0","20","1","2022-10-07 05:56:47","d60b49b5908c80e163b920d72b52d584","219.154.208.162","Mozilla/5.0 (Windows NT 10.0; WOW64) AppleWebKit/537.36 (KHTML, like Gecko) Chrome/92.0.4515.131 Safari/537.36 SLBrowser/8.0.0.7271 SLBChan/105","WebKit","Chrome","92.0.4515.131","Windows","10.0","20555","","{""Attention1"":""""}","[0]"
"","","","","","html-button-response","133","302183","0.0-6.0","20","1","2022-10-07 05:56:47","d60b49b5908c80e163b920d72b52d584","219.154.208.162","Mozilla/5.0 (Windows NT 10.0; WOW64) AppleWebKit/537.36 (KHTML, like Gecko) Chrome/92.0.4515.131 Safari/537.36 SLBrowser/8.0.0.7271 SLBChan/105","WebKit","Chrome","92.0.4515.131","Windows","10.0","3354","<p style=""font-size:20px;font-weight:bold;"">恭喜！</p><p>你已经完成了实验的第一部分。</p><p>请休息放松一下，然后进入第二部分。</p><p>这部分大约需要10分钟。</p>","0",""
"","","","","","survey-text","134","373936","0.0-7.0","20","1","2022-10-07 05:56:47","d60b49b5908c80e163b920d72b52d584","219.154.208.162","Mozilla/5.0 (Windows NT 10.0; WOW64) AppleWebKit/537.36 (KHTML, like Gecko) Chrome/92.0.4515.131 Safari/537.36 SLBrowser/8.0.0.7271 SLBChan/105","WebKit","Chrome","92.0.4515.131","Windows","10.0","70731","","{""Age"":""19"",""Nation"":""中国"",""Born"":""河南省"",""Live"":""河南省"",""Ethnic"":""汉"",""Alipay"":""17633931643""}",""
"","","","","","survey-multi-choice","135","390672","0.0-8.0","20","1","2022-10-07 05:56:47","d60b49b5908c80e163b920d72b52d584","219.154.208.162","Mozilla/5.0 (Windows NT 10.0; WOW64) AppleWebKit/537.36 (KHTML, like Gecko) Chrome/92.0.4515.131 Safari/537.36 SLBrowser/8.0.0.7271 SLBChan/105","WebKit","Chrome","92.0.4515.131","Windows","10.0","16732","","{""Gender"":""男"",""Education"":""高中毕业"",""Income"":""￥70,000-￥139,999"",""Children"":""0"",""Race"":""亚洲人""}","[0,1,2,3,4]"
"","","","","","survey-multi-select","136","396272","0.0-9.0","20","1","2022-10-07 05:56:47","d60b49b5908c80e163b920d72b52d584","219.154.208.162","Mozilla/5.0 (Windows NT 10.0; WOW64) AppleWebKit/537.36 (KHTML, like Gecko) Chrome/92.0.4515.131 Safari/537.36 SLBrowser/8.0.0.7271 SLBChan/105","WebKit","Chrome","92.0.4515.131","Windows","10.0","5591","","{""Marriage"":[""未婚""],""Religion"":[""无宗教信仰""]}","[0,1]"
"","","","","","survey-multi-choice","137","408600","0.0-10.0","20","1","2022-10-07 05:56:47","d60b49b5908c80e163b920d72b52d584","219.154.208.162","Mozilla/5.0 (Windows NT 10.0; WOW64) AppleWebKit/537.36 (KHTML, like Gecko) Chrome/92.0.4515.131 Safari/537.36 SLBrowser/8.0.0.7271 SLBChan/105","WebKit","Chrome","92.0.4515.131","Windows","10.0","12322","","{""SES"":""7""}","[0]"
"","","","","","html-button-response","138","428847","0.0-11.0","20","1","2022-10-07 05:56:47","d60b49b5908c80e163b920d72b52d584","219.154.208.162","Mozilla/5.0 (Windows NT 10.0; WOW64) AppleWebKit/537.36 (KHTML, like Gecko) Chrome/92.0.4515.131 Safari/537.36 SLBrowser/8.0.0.7271 SLBChan/105","WebKit","Chrome","92.0.4515.131","Windows","10.0","20241","<p><strong>请判断下列陈述在多大程度上可以形容你？</p><p> (1 = ""和我一点都不像"" to 5 = ""非常像我"".)</strong></p>","0",""
"","","","","","survey-likert","139","471377","0.0-12.0","20","1","2022-10-07 05:56:47","d60b49b5908c80e163b920d72b52d584","219.154.208.162","Mozilla/5.0 (Windows NT 10.0; WOW64) AppleWebKit/537.36 (KHTML, like Gecko) Chrome/92.0.4515.131 Safari/537.36 SLBrowser/8.0.0.7271 SLBChan/105","WebKit","Chrome","92.0.4515.131","Windows","10.0","42525","","{""Aggression1"":1,""Aggression2"":1,""Aggression3"":2,""Aggression4"":1,""Aggression5"":3,""Aggression6"":3,""Aggression7"":4,""Aggression8"":0,""Aggression9"":4}","[0,1,2,3,4,5,6,7,8]"
"","","","","","html-button-response","140","474431","0.0-13.0","20","1","2022-10-07 05:56:47","d60b49b5908c80e163b920d72b52d584","219.154.208.162","Mozilla/5.0 (Windows NT 10.0; WOW64) AppleWebKit/537.36 (KHTML, like Gecko) Chrome/92.0.4515.131 Safari/537.36 SLBrowser/8.0.0.7271 SLBChan/105","WebKit","Chrome","92.0.4515.131","Windows","10.0","3048","<p><strong>请判断你在多大程度上同意下列陈述。</strong></p>","0",""
"","","","","","survey-likert","141","555018","0.0-14.0","20","1","2022-10-07 05:56:47","d60b49b5908c80e163b920d72b52d584","219.154.208.162","Mozilla/5.0 (Windows NT 10.0; WOW64) AppleWebKit/537.36 (KHTML, like Gecko) Chrome/92.0.4515.131 Safari/537.36 SLBrowser/8.0.0.7271 SLBChan/105","WebKit","Chrome","92.0.4515.131","Windows","10.0","80580","","{""scale16"":1,""scale13"":1,""scale18"":3,""scale3"":1,""scale19"":2,""scale14"":1,""scale26"":3,""scale8"":3,""scale20"":4,""scale10"":4,""scale9"":3,""scale22"":4,""scale27"":2,""scale4"":1,""scale24"":2,""scale25"":3,""scale15"":3,""scale6"":3,""scale17"":4,""scale12"":1,""scale21"":3,""scale28"":3,""scale11"":3,""scale2"":4,""scale5"":3,""scale7"":3,""scale23"":1,""scale1"":1}","[15,12,17,2,18,13,25,7,19,9,8,21,26,3,23,24,14,5,16,11,20,27,10,1,4,6,22,0]"
"","","","","","html-button-response","142","555951","0.0-15.0","20","1","2022-10-07 05:56:47","d60b49b5908c80e163b920d72b52d584","219.154.208.162","Mozilla/5.0 (Windows NT 10.0; WOW64) AppleWebKit/537.36 (KHTML, like Gecko) Chrome/92.0.4515.131 Safari/537.36 SLBrowser/8.0.0.7271 SLBChan/105","WebKit","Chrome","92.0.4515.131","Windows","10.0","927","<p><strong>请判断你在多大程度上同意下列陈述。</strong></p>","0",""
"","","","","","survey-likert","143","629194","0.0-16.0","20","1","2022-10-07 05:56:47","d60b49b5908c80e163b920d72b52d584","219.154.208.162","Mozilla/5.0 (Windows NT 10.0; WOW64) AppleWebKit/537.36 (KHTML, like Gecko) Chrome/92.0.4515.131 Safari/537.36 SLBrowser/8.0.0.7271 SLBChan/105","WebKit","Chrome","92.0.4515.131","Windows","10.0","73237","","{""sdo14"":6,""sdo3"":3,""sdo11"":5,""sdo2"":2,""sdo6"":4,""sdo1"":5,""sdo10"":5,""sdo5"":6,""sdo7"":3,""sdo9"":2,""sdo8"":4,""sdo12"":4,""sdo13"":4,""sdo15"":5,""sdo4"":0,""sdo16"":6}","[13,2,10,1,5,0,9,4,6,8,7,11,12,14,3,15]"
"","","","","","html-button-response","144","630207","0.0-17.0","20","1","2022-10-07 05:56:47","d60b49b5908c80e163b920d72b52d584","219.154.208.162","Mozilla/5.0 (Windows NT 10.0; WOW64) AppleWebKit/537.36 (KHTML, like Gecko) Chrome/92.0.4515.131 Safari/537.36 SLBrowser/8.0.0.7271 SLBChan/105","WebKit","Chrome","92.0.4515.131","Windows","10.0","1007","<p><strong>请判断你在多大程度上同意下列陈述。</strong></p>","0",""
"","","","","","survey-likert","145","664289","0.0-18.0","20","1","2022-10-07 05:56:47","d60b49b5908c80e163b920d72b52d584","219.154.208.162","Mozilla/5.0 (Windows NT 10.0; WOW64) AppleWebKit/537.36 (KHTML, like Gecko) Chrome/92.0.4515.131 Safari/537.36 SLBrowser/8.0.0.7271 SLBChan/105","WebKit","Chrome","92.0.4515.131","Windows","10.0","34077","","{""caring1"":3,""liking1"":0,""caring2"":3,""protection1"":3,""liking2"":0,""caring3"":4,""protection2"":2,""liking3"":3,""protection3"":3,""caring4"":4,""liking4"":0,""protection4"":1,""caring5"":3,""liking5"":0,""protection5"":1}","[0,1,2,3,4,5,6,7,8,9,10,11,12,13,14]"
"","","","","","html-button-response","146","665391","0.0-19.0","20","1","2022-10-07 05:56:47","d60b49b5908c80e163b920d72b52d584","219.154.208.162","Mozilla/5.0 (Windows NT 10.0; WOW64) AppleWebKit/537.36 (KHTML, like Gecko) Chrome/92.0.4515.131 Safari/537.36 SLBrowser/8.0.0.7271 SLBChan/105","WebKit","Chrome","92.0.4515.131","Windows","10.0","1095","<p><strong>请判断下列场景中你的内心感受有多柔软。</strong></p>","0",""
"","","","","","survey-likert","147","692575","0.0-20.0","20","1","2022-10-07 05:56:47","d60b49b5908c80e163b920d72b52d584","219.154.208.162","Mozilla/5.0 (Windows NT 10.0; WOW64) AppleWebKit/537.36 (KHTML, like Gecko) Chrome/92.0.4515.131 Safari/537.36 SLBrowser/8.0.0.7271 SLBChan/105","WebKit","Chrome","92.0.4515.131","Windows","10.0","27180","","{""tenderness-positive1"":3,""tenderness-negative1"":1,""tenderness-negative2"":1,""tenderness-positive2"":3,""tenderness-positive3"":3,""tenderness-negative3"":1,""tenderness-positive4"":4,""tendereness-negative4"":3,""tendernness-negative5"":3,""tenderness-positive5"":3}","[0,1,2,3,4,5,6,7,8,9]"
"","","","","","survey-multi-choice","148","705879","0.0-21.0","20","1","2022-10-07 05:56:47","d60b49b5908c80e163b920d72b52d584","219.154.208.162","Mozilla/5.0 (Windows NT 10.0; WOW64) AppleWebKit/537.36 (KHTML, like Gecko) Chrome/92.0.4515.131 Safari/537.36 SLBrowser/8.0.0.7271 SLBChan/105","WebKit","Chrome","92.0.4515.131","Windows","10.0","13297","","{""Attention2"":""其他""}","[0]"
"","","","","","html-button-response","149","706774","0.0-22.0","20","1","2022-10-07 05:56:47","d60b49b5908c80e163b920d72b52d584","219.154.208.162","Mozilla/5.0 (Windows NT 10.0; WOW64) AppleWebKit/537.36 (KHTML, like Gecko) Chrome/92.0.4515.131 Safari/537.36 SLBrowser/8.0.0.7271 SLBChan/105","WebKit","Chrome","92.0.4515.131","Windows","10.0","889","<p><strong>请判断你在多大程度上同意下列陈述。</strong></p>","0",""
"","","","","","survey-likert","150","767977","0.0-23.0","20","1","2022-10-07 05:56:47","d60b49b5908c80e163b920d72b52d584","219.154.208.162","Mozilla/5.0 (Windows NT 10.0; WOW64) AppleWebKit/537.36 (KHTML, like Gecko) Chrome/92.0.4515.131 Safari/537.36 SLBrowser/8.0.0.7271 SLBChan/105","WebKit","Chrome","92.0.4515.131","Windows","10.0","61198","","{""Patri9"":1,""Nation2"":4,""Patri7"":3,""Patri8"":4,""Patri11"":0,""Patri10"":0,""Patri1"":4,""Nation3"":1,""Patri4"":3,""Nation6"":4,""Nation1"":3,""Nation8"":1,""Patri3"":3,""Nation7"":3,""Patri12"":0,""Nation4"":3,""Patri2"":3,""Patri6"":1,""Patri5"":4,""Nation5"":3}","[8,13,6,7,10,9,0,14,3,17,12,19,2,18,11,15,1,5,4,16]"
"","","","","","html-button-response","151","768951","0.0-24.0","20","1","2022-10-07 05:56:47","d60b49b5908c80e163b920d72b52d584","219.154.208.162","Mozilla/5.0 (Windows NT 10.0; WOW64) AppleWebKit/537.36 (KHTML, like Gecko) Chrome/92.0.4515.131 Safari/537.36 SLBrowser/8.0.0.7271 SLBChan/105","WebKit","Chrome","92.0.4515.131","Windows","10.0","968","<p><strong>请判断你在多大程度上同意下列陈述。</strong></p>","0",""
"","","","","","survey-likert","152","810842","0.0-25.0","20","1","2022-10-07 05:56:47","d60b49b5908c80e163b920d72b52d584","219.154.208.162","Mozilla/5.0 (Windows NT 10.0; WOW64) AppleWebKit/537.36 (KHTML, like Gecko) Chrome/92.0.4515.131 Safari/537.36 SLBrowser/8.0.0.7271 SLBChan/105","WebKit","Chrome","92.0.4515.131","Windows","10.0","41885","","{""Robot"":6,""vi2"":5,""vc2"":8,""hi2"":5,""hc3"":7,""hc2"":7,""hi4"":6,""hc1"":6,""vc1"":8,""vc4"":6,""vi4"":5,""vi3"":7,""vi1"":5,""hi3"":2,""hi1"":3,""hc4"":7,""vc3"":6}","[7,5,14,1,11,10,3,9,13,16,8,6,4,2,0,12,15]"
"","","","","","survey-text","153","814326","0.0-26.0","20","1","2022-10-07 05:56:47","d60b49b5908c80e163b920d72b52d584","219.154.208.162","Mozilla/5.0 (Windows NT 10.0; WOW64) AppleWebKit/537.36 (KHTML, like Gecko) Chrome/92.0.4515.131 Safari/537.36 SLBrowser/8.0.0.7271 SLBChan/105","WebKit","Chrome","92.0.4515.131","Windows","10.0","3470","","{""Comments"":""无""}",""
"","","","","","html-button-response","154","816911","0.0-27.0","20","1","2022-10-07 05:56:47","d60b49b5908c80e163b920d72b52d584","219.154.208.162","Mozilla/5.0 (Windows NT 10.0; WOW64) AppleWebKit/537.36 (KHTML, like Gecko) Chrome/92.0.4515.131 Safari/537.36 SLBrowser/8.0.0.7271 SLBChan/105","WebKit","Chrome","92.0.4515.131","Windows","10.0","2582","<strong><p>恭喜你完成了实验！</p><p>感谢您的参与。</p></strong>","0",""
