"success","timeout","failed_images","failed_audio","failed_video","trial_type","trial_index","time_elapsed","internal_node_id","run_id","condition","recorded_at","source_code_version","ip","user_agent","device","browser","browser_version","platform","platform_version","rt","stimulus","response","question_order"
"true","false","[]","[]","[]","preload","0","2476","0.0-0.0","205","1","2022-10-11 05:52:02","d60b49b5908c80e163b920d72b52d584","202.204.188.29","Mozilla/5.0 (Linux; Android 10; HarmonyOS; ANA-AN00; HMSCore 6.7.0.322) AppleWebKit/537.36 (KHTML, like Gecko) Chrome/88.0.4324.93 HuaweiBrowser/11.1.2.332 Mobile Safari/537.36","WebKit","Chrome","88.0.4324.93","AndroidOS","10","","","",""
"true","","","","","fullscreen","1","5916","0.0-1.0","205","1","2022-10-11 05:52:02","d60b49b5908c80e163b920d72b52d584","202.204.188.29","Mozilla/5.0 (Linux; Android 10; HarmonyOS; ANA-AN00; HMSCore 6.7.0.322) AppleWebKit/537.36 (KHTML, like Gecko) Chrome/88.0.4324.93 HuaweiBrowser/11.1.2.332 Mobile Safari/537.36","WebKit","Chrome","88.0.4324.93","AndroidOS","10","","","",""
"","","","","","html-button-response","2","30049","0.0-2.0","205","1","2022-10-11 05:52:02","d60b49b5908c80e163b920d72b52d584","202.204.188.29","Mozilla/5.0 (Linux; Android 10; HarmonyOS; ANA-AN00; HMSCore 6.7.0.322) AppleWebKit/537.36 (KHTML, like Gecko) Chrome/88.0.4324.93 HuaweiBrowser/11.1.2.332 Mobile Safari/537.36","WebKit","Chrome","88.0.4324.93","AndroidOS","10","24128","<p style=""font-size:20px;font-weight:bold;"">实验知情同意书</p><p style=""text-align:left;""><strong>实验名称：</strong>社会冲突研究</p><p style=""text-align:left;""><strong>主要研究者：</strong>韩晓春副教授（北京师范大学心理学部）</p><p style=""text-align:left;""><strong>联系方式：</strong>发送邮件至xiaochun.han@bnu.edu.cn</p><p style=""text-align:left;""><strong>研究目的：</strong>研究旨在了解人类面对群体冲突时的决策方式，以及相关的心理学特质。实验调查大约需要20分钟。</p><p style=""text-align:left;""><strong>实验流程：</strong>实验包含两部分。第一部分呈现一系列群体冲突场景，请你决定如何对这些冲突进行反应，大约需要10分钟完成。第二部分包含一系列人口统计学信息收集和心理学问卷，大约需要10分钟完成。</p><p style=""text-align:left;""><strong>参加及退出规则：</strong>参加本实验完全取决于您的个人意愿。在参与过程中，您可以随时退出，并且不用承担任何后果。</p><p style=""text-align:left;""><strong>隐私：</strong>本实验完全匿名进行，不会收集您的姓名或其他能够识别您身份的信息。实验中收集的作答仅用作科学研究使用，可能会在学术期刊/书籍上发表，或者用于教学，您的数据未来可能会和其他研究者或实验室分享，但您的个人身份不会被识别。</p><p style=""text-align:left;""><strong>实验报酬：</strong>实验完成后，您将获得15元人民币报酬，以感谢您的时间和努力。调查问卷中包含几道题目用以测验您作答时的认真度。只有完成全部实验，并且正确回答认真度测验的被试才能获得实验报酬。实验报酬将通过支付宝转账发放。</p><p style=""text-align:left;font-size:20px;""><strong>如果您同意以上实验知情同意书的内容，请点击'同意并且开始实验'按钮；否则请关闭浏览器界面，退出实验。</strong></p>","0",""
"","","","","","html-button-response","3","55960","0.0-3.0","205","1","2022-10-11 05:52:02","d60b49b5908c80e163b920d72b52d584","202.204.188.29","Mozilla/5.0 (Linux; Android 10; HarmonyOS; ANA-AN00; HMSCore 6.7.0.322) AppleWebKit/537.36 (KHTML, like Gecko) Chrome/88.0.4324.93 HuaweiBrowser/11.1.2.332 Mobile Safari/537.36","WebKit","Chrome","88.0.4324.93","AndroidOS","10","25906","<p ><strong>实验任务一：</strong></p><p>请想象你的国家与另一个国家发生了军事冲突。</p><p>你是国家军队的指挥官，你将如何在冲突中进行决策。</p><p>具体来说，作为军队指挥官，请你决定是否发射导弹进行打击。</p><p>接下来，你会面对一系列场景，请仔细阅读每个场景，然后进行决策。</p><p>这部分实验任务大约需要10分钟。</p><p><strong>实验过程中，请集中注意力。</strong></p>","0",""
"","","","","","html-keyboard-response","4","56965","0.0-4.0-0.0","205","1","2022-10-11 05:52:02","d60b49b5908c80e163b920d72b52d584","202.204.188.29","Mozilla/5.0 (Linux; Android 10; HarmonyOS; ANA-AN00; HMSCore 6.7.0.322) AppleWebKit/537.36 (KHTML, like Gecko) Chrome/88.0.4324.93 HuaweiBrowser/11.1.2.332 Mobile Safari/537.36","WebKit","Chrome","88.0.4324.93","AndroidOS","10","null","<div style=""font-size:60px;"">+</div>","null",""
"","","","","","html-button-response","5","60896","0.0-4.0-1.0","205","1","2022-10-11 05:52:02","d60b49b5908c80e163b920d72b52d584","202.204.188.29","Mozilla/5.0 (Linux; Android 10; HarmonyOS; ANA-AN00; HMSCore 6.7.0.322) AppleWebKit/537.36 (KHTML, like Gecko) Chrome/88.0.4324.93 HuaweiBrowser/11.1.2.332 Mobile Safari/537.36","WebKit","Chrome","88.0.4324.93","AndroidOS","10","3923","<p>作为军队的指挥官，你可以选择发射导弹杀死 <strong>10名</strong> 敌国士兵，但会炸毁附近的 <strong>1棵</strong> 敌国树木。</p> <p>树木的照片如下图所示。</p> <p></p> <img src='stimuli/trees/3.png', style='max-width: 30%;'> </img> <p><strong>你是否选择发射武器？</strong></p>","0",""
"","","","","","html-keyboard-response","6","61898","0.0-4.0-0.1","205","1","2022-10-11 05:52:02","d60b49b5908c80e163b920d72b52d584","202.204.188.29","Mozilla/5.0 (Linux; Android 10; HarmonyOS; ANA-AN00; HMSCore 6.7.0.322) AppleWebKit/537.36 (KHTML, like Gecko) Chrome/88.0.4324.93 HuaweiBrowser/11.1.2.332 Mobile Safari/537.36","WebKit","Chrome","88.0.4324.93","AndroidOS","10","null","<div style=""font-size:60px;"">+</div>","null",""
"","","","","","html-button-response","7","65860","0.0-4.0-1.1","205","1","2022-10-11 05:52:02","d60b49b5908c80e163b920d72b52d584","202.204.188.29","Mozilla/5.0 (Linux; Android 10; HarmonyOS; ANA-AN00; HMSCore 6.7.0.322) AppleWebKit/537.36 (KHTML, like Gecko) Chrome/88.0.4324.93 HuaweiBrowser/11.1.2.332 Mobile Safari/537.36","WebKit","Chrome","88.0.4324.93","AndroidOS","10","3957","<p>作为军队的指挥官，你可以选择发射导弹杀死 <strong>5名</strong> 敌国士兵，但会误杀附近的 <strong>1名</strong> 敌国平民。</p> <p>平民照片如下图所示。</p> <p></p> <img src='stimuli/faces/NCF5.jpg', style='max-width: 30%;'> </img> <p><strong>你是否选择发射武器？</strong></p>","0",""
"","","","","","html-keyboard-response","8","66862","0.0-4.0-0.2","205","1","2022-10-11 05:52:02","d60b49b5908c80e163b920d72b52d584","202.204.188.29","Mozilla/5.0 (Linux; Android 10; HarmonyOS; ANA-AN00; HMSCore 6.7.0.322) AppleWebKit/537.36 (KHTML, like Gecko) Chrome/88.0.4324.93 HuaweiBrowser/11.1.2.332 Mobile Safari/537.36","WebKit","Chrome","88.0.4324.93","AndroidOS","10","null","<div style=""font-size:60px;"">+</div>","null",""
"","","","","","html-button-response","9","70139","0.0-4.0-1.2","205","1","2022-10-11 05:52:02","d60b49b5908c80e163b920d72b52d584","202.204.188.29","Mozilla/5.0 (Linux; Android 10; HarmonyOS; ANA-AN00; HMSCore 6.7.0.322) AppleWebKit/537.36 (KHTML, like Gecko) Chrome/88.0.4324.93 HuaweiBrowser/11.1.2.332 Mobile Safari/537.36","WebKit","Chrome","88.0.4324.93","AndroidOS","10","3271","<p>作为军队的指挥官，你可以选择发射导弹杀死 <strong>6名</strong> 敌国士兵，但会炸毁附近的 <strong>1棵</strong> 敌国树木。</p> <p>树木的照片如下图所示。</p> <p></p> <img src='stimuli/trees/7.png', style='max-width: 30%;'> </img> <p><strong>你是否选择发射武器？</strong></p>","0",""
"","","","","","html-keyboard-response","10","71142","0.0-4.0-0.3","205","1","2022-10-11 05:52:02","d60b49b5908c80e163b920d72b52d584","202.204.188.29","Mozilla/5.0 (Linux; Android 10; HarmonyOS; ANA-AN00; HMSCore 6.7.0.322) AppleWebKit/537.36 (KHTML, like Gecko) Chrome/88.0.4324.93 HuaweiBrowser/11.1.2.332 Mobile Safari/537.36","WebKit","Chrome","88.0.4324.93","AndroidOS","10","null","<div style=""font-size:60px;"">+</div>","null",""
"","","","","","html-button-response","11","74373","0.0-4.0-1.3","205","1","2022-10-11 05:52:02","d60b49b5908c80e163b920d72b52d584","202.204.188.29","Mozilla/5.0 (Linux; Android 10; HarmonyOS; ANA-AN00; HMSCore 6.7.0.322) AppleWebKit/537.36 (KHTML, like Gecko) Chrome/88.0.4324.93 HuaweiBrowser/11.1.2.332 Mobile Safari/537.36","WebKit","Chrome","88.0.4324.93","AndroidOS","10","3226","<p>作为军队的指挥官，你可以选择发射导弹杀死 <strong>8名</strong> 敌国士兵，但会炸毁附近的 <strong>1棵</strong> 敌国树木。</p> <p>树木的照片如下图所示。</p> <p></p> <img src='stimuli/trees/15.png', style='max-width: 30%;'> </img> <p><strong>你是否选择发射武器？</strong></p>","0",""
"","","","","","html-keyboard-response","12","75376","0.0-4.0-0.4","205","1","2022-10-11 05:52:02","d60b49b5908c80e163b920d72b52d584","202.204.188.29","Mozilla/5.0 (Linux; Android 10; HarmonyOS; ANA-AN00; HMSCore 6.7.0.322) AppleWebKit/537.36 (KHTML, like Gecko) Chrome/88.0.4324.93 HuaweiBrowser/11.1.2.332 Mobile Safari/537.36","WebKit","Chrome","88.0.4324.93","AndroidOS","10","null","<div style=""font-size:60px;"">+</div>","null",""
"","","","","","html-button-response","13","76917","0.0-4.0-1.4","205","1","2022-10-11 05:52:02","d60b49b5908c80e163b920d72b52d584","202.204.188.29","Mozilla/5.0 (Linux; Android 10; HarmonyOS; ANA-AN00; HMSCore 6.7.0.322) AppleWebKit/537.36 (KHTML, like Gecko) Chrome/88.0.4324.93 HuaweiBrowser/11.1.2.332 Mobile Safari/537.36","WebKit","Chrome","88.0.4324.93","AndroidOS","10","1536","<p>作为军队的指挥官，你可以选择发射导弹杀死 <strong>8名</strong> 敌国士兵，但会误杀附近的 <strong>1名</strong> 敌国平民。</p> <p>平民照片如下图所示。</p> <p></p> <img src='stimuli/faces/NCM3.jpg', style='max-width: 30%;'> </img> <p><strong>你是否选择发射武器？</strong></p>","0",""
"","","","","","html-keyboard-response","14","77920","0.0-4.0-0.5","205","1","2022-10-11 05:52:02","d60b49b5908c80e163b920d72b52d584","202.204.188.29","Mozilla/5.0 (Linux; Android 10; HarmonyOS; ANA-AN00; HMSCore 6.7.0.322) AppleWebKit/537.36 (KHTML, like Gecko) Chrome/88.0.4324.93 HuaweiBrowser/11.1.2.332 Mobile Safari/537.36","WebKit","Chrome","88.0.4324.93","AndroidOS","10","null","<div style=""font-size:60px;"">+</div>","null",""
"","","","","","html-button-response","15","79308","0.0-4.0-1.5","205","1","2022-10-11 05:52:02","d60b49b5908c80e163b920d72b52d584","202.204.188.29","Mozilla/5.0 (Linux; Android 10; HarmonyOS; ANA-AN00; HMSCore 6.7.0.322) AppleWebKit/537.36 (KHTML, like Gecko) Chrome/88.0.4324.93 HuaweiBrowser/11.1.2.332 Mobile Safari/537.36","WebKit","Chrome","88.0.4324.93","AndroidOS","10","1383","<p>作为军队的指挥官，你可以选择发射导弹杀死 <strong>9名</strong> 敌国士兵，但会误杀附近的 <strong>1名</strong> 敌国平民。</p> <p>平民照片如下图所示。</p> <p></p> <img src='stimuli/faces/NCM4.jpg', style='max-width: 30%;'> </img> <p><strong>你是否选择发射武器？</strong></p>","0",""
"","","","","","html-keyboard-response","16","80312","0.0-4.0-0.6","205","1","2022-10-11 05:52:02","d60b49b5908c80e163b920d72b52d584","202.204.188.29","Mozilla/5.0 (Linux; Android 10; HarmonyOS; ANA-AN00; HMSCore 6.7.0.322) AppleWebKit/537.36 (KHTML, like Gecko) Chrome/88.0.4324.93 HuaweiBrowser/11.1.2.332 Mobile Safari/537.36","WebKit","Chrome","88.0.4324.93","AndroidOS","10","null","<div style=""font-size:60px;"">+</div>","null",""
"","","","","","html-button-response","17","82009","0.0-4.0-1.6","205","1","2022-10-11 05:52:02","d60b49b5908c80e163b920d72b52d584","202.204.188.29","Mozilla/5.0 (Linux; Android 10; HarmonyOS; ANA-AN00; HMSCore 6.7.0.322) AppleWebKit/537.36 (KHTML, like Gecko) Chrome/88.0.4324.93 HuaweiBrowser/11.1.2.332 Mobile Safari/537.36","WebKit","Chrome","88.0.4324.93","AndroidOS","10","1687","<p>作为军队的指挥官，你可以选择发射导弹杀死 <strong>10名</strong> 敌国士兵，但会炸毁附近的 <strong>1棵</strong> 敌国树木。</p> <p>树木的照片如下图所示。</p> <p></p> <img src='stimuli/trees/8.png', style='max-width: 30%;'> </img> <p><strong>你是否选择发射武器？</strong></p>","0",""
"","","","","","html-keyboard-response","18","83012","0.0-4.0-0.7","205","1","2022-10-11 05:52:02","d60b49b5908c80e163b920d72b52d584","202.204.188.29","Mozilla/5.0 (Linux; Android 10; HarmonyOS; ANA-AN00; HMSCore 6.7.0.322) AppleWebKit/537.36 (KHTML, like Gecko) Chrome/88.0.4324.93 HuaweiBrowser/11.1.2.332 Mobile Safari/537.36","WebKit","Chrome","88.0.4324.93","AndroidOS","10","null","<div style=""font-size:60px;"">+</div>","null",""
"","","","","","html-button-response","19","84055","0.0-4.0-1.7","205","1","2022-10-11 05:52:02","d60b49b5908c80e163b920d72b52d584","202.204.188.29","Mozilla/5.0 (Linux; Android 10; HarmonyOS; ANA-AN00; HMSCore 6.7.0.322) AppleWebKit/537.36 (KHTML, like Gecko) Chrome/88.0.4324.93 HuaweiBrowser/11.1.2.332 Mobile Safari/537.36","WebKit","Chrome","88.0.4324.93","AndroidOS","10","1038","<p>作为军队的指挥官，你可以选择发射导弹杀死 <strong>10名</strong> 敌国士兵，但会误杀附近的 <strong>1名</strong> 敌国平民。</p> <p>平民照片如下图所示。</p> <p></p> <img src='stimuli/faces/NCF2.jpg', style='max-width: 30%;'> </img> <p><strong>你是否选择发射武器？</strong></p>","0",""
"","","","","","html-keyboard-response","20","85058","0.0-4.0-0.8","205","1","2022-10-11 05:52:02","d60b49b5908c80e163b920d72b52d584","202.204.188.29","Mozilla/5.0 (Linux; Android 10; HarmonyOS; ANA-AN00; HMSCore 6.7.0.322) AppleWebKit/537.36 (KHTML, like Gecko) Chrome/88.0.4324.93 HuaweiBrowser/11.1.2.332 Mobile Safari/537.36","WebKit","Chrome","88.0.4324.93","AndroidOS","10","null","<div style=""font-size:60px;"">+</div>","null",""
"","","","","","html-button-response","21","88200","0.0-4.0-1.8","205","1","2022-10-11 05:52:02","d60b49b5908c80e163b920d72b52d584","202.204.188.29","Mozilla/5.0 (Linux; Android 10; HarmonyOS; ANA-AN00; HMSCore 6.7.0.322) AppleWebKit/537.36 (KHTML, like Gecko) Chrome/88.0.4324.93 HuaweiBrowser/11.1.2.332 Mobile Safari/537.36","WebKit","Chrome","88.0.4324.93","AndroidOS","10","3138","<p>作为军队的指挥官，你可以选择发射导弹杀死 <strong>3名</strong> 敌国士兵，但会误杀附近的 <strong>1名</strong> 敌国平民。</p> <p>平民照片如下图所示。</p> <p></p> <img src='stimuli/faces/NCM5.jpg', style='max-width: 30%;'> </img> <p><strong>你是否选择发射武器？</strong></p>","1",""
"","","","","","html-keyboard-response","22","89203","0.0-4.0-0.9","205","1","2022-10-11 05:52:02","d60b49b5908c80e163b920d72b52d584","202.204.188.29","Mozilla/5.0 (Linux; Android 10; HarmonyOS; ANA-AN00; HMSCore 6.7.0.322) AppleWebKit/537.36 (KHTML, like Gecko) Chrome/88.0.4324.93 HuaweiBrowser/11.1.2.332 Mobile Safari/537.36","WebKit","Chrome","88.0.4324.93","AndroidOS","10","null","<div style=""font-size:60px;"">+</div>","null",""
"","","","","","html-button-response","23","93839","0.0-4.0-1.9","205","1","2022-10-11 05:52:02","d60b49b5908c80e163b920d72b52d584","202.204.188.29","Mozilla/5.0 (Linux; Android 10; HarmonyOS; ANA-AN00; HMSCore 6.7.0.322) AppleWebKit/537.36 (KHTML, like Gecko) Chrome/88.0.4324.93 HuaweiBrowser/11.1.2.332 Mobile Safari/537.36","WebKit","Chrome","88.0.4324.93","AndroidOS","10","4631","<p>作为军队的指挥官，你可以选择发射导弹杀死 <strong>1名</strong> 敌国士兵，但会炸毁附近的 <strong>1棵</strong> 敌国树木。</p> <p>树木的照片如下图所示。</p> <p></p> <img src='stimuli/trees/7.png', style='max-width: 30%;'> </img> <p><strong>你是否选择发射武器？</strong></p>","1",""
"","","","","","html-keyboard-response","24","94843","0.0-4.0-0.10","205","1","2022-10-11 05:52:02","d60b49b5908c80e163b920d72b52d584","202.204.188.29","Mozilla/5.0 (Linux; Android 10; HarmonyOS; ANA-AN00; HMSCore 6.7.0.322) AppleWebKit/537.36 (KHTML, like Gecko) Chrome/88.0.4324.93 HuaweiBrowser/11.1.2.332 Mobile Safari/537.36","WebKit","Chrome","88.0.4324.93","AndroidOS","10","null","<div style=""font-size:60px;"">+</div>","null",""
"","","","","","html-button-response","25","98495","0.0-4.0-1.10","205","1","2022-10-11 05:52:02","d60b49b5908c80e163b920d72b52d584","202.204.188.29","Mozilla/5.0 (Linux; Android 10; HarmonyOS; ANA-AN00; HMSCore 6.7.0.322) AppleWebKit/537.36 (KHTML, like Gecko) Chrome/88.0.4324.93 HuaweiBrowser/11.1.2.332 Mobile Safari/537.36","WebKit","Chrome","88.0.4324.93","AndroidOS","10","3648","<p>作为军队的指挥官，你可以选择发射导弹杀死 <strong>8名</strong> 敌国士兵，但会误杀附近的 <strong>1名</strong> 敌国平民。</p> <p>平民照片如下图所示。</p> <p></p> <img src='stimuli/faces/NCM6.jpg', style='max-width: 30%;'> </img> <p><strong>你是否选择发射武器？</strong></p>","0",""
"","","","","","html-keyboard-response","26","99499","0.0-4.0-0.11","205","1","2022-10-11 05:52:02","d60b49b5908c80e163b920d72b52d584","202.204.188.29","Mozilla/5.0 (Linux; Android 10; HarmonyOS; ANA-AN00; HMSCore 6.7.0.322) AppleWebKit/537.36 (KHTML, like Gecko) Chrome/88.0.4324.93 HuaweiBrowser/11.1.2.332 Mobile Safari/537.36","WebKit","Chrome","88.0.4324.93","AndroidOS","10","null","<div style=""font-size:60px;"">+</div>","null",""
"","","","","","html-button-response","27","101988","0.0-4.0-1.11","205","1","2022-10-11 05:52:02","d60b49b5908c80e163b920d72b52d584","202.204.188.29","Mozilla/5.0 (Linux; Android 10; HarmonyOS; ANA-AN00; HMSCore 6.7.0.322) AppleWebKit/537.36 (KHTML, like Gecko) Chrome/88.0.4324.93 HuaweiBrowser/11.1.2.332 Mobile Safari/537.36","WebKit","Chrome","88.0.4324.93","AndroidOS","10","2484","<p>作为军队的指挥官，你可以选择发射导弹杀死 <strong>5名</strong> 敌国士兵，但会误杀附近的 <strong>1名</strong> 敌国平民。</p> <p>平民照片如下图所示。</p> <p></p> <img src='stimuli/faces/NCM1.jpg', style='max-width: 30%;'> </img> <p><strong>你是否选择发射武器？</strong></p>","0",""
"","","","","","html-keyboard-response","28","102991","0.0-4.0-0.12","205","1","2022-10-11 05:52:02","d60b49b5908c80e163b920d72b52d584","202.204.188.29","Mozilla/5.0 (Linux; Android 10; HarmonyOS; ANA-AN00; HMSCore 6.7.0.322) AppleWebKit/537.36 (KHTML, like Gecko) Chrome/88.0.4324.93 HuaweiBrowser/11.1.2.332 Mobile Safari/537.36","WebKit","Chrome","88.0.4324.93","AndroidOS","10","null","<div style=""font-size:60px;"">+</div>","null",""
"","","","","","html-button-response","29","104968","0.0-4.0-1.12","205","1","2022-10-11 05:52:02","d60b49b5908c80e163b920d72b52d584","202.204.188.29","Mozilla/5.0 (Linux; Android 10; HarmonyOS; ANA-AN00; HMSCore 6.7.0.322) AppleWebKit/537.36 (KHTML, like Gecko) Chrome/88.0.4324.93 HuaweiBrowser/11.1.2.332 Mobile Safari/537.36","WebKit","Chrome","88.0.4324.93","AndroidOS","10","1972","<p>作为军队的指挥官，你可以选择发射导弹杀死 <strong>9名</strong> 敌国士兵，但会炸毁附近的 <strong>1棵</strong> 敌国树木。</p> <p>树木的照片如下图所示。</p> <p></p> <img src='stimuli/trees/5.png', style='max-width: 30%;'> </img> <p><strong>你是否选择发射武器？</strong></p>","0",""
"","","","","","html-keyboard-response","30","105971","0.0-4.0-0.13","205","1","2022-10-11 05:52:02","d60b49b5908c80e163b920d72b52d584","202.204.188.29","Mozilla/5.0 (Linux; Android 10; HarmonyOS; ANA-AN00; HMSCore 6.7.0.322) AppleWebKit/537.36 (KHTML, like Gecko) Chrome/88.0.4324.93 HuaweiBrowser/11.1.2.332 Mobile Safari/537.36","WebKit","Chrome","88.0.4324.93","AndroidOS","10","null","<div style=""font-size:60px;"">+</div>","null",""
"","","","","","html-button-response","31","107891","0.0-4.0-1.13","205","1","2022-10-11 05:52:02","d60b49b5908c80e163b920d72b52d584","202.204.188.29","Mozilla/5.0 (Linux; Android 10; HarmonyOS; ANA-AN00; HMSCore 6.7.0.322) AppleWebKit/537.36 (KHTML, like Gecko) Chrome/88.0.4324.93 HuaweiBrowser/11.1.2.332 Mobile Safari/537.36","WebKit","Chrome","88.0.4324.93","AndroidOS","10","1914","<p>作为军队的指挥官，你可以选择发射导弹杀死 <strong>5名</strong> 敌国士兵，但会误杀附近的 <strong>1名</strong> 敌国平民。</p> <p>平民照片如下图所示。</p> <p></p> <img src='stimuli/faces/NCF8.jpg', style='max-width: 30%;'> </img> <p><strong>你是否选择发射武器？</strong></p>","0",""
"","","","","","html-keyboard-response","32","108896","0.0-4.0-0.14","205","1","2022-10-11 05:52:02","d60b49b5908c80e163b920d72b52d584","202.204.188.29","Mozilla/5.0 (Linux; Android 10; HarmonyOS; ANA-AN00; HMSCore 6.7.0.322) AppleWebKit/537.36 (KHTML, like Gecko) Chrome/88.0.4324.93 HuaweiBrowser/11.1.2.332 Mobile Safari/537.36","WebKit","Chrome","88.0.4324.93","AndroidOS","10","null","<div style=""font-size:60px;"">+</div>","null",""
"","","","","","html-button-response","33","110815","0.0-4.0-1.14","205","1","2022-10-11 05:52:02","d60b49b5908c80e163b920d72b52d584","202.204.188.29","Mozilla/5.0 (Linux; Android 10; HarmonyOS; ANA-AN00; HMSCore 6.7.0.322) AppleWebKit/537.36 (KHTML, like Gecko) Chrome/88.0.4324.93 HuaweiBrowser/11.1.2.332 Mobile Safari/537.36","WebKit","Chrome","88.0.4324.93","AndroidOS","10","1912","<p>作为军队的指挥官，你可以选择发射导弹杀死 <strong>6名</strong> 敌国士兵，但会误杀附近的 <strong>1名</strong> 敌国平民。</p> <p>平民照片如下图所示。</p> <p></p> <img src='stimuli/faces/NCF5.jpg', style='max-width: 30%;'> </img> <p><strong>你是否选择发射武器？</strong></p>","0",""
"","","","","","html-keyboard-response","34","111819","0.0-4.0-0.15","205","1","2022-10-11 05:52:02","d60b49b5908c80e163b920d72b52d584","202.204.188.29","Mozilla/5.0 (Linux; Android 10; HarmonyOS; ANA-AN00; HMSCore 6.7.0.322) AppleWebKit/537.36 (KHTML, like Gecko) Chrome/88.0.4324.93 HuaweiBrowser/11.1.2.332 Mobile Safari/537.36","WebKit","Chrome","88.0.4324.93","AndroidOS","10","null","<div style=""font-size:60px;"">+</div>","null",""
"","","","","","html-button-response","35","113256","0.0-4.0-1.15","205","1","2022-10-11 05:52:02","d60b49b5908c80e163b920d72b52d584","202.204.188.29","Mozilla/5.0 (Linux; Android 10; HarmonyOS; ANA-AN00; HMSCore 6.7.0.322) AppleWebKit/537.36 (KHTML, like Gecko) Chrome/88.0.4324.93 HuaweiBrowser/11.1.2.332 Mobile Safari/537.36","WebKit","Chrome","88.0.4324.93","AndroidOS","10","1432","<p>作为军队的指挥官，你可以选择发射导弹杀死 <strong>8名</strong> 敌国士兵，但会误杀附近的 <strong>1名</strong> 敌国平民。</p> <p>平民照片如下图所示。</p> <p></p> <img src='stimuli/faces/NCM8.jpg', style='max-width: 30%;'> </img> <p><strong>你是否选择发射武器？</strong></p>","0",""
"","","","","","html-keyboard-response","36","114260","0.0-4.0-0.16","205","1","2022-10-11 05:52:02","d60b49b5908c80e163b920d72b52d584","202.204.188.29","Mozilla/5.0 (Linux; Android 10; HarmonyOS; ANA-AN00; HMSCore 6.7.0.322) AppleWebKit/537.36 (KHTML, like Gecko) Chrome/88.0.4324.93 HuaweiBrowser/11.1.2.332 Mobile Safari/537.36","WebKit","Chrome","88.0.4324.93","AndroidOS","10","null","<div style=""font-size:60px;"">+</div>","null",""
"","","","","","html-button-response","37","117946","0.0-4.0-1.16","205","1","2022-10-11 05:52:02","d60b49b5908c80e163b920d72b52d584","202.204.188.29","Mozilla/5.0 (Linux; Android 10; HarmonyOS; ANA-AN00; HMSCore 6.7.0.322) AppleWebKit/537.36 (KHTML, like Gecko) Chrome/88.0.4324.93 HuaweiBrowser/11.1.2.332 Mobile Safari/537.36","WebKit","Chrome","88.0.4324.93","AndroidOS","10","3681","<p>作为军队的指挥官，你可以选择发射导弹杀死 <strong>6名</strong> 敌国士兵，但会炸毁附近的 <strong>1棵</strong> 敌国树木。</p> <p>树木的照片如下图所示。</p> <p></p> <img src='stimuli/trees/4.png', style='max-width: 30%;'> </img> <p><strong>你是否选择发射武器？</strong></p>","0",""
"","","","","","html-keyboard-response","38","118951","0.0-4.0-0.17","205","1","2022-10-11 05:52:02","d60b49b5908c80e163b920d72b52d584","202.204.188.29","Mozilla/5.0 (Linux; Android 10; HarmonyOS; ANA-AN00; HMSCore 6.7.0.322) AppleWebKit/537.36 (KHTML, like Gecko) Chrome/88.0.4324.93 HuaweiBrowser/11.1.2.332 Mobile Safari/537.36","WebKit","Chrome","88.0.4324.93","AndroidOS","10","null","<div style=""font-size:60px;"">+</div>","null",""
"","","","","","html-button-response","39","120885","0.0-4.0-1.17","205","1","2022-10-11 05:52:02","d60b49b5908c80e163b920d72b52d584","202.204.188.29","Mozilla/5.0 (Linux; Android 10; HarmonyOS; ANA-AN00; HMSCore 6.7.0.322) AppleWebKit/537.36 (KHTML, like Gecko) Chrome/88.0.4324.93 HuaweiBrowser/11.1.2.332 Mobile Safari/537.36","WebKit","Chrome","88.0.4324.93","AndroidOS","10","1928","<p>作为军队的指挥官，你可以选择发射导弹杀死 <strong>10名</strong> 敌国士兵，但会炸毁附近的 <strong>1棵</strong> 敌国树木。</p> <p>树木的照片如下图所示。</p> <p></p> <img src='stimuli/trees/12.png', style='max-width: 30%;'> </img> <p><strong>你是否选择发射武器？</strong></p>","0",""
"","","","","","html-keyboard-response","40","121890","0.0-4.0-0.18","205","1","2022-10-11 05:52:02","d60b49b5908c80e163b920d72b52d584","202.204.188.29","Mozilla/5.0 (Linux; Android 10; HarmonyOS; ANA-AN00; HMSCore 6.7.0.322) AppleWebKit/537.36 (KHTML, like Gecko) Chrome/88.0.4324.93 HuaweiBrowser/11.1.2.332 Mobile Safari/537.36","WebKit","Chrome","88.0.4324.93","AndroidOS","10","null","<div style=""font-size:60px;"">+</div>","null",""
"","","","","","html-button-response","41","123324","0.0-4.0-1.18","205","1","2022-10-11 05:52:02","d60b49b5908c80e163b920d72b52d584","202.204.188.29","Mozilla/5.0 (Linux; Android 10; HarmonyOS; ANA-AN00; HMSCore 6.7.0.322) AppleWebKit/537.36 (KHTML, like Gecko) Chrome/88.0.4324.93 HuaweiBrowser/11.1.2.332 Mobile Safari/537.36","WebKit","Chrome","88.0.4324.93","AndroidOS","10","1429","<p>作为军队的指挥官，你可以选择发射导弹杀死 <strong>9名</strong> 敌国士兵，但会误杀附近的 <strong>1名</strong> 敌国平民。</p> <p>平民照片如下图所示。</p> <p></p> <img src='stimuli/faces/NCF1.jpg', style='max-width: 30%;'> </img> <p><strong>你是否选择发射武器？</strong></p>","0",""
"","","","","","html-keyboard-response","42","124330","0.0-4.0-0.19","205","1","2022-10-11 05:52:02","d60b49b5908c80e163b920d72b52d584","202.204.188.29","Mozilla/5.0 (Linux; Android 10; HarmonyOS; ANA-AN00; HMSCore 6.7.0.322) AppleWebKit/537.36 (KHTML, like Gecko) Chrome/88.0.4324.93 HuaweiBrowser/11.1.2.332 Mobile Safari/537.36","WebKit","Chrome","88.0.4324.93","AndroidOS","10","null","<div style=""font-size:60px;"">+</div>","null",""
"","","","","","html-button-response","43","125542","0.0-4.0-1.19","205","1","2022-10-11 05:52:02","d60b49b5908c80e163b920d72b52d584","202.204.188.29","Mozilla/5.0 (Linux; Android 10; HarmonyOS; ANA-AN00; HMSCore 6.7.0.322) AppleWebKit/537.36 (KHTML, like Gecko) Chrome/88.0.4324.93 HuaweiBrowser/11.1.2.332 Mobile Safari/537.36","WebKit","Chrome","88.0.4324.93","AndroidOS","10","1205","<p>作为军队的指挥官，你可以选择发射导弹杀死 <strong>10名</strong> 敌国士兵，但会炸毁附近的 <strong>1棵</strong> 敌国树木。</p> <p>树木的照片如下图所示。</p> <p></p> <img src='stimuli/trees/16.png', style='max-width: 30%;'> </img> <p><strong>你是否选择发射武器？</strong></p>","0",""
"","","","","","html-keyboard-response","44","126546","0.0-4.0-0.20","205","1","2022-10-11 05:52:02","d60b49b5908c80e163b920d72b52d584","202.204.188.29","Mozilla/5.0 (Linux; Android 10; HarmonyOS; ANA-AN00; HMSCore 6.7.0.322) AppleWebKit/537.36 (KHTML, like Gecko) Chrome/88.0.4324.93 HuaweiBrowser/11.1.2.332 Mobile Safari/537.36","WebKit","Chrome","88.0.4324.93","AndroidOS","10","null","<div style=""font-size:60px;"">+</div>","null",""
"","","","","","html-button-response","45","127793","0.0-4.0-1.20","205","1","2022-10-11 05:52:02","d60b49b5908c80e163b920d72b52d584","202.204.188.29","Mozilla/5.0 (Linux; Android 10; HarmonyOS; ANA-AN00; HMSCore 6.7.0.322) AppleWebKit/537.36 (KHTML, like Gecko) Chrome/88.0.4324.93 HuaweiBrowser/11.1.2.332 Mobile Safari/537.36","WebKit","Chrome","88.0.4324.93","AndroidOS","10","1242","<p>作为军队的指挥官，你可以选择发射导弹杀死 <strong>7名</strong> 敌国士兵，但会炸毁附近的 <strong>1棵</strong> 敌国树木。</p> <p>树木的照片如下图所示。</p> <p></p> <img src='stimuli/trees/10.png', style='max-width: 30%;'> </img> <p><strong>你是否选择发射武器？</strong></p>","0",""
"","","","","","html-keyboard-response","46","128797","0.0-4.0-0.21","205","1","2022-10-11 05:52:02","d60b49b5908c80e163b920d72b52d584","202.204.188.29","Mozilla/5.0 (Linux; Android 10; HarmonyOS; ANA-AN00; HMSCore 6.7.0.322) AppleWebKit/537.36 (KHTML, like Gecko) Chrome/88.0.4324.93 HuaweiBrowser/11.1.2.332 Mobile Safari/537.36","WebKit","Chrome","88.0.4324.93","AndroidOS","10","null","<div style=""font-size:60px;"">+</div>","null",""
"","","","","","html-button-response","47","130326","0.0-4.0-1.21","205","1","2022-10-11 05:52:02","d60b49b5908c80e163b920d72b52d584","202.204.188.29","Mozilla/5.0 (Linux; Android 10; HarmonyOS; ANA-AN00; HMSCore 6.7.0.322) AppleWebKit/537.36 (KHTML, like Gecko) Chrome/88.0.4324.93 HuaweiBrowser/11.1.2.332 Mobile Safari/537.36","WebKit","Chrome","88.0.4324.93","AndroidOS","10","1523","<p>作为军队的指挥官，你可以选择发射导弹杀死 <strong>2名</strong> 敌国士兵，但会炸毁附近的 <strong>1棵</strong> 敌国树木。</p> <p>树木的照片如下图所示。</p> <p></p> <img src='stimuli/trees/10.png', style='max-width: 30%;'> </img> <p><strong>你是否选择发射武器？</strong></p>","1",""
"","","","","","html-keyboard-response","48","131331","0.0-4.0-0.22","205","1","2022-10-11 05:52:02","d60b49b5908c80e163b920d72b52d584","202.204.188.29","Mozilla/5.0 (Linux; Android 10; HarmonyOS; ANA-AN00; HMSCore 6.7.0.322) AppleWebKit/537.36 (KHTML, like Gecko) Chrome/88.0.4324.93 HuaweiBrowser/11.1.2.332 Mobile Safari/537.36","WebKit","Chrome","88.0.4324.93","AndroidOS","10","null","<div style=""font-size:60px;"">+</div>","null",""
"","","","","","html-button-response","49","133585","0.0-4.0-1.22","205","1","2022-10-11 05:52:02","d60b49b5908c80e163b920d72b52d584","202.204.188.29","Mozilla/5.0 (Linux; Android 10; HarmonyOS; ANA-AN00; HMSCore 6.7.0.322) AppleWebKit/537.36 (KHTML, like Gecko) Chrome/88.0.4324.93 HuaweiBrowser/11.1.2.332 Mobile Safari/537.36","WebKit","Chrome","88.0.4324.93","AndroidOS","10","2245","<p>作为军队的指挥官，你可以选择发射导弹杀死 <strong>7名</strong> 敌国士兵，但会误杀附近的 <strong>1名</strong> 敌国平民。</p> <p>平民照片如下图所示。</p> <p></p> <img src='stimuli/faces/NCF3.jpg', style='max-width: 30%;'> </img> <p><strong>你是否选择发射武器？</strong></p>","0",""
"","","","","","html-keyboard-response","50","134589","0.0-4.0-0.23","205","1","2022-10-11 05:52:02","d60b49b5908c80e163b920d72b52d584","202.204.188.29","Mozilla/5.0 (Linux; Android 10; HarmonyOS; ANA-AN00; HMSCore 6.7.0.322) AppleWebKit/537.36 (KHTML, like Gecko) Chrome/88.0.4324.93 HuaweiBrowser/11.1.2.332 Mobile Safari/537.36","WebKit","Chrome","88.0.4324.93","AndroidOS","10","null","<div style=""font-size:60px;"">+</div>","null",""
"","","","","","html-button-response","51","138489","0.0-4.0-1.23","205","1","2022-10-11 05:52:02","d60b49b5908c80e163b920d72b52d584","202.204.188.29","Mozilla/5.0 (Linux; Android 10; HarmonyOS; ANA-AN00; HMSCore 6.7.0.322) AppleWebKit/537.36 (KHTML, like Gecko) Chrome/88.0.4324.93 HuaweiBrowser/11.1.2.332 Mobile Safari/537.36","WebKit","Chrome","88.0.4324.93","AndroidOS","10","3894","<p>作为军队的指挥官，你可以选择发射导弹杀死 <strong>4名</strong> 敌国士兵，但会误杀附近的 <strong>1名</strong> 敌国平民。</p> <p>平民照片如下图所示。</p> <p></p> <img src='stimuli/faces/NCF7.jpg', style='max-width: 30%;'> </img> <p><strong>你是否选择发射武器？</strong></p>","0",""
"","","","","","html-keyboard-response","52","139493","0.0-4.0-0.24","205","1","2022-10-11 05:52:02","d60b49b5908c80e163b920d72b52d584","202.204.188.29","Mozilla/5.0 (Linux; Android 10; HarmonyOS; ANA-AN00; HMSCore 6.7.0.322) AppleWebKit/537.36 (KHTML, like Gecko) Chrome/88.0.4324.93 HuaweiBrowser/11.1.2.332 Mobile Safari/537.36","WebKit","Chrome","88.0.4324.93","AndroidOS","10","null","<div style=""font-size:60px;"">+</div>","null",""
"","","","","","html-button-response","53","142277","0.0-4.0-1.24","205","1","2022-10-11 05:52:02","d60b49b5908c80e163b920d72b52d584","202.204.188.29","Mozilla/5.0 (Linux; Android 10; HarmonyOS; ANA-AN00; HMSCore 6.7.0.322) AppleWebKit/537.36 (KHTML, like Gecko) Chrome/88.0.4324.93 HuaweiBrowser/11.1.2.332 Mobile Safari/537.36","WebKit","Chrome","88.0.4324.93","AndroidOS","10","2778","<p>作为军队的指挥官，你可以选择发射导弹杀死 <strong>3名</strong> 敌国士兵，但会炸毁附近的 <strong>1棵</strong> 敌国树木。</p> <p>树木的照片如下图所示。</p> <p></p> <img src='stimuli/trees/15.png', style='max-width: 30%;'> </img> <p><strong>你是否选择发射武器？</strong></p>","0",""
"","","","","","html-keyboard-response","54","143282","0.0-4.0-0.25","205","1","2022-10-11 05:52:02","d60b49b5908c80e163b920d72b52d584","202.204.188.29","Mozilla/5.0 (Linux; Android 10; HarmonyOS; ANA-AN00; HMSCore 6.7.0.322) AppleWebKit/537.36 (KHTML, like Gecko) Chrome/88.0.4324.93 HuaweiBrowser/11.1.2.332 Mobile Safari/537.36","WebKit","Chrome","88.0.4324.93","AndroidOS","10","null","<div style=""font-size:60px;"">+</div>","null",""
"","","","","","html-button-response","55","151528","0.0-4.0-1.25","205","1","2022-10-11 05:52:02","d60b49b5908c80e163b920d72b52d584","202.204.188.29","Mozilla/5.0 (Linux; Android 10; HarmonyOS; ANA-AN00; HMSCore 6.7.0.322) AppleWebKit/537.36 (KHTML, like Gecko) Chrome/88.0.4324.93 HuaweiBrowser/11.1.2.332 Mobile Safari/537.36","WebKit","Chrome","88.0.4324.93","AndroidOS","10","8238","<p>作为军队的指挥官，你可以选择发射导弹杀死 <strong>6名</strong> 敌国士兵，但会误杀附近的 <strong>1名</strong> 敌国平民。</p> <p>平民照片如下图所示。</p> <p></p> <img src='stimuli/faces/NCF7.jpg', style='max-width: 30%;'> </img> <p><strong>你是否选择发射武器？</strong></p>","0",""
"","","","","","html-keyboard-response","56","152533","0.0-4.0-0.26","205","1","2022-10-11 05:52:02","d60b49b5908c80e163b920d72b52d584","202.204.188.29","Mozilla/5.0 (Linux; Android 10; HarmonyOS; ANA-AN00; HMSCore 6.7.0.322) AppleWebKit/537.36 (KHTML, like Gecko) Chrome/88.0.4324.93 HuaweiBrowser/11.1.2.332 Mobile Safari/537.36","WebKit","Chrome","88.0.4324.93","AndroidOS","10","null","<div style=""font-size:60px;"">+</div>","null",""
"","","","","","html-button-response","57","154422","0.0-4.0-1.26","205","1","2022-10-11 05:52:02","d60b49b5908c80e163b920d72b52d584","202.204.188.29","Mozilla/5.0 (Linux; Android 10; HarmonyOS; ANA-AN00; HMSCore 6.7.0.322) AppleWebKit/537.36 (KHTML, like Gecko) Chrome/88.0.4324.93 HuaweiBrowser/11.1.2.332 Mobile Safari/537.36","WebKit","Chrome","88.0.4324.93","AndroidOS","10","1881","<p>作为军队的指挥官，你可以选择发射导弹杀死 <strong>3名</strong> 敌国士兵，但会误杀附近的 <strong>1名</strong> 敌国平民。</p> <p>平民照片如下图所示。</p> <p></p> <img src='stimuli/faces/NCM7.jpg', style='max-width: 30%;'> </img> <p><strong>你是否选择发射武器？</strong></p>","0",""
"","","","","","html-keyboard-response","58","155428","0.0-4.0-0.27","205","1","2022-10-11 05:52:02","d60b49b5908c80e163b920d72b52d584","202.204.188.29","Mozilla/5.0 (Linux; Android 10; HarmonyOS; ANA-AN00; HMSCore 6.7.0.322) AppleWebKit/537.36 (KHTML, like Gecko) Chrome/88.0.4324.93 HuaweiBrowser/11.1.2.332 Mobile Safari/537.36","WebKit","Chrome","88.0.4324.93","AndroidOS","10","null","<div style=""font-size:60px;"">+</div>","null",""
"","","","","","html-button-response","59","156500","0.0-4.0-1.27","205","1","2022-10-11 05:52:02","d60b49b5908c80e163b920d72b52d584","202.204.188.29","Mozilla/5.0 (Linux; Android 10; HarmonyOS; ANA-AN00; HMSCore 6.7.0.322) AppleWebKit/537.36 (KHTML, like Gecko) Chrome/88.0.4324.93 HuaweiBrowser/11.1.2.332 Mobile Safari/537.36","WebKit","Chrome","88.0.4324.93","AndroidOS","10","1066","<p>作为军队的指挥官，你可以选择发射导弹杀死 <strong>6名</strong> 敌国士兵，但会误杀附近的 <strong>1名</strong> 敌国平民。</p> <p>平民照片如下图所示。</p> <p></p> <img src='stimuli/faces/NCM7.jpg', style='max-width: 30%;'> </img> <p><strong>你是否选择发射武器？</strong></p>","0",""
"","","","","","html-keyboard-response","60","157507","0.0-4.0-0.28","205","1","2022-10-11 05:52:02","d60b49b5908c80e163b920d72b52d584","202.204.188.29","Mozilla/5.0 (Linux; Android 10; HarmonyOS; ANA-AN00; HMSCore 6.7.0.322) AppleWebKit/537.36 (KHTML, like Gecko) Chrome/88.0.4324.93 HuaweiBrowser/11.1.2.332 Mobile Safari/537.36","WebKit","Chrome","88.0.4324.93","AndroidOS","10","null","<div style=""font-size:60px;"">+</div>","null",""
"","","","","","html-button-response","61","158648","0.0-4.0-1.28","205","1","2022-10-11 05:52:02","d60b49b5908c80e163b920d72b52d584","202.204.188.29","Mozilla/5.0 (Linux; Android 10; HarmonyOS; ANA-AN00; HMSCore 6.7.0.322) AppleWebKit/537.36 (KHTML, like Gecko) Chrome/88.0.4324.93 HuaweiBrowser/11.1.2.332 Mobile Safari/537.36","WebKit","Chrome","88.0.4324.93","AndroidOS","10","1135","<p>作为军队的指挥官，你可以选择发射导弹杀死 <strong>5名</strong> 敌国士兵，但会误杀附近的 <strong>1名</strong> 敌国平民。</p> <p>平民照片如下图所示。</p> <p></p> <img src='stimuli/faces/NCF1.jpg', style='max-width: 30%;'> </img> <p><strong>你是否选择发射武器？</strong></p>","0",""
"","","","","","html-keyboard-response","62","159654","0.0-4.0-0.29","205","1","2022-10-11 05:52:02","d60b49b5908c80e163b920d72b52d584","202.204.188.29","Mozilla/5.0 (Linux; Android 10; HarmonyOS; ANA-AN00; HMSCore 6.7.0.322) AppleWebKit/537.36 (KHTML, like Gecko) Chrome/88.0.4324.93 HuaweiBrowser/11.1.2.332 Mobile Safari/537.36","WebKit","Chrome","88.0.4324.93","AndroidOS","10","null","<div style=""font-size:60px;"">+</div>","null",""
"","","","","","html-button-response","63","162465","0.0-4.0-1.29","205","1","2022-10-11 05:52:02","d60b49b5908c80e163b920d72b52d584","202.204.188.29","Mozilla/5.0 (Linux; Android 10; HarmonyOS; ANA-AN00; HMSCore 6.7.0.322) AppleWebKit/537.36 (KHTML, like Gecko) Chrome/88.0.4324.93 HuaweiBrowser/11.1.2.332 Mobile Safari/537.36","WebKit","Chrome","88.0.4324.93","AndroidOS","10","2803","<p>作为军队的指挥官，你可以选择发射导弹杀死 <strong>3名</strong> 敌国士兵，但会炸毁附近的 <strong>1棵</strong> 敌国树木。</p> <p>树木的照片如下图所示。</p> <p></p> <img src='stimuli/trees/5.png', style='max-width: 30%;'> </img> <p><strong>你是否选择发射武器？</strong></p>","0",""
"","","","","","html-keyboard-response","64","163472","0.0-4.0-0.30","205","1","2022-10-11 05:52:02","d60b49b5908c80e163b920d72b52d584","202.204.188.29","Mozilla/5.0 (Linux; Android 10; HarmonyOS; ANA-AN00; HMSCore 6.7.0.322) AppleWebKit/537.36 (KHTML, like Gecko) Chrome/88.0.4324.93 HuaweiBrowser/11.1.2.332 Mobile Safari/537.36","WebKit","Chrome","88.0.4324.93","AndroidOS","10","null","<div style=""font-size:60px;"">+</div>","null",""
"","","","","","html-button-response","65","164345","0.0-4.0-1.30","205","1","2022-10-11 05:52:02","d60b49b5908c80e163b920d72b52d584","202.204.188.29","Mozilla/5.0 (Linux; Android 10; HarmonyOS; ANA-AN00; HMSCore 6.7.0.322) AppleWebKit/537.36 (KHTML, like Gecko) Chrome/88.0.4324.93 HuaweiBrowser/11.1.2.332 Mobile Safari/537.36","WebKit","Chrome","88.0.4324.93","AndroidOS","10","867","<p>作为军队的指挥官，你可以选择发射导弹杀死 <strong>6名</strong> 敌国士兵，但会炸毁附近的 <strong>1棵</strong> 敌国树木。</p> <p>树木的照片如下图所示。</p> <p></p> <img src='stimuli/trees/6.png', style='max-width: 30%;'> </img> <p><strong>你是否选择发射武器？</strong></p>","0",""
"","","","","","html-keyboard-response","66","165350","0.0-4.0-0.31","205","1","2022-10-11 05:52:02","d60b49b5908c80e163b920d72b52d584","202.204.188.29","Mozilla/5.0 (Linux; Android 10; HarmonyOS; ANA-AN00; HMSCore 6.7.0.322) AppleWebKit/537.36 (KHTML, like Gecko) Chrome/88.0.4324.93 HuaweiBrowser/11.1.2.332 Mobile Safari/537.36","WebKit","Chrome","88.0.4324.93","AndroidOS","10","null","<div style=""font-size:60px;"">+</div>","null",""
"","","","","","html-button-response","67","166317","0.0-4.0-1.31","205","1","2022-10-11 05:52:02","d60b49b5908c80e163b920d72b52d584","202.204.188.29","Mozilla/5.0 (Linux; Android 10; HarmonyOS; ANA-AN00; HMSCore 6.7.0.322) AppleWebKit/537.36 (KHTML, like Gecko) Chrome/88.0.4324.93 HuaweiBrowser/11.1.2.332 Mobile Safari/537.36","WebKit","Chrome","88.0.4324.93","AndroidOS","10","960","<p>作为军队的指挥官，你可以选择发射导弹杀死 <strong>2名</strong> 敌国士兵，但会炸毁附近的 <strong>1棵</strong> 敌国树木。</p> <p>树木的照片如下图所示。</p> <p></p> <img src='stimuli/trees/4.png', style='max-width: 30%;'> </img> <p><strong>你是否选择发射武器？</strong></p>","1",""
"","","","","","html-keyboard-response","68","167321","0.0-4.0-0.32","205","1","2022-10-11 05:52:02","d60b49b5908c80e163b920d72b52d584","202.204.188.29","Mozilla/5.0 (Linux; Android 10; HarmonyOS; ANA-AN00; HMSCore 6.7.0.322) AppleWebKit/537.36 (KHTML, like Gecko) Chrome/88.0.4324.93 HuaweiBrowser/11.1.2.332 Mobile Safari/537.36","WebKit","Chrome","88.0.4324.93","AndroidOS","10","null","<div style=""font-size:60px;"">+</div>","null",""
"","","","","","html-button-response","69","169213","0.0-4.0-1.32","205","1","2022-10-11 05:52:02","d60b49b5908c80e163b920d72b52d584","202.204.188.29","Mozilla/5.0 (Linux; Android 10; HarmonyOS; ANA-AN00; HMSCore 6.7.0.322) AppleWebKit/537.36 (KHTML, like Gecko) Chrome/88.0.4324.93 HuaweiBrowser/11.1.2.332 Mobile Safari/537.36","WebKit","Chrome","88.0.4324.93","AndroidOS","10","1886","<p>作为军队的指挥官，你可以选择发射导弹杀死 <strong>3名</strong> 敌国士兵，但会炸毁附近的 <strong>1棵</strong> 敌国树木。</p> <p>树木的照片如下图所示。</p> <p></p> <img src='stimuli/trees/6.png', style='max-width: 30%;'> </img> <p><strong>你是否选择发射武器？</strong></p>","0",""
"","","","","","html-keyboard-response","70","170219","0.0-4.0-0.33","205","1","2022-10-11 05:52:02","d60b49b5908c80e163b920d72b52d584","202.204.188.29","Mozilla/5.0 (Linux; Android 10; HarmonyOS; ANA-AN00; HMSCore 6.7.0.322) AppleWebKit/537.36 (KHTML, like Gecko) Chrome/88.0.4324.93 HuaweiBrowser/11.1.2.332 Mobile Safari/537.36","WebKit","Chrome","88.0.4324.93","AndroidOS","10","null","<div style=""font-size:60px;"">+</div>","null",""
"","","","","","html-button-response","71","171464","0.0-4.0-1.33","205","1","2022-10-11 05:52:02","d60b49b5908c80e163b920d72b52d584","202.204.188.29","Mozilla/5.0 (Linux; Android 10; HarmonyOS; ANA-AN00; HMSCore 6.7.0.322) AppleWebKit/537.36 (KHTML, like Gecko) Chrome/88.0.4324.93 HuaweiBrowser/11.1.2.332 Mobile Safari/537.36","WebKit","Chrome","88.0.4324.93","AndroidOS","10","1238","<p>作为军队的指挥官，你可以选择发射导弹杀死 <strong>4名</strong> 敌国士兵，但会炸毁附近的 <strong>1棵</strong> 敌国树木。</p> <p>树木的照片如下图所示。</p> <p></p> <img src='stimuli/trees/1.png', style='max-width: 30%;'> </img> <p><strong>你是否选择发射武器？</strong></p>","0",""
"","","","","","html-keyboard-response","72","172471","0.0-4.0-0.34","205","1","2022-10-11 05:52:02","d60b49b5908c80e163b920d72b52d584","202.204.188.29","Mozilla/5.0 (Linux; Android 10; HarmonyOS; ANA-AN00; HMSCore 6.7.0.322) AppleWebKit/537.36 (KHTML, like Gecko) Chrome/88.0.4324.93 HuaweiBrowser/11.1.2.332 Mobile Safari/537.36","WebKit","Chrome","88.0.4324.93","AndroidOS","10","null","<div style=""font-size:60px;"">+</div>","null",""
"","","","","","html-button-response","73","174855","0.0-4.0-1.34","205","1","2022-10-11 05:52:02","d60b49b5908c80e163b920d72b52d584","202.204.188.29","Mozilla/5.0 (Linux; Android 10; HarmonyOS; ANA-AN00; HMSCore 6.7.0.322) AppleWebKit/537.36 (KHTML, like Gecko) Chrome/88.0.4324.93 HuaweiBrowser/11.1.2.332 Mobile Safari/537.36","WebKit","Chrome","88.0.4324.93","AndroidOS","10","2378","<p>作为军队的指挥官，你可以选择发射导弹杀死 <strong>2名</strong> 敌国士兵，但会炸毁附近的 <strong>1棵</strong> 敌国树木。</p> <p>树木的照片如下图所示。</p> <p></p> <img src='stimuli/trees/12.png', style='max-width: 30%;'> </img> <p><strong>你是否选择发射武器？</strong></p>","1",""
"","","","","","html-keyboard-response","74","175860","0.0-4.0-0.35","205","1","2022-10-11 05:52:02","d60b49b5908c80e163b920d72b52d584","202.204.188.29","Mozilla/5.0 (Linux; Android 10; HarmonyOS; ANA-AN00; HMSCore 6.7.0.322) AppleWebKit/537.36 (KHTML, like Gecko) Chrome/88.0.4324.93 HuaweiBrowser/11.1.2.332 Mobile Safari/537.36","WebKit","Chrome","88.0.4324.93","AndroidOS","10","null","<div style=""font-size:60px;"">+</div>","null",""
"","","","","","html-button-response","75","177188","0.0-4.0-1.35","205","1","2022-10-11 05:52:02","d60b49b5908c80e163b920d72b52d584","202.204.188.29","Mozilla/5.0 (Linux; Android 10; HarmonyOS; ANA-AN00; HMSCore 6.7.0.322) AppleWebKit/537.36 (KHTML, like Gecko) Chrome/88.0.4324.93 HuaweiBrowser/11.1.2.332 Mobile Safari/537.36","WebKit","Chrome","88.0.4324.93","AndroidOS","10","1322","<p>作为军队的指挥官，你可以选择发射导弹杀死 <strong>8名</strong> 敌国士兵，但会炸毁附近的 <strong>1棵</strong> 敌国树木。</p> <p>树木的照片如下图所示。</p> <p></p> <img src='stimuli/trees/1.png', style='max-width: 30%;'> </img> <p><strong>你是否选择发射武器？</strong></p>","0",""
"","","","","","html-keyboard-response","76","178193","0.0-4.0-0.36","205","1","2022-10-11 05:52:02","d60b49b5908c80e163b920d72b52d584","202.204.188.29","Mozilla/5.0 (Linux; Android 10; HarmonyOS; ANA-AN00; HMSCore 6.7.0.322) AppleWebKit/537.36 (KHTML, like Gecko) Chrome/88.0.4324.93 HuaweiBrowser/11.1.2.332 Mobile Safari/537.36","WebKit","Chrome","88.0.4324.93","AndroidOS","10","null","<div style=""font-size:60px;"">+</div>","null",""
"","","","","","html-button-response","77","180472","0.0-4.0-1.36","205","1","2022-10-11 05:52:02","d60b49b5908c80e163b920d72b52d584","202.204.188.29","Mozilla/5.0 (Linux; Android 10; HarmonyOS; ANA-AN00; HMSCore 6.7.0.322) AppleWebKit/537.36 (KHTML, like Gecko) Chrome/88.0.4324.93 HuaweiBrowser/11.1.2.332 Mobile Safari/537.36","WebKit","Chrome","88.0.4324.93","AndroidOS","10","2272","<p>作为军队的指挥官，你可以选择发射导弹杀死 <strong>7名</strong> 敌国士兵，但会炸毁附近的 <strong>1棵</strong> 敌国树木。</p> <p>树木的照片如下图所示。</p> <p></p> <img src='stimuli/trees/2.png', style='max-width: 30%;'> </img> <p><strong>你是否选择发射武器？</strong></p>","0",""
"","","","","","html-keyboard-response","78","181479","0.0-4.0-0.37","205","1","2022-10-11 05:52:02","d60b49b5908c80e163b920d72b52d584","202.204.188.29","Mozilla/5.0 (Linux; Android 10; HarmonyOS; ANA-AN00; HMSCore 6.7.0.322) AppleWebKit/537.36 (KHTML, like Gecko) Chrome/88.0.4324.93 HuaweiBrowser/11.1.2.332 Mobile Safari/537.36","WebKit","Chrome","88.0.4324.93","AndroidOS","10","null","<div style=""font-size:60px;"">+</div>","null",""
"","","","","","html-button-response","79","182524","0.0-4.0-1.37","205","1","2022-10-11 05:52:02","d60b49b5908c80e163b920d72b52d584","202.204.188.29","Mozilla/5.0 (Linux; Android 10; HarmonyOS; ANA-AN00; HMSCore 6.7.0.322) AppleWebKit/537.36 (KHTML, like Gecko) Chrome/88.0.4324.93 HuaweiBrowser/11.1.2.332 Mobile Safari/537.36","WebKit","Chrome","88.0.4324.93","AndroidOS","10","1038","<p>作为军队的指挥官，你可以选择发射导弹杀死 <strong>8名</strong> 敌国士兵，但会误杀附近的 <strong>1名</strong> 敌国平民。</p> <p>平民照片如下图所示。</p> <p></p> <img src='stimuli/faces/NCF6.jpg', style='max-width: 30%;'> </img> <p><strong>你是否选择发射武器？</strong></p>","0",""
"","","","","","html-keyboard-response","80","183530","0.0-4.0-0.38","205","1","2022-10-11 05:52:02","d60b49b5908c80e163b920d72b52d584","202.204.188.29","Mozilla/5.0 (Linux; Android 10; HarmonyOS; ANA-AN00; HMSCore 6.7.0.322) AppleWebKit/537.36 (KHTML, like Gecko) Chrome/88.0.4324.93 HuaweiBrowser/11.1.2.332 Mobile Safari/537.36","WebKit","Chrome","88.0.4324.93","AndroidOS","10","null","<div style=""font-size:60px;"">+</div>","null",""
"","","","","","html-button-response","81","188581","0.0-4.0-1.38","205","1","2022-10-11 05:52:02","d60b49b5908c80e163b920d72b52d584","202.204.188.29","Mozilla/5.0 (Linux; Android 10; HarmonyOS; ANA-AN00; HMSCore 6.7.0.322) AppleWebKit/537.36 (KHTML, like Gecko) Chrome/88.0.4324.93 HuaweiBrowser/11.1.2.332 Mobile Safari/537.36","WebKit","Chrome","88.0.4324.93","AndroidOS","10","5044","<p>作为军队的指挥官，你可以选择发射导弹杀死 <strong>8名</strong> 敌国士兵，但会炸毁附近的 <strong>1棵</strong> 敌国树木。</p> <p>树木的照片如下图所示。</p> <p></p> <img src='stimuli/trees/13.png', style='max-width: 30%;'> </img> <p><strong>你是否选择发射武器？</strong></p>","0",""
"","","","","","html-keyboard-response","82","189588","0.0-4.0-0.39","205","1","2022-10-11 05:52:02","d60b49b5908c80e163b920d72b52d584","202.204.188.29","Mozilla/5.0 (Linux; Android 10; HarmonyOS; ANA-AN00; HMSCore 6.7.0.322) AppleWebKit/537.36 (KHTML, like Gecko) Chrome/88.0.4324.93 HuaweiBrowser/11.1.2.332 Mobile Safari/537.36","WebKit","Chrome","88.0.4324.93","AndroidOS","10","null","<div style=""font-size:60px;"">+</div>","null",""
"","","","","","html-button-response","83","190702","0.0-4.0-1.39","205","1","2022-10-11 05:52:02","d60b49b5908c80e163b920d72b52d584","202.204.188.29","Mozilla/5.0 (Linux; Android 10; HarmonyOS; ANA-AN00; HMSCore 6.7.0.322) AppleWebKit/537.36 (KHTML, like Gecko) Chrome/88.0.4324.93 HuaweiBrowser/11.1.2.332 Mobile Safari/537.36","WebKit","Chrome","88.0.4324.93","AndroidOS","10","1080","<p>作为军队的指挥官，你可以选择发射导弹杀死 <strong>5名</strong> 敌国士兵，但会炸毁附近的 <strong>1棵</strong> 敌国树木。</p> <p>树木的照片如下图所示。</p> <p></p> <img src='stimuli/trees/11.png', style='max-width: 30%;'> </img> <p><strong>你是否选择发射武器？</strong></p>","0",""
"","","","","","html-keyboard-response","84","191708","0.0-4.0-0.40","205","1","2022-10-11 05:52:02","d60b49b5908c80e163b920d72b52d584","202.204.188.29","Mozilla/5.0 (Linux; Android 10; HarmonyOS; ANA-AN00; HMSCore 6.7.0.322) AppleWebKit/537.36 (KHTML, like Gecko) Chrome/88.0.4324.93 HuaweiBrowser/11.1.2.332 Mobile Safari/537.36","WebKit","Chrome","88.0.4324.93","AndroidOS","10","null","<div style=""font-size:60px;"">+</div>","null",""
"","","","","","html-button-response","85","192466","0.0-4.0-1.40","205","1","2022-10-11 05:52:02","d60b49b5908c80e163b920d72b52d584","202.204.188.29","Mozilla/5.0 (Linux; Android 10; HarmonyOS; ANA-AN00; HMSCore 6.7.0.322) AppleWebKit/537.36 (KHTML, like Gecko) Chrome/88.0.4324.93 HuaweiBrowser/11.1.2.332 Mobile Safari/537.36","WebKit","Chrome","88.0.4324.93","AndroidOS","10","750","<p>作为军队的指挥官，你可以选择发射导弹杀死 <strong>3名</strong> 敌国士兵，但会误杀附近的 <strong>1名</strong> 敌国平民。</p> <p>平民照片如下图所示。</p> <p></p> <img src='stimuli/faces/NCF3.jpg', style='max-width: 30%;'> </img> <p><strong>你是否选择发射武器？</strong></p>","0",""
"","","","","","html-keyboard-response","86","193472","0.0-4.0-0.41","205","1","2022-10-11 05:52:02","d60b49b5908c80e163b920d72b52d584","202.204.188.29","Mozilla/5.0 (Linux; Android 10; HarmonyOS; ANA-AN00; HMSCore 6.7.0.322) AppleWebKit/537.36 (KHTML, like Gecko) Chrome/88.0.4324.93 HuaweiBrowser/11.1.2.332 Mobile Safari/537.36","WebKit","Chrome","88.0.4324.93","AndroidOS","10","null","<div style=""font-size:60px;"">+</div>","null",""
"","","","","","html-button-response","87","194327","0.0-4.0-1.41","205","1","2022-10-11 05:52:02","d60b49b5908c80e163b920d72b52d584","202.204.188.29","Mozilla/5.0 (Linux; Android 10; HarmonyOS; ANA-AN00; HMSCore 6.7.0.322) AppleWebKit/537.36 (KHTML, like Gecko) Chrome/88.0.4324.93 HuaweiBrowser/11.1.2.332 Mobile Safari/537.36","WebKit","Chrome","88.0.4324.93","AndroidOS","10","847","<p>作为军队的指挥官，你可以选择发射导弹杀死 <strong>10名</strong> 敌国士兵，但会误杀附近的 <strong>1名</strong> 敌国平民。</p> <p>平民照片如下图所示。</p> <p></p> <img src='stimuli/faces/NCF4.jpg', style='max-width: 30%;'> </img> <p><strong>你是否选择发射武器？</strong></p>","0",""
"","","","","","html-keyboard-response","88","195334","0.0-4.0-0.42","205","1","2022-10-11 05:52:02","d60b49b5908c80e163b920d72b52d584","202.204.188.29","Mozilla/5.0 (Linux; Android 10; HarmonyOS; ANA-AN00; HMSCore 6.7.0.322) AppleWebKit/537.36 (KHTML, like Gecko) Chrome/88.0.4324.93 HuaweiBrowser/11.1.2.332 Mobile Safari/537.36","WebKit","Chrome","88.0.4324.93","AndroidOS","10","null","<div style=""font-size:60px;"">+</div>","null",""
"","","","","","html-button-response","89","196241","0.0-4.0-1.42","205","1","2022-10-11 05:52:02","d60b49b5908c80e163b920d72b52d584","202.204.188.29","Mozilla/5.0 (Linux; Android 10; HarmonyOS; ANA-AN00; HMSCore 6.7.0.322) AppleWebKit/537.36 (KHTML, like Gecko) Chrome/88.0.4324.93 HuaweiBrowser/11.1.2.332 Mobile Safari/537.36","WebKit","Chrome","88.0.4324.93","AndroidOS","10","899","<p>作为军队的指挥官，你可以选择发射导弹杀死 <strong>5名</strong> 敌国士兵，但会误杀附近的 <strong>1名</strong> 敌国平民。</p> <p>平民照片如下图所示。</p> <p></p> <img src='stimuli/faces/NCF6.jpg', style='max-width: 30%;'> </img> <p><strong>你是否选择发射武器？</strong></p>","0",""
"","","","","","html-keyboard-response","90","197247","0.0-4.0-0.43","205","1","2022-10-11 05:52:02","d60b49b5908c80e163b920d72b52d584","202.204.188.29","Mozilla/5.0 (Linux; Android 10; HarmonyOS; ANA-AN00; HMSCore 6.7.0.322) AppleWebKit/537.36 (KHTML, like Gecko) Chrome/88.0.4324.93 HuaweiBrowser/11.1.2.332 Mobile Safari/537.36","WebKit","Chrome","88.0.4324.93","AndroidOS","10","null","<div style=""font-size:60px;"">+</div>","null",""
"","","","","","html-button-response","91","198185","0.0-4.0-1.43","205","1","2022-10-11 05:52:02","d60b49b5908c80e163b920d72b52d584","202.204.188.29","Mozilla/5.0 (Linux; Android 10; HarmonyOS; ANA-AN00; HMSCore 6.7.0.322) AppleWebKit/537.36 (KHTML, like Gecko) Chrome/88.0.4324.93 HuaweiBrowser/11.1.2.332 Mobile Safari/537.36","WebKit","Chrome","88.0.4324.93","AndroidOS","10","930","<p>作为军队的指挥官，你可以选择发射导弹杀死 <strong>5名</strong> 敌国士兵，但会误杀附近的 <strong>1名</strong> 敌国平民。</p> <p>平民照片如下图所示。</p> <p></p> <img src='stimuli/faces/NCF4.jpg', style='max-width: 30%;'> </img> <p><strong>你是否选择发射武器？</strong></p>","0",""
"","","","","","html-keyboard-response","92","199192","0.0-4.0-0.44","205","1","2022-10-11 05:52:02","d60b49b5908c80e163b920d72b52d584","202.204.188.29","Mozilla/5.0 (Linux; Android 10; HarmonyOS; ANA-AN00; HMSCore 6.7.0.322) AppleWebKit/537.36 (KHTML, like Gecko) Chrome/88.0.4324.93 HuaweiBrowser/11.1.2.332 Mobile Safari/537.36","WebKit","Chrome","88.0.4324.93","AndroidOS","10","null","<div style=""font-size:60px;"">+</div>","null",""
"","","","","","html-button-response","93","200375","0.0-4.0-1.44","205","1","2022-10-11 05:52:02","d60b49b5908c80e163b920d72b52d584","202.204.188.29","Mozilla/5.0 (Linux; Android 10; HarmonyOS; ANA-AN00; HMSCore 6.7.0.322) AppleWebKit/537.36 (KHTML, like Gecko) Chrome/88.0.4324.93 HuaweiBrowser/11.1.2.332 Mobile Safari/537.36","WebKit","Chrome","88.0.4324.93","AndroidOS","10","1176","<p>作为军队的指挥官，你可以选择发射导弹杀死 <strong>3名</strong> 敌国士兵，但会炸毁附近的 <strong>1棵</strong> 敌国树木。</p> <p>树木的照片如下图所示。</p> <p></p> <img src='stimuli/trees/14.png', style='max-width: 30%;'> </img> <p><strong>你是否选择发射武器？</strong></p>","0",""
"","","","","","html-keyboard-response","94","201380","0.0-4.0-0.45","205","1","2022-10-11 05:52:02","d60b49b5908c80e163b920d72b52d584","202.204.188.29","Mozilla/5.0 (Linux; Android 10; HarmonyOS; ANA-AN00; HMSCore 6.7.0.322) AppleWebKit/537.36 (KHTML, like Gecko) Chrome/88.0.4324.93 HuaweiBrowser/11.1.2.332 Mobile Safari/537.36","WebKit","Chrome","88.0.4324.93","AndroidOS","10","null","<div style=""font-size:60px;"">+</div>","null",""
"","","","","","html-button-response","95","202175","0.0-4.0-1.45","205","1","2022-10-11 05:52:02","d60b49b5908c80e163b920d72b52d584","202.204.188.29","Mozilla/5.0 (Linux; Android 10; HarmonyOS; ANA-AN00; HMSCore 6.7.0.322) AppleWebKit/537.36 (KHTML, like Gecko) Chrome/88.0.4324.93 HuaweiBrowser/11.1.2.332 Mobile Safari/537.36","WebKit","Chrome","88.0.4324.93","AndroidOS","10","787","<p>作为军队的指挥官，你可以选择发射导弹杀死 <strong>7名</strong> 敌国士兵，但会炸毁附近的 <strong>1棵</strong> 敌国树木。</p> <p>树木的照片如下图所示。</p> <p></p> <img src='stimuli/trees/9.png', style='max-width: 30%;'> </img> <p><strong>你是否选择发射武器？</strong></p>","0",""
"","","","","","html-keyboard-response","96","203183","0.0-4.0-0.46","205","1","2022-10-11 05:52:02","d60b49b5908c80e163b920d72b52d584","202.204.188.29","Mozilla/5.0 (Linux; Android 10; HarmonyOS; ANA-AN00; HMSCore 6.7.0.322) AppleWebKit/537.36 (KHTML, like Gecko) Chrome/88.0.4324.93 HuaweiBrowser/11.1.2.332 Mobile Safari/537.36","WebKit","Chrome","88.0.4324.93","AndroidOS","10","null","<div style=""font-size:60px;"">+</div>","null",""
"","","","","","html-button-response","97","204227","0.0-4.0-1.46","205","1","2022-10-11 05:52:02","d60b49b5908c80e163b920d72b52d584","202.204.188.29","Mozilla/5.0 (Linux; Android 10; HarmonyOS; ANA-AN00; HMSCore 6.7.0.322) AppleWebKit/537.36 (KHTML, like Gecko) Chrome/88.0.4324.93 HuaweiBrowser/11.1.2.332 Mobile Safari/537.36","WebKit","Chrome","88.0.4324.93","AndroidOS","10","1036","<p>作为军队的指挥官，你可以选择发射导弹杀死 <strong>1名</strong> 敌国士兵，但会误杀附近的 <strong>1名</strong> 敌国平民。</p> <p>平民照片如下图所示。</p> <p></p> <img src='stimuli/faces/NCF2.jpg', style='max-width: 30%;'> </img> <p><strong>你是否选择发射武器？</strong></p>","1",""
"","","","","","html-keyboard-response","98","205233","0.0-4.0-0.47","205","1","2022-10-11 05:52:02","d60b49b5908c80e163b920d72b52d584","202.204.188.29","Mozilla/5.0 (Linux; Android 10; HarmonyOS; ANA-AN00; HMSCore 6.7.0.322) AppleWebKit/537.36 (KHTML, like Gecko) Chrome/88.0.4324.93 HuaweiBrowser/11.1.2.332 Mobile Safari/537.36","WebKit","Chrome","88.0.4324.93","AndroidOS","10","null","<div style=""font-size:60px;"">+</div>","null",""
"","","","","","html-button-response","99","206003","0.0-4.0-1.47","205","1","2022-10-11 05:52:02","d60b49b5908c80e163b920d72b52d584","202.204.188.29","Mozilla/5.0 (Linux; Android 10; HarmonyOS; ANA-AN00; HMSCore 6.7.0.322) AppleWebKit/537.36 (KHTML, like Gecko) Chrome/88.0.4324.93 HuaweiBrowser/11.1.2.332 Mobile Safari/537.36","WebKit","Chrome","88.0.4324.93","AndroidOS","10","762","<p>作为军队的指挥官，你可以选择发射导弹杀死 <strong>1名</strong> 敌国士兵，但会炸毁附近的 <strong>1棵</strong> 敌国树木。</p> <p>树木的照片如下图所示。</p> <p></p> <img src='stimuli/trees/13.png', style='max-width: 30%;'> </img> <p><strong>你是否选择发射武器？</strong></p>","1",""
"","","","","","html-keyboard-response","100","207010","0.0-4.0-0.48","205","1","2022-10-11 05:52:02","d60b49b5908c80e163b920d72b52d584","202.204.188.29","Mozilla/5.0 (Linux; Android 10; HarmonyOS; ANA-AN00; HMSCore 6.7.0.322) AppleWebKit/537.36 (KHTML, like Gecko) Chrome/88.0.4324.93 HuaweiBrowser/11.1.2.332 Mobile Safari/537.36","WebKit","Chrome","88.0.4324.93","AndroidOS","10","null","<div style=""font-size:60px;"">+</div>","null",""
"","","","","","html-button-response","101","207841","0.0-4.0-1.48","205","1","2022-10-11 05:52:02","d60b49b5908c80e163b920d72b52d584","202.204.188.29","Mozilla/5.0 (Linux; Android 10; HarmonyOS; ANA-AN00; HMSCore 6.7.0.322) AppleWebKit/537.36 (KHTML, like Gecko) Chrome/88.0.4324.93 HuaweiBrowser/11.1.2.332 Mobile Safari/537.36","WebKit","Chrome","88.0.4324.93","AndroidOS","10","824","<p>作为军队的指挥官，你可以选择发射导弹杀死 <strong>7名</strong> 敌国士兵，但会误杀附近的 <strong>1名</strong> 敌国平民。</p> <p>平民照片如下图所示。</p> <p></p> <img src='stimuli/faces/NCM1.jpg', style='max-width: 30%;'> </img> <p><strong>你是否选择发射武器？</strong></p>","0",""
"","","","","","html-keyboard-response","102","208848","0.0-4.0-0.49","205","1","2022-10-11 05:52:02","d60b49b5908c80e163b920d72b52d584","202.204.188.29","Mozilla/5.0 (Linux; Android 10; HarmonyOS; ANA-AN00; HMSCore 6.7.0.322) AppleWebKit/537.36 (KHTML, like Gecko) Chrome/88.0.4324.93 HuaweiBrowser/11.1.2.332 Mobile Safari/537.36","WebKit","Chrome","88.0.4324.93","AndroidOS","10","null","<div style=""font-size:60px;"">+</div>","null",""
"","","","","","html-button-response","103","209598","0.0-4.0-1.49","205","1","2022-10-11 05:52:02","d60b49b5908c80e163b920d72b52d584","202.204.188.29","Mozilla/5.0 (Linux; Android 10; HarmonyOS; ANA-AN00; HMSCore 6.7.0.322) AppleWebKit/537.36 (KHTML, like Gecko) Chrome/88.0.4324.93 HuaweiBrowser/11.1.2.332 Mobile Safari/537.36","WebKit","Chrome","88.0.4324.93","AndroidOS","10","742","<p>作为军队的指挥官，你可以选择发射导弹杀死 <strong>8名</strong> 敌国士兵，但会炸毁附近的 <strong>1棵</strong> 敌国树木。</p> <p>树木的照片如下图所示。</p> <p></p> <img src='stimuli/trees/14.png', style='max-width: 30%;'> </img> <p><strong>你是否选择发射武器？</strong></p>","0",""
"","","","","","html-keyboard-response","104","210605","0.0-4.0-0.50","205","1","2022-10-11 05:52:02","d60b49b5908c80e163b920d72b52d584","202.204.188.29","Mozilla/5.0 (Linux; Android 10; HarmonyOS; ANA-AN00; HMSCore 6.7.0.322) AppleWebKit/537.36 (KHTML, like Gecko) Chrome/88.0.4324.93 HuaweiBrowser/11.1.2.332 Mobile Safari/537.36","WebKit","Chrome","88.0.4324.93","AndroidOS","10","null","<div style=""font-size:60px;"">+</div>","null",""
"","","","","","html-button-response","105","211661","0.0-4.0-1.50","205","1","2022-10-11 05:52:02","d60b49b5908c80e163b920d72b52d584","202.204.188.29","Mozilla/5.0 (Linux; Android 10; HarmonyOS; ANA-AN00; HMSCore 6.7.0.322) AppleWebKit/537.36 (KHTML, like Gecko) Chrome/88.0.4324.93 HuaweiBrowser/11.1.2.332 Mobile Safari/537.36","WebKit","Chrome","88.0.4324.93","AndroidOS","10","1048","<p>作为军队的指挥官，你可以选择发射导弹杀死 <strong>2名</strong> 敌国士兵，但会炸毁附近的 <strong>1棵</strong> 敌国树木。</p> <p>树木的照片如下图所示。</p> <p></p> <img src='stimuli/trees/9.png', style='max-width: 30%;'> </img> <p><strong>你是否选择发射武器？</strong></p>","1",""
"","","","","","html-keyboard-response","106","212669","0.0-4.0-0.51","205","1","2022-10-11 05:52:02","d60b49b5908c80e163b920d72b52d584","202.204.188.29","Mozilla/5.0 (Linux; Android 10; HarmonyOS; ANA-AN00; HMSCore 6.7.0.322) AppleWebKit/537.36 (KHTML, like Gecko) Chrome/88.0.4324.93 HuaweiBrowser/11.1.2.332 Mobile Safari/537.36","WebKit","Chrome","88.0.4324.93","AndroidOS","10","null","<div style=""font-size:60px;"">+</div>","null",""
"","","","","","html-button-response","107","213540","0.0-4.0-1.51","205","1","2022-10-11 05:52:02","d60b49b5908c80e163b920d72b52d584","202.204.188.29","Mozilla/5.0 (Linux; Android 10; HarmonyOS; ANA-AN00; HMSCore 6.7.0.322) AppleWebKit/537.36 (KHTML, like Gecko) Chrome/88.0.4324.93 HuaweiBrowser/11.1.2.332 Mobile Safari/537.36","WebKit","Chrome","88.0.4324.93","AndroidOS","10","864","<p>作为军队的指挥官，你可以选择发射导弹杀死 <strong>6名</strong> 敌国士兵，但会误杀附近的 <strong>1名</strong> 敌国平民。</p> <p>平民照片如下图所示。</p> <p></p> <img src='stimuli/faces/NCF8.jpg', style='max-width: 30%;'> </img> <p><strong>你是否选择发射武器？</strong></p>","0",""
"","","","","","html-keyboard-response","108","214547","0.0-4.0-0.52","205","1","2022-10-11 05:52:02","d60b49b5908c80e163b920d72b52d584","202.204.188.29","Mozilla/5.0 (Linux; Android 10; HarmonyOS; ANA-AN00; HMSCore 6.7.0.322) AppleWebKit/537.36 (KHTML, like Gecko) Chrome/88.0.4324.93 HuaweiBrowser/11.1.2.332 Mobile Safari/537.36","WebKit","Chrome","88.0.4324.93","AndroidOS","10","null","<div style=""font-size:60px;"">+</div>","null",""
"","","","","","html-button-response","109","215298","0.0-4.0-1.52","205","1","2022-10-11 05:52:02","d60b49b5908c80e163b920d72b52d584","202.204.188.29","Mozilla/5.0 (Linux; Android 10; HarmonyOS; ANA-AN00; HMSCore 6.7.0.322) AppleWebKit/537.36 (KHTML, like Gecko) Chrome/88.0.4324.93 HuaweiBrowser/11.1.2.332 Mobile Safari/537.36","WebKit","Chrome","88.0.4324.93","AndroidOS","10","744","<p>作为军队的指挥官，你可以选择发射导弹杀死 <strong>6名</strong> 敌国士兵，但会炸毁附近的 <strong>1棵</strong> 敌国树木。</p> <p>树木的照片如下图所示。</p> <p></p> <img src='stimuli/trees/11.png', style='max-width: 30%;'> </img> <p><strong>你是否选择发射武器？</strong></p>","0",""
"","","","","","html-keyboard-response","110","216305","0.0-4.0-0.53","205","1","2022-10-11 05:52:02","d60b49b5908c80e163b920d72b52d584","202.204.188.29","Mozilla/5.0 (Linux; Android 10; HarmonyOS; ANA-AN00; HMSCore 6.7.0.322) AppleWebKit/537.36 (KHTML, like Gecko) Chrome/88.0.4324.93 HuaweiBrowser/11.1.2.332 Mobile Safari/537.36","WebKit","Chrome","88.0.4324.93","AndroidOS","10","null","<div style=""font-size:60px;"">+</div>","null",""
"","","","","","html-button-response","111","217156","0.0-4.0-1.53","205","1","2022-10-11 05:52:02","d60b49b5908c80e163b920d72b52d584","202.204.188.29","Mozilla/5.0 (Linux; Android 10; HarmonyOS; ANA-AN00; HMSCore 6.7.0.322) AppleWebKit/537.36 (KHTML, like Gecko) Chrome/88.0.4324.93 HuaweiBrowser/11.1.2.332 Mobile Safari/537.36","WebKit","Chrome","88.0.4324.93","AndroidOS","10","844","<p>作为军队的指挥官，你可以选择发射导弹杀死 <strong>1名</strong> 敌国士兵，但会误杀附近的 <strong>1名</strong> 敌国平民。</p> <p>平民照片如下图所示。</p> <p></p> <img src='stimuli/faces/NCM2.jpg', style='max-width: 30%;'> </img> <p><strong>你是否选择发射武器？</strong></p>","1",""
"","","","","","html-keyboard-response","112","218163","0.0-4.0-0.54","205","1","2022-10-11 05:52:02","d60b49b5908c80e163b920d72b52d584","202.204.188.29","Mozilla/5.0 (Linux; Android 10; HarmonyOS; ANA-AN00; HMSCore 6.7.0.322) AppleWebKit/537.36 (KHTML, like Gecko) Chrome/88.0.4324.93 HuaweiBrowser/11.1.2.332 Mobile Safari/537.36","WebKit","Chrome","88.0.4324.93","AndroidOS","10","null","<div style=""font-size:60px;"">+</div>","null",""
"","","","","","html-button-response","113","218988","0.0-4.0-1.54","205","1","2022-10-11 05:52:02","d60b49b5908c80e163b920d72b52d584","202.204.188.29","Mozilla/5.0 (Linux; Android 10; HarmonyOS; ANA-AN00; HMSCore 6.7.0.322) AppleWebKit/537.36 (KHTML, like Gecko) Chrome/88.0.4324.93 HuaweiBrowser/11.1.2.332 Mobile Safari/537.36","WebKit","Chrome","88.0.4324.93","AndroidOS","10","818","<p>作为军队的指挥官，你可以选择发射导弹杀死 <strong>5名</strong> 敌国士兵，但会炸毁附近的 <strong>1棵</strong> 敌国树木。</p> <p>树木的照片如下图所示。</p> <p></p> <img src='stimuli/trees/16.png', style='max-width: 30%;'> </img> <p><strong>你是否选择发射武器？</strong></p>","0",""
"","","","","","html-keyboard-response","114","219996","0.0-4.0-0.55","205","1","2022-10-11 05:52:02","d60b49b5908c80e163b920d72b52d584","202.204.188.29","Mozilla/5.0 (Linux; Android 10; HarmonyOS; ANA-AN00; HMSCore 6.7.0.322) AppleWebKit/537.36 (KHTML, like Gecko) Chrome/88.0.4324.93 HuaweiBrowser/11.1.2.332 Mobile Safari/537.36","WebKit","Chrome","88.0.4324.93","AndroidOS","10","null","<div style=""font-size:60px;"">+</div>","null",""
"","","","","","html-button-response","115","220671","0.0-4.0-1.55","205","1","2022-10-11 05:52:02","d60b49b5908c80e163b920d72b52d584","202.204.188.29","Mozilla/5.0 (Linux; Android 10; HarmonyOS; ANA-AN00; HMSCore 6.7.0.322) AppleWebKit/537.36 (KHTML, like Gecko) Chrome/88.0.4324.93 HuaweiBrowser/11.1.2.332 Mobile Safari/537.36","WebKit","Chrome","88.0.4324.93","AndroidOS","10","666","<p>作为军队的指挥官，你可以选择发射导弹杀死 <strong>5名</strong> 敌国士兵，但会误杀附近的 <strong>1名</strong> 敌国平民。</p> <p>平民照片如下图所示。</p> <p></p> <img src='stimuli/faces/NCM3.jpg', style='max-width: 30%;'> </img> <p><strong>你是否选择发射武器？</strong></p>","0",""
"","","","","","html-keyboard-response","116","221681","0.0-4.0-0.56","205","1","2022-10-11 05:52:02","d60b49b5908c80e163b920d72b52d584","202.204.188.29","Mozilla/5.0 (Linux; Android 10; HarmonyOS; ANA-AN00; HMSCore 6.7.0.322) AppleWebKit/537.36 (KHTML, like Gecko) Chrome/88.0.4324.93 HuaweiBrowser/11.1.2.332 Mobile Safari/537.36","WebKit","Chrome","88.0.4324.93","AndroidOS","10","null","<div style=""font-size:60px;"">+</div>","null",""
"","","","","","html-button-response","117","222424","0.0-4.0-1.56","205","1","2022-10-11 05:52:02","d60b49b5908c80e163b920d72b52d584","202.204.188.29","Mozilla/5.0 (Linux; Android 10; HarmonyOS; ANA-AN00; HMSCore 6.7.0.322) AppleWebKit/537.36 (KHTML, like Gecko) Chrome/88.0.4324.93 HuaweiBrowser/11.1.2.332 Mobile Safari/537.36","WebKit","Chrome","88.0.4324.93","AndroidOS","10","736","<p>作为军队的指挥官，你可以选择发射导弹杀死 <strong>9名</strong> 敌国士兵，但会误杀附近的 <strong>1名</strong> 敌国平民。</p> <p>平民照片如下图所示。</p> <p></p> <img src='stimuli/faces/NCM5.jpg', style='max-width: 30%;'> </img> <p><strong>你是否选择发射武器？</strong></p>","0",""
"","","","","","html-keyboard-response","118","223431","0.0-4.0-0.57","205","1","2022-10-11 05:52:02","d60b49b5908c80e163b920d72b52d584","202.204.188.29","Mozilla/5.0 (Linux; Android 10; HarmonyOS; ANA-AN00; HMSCore 6.7.0.322) AppleWebKit/537.36 (KHTML, like Gecko) Chrome/88.0.4324.93 HuaweiBrowser/11.1.2.332 Mobile Safari/537.36","WebKit","Chrome","88.0.4324.93","AndroidOS","10","null","<div style=""font-size:60px;"">+</div>","null",""
"","","","","","html-button-response","119","224459","0.0-4.0-1.57","205","1","2022-10-11 05:52:02","d60b49b5908c80e163b920d72b52d584","202.204.188.29","Mozilla/5.0 (Linux; Android 10; HarmonyOS; ANA-AN00; HMSCore 6.7.0.322) AppleWebKit/537.36 (KHTML, like Gecko) Chrome/88.0.4324.93 HuaweiBrowser/11.1.2.332 Mobile Safari/537.36","WebKit","Chrome","88.0.4324.93","AndroidOS","10","1021","<p>作为军队的指挥官，你可以选择发射导弹杀死 <strong>3名</strong> 敌国士兵，但会误杀附近的 <strong>1名</strong> 敌国平民。</p> <p>平民照片如下图所示。</p> <p></p> <img src='stimuli/faces/NCM8.jpg', style='max-width: 30%;'> </img> <p><strong>你是否选择发射武器？</strong></p>","0",""
"","","","","","html-keyboard-response","120","225466","0.0-4.0-0.58","205","1","2022-10-11 05:52:02","d60b49b5908c80e163b920d72b52d584","202.204.188.29","Mozilla/5.0 (Linux; Android 10; HarmonyOS; ANA-AN00; HMSCore 6.7.0.322) AppleWebKit/537.36 (KHTML, like Gecko) Chrome/88.0.4324.93 HuaweiBrowser/11.1.2.332 Mobile Safari/537.36","WebKit","Chrome","88.0.4324.93","AndroidOS","10","null","<div style=""font-size:60px;"">+</div>","null",""
"","","","","","html-button-response","121","226259","0.0-4.0-1.58","205","1","2022-10-11 05:52:02","d60b49b5908c80e163b920d72b52d584","202.204.188.29","Mozilla/5.0 (Linux; Android 10; HarmonyOS; ANA-AN00; HMSCore 6.7.0.322) AppleWebKit/537.36 (KHTML, like Gecko) Chrome/88.0.4324.93 HuaweiBrowser/11.1.2.332 Mobile Safari/537.36","WebKit","Chrome","88.0.4324.93","AndroidOS","10","785","<p>作为军队的指挥官，你可以选择发射导弹杀死 <strong>5名</strong> 敌国士兵，但会炸毁附近的 <strong>1棵</strong> 敌国树木。</p> <p>树木的照片如下图所示。</p> <p></p> <img src='stimuli/trees/8.png', style='max-width: 30%;'> </img> <p><strong>你是否选择发射武器？</strong></p>","0",""
"","","","","","html-keyboard-response","122","227271","0.0-4.0-0.59","205","1","2022-10-11 05:52:02","d60b49b5908c80e163b920d72b52d584","202.204.188.29","Mozilla/5.0 (Linux; Android 10; HarmonyOS; ANA-AN00; HMSCore 6.7.0.322) AppleWebKit/537.36 (KHTML, like Gecko) Chrome/88.0.4324.93 HuaweiBrowser/11.1.2.332 Mobile Safari/537.36","WebKit","Chrome","88.0.4324.93","AndroidOS","10","null","<div style=""font-size:60px;"">+</div>","null",""
"","","","","","html-button-response","123","229147","0.0-4.0-1.59","205","1","2022-10-11 05:52:02","d60b49b5908c80e163b920d72b52d584","202.204.188.29","Mozilla/5.0 (Linux; Android 10; HarmonyOS; ANA-AN00; HMSCore 6.7.0.322) AppleWebKit/537.36 (KHTML, like Gecko) Chrome/88.0.4324.93 HuaweiBrowser/11.1.2.332 Mobile Safari/537.36","WebKit","Chrome","88.0.4324.93","AndroidOS","10","1869","<p>作为军队的指挥官，你可以选择发射导弹杀死 <strong>3名</strong> 敌国士兵，但会炸毁附近的 <strong>1棵</strong> 敌国树木。</p> <p>树木的照片如下图所示。</p> <p></p> <img src='stimuli/trees/2.png', style='max-width: 30%;'> </img> <p><strong>你是否选择发射武器？</strong></p>","0",""
"","","","","","html-keyboard-response","124","230153","0.0-4.0-0.60","205","1","2022-10-11 05:52:02","d60b49b5908c80e163b920d72b52d584","202.204.188.29","Mozilla/5.0 (Linux; Android 10; HarmonyOS; ANA-AN00; HMSCore 6.7.0.322) AppleWebKit/537.36 (KHTML, like Gecko) Chrome/88.0.4324.93 HuaweiBrowser/11.1.2.332 Mobile Safari/537.36","WebKit","Chrome","88.0.4324.93","AndroidOS","10","null","<div style=""font-size:60px;"">+</div>","null",""
"","","","","","html-button-response","125","230998","0.0-4.0-1.60","205","1","2022-10-11 05:52:02","d60b49b5908c80e163b920d72b52d584","202.204.188.29","Mozilla/5.0 (Linux; Android 10; HarmonyOS; ANA-AN00; HMSCore 6.7.0.322) AppleWebKit/537.36 (KHTML, like Gecko) Chrome/88.0.4324.93 HuaweiBrowser/11.1.2.332 Mobile Safari/537.36","WebKit","Chrome","88.0.4324.93","AndroidOS","10","836","<p>作为军队的指挥官，你可以选择发射导弹杀死 <strong>1名</strong> 敌国士兵，但会炸毁附近的 <strong>1棵</strong> 敌国树木。</p> <p>树木的照片如下图所示。</p> <p></p> <img src='stimuli/trees/3.png', style='max-width: 30%;'> </img> <p><strong>你是否选择发射武器？</strong></p>","1",""
"","","","","","html-keyboard-response","126","232006","0.0-4.0-0.61","205","1","2022-10-11 05:52:02","d60b49b5908c80e163b920d72b52d584","202.204.188.29","Mozilla/5.0 (Linux; Android 10; HarmonyOS; ANA-AN00; HMSCore 6.7.0.322) AppleWebKit/537.36 (KHTML, like Gecko) Chrome/88.0.4324.93 HuaweiBrowser/11.1.2.332 Mobile Safari/537.36","WebKit","Chrome","88.0.4324.93","AndroidOS","10","null","<div style=""font-size:60px;"">+</div>","null",""
"","","","","","html-button-response","127","233084","0.0-4.0-1.61","205","1","2022-10-11 05:52:02","d60b49b5908c80e163b920d72b52d584","202.204.188.29","Mozilla/5.0 (Linux; Android 10; HarmonyOS; ANA-AN00; HMSCore 6.7.0.322) AppleWebKit/537.36 (KHTML, like Gecko) Chrome/88.0.4324.93 HuaweiBrowser/11.1.2.332 Mobile Safari/537.36","WebKit","Chrome","88.0.4324.93","AndroidOS","10","1067","<p>作为军队的指挥官，你可以选择发射导弹杀死 <strong>5名</strong> 敌国士兵，但会误杀附近的 <strong>1名</strong> 敌国平民。</p> <p>平民照片如下图所示。</p> <p></p> <img src='stimuli/faces/NCM4.jpg', style='max-width: 30%;'> </img> <p><strong>你是否选择发射武器？</strong></p>","0",""
"","","","","","html-keyboard-response","128","234091","0.0-4.0-0.62","205","1","2022-10-11 05:52:02","d60b49b5908c80e163b920d72b52d584","202.204.188.29","Mozilla/5.0 (Linux; Android 10; HarmonyOS; ANA-AN00; HMSCore 6.7.0.322) AppleWebKit/537.36 (KHTML, like Gecko) Chrome/88.0.4324.93 HuaweiBrowser/11.1.2.332 Mobile Safari/537.36","WebKit","Chrome","88.0.4324.93","AndroidOS","10","null","<div style=""font-size:60px;"">+</div>","null",""
"","","","","","html-button-response","129","234876","0.0-4.0-1.62","205","1","2022-10-11 05:52:02","d60b49b5908c80e163b920d72b52d584","202.204.188.29","Mozilla/5.0 (Linux; Android 10; HarmonyOS; ANA-AN00; HMSCore 6.7.0.322) AppleWebKit/537.36 (KHTML, like Gecko) Chrome/88.0.4324.93 HuaweiBrowser/11.1.2.332 Mobile Safari/537.36","WebKit","Chrome","88.0.4324.93","AndroidOS","10","773","<p>作为军队的指挥官，你可以选择发射导弹杀死 <strong>5名</strong> 敌国士兵，但会误杀附近的 <strong>1名</strong> 敌国平民。</p> <p>平民照片如下图所示。</p> <p></p> <img src='stimuli/faces/NCM6.jpg', style='max-width: 30%;'> </img> <p><strong>你是否选择发射武器？</strong></p>","0",""
"","","","","","html-keyboard-response","130","235887","0.0-4.0-0.63","205","1","2022-10-11 05:52:02","d60b49b5908c80e163b920d72b52d584","202.204.188.29","Mozilla/5.0 (Linux; Android 10; HarmonyOS; ANA-AN00; HMSCore 6.7.0.322) AppleWebKit/537.36 (KHTML, like Gecko) Chrome/88.0.4324.93 HuaweiBrowser/11.1.2.332 Mobile Safari/537.36","WebKit","Chrome","88.0.4324.93","AndroidOS","10","null","<div style=""font-size:60px;"">+</div>","null",""
"","","","","","html-button-response","131","236652","0.0-4.0-1.63","205","1","2022-10-11 05:52:02","d60b49b5908c80e163b920d72b52d584","202.204.188.29","Mozilla/5.0 (Linux; Android 10; HarmonyOS; ANA-AN00; HMSCore 6.7.0.322) AppleWebKit/537.36 (KHTML, like Gecko) Chrome/88.0.4324.93 HuaweiBrowser/11.1.2.332 Mobile Safari/537.36","WebKit","Chrome","88.0.4324.93","AndroidOS","10","758","<p>作为军队的指挥官，你可以选择发射导弹杀死 <strong>7名</strong> 敌国士兵，但会误杀附近的 <strong>1名</strong> 敌国平民。</p> <p>平民照片如下图所示。</p> <p></p> <img src='stimuli/faces/NCM2.jpg', style='max-width: 30%;'> </img> <p><strong>你是否选择发射武器？</strong></p>","0",""
"","","","","","survey-multi-choice","132","266215","0.0-5.0","205","1","2022-10-11 05:52:02","d60b49b5908c80e163b920d72b52d584","202.204.188.29","Mozilla/5.0 (Linux; Android 10; HarmonyOS; ANA-AN00; HMSCore 6.7.0.322) AppleWebKit/537.36 (KHTML, like Gecko) Chrome/88.0.4324.93 HuaweiBrowser/11.1.2.332 Mobile Safari/537.36","WebKit","Chrome","88.0.4324.93","AndroidOS","10","29549","","{""Attention1"":""""}","[0]"
"","","","","","html-button-response","133","268961","0.0-6.0","205","1","2022-10-11 05:52:02","d60b49b5908c80e163b920d72b52d584","202.204.188.29","Mozilla/5.0 (Linux; Android 10; HarmonyOS; ANA-AN00; HMSCore 6.7.0.322) AppleWebKit/537.36 (KHTML, like Gecko) Chrome/88.0.4324.93 HuaweiBrowser/11.1.2.332 Mobile Safari/537.36","WebKit","Chrome","88.0.4324.93","AndroidOS","10","2728","<p style=""font-size:20px;font-weight:bold;"">恭喜！</p><p>你已经完成了实验的第一部分。</p><p>请休息放松一下，然后进入第二部分。</p><p>这部分大约需要10分钟。</p>","0",""
"","","","","","survey-text","134","301414","0.0-7.0","205","1","2022-10-11 05:52:02","d60b49b5908c80e163b920d72b52d584","202.204.188.29","Mozilla/5.0 (Linux; Android 10; HarmonyOS; ANA-AN00; HMSCore 6.7.0.322) AppleWebKit/537.36 (KHTML, like Gecko) Chrome/88.0.4324.93 HuaweiBrowser/11.1.2.332 Mobile Safari/537.36","WebKit","Chrome","88.0.4324.93","AndroidOS","10","31432","","{""Age"":""20"",""Nation"":""中国"",""Born"":""山东省"",""Live"":""北京市"",""Ethnic"":""汉"",""Alipay"":""15029044592""}",""
"","","","","","survey-multi-choice","135","328400","0.0-8.0","205","1","2022-10-11 05:52:02","d60b49b5908c80e163b920d72b52d584","202.204.188.29","Mozilla/5.0 (Linux; Android 10; HarmonyOS; ANA-AN00; HMSCore 6.7.0.322) AppleWebKit/537.36 (KHTML, like Gecko) Chrome/88.0.4324.93 HuaweiBrowser/11.1.2.332 Mobile Safari/537.36","WebKit","Chrome","88.0.4324.93","AndroidOS","10","26977","","{""Gender"":""女"",""Education"":""高中毕业"",""Income"":""￥70,000-￥139,999"",""Children"":""0"",""Race"":""亚洲人""}","[0,1,2,3,4]"
"","","","","","survey-multi-select","136","338400","0.0-9.0","205","1","2022-10-11 05:52:02","d60b49b5908c80e163b920d72b52d584","202.204.188.29","Mozilla/5.0 (Linux; Android 10; HarmonyOS; ANA-AN00; HMSCore 6.7.0.322) AppleWebKit/537.36 (KHTML, like Gecko) Chrome/88.0.4324.93 HuaweiBrowser/11.1.2.332 Mobile Safari/537.36","WebKit","Chrome","88.0.4324.93","AndroidOS","10","9976","","{""Marriage"":[""未婚"",""其他""],""Religion"":[""无宗教信仰""]}","[0,1]"
"","","","","","survey-multi-choice","137","350231","0.0-10.0","205","1","2022-10-11 05:52:02","d60b49b5908c80e163b920d72b52d584","202.204.188.29","Mozilla/5.0 (Linux; Android 10; HarmonyOS; ANA-AN00; HMSCore 6.7.0.322) AppleWebKit/537.36 (KHTML, like Gecko) Chrome/88.0.4324.93 HuaweiBrowser/11.1.2.332 Mobile Safari/537.36","WebKit","Chrome","88.0.4324.93","AndroidOS","10","11812","","{""SES"":""5""}","[0]"
"","","","","","html-button-response","138","352700","0.0-11.0","205","1","2022-10-11 05:52:02","d60b49b5908c80e163b920d72b52d584","202.204.188.29","Mozilla/5.0 (Linux; Android 10; HarmonyOS; ANA-AN00; HMSCore 6.7.0.322) AppleWebKit/537.36 (KHTML, like Gecko) Chrome/88.0.4324.93 HuaweiBrowser/11.1.2.332 Mobile Safari/537.36","WebKit","Chrome","88.0.4324.93","AndroidOS","10","2454","<p><strong>请判断下列陈述在多大程度上可以形容你？</p><p> (1 = ""和我一点都不像"" to 5 = ""非常像我"".)</strong></p>","0",""
"","","","","","survey-likert","139","376534","0.0-12.0","205","1","2022-10-11 05:52:02","d60b49b5908c80e163b920d72b52d584","202.204.188.29","Mozilla/5.0 (Linux; Android 10; HarmonyOS; ANA-AN00; HMSCore 6.7.0.322) AppleWebKit/537.36 (KHTML, like Gecko) Chrome/88.0.4324.93 HuaweiBrowser/11.1.2.332 Mobile Safari/537.36","WebKit","Chrome","88.0.4324.93","AndroidOS","10","23820","","{""Aggression1"":3,""Aggression2"":0,""Aggression3"":4,""Aggression4"":0,""Aggression5"":3,""Aggression6"":2,""Aggression7"":0,""Aggression8"":2,""Aggression9"":4}","[0,1,2,3,4,5,6,7,8]"
"","","","","","html-button-response","140","377937","0.0-13.0","205","1","2022-10-11 05:52:02","d60b49b5908c80e163b920d72b52d584","202.204.188.29","Mozilla/5.0 (Linux; Android 10; HarmonyOS; ANA-AN00; HMSCore 6.7.0.322) AppleWebKit/537.36 (KHTML, like Gecko) Chrome/88.0.4324.93 HuaweiBrowser/11.1.2.332 Mobile Safari/537.36","WebKit","Chrome","88.0.4324.93","AndroidOS","10","1389","<p><strong>请判断你在多大程度上同意下列陈述。</strong></p>","0",""
"","","","","","survey-likert","141","447601","0.0-14.0","205","1","2022-10-11 05:52:02","d60b49b5908c80e163b920d72b52d584","202.204.188.29","Mozilla/5.0 (Linux; Android 10; HarmonyOS; ANA-AN00; HMSCore 6.7.0.322) AppleWebKit/537.36 (KHTML, like Gecko) Chrome/88.0.4324.93 HuaweiBrowser/11.1.2.332 Mobile Safari/537.36","WebKit","Chrome","88.0.4324.93","AndroidOS","10","69648","","{""scale12"":0,""scale10"":4,""scale14"":2,""scale11"":4,""scale7"":0,""scale6"":4,""scale24"":4,""scale26"":4,""scale25"":1,""scale20"":3,""scale5"":4,""scale28"":1,""scale1"":4,""scale15"":2,""scale4"":1,""scale3"":1,""scale8"":3,""scale2"":3,""scale22"":3,""scale21"":3,""scale23"":4,""scale18"":1,""scale19"":3,""scale9"":4,""scale17"":4,""scale13"":0,""scale27"":1,""scale16"":3}","[11,9,13,10,6,5,23,25,24,19,4,27,0,14,3,2,7,1,21,20,22,17,18,8,16,12,26,15]"
"","","","","","html-button-response","142","448582","0.0-15.0","205","1","2022-10-11 05:52:02","d60b49b5908c80e163b920d72b52d584","202.204.188.29","Mozilla/5.0 (Linux; Android 10; HarmonyOS; ANA-AN00; HMSCore 6.7.0.322) AppleWebKit/537.36 (KHTML, like Gecko) Chrome/88.0.4324.93 HuaweiBrowser/11.1.2.332 Mobile Safari/537.36","WebKit","Chrome","88.0.4324.93","AndroidOS","10","965","<p><strong>请判断你在多大程度上同意下列陈述。</strong></p>","0",""
"","","","","","survey-likert","143","501621","0.0-16.0","205","1","2022-10-11 05:52:02","d60b49b5908c80e163b920d72b52d584","202.204.188.29","Mozilla/5.0 (Linux; Android 10; HarmonyOS; ANA-AN00; HMSCore 6.7.0.322) AppleWebKit/537.36 (KHTML, like Gecko) Chrome/88.0.4324.93 HuaweiBrowser/11.1.2.332 Mobile Safari/537.36","WebKit","Chrome","88.0.4324.93","AndroidOS","10","53023","","{""sdo8"":0,""sdo16"":6,""sdo12"":6,""sdo5"":3,""sdo7"":0,""sdo10"":6,""sdo11"":6,""sdo15"":6,""sdo4"":4,""sdo9"":3,""sdo2"":0,""sdo3"":1,""sdo1"":0,""sdo14"":6,""sdo6"":3,""sdo13"":6}","[7,15,11,4,6,9,10,14,3,8,1,2,0,13,5,12]"
"","","","","","html-button-response","144","502697","0.0-17.0","205","1","2022-10-11 05:52:02","d60b49b5908c80e163b920d72b52d584","202.204.188.29","Mozilla/5.0 (Linux; Android 10; HarmonyOS; ANA-AN00; HMSCore 6.7.0.322) AppleWebKit/537.36 (KHTML, like Gecko) Chrome/88.0.4324.93 HuaweiBrowser/11.1.2.332 Mobile Safari/537.36","WebKit","Chrome","88.0.4324.93","AndroidOS","10","1061","<p><strong>请判断你在多大程度上同意下列陈述。</strong></p>","0",""
"","","","","","survey-likert","145","535867","0.0-18.0","205","1","2022-10-11 05:52:02","d60b49b5908c80e163b920d72b52d584","202.204.188.29","Mozilla/5.0 (Linux; Android 10; HarmonyOS; ANA-AN00; HMSCore 6.7.0.322) AppleWebKit/537.36 (KHTML, like Gecko) Chrome/88.0.4324.93 HuaweiBrowser/11.1.2.332 Mobile Safari/537.36","WebKit","Chrome","88.0.4324.93","AndroidOS","10","33156","","{""caring1"":2,""liking1"":3,""caring2"":3,""protection1"":2,""liking2"":2,""caring3"":2,""protection2"":0,""liking3"":2,""protection3"":4,""caring4"":4,""liking4"":2,""protection4"":4,""caring5"":4,""liking5"":3,""protection5"":3}","[0,1,2,3,4,5,6,7,8,9,10,11,12,13,14]"
"","","","","","html-button-response","146","536803","0.0-19.0","205","1","2022-10-11 05:52:02","d60b49b5908c80e163b920d72b52d584","202.204.188.29","Mozilla/5.0 (Linux; Android 10; HarmonyOS; ANA-AN00; HMSCore 6.7.0.322) AppleWebKit/537.36 (KHTML, like Gecko) Chrome/88.0.4324.93 HuaweiBrowser/11.1.2.332 Mobile Safari/537.36","WebKit","Chrome","88.0.4324.93","AndroidOS","10","922","<p><strong>请判断下列场景中你的内心感受有多柔软。</strong></p>","0",""
"","","","","","survey-likert","147","556273","0.0-20.0","205","1","2022-10-11 05:52:02","d60b49b5908c80e163b920d72b52d584","202.204.188.29","Mozilla/5.0 (Linux; Android 10; HarmonyOS; ANA-AN00; HMSCore 6.7.0.322) AppleWebKit/537.36 (KHTML, like Gecko) Chrome/88.0.4324.93 HuaweiBrowser/11.1.2.332 Mobile Safari/537.36","WebKit","Chrome","88.0.4324.93","AndroidOS","10","19459","","{""tenderness-positive1"":4,""tenderness-negative1"":1,""tenderness-negative2"":0,""tenderness-positive2"":3,""tenderness-positive3"":4,""tenderness-negative3"":2,""tenderness-positive4"":3,""tendereness-negative4"":1,""tendernness-negative5"":1,""tenderness-positive5"":3}","[0,1,2,3,4,5,6,7,8,9]"
"","","","","","survey-multi-choice","148","562217","0.0-21.0","205","1","2022-10-11 05:52:02","d60b49b5908c80e163b920d72b52d584","202.204.188.29","Mozilla/5.0 (Linux; Android 10; HarmonyOS; ANA-AN00; HMSCore 6.7.0.322) AppleWebKit/537.36 (KHTML, like Gecko) Chrome/88.0.4324.93 HuaweiBrowser/11.1.2.332 Mobile Safari/537.36","WebKit","Chrome","88.0.4324.93","AndroidOS","10","5927","","{""Attention2"":""其他""}","[0]"
"","","","","","html-button-response","149","563185","0.0-22.0","205","1","2022-10-11 05:52:02","d60b49b5908c80e163b920d72b52d584","202.204.188.29","Mozilla/5.0 (Linux; Android 10; HarmonyOS; ANA-AN00; HMSCore 6.7.0.322) AppleWebKit/537.36 (KHTML, like Gecko) Chrome/88.0.4324.93 HuaweiBrowser/11.1.2.332 Mobile Safari/537.36","WebKit","Chrome","88.0.4324.93","AndroidOS","10","953","<p><strong>请判断你在多大程度上同意下列陈述。</strong></p>","0",""
"","","","","","survey-likert","150","612035","0.0-23.0","205","1","2022-10-11 05:52:02","d60b49b5908c80e163b920d72b52d584","202.204.188.29","Mozilla/5.0 (Linux; Android 10; HarmonyOS; ANA-AN00; HMSCore 6.7.0.322) AppleWebKit/537.36 (KHTML, like Gecko) Chrome/88.0.4324.93 HuaweiBrowser/11.1.2.332 Mobile Safari/537.36","WebKit","Chrome","88.0.4324.93","AndroidOS","10","48835","","{""Patri6"":2,""Nation1"":0,""Patri8"":3,""Patri9"":1,""Nation5"":1,""Nation2"":2,""Patri7"":3,""Nation4"":1,""Patri11"":1,""Patri2"":3,""Nation8"":3,""Patri5"":3,""Patri3"":3,""Patri4"":3,""Nation6"":1,""Patri10"":1,""Nation3"":1,""Patri1"":3,""Patri12"":2,""Nation7"":2}","[5,12,7,8,16,13,6,15,10,1,19,4,2,3,17,9,14,0,11,18]"
"","","","","","html-button-response","151","612942","0.0-24.0","205","1","2022-10-11 05:52:02","d60b49b5908c80e163b920d72b52d584","202.204.188.29","Mozilla/5.0 (Linux; Android 10; HarmonyOS; ANA-AN00; HMSCore 6.7.0.322) AppleWebKit/537.36 (KHTML, like Gecko) Chrome/88.0.4324.93 HuaweiBrowser/11.1.2.332 Mobile Safari/537.36","WebKit","Chrome","88.0.4324.93","AndroidOS","10","892","<p><strong>请判断你在多大程度上同意下列陈述。</strong></p>","0",""
"","","","","","survey-likert","152","652550","0.0-25.0","205","1","2022-10-11 05:52:02","d60b49b5908c80e163b920d72b52d584","202.204.188.29","Mozilla/5.0 (Linux; Android 10; HarmonyOS; ANA-AN00; HMSCore 6.7.0.322) AppleWebKit/537.36 (KHTML, like Gecko) Chrome/88.0.4324.93 HuaweiBrowser/11.1.2.332 Mobile Safari/537.36","WebKit","Chrome","88.0.4324.93","AndroidOS","10","39591","","{""vc2"":8,""vc1"":8,""hc1"":8,""vi2"":5,""vc3"":5,""vc4"":8,""vi4"":7,""hc3"":8,""vi3"":7,""hi3"":3,""hi2"":3,""hc2"":7,""hc4"":6,""hi4"":5,""hi1"":5,""vi1"":6,""Robot"":6}","[14,13,9,5,15,16,8,11,6,2,1,10,12,3,0,4,7]"
"","","","","","survey-text","153","656507","0.0-26.0","205","1","2022-10-11 05:52:02","d60b49b5908c80e163b920d72b52d584","202.204.188.29","Mozilla/5.0 (Linux; Android 10; HarmonyOS; ANA-AN00; HMSCore 6.7.0.322) AppleWebKit/537.36 (KHTML, like Gecko) Chrome/88.0.4324.93 HuaweiBrowser/11.1.2.332 Mobile Safari/537.36","WebKit","Chrome","88.0.4324.93","AndroidOS","10","3940","","{""Comments"":""挺好""}",""
"","","","","","html-button-response","154","657445","0.0-27.0","205","1","2022-10-11 05:52:02","d60b49b5908c80e163b920d72b52d584","202.204.188.29","Mozilla/5.0 (Linux; Android 10; HarmonyOS; ANA-AN00; HMSCore 6.7.0.322) AppleWebKit/537.36 (KHTML, like Gecko) Chrome/88.0.4324.93 HuaweiBrowser/11.1.2.332 Mobile Safari/537.36","WebKit","Chrome","88.0.4324.93","AndroidOS","10","928","<strong><p>恭喜你完成了实验！</p><p>感谢您的参与。</p></strong>","0",""
