"success","timeout","failed_images","failed_audio","failed_video","trial_type","trial_index","time_elapsed","internal_node_id","run_id","condition","recorded_at","source_code_version","ip","user_agent","device","browser","browser_version","platform","platform_version","rt","stimulus","response","question_order"
"true","false","[]","[]","[]","preload","0","4833","0.0-0.0","208","1","2022-10-11 07:47:15","d60b49b5908c80e163b920d72b52d584","39.144.143.176","Mozilla/5.0 (Windows NT 10.0; Win64; x64; rv:105.0) Gecko/20100101 Firefox/105.0","","Firefox","105.0","Windows","10.0","","","",""
"true","","","","","fullscreen","1","8612","0.0-1.0","208","1","2022-10-11 07:47:15","d60b49b5908c80e163b920d72b52d584","39.144.143.176","Mozilla/5.0 (Windows NT 10.0; Win64; x64; rv:105.0) Gecko/20100101 Firefox/105.0","","Firefox","105.0","Windows","10.0","","","",""
"","","","","","html-button-response","2","21498","0.0-2.0","208","1","2022-10-11 07:47:15","d60b49b5908c80e163b920d72b52d584","39.144.143.176","Mozilla/5.0 (Windows NT 10.0; Win64; x64; rv:105.0) Gecko/20100101 Firefox/105.0","","Firefox","105.0","Windows","10.0","12883","<p style=""font-size:20px;font-weight:bold;"">实验知情同意书</p><p style=""text-align:left;""><strong>实验名称：</strong>社会冲突研究</p><p style=""text-align:left;""><strong>主要研究者：</strong>韩晓春副教授（北京师范大学心理学部）</p><p style=""text-align:left;""><strong>联系方式：</strong>发送邮件至xiaochun.han@bnu.edu.cn</p><p style=""text-align:left;""><strong>研究目的：</strong>研究旨在了解人类面对群体冲突时的决策方式，以及相关的心理学特质。实验调查大约需要20分钟。</p><p style=""text-align:left;""><strong>实验流程：</strong>实验包含两部分。第一部分呈现一系列群体冲突场景，请你决定如何对这些冲突进行反应，大约需要10分钟完成。第二部分包含一系列人口统计学信息收集和心理学问卷，大约需要10分钟完成。</p><p style=""text-align:left;""><strong>参加及退出规则：</strong>参加本实验完全取决于您的个人意愿。在参与过程中，您可以随时退出，并且不用承担任何后果。</p><p style=""text-align:left;""><strong>隐私：</strong>本实验完全匿名进行，不会收集您的姓名或其他能够识别您身份的信息。实验中收集的作答仅用作科学研究使用，可能会在学术期刊/书籍上发表，或者用于教学，您的数据未来可能会和其他研究者或实验室分享，但您的个人身份不会被识别。</p><p style=""text-align:left;""><strong>实验报酬：</strong>实验完成后，您将获得15元人民币报酬，以感谢您的时间和努力。调查问卷中包含几道题目用以测验您作答时的认真度。只有完成全部实验，并且正确回答认真度测验的被试才能获得实验报酬。实验报酬将通过支付宝转账发放。</p><p style=""text-align:left;font-size:20px;""><strong>如果您同意以上实验知情同意书的内容，请点击'同意并且开始实验'按钮；否则请关闭浏览器界面，退出实验。</strong></p>","0",""
"","","","","","html-button-response","3","32668","0.0-3.0","208","1","2022-10-11 07:47:15","d60b49b5908c80e163b920d72b52d584","39.144.143.176","Mozilla/5.0 (Windows NT 10.0; Win64; x64; rv:105.0) Gecko/20100101 Firefox/105.0","","Firefox","105.0","Windows","10.0","11168","<p ><strong>实验任务一：</strong></p><p>请想象你的国家与另一个国家发生了军事冲突。</p><p>你是国家军队的指挥官，你将如何在冲突中进行决策。</p><p>具体来说，作为军队指挥官，请你决定是否发射导弹进行打击。</p><p>接下来，你会面对一系列场景，请仔细阅读每个场景，然后进行决策。</p><p>这部分实验任务大约需要10分钟。</p><p><strong>实验过程中，请集中注意力。</strong></p>","0",""
"","","","","","html-keyboard-response","4","33669","0.0-4.0-0.0","208","1","2022-10-11 07:47:15","d60b49b5908c80e163b920d72b52d584","39.144.143.176","Mozilla/5.0 (Windows NT 10.0; Win64; x64; rv:105.0) Gecko/20100101 Firefox/105.0","","Firefox","105.0","Windows","10.0","null","<div style=""font-size:60px;"">+</div>","null",""
"","","","","","html-button-response","5","51374","0.0-4.0-1.0","208","1","2022-10-11 07:47:15","d60b49b5908c80e163b920d72b52d584","39.144.143.176","Mozilla/5.0 (Windows NT 10.0; Win64; x64; rv:105.0) Gecko/20100101 Firefox/105.0","","Firefox","105.0","Windows","10.0","17703","<p>作为军队的指挥官，你可以选择发射导弹杀死 <strong>3名</strong> 敌国士兵，但会炸毁附近的 <strong>1棵</strong> 敌国树木。</p> <p>树木的照片如下图所示。</p> <p></p> <img src='stimuli/trees/10.png', style='max-width: 30%;'> </img> <p><strong>你是否选择发射武器？</strong></p>","0",""
"","","","","","html-keyboard-response","6","52376","0.0-4.0-0.1","208","1","2022-10-11 07:47:15","d60b49b5908c80e163b920d72b52d584","39.144.143.176","Mozilla/5.0 (Windows NT 10.0; Win64; x64; rv:105.0) Gecko/20100101 Firefox/105.0","","Firefox","105.0","Windows","10.0","null","<div style=""font-size:60px;"">+</div>","null",""
"","","","","","html-button-response","7","58707","0.0-4.0-1.1","208","1","2022-10-11 07:47:15","d60b49b5908c80e163b920d72b52d584","39.144.143.176","Mozilla/5.0 (Windows NT 10.0; Win64; x64; rv:105.0) Gecko/20100101 Firefox/105.0","","Firefox","105.0","Windows","10.0","6329","<p>作为军队的指挥官，你可以选择发射导弹杀死 <strong>2名</strong> 敌国士兵，但会误杀附近的 <strong>1名</strong> 敌国平民。</p> <p>平民照片如下图所示。</p> <p></p> <img src='stimuli/faces/NCF8.jpg', style='max-width: 30%;'> </img> <p><strong>你是否选择发射武器？</strong></p>","1",""
"","","","","","html-keyboard-response","8","59709","0.0-4.0-0.2","208","1","2022-10-11 07:47:15","d60b49b5908c80e163b920d72b52d584","39.144.143.176","Mozilla/5.0 (Windows NT 10.0; Win64; x64; rv:105.0) Gecko/20100101 Firefox/105.0","","Firefox","105.0","Windows","10.0","null","<div style=""font-size:60px;"">+</div>","null",""
"","","","","","html-button-response","9","71458","0.0-4.0-1.2","208","1","2022-10-11 07:47:15","d60b49b5908c80e163b920d72b52d584","39.144.143.176","Mozilla/5.0 (Windows NT 10.0; Win64; x64; rv:105.0) Gecko/20100101 Firefox/105.0","","Firefox","105.0","Windows","10.0","11749","<p>作为军队的指挥官，你可以选择发射导弹杀死 <strong>3名</strong> 敌国士兵，但会炸毁附近的 <strong>1棵</strong> 敌国树木。</p> <p>树木的照片如下图所示。</p> <p></p> <img src='stimuli/trees/6.png', style='max-width: 30%;'> </img> <p><strong>你是否选择发射武器？</strong></p>","0",""
"","","","","","html-keyboard-response","10","72461","0.0-4.0-0.3","208","1","2022-10-11 07:47:15","d60b49b5908c80e163b920d72b52d584","39.144.143.176","Mozilla/5.0 (Windows NT 10.0; Win64; x64; rv:105.0) Gecko/20100101 Firefox/105.0","","Firefox","105.0","Windows","10.0","null","<div style=""font-size:60px;"">+</div>","null",""
"","","","","","html-button-response","11","92668","0.0-4.0-1.3","208","1","2022-10-11 07:47:15","d60b49b5908c80e163b920d72b52d584","39.144.143.176","Mozilla/5.0 (Windows NT 10.0; Win64; x64; rv:105.0) Gecko/20100101 Firefox/105.0","","Firefox","105.0","Windows","10.0","20205","<p>作为军队的指挥官，你可以选择发射导弹杀死 <strong>1名</strong> 敌国士兵，但会炸毁附近的 <strong>1棵</strong> 敌国树木。</p> <p>树木的照片如下图所示。</p> <p></p> <img src='stimuli/trees/12.png', style='max-width: 30%;'> </img> <p><strong>你是否选择发射武器？</strong></p>","0",""
"","","","","","html-keyboard-response","12","93670","0.0-4.0-0.4","208","1","2022-10-11 07:47:15","d60b49b5908c80e163b920d72b52d584","39.144.143.176","Mozilla/5.0 (Windows NT 10.0; Win64; x64; rv:105.0) Gecko/20100101 Firefox/105.0","","Firefox","105.0","Windows","10.0","null","<div style=""font-size:60px;"">+</div>","null",""
"","","","","","html-button-response","13","125035","0.0-4.0-1.4","208","1","2022-10-11 07:47:15","d60b49b5908c80e163b920d72b52d584","39.144.143.176","Mozilla/5.0 (Windows NT 10.0; Win64; x64; rv:105.0) Gecko/20100101 Firefox/105.0","","Firefox","105.0","Windows","10.0","31363","<p>作为军队的指挥官，你可以选择发射导弹杀死 <strong>1名</strong> 敌国士兵，但会误杀附近的 <strong>1名</strong> 敌国平民。</p> <p>平民照片如下图所示。</p> <p></p> <img src='stimuli/faces/NCM5.jpg', style='max-width: 30%;'> </img> <p><strong>你是否选择发射武器？</strong></p>","0",""
"","","","","","html-keyboard-response","14","126037","0.0-4.0-0.5","208","1","2022-10-11 07:47:15","d60b49b5908c80e163b920d72b52d584","39.144.143.176","Mozilla/5.0 (Windows NT 10.0; Win64; x64; rv:105.0) Gecko/20100101 Firefox/105.0","","Firefox","105.0","Windows","10.0","null","<div style=""font-size:60px;"">+</div>","null",""
"","","","","","html-button-response","15","130922","0.0-4.0-1.5","208","1","2022-10-11 07:47:15","d60b49b5908c80e163b920d72b52d584","39.144.143.176","Mozilla/5.0 (Windows NT 10.0; Win64; x64; rv:105.0) Gecko/20100101 Firefox/105.0","","Firefox","105.0","Windows","10.0","4883","<p>作为军队的指挥官，你可以选择发射导弹杀死 <strong>6名</strong> 敌国士兵，但会误杀附近的 <strong>1名</strong> 敌国平民。</p> <p>平民照片如下图所示。</p> <p></p> <img src='stimuli/faces/NCF8.jpg', style='max-width: 30%;'> </img> <p><strong>你是否选择发射武器？</strong></p>","0",""
"","","","","","html-keyboard-response","16","131925","0.0-4.0-0.6","208","1","2022-10-11 07:47:15","d60b49b5908c80e163b920d72b52d584","39.144.143.176","Mozilla/5.0 (Windows NT 10.0; Win64; x64; rv:105.0) Gecko/20100101 Firefox/105.0","","Firefox","105.0","Windows","10.0","null","<div style=""font-size:60px;"">+</div>","null",""
"","","","","","html-button-response","17","134427","0.0-4.0-1.6","208","1","2022-10-11 07:47:15","d60b49b5908c80e163b920d72b52d584","39.144.143.176","Mozilla/5.0 (Windows NT 10.0; Win64; x64; rv:105.0) Gecko/20100101 Firefox/105.0","","Firefox","105.0","Windows","10.0","2499","<p>作为军队的指挥官，你可以选择发射导弹杀死 <strong>9名</strong> 敌国士兵，但会误杀附近的 <strong>1名</strong> 敌国平民。</p> <p>平民照片如下图所示。</p> <p></p> <img src='stimuli/faces/NCM3.jpg', style='max-width: 30%;'> </img> <p><strong>你是否选择发射武器？</strong></p>","0",""
"","","","","","html-keyboard-response","18","135429","0.0-4.0-0.7","208","1","2022-10-11 07:47:15","d60b49b5908c80e163b920d72b52d584","39.144.143.176","Mozilla/5.0 (Windows NT 10.0; Win64; x64; rv:105.0) Gecko/20100101 Firefox/105.0","","Firefox","105.0","Windows","10.0","null","<div style=""font-size:60px;"">+</div>","null",""
"","","","","","html-button-response","19","143716","0.0-4.0-1.7","208","1","2022-10-11 07:47:15","d60b49b5908c80e163b920d72b52d584","39.144.143.176","Mozilla/5.0 (Windows NT 10.0; Win64; x64; rv:105.0) Gecko/20100101 Firefox/105.0","","Firefox","105.0","Windows","10.0","8285","<p>作为军队的指挥官，你可以选择发射导弹杀死 <strong>7名</strong> 敌国士兵，但会误杀附近的 <strong>1名</strong> 敌国平民。</p> <p>平民照片如下图所示。</p> <p></p> <img src='stimuli/faces/NCM1.jpg', style='max-width: 30%;'> </img> <p><strong>你是否选择发射武器？</strong></p>","0",""
"","","","","","html-keyboard-response","20","144718","0.0-4.0-0.8","208","1","2022-10-11 07:47:15","d60b49b5908c80e163b920d72b52d584","39.144.143.176","Mozilla/5.0 (Windows NT 10.0; Win64; x64; rv:105.0) Gecko/20100101 Firefox/105.0","","Firefox","105.0","Windows","10.0","null","<div style=""font-size:60px;"">+</div>","null",""
"","","","","","html-button-response","21","147507","0.0-4.0-1.8","208","1","2022-10-11 07:47:15","d60b49b5908c80e163b920d72b52d584","39.144.143.176","Mozilla/5.0 (Windows NT 10.0; Win64; x64; rv:105.0) Gecko/20100101 Firefox/105.0","","Firefox","105.0","Windows","10.0","2789","<p>作为军队的指挥官，你可以选择发射导弹杀死 <strong>2名</strong> 敌国士兵，但会误杀附近的 <strong>1名</strong> 敌国平民。</p> <p>平民照片如下图所示。</p> <p></p> <img src='stimuli/faces/NCF7.jpg', style='max-width: 30%;'> </img> <p><strong>你是否选择发射武器？</strong></p>","0",""
"","","","","","html-keyboard-response","22","148509","0.0-4.0-0.9","208","1","2022-10-11 07:47:15","d60b49b5908c80e163b920d72b52d584","39.144.143.176","Mozilla/5.0 (Windows NT 10.0; Win64; x64; rv:105.0) Gecko/20100101 Firefox/105.0","","Firefox","105.0","Windows","10.0","null","<div style=""font-size:60px;"">+</div>","null",""
"","","","","","html-button-response","23","151238","0.0-4.0-1.9","208","1","2022-10-11 07:47:15","d60b49b5908c80e163b920d72b52d584","39.144.143.176","Mozilla/5.0 (Windows NT 10.0; Win64; x64; rv:105.0) Gecko/20100101 Firefox/105.0","","Firefox","105.0","Windows","10.0","2728","<p>作为军队的指挥官，你可以选择发射导弹杀死 <strong>9名</strong> 敌国士兵，但会误杀附近的 <strong>1名</strong> 敌国平民。</p> <p>平民照片如下图所示。</p> <p></p> <img src='stimuli/faces/NCM7.jpg', style='max-width: 30%;'> </img> <p><strong>你是否选择发射武器？</strong></p>","0",""
"","","","","","html-keyboard-response","24","152239","0.0-4.0-0.10","208","1","2022-10-11 07:47:15","d60b49b5908c80e163b920d72b52d584","39.144.143.176","Mozilla/5.0 (Windows NT 10.0; Win64; x64; rv:105.0) Gecko/20100101 Firefox/105.0","","Firefox","105.0","Windows","10.0","null","<div style=""font-size:60px;"">+</div>","null",""
"","","","","","html-button-response","25","156051","0.0-4.0-1.10","208","1","2022-10-11 07:47:15","d60b49b5908c80e163b920d72b52d584","39.144.143.176","Mozilla/5.0 (Windows NT 10.0; Win64; x64; rv:105.0) Gecko/20100101 Firefox/105.0","","Firefox","105.0","Windows","10.0","3809","<p>作为军队的指挥官，你可以选择发射导弹杀死 <strong>5名</strong> 敌国士兵，但会炸毁附近的 <strong>1棵</strong> 敌国树木。</p> <p>树木的照片如下图所示。</p> <p></p> <img src='stimuli/trees/3.png', style='max-width: 30%;'> </img> <p><strong>你是否选择发射武器？</strong></p>","0",""
"","","","","","html-keyboard-response","26","157054","0.0-4.0-0.11","208","1","2022-10-11 07:47:15","d60b49b5908c80e163b920d72b52d584","39.144.143.176","Mozilla/5.0 (Windows NT 10.0; Win64; x64; rv:105.0) Gecko/20100101 Firefox/105.0","","Firefox","105.0","Windows","10.0","null","<div style=""font-size:60px;"">+</div>","null",""
"","","","","","html-button-response","27","158718","0.0-4.0-1.11","208","1","2022-10-11 07:47:15","d60b49b5908c80e163b920d72b52d584","39.144.143.176","Mozilla/5.0 (Windows NT 10.0; Win64; x64; rv:105.0) Gecko/20100101 Firefox/105.0","","Firefox","105.0","Windows","10.0","1662","<p>作为军队的指挥官，你可以选择发射导弹杀死 <strong>2名</strong> 敌国士兵，但会炸毁附近的 <strong>1棵</strong> 敌国树木。</p> <p>树木的照片如下图所示。</p> <p></p> <img src='stimuli/trees/16.png', style='max-width: 30%;'> </img> <p><strong>你是否选择发射武器？</strong></p>","0",""
"","","","","","html-keyboard-response","28","159719","0.0-4.0-0.12","208","1","2022-10-11 07:47:15","d60b49b5908c80e163b920d72b52d584","39.144.143.176","Mozilla/5.0 (Windows NT 10.0; Win64; x64; rv:105.0) Gecko/20100101 Firefox/105.0","","Firefox","105.0","Windows","10.0","null","<div style=""font-size:60px;"">+</div>","null",""
"","","","","","html-button-response","29","161621","0.0-4.0-1.12","208","1","2022-10-11 07:47:15","d60b49b5908c80e163b920d72b52d584","39.144.143.176","Mozilla/5.0 (Windows NT 10.0; Win64; x64; rv:105.0) Gecko/20100101 Firefox/105.0","","Firefox","105.0","Windows","10.0","1899","<p>作为军队的指挥官，你可以选择发射导弹杀死 <strong>6名</strong> 敌国士兵，但会炸毁附近的 <strong>1棵</strong> 敌国树木。</p> <p>树木的照片如下图所示。</p> <p></p> <img src='stimuli/trees/7.png', style='max-width: 30%;'> </img> <p><strong>你是否选择发射武器？</strong></p>","0",""
"","","","","","html-keyboard-response","30","162623","0.0-4.0-0.13","208","1","2022-10-11 07:47:15","d60b49b5908c80e163b920d72b52d584","39.144.143.176","Mozilla/5.0 (Windows NT 10.0; Win64; x64; rv:105.0) Gecko/20100101 Firefox/105.0","","Firefox","105.0","Windows","10.0","null","<div style=""font-size:60px;"">+</div>","null",""
"","","","","","html-button-response","31","168685","0.0-4.0-1.13","208","1","2022-10-11 07:47:15","d60b49b5908c80e163b920d72b52d584","39.144.143.176","Mozilla/5.0 (Windows NT 10.0; Win64; x64; rv:105.0) Gecko/20100101 Firefox/105.0","","Firefox","105.0","Windows","10.0","6061","<p>作为军队的指挥官，你可以选择发射导弹杀死 <strong>7名</strong> 敌国士兵，但会误杀附近的 <strong>1名</strong> 敌国平民。</p> <p>平民照片如下图所示。</p> <p></p> <img src='stimuli/faces/NCF4.jpg', style='max-width: 30%;'> </img> <p><strong>你是否选择发射武器？</strong></p>","0",""
"","","","","","html-keyboard-response","32","169687","0.0-4.0-0.14","208","1","2022-10-11 07:47:15","d60b49b5908c80e163b920d72b52d584","39.144.143.176","Mozilla/5.0 (Windows NT 10.0; Win64; x64; rv:105.0) Gecko/20100101 Firefox/105.0","","Firefox","105.0","Windows","10.0","null","<div style=""font-size:60px;"">+</div>","null",""
"","","","","","html-button-response","33","170738","0.0-4.0-1.14","208","1","2022-10-11 07:47:15","d60b49b5908c80e163b920d72b52d584","39.144.143.176","Mozilla/5.0 (Windows NT 10.0; Win64; x64; rv:105.0) Gecko/20100101 Firefox/105.0","","Firefox","105.0","Windows","10.0","1049","<p>作为军队的指挥官，你可以选择发射导弹杀死 <strong>8名</strong> 敌国士兵，但会炸毁附近的 <strong>1棵</strong> 敌国树木。</p> <p>树木的照片如下图所示。</p> <p></p> <img src='stimuli/trees/5.png', style='max-width: 30%;'> </img> <p><strong>你是否选择发射武器？</strong></p>","0",""
"","","","","","html-keyboard-response","34","171740","0.0-4.0-0.15","208","1","2022-10-11 07:47:15","d60b49b5908c80e163b920d72b52d584","39.144.143.176","Mozilla/5.0 (Windows NT 10.0; Win64; x64; rv:105.0) Gecko/20100101 Firefox/105.0","","Firefox","105.0","Windows","10.0","null","<div style=""font-size:60px;"">+</div>","null",""
"","","","","","html-button-response","35","174645","0.0-4.0-1.15","208","1","2022-10-11 07:47:15","d60b49b5908c80e163b920d72b52d584","39.144.143.176","Mozilla/5.0 (Windows NT 10.0; Win64; x64; rv:105.0) Gecko/20100101 Firefox/105.0","","Firefox","105.0","Windows","10.0","2904","<p>作为军队的指挥官，你可以选择发射导弹杀死 <strong>2名</strong> 敌国士兵，但会炸毁附近的 <strong>1棵</strong> 敌国树木。</p> <p>树木的照片如下图所示。</p> <p></p> <img src='stimuli/trees/11.png', style='max-width: 30%;'> </img> <p><strong>你是否选择发射武器？</strong></p>","0",""
"","","","","","html-keyboard-response","36","175647","0.0-4.0-0.16","208","1","2022-10-11 07:47:15","d60b49b5908c80e163b920d72b52d584","39.144.143.176","Mozilla/5.0 (Windows NT 10.0; Win64; x64; rv:105.0) Gecko/20100101 Firefox/105.0","","Firefox","105.0","Windows","10.0","null","<div style=""font-size:60px;"">+</div>","null",""
"","","","","","html-button-response","37","180283","0.0-4.0-1.16","208","1","2022-10-11 07:47:15","d60b49b5908c80e163b920d72b52d584","39.144.143.176","Mozilla/5.0 (Windows NT 10.0; Win64; x64; rv:105.0) Gecko/20100101 Firefox/105.0","","Firefox","105.0","Windows","10.0","4635","<p>作为军队的指挥官，你可以选择发射导弹杀死 <strong>9名</strong> 敌国士兵，但会误杀附近的 <strong>1名</strong> 敌国平民。</p> <p>平民照片如下图所示。</p> <p></p> <img src='stimuli/faces/NCM6.jpg', style='max-width: 30%;'> </img> <p><strong>你是否选择发射武器？</strong></p>","0",""
"","","","","","html-keyboard-response","38","181284","0.0-4.0-0.17","208","1","2022-10-11 07:47:15","d60b49b5908c80e163b920d72b52d584","39.144.143.176","Mozilla/5.0 (Windows NT 10.0; Win64; x64; rv:105.0) Gecko/20100101 Firefox/105.0","","Firefox","105.0","Windows","10.0","null","<div style=""font-size:60px;"">+</div>","null",""
"","","","","","html-button-response","39","183733","0.0-4.0-1.17","208","1","2022-10-11 07:47:15","d60b49b5908c80e163b920d72b52d584","39.144.143.176","Mozilla/5.0 (Windows NT 10.0; Win64; x64; rv:105.0) Gecko/20100101 Firefox/105.0","","Firefox","105.0","Windows","10.0","2447","<p>作为军队的指挥官，你可以选择发射导弹杀死 <strong>2名</strong> 敌国士兵，但会炸毁附近的 <strong>1棵</strong> 敌国树木。</p> <p>树木的照片如下图所示。</p> <p></p> <img src='stimuli/trees/2.png', style='max-width: 30%;'> </img> <p><strong>你是否选择发射武器？</strong></p>","0",""
"","","","","","html-keyboard-response","40","184736","0.0-4.0-0.18","208","1","2022-10-11 07:47:15","d60b49b5908c80e163b920d72b52d584","39.144.143.176","Mozilla/5.0 (Windows NT 10.0; Win64; x64; rv:105.0) Gecko/20100101 Firefox/105.0","","Firefox","105.0","Windows","10.0","null","<div style=""font-size:60px;"">+</div>","null",""
"","","","","","html-button-response","41","191938","0.0-4.0-1.18","208","1","2022-10-11 07:47:15","d60b49b5908c80e163b920d72b52d584","39.144.143.176","Mozilla/5.0 (Windows NT 10.0; Win64; x64; rv:105.0) Gecko/20100101 Firefox/105.0","","Firefox","105.0","Windows","10.0","7201","<p>作为军队的指挥官，你可以选择发射导弹杀死 <strong>3名</strong> 敌国士兵，但会炸毁附近的 <strong>1棵</strong> 敌国树木。</p> <p>树木的照片如下图所示。</p> <p></p> <img src='stimuli/trees/15.png', style='max-width: 30%;'> </img> <p><strong>你是否选择发射武器？</strong></p>","0",""
"","","","","","html-keyboard-response","42","192940","0.0-4.0-0.19","208","1","2022-10-11 07:47:15","d60b49b5908c80e163b920d72b52d584","39.144.143.176","Mozilla/5.0 (Windows NT 10.0; Win64; x64; rv:105.0) Gecko/20100101 Firefox/105.0","","Firefox","105.0","Windows","10.0","null","<div style=""font-size:60px;"">+</div>","null",""
"","","","","","html-button-response","43","194844","0.0-4.0-1.19","208","1","2022-10-11 07:47:15","d60b49b5908c80e163b920d72b52d584","39.144.143.176","Mozilla/5.0 (Windows NT 10.0; Win64; x64; rv:105.0) Gecko/20100101 Firefox/105.0","","Firefox","105.0","Windows","10.0","1899","<p>作为军队的指挥官，你可以选择发射导弹杀死 <strong>2名</strong> 敌国士兵，但会炸毁附近的 <strong>1棵</strong> 敌国树木。</p> <p>树木的照片如下图所示。</p> <p></p> <img src='stimuli/trees/4.png', style='max-width: 30%;'> </img> <p><strong>你是否选择发射武器？</strong></p>","0",""
"","","","","","html-keyboard-response","44","195846","0.0-4.0-0.20","208","1","2022-10-11 07:47:15","d60b49b5908c80e163b920d72b52d584","39.144.143.176","Mozilla/5.0 (Windows NT 10.0; Win64; x64; rv:105.0) Gecko/20100101 Firefox/105.0","","Firefox","105.0","Windows","10.0","null","<div style=""font-size:60px;"">+</div>","null",""
"","","","","","html-button-response","45","197531","0.0-4.0-1.20","208","1","2022-10-11 07:47:15","d60b49b5908c80e163b920d72b52d584","39.144.143.176","Mozilla/5.0 (Windows NT 10.0; Win64; x64; rv:105.0) Gecko/20100101 Firefox/105.0","","Firefox","105.0","Windows","10.0","1680","<p>作为军队的指挥官，你可以选择发射导弹杀死 <strong>4名</strong> 敌国士兵，但会炸毁附近的 <strong>1棵</strong> 敌国树木。</p> <p>树木的照片如下图所示。</p> <p></p> <img src='stimuli/trees/9.png', style='max-width: 30%;'> </img> <p><strong>你是否选择发射武器？</strong></p>","0",""
"","","","","","html-keyboard-response","46","198534","0.0-4.0-0.21","208","1","2022-10-11 07:47:15","d60b49b5908c80e163b920d72b52d584","39.144.143.176","Mozilla/5.0 (Windows NT 10.0; Win64; x64; rv:105.0) Gecko/20100101 Firefox/105.0","","Firefox","105.0","Windows","10.0","null","<div style=""font-size:60px;"">+</div>","null",""
"","","","","","html-button-response","47","201454","0.0-4.0-1.21","208","1","2022-10-11 07:47:15","d60b49b5908c80e163b920d72b52d584","39.144.143.176","Mozilla/5.0 (Windows NT 10.0; Win64; x64; rv:105.0) Gecko/20100101 Firefox/105.0","","Firefox","105.0","Windows","10.0","2916","<p>作为军队的指挥官，你可以选择发射导弹杀死 <strong>8名</strong> 敌国士兵，但会炸毁附近的 <strong>1棵</strong> 敌国树木。</p> <p>树木的照片如下图所示。</p> <p></p> <img src='stimuli/trees/16.png', style='max-width: 30%;'> </img> <p><strong>你是否选择发射武器？</strong></p>","0",""
"","","","","","html-keyboard-response","48","202456","0.0-4.0-0.22","208","1","2022-10-11 07:47:15","d60b49b5908c80e163b920d72b52d584","39.144.143.176","Mozilla/5.0 (Windows NT 10.0; Win64; x64; rv:105.0) Gecko/20100101 Firefox/105.0","","Firefox","105.0","Windows","10.0","null","<div style=""font-size:60px;"">+</div>","null",""
"","","","","","html-button-response","49","203820","0.0-4.0-1.22","208","1","2022-10-11 07:47:15","d60b49b5908c80e163b920d72b52d584","39.144.143.176","Mozilla/5.0 (Windows NT 10.0; Win64; x64; rv:105.0) Gecko/20100101 Firefox/105.0","","Firefox","105.0","Windows","10.0","1361","<p>作为军队的指挥官，你可以选择发射导弹杀死 <strong>4名</strong> 敌国士兵，但会误杀附近的 <strong>1名</strong> 敌国平民。</p> <p>平民照片如下图所示。</p> <p></p> <img src='stimuli/faces/NCM3.jpg', style='max-width: 30%;'> </img> <p><strong>你是否选择发射武器？</strong></p>","0",""
"","","","","","html-keyboard-response","50","204821","0.0-4.0-0.23","208","1","2022-10-11 07:47:15","d60b49b5908c80e163b920d72b52d584","39.144.143.176","Mozilla/5.0 (Windows NT 10.0; Win64; x64; rv:105.0) Gecko/20100101 Firefox/105.0","","Firefox","105.0","Windows","10.0","null","<div style=""font-size:60px;"">+</div>","null",""
"","","","","","html-button-response","51","206267","0.0-4.0-1.23","208","1","2022-10-11 07:47:15","d60b49b5908c80e163b920d72b52d584","39.144.143.176","Mozilla/5.0 (Windows NT 10.0; Win64; x64; rv:105.0) Gecko/20100101 Firefox/105.0","","Firefox","105.0","Windows","10.0","1443","<p>作为军队的指挥官，你可以选择发射导弹杀死 <strong>6名</strong> 敌国士兵，但会炸毁附近的 <strong>1棵</strong> 敌国树木。</p> <p>树木的照片如下图所示。</p> <p></p> <img src='stimuli/trees/1.png', style='max-width: 30%;'> </img> <p><strong>你是否选择发射武器？</strong></p>","0",""
"","","","","","html-keyboard-response","52","207269","0.0-4.0-0.24","208","1","2022-10-11 07:47:15","d60b49b5908c80e163b920d72b52d584","39.144.143.176","Mozilla/5.0 (Windows NT 10.0; Win64; x64; rv:105.0) Gecko/20100101 Firefox/105.0","","Firefox","105.0","Windows","10.0","null","<div style=""font-size:60px;"">+</div>","null",""
"","","","","","html-button-response","53","209395","0.0-4.0-1.24","208","1","2022-10-11 07:47:15","d60b49b5908c80e163b920d72b52d584","39.144.143.176","Mozilla/5.0 (Windows NT 10.0; Win64; x64; rv:105.0) Gecko/20100101 Firefox/105.0","","Firefox","105.0","Windows","10.0","2122","<p>作为军队的指挥官，你可以选择发射导弹杀死 <strong>10名</strong> 敌国士兵，但会误杀附近的 <strong>1名</strong> 敌国平民。</p> <p>平民照片如下图所示。</p> <p></p> <img src='stimuli/faces/NCF5.jpg', style='max-width: 30%;'> </img> <p><strong>你是否选择发射武器？</strong></p>","0",""
"","","","","","html-keyboard-response","54","210397","0.0-4.0-0.25","208","1","2022-10-11 07:47:15","d60b49b5908c80e163b920d72b52d584","39.144.143.176","Mozilla/5.0 (Windows NT 10.0; Win64; x64; rv:105.0) Gecko/20100101 Firefox/105.0","","Firefox","105.0","Windows","10.0","null","<div style=""font-size:60px;"">+</div>","null",""
"","","","","","html-button-response","55","213997","0.0-4.0-1.25","208","1","2022-10-11 07:47:15","d60b49b5908c80e163b920d72b52d584","39.144.143.176","Mozilla/5.0 (Windows NT 10.0; Win64; x64; rv:105.0) Gecko/20100101 Firefox/105.0","","Firefox","105.0","Windows","10.0","3597","<p>作为军队的指挥官，你可以选择发射导弹杀死 <strong>10名</strong> 敌国士兵，但会误杀附近的 <strong>1名</strong> 敌国平民。</p> <p>平民照片如下图所示。</p> <p></p> <img src='stimuli/faces/NCM4.jpg', style='max-width: 30%;'> </img> <p><strong>你是否选择发射武器？</strong></p>","0",""
"","","","","","html-keyboard-response","56","214999","0.0-4.0-0.26","208","1","2022-10-11 07:47:15","d60b49b5908c80e163b920d72b52d584","39.144.143.176","Mozilla/5.0 (Windows NT 10.0; Win64; x64; rv:105.0) Gecko/20100101 Firefox/105.0","","Firefox","105.0","Windows","10.0","null","<div style=""font-size:60px;"">+</div>","null",""
"","","","","","html-button-response","57","217965","0.0-4.0-1.26","208","1","2022-10-11 07:47:15","d60b49b5908c80e163b920d72b52d584","39.144.143.176","Mozilla/5.0 (Windows NT 10.0; Win64; x64; rv:105.0) Gecko/20100101 Firefox/105.0","","Firefox","105.0","Windows","10.0","2963","<p>作为军队的指挥官，你可以选择发射导弹杀死 <strong>1名</strong> 敌国士兵，但会误杀附近的 <strong>1名</strong> 敌国平民。</p> <p>平民照片如下图所示。</p> <p></p> <img src='stimuli/faces/NCF5.jpg', style='max-width: 30%;'> </img> <p><strong>你是否选择发射武器？</strong></p>","0",""
"","","","","","html-keyboard-response","58","218967","0.0-4.0-0.27","208","1","2022-10-11 07:47:15","d60b49b5908c80e163b920d72b52d584","39.144.143.176","Mozilla/5.0 (Windows NT 10.0; Win64; x64; rv:105.0) Gecko/20100101 Firefox/105.0","","Firefox","105.0","Windows","10.0","null","<div style=""font-size:60px;"">+</div>","null",""
"","","","","","html-button-response","59","222013","0.0-4.0-1.27","208","1","2022-10-11 07:47:15","d60b49b5908c80e163b920d72b52d584","39.144.143.176","Mozilla/5.0 (Windows NT 10.0; Win64; x64; rv:105.0) Gecko/20100101 Firefox/105.0","","Firefox","105.0","Windows","10.0","3043","<p>作为军队的指挥官，你可以选择发射导弹杀死 <strong>4名</strong> 敌国士兵，但会误杀附近的 <strong>1名</strong> 敌国平民。</p> <p>平民照片如下图所示。</p> <p></p> <img src='stimuli/faces/NCF6.jpg', style='max-width: 30%;'> </img> <p><strong>你是否选择发射武器？</strong></p>","0",""
"","","","","","html-keyboard-response","60","223016","0.0-4.0-0.28","208","1","2022-10-11 07:47:15","d60b49b5908c80e163b920d72b52d584","39.144.143.176","Mozilla/5.0 (Windows NT 10.0; Win64; x64; rv:105.0) Gecko/20100101 Firefox/105.0","","Firefox","105.0","Windows","10.0","null","<div style=""font-size:60px;"">+</div>","null",""
"","","","","","html-button-response","61","224131","0.0-4.0-1.28","208","1","2022-10-11 07:47:15","d60b49b5908c80e163b920d72b52d584","39.144.143.176","Mozilla/5.0 (Windows NT 10.0; Win64; x64; rv:105.0) Gecko/20100101 Firefox/105.0","","Firefox","105.0","Windows","10.0","1112","<p>作为军队的指挥官，你可以选择发射导弹杀死 <strong>7名</strong> 敌国士兵，但会炸毁附近的 <strong>1棵</strong> 敌国树木。</p> <p>树木的照片如下图所示。</p> <p></p> <img src='stimuli/trees/8.png', style='max-width: 30%;'> </img> <p><strong>你是否选择发射武器？</strong></p>","0",""
"","","","","","html-keyboard-response","62","225133","0.0-4.0-0.29","208","1","2022-10-11 07:47:15","d60b49b5908c80e163b920d72b52d584","39.144.143.176","Mozilla/5.0 (Windows NT 10.0; Win64; x64; rv:105.0) Gecko/20100101 Firefox/105.0","","Firefox","105.0","Windows","10.0","null","<div style=""font-size:60px;"">+</div>","null",""
"","","","","","html-button-response","63","225972","0.0-4.0-1.29","208","1","2022-10-11 07:47:15","d60b49b5908c80e163b920d72b52d584","39.144.143.176","Mozilla/5.0 (Windows NT 10.0; Win64; x64; rv:105.0) Gecko/20100101 Firefox/105.0","","Firefox","105.0","Windows","10.0","834","<p>作为军队的指挥官，你可以选择发射导弹杀死 <strong>6名</strong> 敌国士兵，但会炸毁附近的 <strong>1棵</strong> 敌国树木。</p> <p>树木的照片如下图所示。</p> <p></p> <img src='stimuli/trees/10.png', style='max-width: 30%;'> </img> <p><strong>你是否选择发射武器？</strong></p>","0",""
"","","","","","html-keyboard-response","64","226974","0.0-4.0-0.30","208","1","2022-10-11 07:47:15","d60b49b5908c80e163b920d72b52d584","39.144.143.176","Mozilla/5.0 (Windows NT 10.0; Win64; x64; rv:105.0) Gecko/20100101 Firefox/105.0","","Firefox","105.0","Windows","10.0","null","<div style=""font-size:60px;"">+</div>","null",""
"","","","","","html-button-response","65","233099","0.0-4.0-1.30","208","1","2022-10-11 07:47:15","d60b49b5908c80e163b920d72b52d584","39.144.143.176","Mozilla/5.0 (Windows NT 10.0; Win64; x64; rv:105.0) Gecko/20100101 Firefox/105.0","","Firefox","105.0","Windows","10.0","6121","<p>作为军队的指挥官，你可以选择发射导弹杀死 <strong>3名</strong> 敌国士兵，但会误杀附近的 <strong>1名</strong> 敌国平民。</p> <p>平民照片如下图所示。</p> <p></p> <img src='stimuli/faces/NCF2.jpg', style='max-width: 30%;'> </img> <p><strong>你是否选择发射武器？</strong></p>","0",""
"","","","","","html-keyboard-response","66","234101","0.0-4.0-0.31","208","1","2022-10-11 07:47:15","d60b49b5908c80e163b920d72b52d584","39.144.143.176","Mozilla/5.0 (Windows NT 10.0; Win64; x64; rv:105.0) Gecko/20100101 Firefox/105.0","","Firefox","105.0","Windows","10.0","null","<div style=""font-size:60px;"">+</div>","null",""
"","","","","","html-button-response","67","235811","0.0-4.0-1.31","208","1","2022-10-11 07:47:15","d60b49b5908c80e163b920d72b52d584","39.144.143.176","Mozilla/5.0 (Windows NT 10.0; Win64; x64; rv:105.0) Gecko/20100101 Firefox/105.0","","Firefox","105.0","Windows","10.0","1708","<p>作为军队的指挥官，你可以选择发射导弹杀死 <strong>3名</strong> 敌国士兵，但会误杀附近的 <strong>1名</strong> 敌国平民。</p> <p>平民照片如下图所示。</p> <p></p> <img src='stimuli/faces/NCM8.jpg', style='max-width: 30%;'> </img> <p><strong>你是否选择发射武器？</strong></p>","0",""
"","","","","","html-keyboard-response","68","236814","0.0-4.0-0.32","208","1","2022-10-11 07:47:15","d60b49b5908c80e163b920d72b52d584","39.144.143.176","Mozilla/5.0 (Windows NT 10.0; Win64; x64; rv:105.0) Gecko/20100101 Firefox/105.0","","Firefox","105.0","Windows","10.0","null","<div style=""font-size:60px;"">+</div>","null",""
"","","","","","html-button-response","69","237515","0.0-4.0-1.32","208","1","2022-10-11 07:47:15","d60b49b5908c80e163b920d72b52d584","39.144.143.176","Mozilla/5.0 (Windows NT 10.0; Win64; x64; rv:105.0) Gecko/20100101 Firefox/105.0","","Firefox","105.0","Windows","10.0","698","<p>作为军队的指挥官，你可以选择发射导弹杀死 <strong>1名</strong> 敌国士兵，但会炸毁附近的 <strong>1棵</strong> 敌国树木。</p> <p>树木的照片如下图所示。</p> <p></p> <img src='stimuli/trees/1.png', style='max-width: 30%;'> </img> <p><strong>你是否选择发射武器？</strong></p>","0",""
"","","","","","html-keyboard-response","70","238517","0.0-4.0-0.33","208","1","2022-10-11 07:47:15","d60b49b5908c80e163b920d72b52d584","39.144.143.176","Mozilla/5.0 (Windows NT 10.0; Win64; x64; rv:105.0) Gecko/20100101 Firefox/105.0","","Firefox","105.0","Windows","10.0","null","<div style=""font-size:60px;"">+</div>","null",""
"","","","","","html-button-response","71","240282","0.0-4.0-1.33","208","1","2022-10-11 07:47:15","d60b49b5908c80e163b920d72b52d584","39.144.143.176","Mozilla/5.0 (Windows NT 10.0; Win64; x64; rv:105.0) Gecko/20100101 Firefox/105.0","","Firefox","105.0","Windows","10.0","1764","<p>作为军队的指挥官，你可以选择发射导弹杀死 <strong>8名</strong> 敌国士兵，但会炸毁附近的 <strong>1棵</strong> 敌国树木。</p> <p>树木的照片如下图所示。</p> <p></p> <img src='stimuli/trees/14.png', style='max-width: 30%;'> </img> <p><strong>你是否选择发射武器？</strong></p>","0",""
"","","","","","html-keyboard-response","72","241284","0.0-4.0-0.34","208","1","2022-10-11 07:47:15","d60b49b5908c80e163b920d72b52d584","39.144.143.176","Mozilla/5.0 (Windows NT 10.0; Win64; x64; rv:105.0) Gecko/20100101 Firefox/105.0","","Firefox","105.0","Windows","10.0","null","<div style=""font-size:60px;"">+</div>","null",""
"","","","","","html-button-response","73","244228","0.0-4.0-1.34","208","1","2022-10-11 07:47:15","d60b49b5908c80e163b920d72b52d584","39.144.143.176","Mozilla/5.0 (Windows NT 10.0; Win64; x64; rv:105.0) Gecko/20100101 Firefox/105.0","","Firefox","105.0","Windows","10.0","2942","<p>作为军队的指挥官，你可以选择发射导弹杀死 <strong>3名</strong> 敌国士兵，但会炸毁附近的 <strong>1棵</strong> 敌国树木。</p> <p>树木的照片如下图所示。</p> <p></p> <img src='stimuli/trees/13.png', style='max-width: 30%;'> </img> <p><strong>你是否选择发射武器？</strong></p>","0",""
"","","","","","html-keyboard-response","74","245231","0.0-4.0-0.35","208","1","2022-10-11 07:47:15","d60b49b5908c80e163b920d72b52d584","39.144.143.176","Mozilla/5.0 (Windows NT 10.0; Win64; x64; rv:105.0) Gecko/20100101 Firefox/105.0","","Firefox","105.0","Windows","10.0","null","<div style=""font-size:60px;"">+</div>","null",""
"","","","","","html-button-response","75","247862","0.0-4.0-1.35","208","1","2022-10-11 07:47:15","d60b49b5908c80e163b920d72b52d584","39.144.143.176","Mozilla/5.0 (Windows NT 10.0; Win64; x64; rv:105.0) Gecko/20100101 Firefox/105.0","","Firefox","105.0","Windows","10.0","2628","<p>作为军队的指挥官，你可以选择发射导弹杀死 <strong>5名</strong> 敌国士兵，但会误杀附近的 <strong>1名</strong> 敌国平民。</p> <p>平民照片如下图所示。</p> <p></p> <img src='stimuli/faces/NCF3.jpg', style='max-width: 30%;'> </img> <p><strong>你是否选择发射武器？</strong></p>","0",""
"","","","","","html-keyboard-response","76","248864","0.0-4.0-0.36","208","1","2022-10-11 07:47:15","d60b49b5908c80e163b920d72b52d584","39.144.143.176","Mozilla/5.0 (Windows NT 10.0; Win64; x64; rv:105.0) Gecko/20100101 Firefox/105.0","","Firefox","105.0","Windows","10.0","null","<div style=""font-size:60px;"">+</div>","null",""
"","","","","","html-button-response","77","252835","0.0-4.0-1.36","208","1","2022-10-11 07:47:15","d60b49b5908c80e163b920d72b52d584","39.144.143.176","Mozilla/5.0 (Windows NT 10.0; Win64; x64; rv:105.0) Gecko/20100101 Firefox/105.0","","Firefox","105.0","Windows","10.0","3967","<p>作为军队的指挥官，你可以选择发射导弹杀死 <strong>3名</strong> 敌国士兵，但会误杀附近的 <strong>1名</strong> 敌国平民。</p> <p>平民照片如下图所示。</p> <p></p> <img src='stimuli/faces/NCM6.jpg', style='max-width: 30%;'> </img> <p><strong>你是否选择发射武器？</strong></p>","0",""
"","","","","","html-keyboard-response","78","253838","0.0-4.0-0.37","208","1","2022-10-11 07:47:15","d60b49b5908c80e163b920d72b52d584","39.144.143.176","Mozilla/5.0 (Windows NT 10.0; Win64; x64; rv:105.0) Gecko/20100101 Firefox/105.0","","Firefox","105.0","Windows","10.0","null","<div style=""font-size:60px;"">+</div>","null",""
"","","","","","html-button-response","79","256019","0.0-4.0-1.37","208","1","2022-10-11 07:47:15","d60b49b5908c80e163b920d72b52d584","39.144.143.176","Mozilla/5.0 (Windows NT 10.0; Win64; x64; rv:105.0) Gecko/20100101 Firefox/105.0","","Firefox","105.0","Windows","10.0","2180","<p>作为军队的指挥官，你可以选择发射导弹杀死 <strong>4名</strong> 敌国士兵，但会炸毁附近的 <strong>1棵</strong> 敌国树木。</p> <p>树木的照片如下图所示。</p> <p></p> <img src='stimuli/trees/5.png', style='max-width: 30%;'> </img> <p><strong>你是否选择发射武器？</strong></p>","0",""
"","","","","","html-keyboard-response","80","257022","0.0-4.0-0.38","208","1","2022-10-11 07:47:15","d60b49b5908c80e163b920d72b52d584","39.144.143.176","Mozilla/5.0 (Windows NT 10.0; Win64; x64; rv:105.0) Gecko/20100101 Firefox/105.0","","Firefox","105.0","Windows","10.0","null","<div style=""font-size:60px;"">+</div>","null",""
"","","","","","html-button-response","81","258863","0.0-4.0-1.38","208","1","2022-10-11 07:47:15","d60b49b5908c80e163b920d72b52d584","39.144.143.176","Mozilla/5.0 (Windows NT 10.0; Win64; x64; rv:105.0) Gecko/20100101 Firefox/105.0","","Firefox","105.0","Windows","10.0","1834","<p>作为军队的指挥官，你可以选择发射导弹杀死 <strong>10名</strong> 敌国士兵，但会炸毁附近的 <strong>1棵</strong> 敌国树木。</p> <p>树木的照片如下图所示。</p> <p></p> <img src='stimuli/trees/6.png', style='max-width: 30%;'> </img> <p><strong>你是否选择发射武器？</strong></p>","0",""
"","","","","","html-keyboard-response","82","259866","0.0-4.0-0.39","208","1","2022-10-11 07:47:15","d60b49b5908c80e163b920d72b52d584","39.144.143.176","Mozilla/5.0 (Windows NT 10.0; Win64; x64; rv:105.0) Gecko/20100101 Firefox/105.0","","Firefox","105.0","Windows","10.0","null","<div style=""font-size:60px;"">+</div>","null",""
"","","","","","html-button-response","83","260933","0.0-4.0-1.39","208","1","2022-10-11 07:47:15","d60b49b5908c80e163b920d72b52d584","39.144.143.176","Mozilla/5.0 (Windows NT 10.0; Win64; x64; rv:105.0) Gecko/20100101 Firefox/105.0","","Firefox","105.0","Windows","10.0","1064","<p>作为军队的指挥官，你可以选择发射导弹杀死 <strong>10名</strong> 敌国士兵，但会误杀附近的 <strong>1名</strong> 敌国平民。</p> <p>平民照片如下图所示。</p> <p></p> <img src='stimuli/faces/NCM8.jpg', style='max-width: 30%;'> </img> <p><strong>你是否选择发射武器？</strong></p>","0",""
"","","","","","html-keyboard-response","84","261940","0.0-4.0-0.40","208","1","2022-10-11 07:47:15","d60b49b5908c80e163b920d72b52d584","39.144.143.176","Mozilla/5.0 (Windows NT 10.0; Win64; x64; rv:105.0) Gecko/20100101 Firefox/105.0","","Firefox","105.0","Windows","10.0","null","<div style=""font-size:60px;"">+</div>","null",""
"","","","","","html-button-response","85","263421","0.0-4.0-1.40","208","1","2022-10-11 07:47:15","d60b49b5908c80e163b920d72b52d584","39.144.143.176","Mozilla/5.0 (Windows NT 10.0; Win64; x64; rv:105.0) Gecko/20100101 Firefox/105.0","","Firefox","105.0","Windows","10.0","1477","<p>作为军队的指挥官，你可以选择发射导弹杀死 <strong>6名</strong> 敌国士兵，但会误杀附近的 <strong>1名</strong> 敌国平民。</p> <p>平民照片如下图所示。</p> <p></p> <img src='stimuli/faces/NCF7.jpg', style='max-width: 30%;'> </img> <p><strong>你是否选择发射武器？</strong></p>","0",""
"","","","","","html-keyboard-response","86","264424","0.0-4.0-0.41","208","1","2022-10-11 07:47:15","d60b49b5908c80e163b920d72b52d584","39.144.143.176","Mozilla/5.0 (Windows NT 10.0; Win64; x64; rv:105.0) Gecko/20100101 Firefox/105.0","","Firefox","105.0","Windows","10.0","null","<div style=""font-size:60px;"">+</div>","null",""
"","","","","","html-button-response","87","266051","0.0-4.0-1.41","208","1","2022-10-11 07:47:15","d60b49b5908c80e163b920d72b52d584","39.144.143.176","Mozilla/5.0 (Windows NT 10.0; Win64; x64; rv:105.0) Gecko/20100101 Firefox/105.0","","Firefox","105.0","Windows","10.0","1623","<p>作为军队的指挥官，你可以选择发射导弹杀死 <strong>9名</strong> 敌国士兵，但会炸毁附近的 <strong>1棵</strong> 敌国树木。</p> <p>树木的照片如下图所示。</p> <p></p> <img src='stimuli/trees/3.png', style='max-width: 30%;'> </img> <p><strong>你是否选择发射武器？</strong></p>","0",""
"","","","","","html-keyboard-response","88","267054","0.0-4.0-0.42","208","1","2022-10-11 07:47:15","d60b49b5908c80e163b920d72b52d584","39.144.143.176","Mozilla/5.0 (Windows NT 10.0; Win64; x64; rv:105.0) Gecko/20100101 Firefox/105.0","","Firefox","105.0","Windows","10.0","null","<div style=""font-size:60px;"">+</div>","null",""
"","","","","","html-button-response","89","268716","0.0-4.0-1.42","208","1","2022-10-11 07:47:15","d60b49b5908c80e163b920d72b52d584","39.144.143.176","Mozilla/5.0 (Windows NT 10.0; Win64; x64; rv:105.0) Gecko/20100101 Firefox/105.0","","Firefox","105.0","Windows","10.0","1658","<p>作为军队的指挥官，你可以选择发射导弹杀死 <strong>6名</strong> 敌国士兵，但会炸毁附近的 <strong>1棵</strong> 敌国树木。</p> <p>树木的照片如下图所示。</p> <p></p> <img src='stimuli/trees/11.png', style='max-width: 30%;'> </img> <p><strong>你是否选择发射武器？</strong></p>","0",""
"","","","","","html-keyboard-response","90","269719","0.0-4.0-0.43","208","1","2022-10-11 07:47:15","d60b49b5908c80e163b920d72b52d584","39.144.143.176","Mozilla/5.0 (Windows NT 10.0; Win64; x64; rv:105.0) Gecko/20100101 Firefox/105.0","","Firefox","105.0","Windows","10.0","null","<div style=""font-size:60px;"">+</div>","null",""
"","","","","","html-button-response","91","271723","0.0-4.0-1.43","208","1","2022-10-11 07:47:15","d60b49b5908c80e163b920d72b52d584","39.144.143.176","Mozilla/5.0 (Windows NT 10.0; Win64; x64; rv:105.0) Gecko/20100101 Firefox/105.0","","Firefox","105.0","Windows","10.0","2000","<p>作为军队的指挥官，你可以选择发射导弹杀死 <strong>2名</strong> 敌国士兵，但会误杀附近的 <strong>1名</strong> 敌国平民。</p> <p>平民照片如下图所示。</p> <p></p> <img src='stimuli/faces/NCM1.jpg', style='max-width: 30%;'> </img> <p><strong>你是否选择发射武器？</strong></p>","0",""
"","","","","","html-keyboard-response","92","272726","0.0-4.0-0.44","208","1","2022-10-11 07:47:15","d60b49b5908c80e163b920d72b52d584","39.144.143.176","Mozilla/5.0 (Windows NT 10.0; Win64; x64; rv:105.0) Gecko/20100101 Firefox/105.0","","Firefox","105.0","Windows","10.0","null","<div style=""font-size:60px;"">+</div>","null",""
"","","","","","html-button-response","93","276812","0.0-4.0-1.44","208","1","2022-10-11 07:47:15","d60b49b5908c80e163b920d72b52d584","39.144.143.176","Mozilla/5.0 (Windows NT 10.0; Win64; x64; rv:105.0) Gecko/20100101 Firefox/105.0","","Firefox","105.0","Windows","10.0","4084","<p>作为军队的指挥官，你可以选择发射导弹杀死 <strong>5名</strong> 敌国士兵，但会误杀附近的 <strong>1名</strong> 敌国平民。</p> <p>平民照片如下图所示。</p> <p></p> <img src='stimuli/faces/NCM2.jpg', style='max-width: 30%;'> </img> <p><strong>你是否选择发射武器？</strong></p>","0",""
"","","","","","html-keyboard-response","94","277816","0.0-4.0-0.45","208","1","2022-10-11 07:47:15","d60b49b5908c80e163b920d72b52d584","39.144.143.176","Mozilla/5.0 (Windows NT 10.0; Win64; x64; rv:105.0) Gecko/20100101 Firefox/105.0","","Firefox","105.0","Windows","10.0","null","<div style=""font-size:60px;"">+</div>","null",""
"","","","","","html-button-response","95","279772","0.0-4.0-1.45","208","1","2022-10-11 07:47:15","d60b49b5908c80e163b920d72b52d584","39.144.143.176","Mozilla/5.0 (Windows NT 10.0; Win64; x64; rv:105.0) Gecko/20100101 Firefox/105.0","","Firefox","105.0","Windows","10.0","1952","<p>作为军队的指挥官，你可以选择发射导弹杀死 <strong>5名</strong> 敌国士兵，但会误杀附近的 <strong>1名</strong> 敌国平民。</p> <p>平民照片如下图所示。</p> <p></p> <img src='stimuli/faces/NCF1.jpg', style='max-width: 30%;'> </img> <p><strong>你是否选择发射武器？</strong></p>","0",""
"","","","","","html-keyboard-response","96","280773","0.0-4.0-0.46","208","1","2022-10-11 07:47:15","d60b49b5908c80e163b920d72b52d584","39.144.143.176","Mozilla/5.0 (Windows NT 10.0; Win64; x64; rv:105.0) Gecko/20100101 Firefox/105.0","","Firefox","105.0","Windows","10.0","null","<div style=""font-size:60px;"">+</div>","null",""
"","","","","","html-button-response","97","282491","0.0-4.0-1.46","208","1","2022-10-11 07:47:15","d60b49b5908c80e163b920d72b52d584","39.144.143.176","Mozilla/5.0 (Windows NT 10.0; Win64; x64; rv:105.0) Gecko/20100101 Firefox/105.0","","Firefox","105.0","Windows","10.0","1714","<p>作为军队的指挥官，你可以选择发射导弹杀死 <strong>7名</strong> 敌国士兵，但会误杀附近的 <strong>1名</strong> 敌国平民。</p> <p>平民照片如下图所示。</p> <p></p> <img src='stimuli/faces/NCF1.jpg', style='max-width: 30%;'> </img> <p><strong>你是否选择发射武器？</strong></p>","0",""
"","","","","","html-keyboard-response","98","283494","0.0-4.0-0.47","208","1","2022-10-11 07:47:15","d60b49b5908c80e163b920d72b52d584","39.144.143.176","Mozilla/5.0 (Windows NT 10.0; Win64; x64; rv:105.0) Gecko/20100101 Firefox/105.0","","Firefox","105.0","Windows","10.0","null","<div style=""font-size:60px;"">+</div>","null",""
"","","","","","html-button-response","99","285643","0.0-4.0-1.47","208","1","2022-10-11 07:47:15","d60b49b5908c80e163b920d72b52d584","39.144.143.176","Mozilla/5.0 (Windows NT 10.0; Win64; x64; rv:105.0) Gecko/20100101 Firefox/105.0","","Firefox","105.0","Windows","10.0","2146","<p>作为军队的指挥官，你可以选择发射导弹杀死 <strong>3名</strong> 敌国士兵，但会误杀附近的 <strong>1名</strong> 敌国平民。</p> <p>平民照片如下图所示。</p> <p></p> <img src='stimuli/faces/NCF4.jpg', style='max-width: 30%;'> </img> <p><strong>你是否选择发射武器？</strong></p>","0",""
"","","","","","html-keyboard-response","100","286646","0.0-4.0-0.48","208","1","2022-10-11 07:47:15","d60b49b5908c80e163b920d72b52d584","39.144.143.176","Mozilla/5.0 (Windows NT 10.0; Win64; x64; rv:105.0) Gecko/20100101 Firefox/105.0","","Firefox","105.0","Windows","10.0","null","<div style=""font-size:60px;"">+</div>","null",""
"","","","","","html-button-response","101","289141","0.0-4.0-1.48","208","1","2022-10-11 07:47:15","d60b49b5908c80e163b920d72b52d584","39.144.143.176","Mozilla/5.0 (Windows NT 10.0; Win64; x64; rv:105.0) Gecko/20100101 Firefox/105.0","","Firefox","105.0","Windows","10.0","2492","<p>作为军队的指挥官，你可以选择发射导弹杀死 <strong>6名</strong> 敌国士兵，但会误杀附近的 <strong>1名</strong> 敌国平民。</p> <p>平民照片如下图所示。</p> <p></p> <img src='stimuli/faces/NCM5.jpg', style='max-width: 30%;'> </img> <p><strong>你是否选择发射武器？</strong></p>","0",""
"","","","","","html-keyboard-response","102","290143","0.0-4.0-0.49","208","1","2022-10-11 07:47:15","d60b49b5908c80e163b920d72b52d584","39.144.143.176","Mozilla/5.0 (Windows NT 10.0; Win64; x64; rv:105.0) Gecko/20100101 Firefox/105.0","","Firefox","105.0","Windows","10.0","null","<div style=""font-size:60px;"">+</div>","null",""
"","","","","","html-button-response","103","291965","0.0-4.0-1.49","208","1","2022-10-11 07:47:15","d60b49b5908c80e163b920d72b52d584","39.144.143.176","Mozilla/5.0 (Windows NT 10.0; Win64; x64; rv:105.0) Gecko/20100101 Firefox/105.0","","Firefox","105.0","Windows","10.0","1817","<p>作为军队的指挥官，你可以选择发射导弹杀死 <strong>1名</strong> 敌国士兵，但会炸毁附近的 <strong>1棵</strong> 敌国树木。</p> <p>树木的照片如下图所示。</p> <p></p> <img src='stimuli/trees/7.png', style='max-width: 30%;'> </img> <p><strong>你是否选择发射武器？</strong></p>","0",""
"","","","","","html-keyboard-response","104","292966","0.0-4.0-0.50","208","1","2022-10-11 07:47:15","d60b49b5908c80e163b920d72b52d584","39.144.143.176","Mozilla/5.0 (Windows NT 10.0; Win64; x64; rv:105.0) Gecko/20100101 Firefox/105.0","","Firefox","105.0","Windows","10.0","null","<div style=""font-size:60px;"">+</div>","null",""
"","","","","","html-button-response","105","294701","0.0-4.0-1.50","208","1","2022-10-11 07:47:15","d60b49b5908c80e163b920d72b52d584","39.144.143.176","Mozilla/5.0 (Windows NT 10.0; Win64; x64; rv:105.0) Gecko/20100101 Firefox/105.0","","Firefox","105.0","Windows","10.0","1732","<p>作为军队的指挥官，你可以选择发射导弹杀死 <strong>3名</strong> 敌国士兵，但会炸毁附近的 <strong>1棵</strong> 敌国树木。</p> <p>树木的照片如下图所示。</p> <p></p> <img src='stimuli/trees/14.png', style='max-width: 30%;'> </img> <p><strong>你是否选择发射武器？</strong></p>","0",""
"","","","","","html-keyboard-response","106","295704","0.0-4.0-0.51","208","1","2022-10-11 07:47:15","d60b49b5908c80e163b920d72b52d584","39.144.143.176","Mozilla/5.0 (Windows NT 10.0; Win64; x64; rv:105.0) Gecko/20100101 Firefox/105.0","","Firefox","105.0","Windows","10.0","null","<div style=""font-size:60px;"">+</div>","null",""
"","","","","","html-button-response","107","297659","0.0-4.0-1.51","208","1","2022-10-11 07:47:15","d60b49b5908c80e163b920d72b52d584","39.144.143.176","Mozilla/5.0 (Windows NT 10.0; Win64; x64; rv:105.0) Gecko/20100101 Firefox/105.0","","Firefox","105.0","Windows","10.0","1951","<p>作为军队的指挥官，你可以选择发射导弹杀死 <strong>10名</strong> 敌国士兵，但会炸毁附近的 <strong>1棵</strong> 敌国树木。</p> <p>树木的照片如下图所示。</p> <p></p> <img src='stimuli/trees/13.png', style='max-width: 30%;'> </img> <p><strong>你是否选择发射武器？</strong></p>","0",""
"","","","","","html-keyboard-response","108","298661","0.0-4.0-0.52","208","1","2022-10-11 07:47:15","d60b49b5908c80e163b920d72b52d584","39.144.143.176","Mozilla/5.0 (Windows NT 10.0; Win64; x64; rv:105.0) Gecko/20100101 Firefox/105.0","","Firefox","105.0","Windows","10.0","null","<div style=""font-size:60px;"">+</div>","null",""
"","","","","","html-button-response","109","301906","0.0-4.0-1.52","208","1","2022-10-11 07:47:15","d60b49b5908c80e163b920d72b52d584","39.144.143.176","Mozilla/5.0 (Windows NT 10.0; Win64; x64; rv:105.0) Gecko/20100101 Firefox/105.0","","Firefox","105.0","Windows","10.0","3243","<p>作为军队的指挥官，你可以选择发射导弹杀死 <strong>10名</strong> 敌国士兵，但会炸毁附近的 <strong>1棵</strong> 敌国树木。</p> <p>树木的照片如下图所示。</p> <p></p> <img src='stimuli/trees/12.png', style='max-width: 30%;'> </img> <p><strong>你是否选择发射武器？</strong></p>","0",""
"","","","","","html-keyboard-response","110","302909","0.0-4.0-0.53","208","1","2022-10-11 07:47:15","d60b49b5908c80e163b920d72b52d584","39.144.143.176","Mozilla/5.0 (Windows NT 10.0; Win64; x64; rv:105.0) Gecko/20100101 Firefox/105.0","","Firefox","105.0","Windows","10.0","null","<div style=""font-size:60px;"">+</div>","null",""
"","","","","","html-button-response","111","310525","0.0-4.0-1.53","208","1","2022-10-11 07:47:15","d60b49b5908c80e163b920d72b52d584","39.144.143.176","Mozilla/5.0 (Windows NT 10.0; Win64; x64; rv:105.0) Gecko/20100101 Firefox/105.0","","Firefox","105.0","Windows","10.0","7613","<p>作为军队的指挥官，你可以选择发射导弹杀死 <strong>6名</strong> 敌国士兵，但会炸毁附近的 <strong>1棵</strong> 敌国树木。</p> <p>树木的照片如下图所示。</p> <p></p> <img src='stimuli/trees/2.png', style='max-width: 30%;'> </img> <p><strong>你是否选择发射武器？</strong></p>","0",""
"","","","","","html-keyboard-response","112","311527","0.0-4.0-0.54","208","1","2022-10-11 07:47:15","d60b49b5908c80e163b920d72b52d584","39.144.143.176","Mozilla/5.0 (Windows NT 10.0; Win64; x64; rv:105.0) Gecko/20100101 Firefox/105.0","","Firefox","105.0","Windows","10.0","null","<div style=""font-size:60px;"">+</div>","null",""
"","","","","","html-button-response","113","313299","0.0-4.0-1.54","208","1","2022-10-11 07:47:15","d60b49b5908c80e163b920d72b52d584","39.144.143.176","Mozilla/5.0 (Windows NT 10.0; Win64; x64; rv:105.0) Gecko/20100101 Firefox/105.0","","Firefox","105.0","Windows","10.0","1769","<p>作为军队的指挥官，你可以选择发射导弹杀死 <strong>5名</strong> 敌国士兵，但会误杀附近的 <strong>1名</strong> 敌国平民。</p> <p>平民照片如下图所示。</p> <p></p> <img src='stimuli/faces/NCM7.jpg', style='max-width: 30%;'> </img> <p><strong>你是否选择发射武器？</strong></p>","0",""
"","","","","","html-keyboard-response","114","314302","0.0-4.0-0.55","208","1","2022-10-11 07:47:15","d60b49b5908c80e163b920d72b52d584","39.144.143.176","Mozilla/5.0 (Windows NT 10.0; Win64; x64; rv:105.0) Gecko/20100101 Firefox/105.0","","Firefox","105.0","Windows","10.0","null","<div style=""font-size:60px;"">+</div>","null",""
"","","","","","html-button-response","115","315803","0.0-4.0-1.55","208","1","2022-10-11 07:47:15","d60b49b5908c80e163b920d72b52d584","39.144.143.176","Mozilla/5.0 (Windows NT 10.0; Win64; x64; rv:105.0) Gecko/20100101 Firefox/105.0","","Firefox","105.0","Windows","10.0","1498","<p>作为军队的指挥官，你可以选择发射导弹杀死 <strong>8名</strong> 敌国士兵，但会误杀附近的 <strong>1名</strong> 敌国平民。</p> <p>平民照片如下图所示。</p> <p></p> <img src='stimuli/faces/NCM2.jpg', style='max-width: 30%;'> </img> <p><strong>你是否选择发射武器？</strong></p>","0",""
"","","","","","html-keyboard-response","116","316806","0.0-4.0-0.56","208","1","2022-10-11 07:47:15","d60b49b5908c80e163b920d72b52d584","39.144.143.176","Mozilla/5.0 (Windows NT 10.0; Win64; x64; rv:105.0) Gecko/20100101 Firefox/105.0","","Firefox","105.0","Windows","10.0","null","<div style=""font-size:60px;"">+</div>","null",""
"","","","","","html-button-response","117","320885","0.0-4.0-1.56","208","1","2022-10-11 07:47:15","d60b49b5908c80e163b920d72b52d584","39.144.143.176","Mozilla/5.0 (Windows NT 10.0; Win64; x64; rv:105.0) Gecko/20100101 Firefox/105.0","","Firefox","105.0","Windows","10.0","4075","<p>作为军队的指挥官，你可以选择发射导弹杀死 <strong>10名</strong> 敌国士兵，但会炸毁附近的 <strong>1棵</strong> 敌国树木。</p> <p>树木的照片如下图所示。</p> <p></p> <img src='stimuli/trees/15.png', style='max-width: 30%;'> </img> <p><strong>你是否选择发射武器？</strong></p>","0",""
"","","","","","html-keyboard-response","118","321888","0.0-4.0-0.57","208","1","2022-10-11 07:47:15","d60b49b5908c80e163b920d72b52d584","39.144.143.176","Mozilla/5.0 (Windows NT 10.0; Win64; x64; rv:105.0) Gecko/20100101 Firefox/105.0","","Firefox","105.0","Windows","10.0","null","<div style=""font-size:60px;"">+</div>","null",""
"","","","","","html-button-response","119","332293","0.0-4.0-1.57","208","1","2022-10-11 07:47:15","d60b49b5908c80e163b920d72b52d584","39.144.143.176","Mozilla/5.0 (Windows NT 10.0; Win64; x64; rv:105.0) Gecko/20100101 Firefox/105.0","","Firefox","105.0","Windows","10.0","10401","<p>作为军队的指挥官，你可以选择发射导弹杀死 <strong>7名</strong> 敌国士兵，但会误杀附近的 <strong>1名</strong> 敌国平民。</p> <p>平民照片如下图所示。</p> <p></p> <img src='stimuli/faces/NCF3.jpg', style='max-width: 30%;'> </img> <p><strong>你是否选择发射武器？</strong></p>","0",""
"","","","","","html-keyboard-response","120","333296","0.0-4.0-0.58","208","1","2022-10-11 07:47:15","d60b49b5908c80e163b920d72b52d584","39.144.143.176","Mozilla/5.0 (Windows NT 10.0; Win64; x64; rv:105.0) Gecko/20100101 Firefox/105.0","","Firefox","105.0","Windows","10.0","null","<div style=""font-size:60px;"">+</div>","null",""
"","","","","","html-button-response","121","334515","0.0-4.0-1.58","208","1","2022-10-11 07:47:15","d60b49b5908c80e163b920d72b52d584","39.144.143.176","Mozilla/5.0 (Windows NT 10.0; Win64; x64; rv:105.0) Gecko/20100101 Firefox/105.0","","Firefox","105.0","Windows","10.0","1216","<p>作为军队的指挥官，你可以选择发射导弹杀死 <strong>3名</strong> 敌国士兵，但会炸毁附近的 <strong>1棵</strong> 敌国树木。</p> <p>树木的照片如下图所示。</p> <p></p> <img src='stimuli/trees/8.png', style='max-width: 30%;'> </img> <p><strong>你是否选择发射武器？</strong></p>","0",""
"","","","","","html-keyboard-response","122","335519","0.0-4.0-0.59","208","1","2022-10-11 07:47:15","d60b49b5908c80e163b920d72b52d584","39.144.143.176","Mozilla/5.0 (Windows NT 10.0; Win64; x64; rv:105.0) Gecko/20100101 Firefox/105.0","","Firefox","105.0","Windows","10.0","null","<div style=""font-size:60px;"">+</div>","null",""
"","","","","","html-button-response","123","341997","0.0-4.0-1.59","208","1","2022-10-11 07:47:15","d60b49b5908c80e163b920d72b52d584","39.144.143.176","Mozilla/5.0 (Windows NT 10.0; Win64; x64; rv:105.0) Gecko/20100101 Firefox/105.0","","Firefox","105.0","Windows","10.0","6472","<p>作为军队的指挥官，你可以选择发射导弹杀死 <strong>7名</strong> 敌国士兵，但会炸毁附近的 <strong>1棵</strong> 敌国树木。</p> <p>树木的照片如下图所示。</p> <p></p> <img src='stimuli/trees/4.png', style='max-width: 30%;'> </img> <p><strong>你是否选择发射武器？</strong></p>","0",""
"","","","","","html-keyboard-response","124","342999","0.0-4.0-0.60","208","1","2022-10-11 07:47:15","d60b49b5908c80e163b920d72b52d584","39.144.143.176","Mozilla/5.0 (Windows NT 10.0; Win64; x64; rv:105.0) Gecko/20100101 Firefox/105.0","","Firefox","105.0","Windows","10.0","null","<div style=""font-size:60px;"">+</div>","null",""
"","","","","","html-button-response","125","345491","0.0-4.0-1.60","208","1","2022-10-11 07:47:15","d60b49b5908c80e163b920d72b52d584","39.144.143.176","Mozilla/5.0 (Windows NT 10.0; Win64; x64; rv:105.0) Gecko/20100101 Firefox/105.0","","Firefox","105.0","Windows","10.0","2489","<p>作为军队的指挥官，你可以选择发射导弹杀死 <strong>10名</strong> 敌国士兵，但会炸毁附近的 <strong>1棵</strong> 敌国树木。</p> <p>树木的照片如下图所示。</p> <p></p> <img src='stimuli/trees/9.png', style='max-width: 30%;'> </img> <p><strong>你是否选择发射武器？</strong></p>","0",""
"","","","","","html-keyboard-response","126","346496","0.0-4.0-0.61","208","1","2022-10-11 07:47:15","d60b49b5908c80e163b920d72b52d584","39.144.143.176","Mozilla/5.0 (Windows NT 10.0; Win64; x64; rv:105.0) Gecko/20100101 Firefox/105.0","","Firefox","105.0","Windows","10.0","null","<div style=""font-size:60px;"">+</div>","null",""
"","","","","","html-button-response","127","348819","0.0-4.0-1.61","208","1","2022-10-11 07:47:15","d60b49b5908c80e163b920d72b52d584","39.144.143.176","Mozilla/5.0 (Windows NT 10.0; Win64; x64; rv:105.0) Gecko/20100101 Firefox/105.0","","Firefox","105.0","Windows","10.0","2319","<p>作为军队的指挥官，你可以选择发射导弹杀死 <strong>9名</strong> 敌国士兵，但会误杀附近的 <strong>1名</strong> 敌国平民。</p> <p>平民照片如下图所示。</p> <p></p> <img src='stimuli/faces/NCF6.jpg', style='max-width: 30%;'> </img> <p><strong>你是否选择发射武器？</strong></p>","0",""
"","","","","","html-keyboard-response","128","349824","0.0-4.0-0.62","208","1","2022-10-11 07:47:15","d60b49b5908c80e163b920d72b52d584","39.144.143.176","Mozilla/5.0 (Windows NT 10.0; Win64; x64; rv:105.0) Gecko/20100101 Firefox/105.0","","Firefox","105.0","Windows","10.0","null","<div style=""font-size:60px;"">+</div>","null",""
"","","","","","html-button-response","129","353411","0.0-4.0-1.62","208","1","2022-10-11 07:47:15","d60b49b5908c80e163b920d72b52d584","39.144.143.176","Mozilla/5.0 (Windows NT 10.0; Win64; x64; rv:105.0) Gecko/20100101 Firefox/105.0","","Firefox","105.0","Windows","10.0","3584","<p>作为军队的指挥官，你可以选择发射导弹杀死 <strong>1名</strong> 敌国士兵，但会误杀附近的 <strong>1名</strong> 敌国平民。</p> <p>平民照片如下图所示。</p> <p></p> <img src='stimuli/faces/NCM4.jpg', style='max-width: 30%;'> </img> <p><strong>你是否选择发射武器？</strong></p>","0",""
"","","","","","html-keyboard-response","130","354414","0.0-4.0-0.63","208","1","2022-10-11 07:47:15","d60b49b5908c80e163b920d72b52d584","39.144.143.176","Mozilla/5.0 (Windows NT 10.0; Win64; x64; rv:105.0) Gecko/20100101 Firefox/105.0","","Firefox","105.0","Windows","10.0","null","<div style=""font-size:60px;"">+</div>","null",""
"","","","","","html-button-response","131","357099","0.0-4.0-1.63","208","1","2022-10-11 07:47:15","d60b49b5908c80e163b920d72b52d584","39.144.143.176","Mozilla/5.0 (Windows NT 10.0; Win64; x64; rv:105.0) Gecko/20100101 Firefox/105.0","","Firefox","105.0","Windows","10.0","2681","<p>作为军队的指挥官，你可以选择发射导弹杀死 <strong>8名</strong> 敌国士兵，但会误杀附近的 <strong>1名</strong> 敌国平民。</p> <p>平民照片如下图所示。</p> <p></p> <img src='stimuli/faces/NCF2.jpg', style='max-width: 30%;'> </img> <p><strong>你是否选择发射武器？</strong></p>","0",""
"","","","","","survey-multi-choice","132","377034","0.0-5.0","208","1","2022-10-11 07:47:15","d60b49b5908c80e163b920d72b52d584","39.144.143.176","Mozilla/5.0 (Windows NT 10.0; Win64; x64; rv:105.0) Gecko/20100101 Firefox/105.0","","Firefox","105.0","Windows","10.0","19931","","{""Attention1"":""""}","[0]"
"","","","","","html-button-response","133","379115","0.0-6.0","208","1","2022-10-11 07:47:15","d60b49b5908c80e163b920d72b52d584","39.144.143.176","Mozilla/5.0 (Windows NT 10.0; Win64; x64; rv:105.0) Gecko/20100101 Firefox/105.0","","Firefox","105.0","Windows","10.0","2078","<p style=""font-size:20px;font-weight:bold;"">恭喜！</p><p>你已经完成了实验的第一部分。</p><p>请休息放松一下，然后进入第二部分。</p><p>这部分大约需要10分钟。</p>","0",""
"","","","","","survey-text","134","418108","0.0-7.0","208","1","2022-10-11 07:47:15","d60b49b5908c80e163b920d72b52d584","39.144.143.176","Mozilla/5.0 (Windows NT 10.0; Win64; x64; rv:105.0) Gecko/20100101 Firefox/105.0","","Firefox","105.0","Windows","10.0","37989","","{""Age"":""21"",""Nation"":""中国"",""Born"":""四川省广元市"",""Live"":""四川省乐山市"",""Ethnic"":""汉族"",""Alipay"":""15196142108""}",""
"","","","","","survey-multi-choice","135","434660","0.0-8.0","208","1","2022-10-11 07:47:15","d60b49b5908c80e163b920d72b52d584","39.144.143.176","Mozilla/5.0 (Windows NT 10.0; Win64; x64; rv:105.0) Gecko/20100101 Firefox/105.0","","Firefox","105.0","Windows","10.0","16544","","{""Gender"":""男"",""Education"":""本科毕业"",""Income"":""￥70,000-￥139,999"",""Children"":""0"",""Race"":""亚洲人""}","[0,1,2,3,4]"
"","","","","","survey-multi-select","136","439581","0.0-9.0","208","1","2022-10-11 07:47:15","d60b49b5908c80e163b920d72b52d584","39.144.143.176","Mozilla/5.0 (Windows NT 10.0; Win64; x64; rv:105.0) Gecko/20100101 Firefox/105.0","","Firefox","105.0","Windows","10.0","4916","","{""Marriage"":[""未婚""],""Religion"":[""无宗教信仰""]}","[0,1]"
"","","","","","survey-multi-choice","137","449887","0.0-10.0","208","1","2022-10-11 07:47:15","d60b49b5908c80e163b920d72b52d584","39.144.143.176","Mozilla/5.0 (Windows NT 10.0; Win64; x64; rv:105.0) Gecko/20100101 Firefox/105.0","","Firefox","105.0","Windows","10.0","10301","","{""SES"":""5""}","[0]"
"","","","","","html-button-response","138","452044","0.0-11.0","208","1","2022-10-11 07:47:15","d60b49b5908c80e163b920d72b52d584","39.144.143.176","Mozilla/5.0 (Windows NT 10.0; Win64; x64; rv:105.0) Gecko/20100101 Firefox/105.0","","Firefox","105.0","Windows","10.0","2152","<p><strong>请判断下列陈述在多大程度上可以形容你？</p><p> (1 = ""和我一点都不像"" to 5 = ""非常像我"".)</strong></p>","0",""
"","","","","","survey-likert","139","488919","0.0-12.0","208","1","2022-10-11 07:47:15","d60b49b5908c80e163b920d72b52d584","39.144.143.176","Mozilla/5.0 (Windows NT 10.0; Win64; x64; rv:105.0) Gecko/20100101 Firefox/105.0","","Firefox","105.0","Windows","10.0","36869","","{""Aggression1"":0,""Aggression2"":3,""Aggression3"":3,""Aggression4"":1,""Aggression5"":3,""Aggression6"":3,""Aggression7"":1,""Aggression8"":1,""Aggression9"":3}","[0,1,2,3,4,5,6,7,8]"
"","","","","","html-button-response","140","490166","0.0-13.0","208","1","2022-10-11 07:47:15","d60b49b5908c80e163b920d72b52d584","39.144.143.176","Mozilla/5.0 (Windows NT 10.0; Win64; x64; rv:105.0) Gecko/20100101 Firefox/105.0","","Firefox","105.0","Windows","10.0","1243","<p><strong>请判断你在多大程度上同意下列陈述。</strong></p>","0",""
"","","","","","survey-likert","141","666584","0.0-14.0","208","1","2022-10-11 07:47:15","d60b49b5908c80e163b920d72b52d584","39.144.143.176","Mozilla/5.0 (Windows NT 10.0; Win64; x64; rv:105.0) Gecko/20100101 Firefox/105.0","","Firefox","105.0","Windows","10.0","176413","","{""scale25"":1,""scale12"":3,""scale18"":3,""scale28"":3,""scale20"":3,""scale19"":3,""scale2"":3,""scale15"":1,""scale9"":3,""scale14"":1,""scale23"":2,""scale8"":3,""scale4"":1,""scale3"":2,""scale1"":3,""scale27"":1,""scale21"":2,""scale24"":1,""scale26"":3,""scale13"":1,""scale22"":3,""scale11"":3,""scale17"":1,""scale7"":1,""scale6"":1,""scale10"":1,""scale16"":2,""scale5"":3}","[24,11,17,27,19,18,1,14,8,13,22,7,3,2,0,26,20,23,25,12,21,10,16,6,5,9,15,4]"
"","","","","","html-button-response","142","668181","0.0-15.0","208","1","2022-10-11 07:47:15","d60b49b5908c80e163b920d72b52d584","39.144.143.176","Mozilla/5.0 (Windows NT 10.0; Win64; x64; rv:105.0) Gecko/20100101 Firefox/105.0","","Firefox","105.0","Windows","10.0","1591","<p><strong>请判断你在多大程度上同意下列陈述。</strong></p>","0",""
"","","","","","survey-likert","143","880253","0.0-16.0","208","1","2022-10-11 07:47:15","d60b49b5908c80e163b920d72b52d584","39.144.143.176","Mozilla/5.0 (Windows NT 10.0; Win64; x64; rv:105.0) Gecko/20100101 Firefox/105.0","","Firefox","105.0","Windows","10.0","212067","","{""sdo9"":5,""sdo8"":1,""sdo10"":4,""sdo14"":4,""sdo5"":1,""sdo6"":4,""sdo4"":3,""sdo1"":1,""sdo16"":4,""sdo12"":4,""sdo13"":4,""sdo11"":4,""sdo7"":2,""sdo15"":2,""sdo3"":4,""sdo2"":2}","[8,7,9,13,4,5,3,0,15,11,12,10,6,14,2,1]"
"","","","","","html-button-response","144","881411","0.0-17.0","208","1","2022-10-11 07:47:15","d60b49b5908c80e163b920d72b52d584","39.144.143.176","Mozilla/5.0 (Windows NT 10.0; Win64; x64; rv:105.0) Gecko/20100101 Firefox/105.0","","Firefox","105.0","Windows","10.0","1153","<p><strong>请判断你在多大程度上同意下列陈述。</strong></p>","0",""
"","","","","","survey-likert","145","1015005","0.0-18.0","208","1","2022-10-11 07:47:15","d60b49b5908c80e163b920d72b52d584","39.144.143.176","Mozilla/5.0 (Windows NT 10.0; Win64; x64; rv:105.0) Gecko/20100101 Firefox/105.0","","Firefox","105.0","Windows","10.0","133589","","{""caring1"":3,""liking1"":1,""caring2"":3,""protection1"":3,""liking2"":1,""caring3"":3,""protection2"":3,""liking3"":1,""protection3"":3,""caring4"":4,""liking4"":1,""protection4"":3,""caring5"":3,""liking5"":1,""protection5"":3}","[0,1,2,3,4,5,6,7,8,9,10,11,12,13,14]"
"","","","","","html-button-response","146","1016019","0.0-19.0","208","1","2022-10-11 07:47:15","d60b49b5908c80e163b920d72b52d584","39.144.143.176","Mozilla/5.0 (Windows NT 10.0; Win64; x64; rv:105.0) Gecko/20100101 Firefox/105.0","","Firefox","105.0","Windows","10.0","1010","<p><strong>请判断下列场景中你的内心感受有多柔软。</strong></p>","0",""
"","","","","","survey-likert","147","1113199","0.0-20.0","208","1","2022-10-11 07:47:15","d60b49b5908c80e163b920d72b52d584","39.144.143.176","Mozilla/5.0 (Windows NT 10.0; Win64; x64; rv:105.0) Gecko/20100101 Firefox/105.0","","Firefox","105.0","Windows","10.0","97176","","{""tenderness-positive1"":3,""tenderness-negative1"":3,""tenderness-negative2"":0,""tenderness-positive2"":3,""tenderness-positive3"":3,""tenderness-negative3"":1,""tenderness-positive4"":3,""tendereness-negative4"":0,""tendernness-negative5"":1,""tenderness-positive5"":3}","[0,1,2,3,4,5,6,7,8,9]"
"","","","","","survey-multi-choice","148","1121677","0.0-21.0","208","1","2022-10-11 07:47:15","d60b49b5908c80e163b920d72b52d584","39.144.143.176","Mozilla/5.0 (Windows NT 10.0; Win64; x64; rv:105.0) Gecko/20100101 Firefox/105.0","","Firefox","105.0","Windows","10.0","8474","","{""Attention2"":""其他""}","[0]"
"","","","","","html-button-response","149","1122843","0.0-22.0","208","1","2022-10-11 07:47:15","d60b49b5908c80e163b920d72b52d584","39.144.143.176","Mozilla/5.0 (Windows NT 10.0; Win64; x64; rv:105.0) Gecko/20100101 Firefox/105.0","","Firefox","105.0","Windows","10.0","1163","<p><strong>请判断你在多大程度上同意下列陈述。</strong></p>","0",""
"","","","","","survey-likert","150","1212789","0.0-23.0","208","1","2022-10-11 07:47:15","d60b49b5908c80e163b920d72b52d584","39.144.143.176","Mozilla/5.0 (Windows NT 10.0; Win64; x64; rv:105.0) Gecko/20100101 Firefox/105.0","","Firefox","105.0","Windows","10.0","89942","","{""Nation2"":4,""Nation6"":4,""Nation1"":3,""Patri7"":4,""Patri11"":0,""Nation3"":3,""Nation5"":3,""Patri6"":0,""Nation7"":3,""Nation8"":0,""Patri4"":3,""Patri10"":0,""Patri5"":4,""Patri9"":0,""Patri8"":4,""Nation4"":4,""Patri1"":4,""Patri2"":4,""Patri12"":0,""Patri3"":4}","[13,17,12,6,10,14,16,5,18,19,3,9,4,8,7,15,0,1,11,2]"
"","","","","","html-button-response","151","1213998","0.0-24.0","208","1","2022-10-11 07:47:15","d60b49b5908c80e163b920d72b52d584","39.144.143.176","Mozilla/5.0 (Windows NT 10.0; Win64; x64; rv:105.0) Gecko/20100101 Firefox/105.0","","Firefox","105.0","Windows","10.0","1204","<p><strong>请判断你在多大程度上同意下列陈述。</strong></p>","0",""
"","","","","","survey-likert","152","1310801","0.0-25.0","208","1","2022-10-11 07:47:15","d60b49b5908c80e163b920d72b52d584","39.144.143.176","Mozilla/5.0 (Windows NT 10.0; Win64; x64; rv:105.0) Gecko/20100101 Firefox/105.0","","Firefox","105.0","Windows","10.0","96797","","{""hc4"":7,""vi4"":2,""hi3"":6,""hc2"":6,""vi1"":7,""hc1"":6,""hi1"":6,""vc4"":6,""vi2"":7,""Robot"":6,""vi3"":6,""hi2"":7,""vc3"":7,""vc2"":6,""hi4"":7,""hc3"":7,""vc1"":7}","[12,8,2,10,4,9,0,16,5,7,6,1,15,14,3,11,13]"
"","","","","","survey-text","153","1318231","0.0-26.0","208","1","2022-10-11 07:47:15","d60b49b5908c80e163b920d72b52d584","39.144.143.176","Mozilla/5.0 (Windows NT 10.0; Win64; x64; rv:105.0) Gecko/20100101 Firefox/105.0","","Firefox","105.0","Windows","10.0","7423","","{""Comments"":""没有 挺好的""}",""
"","","","","","html-button-response","154","1319262","0.0-27.0","208","1","2022-10-11 07:47:15","d60b49b5908c80e163b920d72b52d584","39.144.143.176","Mozilla/5.0 (Windows NT 10.0; Win64; x64; rv:105.0) Gecko/20100101 Firefox/105.0","","Firefox","105.0","Windows","10.0","1029","<strong><p>恭喜你完成了实验！</p><p>感谢您的参与。</p></strong>","0",""
