"success","timeout","failed_images","failed_audio","failed_video","trial_type","trial_index","time_elapsed","internal_node_id","run_id","condition","recorded_at","source_code_version","ip","user_agent","device","browser","browser_version","platform","platform_version","rt","stimulus","response","question_order"
"true","false","[]","[]","[]","preload","0","1549","0.0-0.0","210","1","2022-10-11 12:08:44","d60b49b5908c80e163b920d72b52d584","202.204.120.203","Mozilla/5.0 (Windows NT 10.0; Win64; x64) AppleWebKit/537.36 (KHTML, like Gecko) Chrome/106.0.0.0 Safari/537.36 Edg/106.0.1370.37","WebKit","Edge","106.0.1370.37","Windows","10.0","","","",""
"true","","","","","fullscreen","1","4191","0.0-1.0","210","1","2022-10-11 12:08:44","d60b49b5908c80e163b920d72b52d584","202.204.120.203","Mozilla/5.0 (Windows NT 10.0; Win64; x64) AppleWebKit/537.36 (KHTML, like Gecko) Chrome/106.0.0.0 Safari/537.36 Edg/106.0.1370.37","WebKit","Edge","106.0.1370.37","Windows","10.0","","","",""
"","","","","","html-button-response","2","23735","0.0-2.0","210","1","2022-10-11 12:08:44","d60b49b5908c80e163b920d72b52d584","202.204.120.203","Mozilla/5.0 (Windows NT 10.0; Win64; x64) AppleWebKit/537.36 (KHTML, like Gecko) Chrome/106.0.0.0 Safari/537.36 Edg/106.0.1370.37","WebKit","Edge","106.0.1370.37","Windows","10.0","19541","<p style=""font-size:20px;font-weight:bold;"">实验知情同意书</p><p style=""text-align:left;""><strong>实验名称：</strong>社会冲突研究</p><p style=""text-align:left;""><strong>主要研究者：</strong>韩晓春副教授（北京师范大学心理学部）</p><p style=""text-align:left;""><strong>联系方式：</strong>发送邮件至xiaochun.han@bnu.edu.cn</p><p style=""text-align:left;""><strong>研究目的：</strong>研究旨在了解人类面对群体冲突时的决策方式，以及相关的心理学特质。实验调查大约需要20分钟。</p><p style=""text-align:left;""><strong>实验流程：</strong>实验包含两部分。第一部分呈现一系列群体冲突场景，请你决定如何对这些冲突进行反应，大约需要10分钟完成。第二部分包含一系列人口统计学信息收集和心理学问卷，大约需要10分钟完成。</p><p style=""text-align:left;""><strong>参加及退出规则：</strong>参加本实验完全取决于您的个人意愿。在参与过程中，您可以随时退出，并且不用承担任何后果。</p><p style=""text-align:left;""><strong>隐私：</strong>本实验完全匿名进行，不会收集您的姓名或其他能够识别您身份的信息。实验中收集的作答仅用作科学研究使用，可能会在学术期刊/书籍上发表，或者用于教学，您的数据未来可能会和其他研究者或实验室分享，但您的个人身份不会被识别。</p><p style=""text-align:left;""><strong>实验报酬：</strong>实验完成后，您将获得15元人民币报酬，以感谢您的时间和努力。调查问卷中包含几道题目用以测验您作答时的认真度。只有完成全部实验，并且正确回答认真度测验的被试才能获得实验报酬。实验报酬将通过支付宝转账发放。</p><p style=""text-align:left;font-size:20px;""><strong>如果您同意以上实验知情同意书的内容，请点击'同意并且开始实验'按钮；否则请关闭浏览器界面，退出实验。</strong></p>","0",""
"","","","","","html-button-response","3","77879","0.0-3.0","210","1","2022-10-11 12:08:44","d60b49b5908c80e163b920d72b52d584","202.204.120.203","Mozilla/5.0 (Windows NT 10.0; Win64; x64) AppleWebKit/537.36 (KHTML, like Gecko) Chrome/106.0.0.0 Safari/537.36 Edg/106.0.1370.37","WebKit","Edge","106.0.1370.37","Windows","10.0","54140","<p ><strong>实验任务一：</strong></p><p>请想象你的国家与另一个国家发生了军事冲突。</p><p>你是国家军队的指挥官，你将如何在冲突中进行决策。</p><p>具体来说，作为军队指挥官，请你决定是否发射导弹进行打击。</p><p>接下来，你会面对一系列场景，请仔细阅读每个场景，然后进行决策。</p><p>这部分实验任务大约需要10分钟。</p><p><strong>实验过程中，请集中注意力。</strong></p>","0",""
"","","","","","html-keyboard-response","4","78888","0.0-4.0-0.0","210","1","2022-10-11 12:08:44","d60b49b5908c80e163b920d72b52d584","202.204.120.203","Mozilla/5.0 (Windows NT 10.0; Win64; x64) AppleWebKit/537.36 (KHTML, like Gecko) Chrome/106.0.0.0 Safari/537.36 Edg/106.0.1370.37","WebKit","Edge","106.0.1370.37","Windows","10.0","null","<div style=""font-size:60px;"">+</div>","null",""
"","","","","","html-button-response","5","93301","0.0-4.0-1.0","210","1","2022-10-11 12:08:44","d60b49b5908c80e163b920d72b52d584","202.204.120.203","Mozilla/5.0 (Windows NT 10.0; Win64; x64) AppleWebKit/537.36 (KHTML, like Gecko) Chrome/106.0.0.0 Safari/537.36 Edg/106.0.1370.37","WebKit","Edge","106.0.1370.37","Windows","10.0","14407","<p>作为军队的指挥官，你可以选择发射导弹杀死 <strong>2名</strong> 敌国士兵，但会误杀附近的 <strong>1名</strong> 敌国平民。</p> <p>平民照片如下图所示。</p> <p></p> <img src='stimuli/faces/NCF8.jpg', style='max-width: 30%;'> </img> <p><strong>你是否选择发射武器？</strong></p>","0",""
"","","","","","html-keyboard-response","6","94304","0.0-4.0-0.1","210","1","2022-10-11 12:08:44","d60b49b5908c80e163b920d72b52d584","202.204.120.203","Mozilla/5.0 (Windows NT 10.0; Win64; x64) AppleWebKit/537.36 (KHTML, like Gecko) Chrome/106.0.0.0 Safari/537.36 Edg/106.0.1370.37","WebKit","Edge","106.0.1370.37","Windows","10.0","null","<div style=""font-size:60px;"">+</div>","null",""
"","","","","","html-button-response","7","97603","0.0-4.0-1.1","210","1","2022-10-11 12:08:44","d60b49b5908c80e163b920d72b52d584","202.204.120.203","Mozilla/5.0 (Windows NT 10.0; Win64; x64) AppleWebKit/537.36 (KHTML, like Gecko) Chrome/106.0.0.0 Safari/537.36 Edg/106.0.1370.37","WebKit","Edge","106.0.1370.37","Windows","10.0","3296","<p>作为军队的指挥官，你可以选择发射导弹杀死 <strong>6名</strong> 敌国士兵，但会误杀附近的 <strong>1名</strong> 敌国平民。</p> <p>平民照片如下图所示。</p> <p></p> <img src='stimuli/faces/NCM8.jpg', style='max-width: 30%;'> </img> <p><strong>你是否选择发射武器？</strong></p>","0",""
"","","","","","html-keyboard-response","8","98607","0.0-4.0-0.2","210","1","2022-10-11 12:08:44","d60b49b5908c80e163b920d72b52d584","202.204.120.203","Mozilla/5.0 (Windows NT 10.0; Win64; x64) AppleWebKit/537.36 (KHTML, like Gecko) Chrome/106.0.0.0 Safari/537.36 Edg/106.0.1370.37","WebKit","Edge","106.0.1370.37","Windows","10.0","null","<div style=""font-size:60px;"">+</div>","null",""
"","","","","","html-button-response","9","100879","0.0-4.0-1.2","210","1","2022-10-11 12:08:44","d60b49b5908c80e163b920d72b52d584","202.204.120.203","Mozilla/5.0 (Windows NT 10.0; Win64; x64) AppleWebKit/537.36 (KHTML, like Gecko) Chrome/106.0.0.0 Safari/537.36 Edg/106.0.1370.37","WebKit","Edge","106.0.1370.37","Windows","10.0","2269","<p>作为军队的指挥官，你可以选择发射导弹杀死 <strong>3名</strong> 敌国士兵，但会炸毁附近的 <strong>1棵</strong> 敌国树木。</p> <p>树木的照片如下图所示。</p> <p></p> <img src='stimuli/trees/15.png', style='max-width: 30%;'> </img> <p><strong>你是否选择发射武器？</strong></p>","0",""
"","","","","","html-keyboard-response","10","101881","0.0-4.0-0.3","210","1","2022-10-11 12:08:44","d60b49b5908c80e163b920d72b52d584","202.204.120.203","Mozilla/5.0 (Windows NT 10.0; Win64; x64) AppleWebKit/537.36 (KHTML, like Gecko) Chrome/106.0.0.0 Safari/537.36 Edg/106.0.1370.37","WebKit","Edge","106.0.1370.37","Windows","10.0","null","<div style=""font-size:60px;"">+</div>","null",""
"","","","","","html-button-response","11","103852","0.0-4.0-1.3","210","1","2022-10-11 12:08:44","d60b49b5908c80e163b920d72b52d584","202.204.120.203","Mozilla/5.0 (Windows NT 10.0; Win64; x64) AppleWebKit/537.36 (KHTML, like Gecko) Chrome/106.0.0.0 Safari/537.36 Edg/106.0.1370.37","WebKit","Edge","106.0.1370.37","Windows","10.0","1968","<p>作为军队的指挥官，你可以选择发射导弹杀死 <strong>2名</strong> 敌国士兵，但会炸毁附近的 <strong>1棵</strong> 敌国树木。</p> <p>树木的照片如下图所示。</p> <p></p> <img src='stimuli/trees/2.png', style='max-width: 30%;'> </img> <p><strong>你是否选择发射武器？</strong></p>","0",""
"","","","","","html-keyboard-response","12","104859","0.0-4.0-0.4","210","1","2022-10-11 12:08:44","d60b49b5908c80e163b920d72b52d584","202.204.120.203","Mozilla/5.0 (Windows NT 10.0; Win64; x64) AppleWebKit/537.36 (KHTML, like Gecko) Chrome/106.0.0.0 Safari/537.36 Edg/106.0.1370.37","WebKit","Edge","106.0.1370.37","Windows","10.0","null","<div style=""font-size:60px;"">+</div>","null",""
"","","","","","html-button-response","13","106593","0.0-4.0-1.4","210","1","2022-10-11 12:08:44","d60b49b5908c80e163b920d72b52d584","202.204.120.203","Mozilla/5.0 (Windows NT 10.0; Win64; x64) AppleWebKit/537.36 (KHTML, like Gecko) Chrome/106.0.0.0 Safari/537.36 Edg/106.0.1370.37","WebKit","Edge","106.0.1370.37","Windows","10.0","1730","<p>作为军队的指挥官，你可以选择发射导弹杀死 <strong>1名</strong> 敌国士兵，但会炸毁附近的 <strong>1棵</strong> 敌国树木。</p> <p>树木的照片如下图所示。</p> <p></p> <img src='stimuli/trees/5.png', style='max-width: 30%;'> </img> <p><strong>你是否选择发射武器？</strong></p>","0",""
"","","","","","html-keyboard-response","14","107598","0.0-4.0-0.5","210","1","2022-10-11 12:08:44","d60b49b5908c80e163b920d72b52d584","202.204.120.203","Mozilla/5.0 (Windows NT 10.0; Win64; x64) AppleWebKit/537.36 (KHTML, like Gecko) Chrome/106.0.0.0 Safari/537.36 Edg/106.0.1370.37","WebKit","Edge","106.0.1370.37","Windows","10.0","null","<div style=""font-size:60px;"">+</div>","null",""
"","","","","","html-button-response","15","108781","0.0-4.0-1.5","210","1","2022-10-11 12:08:44","d60b49b5908c80e163b920d72b52d584","202.204.120.203","Mozilla/5.0 (Windows NT 10.0; Win64; x64) AppleWebKit/537.36 (KHTML, like Gecko) Chrome/106.0.0.0 Safari/537.36 Edg/106.0.1370.37","WebKit","Edge","106.0.1370.37","Windows","10.0","1179","<p>作为军队的指挥官，你可以选择发射导弹杀死 <strong>10名</strong> 敌国士兵，但会误杀附近的 <strong>1名</strong> 敌国平民。</p> <p>平民照片如下图所示。</p> <p></p> <img src='stimuli/faces/NCF5.jpg', style='max-width: 30%;'> </img> <p><strong>你是否选择发射武器？</strong></p>","0",""
"","","","","","html-keyboard-response","16","109792","0.0-4.0-0.6","210","1","2022-10-11 12:08:44","d60b49b5908c80e163b920d72b52d584","202.204.120.203","Mozilla/5.0 (Windows NT 10.0; Win64; x64) AppleWebKit/537.36 (KHTML, like Gecko) Chrome/106.0.0.0 Safari/537.36 Edg/106.0.1370.37","WebKit","Edge","106.0.1370.37","Windows","10.0","null","<div style=""font-size:60px;"">+</div>","null",""
"","","","","","html-button-response","17","111358","0.0-4.0-1.6","210","1","2022-10-11 12:08:44","d60b49b5908c80e163b920d72b52d584","202.204.120.203","Mozilla/5.0 (Windows NT 10.0; Win64; x64) AppleWebKit/537.36 (KHTML, like Gecko) Chrome/106.0.0.0 Safari/537.36 Edg/106.0.1370.37","WebKit","Edge","106.0.1370.37","Windows","10.0","1560","<p>作为军队的指挥官，你可以选择发射导弹杀死 <strong>2名</strong> 敌国士兵，但会误杀附近的 <strong>1名</strong> 敌国平民。</p> <p>平民照片如下图所示。</p> <p></p> <img src='stimuli/faces/NCM6.jpg', style='max-width: 30%;'> </img> <p><strong>你是否选择发射武器？</strong></p>","0",""
"","","","","","html-keyboard-response","18","112361","0.0-4.0-0.7","210","1","2022-10-11 12:08:44","d60b49b5908c80e163b920d72b52d584","202.204.120.203","Mozilla/5.0 (Windows NT 10.0; Win64; x64) AppleWebKit/537.36 (KHTML, like Gecko) Chrome/106.0.0.0 Safari/537.36 Edg/106.0.1370.37","WebKit","Edge","106.0.1370.37","Windows","10.0","null","<div style=""font-size:60px;"">+</div>","null",""
"","","","","","html-button-response","19","114401","0.0-4.0-1.7","210","1","2022-10-11 12:08:44","d60b49b5908c80e163b920d72b52d584","202.204.120.203","Mozilla/5.0 (Windows NT 10.0; Win64; x64) AppleWebKit/537.36 (KHTML, like Gecko) Chrome/106.0.0.0 Safari/537.36 Edg/106.0.1370.37","WebKit","Edge","106.0.1370.37","Windows","10.0","2037","<p>作为军队的指挥官，你可以选择发射导弹杀死 <strong>4名</strong> 敌国士兵，但会炸毁附近的 <strong>1棵</strong> 敌国树木。</p> <p>树木的照片如下图所示。</p> <p></p> <img src='stimuli/trees/11.png', style='max-width: 30%;'> </img> <p><strong>你是否选择发射武器？</strong></p>","0",""
"","","","","","html-keyboard-response","20","115404","0.0-4.0-0.8","210","1","2022-10-11 12:08:44","d60b49b5908c80e163b920d72b52d584","202.204.120.203","Mozilla/5.0 (Windows NT 10.0; Win64; x64) AppleWebKit/537.36 (KHTML, like Gecko) Chrome/106.0.0.0 Safari/537.36 Edg/106.0.1370.37","WebKit","Edge","106.0.1370.37","Windows","10.0","null","<div style=""font-size:60px;"">+</div>","null",""
"","","","","","html-button-response","21","118007","0.0-4.0-1.8","210","1","2022-10-11 12:08:44","d60b49b5908c80e163b920d72b52d584","202.204.120.203","Mozilla/5.0 (Windows NT 10.0; Win64; x64) AppleWebKit/537.36 (KHTML, like Gecko) Chrome/106.0.0.0 Safari/537.36 Edg/106.0.1370.37","WebKit","Edge","106.0.1370.37","Windows","10.0","2599","<p>作为军队的指挥官，你可以选择发射导弹杀死 <strong>6名</strong> 敌国士兵，但会炸毁附近的 <strong>1棵</strong> 敌国树木。</p> <p>树木的照片如下图所示。</p> <p></p> <img src='stimuli/trees/9.png', style='max-width: 30%;'> </img> <p><strong>你是否选择发射武器？</strong></p>","0",""
"","","","","","html-keyboard-response","22","119010","0.0-4.0-0.9","210","1","2022-10-11 12:08:44","d60b49b5908c80e163b920d72b52d584","202.204.120.203","Mozilla/5.0 (Windows NT 10.0; Win64; x64) AppleWebKit/537.36 (KHTML, like Gecko) Chrome/106.0.0.0 Safari/537.36 Edg/106.0.1370.37","WebKit","Edge","106.0.1370.37","Windows","10.0","null","<div style=""font-size:60px;"">+</div>","null",""
"","","","","","html-button-response","23","120593","0.0-4.0-1.9","210","1","2022-10-11 12:08:44","d60b49b5908c80e163b920d72b52d584","202.204.120.203","Mozilla/5.0 (Windows NT 10.0; Win64; x64) AppleWebKit/537.36 (KHTML, like Gecko) Chrome/106.0.0.0 Safari/537.36 Edg/106.0.1370.37","WebKit","Edge","106.0.1370.37","Windows","10.0","1580","<p>作为军队的指挥官，你可以选择发射导弹杀死 <strong>7名</strong> 敌国士兵，但会炸毁附近的 <strong>1棵</strong> 敌国树木。</p> <p>树木的照片如下图所示。</p> <p></p> <img src='stimuli/trees/13.png', style='max-width: 30%;'> </img> <p><strong>你是否选择发射武器？</strong></p>","0",""
"","","","","","html-keyboard-response","24","121598","0.0-4.0-0.10","210","1","2022-10-11 12:08:44","d60b49b5908c80e163b920d72b52d584","202.204.120.203","Mozilla/5.0 (Windows NT 10.0; Win64; x64) AppleWebKit/537.36 (KHTML, like Gecko) Chrome/106.0.0.0 Safari/537.36 Edg/106.0.1370.37","WebKit","Edge","106.0.1370.37","Windows","10.0","null","<div style=""font-size:60px;"">+</div>","null",""
"","","","","","html-button-response","25","122883","0.0-4.0-1.10","210","1","2022-10-11 12:08:44","d60b49b5908c80e163b920d72b52d584","202.204.120.203","Mozilla/5.0 (Windows NT 10.0; Win64; x64) AppleWebKit/537.36 (KHTML, like Gecko) Chrome/106.0.0.0 Safari/537.36 Edg/106.0.1370.37","WebKit","Edge","106.0.1370.37","Windows","10.0","1281","<p>作为军队的指挥官，你可以选择发射导弹杀死 <strong>7名</strong> 敌国士兵，但会误杀附近的 <strong>1名</strong> 敌国平民。</p> <p>平民照片如下图所示。</p> <p></p> <img src='stimuli/faces/NCM6.jpg', style='max-width: 30%;'> </img> <p><strong>你是否选择发射武器？</strong></p>","0",""
"","","","","","html-keyboard-response","26","123886","0.0-4.0-0.11","210","1","2022-10-11 12:08:44","d60b49b5908c80e163b920d72b52d584","202.204.120.203","Mozilla/5.0 (Windows NT 10.0; Win64; x64) AppleWebKit/537.36 (KHTML, like Gecko) Chrome/106.0.0.0 Safari/537.36 Edg/106.0.1370.37","WebKit","Edge","106.0.1370.37","Windows","10.0","null","<div style=""font-size:60px;"">+</div>","null",""
"","","","","","html-button-response","27","126017","0.0-4.0-1.11","210","1","2022-10-11 12:08:44","d60b49b5908c80e163b920d72b52d584","202.204.120.203","Mozilla/5.0 (Windows NT 10.0; Win64; x64) AppleWebKit/537.36 (KHTML, like Gecko) Chrome/106.0.0.0 Safari/537.36 Edg/106.0.1370.37","WebKit","Edge","106.0.1370.37","Windows","10.0","2126","<p>作为军队的指挥官，你可以选择发射导弹杀死 <strong>2名</strong> 敌国士兵，但会误杀附近的 <strong>1名</strong> 敌国平民。</p> <p>平民照片如下图所示。</p> <p></p> <img src='stimuli/faces/NCF5.jpg', style='max-width: 30%;'> </img> <p><strong>你是否选择发射武器？</strong></p>","0",""
"","","","","","html-keyboard-response","28","127019","0.0-4.0-0.12","210","1","2022-10-11 12:08:44","d60b49b5908c80e163b920d72b52d584","202.204.120.203","Mozilla/5.0 (Windows NT 10.0; Win64; x64) AppleWebKit/537.36 (KHTML, like Gecko) Chrome/106.0.0.0 Safari/537.36 Edg/106.0.1370.37","WebKit","Edge","106.0.1370.37","Windows","10.0","null","<div style=""font-size:60px;"">+</div>","null",""
"","","","","","html-button-response","29","127833","0.0-4.0-1.12","210","1","2022-10-11 12:08:44","d60b49b5908c80e163b920d72b52d584","202.204.120.203","Mozilla/5.0 (Windows NT 10.0; Win64; x64) AppleWebKit/537.36 (KHTML, like Gecko) Chrome/106.0.0.0 Safari/537.36 Edg/106.0.1370.37","WebKit","Edge","106.0.1370.37","Windows","10.0","810","<p>作为军队的指挥官，你可以选择发射导弹杀死 <strong>8名</strong> 敌国士兵，但会炸毁附近的 <strong>1棵</strong> 敌国树木。</p> <p>树木的照片如下图所示。</p> <p></p> <img src='stimuli/trees/2.png', style='max-width: 30%;'> </img> <p><strong>你是否选择发射武器？</strong></p>","0",""
"","","","","","html-keyboard-response","30","128836","0.0-4.0-0.13","210","1","2022-10-11 12:08:44","d60b49b5908c80e163b920d72b52d584","202.204.120.203","Mozilla/5.0 (Windows NT 10.0; Win64; x64) AppleWebKit/537.36 (KHTML, like Gecko) Chrome/106.0.0.0 Safari/537.36 Edg/106.0.1370.37","WebKit","Edge","106.0.1370.37","Windows","10.0","null","<div style=""font-size:60px;"">+</div>","null",""
"","","","","","html-button-response","31","144673","0.0-4.0-1.13","210","1","2022-10-11 12:08:44","d60b49b5908c80e163b920d72b52d584","202.204.120.203","Mozilla/5.0 (Windows NT 10.0; Win64; x64) AppleWebKit/537.36 (KHTML, like Gecko) Chrome/106.0.0.0 Safari/537.36 Edg/106.0.1370.37","WebKit","Edge","106.0.1370.37","Windows","10.0","15834","<p>作为军队的指挥官，你可以选择发射导弹杀死 <strong>4名</strong> 敌国士兵，但会误杀附近的 <strong>1名</strong> 敌国平民。</p> <p>平民照片如下图所示。</p> <p></p> <img src='stimuli/faces/NCM7.jpg', style='max-width: 30%;'> </img> <p><strong>你是否选择发射武器？</strong></p>","0",""
"","","","","","html-keyboard-response","32","145676","0.0-4.0-0.14","210","1","2022-10-11 12:08:44","d60b49b5908c80e163b920d72b52d584","202.204.120.203","Mozilla/5.0 (Windows NT 10.0; Win64; x64) AppleWebKit/537.36 (KHTML, like Gecko) Chrome/106.0.0.0 Safari/537.36 Edg/106.0.1370.37","WebKit","Edge","106.0.1370.37","Windows","10.0","null","<div style=""font-size:60px;"">+</div>","null",""
"","","","","","html-button-response","33","146341","0.0-4.0-1.14","210","1","2022-10-11 12:08:44","d60b49b5908c80e163b920d72b52d584","202.204.120.203","Mozilla/5.0 (Windows NT 10.0; Win64; x64) AppleWebKit/537.36 (KHTML, like Gecko) Chrome/106.0.0.0 Safari/537.36 Edg/106.0.1370.37","WebKit","Edge","106.0.1370.37","Windows","10.0","661","<p>作为军队的指挥官，你可以选择发射导弹杀死 <strong>3名</strong> 敌国士兵，但会误杀附近的 <strong>1名</strong> 敌国平民。</p> <p>平民照片如下图所示。</p> <p></p> <img src='stimuli/faces/NCM1.jpg', style='max-width: 30%;'> </img> <p><strong>你是否选择发射武器？</strong></p>","0",""
"","","","","","html-keyboard-response","34","147343","0.0-4.0-0.15","210","1","2022-10-11 12:08:44","d60b49b5908c80e163b920d72b52d584","202.204.120.203","Mozilla/5.0 (Windows NT 10.0; Win64; x64) AppleWebKit/537.36 (KHTML, like Gecko) Chrome/106.0.0.0 Safari/537.36 Edg/106.0.1370.37","WebKit","Edge","106.0.1370.37","Windows","10.0","null","<div style=""font-size:60px;"">+</div>","null",""
"","","","","","html-button-response","35","148603","0.0-4.0-1.15","210","1","2022-10-11 12:08:44","d60b49b5908c80e163b920d72b52d584","202.204.120.203","Mozilla/5.0 (Windows NT 10.0; Win64; x64) AppleWebKit/537.36 (KHTML, like Gecko) Chrome/106.0.0.0 Safari/537.36 Edg/106.0.1370.37","WebKit","Edge","106.0.1370.37","Windows","10.0","1255","<p>作为军队的指挥官，你可以选择发射导弹杀死 <strong>9名</strong> 敌国士兵，但会误杀附近的 <strong>1名</strong> 敌国平民。</p> <p>平民照片如下图所示。</p> <p></p> <img src='stimuli/faces/NCM4.jpg', style='max-width: 30%;'> </img> <p><strong>你是否选择发射武器？</strong></p>","0",""
"","","","","","html-keyboard-response","36","149612","0.0-4.0-0.16","210","1","2022-10-11 12:08:44","d60b49b5908c80e163b920d72b52d584","202.204.120.203","Mozilla/5.0 (Windows NT 10.0; Win64; x64) AppleWebKit/537.36 (KHTML, like Gecko) Chrome/106.0.0.0 Safari/537.36 Edg/106.0.1370.37","WebKit","Edge","106.0.1370.37","Windows","10.0","null","<div style=""font-size:60px;"">+</div>","null",""
"","","","","","html-button-response","37","153377","0.0-4.0-1.16","210","1","2022-10-11 12:08:44","d60b49b5908c80e163b920d72b52d584","202.204.120.203","Mozilla/5.0 (Windows NT 10.0; Win64; x64) AppleWebKit/537.36 (KHTML, like Gecko) Chrome/106.0.0.0 Safari/537.36 Edg/106.0.1370.37","WebKit","Edge","106.0.1370.37","Windows","10.0","3761","<p>作为军队的指挥官，你可以选择发射导弹杀死 <strong>8名</strong> 敌国士兵，但会误杀附近的 <strong>1名</strong> 敌国平民。</p> <p>平民照片如下图所示。</p> <p></p> <img src='stimuli/faces/NCF6.jpg', style='max-width: 30%;'> </img> <p><strong>你是否选择发射武器？</strong></p>","0",""
"","","","","","html-keyboard-response","38","154383","0.0-4.0-0.17","210","1","2022-10-11 12:08:44","d60b49b5908c80e163b920d72b52d584","202.204.120.203","Mozilla/5.0 (Windows NT 10.0; Win64; x64) AppleWebKit/537.36 (KHTML, like Gecko) Chrome/106.0.0.0 Safari/537.36 Edg/106.0.1370.37","WebKit","Edge","106.0.1370.37","Windows","10.0","null","<div style=""font-size:60px;"">+</div>","null",""
"","","","","","html-button-response","39","163585","0.0-4.0-1.17","210","1","2022-10-11 12:08:44","d60b49b5908c80e163b920d72b52d584","202.204.120.203","Mozilla/5.0 (Windows NT 10.0; Win64; x64) AppleWebKit/537.36 (KHTML, like Gecko) Chrome/106.0.0.0 Safari/537.36 Edg/106.0.1370.37","WebKit","Edge","106.0.1370.37","Windows","10.0","9195","<p>作为军队的指挥官，你可以选择发射导弹杀死 <strong>1名</strong> 敌国士兵，但会误杀附近的 <strong>1名</strong> 敌国平民。</p> <p>平民照片如下图所示。</p> <p></p> <img src='stimuli/faces/NCM8.jpg', style='max-width: 30%;'> </img> <p><strong>你是否选择发射武器？</strong></p>","0",""
"","","","","","html-keyboard-response","40","164589","0.0-4.0-0.18","210","1","2022-10-11 12:08:44","d60b49b5908c80e163b920d72b52d584","202.204.120.203","Mozilla/5.0 (Windows NT 10.0; Win64; x64) AppleWebKit/537.36 (KHTML, like Gecko) Chrome/106.0.0.0 Safari/537.36 Edg/106.0.1370.37","WebKit","Edge","106.0.1370.37","Windows","10.0","null","<div style=""font-size:60px;"">+</div>","null",""
"","","","","","html-button-response","41","165165","0.0-4.0-1.18","210","1","2022-10-11 12:08:44","d60b49b5908c80e163b920d72b52d584","202.204.120.203","Mozilla/5.0 (Windows NT 10.0; Win64; x64) AppleWebKit/537.36 (KHTML, like Gecko) Chrome/106.0.0.0 Safari/537.36 Edg/106.0.1370.37","WebKit","Edge","106.0.1370.37","Windows","10.0","571","<p>作为军队的指挥官，你可以选择发射导弹杀死 <strong>6名</strong> 敌国士兵，但会炸毁附近的 <strong>1棵</strong> 敌国树木。</p> <p>树木的照片如下图所示。</p> <p></p> <img src='stimuli/trees/12.png', style='max-width: 30%;'> </img> <p><strong>你是否选择发射武器？</strong></p>","0",""
"","","","","","html-keyboard-response","42","166169","0.0-4.0-0.19","210","1","2022-10-11 12:08:44","d60b49b5908c80e163b920d72b52d584","202.204.120.203","Mozilla/5.0 (Windows NT 10.0; Win64; x64) AppleWebKit/537.36 (KHTML, like Gecko) Chrome/106.0.0.0 Safari/537.36 Edg/106.0.1370.37","WebKit","Edge","106.0.1370.37","Windows","10.0","null","<div style=""font-size:60px;"">+</div>","null",""
"","","","","","html-button-response","43","171241","0.0-4.0-1.19","210","1","2022-10-11 12:08:44","d60b49b5908c80e163b920d72b52d584","202.204.120.203","Mozilla/5.0 (Windows NT 10.0; Win64; x64) AppleWebKit/537.36 (KHTML, like Gecko) Chrome/106.0.0.0 Safari/537.36 Edg/106.0.1370.37","WebKit","Edge","106.0.1370.37","Windows","10.0","5068","<p>作为军队的指挥官，你可以选择发射导弹杀死 <strong>1名</strong> 敌国士兵，但会误杀附近的 <strong>1名</strong> 敌国平民。</p> <p>平民照片如下图所示。</p> <p></p> <img src='stimuli/faces/NCF6.jpg', style='max-width: 30%;'> </img> <p><strong>你是否选择发射武器？</strong></p>","0",""
"","","","","","html-keyboard-response","44","172244","0.0-4.0-0.20","210","1","2022-10-11 12:08:44","d60b49b5908c80e163b920d72b52d584","202.204.120.203","Mozilla/5.0 (Windows NT 10.0; Win64; x64) AppleWebKit/537.36 (KHTML, like Gecko) Chrome/106.0.0.0 Safari/537.36 Edg/106.0.1370.37","WebKit","Edge","106.0.1370.37","Windows","10.0","null","<div style=""font-size:60px;"">+</div>","null",""
"","","","","","html-button-response","45","175991","0.0-4.0-1.20","210","1","2022-10-11 12:08:44","d60b49b5908c80e163b920d72b52d584","202.204.120.203","Mozilla/5.0 (Windows NT 10.0; Win64; x64) AppleWebKit/537.36 (KHTML, like Gecko) Chrome/106.0.0.0 Safari/537.36 Edg/106.0.1370.37","WebKit","Edge","106.0.1370.37","Windows","10.0","3743","<p>作为军队的指挥官，你可以选择发射导弹杀死 <strong>10名</strong> 敌国士兵，但会炸毁附近的 <strong>1棵</strong> 敌国树木。</p> <p>树木的照片如下图所示。</p> <p></p> <img src='stimuli/trees/14.png', style='max-width: 30%;'> </img> <p><strong>你是否选择发射武器？</strong></p>","0",""
"","","","","","html-keyboard-response","46","176994","0.0-4.0-0.21","210","1","2022-10-11 12:08:44","d60b49b5908c80e163b920d72b52d584","202.204.120.203","Mozilla/5.0 (Windows NT 10.0; Win64; x64) AppleWebKit/537.36 (KHTML, like Gecko) Chrome/106.0.0.0 Safari/537.36 Edg/106.0.1370.37","WebKit","Edge","106.0.1370.37","Windows","10.0","null","<div style=""font-size:60px;"">+</div>","null",""
"","","","","","html-button-response","47","185415","0.0-4.0-1.21","210","1","2022-10-11 12:08:44","d60b49b5908c80e163b920d72b52d584","202.204.120.203","Mozilla/5.0 (Windows NT 10.0; Win64; x64) AppleWebKit/537.36 (KHTML, like Gecko) Chrome/106.0.0.0 Safari/537.36 Edg/106.0.1370.37","WebKit","Edge","106.0.1370.37","Windows","10.0","8415","<p>作为军队的指挥官，你可以选择发射导弹杀死 <strong>5名</strong> 敌国士兵，但会误杀附近的 <strong>1名</strong> 敌国平民。</p> <p>平民照片如下图所示。</p> <p></p> <img src='stimuli/faces/NCF2.jpg', style='max-width: 30%;'> </img> <p><strong>你是否选择发射武器？</strong></p>","0",""
"","","","","","html-keyboard-response","48","186418","0.0-4.0-0.22","210","1","2022-10-11 12:08:44","d60b49b5908c80e163b920d72b52d584","202.204.120.203","Mozilla/5.0 (Windows NT 10.0; Win64; x64) AppleWebKit/537.36 (KHTML, like Gecko) Chrome/106.0.0.0 Safari/537.36 Edg/106.0.1370.37","WebKit","Edge","106.0.1370.37","Windows","10.0","null","<div style=""font-size:60px;"">+</div>","null",""
"","","","","","html-button-response","49","187091","0.0-4.0-1.22","210","1","2022-10-11 12:08:44","d60b49b5908c80e163b920d72b52d584","202.204.120.203","Mozilla/5.0 (Windows NT 10.0; Win64; x64) AppleWebKit/537.36 (KHTML, like Gecko) Chrome/106.0.0.0 Safari/537.36 Edg/106.0.1370.37","WebKit","Edge","106.0.1370.37","Windows","10.0","664","<p>作为军队的指挥官，你可以选择发射导弹杀死 <strong>4名</strong> 敌国士兵，但会误杀附近的 <strong>1名</strong> 敌国平民。</p> <p>平民照片如下图所示。</p> <p></p> <img src='stimuli/faces/NCM2.jpg', style='max-width: 30%;'> </img> <p><strong>你是否选择发射武器？</strong></p>","0",""
"","","","","","html-keyboard-response","50","188106","0.0-4.0-0.23","210","1","2022-10-11 12:08:44","d60b49b5908c80e163b920d72b52d584","202.204.120.203","Mozilla/5.0 (Windows NT 10.0; Win64; x64) AppleWebKit/537.36 (KHTML, like Gecko) Chrome/106.0.0.0 Safari/537.36 Edg/106.0.1370.37","WebKit","Edge","106.0.1370.37","Windows","10.0","null","<div style=""font-size:60px;"">+</div>","null",""
"","","","","","html-button-response","51","189743","0.0-4.0-1.23","210","1","2022-10-11 12:08:44","d60b49b5908c80e163b920d72b52d584","202.204.120.203","Mozilla/5.0 (Windows NT 10.0; Win64; x64) AppleWebKit/537.36 (KHTML, like Gecko) Chrome/106.0.0.0 Safari/537.36 Edg/106.0.1370.37","WebKit","Edge","106.0.1370.37","Windows","10.0","1633","<p>作为军队的指挥官，你可以选择发射导弹杀死 <strong>2名</strong> 敌国士兵，但会炸毁附近的 <strong>1棵</strong> 敌国树木。</p> <p>树木的照片如下图所示。</p> <p></p> <img src='stimuli/trees/14.png', style='max-width: 30%;'> </img> <p><strong>你是否选择发射武器？</strong></p>","0",""
"","","","","","html-keyboard-response","52","190756","0.0-4.0-0.24","210","1","2022-10-11 12:08:44","d60b49b5908c80e163b920d72b52d584","202.204.120.203","Mozilla/5.0 (Windows NT 10.0; Win64; x64) AppleWebKit/537.36 (KHTML, like Gecko) Chrome/106.0.0.0 Safari/537.36 Edg/106.0.1370.37","WebKit","Edge","106.0.1370.37","Windows","10.0","null","<div style=""font-size:60px;"">+</div>","null",""
"","","","","","html-button-response","53","191685","0.0-4.0-1.24","210","1","2022-10-11 12:08:44","d60b49b5908c80e163b920d72b52d584","202.204.120.203","Mozilla/5.0 (Windows NT 10.0; Win64; x64) AppleWebKit/537.36 (KHTML, like Gecko) Chrome/106.0.0.0 Safari/537.36 Edg/106.0.1370.37","WebKit","Edge","106.0.1370.37","Windows","10.0","924","<p>作为军队的指挥官，你可以选择发射导弹杀死 <strong>3名</strong> 敌国士兵，但会误杀附近的 <strong>1名</strong> 敌国平民。</p> <p>平民照片如下图所示。</p> <p></p> <img src='stimuli/faces/NCF4.jpg', style='max-width: 30%;'> </img> <p><strong>你是否选择发射武器？</strong></p>","0",""
"","","","","","html-keyboard-response","54","192703","0.0-4.0-0.25","210","1","2022-10-11 12:08:44","d60b49b5908c80e163b920d72b52d584","202.204.120.203","Mozilla/5.0 (Windows NT 10.0; Win64; x64) AppleWebKit/537.36 (KHTML, like Gecko) Chrome/106.0.0.0 Safari/537.36 Edg/106.0.1370.37","WebKit","Edge","106.0.1370.37","Windows","10.0","null","<div style=""font-size:60px;"">+</div>","null",""
"","","","","","html-button-response","55","193341","0.0-4.0-1.25","210","1","2022-10-11 12:08:44","d60b49b5908c80e163b920d72b52d584","202.204.120.203","Mozilla/5.0 (Windows NT 10.0; Win64; x64) AppleWebKit/537.36 (KHTML, like Gecko) Chrome/106.0.0.0 Safari/537.36 Edg/106.0.1370.37","WebKit","Edge","106.0.1370.37","Windows","10.0","631","<p>作为军队的指挥官，你可以选择发射导弹杀死 <strong>10名</strong> 敌国士兵，但会误杀附近的 <strong>1名</strong> 敌国平民。</p> <p>平民照片如下图所示。</p> <p></p> <img src='stimuli/faces/NCF4.jpg', style='max-width: 30%;'> </img> <p><strong>你是否选择发射武器？</strong></p>","0",""
"","","","","","html-keyboard-response","56","194359","0.0-4.0-0.26","210","1","2022-10-11 12:08:44","d60b49b5908c80e163b920d72b52d584","202.204.120.203","Mozilla/5.0 (Windows NT 10.0; Win64; x64) AppleWebKit/537.36 (KHTML, like Gecko) Chrome/106.0.0.0 Safari/537.36 Edg/106.0.1370.37","WebKit","Edge","106.0.1370.37","Windows","10.0","null","<div style=""font-size:60px;"">+</div>","null",""
"","","","","","html-button-response","57","194905","0.0-4.0-1.26","210","1","2022-10-11 12:08:44","d60b49b5908c80e163b920d72b52d584","202.204.120.203","Mozilla/5.0 (Windows NT 10.0; Win64; x64) AppleWebKit/537.36 (KHTML, like Gecko) Chrome/106.0.0.0 Safari/537.36 Edg/106.0.1370.37","WebKit","Edge","106.0.1370.37","Windows","10.0","541","<p>作为军队的指挥官，你可以选择发射导弹杀死 <strong>9名</strong> 敌国士兵，但会炸毁附近的 <strong>1棵</strong> 敌国树木。</p> <p>树木的照片如下图所示。</p> <p></p> <img src='stimuli/trees/5.png', style='max-width: 30%;'> </img> <p><strong>你是否选择发射武器？</strong></p>","0",""
"","","","","","html-keyboard-response","58","195922","0.0-4.0-0.27","210","1","2022-10-11 12:08:44","d60b49b5908c80e163b920d72b52d584","202.204.120.203","Mozilla/5.0 (Windows NT 10.0; Win64; x64) AppleWebKit/537.36 (KHTML, like Gecko) Chrome/106.0.0.0 Safari/537.36 Edg/106.0.1370.37","WebKit","Edge","106.0.1370.37","Windows","10.0","null","<div style=""font-size:60px;"">+</div>","null",""
"","","","","","html-button-response","59","197637","0.0-4.0-1.27","210","1","2022-10-11 12:08:44","d60b49b5908c80e163b920d72b52d584","202.204.120.203","Mozilla/5.0 (Windows NT 10.0; Win64; x64) AppleWebKit/537.36 (KHTML, like Gecko) Chrome/106.0.0.0 Safari/537.36 Edg/106.0.1370.37","WebKit","Edge","106.0.1370.37","Windows","10.0","1710","<p>作为军队的指挥官，你可以选择发射导弹杀死 <strong>2名</strong> 敌国士兵，但会炸毁附近的 <strong>1棵</strong> 敌国树木。</p> <p>树木的照片如下图所示。</p> <p></p> <img src='stimuli/trees/10.png', style='max-width: 30%;'> </img> <p><strong>你是否选择发射武器？</strong></p>","0",""
"","","","","","html-keyboard-response","60","198656","0.0-4.0-0.28","210","1","2022-10-11 12:08:44","d60b49b5908c80e163b920d72b52d584","202.204.120.203","Mozilla/5.0 (Windows NT 10.0; Win64; x64) AppleWebKit/537.36 (KHTML, like Gecko) Chrome/106.0.0.0 Safari/537.36 Edg/106.0.1370.37","WebKit","Edge","106.0.1370.37","Windows","10.0","null","<div style=""font-size:60px;"">+</div>","null",""
"","","","","","html-button-response","61","226619","0.0-4.0-1.28","210","1","2022-10-11 12:08:44","d60b49b5908c80e163b920d72b52d584","202.204.120.203","Mozilla/5.0 (Windows NT 10.0; Win64; x64) AppleWebKit/537.36 (KHTML, like Gecko) Chrome/106.0.0.0 Safari/537.36 Edg/106.0.1370.37","WebKit","Edge","106.0.1370.37","Windows","10.0","27958","<p>作为军队的指挥官，你可以选择发射导弹杀死 <strong>3名</strong> 敌国士兵，但会误杀附近的 <strong>1名</strong> 敌国平民。</p> <p>平民照片如下图所示。</p> <p></p> <img src='stimuli/faces/NCM3.jpg', style='max-width: 30%;'> </img> <p><strong>你是否选择发射武器？</strong></p>","0",""
"","","","","","html-keyboard-response","62","227622","0.0-4.0-0.29","210","1","2022-10-11 12:08:44","d60b49b5908c80e163b920d72b52d584","202.204.120.203","Mozilla/5.0 (Windows NT 10.0; Win64; x64) AppleWebKit/537.36 (KHTML, like Gecko) Chrome/106.0.0.0 Safari/537.36 Edg/106.0.1370.37","WebKit","Edge","106.0.1370.37","Windows","10.0","null","<div style=""font-size:60px;"">+</div>","null",""
"","","","","","html-button-response","63","230125","0.0-4.0-1.29","210","1","2022-10-11 12:08:44","d60b49b5908c80e163b920d72b52d584","202.204.120.203","Mozilla/5.0 (Windows NT 10.0; Win64; x64) AppleWebKit/537.36 (KHTML, like Gecko) Chrome/106.0.0.0 Safari/537.36 Edg/106.0.1370.37","WebKit","Edge","106.0.1370.37","Windows","10.0","2497","<p>作为军队的指挥官，你可以选择发射导弹杀死 <strong>9名</strong> 敌国士兵，但会误杀附近的 <strong>1名</strong> 敌国平民。</p> <p>平民照片如下图所示。</p> <p></p> <img src='stimuli/faces/NCM7.jpg', style='max-width: 30%;'> </img> <p><strong>你是否选择发射武器？</strong></p>","0",""
"","","","","","html-keyboard-response","64","231128","0.0-4.0-0.30","210","1","2022-10-11 12:08:44","d60b49b5908c80e163b920d72b52d584","202.204.120.203","Mozilla/5.0 (Windows NT 10.0; Win64; x64) AppleWebKit/537.36 (KHTML, like Gecko) Chrome/106.0.0.0 Safari/537.36 Edg/106.0.1370.37","WebKit","Edge","106.0.1370.37","Windows","10.0","null","<div style=""font-size:60px;"">+</div>","null",""
"","","","","","html-button-response","65","236863","0.0-4.0-1.30","210","1","2022-10-11 12:08:44","d60b49b5908c80e163b920d72b52d584","202.204.120.203","Mozilla/5.0 (Windows NT 10.0; Win64; x64) AppleWebKit/537.36 (KHTML, like Gecko) Chrome/106.0.0.0 Safari/537.36 Edg/106.0.1370.37","WebKit","Edge","106.0.1370.37","Windows","10.0","5730","<p>作为军队的指挥官，你可以选择发射导弹杀死 <strong>10名</strong> 敌国士兵，但会炸毁附近的 <strong>1棵</strong> 敌国树木。</p> <p>树木的照片如下图所示。</p> <p></p> <img src='stimuli/trees/15.png', style='max-width: 30%;'> </img> <p><strong>你是否选择发射武器？</strong></p>","0",""
"","","","","","html-keyboard-response","66","237868","0.0-4.0-0.31","210","1","2022-10-11 12:08:44","d60b49b5908c80e163b920d72b52d584","202.204.120.203","Mozilla/5.0 (Windows NT 10.0; Win64; x64) AppleWebKit/537.36 (KHTML, like Gecko) Chrome/106.0.0.0 Safari/537.36 Edg/106.0.1370.37","WebKit","Edge","106.0.1370.37","Windows","10.0","null","<div style=""font-size:60px;"">+</div>","null",""
"","","","","","html-button-response","67","238945","0.0-4.0-1.31","210","1","2022-10-11 12:08:44","d60b49b5908c80e163b920d72b52d584","202.204.120.203","Mozilla/5.0 (Windows NT 10.0; Win64; x64) AppleWebKit/537.36 (KHTML, like Gecko) Chrome/106.0.0.0 Safari/537.36 Edg/106.0.1370.37","WebKit","Edge","106.0.1370.37","Windows","10.0","1071","<p>作为军队的指挥官，你可以选择发射导弹杀死 <strong>10名</strong> 敌国士兵，但会炸毁附近的 <strong>1棵</strong> 敌国树木。</p> <p>树木的照片如下图所示。</p> <p></p> <img src='stimuli/trees/8.png', style='max-width: 30%;'> </img> <p><strong>你是否选择发射武器？</strong></p>","0",""
"","","","","","html-keyboard-response","68","239956","0.0-4.0-0.32","210","1","2022-10-11 12:08:44","d60b49b5908c80e163b920d72b52d584","202.204.120.203","Mozilla/5.0 (Windows NT 10.0; Win64; x64) AppleWebKit/537.36 (KHTML, like Gecko) Chrome/106.0.0.0 Safari/537.36 Edg/106.0.1370.37","WebKit","Edge","106.0.1370.37","Windows","10.0","null","<div style=""font-size:60px;"">+</div>","null",""
"","","","","","html-button-response","69","243937","0.0-4.0-1.32","210","1","2022-10-11 12:08:44","d60b49b5908c80e163b920d72b52d584","202.204.120.203","Mozilla/5.0 (Windows NT 10.0; Win64; x64) AppleWebKit/537.36 (KHTML, like Gecko) Chrome/106.0.0.0 Safari/537.36 Edg/106.0.1370.37","WebKit","Edge","106.0.1370.37","Windows","10.0","3974","<p>作为军队的指挥官，你可以选择发射导弹杀死 <strong>1名</strong> 敌国士兵，但会误杀附近的 <strong>1名</strong> 敌国平民。</p> <p>平民照片如下图所示。</p> <p></p> <img src='stimuli/faces/NCF3.jpg', style='max-width: 30%;'> </img> <p><strong>你是否选择发射武器？</strong></p>","0",""
"","","","","","html-keyboard-response","70","244940","0.0-4.0-0.33","210","1","2022-10-11 12:08:44","d60b49b5908c80e163b920d72b52d584","202.204.120.203","Mozilla/5.0 (Windows NT 10.0; Win64; x64) AppleWebKit/537.36 (KHTML, like Gecko) Chrome/106.0.0.0 Safari/537.36 Edg/106.0.1370.37","WebKit","Edge","106.0.1370.37","Windows","10.0","null","<div style=""font-size:60px;"">+</div>","null",""
"","","","","","html-button-response","71","246065","0.0-4.0-1.33","210","1","2022-10-11 12:08:44","d60b49b5908c80e163b920d72b52d584","202.204.120.203","Mozilla/5.0 (Windows NT 10.0; Win64; x64) AppleWebKit/537.36 (KHTML, like Gecko) Chrome/106.0.0.0 Safari/537.36 Edg/106.0.1370.37","WebKit","Edge","106.0.1370.37","Windows","10.0","1120","<p>作为军队的指挥官，你可以选择发射导弹杀死 <strong>4名</strong> 敌国士兵，但会误杀附近的 <strong>1名</strong> 敌国平民。</p> <p>平民照片如下图所示。</p> <p></p> <img src='stimuli/faces/NCF1.jpg', style='max-width: 30%;'> </img> <p><strong>你是否选择发射武器？</strong></p>","0",""
"","","","","","html-keyboard-response","72","247068","0.0-4.0-0.34","210","1","2022-10-11 12:08:44","d60b49b5908c80e163b920d72b52d584","202.204.120.203","Mozilla/5.0 (Windows NT 10.0; Win64; x64) AppleWebKit/537.36 (KHTML, like Gecko) Chrome/106.0.0.0 Safari/537.36 Edg/106.0.1370.37","WebKit","Edge","106.0.1370.37","Windows","10.0","null","<div style=""font-size:60px;"">+</div>","null",""
"","","","","","html-button-response","73","248407","0.0-4.0-1.34","210","1","2022-10-11 12:08:44","d60b49b5908c80e163b920d72b52d584","202.204.120.203","Mozilla/5.0 (Windows NT 10.0; Win64; x64) AppleWebKit/537.36 (KHTML, like Gecko) Chrome/106.0.0.0 Safari/537.36 Edg/106.0.1370.37","WebKit","Edge","106.0.1370.37","Windows","10.0","1334","<p>作为军队的指挥官，你可以选择发射导弹杀死 <strong>2名</strong> 敌国士兵，但会炸毁附近的 <strong>1棵</strong> 敌国树木。</p> <p>树木的照片如下图所示。</p> <p></p> <img src='stimuli/trees/12.png', style='max-width: 30%;'> </img> <p><strong>你是否选择发射武器？</strong></p>","0",""
"","","","","","html-keyboard-response","74","249426","0.0-4.0-0.35","210","1","2022-10-11 12:08:44","d60b49b5908c80e163b920d72b52d584","202.204.120.203","Mozilla/5.0 (Windows NT 10.0; Win64; x64) AppleWebKit/537.36 (KHTML, like Gecko) Chrome/106.0.0.0 Safari/537.36 Edg/106.0.1370.37","WebKit","Edge","106.0.1370.37","Windows","10.0","null","<div style=""font-size:60px;"">+</div>","null",""
"","","","","","html-button-response","75","250115","0.0-4.0-1.35","210","1","2022-10-11 12:08:44","d60b49b5908c80e163b920d72b52d584","202.204.120.203","Mozilla/5.0 (Windows NT 10.0; Win64; x64) AppleWebKit/537.36 (KHTML, like Gecko) Chrome/106.0.0.0 Safari/537.36 Edg/106.0.1370.37","WebKit","Edge","106.0.1370.37","Windows","10.0","683","<p>作为军队的指挥官，你可以选择发射导弹杀死 <strong>7名</strong> 敌国士兵，但会炸毁附近的 <strong>1棵</strong> 敌国树木。</p> <p>树木的照片如下图所示。</p> <p></p> <img src='stimuli/trees/4.png', style='max-width: 30%;'> </img> <p><strong>你是否选择发射武器？</strong></p>","0",""
"","","","","","html-keyboard-response","76","251118","0.0-4.0-0.36","210","1","2022-10-11 12:08:44","d60b49b5908c80e163b920d72b52d584","202.204.120.203","Mozilla/5.0 (Windows NT 10.0; Win64; x64) AppleWebKit/537.36 (KHTML, like Gecko) Chrome/106.0.0.0 Safari/537.36 Edg/106.0.1370.37","WebKit","Edge","106.0.1370.37","Windows","10.0","null","<div style=""font-size:60px;"">+</div>","null",""
"","","","","","html-button-response","77","252287","0.0-4.0-1.36","210","1","2022-10-11 12:08:44","d60b49b5908c80e163b920d72b52d584","202.204.120.203","Mozilla/5.0 (Windows NT 10.0; Win64; x64) AppleWebKit/537.36 (KHTML, like Gecko) Chrome/106.0.0.0 Safari/537.36 Edg/106.0.1370.37","WebKit","Edge","106.0.1370.37","Windows","10.0","1164","<p>作为军队的指挥官，你可以选择发射导弹杀死 <strong>4名</strong> 敌国士兵，但会炸毁附近的 <strong>1棵</strong> 敌国树木。</p> <p>树木的照片如下图所示。</p> <p></p> <img src='stimuli/trees/16.png', style='max-width: 30%;'> </img> <p><strong>你是否选择发射武器？</strong></p>","0",""
"","","","","","html-keyboard-response","78","253292","0.0-4.0-0.37","210","1","2022-10-11 12:08:44","d60b49b5908c80e163b920d72b52d584","202.204.120.203","Mozilla/5.0 (Windows NT 10.0; Win64; x64) AppleWebKit/537.36 (KHTML, like Gecko) Chrome/106.0.0.0 Safari/537.36 Edg/106.0.1370.37","WebKit","Edge","106.0.1370.37","Windows","10.0","null","<div style=""font-size:60px;"">+</div>","null",""
"","","","","","html-button-response","79","254205","0.0-4.0-1.37","210","1","2022-10-11 12:08:44","d60b49b5908c80e163b920d72b52d584","202.204.120.203","Mozilla/5.0 (Windows NT 10.0; Win64; x64) AppleWebKit/537.36 (KHTML, like Gecko) Chrome/106.0.0.0 Safari/537.36 Edg/106.0.1370.37","WebKit","Edge","106.0.1370.37","Windows","10.0","907","<p>作为军队的指挥官，你可以选择发射导弹杀死 <strong>7名</strong> 敌国士兵，但会炸毁附近的 <strong>1棵</strong> 敌国树木。</p> <p>树木的照片如下图所示。</p> <p></p> <img src='stimuli/trees/16.png', style='max-width: 30%;'> </img> <p><strong>你是否选择发射武器？</strong></p>","0",""
"","","","","","html-keyboard-response","80","255208","0.0-4.0-0.38","210","1","2022-10-11 12:08:44","d60b49b5908c80e163b920d72b52d584","202.204.120.203","Mozilla/5.0 (Windows NT 10.0; Win64; x64) AppleWebKit/537.36 (KHTML, like Gecko) Chrome/106.0.0.0 Safari/537.36 Edg/106.0.1370.37","WebKit","Edge","106.0.1370.37","Windows","10.0","null","<div style=""font-size:60px;"">+</div>","null",""
"","","","","","html-button-response","81","255889","0.0-4.0-1.38","210","1","2022-10-11 12:08:44","d60b49b5908c80e163b920d72b52d584","202.204.120.203","Mozilla/5.0 (Windows NT 10.0; Win64; x64) AppleWebKit/537.36 (KHTML, like Gecko) Chrome/106.0.0.0 Safari/537.36 Edg/106.0.1370.37","WebKit","Edge","106.0.1370.37","Windows","10.0","675","<p>作为军队的指挥官，你可以选择发射导弹杀死 <strong>7名</strong> 敌国士兵，但会炸毁附近的 <strong>1棵</strong> 敌国树木。</p> <p>树木的照片如下图所示。</p> <p></p> <img src='stimuli/trees/11.png', style='max-width: 30%;'> </img> <p><strong>你是否选择发射武器？</strong></p>","0",""
"","","","","","html-keyboard-response","82","256905","0.0-4.0-0.39","210","1","2022-10-11 12:08:44","d60b49b5908c80e163b920d72b52d584","202.204.120.203","Mozilla/5.0 (Windows NT 10.0; Win64; x64) AppleWebKit/537.36 (KHTML, like Gecko) Chrome/106.0.0.0 Safari/537.36 Edg/106.0.1370.37","WebKit","Edge","106.0.1370.37","Windows","10.0","null","<div style=""font-size:60px;"">+</div>","null",""
"","","","","","html-button-response","83","258013","0.0-4.0-1.39","210","1","2022-10-11 12:08:44","d60b49b5908c80e163b920d72b52d584","202.204.120.203","Mozilla/5.0 (Windows NT 10.0; Win64; x64) AppleWebKit/537.36 (KHTML, like Gecko) Chrome/106.0.0.0 Safari/537.36 Edg/106.0.1370.37","WebKit","Edge","106.0.1370.37","Windows","10.0","1099","<p>作为军队的指挥官，你可以选择发射导弹杀死 <strong>1名</strong> 敌国士兵，但会炸毁附近的 <strong>1棵</strong> 敌国树木。</p> <p>树木的照片如下图所示。</p> <p></p> <img src='stimuli/trees/6.png', style='max-width: 30%;'> </img> <p><strong>你是否选择发射武器？</strong></p>","1",""
"","","","","","html-keyboard-response","84","259018","0.0-4.0-0.40","210","1","2022-10-11 12:08:44","d60b49b5908c80e163b920d72b52d584","202.204.120.203","Mozilla/5.0 (Windows NT 10.0; Win64; x64) AppleWebKit/537.36 (KHTML, like Gecko) Chrome/106.0.0.0 Safari/537.36 Edg/106.0.1370.37","WebKit","Edge","106.0.1370.37","Windows","10.0","null","<div style=""font-size:60px;"">+</div>","null",""
"","","","","","html-button-response","85","260313","0.0-4.0-1.40","210","1","2022-10-11 12:08:44","d60b49b5908c80e163b920d72b52d584","202.204.120.203","Mozilla/5.0 (Windows NT 10.0; Win64; x64) AppleWebKit/537.36 (KHTML, like Gecko) Chrome/106.0.0.0 Safari/537.36 Edg/106.0.1370.37","WebKit","Edge","106.0.1370.37","Windows","10.0","1290","<p>作为军队的指挥官，你可以选择发射导弹杀死 <strong>3名</strong> 敌国士兵，但会炸毁附近的 <strong>1棵</strong> 敌国树木。</p> <p>树木的照片如下图所示。</p> <p></p> <img src='stimuli/trees/3.png', style='max-width: 30%;'> </img> <p><strong>你是否选择发射武器？</strong></p>","0",""
"","","","","","html-keyboard-response","86","261330","0.0-4.0-0.41","210","1","2022-10-11 12:08:44","d60b49b5908c80e163b920d72b52d584","202.204.120.203","Mozilla/5.0 (Windows NT 10.0; Win64; x64) AppleWebKit/537.36 (KHTML, like Gecko) Chrome/106.0.0.0 Safari/537.36 Edg/106.0.1370.37","WebKit","Edge","106.0.1370.37","Windows","10.0","null","<div style=""font-size:60px;"">+</div>","null",""
"","","","","","html-button-response","87","262115","0.0-4.0-1.41","210","1","2022-10-11 12:08:44","d60b49b5908c80e163b920d72b52d584","202.204.120.203","Mozilla/5.0 (Windows NT 10.0; Win64; x64) AppleWebKit/537.36 (KHTML, like Gecko) Chrome/106.0.0.0 Safari/537.36 Edg/106.0.1370.37","WebKit","Edge","106.0.1370.37","Windows","10.0","779","<p>作为军队的指挥官，你可以选择发射导弹杀死 <strong>10名</strong> 敌国士兵，但会误杀附近的 <strong>1名</strong> 敌国平民。</p> <p>平民照片如下图所示。</p> <p></p> <img src='stimuli/faces/NCM5.jpg', style='max-width: 30%;'> </img> <p><strong>你是否选择发射武器？</strong></p>","0",""
"","","","","","html-keyboard-response","88","263129","0.0-4.0-0.42","210","1","2022-10-11 12:08:44","d60b49b5908c80e163b920d72b52d584","202.204.120.203","Mozilla/5.0 (Windows NT 10.0; Win64; x64) AppleWebKit/537.36 (KHTML, like Gecko) Chrome/106.0.0.0 Safari/537.36 Edg/106.0.1370.37","WebKit","Edge","106.0.1370.37","Windows","10.0","null","<div style=""font-size:60px;"">+</div>","null",""
"","","","","","html-button-response","89","264110","0.0-4.0-1.42","210","1","2022-10-11 12:08:44","d60b49b5908c80e163b920d72b52d584","202.204.120.203","Mozilla/5.0 (Windows NT 10.0; Win64; x64) AppleWebKit/537.36 (KHTML, like Gecko) Chrome/106.0.0.0 Safari/537.36 Edg/106.0.1370.37","WebKit","Edge","106.0.1370.37","Windows","10.0","975","<p>作为军队的指挥官，你可以选择发射导弹杀死 <strong>7名</strong> 敌国士兵，但会炸毁附近的 <strong>1棵</strong> 敌国树木。</p> <p>树木的照片如下图所示。</p> <p></p> <img src='stimuli/trees/6.png', style='max-width: 30%;'> </img> <p><strong>你是否选择发射武器？</strong></p>","0",""
"","","","","","html-keyboard-response","90","265114","0.0-4.0-0.43","210","1","2022-10-11 12:08:44","d60b49b5908c80e163b920d72b52d584","202.204.120.203","Mozilla/5.0 (Windows NT 10.0; Win64; x64) AppleWebKit/537.36 (KHTML, like Gecko) Chrome/106.0.0.0 Safari/537.36 Edg/106.0.1370.37","WebKit","Edge","106.0.1370.37","Windows","10.0","null","<div style=""font-size:60px;"">+</div>","null",""
"","","","","","html-button-response","91","268509","0.0-4.0-1.43","210","1","2022-10-11 12:08:44","d60b49b5908c80e163b920d72b52d584","202.204.120.203","Mozilla/5.0 (Windows NT 10.0; Win64; x64) AppleWebKit/537.36 (KHTML, like Gecko) Chrome/106.0.0.0 Safari/537.36 Edg/106.0.1370.37","WebKit","Edge","106.0.1370.37","Windows","10.0","3390","<p>作为军队的指挥官，你可以选择发射导弹杀死 <strong>4名</strong> 敌国士兵，但会炸毁附近的 <strong>1棵</strong> 敌国树木。</p> <p>树木的照片如下图所示。</p> <p></p> <img src='stimuli/trees/8.png', style='max-width: 30%;'> </img> <p><strong>你是否选择发射武器？</strong></p>","0",""
"","","","","","html-keyboard-response","92","269514","0.0-4.0-0.44","210","1","2022-10-11 12:08:44","d60b49b5908c80e163b920d72b52d584","202.204.120.203","Mozilla/5.0 (Windows NT 10.0; Win64; x64) AppleWebKit/537.36 (KHTML, like Gecko) Chrome/106.0.0.0 Safari/537.36 Edg/106.0.1370.37","WebKit","Edge","106.0.1370.37","Windows","10.0","null","<div style=""font-size:60px;"">+</div>","null",""
"","","","","","html-button-response","93","272241","0.0-4.0-1.44","210","1","2022-10-11 12:08:44","d60b49b5908c80e163b920d72b52d584","202.204.120.203","Mozilla/5.0 (Windows NT 10.0; Win64; x64) AppleWebKit/537.36 (KHTML, like Gecko) Chrome/106.0.0.0 Safari/537.36 Edg/106.0.1370.37","WebKit","Edge","106.0.1370.37","Windows","10.0","2721","<p>作为军队的指挥官，你可以选择发射导弹杀死 <strong>1名</strong> 敌国士兵，但会炸毁附近的 <strong>1棵</strong> 敌国树木。</p> <p>树木的照片如下图所示。</p> <p></p> <img src='stimuli/trees/7.png', style='max-width: 30%;'> </img> <p><strong>你是否选择发射武器？</strong></p>","0",""
"","","","","","html-keyboard-response","94","273245","0.0-4.0-0.45","210","1","2022-10-11 12:08:44","d60b49b5908c80e163b920d72b52d584","202.204.120.203","Mozilla/5.0 (Windows NT 10.0; Win64; x64) AppleWebKit/537.36 (KHTML, like Gecko) Chrome/106.0.0.0 Safari/537.36 Edg/106.0.1370.37","WebKit","Edge","106.0.1370.37","Windows","10.0","null","<div style=""font-size:60px;"">+</div>","null",""
"","","","","","html-button-response","95","275479","0.0-4.0-1.45","210","1","2022-10-11 12:08:44","d60b49b5908c80e163b920d72b52d584","202.204.120.203","Mozilla/5.0 (Windows NT 10.0; Win64; x64) AppleWebKit/537.36 (KHTML, like Gecko) Chrome/106.0.0.0 Safari/537.36 Edg/106.0.1370.37","WebKit","Edge","106.0.1370.37","Windows","10.0","2227","<p>作为军队的指挥官，你可以选择发射导弹杀死 <strong>9名</strong> 敌国士兵，但会炸毁附近的 <strong>1棵</strong> 敌国树木。</p> <p>树木的照片如下图所示。</p> <p></p> <img src='stimuli/trees/10.png', style='max-width: 30%;'> </img> <p><strong>你是否选择发射武器？</strong></p>","0",""
"","","","","","html-keyboard-response","96","276484","0.0-4.0-0.46","210","1","2022-10-11 12:08:44","d60b49b5908c80e163b920d72b52d584","202.204.120.203","Mozilla/5.0 (Windows NT 10.0; Win64; x64) AppleWebKit/537.36 (KHTML, like Gecko) Chrome/106.0.0.0 Safari/537.36 Edg/106.0.1370.37","WebKit","Edge","106.0.1370.37","Windows","10.0","null","<div style=""font-size:60px;"">+</div>","null",""
"","","","","","html-button-response","97","278549","0.0-4.0-1.46","210","1","2022-10-11 12:08:44","d60b49b5908c80e163b920d72b52d584","202.204.120.203","Mozilla/5.0 (Windows NT 10.0; Win64; x64) AppleWebKit/537.36 (KHTML, like Gecko) Chrome/106.0.0.0 Safari/537.36 Edg/106.0.1370.37","WebKit","Edge","106.0.1370.37","Windows","10.0","2059","<p>作为军队的指挥官，你可以选择发射导弹杀死 <strong>2名</strong> 敌国士兵，但会误杀附近的 <strong>1名</strong> 敌国平民。</p> <p>平民照片如下图所示。</p> <p></p> <img src='stimuli/faces/NCM5.jpg', style='max-width: 30%;'> </img> <p><strong>你是否选择发射武器？</strong></p>","0",""
"","","","","","html-keyboard-response","98","279553","0.0-4.0-0.47","210","1","2022-10-11 12:08:44","d60b49b5908c80e163b920d72b52d584","202.204.120.203","Mozilla/5.0 (Windows NT 10.0; Win64; x64) AppleWebKit/537.36 (KHTML, like Gecko) Chrome/106.0.0.0 Safari/537.36 Edg/106.0.1370.37","WebKit","Edge","106.0.1370.37","Windows","10.0","null","<div style=""font-size:60px;"">+</div>","null",""
"","","","","","html-button-response","99","283401","0.0-4.0-1.47","210","1","2022-10-11 12:08:44","d60b49b5908c80e163b920d72b52d584","202.204.120.203","Mozilla/5.0 (Windows NT 10.0; Win64; x64) AppleWebKit/537.36 (KHTML, like Gecko) Chrome/106.0.0.0 Safari/537.36 Edg/106.0.1370.37","WebKit","Edge","106.0.1370.37","Windows","10.0","3843","<p>作为军队的指挥官，你可以选择发射导弹杀死 <strong>6名</strong> 敌国士兵，但会炸毁附近的 <strong>1棵</strong> 敌国树木。</p> <p>树木的照片如下图所示。</p> <p></p> <img src='stimuli/trees/1.png', style='max-width: 30%;'> </img> <p><strong>你是否选择发射武器？</strong></p>","0",""
"","","","","","html-keyboard-response","100","284421","0.0-4.0-0.48","210","1","2022-10-11 12:08:44","d60b49b5908c80e163b920d72b52d584","202.204.120.203","Mozilla/5.0 (Windows NT 10.0; Win64; x64) AppleWebKit/537.36 (KHTML, like Gecko) Chrome/106.0.0.0 Safari/537.36 Edg/106.0.1370.37","WebKit","Edge","106.0.1370.37","Windows","10.0","null","<div style=""font-size:60px;"">+</div>","null",""
"","","","","","html-button-response","101","285029","0.0-4.0-1.48","210","1","2022-10-11 12:08:44","d60b49b5908c80e163b920d72b52d584","202.204.120.203","Mozilla/5.0 (Windows NT 10.0; Win64; x64) AppleWebKit/537.36 (KHTML, like Gecko) Chrome/106.0.0.0 Safari/537.36 Edg/106.0.1370.37","WebKit","Edge","106.0.1370.37","Windows","10.0","602","<p>作为军队的指挥官，你可以选择发射导弹杀死 <strong>4名</strong> 敌国士兵，但会误杀附近的 <strong>1名</strong> 敌国平民。</p> <p>平民照片如下图所示。</p> <p></p> <img src='stimuli/faces/NCM4.jpg', style='max-width: 30%;'> </img> <p><strong>你是否选择发射武器？</strong></p>","0",""
"","","","","","html-keyboard-response","102","286035","0.0-4.0-0.49","210","1","2022-10-11 12:08:44","d60b49b5908c80e163b920d72b52d584","202.204.120.203","Mozilla/5.0 (Windows NT 10.0; Win64; x64) AppleWebKit/537.36 (KHTML, like Gecko) Chrome/106.0.0.0 Safari/537.36 Edg/106.0.1370.37","WebKit","Edge","106.0.1370.37","Windows","10.0","null","<div style=""font-size:60px;"">+</div>","null",""
"","","","","","html-button-response","103","286843","0.0-4.0-1.49","210","1","2022-10-11 12:08:44","d60b49b5908c80e163b920d72b52d584","202.204.120.203","Mozilla/5.0 (Windows NT 10.0; Win64; x64) AppleWebKit/537.36 (KHTML, like Gecko) Chrome/106.0.0.0 Safari/537.36 Edg/106.0.1370.37","WebKit","Edge","106.0.1370.37","Windows","10.0","803","<p>作为军队的指挥官，你可以选择发射导弹杀死 <strong>3名</strong> 敌国士兵，但会误杀附近的 <strong>1名</strong> 敌国平民。</p> <p>平民照片如下图所示。</p> <p></p> <img src='stimuli/faces/NCF7.jpg', style='max-width: 30%;'> </img> <p><strong>你是否选择发射武器？</strong></p>","0",""
"","","","","","html-keyboard-response","104","287850","0.0-4.0-0.50","210","1","2022-10-11 12:08:44","d60b49b5908c80e163b920d72b52d584","202.204.120.203","Mozilla/5.0 (Windows NT 10.0; Win64; x64) AppleWebKit/537.36 (KHTML, like Gecko) Chrome/106.0.0.0 Safari/537.36 Edg/106.0.1370.37","WebKit","Edge","106.0.1370.37","Windows","10.0","null","<div style=""font-size:60px;"">+</div>","null",""
"","","","","","html-button-response","105","288619","0.0-4.0-1.50","210","1","2022-10-11 12:08:44","d60b49b5908c80e163b920d72b52d584","202.204.120.203","Mozilla/5.0 (Windows NT 10.0; Win64; x64) AppleWebKit/537.36 (KHTML, like Gecko) Chrome/106.0.0.0 Safari/537.36 Edg/106.0.1370.37","WebKit","Edge","106.0.1370.37","Windows","10.0","762","<p>作为军队的指挥官，你可以选择发射导弹杀死 <strong>3名</strong> 敌国士兵，但会炸毁附近的 <strong>1棵</strong> 敌国树木。</p> <p>树木的照片如下图所示。</p> <p></p> <img src='stimuli/trees/4.png', style='max-width: 30%;'> </img> <p><strong>你是否选择发射武器？</strong></p>","0",""
"","","","","","html-keyboard-response","106","289623","0.0-4.0-0.51","210","1","2022-10-11 12:08:44","d60b49b5908c80e163b920d72b52d584","202.204.120.203","Mozilla/5.0 (Windows NT 10.0; Win64; x64) AppleWebKit/537.36 (KHTML, like Gecko) Chrome/106.0.0.0 Safari/537.36 Edg/106.0.1370.37","WebKit","Edge","106.0.1370.37","Windows","10.0","null","<div style=""font-size:60px;"">+</div>","null",""
"","","","","","html-button-response","107","291165","0.0-4.0-1.51","210","1","2022-10-11 12:08:44","d60b49b5908c80e163b920d72b52d584","202.204.120.203","Mozilla/5.0 (Windows NT 10.0; Win64; x64) AppleWebKit/537.36 (KHTML, like Gecko) Chrome/106.0.0.0 Safari/537.36 Edg/106.0.1370.37","WebKit","Edge","106.0.1370.37","Windows","10.0","1536","<p>作为军队的指挥官，你可以选择发射导弹杀死 <strong>9名</strong> 敌国士兵，但会炸毁附近的 <strong>1棵</strong> 敌国树木。</p> <p>树木的照片如下图所示。</p> <p></p> <img src='stimuli/trees/3.png', style='max-width: 30%;'> </img> <p><strong>你是否选择发射武器？</strong></p>","0",""
"","","","","","html-keyboard-response","108","292172","0.0-4.0-0.52","210","1","2022-10-11 12:08:44","d60b49b5908c80e163b920d72b52d584","202.204.120.203","Mozilla/5.0 (Windows NT 10.0; Win64; x64) AppleWebKit/537.36 (KHTML, like Gecko) Chrome/106.0.0.0 Safari/537.36 Edg/106.0.1370.37","WebKit","Edge","106.0.1370.37","Windows","10.0","null","<div style=""font-size:60px;"">+</div>","null",""
"","","","","","html-button-response","109","293838","0.0-4.0-1.52","210","1","2022-10-11 12:08:44","d60b49b5908c80e163b920d72b52d584","202.204.120.203","Mozilla/5.0 (Windows NT 10.0; Win64; x64) AppleWebKit/537.36 (KHTML, like Gecko) Chrome/106.0.0.0 Safari/537.36 Edg/106.0.1370.37","WebKit","Edge","106.0.1370.37","Windows","10.0","1658","<p>作为军队的指挥官，你可以选择发射导弹杀死 <strong>5名</strong> 敌国士兵，但会炸毁附近的 <strong>1棵</strong> 敌国树木。</p> <p>树木的照片如下图所示。</p> <p></p> <img src='stimuli/trees/13.png', style='max-width: 30%;'> </img> <p><strong>你是否选择发射武器？</strong></p>","0",""
"","","","","","html-keyboard-response","110","294844","0.0-4.0-0.53","210","1","2022-10-11 12:08:44","d60b49b5908c80e163b920d72b52d584","202.204.120.203","Mozilla/5.0 (Windows NT 10.0; Win64; x64) AppleWebKit/537.36 (KHTML, like Gecko) Chrome/106.0.0.0 Safari/537.36 Edg/106.0.1370.37","WebKit","Edge","106.0.1370.37","Windows","10.0","null","<div style=""font-size:60px;"">+</div>","null",""
"","","","","","html-button-response","111","298107","0.0-4.0-1.53","210","1","2022-10-11 12:08:44","d60b49b5908c80e163b920d72b52d584","202.204.120.203","Mozilla/5.0 (Windows NT 10.0; Win64; x64) AppleWebKit/537.36 (KHTML, like Gecko) Chrome/106.0.0.0 Safari/537.36 Edg/106.0.1370.37","WebKit","Edge","106.0.1370.37","Windows","10.0","3255","<p>作为军队的指挥官，你可以选择发射导弹杀死 <strong>7名</strong> 敌国士兵，但会误杀附近的 <strong>1名</strong> 敌国平民。</p> <p>平民照片如下图所示。</p> <p></p> <img src='stimuli/faces/NCF1.jpg', style='max-width: 30%;'> </img> <p><strong>你是否选择发射武器？</strong></p>","0",""
"","","","","","html-keyboard-response","112","299113","0.0-4.0-0.54","210","1","2022-10-11 12:08:44","d60b49b5908c80e163b920d72b52d584","202.204.120.203","Mozilla/5.0 (Windows NT 10.0; Win64; x64) AppleWebKit/537.36 (KHTML, like Gecko) Chrome/106.0.0.0 Safari/537.36 Edg/106.0.1370.37","WebKit","Edge","106.0.1370.37","Windows","10.0","null","<div style=""font-size:60px;"">+</div>","null",""
"","","","","","html-button-response","113","303619","0.0-4.0-1.54","210","1","2022-10-11 12:08:44","d60b49b5908c80e163b920d72b52d584","202.204.120.203","Mozilla/5.0 (Windows NT 10.0; Win64; x64) AppleWebKit/537.36 (KHTML, like Gecko) Chrome/106.0.0.0 Safari/537.36 Edg/106.0.1370.37","WebKit","Edge","106.0.1370.37","Windows","10.0","4499","<p>作为军队的指挥官，你可以选择发射导弹杀死 <strong>9名</strong> 敌国士兵，但会误杀附近的 <strong>1名</strong> 敌国平民。</p> <p>平民照片如下图所示。</p> <p></p> <img src='stimuli/faces/NCF8.jpg', style='max-width: 30%;'> </img> <p><strong>你是否选择发射武器？</strong></p>","0",""
"","","","","","html-keyboard-response","114","304639","0.0-4.0-0.55","210","1","2022-10-11 12:08:44","d60b49b5908c80e163b920d72b52d584","202.204.120.203","Mozilla/5.0 (Windows NT 10.0; Win64; x64) AppleWebKit/537.36 (KHTML, like Gecko) Chrome/106.0.0.0 Safari/537.36 Edg/106.0.1370.37","WebKit","Edge","106.0.1370.37","Windows","10.0","null","<div style=""font-size:60px;"">+</div>","null",""
"","","","","","html-button-response","115","306932","0.0-4.0-1.55","210","1","2022-10-11 12:08:44","d60b49b5908c80e163b920d72b52d584","202.204.120.203","Mozilla/5.0 (Windows NT 10.0; Win64; x64) AppleWebKit/537.36 (KHTML, like Gecko) Chrome/106.0.0.0 Safari/537.36 Edg/106.0.1370.37","WebKit","Edge","106.0.1370.37","Windows","10.0","2283","<p>作为军队的指挥官，你可以选择发射导弹杀死 <strong>3名</strong> 敌国士兵，但会炸毁附近的 <strong>1棵</strong> 敌国树木。</p> <p>树木的照片如下图所示。</p> <p></p> <img src='stimuli/trees/1.png', style='max-width: 30%;'> </img> <p><strong>你是否选择发射武器？</strong></p>","0",""
"","","","","","html-keyboard-response","116","307936","0.0-4.0-0.56","210","1","2022-10-11 12:08:44","d60b49b5908c80e163b920d72b52d584","202.204.120.203","Mozilla/5.0 (Windows NT 10.0; Win64; x64) AppleWebKit/537.36 (KHTML, like Gecko) Chrome/106.0.0.0 Safari/537.36 Edg/106.0.1370.37","WebKit","Edge","106.0.1370.37","Windows","10.0","null","<div style=""font-size:60px;"">+</div>","null",""
"","","","","","html-button-response","117","315949","0.0-4.0-1.56","210","1","2022-10-11 12:08:44","d60b49b5908c80e163b920d72b52d584","202.204.120.203","Mozilla/5.0 (Windows NT 10.0; Win64; x64) AppleWebKit/537.36 (KHTML, like Gecko) Chrome/106.0.0.0 Safari/537.36 Edg/106.0.1370.37","WebKit","Edge","106.0.1370.37","Windows","10.0","8003","<p>作为军队的指挥官，你可以选择发射导弹杀死 <strong>3名</strong> 敌国士兵，但会炸毁附近的 <strong>1棵</strong> 敌国树木。</p> <p>树木的照片如下图所示。</p> <p></p> <img src='stimuli/trees/9.png', style='max-width: 30%;'> </img> <p><strong>你是否选择发射武器？</strong></p>","0",""
"","","","","","html-keyboard-response","118","316954","0.0-4.0-0.57","210","1","2022-10-11 12:08:44","d60b49b5908c80e163b920d72b52d584","202.204.120.203","Mozilla/5.0 (Windows NT 10.0; Win64; x64) AppleWebKit/537.36 (KHTML, like Gecko) Chrome/106.0.0.0 Safari/537.36 Edg/106.0.1370.37","WebKit","Edge","106.0.1370.37","Windows","10.0","null","<div style=""font-size:60px;"">+</div>","null",""
"","","","","","html-button-response","119","319383","0.0-4.0-1.57","210","1","2022-10-11 12:08:44","d60b49b5908c80e163b920d72b52d584","202.204.120.203","Mozilla/5.0 (Windows NT 10.0; Win64; x64) AppleWebKit/537.36 (KHTML, like Gecko) Chrome/106.0.0.0 Safari/537.36 Edg/106.0.1370.37","WebKit","Edge","106.0.1370.37","Windows","10.0","2422","<p>作为军队的指挥官，你可以选择发射导弹杀死 <strong>10名</strong> 敌国士兵，但会误杀附近的 <strong>1名</strong> 敌国平民。</p> <p>平民照片如下图所示。</p> <p></p> <img src='stimuli/faces/NCF3.jpg', style='max-width: 30%;'> </img> <p><strong>你是否选择发射武器？</strong></p>","0",""
"","","","","","html-keyboard-response","120","320389","0.0-4.0-0.58","210","1","2022-10-11 12:08:44","d60b49b5908c80e163b920d72b52d584","202.204.120.203","Mozilla/5.0 (Windows NT 10.0; Win64; x64) AppleWebKit/537.36 (KHTML, like Gecko) Chrome/106.0.0.0 Safari/537.36 Edg/106.0.1370.37","WebKit","Edge","106.0.1370.37","Windows","10.0","null","<div style=""font-size:60px;"">+</div>","null",""
"","","","","","html-button-response","121","321754","0.0-4.0-1.58","210","1","2022-10-11 12:08:44","d60b49b5908c80e163b920d72b52d584","202.204.120.203","Mozilla/5.0 (Windows NT 10.0; Win64; x64) AppleWebKit/537.36 (KHTML, like Gecko) Chrome/106.0.0.0 Safari/537.36 Edg/106.0.1370.37","WebKit","Edge","106.0.1370.37","Windows","10.0","1359","<p>作为军队的指挥官，你可以选择发射导弹杀死 <strong>7名</strong> 敌国士兵，但会误杀附近的 <strong>1名</strong> 敌国平民。</p> <p>平民照片如下图所示。</p> <p></p> <img src='stimuli/faces/NCF2.jpg', style='max-width: 30%;'> </img> <p><strong>你是否选择发射武器？</strong></p>","0",""
"","","","","","html-keyboard-response","122","322758","0.0-4.0-0.59","210","1","2022-10-11 12:08:44","d60b49b5908c80e163b920d72b52d584","202.204.120.203","Mozilla/5.0 (Windows NT 10.0; Win64; x64) AppleWebKit/537.36 (KHTML, like Gecko) Chrome/106.0.0.0 Safari/537.36 Edg/106.0.1370.37","WebKit","Edge","106.0.1370.37","Windows","10.0","null","<div style=""font-size:60px;"">+</div>","null",""
"","","","","","html-button-response","123","324256","0.0-4.0-1.59","210","1","2022-10-11 12:08:44","d60b49b5908c80e163b920d72b52d584","202.204.120.203","Mozilla/5.0 (Windows NT 10.0; Win64; x64) AppleWebKit/537.36 (KHTML, like Gecko) Chrome/106.0.0.0 Safari/537.36 Edg/106.0.1370.37","WebKit","Edge","106.0.1370.37","Windows","10.0","1492","<p>作为军队的指挥官，你可以选择发射导弹杀死 <strong>9名</strong> 敌国士兵，但会误杀附近的 <strong>1名</strong> 敌国平民。</p> <p>平民照片如下图所示。</p> <p></p> <img src='stimuli/faces/NCM1.jpg', style='max-width: 30%;'> </img> <p><strong>你是否选择发射武器？</strong></p>","0",""
"","","","","","html-keyboard-response","124","325260","0.0-4.0-0.60","210","1","2022-10-11 12:08:44","d60b49b5908c80e163b920d72b52d584","202.204.120.203","Mozilla/5.0 (Windows NT 10.0; Win64; x64) AppleWebKit/537.36 (KHTML, like Gecko) Chrome/106.0.0.0 Safari/537.36 Edg/106.0.1370.37","WebKit","Edge","106.0.1370.37","Windows","10.0","null","<div style=""font-size:60px;"">+</div>","null",""
"","","","","","html-button-response","125","326235","0.0-4.0-1.60","210","1","2022-10-11 12:08:44","d60b49b5908c80e163b920d72b52d584","202.204.120.203","Mozilla/5.0 (Windows NT 10.0; Win64; x64) AppleWebKit/537.36 (KHTML, like Gecko) Chrome/106.0.0.0 Safari/537.36 Edg/106.0.1370.37","WebKit","Edge","106.0.1370.37","Windows","10.0","969","<p>作为军队的指挥官，你可以选择发射导弹杀死 <strong>10名</strong> 敌国士兵，但会炸毁附近的 <strong>1棵</strong> 敌国树木。</p> <p>树木的照片如下图所示。</p> <p></p> <img src='stimuli/trees/7.png', style='max-width: 30%;'> </img> <p><strong>你是否选择发射武器？</strong></p>","0",""
"","","","","","html-keyboard-response","126","327240","0.0-4.0-0.61","210","1","2022-10-11 12:08:44","d60b49b5908c80e163b920d72b52d584","202.204.120.203","Mozilla/5.0 (Windows NT 10.0; Win64; x64) AppleWebKit/537.36 (KHTML, like Gecko) Chrome/106.0.0.0 Safari/537.36 Edg/106.0.1370.37","WebKit","Edge","106.0.1370.37","Windows","10.0","null","<div style=""font-size:60px;"">+</div>","null",""
"","","","","","html-button-response","127","328132","0.0-4.0-1.61","210","1","2022-10-11 12:08:44","d60b49b5908c80e163b920d72b52d584","202.204.120.203","Mozilla/5.0 (Windows NT 10.0; Win64; x64) AppleWebKit/537.36 (KHTML, like Gecko) Chrome/106.0.0.0 Safari/537.36 Edg/106.0.1370.37","WebKit","Edge","106.0.1370.37","Windows","10.0","884","<p>作为军队的指挥官，你可以选择发射导弹杀死 <strong>9名</strong> 敌国士兵，但会误杀附近的 <strong>1名</strong> 敌国平民。</p> <p>平民照片如下图所示。</p> <p></p> <img src='stimuli/faces/NCM2.jpg', style='max-width: 30%;'> </img> <p><strong>你是否选择发射武器？</strong></p>","0",""
"","","","","","html-keyboard-response","128","329149","0.0-4.0-0.62","210","1","2022-10-11 12:08:44","d60b49b5908c80e163b920d72b52d584","202.204.120.203","Mozilla/5.0 (Windows NT 10.0; Win64; x64) AppleWebKit/537.36 (KHTML, like Gecko) Chrome/106.0.0.0 Safari/537.36 Edg/106.0.1370.37","WebKit","Edge","106.0.1370.37","Windows","10.0","null","<div style=""font-size:60px;"">+</div>","null",""
"","","","","","html-button-response","129","330386","0.0-4.0-1.62","210","1","2022-10-11 12:08:44","d60b49b5908c80e163b920d72b52d584","202.204.120.203","Mozilla/5.0 (Windows NT 10.0; Win64; x64) AppleWebKit/537.36 (KHTML, like Gecko) Chrome/106.0.0.0 Safari/537.36 Edg/106.0.1370.37","WebKit","Edge","106.0.1370.37","Windows","10.0","1229","<p>作为军队的指挥官，你可以选择发射导弹杀死 <strong>7名</strong> 敌国士兵，但会误杀附近的 <strong>1名</strong> 敌国平民。</p> <p>平民照片如下图所示。</p> <p></p> <img src='stimuli/faces/NCM3.jpg', style='max-width: 30%;'> </img> <p><strong>你是否选择发射武器？</strong></p>","0",""
"","","","","","html-keyboard-response","130","331402","0.0-4.0-0.63","210","1","2022-10-11 12:08:44","d60b49b5908c80e163b920d72b52d584","202.204.120.203","Mozilla/5.0 (Windows NT 10.0; Win64; x64) AppleWebKit/537.36 (KHTML, like Gecko) Chrome/106.0.0.0 Safari/537.36 Edg/106.0.1370.37","WebKit","Edge","106.0.1370.37","Windows","10.0","null","<div style=""font-size:60px;"">+</div>","null",""
"","","","","","html-button-response","131","331892","0.0-4.0-1.63","210","1","2022-10-11 12:08:44","d60b49b5908c80e163b920d72b52d584","202.204.120.203","Mozilla/5.0 (Windows NT 10.0; Win64; x64) AppleWebKit/537.36 (KHTML, like Gecko) Chrome/106.0.0.0 Safari/537.36 Edg/106.0.1370.37","WebKit","Edge","106.0.1370.37","Windows","10.0","483","<p>作为军队的指挥官，你可以选择发射导弹杀死 <strong>6名</strong> 敌国士兵，但会误杀附近的 <strong>1名</strong> 敌国平民。</p> <p>平民照片如下图所示。</p> <p></p> <img src='stimuli/faces/NCF7.jpg', style='max-width: 30%;'> </img> <p><strong>你是否选择发射武器？</strong></p>","0",""
"","","","","","survey-multi-choice","132","351148","0.0-5.0","210","1","2022-10-11 12:08:44","d60b49b5908c80e163b920d72b52d584","202.204.120.203","Mozilla/5.0 (Windows NT 10.0; Win64; x64) AppleWebKit/537.36 (KHTML, like Gecko) Chrome/106.0.0.0 Safari/537.36 Edg/106.0.1370.37","WebKit","Edge","106.0.1370.37","Windows","10.0","19250","","{""Attention1"":""""}","[0]"
"","","","","","html-button-response","133","352807","0.0-6.0","210","1","2022-10-11 12:08:44","d60b49b5908c80e163b920d72b52d584","202.204.120.203","Mozilla/5.0 (Windows NT 10.0; Win64; x64) AppleWebKit/537.36 (KHTML, like Gecko) Chrome/106.0.0.0 Safari/537.36 Edg/106.0.1370.37","WebKit","Edge","106.0.1370.37","Windows","10.0","1650","<p style=""font-size:20px;font-weight:bold;"">恭喜！</p><p>你已经完成了实验的第一部分。</p><p>请休息放松一下，然后进入第二部分。</p><p>这部分大约需要10分钟。</p>","0",""
"","","","","","survey-text","134","377974","0.0-7.0","210","1","2022-10-11 12:08:44","d60b49b5908c80e163b920d72b52d584","202.204.120.203","Mozilla/5.0 (Windows NT 10.0; Win64; x64) AppleWebKit/537.36 (KHTML, like Gecko) Chrome/106.0.0.0 Safari/537.36 Edg/106.0.1370.37","WebKit","Edge","106.0.1370.37","Windows","10.0","24151","","{""Age"":""20"",""Nation"":""中国"",""Born"":""江西"",""Live"":""北京"",""Ethnic"":""汉族"",""Alipay"":""13269293189""}",""
"","","","","","survey-multi-choice","135","390352","0.0-8.0","210","1","2022-10-11 12:08:44","d60b49b5908c80e163b920d72b52d584","202.204.120.203","Mozilla/5.0 (Windows NT 10.0; Win64; x64) AppleWebKit/537.36 (KHTML, like Gecko) Chrome/106.0.0.0 Safari/537.36 Edg/106.0.1370.37","WebKit","Edge","106.0.1370.37","Windows","10.0","12370","","{""Gender"":""女"",""Education"":""本科毕业"",""Income"":""￥70,000-￥139,999"",""Children"":"">=3"",""Race"":""亚洲人""}","[0,1,2,3,4]"
"","","","","","survey-multi-select","136","426069","0.0-9.0","210","1","2022-10-11 12:08:44","d60b49b5908c80e163b920d72b52d584","202.204.120.203","Mozilla/5.0 (Windows NT 10.0; Win64; x64) AppleWebKit/537.36 (KHTML, like Gecko) Chrome/106.0.0.0 Safari/537.36 Edg/106.0.1370.37","WebKit","Edge","106.0.1370.37","Windows","10.0","35704","","{""Marriage"":[""未婚""],""Religion"":[""无宗教信仰""]}","[0,1]"
"","","","","","survey-multi-choice","137","429671","0.0-10.0","210","1","2022-10-11 12:08:44","d60b49b5908c80e163b920d72b52d584","202.204.120.203","Mozilla/5.0 (Windows NT 10.0; Win64; x64) AppleWebKit/537.36 (KHTML, like Gecko) Chrome/106.0.0.0 Safari/537.36 Edg/106.0.1370.37","WebKit","Edge","106.0.1370.37","Windows","10.0","3595","","{""SES"":""5""}","[0]"
"","","","","","html-button-response","138","432290","0.0-11.0","210","1","2022-10-11 12:08:44","d60b49b5908c80e163b920d72b52d584","202.204.120.203","Mozilla/5.0 (Windows NT 10.0; Win64; x64) AppleWebKit/537.36 (KHTML, like Gecko) Chrome/106.0.0.0 Safari/537.36 Edg/106.0.1370.37","WebKit","Edge","106.0.1370.37","Windows","10.0","2612","<p><strong>请判断下列陈述在多大程度上可以形容你？</p><p> (1 = ""和我一点都不像"" to 5 = ""非常像我"".)</strong></p>","0",""
"","","","","","survey-likert","139","447098","0.0-12.0","210","1","2022-10-11 12:08:44","d60b49b5908c80e163b920d72b52d584","202.204.120.203","Mozilla/5.0 (Windows NT 10.0; Win64; x64) AppleWebKit/537.36 (KHTML, like Gecko) Chrome/106.0.0.0 Safari/537.36 Edg/106.0.1370.37","WebKit","Edge","106.0.1370.37","Windows","10.0","14800","","{""Aggression1"":3,""Aggression2"":4,""Aggression3"":3,""Aggression4"":4,""Aggression5"":3,""Aggression6"":4,""Aggression7"":1,""Aggression8"":2,""Aggression9"":3}","[0,1,2,3,4,5,6,7,8]"
"","","","","","html-button-response","140","448302","0.0-13.0","210","1","2022-10-11 12:08:44","d60b49b5908c80e163b920d72b52d584","202.204.120.203","Mozilla/5.0 (Windows NT 10.0; Win64; x64) AppleWebKit/537.36 (KHTML, like Gecko) Chrome/106.0.0.0 Safari/537.36 Edg/106.0.1370.37","WebKit","Edge","106.0.1370.37","Windows","10.0","1197","<p><strong>请判断你在多大程度上同意下列陈述。</strong></p>","0",""
"","","","","","survey-likert","141","523155","0.0-14.0","210","1","2022-10-11 12:08:44","d60b49b5908c80e163b920d72b52d584","202.204.120.203","Mozilla/5.0 (Windows NT 10.0; Win64; x64) AppleWebKit/537.36 (KHTML, like Gecko) Chrome/106.0.0.0 Safari/537.36 Edg/106.0.1370.37","WebKit","Edge","106.0.1370.37","Windows","10.0","74844","","{""scale1"":3,""scale10"":4,""scale27"":1,""scale11"":4,""scale14"":1,""scale4"":2,""scale18"":2,""scale5"":1,""scale26"":2,""scale25"":3,""scale17"":3,""scale21"":4,""scale28"":3,""scale3"":2,""scale13"":1,""scale16"":0,""scale22"":3,""scale6"":3,""scale12"":2,""scale2"":3,""scale20"":4,""scale9"":2,""scale23"":2,""scale24"":2,""scale8"":4,""scale15"":2,""scale19"":3,""scale7"":1}","[0,9,26,10,13,3,17,4,25,24,16,20,27,2,12,15,21,5,11,1,19,8,22,23,7,14,18,6]"
"","","","","","html-button-response","142","524116","0.0-15.0","210","1","2022-10-11 12:08:44","d60b49b5908c80e163b920d72b52d584","202.204.120.203","Mozilla/5.0 (Windows NT 10.0; Win64; x64) AppleWebKit/537.36 (KHTML, like Gecko) Chrome/106.0.0.0 Safari/537.36 Edg/106.0.1370.37","WebKit","Edge","106.0.1370.37","Windows","10.0","952","<p><strong>请判断你在多大程度上同意下列陈述。</strong></p>","0",""
"","","","","","survey-likert","143","573430","0.0-16.0","210","1","2022-10-11 12:08:44","d60b49b5908c80e163b920d72b52d584","202.204.120.203","Mozilla/5.0 (Windows NT 10.0; Win64; x64) AppleWebKit/537.36 (KHTML, like Gecko) Chrome/106.0.0.0 Safari/537.36 Edg/106.0.1370.37","WebKit","Edge","106.0.1370.37","Windows","10.0","49306","","{""sdo3"":6,""sdo4"":5,""sdo9"":2,""sdo2"":5,""sdo15"":3,""sdo11"":4,""sdo16"":5,""sdo6"":4,""sdo10"":2,""sdo14"":2,""sdo1"":5,""sdo7"":1,""sdo5"":3,""sdo8"":5,""sdo13"":3,""sdo12"":5}","[2,3,8,1,14,10,15,5,9,13,0,6,4,7,12,11]"
"","","","","","html-button-response","144","574540","0.0-17.0","210","1","2022-10-11 12:08:44","d60b49b5908c80e163b920d72b52d584","202.204.120.203","Mozilla/5.0 (Windows NT 10.0; Win64; x64) AppleWebKit/537.36 (KHTML, like Gecko) Chrome/106.0.0.0 Safari/537.36 Edg/106.0.1370.37","WebKit","Edge","106.0.1370.37","Windows","10.0","1103","<p><strong>请判断你在多大程度上同意下列陈述。</strong></p>","0",""
"","","","","","survey-likert","145","603852","0.0-18.0","210","1","2022-10-11 12:08:44","d60b49b5908c80e163b920d72b52d584","202.204.120.203","Mozilla/5.0 (Windows NT 10.0; Win64; x64) AppleWebKit/537.36 (KHTML, like Gecko) Chrome/106.0.0.0 Safari/537.36 Edg/106.0.1370.37","WebKit","Edge","106.0.1370.37","Windows","10.0","29304","","{""caring1"":1,""liking1"":3,""caring2"":1,""protection1"":2,""liking2"":4,""caring3"":1,""protection2"":3,""liking3"":4,""protection3"":1,""caring4"":3,""liking4"":2,""protection4"":3,""caring5"":2,""liking5"":4,""protection5"":3}","[0,1,2,3,4,5,6,7,8,9,10,11,12,13,14]"
"","","","","","html-button-response","146","604926","0.0-19.0","210","1","2022-10-11 12:08:44","d60b49b5908c80e163b920d72b52d584","202.204.120.203","Mozilla/5.0 (Windows NT 10.0; Win64; x64) AppleWebKit/537.36 (KHTML, like Gecko) Chrome/106.0.0.0 Safari/537.36 Edg/106.0.1370.37","WebKit","Edge","106.0.1370.37","Windows","10.0","1067","<p><strong>请判断下列场景中你的内心感受有多柔软。</strong></p>","0",""
"","","","","","survey-likert","147","672911","0.0-20.0","210","1","2022-10-11 12:08:44","d60b49b5908c80e163b920d72b52d584","202.204.120.203","Mozilla/5.0 (Windows NT 10.0; Win64; x64) AppleWebKit/537.36 (KHTML, like Gecko) Chrome/106.0.0.0 Safari/537.36 Edg/106.0.1370.37","WebKit","Edge","106.0.1370.37","Windows","10.0","67978","","{""tenderness-positive1"":3,""tenderness-negative1"":1,""tenderness-negative2"":0,""tenderness-positive2"":3,""tenderness-positive3"":3,""tenderness-negative3"":1,""tenderness-positive4"":3,""tendereness-negative4"":1,""tendernness-negative5"":0,""tenderness-positive5"":4}","[0,1,2,3,4,5,6,7,8,9]"
"","","","","","survey-multi-choice","148","683111","0.0-21.0","210","1","2022-10-11 12:08:44","d60b49b5908c80e163b920d72b52d584","202.204.120.203","Mozilla/5.0 (Windows NT 10.0; Win64; x64) AppleWebKit/537.36 (KHTML, like Gecko) Chrome/106.0.0.0 Safari/537.36 Edg/106.0.1370.37","WebKit","Edge","106.0.1370.37","Windows","10.0","10192","","{""Attention2"":""其他""}","[0]"
"","","","","","html-button-response","149","684255","0.0-22.0","210","1","2022-10-11 12:08:44","d60b49b5908c80e163b920d72b52d584","202.204.120.203","Mozilla/5.0 (Windows NT 10.0; Win64; x64) AppleWebKit/537.36 (KHTML, like Gecko) Chrome/106.0.0.0 Safari/537.36 Edg/106.0.1370.37","WebKit","Edge","106.0.1370.37","Windows","10.0","1137","<p><strong>请判断你在多大程度上同意下列陈述。</strong></p>","0",""
"","","","","","survey-likert","150","769157","0.0-23.0","210","1","2022-10-11 12:08:44","d60b49b5908c80e163b920d72b52d584","202.204.120.203","Mozilla/5.0 (Windows NT 10.0; Win64; x64) AppleWebKit/537.36 (KHTML, like Gecko) Chrome/106.0.0.0 Safari/537.36 Edg/106.0.1370.37","WebKit","Edge","106.0.1370.37","Windows","10.0","84896","","{""Patri2"":4,""Patri9"":0,""Nation2"":4,""Patri4"":4,""Patri1"":4,""Nation4"":3,""Patri5"":4,""Patri8"":4,""Nation5"":4,""Nation3"":2,""Patri12"":1,""Nation7"":4,""Nation1"":1,""Patri10"":0,""Patri3"":4,""Patri6"":0,""Patri11"":0,""Nation8"":1,""Patri7"":4,""Nation6"":3}","[1,8,13,3,0,15,4,7,16,14,11,18,12,9,2,5,10,19,6,17]"
"","","","","","html-button-response","151","770234","0.0-24.0","210","1","2022-10-11 12:08:44","d60b49b5908c80e163b920d72b52d584","202.204.120.203","Mozilla/5.0 (Windows NT 10.0; Win64; x64) AppleWebKit/537.36 (KHTML, like Gecko) Chrome/106.0.0.0 Safari/537.36 Edg/106.0.1370.37","WebKit","Edge","106.0.1370.37","Windows","10.0","1069","<p><strong>请判断你在多大程度上同意下列陈述。</strong></p>","0",""
"","","","","","survey-likert","152","807553","0.0-25.0","210","1","2022-10-11 12:08:44","d60b49b5908c80e163b920d72b52d584","202.204.120.203","Mozilla/5.0 (Windows NT 10.0; Win64; x64) AppleWebKit/537.36 (KHTML, like Gecko) Chrome/106.0.0.0 Safari/537.36 Edg/106.0.1370.37","WebKit","Edge","106.0.1370.37","Windows","10.0","37310","","{""hc2"":7,""Robot"":6,""hi3"":2,""vc2"":4,""hi4"":7,""vi3"":8,""vi1"":8,""vc3"":6,""hc4"":5,""hi2"":7,""hi1"":8,""hc1"":7,""hc3"":5,""vi4"":5,""vi2"":3,""vc1"":7,""vc4"":8}","[10,7,2,14,3,6,4,15,12,1,0,9,11,8,5,13,16]"
"","","","","","survey-text","153","827668","0.0-26.0","210","1","2022-10-11 12:08:44","d60b49b5908c80e163b920d72b52d584","202.204.120.203","Mozilla/5.0 (Windows NT 10.0; Win64; x64) AppleWebKit/537.36 (KHTML, like Gecko) Chrome/106.0.0.0 Safari/537.36 Edg/106.0.1370.37","WebKit","Edge","106.0.1370.37","Windows","10.0","20087","","{""Comments"":""很棒，祝顺利""}",""
"","","","","","html-button-response","154","828661","0.0-27.0","210","1","2022-10-11 12:08:44","d60b49b5908c80e163b920d72b52d584","202.204.120.203","Mozilla/5.0 (Windows NT 10.0; Win64; x64) AppleWebKit/537.36 (KHTML, like Gecko) Chrome/106.0.0.0 Safari/537.36 Edg/106.0.1370.37","WebKit","Edge","106.0.1370.37","Windows","10.0","988","<strong><p>恭喜你完成了实验！</p><p>感谢您的参与。</p></strong>","0",""
