"success","timeout","failed_images","failed_audio","failed_video","trial_type","trial_index","time_elapsed","internal_node_id","run_id","condition","recorded_at","source_code_version","ip","user_agent","device","browser","browser_version","platform","platform_version","rt","stimulus","response","question_order"
"true","false","[]","[]","[]","preload","0","2235","0.0-0.0","223","1","2022-10-12 09:48:02","d60b49b5908c80e163b920d72b52d584","218.66.79.46","Mozilla/5.0 (Windows NT 10.0; WOW64) AppleWebKit/537.36 (KHTML, like Gecko) Chrome/92.0.4515.131 Safari/537.36 SLBrowser/8.0.0.9231 SLBChan/105","WebKit","Chrome","92.0.4515.131","Windows","10.0","","","",""
"true","","","","","fullscreen","1","4337","0.0-1.0","223","1","2022-10-12 09:48:02","d60b49b5908c80e163b920d72b52d584","218.66.79.46","Mozilla/5.0 (Windows NT 10.0; WOW64) AppleWebKit/537.36 (KHTML, like Gecko) Chrome/92.0.4515.131 Safari/537.36 SLBrowser/8.0.0.9231 SLBChan/105","WebKit","Chrome","92.0.4515.131","Windows","10.0","","","",""
"","","","","","html-button-response","2","7437","0.0-2.0","223","1","2022-10-12 09:48:02","d60b49b5908c80e163b920d72b52d584","218.66.79.46","Mozilla/5.0 (Windows NT 10.0; WOW64) AppleWebKit/537.36 (KHTML, like Gecko) Chrome/92.0.4515.131 Safari/537.36 SLBrowser/8.0.0.9231 SLBChan/105","WebKit","Chrome","92.0.4515.131","Windows","10.0","3098","<p style=""font-size:20px;font-weight:bold;"">实验知情同意书</p><p style=""text-align:left;""><strong>实验名称：</strong>社会冲突研究</p><p style=""text-align:left;""><strong>主要研究者：</strong>韩晓春副教授（北京师范大学心理学部）</p><p style=""text-align:left;""><strong>联系方式：</strong>发送邮件至xiaochun.han@bnu.edu.cn</p><p style=""text-align:left;""><strong>研究目的：</strong>研究旨在了解人类面对群体冲突时的决策方式，以及相关的心理学特质。实验调查大约需要20分钟。</p><p style=""text-align:left;""><strong>实验流程：</strong>实验包含两部分。第一部分呈现一系列群体冲突场景，请你决定如何对这些冲突进行反应，大约需要10分钟完成。第二部分包含一系列人口统计学信息收集和心理学问卷，大约需要10分钟完成。</p><p style=""text-align:left;""><strong>参加及退出规则：</strong>参加本实验完全取决于您的个人意愿。在参与过程中，您可以随时退出，并且不用承担任何后果。</p><p style=""text-align:left;""><strong>隐私：</strong>本实验完全匿名进行，不会收集您的姓名或其他能够识别您身份的信息。实验中收集的作答仅用作科学研究使用，可能会在学术期刊/书籍上发表，或者用于教学，您的数据未来可能会和其他研究者或实验室分享，但您的个人身份不会被识别。</p><p style=""text-align:left;""><strong>实验报酬：</strong>实验完成后，您将获得15元人民币报酬，以感谢您的时间和努力。调查问卷中包含几道题目用以测验您作答时的认真度。只有完成全部实验，并且正确回答认真度测验的被试才能获得实验报酬。实验报酬将通过支付宝转账发放。</p><p style=""text-align:left;font-size:20px;""><strong>如果您同意以上实验知情同意书的内容，请点击'同意并且开始实验'按钮；否则请关闭浏览器界面，退出实验。</strong></p>","0",""
"","","","","","html-button-response","3","48122","0.0-3.0","223","1","2022-10-12 09:48:02","d60b49b5908c80e163b920d72b52d584","218.66.79.46","Mozilla/5.0 (Windows NT 10.0; WOW64) AppleWebKit/537.36 (KHTML, like Gecko) Chrome/92.0.4515.131 Safari/537.36 SLBrowser/8.0.0.9231 SLBChan/105","WebKit","Chrome","92.0.4515.131","Windows","10.0","40684","<p ><strong>实验任务一：</strong></p><p>请想象你的国家与另一个国家发生了军事冲突。</p><p>你是国家军队的指挥官，你将如何在冲突中进行决策。</p><p>具体来说，作为军队指挥官，请你决定是否发射导弹进行打击。</p><p>接下来，你会面对一系列场景，请仔细阅读每个场景，然后进行决策。</p><p>这部分实验任务大约需要10分钟。</p><p><strong>实验过程中，请集中注意力。</strong></p>","0",""
"","","","","","html-keyboard-response","4","49124","0.0-4.0-0.0","223","1","2022-10-12 09:48:02","d60b49b5908c80e163b920d72b52d584","218.66.79.46","Mozilla/5.0 (Windows NT 10.0; WOW64) AppleWebKit/537.36 (KHTML, like Gecko) Chrome/92.0.4515.131 Safari/537.36 SLBrowser/8.0.0.9231 SLBChan/105","WebKit","Chrome","92.0.4515.131","Windows","10.0","null","<div style=""font-size:60px;"">+</div>","null",""
"","","","","","html-button-response","5","55551","0.0-4.0-1.0","223","1","2022-10-12 09:48:02","d60b49b5908c80e163b920d72b52d584","218.66.79.46","Mozilla/5.0 (Windows NT 10.0; WOW64) AppleWebKit/537.36 (KHTML, like Gecko) Chrome/92.0.4515.131 Safari/537.36 SLBrowser/8.0.0.9231 SLBChan/105","WebKit","Chrome","92.0.4515.131","Windows","10.0","6424","<p>作为军队的指挥官，你可以选择发射导弹杀死 <strong>2名</strong> 敌国士兵，但会炸毁附近的 <strong>1棵</strong> 敌国树木。</p> <p>树木的照片如下图所示。</p> <p></p> <img src='stimuli/trees/11.png', style='max-width: 30%;'> </img> <p><strong>你是否选择发射武器？</strong></p>","0",""
"","","","","","html-keyboard-response","6","56554","0.0-4.0-0.1","223","1","2022-10-12 09:48:02","d60b49b5908c80e163b920d72b52d584","218.66.79.46","Mozilla/5.0 (Windows NT 10.0; WOW64) AppleWebKit/537.36 (KHTML, like Gecko) Chrome/92.0.4515.131 Safari/537.36 SLBrowser/8.0.0.9231 SLBChan/105","WebKit","Chrome","92.0.4515.131","Windows","10.0","null","<div style=""font-size:60px;"">+</div>","null",""
"","","","","","html-button-response","7","58894","0.0-4.0-1.1","223","1","2022-10-12 09:48:02","d60b49b5908c80e163b920d72b52d584","218.66.79.46","Mozilla/5.0 (Windows NT 10.0; WOW64) AppleWebKit/537.36 (KHTML, like Gecko) Chrome/92.0.4515.131 Safari/537.36 SLBrowser/8.0.0.9231 SLBChan/105","WebKit","Chrome","92.0.4515.131","Windows","10.0","2338","<p>作为军队的指挥官，你可以选择发射导弹杀死 <strong>7名</strong> 敌国士兵，但会炸毁附近的 <strong>1棵</strong> 敌国树木。</p> <p>树木的照片如下图所示。</p> <p></p> <img src='stimuli/trees/14.png', style='max-width: 30%;'> </img> <p><strong>你是否选择发射武器？</strong></p>","0",""
"","","","","","html-keyboard-response","8","59896","0.0-4.0-0.2","223","1","2022-10-12 09:48:02","d60b49b5908c80e163b920d72b52d584","218.66.79.46","Mozilla/5.0 (Windows NT 10.0; WOW64) AppleWebKit/537.36 (KHTML, like Gecko) Chrome/92.0.4515.131 Safari/537.36 SLBrowser/8.0.0.9231 SLBChan/105","WebKit","Chrome","92.0.4515.131","Windows","10.0","null","<div style=""font-size:60px;"">+</div>","null",""
"","","","","","html-button-response","9","63146","0.0-4.0-1.2","223","1","2022-10-12 09:48:02","d60b49b5908c80e163b920d72b52d584","218.66.79.46","Mozilla/5.0 (Windows NT 10.0; WOW64) AppleWebKit/537.36 (KHTML, like Gecko) Chrome/92.0.4515.131 Safari/537.36 SLBrowser/8.0.0.9231 SLBChan/105","WebKit","Chrome","92.0.4515.131","Windows","10.0","3248","<p>作为军队的指挥官，你可以选择发射导弹杀死 <strong>10名</strong> 敌国士兵，但会误杀附近的 <strong>1名</strong> 敌国平民。</p> <p>平民照片如下图所示。</p> <p></p> <img src='stimuli/faces/NCM8.jpg', style='max-width: 30%;'> </img> <p><strong>你是否选择发射武器？</strong></p>","0",""
"","","","","","html-keyboard-response","10","64148","0.0-4.0-0.3","223","1","2022-10-12 09:48:02","d60b49b5908c80e163b920d72b52d584","218.66.79.46","Mozilla/5.0 (Windows NT 10.0; WOW64) AppleWebKit/537.36 (KHTML, like Gecko) Chrome/92.0.4515.131 Safari/537.36 SLBrowser/8.0.0.9231 SLBChan/105","WebKit","Chrome","92.0.4515.131","Windows","10.0","null","<div style=""font-size:60px;"">+</div>","null",""
"","","","","","html-button-response","11","67234","0.0-4.0-1.3","223","1","2022-10-12 09:48:02","d60b49b5908c80e163b920d72b52d584","218.66.79.46","Mozilla/5.0 (Windows NT 10.0; WOW64) AppleWebKit/537.36 (KHTML, like Gecko) Chrome/92.0.4515.131 Safari/537.36 SLBrowser/8.0.0.9231 SLBChan/105","WebKit","Chrome","92.0.4515.131","Windows","10.0","3085","<p>作为军队的指挥官，你可以选择发射导弹杀死 <strong>6名</strong> 敌国士兵，但会误杀附近的 <strong>1名</strong> 敌国平民。</p> <p>平民照片如下图所示。</p> <p></p> <img src='stimuli/faces/NCF7.jpg', style='max-width: 30%;'> </img> <p><strong>你是否选择发射武器？</strong></p>","0",""
"","","","","","html-keyboard-response","12","68236","0.0-4.0-0.4","223","1","2022-10-12 09:48:02","d60b49b5908c80e163b920d72b52d584","218.66.79.46","Mozilla/5.0 (Windows NT 10.0; WOW64) AppleWebKit/537.36 (KHTML, like Gecko) Chrome/92.0.4515.131 Safari/537.36 SLBrowser/8.0.0.9231 SLBChan/105","WebKit","Chrome","92.0.4515.131","Windows","10.0","null","<div style=""font-size:60px;"">+</div>","null",""
"","","","","","html-button-response","13","70699","0.0-4.0-1.4","223","1","2022-10-12 09:48:02","d60b49b5908c80e163b920d72b52d584","218.66.79.46","Mozilla/5.0 (Windows NT 10.0; WOW64) AppleWebKit/537.36 (KHTML, like Gecko) Chrome/92.0.4515.131 Safari/537.36 SLBrowser/8.0.0.9231 SLBChan/105","WebKit","Chrome","92.0.4515.131","Windows","10.0","2460","<p>作为军队的指挥官，你可以选择发射导弹杀死 <strong>6名</strong> 敌国士兵，但会炸毁附近的 <strong>1棵</strong> 敌国树木。</p> <p>树木的照片如下图所示。</p> <p></p> <img src='stimuli/trees/12.png', style='max-width: 30%;'> </img> <p><strong>你是否选择发射武器？</strong></p>","0",""
"","","","","","html-keyboard-response","14","71701","0.0-4.0-0.5","223","1","2022-10-12 09:48:02","d60b49b5908c80e163b920d72b52d584","218.66.79.46","Mozilla/5.0 (Windows NT 10.0; WOW64) AppleWebKit/537.36 (KHTML, like Gecko) Chrome/92.0.4515.131 Safari/537.36 SLBrowser/8.0.0.9231 SLBChan/105","WebKit","Chrome","92.0.4515.131","Windows","10.0","null","<div style=""font-size:60px;"">+</div>","null",""
"","","","","","html-button-response","15","73875","0.0-4.0-1.5","223","1","2022-10-12 09:48:02","d60b49b5908c80e163b920d72b52d584","218.66.79.46","Mozilla/5.0 (Windows NT 10.0; WOW64) AppleWebKit/537.36 (KHTML, like Gecko) Chrome/92.0.4515.131 Safari/537.36 SLBrowser/8.0.0.9231 SLBChan/105","WebKit","Chrome","92.0.4515.131","Windows","10.0","2172","<p>作为军队的指挥官，你可以选择发射导弹杀死 <strong>3名</strong> 敌国士兵，但会误杀附近的 <strong>1名</strong> 敌国平民。</p> <p>平民照片如下图所示。</p> <p></p> <img src='stimuli/faces/NCM5.jpg', style='max-width: 30%;'> </img> <p><strong>你是否选择发射武器？</strong></p>","0",""
"","","","","","html-keyboard-response","16","74877","0.0-4.0-0.6","223","1","2022-10-12 09:48:02","d60b49b5908c80e163b920d72b52d584","218.66.79.46","Mozilla/5.0 (Windows NT 10.0; WOW64) AppleWebKit/537.36 (KHTML, like Gecko) Chrome/92.0.4515.131 Safari/537.36 SLBrowser/8.0.0.9231 SLBChan/105","WebKit","Chrome","92.0.4515.131","Windows","10.0","null","<div style=""font-size:60px;"">+</div>","null",""
"","","","","","html-button-response","17","76311","0.0-4.0-1.6","223","1","2022-10-12 09:48:02","d60b49b5908c80e163b920d72b52d584","218.66.79.46","Mozilla/5.0 (Windows NT 10.0; WOW64) AppleWebKit/537.36 (KHTML, like Gecko) Chrome/92.0.4515.131 Safari/537.36 SLBrowser/8.0.0.9231 SLBChan/105","WebKit","Chrome","92.0.4515.131","Windows","10.0","1431","<p>作为军队的指挥官，你可以选择发射导弹杀死 <strong>5名</strong> 敌国士兵，但会炸毁附近的 <strong>1棵</strong> 敌国树木。</p> <p>树木的照片如下图所示。</p> <p></p> <img src='stimuli/trees/6.png', style='max-width: 30%;'> </img> <p><strong>你是否选择发射武器？</strong></p>","0",""
"","","","","","html-keyboard-response","18","77313","0.0-4.0-0.7","223","1","2022-10-12 09:48:02","d60b49b5908c80e163b920d72b52d584","218.66.79.46","Mozilla/5.0 (Windows NT 10.0; WOW64) AppleWebKit/537.36 (KHTML, like Gecko) Chrome/92.0.4515.131 Safari/537.36 SLBrowser/8.0.0.9231 SLBChan/105","WebKit","Chrome","92.0.4515.131","Windows","10.0","null","<div style=""font-size:60px;"">+</div>","null",""
"","","","","","html-button-response","19","78478","0.0-4.0-1.7","223","1","2022-10-12 09:48:02","d60b49b5908c80e163b920d72b52d584","218.66.79.46","Mozilla/5.0 (Windows NT 10.0; WOW64) AppleWebKit/537.36 (KHTML, like Gecko) Chrome/92.0.4515.131 Safari/537.36 SLBrowser/8.0.0.9231 SLBChan/105","WebKit","Chrome","92.0.4515.131","Windows","10.0","1163","<p>作为军队的指挥官，你可以选择发射导弹杀死 <strong>5名</strong> 敌国士兵，但会炸毁附近的 <strong>1棵</strong> 敌国树木。</p> <p>树木的照片如下图所示。</p> <p></p> <img src='stimuli/trees/12.png', style='max-width: 30%;'> </img> <p><strong>你是否选择发射武器？</strong></p>","0",""
"","","","","","html-keyboard-response","20","79481","0.0-4.0-0.8","223","1","2022-10-12 09:48:02","d60b49b5908c80e163b920d72b52d584","218.66.79.46","Mozilla/5.0 (Windows NT 10.0; WOW64) AppleWebKit/537.36 (KHTML, like Gecko) Chrome/92.0.4515.131 Safari/537.36 SLBrowser/8.0.0.9231 SLBChan/105","WebKit","Chrome","92.0.4515.131","Windows","10.0","null","<div style=""font-size:60px;"">+</div>","null",""
"","","","","","html-button-response","21","80716","0.0-4.0-1.8","223","1","2022-10-12 09:48:02","d60b49b5908c80e163b920d72b52d584","218.66.79.46","Mozilla/5.0 (Windows NT 10.0; WOW64) AppleWebKit/537.36 (KHTML, like Gecko) Chrome/92.0.4515.131 Safari/537.36 SLBrowser/8.0.0.9231 SLBChan/105","WebKit","Chrome","92.0.4515.131","Windows","10.0","1234","<p>作为军队的指挥官，你可以选择发射导弹杀死 <strong>9名</strong> 敌国士兵，但会炸毁附近的 <strong>1棵</strong> 敌国树木。</p> <p>树木的照片如下图所示。</p> <p></p> <img src='stimuli/trees/9.png', style='max-width: 30%;'> </img> <p><strong>你是否选择发射武器？</strong></p>","0",""
"","","","","","html-keyboard-response","22","81718","0.0-4.0-0.9","223","1","2022-10-12 09:48:02","d60b49b5908c80e163b920d72b52d584","218.66.79.46","Mozilla/5.0 (Windows NT 10.0; WOW64) AppleWebKit/537.36 (KHTML, like Gecko) Chrome/92.0.4515.131 Safari/537.36 SLBrowser/8.0.0.9231 SLBChan/105","WebKit","Chrome","92.0.4515.131","Windows","10.0","null","<div style=""font-size:60px;"">+</div>","null",""
"","","","","","html-button-response","23","82812","0.0-4.0-1.9","223","1","2022-10-12 09:48:02","d60b49b5908c80e163b920d72b52d584","218.66.79.46","Mozilla/5.0 (Windows NT 10.0; WOW64) AppleWebKit/537.36 (KHTML, like Gecko) Chrome/92.0.4515.131 Safari/537.36 SLBrowser/8.0.0.9231 SLBChan/105","WebKit","Chrome","92.0.4515.131","Windows","10.0","1092","<p>作为军队的指挥官，你可以选择发射导弹杀死 <strong>6名</strong> 敌国士兵，但会炸毁附近的 <strong>1棵</strong> 敌国树木。</p> <p>树木的照片如下图所示。</p> <p></p> <img src='stimuli/trees/7.png', style='max-width: 30%;'> </img> <p><strong>你是否选择发射武器？</strong></p>","0",""
"","","","","","html-keyboard-response","24","83815","0.0-4.0-0.10","223","1","2022-10-12 09:48:02","d60b49b5908c80e163b920d72b52d584","218.66.79.46","Mozilla/5.0 (Windows NT 10.0; WOW64) AppleWebKit/537.36 (KHTML, like Gecko) Chrome/92.0.4515.131 Safari/537.36 SLBrowser/8.0.0.9231 SLBChan/105","WebKit","Chrome","92.0.4515.131","Windows","10.0","null","<div style=""font-size:60px;"">+</div>","null",""
"","","","","","html-button-response","25","87026","0.0-4.0-1.10","223","1","2022-10-12 09:48:02","d60b49b5908c80e163b920d72b52d584","218.66.79.46","Mozilla/5.0 (Windows NT 10.0; WOW64) AppleWebKit/537.36 (KHTML, like Gecko) Chrome/92.0.4515.131 Safari/537.36 SLBrowser/8.0.0.9231 SLBChan/105","WebKit","Chrome","92.0.4515.131","Windows","10.0","3210","<p>作为军队的指挥官，你可以选择发射导弹杀死 <strong>3名</strong> 敌国士兵，但会炸毁附近的 <strong>1棵</strong> 敌国树木。</p> <p>树木的照片如下图所示。</p> <p></p> <img src='stimuli/trees/16.png', style='max-width: 30%;'> </img> <p><strong>你是否选择发射武器？</strong></p>","0",""
"","","","","","html-keyboard-response","26","88029","0.0-4.0-0.11","223","1","2022-10-12 09:48:02","d60b49b5908c80e163b920d72b52d584","218.66.79.46","Mozilla/5.0 (Windows NT 10.0; WOW64) AppleWebKit/537.36 (KHTML, like Gecko) Chrome/92.0.4515.131 Safari/537.36 SLBrowser/8.0.0.9231 SLBChan/105","WebKit","Chrome","92.0.4515.131","Windows","10.0","null","<div style=""font-size:60px;"">+</div>","null",""
"","","","","","html-button-response","27","91645","0.0-4.0-1.11","223","1","2022-10-12 09:48:02","d60b49b5908c80e163b920d72b52d584","218.66.79.46","Mozilla/5.0 (Windows NT 10.0; WOW64) AppleWebKit/537.36 (KHTML, like Gecko) Chrome/92.0.4515.131 Safari/537.36 SLBrowser/8.0.0.9231 SLBChan/105","WebKit","Chrome","92.0.4515.131","Windows","10.0","3614","<p>作为军队的指挥官，你可以选择发射导弹杀死 <strong>1名</strong> 敌国士兵，但会炸毁附近的 <strong>1棵</strong> 敌国树木。</p> <p>树木的照片如下图所示。</p> <p></p> <img src='stimuli/trees/15.png', style='max-width: 30%;'> </img> <p><strong>你是否选择发射武器？</strong></p>","0",""
"","","","","","html-keyboard-response","28","92647","0.0-4.0-0.12","223","1","2022-10-12 09:48:02","d60b49b5908c80e163b920d72b52d584","218.66.79.46","Mozilla/5.0 (Windows NT 10.0; WOW64) AppleWebKit/537.36 (KHTML, like Gecko) Chrome/92.0.4515.131 Safari/537.36 SLBrowser/8.0.0.9231 SLBChan/105","WebKit","Chrome","92.0.4515.131","Windows","10.0","null","<div style=""font-size:60px;"">+</div>","null",""
"","","","","","html-button-response","29","94045","0.0-4.0-1.12","223","1","2022-10-12 09:48:02","d60b49b5908c80e163b920d72b52d584","218.66.79.46","Mozilla/5.0 (Windows NT 10.0; WOW64) AppleWebKit/537.36 (KHTML, like Gecko) Chrome/92.0.4515.131 Safari/537.36 SLBrowser/8.0.0.9231 SLBChan/105","WebKit","Chrome","92.0.4515.131","Windows","10.0","1396","<p>作为军队的指挥官，你可以选择发射导弹杀死 <strong>4名</strong> 敌国士兵，但会误杀附近的 <strong>1名</strong> 敌国平民。</p> <p>平民照片如下图所示。</p> <p></p> <img src='stimuli/faces/NCF2.jpg', style='max-width: 30%;'> </img> <p><strong>你是否选择发射武器？</strong></p>","0",""
"","","","","","html-keyboard-response","30","95047","0.0-4.0-0.13","223","1","2022-10-12 09:48:02","d60b49b5908c80e163b920d72b52d584","218.66.79.46","Mozilla/5.0 (Windows NT 10.0; WOW64) AppleWebKit/537.36 (KHTML, like Gecko) Chrome/92.0.4515.131 Safari/537.36 SLBrowser/8.0.0.9231 SLBChan/105","WebKit","Chrome","92.0.4515.131","Windows","10.0","null","<div style=""font-size:60px;"">+</div>","null",""
"","","","","","html-button-response","31","96489","0.0-4.0-1.13","223","1","2022-10-12 09:48:02","d60b49b5908c80e163b920d72b52d584","218.66.79.46","Mozilla/5.0 (Windows NT 10.0; WOW64) AppleWebKit/537.36 (KHTML, like Gecko) Chrome/92.0.4515.131 Safari/537.36 SLBrowser/8.0.0.9231 SLBChan/105","WebKit","Chrome","92.0.4515.131","Windows","10.0","1440","<p>作为军队的指挥官，你可以选择发射导弹杀死 <strong>7名</strong> 敌国士兵，但会炸毁附近的 <strong>1棵</strong> 敌国树木。</p> <p>树木的照片如下图所示。</p> <p></p> <img src='stimuli/trees/11.png', style='max-width: 30%;'> </img> <p><strong>你是否选择发射武器？</strong></p>","0",""
"","","","","","html-keyboard-response","32","97492","0.0-4.0-0.14","223","1","2022-10-12 09:48:02","d60b49b5908c80e163b920d72b52d584","218.66.79.46","Mozilla/5.0 (Windows NT 10.0; WOW64) AppleWebKit/537.36 (KHTML, like Gecko) Chrome/92.0.4515.131 Safari/537.36 SLBrowser/8.0.0.9231 SLBChan/105","WebKit","Chrome","92.0.4515.131","Windows","10.0","null","<div style=""font-size:60px;"">+</div>","null",""
"","","","","","html-button-response","33","98501","0.0-4.0-1.14","223","1","2022-10-12 09:48:02","d60b49b5908c80e163b920d72b52d584","218.66.79.46","Mozilla/5.0 (Windows NT 10.0; WOW64) AppleWebKit/537.36 (KHTML, like Gecko) Chrome/92.0.4515.131 Safari/537.36 SLBrowser/8.0.0.9231 SLBChan/105","WebKit","Chrome","92.0.4515.131","Windows","10.0","1007","<p>作为军队的指挥官，你可以选择发射导弹杀死 <strong>5名</strong> 敌国士兵，但会误杀附近的 <strong>1名</strong> 敌国平民。</p> <p>平民照片如下图所示。</p> <p></p> <img src='stimuli/faces/NCF7.jpg', style='max-width: 30%;'> </img> <p><strong>你是否选择发射武器？</strong></p>","0",""
"","","","","","html-keyboard-response","34","99503","0.0-4.0-0.15","223","1","2022-10-12 09:48:02","d60b49b5908c80e163b920d72b52d584","218.66.79.46","Mozilla/5.0 (Windows NT 10.0; WOW64) AppleWebKit/537.36 (KHTML, like Gecko) Chrome/92.0.4515.131 Safari/537.36 SLBrowser/8.0.0.9231 SLBChan/105","WebKit","Chrome","92.0.4515.131","Windows","10.0","null","<div style=""font-size:60px;"">+</div>","null",""
"","","","","","html-button-response","35","100904","0.0-4.0-1.15","223","1","2022-10-12 09:48:02","d60b49b5908c80e163b920d72b52d584","218.66.79.46","Mozilla/5.0 (Windows NT 10.0; WOW64) AppleWebKit/537.36 (KHTML, like Gecko) Chrome/92.0.4515.131 Safari/537.36 SLBrowser/8.0.0.9231 SLBChan/105","WebKit","Chrome","92.0.4515.131","Windows","10.0","1399","<p>作为军队的指挥官，你可以选择发射导弹杀死 <strong>5名</strong> 敌国士兵，但会炸毁附近的 <strong>1棵</strong> 敌国树木。</p> <p>树木的照片如下图所示。</p> <p></p> <img src='stimuli/trees/4.png', style='max-width: 30%;'> </img> <p><strong>你是否选择发射武器？</strong></p>","0",""
"","","","","","html-keyboard-response","36","101908","0.0-4.0-0.16","223","1","2022-10-12 09:48:02","d60b49b5908c80e163b920d72b52d584","218.66.79.46","Mozilla/5.0 (Windows NT 10.0; WOW64) AppleWebKit/537.36 (KHTML, like Gecko) Chrome/92.0.4515.131 Safari/537.36 SLBrowser/8.0.0.9231 SLBChan/105","WebKit","Chrome","92.0.4515.131","Windows","10.0","null","<div style=""font-size:60px;"">+</div>","null",""
"","","","","","html-button-response","37","102637","0.0-4.0-1.16","223","1","2022-10-12 09:48:02","d60b49b5908c80e163b920d72b52d584","218.66.79.46","Mozilla/5.0 (Windows NT 10.0; WOW64) AppleWebKit/537.36 (KHTML, like Gecko) Chrome/92.0.4515.131 Safari/537.36 SLBrowser/8.0.0.9231 SLBChan/105","WebKit","Chrome","92.0.4515.131","Windows","10.0","727","<p>作为军队的指挥官，你可以选择发射导弹杀死 <strong>4名</strong> 敌国士兵，但会误杀附近的 <strong>1名</strong> 敌国平民。</p> <p>平民照片如下图所示。</p> <p></p> <img src='stimuli/faces/NCM4.jpg', style='max-width: 30%;'> </img> <p><strong>你是否选择发射武器？</strong></p>","0",""
"","","","","","html-keyboard-response","38","103640","0.0-4.0-0.17","223","1","2022-10-12 09:48:02","d60b49b5908c80e163b920d72b52d584","218.66.79.46","Mozilla/5.0 (Windows NT 10.0; WOW64) AppleWebKit/537.36 (KHTML, like Gecko) Chrome/92.0.4515.131 Safari/537.36 SLBrowser/8.0.0.9231 SLBChan/105","WebKit","Chrome","92.0.4515.131","Windows","10.0","null","<div style=""font-size:60px;"">+</div>","null",""
"","","","","","html-button-response","39","105781","0.0-4.0-1.17","223","1","2022-10-12 09:48:02","d60b49b5908c80e163b920d72b52d584","218.66.79.46","Mozilla/5.0 (Windows NT 10.0; WOW64) AppleWebKit/537.36 (KHTML, like Gecko) Chrome/92.0.4515.131 Safari/537.36 SLBrowser/8.0.0.9231 SLBChan/105","WebKit","Chrome","92.0.4515.131","Windows","10.0","2139","<p>作为军队的指挥官，你可以选择发射导弹杀死 <strong>4名</strong> 敌国士兵，但会误杀附近的 <strong>1名</strong> 敌国平民。</p> <p>平民照片如下图所示。</p> <p></p> <img src='stimuli/faces/NCM3.jpg', style='max-width: 30%;'> </img> <p><strong>你是否选择发射武器？</strong></p>","0",""
"","","","","","html-keyboard-response","40","106784","0.0-4.0-0.18","223","1","2022-10-12 09:48:02","d60b49b5908c80e163b920d72b52d584","218.66.79.46","Mozilla/5.0 (Windows NT 10.0; WOW64) AppleWebKit/537.36 (KHTML, like Gecko) Chrome/92.0.4515.131 Safari/537.36 SLBrowser/8.0.0.9231 SLBChan/105","WebKit","Chrome","92.0.4515.131","Windows","10.0","null","<div style=""font-size:60px;"">+</div>","null",""
"","","","","","html-button-response","41","110959","0.0-4.0-1.18","223","1","2022-10-12 09:48:02","d60b49b5908c80e163b920d72b52d584","218.66.79.46","Mozilla/5.0 (Windows NT 10.0; WOW64) AppleWebKit/537.36 (KHTML, like Gecko) Chrome/92.0.4515.131 Safari/537.36 SLBrowser/8.0.0.9231 SLBChan/105","WebKit","Chrome","92.0.4515.131","Windows","10.0","4174","<p>作为军队的指挥官，你可以选择发射导弹杀死 <strong>2名</strong> 敌国士兵，但会误杀附近的 <strong>1名</strong> 敌国平民。</p> <p>平民照片如下图所示。</p> <p></p> <img src='stimuli/faces/NCM6.jpg', style='max-width: 30%;'> </img> <p><strong>你是否选择发射武器？</strong></p>","0",""
"","","","","","html-keyboard-response","42","111963","0.0-4.0-0.19","223","1","2022-10-12 09:48:02","d60b49b5908c80e163b920d72b52d584","218.66.79.46","Mozilla/5.0 (Windows NT 10.0; WOW64) AppleWebKit/537.36 (KHTML, like Gecko) Chrome/92.0.4515.131 Safari/537.36 SLBrowser/8.0.0.9231 SLBChan/105","WebKit","Chrome","92.0.4515.131","Windows","10.0","null","<div style=""font-size:60px;"">+</div>","null",""
"","","","","","html-button-response","43","114436","0.0-4.0-1.19","223","1","2022-10-12 09:48:02","d60b49b5908c80e163b920d72b52d584","218.66.79.46","Mozilla/5.0 (Windows NT 10.0; WOW64) AppleWebKit/537.36 (KHTML, like Gecko) Chrome/92.0.4515.131 Safari/537.36 SLBrowser/8.0.0.9231 SLBChan/105","WebKit","Chrome","92.0.4515.131","Windows","10.0","2471","<p>作为军队的指挥官，你可以选择发射导弹杀死 <strong>7名</strong> 敌国士兵，但会炸毁附近的 <strong>1棵</strong> 敌国树木。</p> <p>树木的照片如下图所示。</p> <p></p> <img src='stimuli/trees/10.png', style='max-width: 30%;'> </img> <p><strong>你是否选择发射武器？</strong></p>","0",""
"","","","","","html-keyboard-response","44","115439","0.0-4.0-0.20","223","1","2022-10-12 09:48:02","d60b49b5908c80e163b920d72b52d584","218.66.79.46","Mozilla/5.0 (Windows NT 10.0; WOW64) AppleWebKit/537.36 (KHTML, like Gecko) Chrome/92.0.4515.131 Safari/537.36 SLBrowser/8.0.0.9231 SLBChan/105","WebKit","Chrome","92.0.4515.131","Windows","10.0","null","<div style=""font-size:60px;"">+</div>","null",""
"","","","","","html-button-response","45","116151","0.0-4.0-1.20","223","1","2022-10-12 09:48:02","d60b49b5908c80e163b920d72b52d584","218.66.79.46","Mozilla/5.0 (Windows NT 10.0; WOW64) AppleWebKit/537.36 (KHTML, like Gecko) Chrome/92.0.4515.131 Safari/537.36 SLBrowser/8.0.0.9231 SLBChan/105","WebKit","Chrome","92.0.4515.131","Windows","10.0","710","<p>作为军队的指挥官，你可以选择发射导弹杀死 <strong>9名</strong> 敌国士兵，但会误杀附近的 <strong>1名</strong> 敌国平民。</p> <p>平民照片如下图所示。</p> <p></p> <img src='stimuli/faces/NCM4.jpg', style='max-width: 30%;'> </img> <p><strong>你是否选择发射武器？</strong></p>","0",""
"","","","","","html-keyboard-response","46","117153","0.0-4.0-0.21","223","1","2022-10-12 09:48:02","d60b49b5908c80e163b920d72b52d584","218.66.79.46","Mozilla/5.0 (Windows NT 10.0; WOW64) AppleWebKit/537.36 (KHTML, like Gecko) Chrome/92.0.4515.131 Safari/537.36 SLBrowser/8.0.0.9231 SLBChan/105","WebKit","Chrome","92.0.4515.131","Windows","10.0","null","<div style=""font-size:60px;"">+</div>","null",""
"","","","","","html-button-response","47","118119","0.0-4.0-1.21","223","1","2022-10-12 09:48:02","d60b49b5908c80e163b920d72b52d584","218.66.79.46","Mozilla/5.0 (Windows NT 10.0; WOW64) AppleWebKit/537.36 (KHTML, like Gecko) Chrome/92.0.4515.131 Safari/537.36 SLBrowser/8.0.0.9231 SLBChan/105","WebKit","Chrome","92.0.4515.131","Windows","10.0","963","<p>作为军队的指挥官，你可以选择发射导弹杀死 <strong>8名</strong> 敌国士兵，但会误杀附近的 <strong>1名</strong> 敌国平民。</p> <p>平民照片如下图所示。</p> <p></p> <img src='stimuli/faces/NCF3.jpg', style='max-width: 30%;'> </img> <p><strong>你是否选择发射武器？</strong></p>","0",""
"","","","","","html-keyboard-response","48","119122","0.0-4.0-0.22","223","1","2022-10-12 09:48:02","d60b49b5908c80e163b920d72b52d584","218.66.79.46","Mozilla/5.0 (Windows NT 10.0; WOW64) AppleWebKit/537.36 (KHTML, like Gecko) Chrome/92.0.4515.131 Safari/537.36 SLBrowser/8.0.0.9231 SLBChan/105","WebKit","Chrome","92.0.4515.131","Windows","10.0","null","<div style=""font-size:60px;"">+</div>","null",""
"","","","","","html-button-response","49","121808","0.0-4.0-1.22","223","1","2022-10-12 09:48:02","d60b49b5908c80e163b920d72b52d584","218.66.79.46","Mozilla/5.0 (Windows NT 10.0; WOW64) AppleWebKit/537.36 (KHTML, like Gecko) Chrome/92.0.4515.131 Safari/537.36 SLBrowser/8.0.0.9231 SLBChan/105","WebKit","Chrome","92.0.4515.131","Windows","10.0","2683","<p>作为军队的指挥官，你可以选择发射导弹杀死 <strong>9名</strong> 敌国士兵，但会误杀附近的 <strong>1名</strong> 敌国平民。</p> <p>平民照片如下图所示。</p> <p></p> <img src='stimuli/faces/NCM5.jpg', style='max-width: 30%;'> </img> <p><strong>你是否选择发射武器？</strong></p>","0",""
"","","","","","html-keyboard-response","50","122811","0.0-4.0-0.23","223","1","2022-10-12 09:48:02","d60b49b5908c80e163b920d72b52d584","218.66.79.46","Mozilla/5.0 (Windows NT 10.0; WOW64) AppleWebKit/537.36 (KHTML, like Gecko) Chrome/92.0.4515.131 Safari/537.36 SLBrowser/8.0.0.9231 SLBChan/105","WebKit","Chrome","92.0.4515.131","Windows","10.0","null","<div style=""font-size:60px;"">+</div>","null",""
"","","","","","html-button-response","51","124888","0.0-4.0-1.23","223","1","2022-10-12 09:48:02","d60b49b5908c80e163b920d72b52d584","218.66.79.46","Mozilla/5.0 (Windows NT 10.0; WOW64) AppleWebKit/537.36 (KHTML, like Gecko) Chrome/92.0.4515.131 Safari/537.36 SLBrowser/8.0.0.9231 SLBChan/105","WebKit","Chrome","92.0.4515.131","Windows","10.0","2076","<p>作为军队的指挥官，你可以选择发射导弹杀死 <strong>5名</strong> 敌国士兵，但会误杀附近的 <strong>1名</strong> 敌国平民。</p> <p>平民照片如下图所示。</p> <p></p> <img src='stimuli/faces/NCM1.jpg', style='max-width: 30%;'> </img> <p><strong>你是否选择发射武器？</strong></p>","0",""
"","","","","","html-keyboard-response","52","125890","0.0-4.0-0.24","223","1","2022-10-12 09:48:02","d60b49b5908c80e163b920d72b52d584","218.66.79.46","Mozilla/5.0 (Windows NT 10.0; WOW64) AppleWebKit/537.36 (KHTML, like Gecko) Chrome/92.0.4515.131 Safari/537.36 SLBrowser/8.0.0.9231 SLBChan/105","WebKit","Chrome","92.0.4515.131","Windows","10.0","null","<div style=""font-size:60px;"">+</div>","null",""
"","","","","","html-button-response","53","126698","0.0-4.0-1.24","223","1","2022-10-12 09:48:02","d60b49b5908c80e163b920d72b52d584","218.66.79.46","Mozilla/5.0 (Windows NT 10.0; WOW64) AppleWebKit/537.36 (KHTML, like Gecko) Chrome/92.0.4515.131 Safari/537.36 SLBrowser/8.0.0.9231 SLBChan/105","WebKit","Chrome","92.0.4515.131","Windows","10.0","806","<p>作为军队的指挥官，你可以选择发射导弹杀死 <strong>10名</strong> 敌国士兵，但会误杀附近的 <strong>1名</strong> 敌国平民。</p> <p>平民照片如下图所示。</p> <p></p> <img src='stimuli/faces/NCM6.jpg', style='max-width: 30%;'> </img> <p><strong>你是否选择发射武器？</strong></p>","0",""
"","","","","","html-keyboard-response","54","127702","0.0-4.0-0.25","223","1","2022-10-12 09:48:02","d60b49b5908c80e163b920d72b52d584","218.66.79.46","Mozilla/5.0 (Windows NT 10.0; WOW64) AppleWebKit/537.36 (KHTML, like Gecko) Chrome/92.0.4515.131 Safari/537.36 SLBrowser/8.0.0.9231 SLBChan/105","WebKit","Chrome","92.0.4515.131","Windows","10.0","null","<div style=""font-size:60px;"">+</div>","null",""
"","","","","","html-button-response","55","130536","0.0-4.0-1.25","223","1","2022-10-12 09:48:02","d60b49b5908c80e163b920d72b52d584","218.66.79.46","Mozilla/5.0 (Windows NT 10.0; WOW64) AppleWebKit/537.36 (KHTML, like Gecko) Chrome/92.0.4515.131 Safari/537.36 SLBrowser/8.0.0.9231 SLBChan/105","WebKit","Chrome","92.0.4515.131","Windows","10.0","2832","<p>作为军队的指挥官，你可以选择发射导弹杀死 <strong>9名</strong> 敌国士兵，但会误杀附近的 <strong>1名</strong> 敌国平民。</p> <p>平民照片如下图所示。</p> <p></p> <img src='stimuli/faces/NCF4.jpg', style='max-width: 30%;'> </img> <p><strong>你是否选择发射武器？</strong></p>","0",""
"","","","","","html-keyboard-response","56","131538","0.0-4.0-0.26","223","1","2022-10-12 09:48:02","d60b49b5908c80e163b920d72b52d584","218.66.79.46","Mozilla/5.0 (Windows NT 10.0; WOW64) AppleWebKit/537.36 (KHTML, like Gecko) Chrome/92.0.4515.131 Safari/537.36 SLBrowser/8.0.0.9231 SLBChan/105","WebKit","Chrome","92.0.4515.131","Windows","10.0","null","<div style=""font-size:60px;"">+</div>","null",""
"","","","","","html-button-response","57","132294","0.0-4.0-1.26","223","1","2022-10-12 09:48:02","d60b49b5908c80e163b920d72b52d584","218.66.79.46","Mozilla/5.0 (Windows NT 10.0; WOW64) AppleWebKit/537.36 (KHTML, like Gecko) Chrome/92.0.4515.131 Safari/537.36 SLBrowser/8.0.0.9231 SLBChan/105","WebKit","Chrome","92.0.4515.131","Windows","10.0","753","<p>作为军队的指挥官，你可以选择发射导弹杀死 <strong>7名</strong> 敌国士兵，但会炸毁附近的 <strong>1棵</strong> 敌国树木。</p> <p>树木的照片如下图所示。</p> <p></p> <img src='stimuli/trees/13.png', style='max-width: 30%;'> </img> <p><strong>你是否选择发射武器？</strong></p>","0",""
"","","","","","html-keyboard-response","58","133298","0.0-4.0-0.27","223","1","2022-10-12 09:48:02","d60b49b5908c80e163b920d72b52d584","218.66.79.46","Mozilla/5.0 (Windows NT 10.0; WOW64) AppleWebKit/537.36 (KHTML, like Gecko) Chrome/92.0.4515.131 Safari/537.36 SLBrowser/8.0.0.9231 SLBChan/105","WebKit","Chrome","92.0.4515.131","Windows","10.0","null","<div style=""font-size:60px;"">+</div>","null",""
"","","","","","html-button-response","59","133746","0.0-4.0-1.27","223","1","2022-10-12 09:48:02","d60b49b5908c80e163b920d72b52d584","218.66.79.46","Mozilla/5.0 (Windows NT 10.0; WOW64) AppleWebKit/537.36 (KHTML, like Gecko) Chrome/92.0.4515.131 Safari/537.36 SLBrowser/8.0.0.9231 SLBChan/105","WebKit","Chrome","92.0.4515.131","Windows","10.0","446","<p>作为军队的指挥官，你可以选择发射导弹杀死 <strong>1名</strong> 敌国士兵，但会炸毁附近的 <strong>1棵</strong> 敌国树木。</p> <p>树木的照片如下图所示。</p> <p></p> <img src='stimuli/trees/14.png', style='max-width: 30%;'> </img> <p><strong>你是否选择发射武器？</strong></p>","0",""
"","","","","","html-keyboard-response","60","134748","0.0-4.0-0.28","223","1","2022-10-12 09:48:02","d60b49b5908c80e163b920d72b52d584","218.66.79.46","Mozilla/5.0 (Windows NT 10.0; WOW64) AppleWebKit/537.36 (KHTML, like Gecko) Chrome/92.0.4515.131 Safari/537.36 SLBrowser/8.0.0.9231 SLBChan/105","WebKit","Chrome","92.0.4515.131","Windows","10.0","null","<div style=""font-size:60px;"">+</div>","null",""
"","","","","","html-button-response","61","135723","0.0-4.0-1.28","223","1","2022-10-12 09:48:02","d60b49b5908c80e163b920d72b52d584","218.66.79.46","Mozilla/5.0 (Windows NT 10.0; WOW64) AppleWebKit/537.36 (KHTML, like Gecko) Chrome/92.0.4515.131 Safari/537.36 SLBrowser/8.0.0.9231 SLBChan/105","WebKit","Chrome","92.0.4515.131","Windows","10.0","973","<p>作为军队的指挥官，你可以选择发射导弹杀死 <strong>5名</strong> 敌国士兵，但会炸毁附近的 <strong>1棵</strong> 敌国树木。</p> <p>树木的照片如下图所示。</p> <p></p> <img src='stimuli/trees/3.png', style='max-width: 30%;'> </img> <p><strong>你是否选择发射武器？</strong></p>","0",""
"","","","","","html-keyboard-response","62","136726","0.0-4.0-0.29","223","1","2022-10-12 09:48:02","d60b49b5908c80e163b920d72b52d584","218.66.79.46","Mozilla/5.0 (Windows NT 10.0; WOW64) AppleWebKit/537.36 (KHTML, like Gecko) Chrome/92.0.4515.131 Safari/537.36 SLBrowser/8.0.0.9231 SLBChan/105","WebKit","Chrome","92.0.4515.131","Windows","10.0","null","<div style=""font-size:60px;"">+</div>","null",""
"","","","","","html-button-response","63","137418","0.0-4.0-1.29","223","1","2022-10-12 09:48:02","d60b49b5908c80e163b920d72b52d584","218.66.79.46","Mozilla/5.0 (Windows NT 10.0; WOW64) AppleWebKit/537.36 (KHTML, like Gecko) Chrome/92.0.4515.131 Safari/537.36 SLBrowser/8.0.0.9231 SLBChan/105","WebKit","Chrome","92.0.4515.131","Windows","10.0","691","<p>作为军队的指挥官，你可以选择发射导弹杀死 <strong>10名</strong> 敌国士兵，但会炸毁附近的 <strong>1棵</strong> 敌国树木。</p> <p>树木的照片如下图所示。</p> <p></p> <img src='stimuli/trees/8.png', style='max-width: 30%;'> </img> <p><strong>你是否选择发射武器？</strong></p>","0",""
"","","","","","html-keyboard-response","64","138422","0.0-4.0-0.30","223","1","2022-10-12 09:48:02","d60b49b5908c80e163b920d72b52d584","218.66.79.46","Mozilla/5.0 (Windows NT 10.0; WOW64) AppleWebKit/537.36 (KHTML, like Gecko) Chrome/92.0.4515.131 Safari/537.36 SLBrowser/8.0.0.9231 SLBChan/105","WebKit","Chrome","92.0.4515.131","Windows","10.0","null","<div style=""font-size:60px;"">+</div>","null",""
"","","","","","html-button-response","65","139306","0.0-4.0-1.30","223","1","2022-10-12 09:48:02","d60b49b5908c80e163b920d72b52d584","218.66.79.46","Mozilla/5.0 (Windows NT 10.0; WOW64) AppleWebKit/537.36 (KHTML, like Gecko) Chrome/92.0.4515.131 Safari/537.36 SLBrowser/8.0.0.9231 SLBChan/105","WebKit","Chrome","92.0.4515.131","Windows","10.0","883","<p>作为军队的指挥官，你可以选择发射导弹杀死 <strong>2名</strong> 敌国士兵，但会炸毁附近的 <strong>1棵</strong> 敌国树木。</p> <p>树木的照片如下图所示。</p> <p></p> <img src='stimuli/trees/8.png', style='max-width: 30%;'> </img> <p><strong>你是否选择发射武器？</strong></p>","0",""
"","","","","","html-keyboard-response","66","140309","0.0-4.0-0.31","223","1","2022-10-12 09:48:02","d60b49b5908c80e163b920d72b52d584","218.66.79.46","Mozilla/5.0 (Windows NT 10.0; WOW64) AppleWebKit/537.36 (KHTML, like Gecko) Chrome/92.0.4515.131 Safari/537.36 SLBrowser/8.0.0.9231 SLBChan/105","WebKit","Chrome","92.0.4515.131","Windows","10.0","null","<div style=""font-size:60px;"">+</div>","null",""
"","","","","","html-button-response","67","142324","0.0-4.0-1.31","223","1","2022-10-12 09:48:02","d60b49b5908c80e163b920d72b52d584","218.66.79.46","Mozilla/5.0 (Windows NT 10.0; WOW64) AppleWebKit/537.36 (KHTML, like Gecko) Chrome/92.0.4515.131 Safari/537.36 SLBrowser/8.0.0.9231 SLBChan/105","WebKit","Chrome","92.0.4515.131","Windows","10.0","2013","<p>作为军队的指挥官，你可以选择发射导弹杀死 <strong>7名</strong> 敌国士兵，但会炸毁附近的 <strong>1棵</strong> 敌国树木。</p> <p>树木的照片如下图所示。</p> <p></p> <img src='stimuli/trees/2.png', style='max-width: 30%;'> </img> <p><strong>你是否选择发射武器？</strong></p>","0",""
"","","","","","html-keyboard-response","68","143326","0.0-4.0-0.32","223","1","2022-10-12 09:48:02","d60b49b5908c80e163b920d72b52d584","218.66.79.46","Mozilla/5.0 (Windows NT 10.0; WOW64) AppleWebKit/537.36 (KHTML, like Gecko) Chrome/92.0.4515.131 Safari/537.36 SLBrowser/8.0.0.9231 SLBChan/105","WebKit","Chrome","92.0.4515.131","Windows","10.0","null","<div style=""font-size:60px;"">+</div>","null",""
"","","","","","html-button-response","69","145060","0.0-4.0-1.32","223","1","2022-10-12 09:48:02","d60b49b5908c80e163b920d72b52d584","218.66.79.46","Mozilla/5.0 (Windows NT 10.0; WOW64) AppleWebKit/537.36 (KHTML, like Gecko) Chrome/92.0.4515.131 Safari/537.36 SLBrowser/8.0.0.9231 SLBChan/105","WebKit","Chrome","92.0.4515.131","Windows","10.0","1731","<p>作为军队的指挥官，你可以选择发射导弹杀死 <strong>1名</strong> 敌国士兵，但会误杀附近的 <strong>1名</strong> 敌国平民。</p> <p>平民照片如下图所示。</p> <p></p> <img src='stimuli/faces/NCF3.jpg', style='max-width: 30%;'> </img> <p><strong>你是否选择发射武器？</strong></p>","0",""
"","","","","","html-keyboard-response","70","146062","0.0-4.0-0.33","223","1","2022-10-12 09:48:02","d60b49b5908c80e163b920d72b52d584","218.66.79.46","Mozilla/5.0 (Windows NT 10.0; WOW64) AppleWebKit/537.36 (KHTML, like Gecko) Chrome/92.0.4515.131 Safari/537.36 SLBrowser/8.0.0.9231 SLBChan/105","WebKit","Chrome","92.0.4515.131","Windows","10.0","null","<div style=""font-size:60px;"">+</div>","null",""
"","","","","","html-button-response","71","147302","0.0-4.0-1.33","223","1","2022-10-12 09:48:02","d60b49b5908c80e163b920d72b52d584","218.66.79.46","Mozilla/5.0 (Windows NT 10.0; WOW64) AppleWebKit/537.36 (KHTML, like Gecko) Chrome/92.0.4515.131 Safari/537.36 SLBrowser/8.0.0.9231 SLBChan/105","WebKit","Chrome","92.0.4515.131","Windows","10.0","1236","<p>作为军队的指挥官，你可以选择发射导弹杀死 <strong>3名</strong> 敌国士兵，但会误杀附近的 <strong>1名</strong> 敌国平民。</p> <p>平民照片如下图所示。</p> <p></p> <img src='stimuli/faces/NCF1.jpg', style='max-width: 30%;'> </img> <p><strong>你是否选择发射武器？</strong></p>","0",""
"","","","","","html-keyboard-response","72","148305","0.0-4.0-0.34","223","1","2022-10-12 09:48:02","d60b49b5908c80e163b920d72b52d584","218.66.79.46","Mozilla/5.0 (Windows NT 10.0; WOW64) AppleWebKit/537.36 (KHTML, like Gecko) Chrome/92.0.4515.131 Safari/537.36 SLBrowser/8.0.0.9231 SLBChan/105","WebKit","Chrome","92.0.4515.131","Windows","10.0","null","<div style=""font-size:60px;"">+</div>","null",""
"","","","","","html-button-response","73","150254","0.0-4.0-1.34","223","1","2022-10-12 09:48:02","d60b49b5908c80e163b920d72b52d584","218.66.79.46","Mozilla/5.0 (Windows NT 10.0; WOW64) AppleWebKit/537.36 (KHTML, like Gecko) Chrome/92.0.4515.131 Safari/537.36 SLBrowser/8.0.0.9231 SLBChan/105","WebKit","Chrome","92.0.4515.131","Windows","10.0","1947","<p>作为军队的指挥官，你可以选择发射导弹杀死 <strong>1名</strong> 敌国士兵，但会炸毁附近的 <strong>1棵</strong> 敌国树木。</p> <p>树木的照片如下图所示。</p> <p></p> <img src='stimuli/trees/2.png', style='max-width: 30%;'> </img> <p><strong>你是否选择发射武器？</strong></p>","0",""
"","","","","","html-keyboard-response","74","151256","0.0-4.0-0.35","223","1","2022-10-12 09:48:02","d60b49b5908c80e163b920d72b52d584","218.66.79.46","Mozilla/5.0 (Windows NT 10.0; WOW64) AppleWebKit/537.36 (KHTML, like Gecko) Chrome/92.0.4515.131 Safari/537.36 SLBrowser/8.0.0.9231 SLBChan/105","WebKit","Chrome","92.0.4515.131","Windows","10.0","null","<div style=""font-size:60px;"">+</div>","null",""
"","","","","","html-button-response","75","152231","0.0-4.0-1.35","223","1","2022-10-12 09:48:02","d60b49b5908c80e163b920d72b52d584","218.66.79.46","Mozilla/5.0 (Windows NT 10.0; WOW64) AppleWebKit/537.36 (KHTML, like Gecko) Chrome/92.0.4515.131 Safari/537.36 SLBrowser/8.0.0.9231 SLBChan/105","WebKit","Chrome","92.0.4515.131","Windows","10.0","972","<p>作为军队的指挥官，你可以选择发射导弹杀死 <strong>6名</strong> 敌国士兵，但会误杀附近的 <strong>1名</strong> 敌国平民。</p> <p>平民照片如下图所示。</p> <p></p> <img src='stimuli/faces/NCF2.jpg', style='max-width: 30%;'> </img> <p><strong>你是否选择发射武器？</strong></p>","0",""
"","","","","","html-keyboard-response","76","153234","0.0-4.0-0.36","223","1","2022-10-12 09:48:02","d60b49b5908c80e163b920d72b52d584","218.66.79.46","Mozilla/5.0 (Windows NT 10.0; WOW64) AppleWebKit/537.36 (KHTML, like Gecko) Chrome/92.0.4515.131 Safari/537.36 SLBrowser/8.0.0.9231 SLBChan/105","WebKit","Chrome","92.0.4515.131","Windows","10.0","null","<div style=""font-size:60px;"">+</div>","null",""
"","","","","","html-button-response","77","154243","0.0-4.0-1.36","223","1","2022-10-12 09:48:02","d60b49b5908c80e163b920d72b52d584","218.66.79.46","Mozilla/5.0 (Windows NT 10.0; WOW64) AppleWebKit/537.36 (KHTML, like Gecko) Chrome/92.0.4515.131 Safari/537.36 SLBrowser/8.0.0.9231 SLBChan/105","WebKit","Chrome","92.0.4515.131","Windows","10.0","1007","<p>作为军队的指挥官，你可以选择发射导弹杀死 <strong>5名</strong> 敌国士兵，但会炸毁附近的 <strong>1棵</strong> 敌国树木。</p> <p>树木的照片如下图所示。</p> <p></p> <img src='stimuli/trees/10.png', style='max-width: 30%;'> </img> <p><strong>你是否选择发射武器？</strong></p>","0",""
"","","","","","html-keyboard-response","78","155246","0.0-4.0-0.37","223","1","2022-10-12 09:48:02","d60b49b5908c80e163b920d72b52d584","218.66.79.46","Mozilla/5.0 (Windows NT 10.0; WOW64) AppleWebKit/537.36 (KHTML, like Gecko) Chrome/92.0.4515.131 Safari/537.36 SLBrowser/8.0.0.9231 SLBChan/105","WebKit","Chrome","92.0.4515.131","Windows","10.0","null","<div style=""font-size:60px;"">+</div>","null",""
"","","","","","html-button-response","79","156138","0.0-4.0-1.37","223","1","2022-10-12 09:48:02","d60b49b5908c80e163b920d72b52d584","218.66.79.46","Mozilla/5.0 (Windows NT 10.0; WOW64) AppleWebKit/537.36 (KHTML, like Gecko) Chrome/92.0.4515.131 Safari/537.36 SLBrowser/8.0.0.9231 SLBChan/105","WebKit","Chrome","92.0.4515.131","Windows","10.0","889","<p>作为军队的指挥官，你可以选择发射导弹杀死 <strong>7名</strong> 敌国士兵，但会误杀附近的 <strong>1名</strong> 敌国平民。</p> <p>平民照片如下图所示。</p> <p></p> <img src='stimuli/faces/NCM1.jpg', style='max-width: 30%;'> </img> <p><strong>你是否选择发射武器？</strong></p>","0",""
"","","","","","html-keyboard-response","80","157140","0.0-4.0-0.38","223","1","2022-10-12 09:48:02","d60b49b5908c80e163b920d72b52d584","218.66.79.46","Mozilla/5.0 (Windows NT 10.0; WOW64) AppleWebKit/537.36 (KHTML, like Gecko) Chrome/92.0.4515.131 Safari/537.36 SLBrowser/8.0.0.9231 SLBChan/105","WebKit","Chrome","92.0.4515.131","Windows","10.0","null","<div style=""font-size:60px;"">+</div>","null",""
"","","","","","html-button-response","81","159055","0.0-4.0-1.38","223","1","2022-10-12 09:48:02","d60b49b5908c80e163b920d72b52d584","218.66.79.46","Mozilla/5.0 (Windows NT 10.0; WOW64) AppleWebKit/537.36 (KHTML, like Gecko) Chrome/92.0.4515.131 Safari/537.36 SLBrowser/8.0.0.9231 SLBChan/105","WebKit","Chrome","92.0.4515.131","Windows","10.0","1912","<p>作为军队的指挥官，你可以选择发射导弹杀死 <strong>6名</strong> 敌国士兵，但会炸毁附近的 <strong>1棵</strong> 敌国树木。</p> <p>树木的照片如下图所示。</p> <p></p> <img src='stimuli/trees/5.png', style='max-width: 30%;'> </img> <p><strong>你是否选择发射武器？</strong></p>","0",""
"","","","","","html-keyboard-response","82","160058","0.0-4.0-0.39","223","1","2022-10-12 09:48:02","d60b49b5908c80e163b920d72b52d584","218.66.79.46","Mozilla/5.0 (Windows NT 10.0; WOW64) AppleWebKit/537.36 (KHTML, like Gecko) Chrome/92.0.4515.131 Safari/537.36 SLBrowser/8.0.0.9231 SLBChan/105","WebKit","Chrome","92.0.4515.131","Windows","10.0","null","<div style=""font-size:60px;"">+</div>","null",""
"","","","","","html-button-response","83","161704","0.0-4.0-1.39","223","1","2022-10-12 09:48:02","d60b49b5908c80e163b920d72b52d584","218.66.79.46","Mozilla/5.0 (Windows NT 10.0; WOW64) AppleWebKit/537.36 (KHTML, like Gecko) Chrome/92.0.4515.131 Safari/537.36 SLBrowser/8.0.0.9231 SLBChan/105","WebKit","Chrome","92.0.4515.131","Windows","10.0","1643","<p>作为军队的指挥官，你可以选择发射导弹杀死 <strong>7名</strong> 敌国士兵，但会炸毁附近的 <strong>1棵</strong> 敌国树木。</p> <p>树木的照片如下图所示。</p> <p></p> <img src='stimuli/trees/3.png', style='max-width: 30%;'> </img> <p><strong>你是否选择发射武器？</strong></p>","0",""
"","","","","","html-keyboard-response","84","162706","0.0-4.0-0.40","223","1","2022-10-12 09:48:02","d60b49b5908c80e163b920d72b52d584","218.66.79.46","Mozilla/5.0 (Windows NT 10.0; WOW64) AppleWebKit/537.36 (KHTML, like Gecko) Chrome/92.0.4515.131 Safari/537.36 SLBrowser/8.0.0.9231 SLBChan/105","WebKit","Chrome","92.0.4515.131","Windows","10.0","null","<div style=""font-size:60px;"">+</div>","null",""
"","","","","","html-button-response","85","164523","0.0-4.0-1.40","223","1","2022-10-12 09:48:02","d60b49b5908c80e163b920d72b52d584","218.66.79.46","Mozilla/5.0 (Windows NT 10.0; WOW64) AppleWebKit/537.36 (KHTML, like Gecko) Chrome/92.0.4515.131 Safari/537.36 SLBrowser/8.0.0.9231 SLBChan/105","WebKit","Chrome","92.0.4515.131","Windows","10.0","1814","<p>作为军队的指挥官，你可以选择发射导弹杀死 <strong>9名</strong> 敌国士兵，但会炸毁附近的 <strong>1棵</strong> 敌国树木。</p> <p>树木的照片如下图所示。</p> <p></p> <img src='stimuli/trees/4.png', style='max-width: 30%;'> </img> <p><strong>你是否选择发射武器？</strong></p>","0",""
"","","","","","html-keyboard-response","86","165526","0.0-4.0-0.41","223","1","2022-10-12 09:48:02","d60b49b5908c80e163b920d72b52d584","218.66.79.46","Mozilla/5.0 (Windows NT 10.0; WOW64) AppleWebKit/537.36 (KHTML, like Gecko) Chrome/92.0.4515.131 Safari/537.36 SLBrowser/8.0.0.9231 SLBChan/105","WebKit","Chrome","92.0.4515.131","Windows","10.0","null","<div style=""font-size:60px;"">+</div>","null",""
"","","","","","html-button-response","87","167618","0.0-4.0-1.41","223","1","2022-10-12 09:48:02","d60b49b5908c80e163b920d72b52d584","218.66.79.46","Mozilla/5.0 (Windows NT 10.0; WOW64) AppleWebKit/537.36 (KHTML, like Gecko) Chrome/92.0.4515.131 Safari/537.36 SLBrowser/8.0.0.9231 SLBChan/105","WebKit","Chrome","92.0.4515.131","Windows","10.0","2089","<p>作为军队的指挥官，你可以选择发射导弹杀死 <strong>8名</strong> 敌国士兵，但会误杀附近的 <strong>1名</strong> 敌国平民。</p> <p>平民照片如下图所示。</p> <p></p> <img src='stimuli/faces/NCF8.jpg', style='max-width: 30%;'> </img> <p><strong>你是否选择发射武器？</strong></p>","0",""
"","","","","","html-keyboard-response","88","168622","0.0-4.0-0.42","223","1","2022-10-12 09:48:02","d60b49b5908c80e163b920d72b52d584","218.66.79.46","Mozilla/5.0 (Windows NT 10.0; WOW64) AppleWebKit/537.36 (KHTML, like Gecko) Chrome/92.0.4515.131 Safari/537.36 SLBrowser/8.0.0.9231 SLBChan/105","WebKit","Chrome","92.0.4515.131","Windows","10.0","null","<div style=""font-size:60px;"">+</div>","null",""
"","","","","","html-button-response","89","169832","0.0-4.0-1.42","223","1","2022-10-12 09:48:02","d60b49b5908c80e163b920d72b52d584","218.66.79.46","Mozilla/5.0 (Windows NT 10.0; WOW64) AppleWebKit/537.36 (KHTML, like Gecko) Chrome/92.0.4515.131 Safari/537.36 SLBrowser/8.0.0.9231 SLBChan/105","WebKit","Chrome","92.0.4515.131","Windows","10.0","1208","<p>作为军队的指挥官，你可以选择发射导弹杀死 <strong>4名</strong> 敌国士兵，但会误杀附近的 <strong>1名</strong> 敌国平民。</p> <p>平民照片如下图所示。</p> <p></p> <img src='stimuli/faces/NCF5.jpg', style='max-width: 30%;'> </img> <p><strong>你是否选择发射武器？</strong></p>","0",""
"","","","","","html-keyboard-response","90","170835","0.0-4.0-0.43","223","1","2022-10-12 09:48:02","d60b49b5908c80e163b920d72b52d584","218.66.79.46","Mozilla/5.0 (Windows NT 10.0; WOW64) AppleWebKit/537.36 (KHTML, like Gecko) Chrome/92.0.4515.131 Safari/537.36 SLBrowser/8.0.0.9231 SLBChan/105","WebKit","Chrome","92.0.4515.131","Windows","10.0","null","<div style=""font-size:60px;"">+</div>","null",""
"","","","","","html-button-response","91","171760","0.0-4.0-1.43","223","1","2022-10-12 09:48:02","d60b49b5908c80e163b920d72b52d584","218.66.79.46","Mozilla/5.0 (Windows NT 10.0; WOW64) AppleWebKit/537.36 (KHTML, like Gecko) Chrome/92.0.4515.131 Safari/537.36 SLBrowser/8.0.0.9231 SLBChan/105","WebKit","Chrome","92.0.4515.131","Windows","10.0","922","<p>作为军队的指挥官，你可以选择发射导弹杀死 <strong>3名</strong> 敌国士兵，但会炸毁附近的 <strong>1棵</strong> 敌国树木。</p> <p>树木的照片如下图所示。</p> <p></p> <img src='stimuli/trees/13.png', style='max-width: 30%;'> </img> <p><strong>你是否选择发射武器？</strong></p>","0",""
"","","","","","html-keyboard-response","92","172763","0.0-4.0-0.44","223","1","2022-10-12 09:48:02","d60b49b5908c80e163b920d72b52d584","218.66.79.46","Mozilla/5.0 (Windows NT 10.0; WOW64) AppleWebKit/537.36 (KHTML, like Gecko) Chrome/92.0.4515.131 Safari/537.36 SLBrowser/8.0.0.9231 SLBChan/105","WebKit","Chrome","92.0.4515.131","Windows","10.0","null","<div style=""font-size:60px;"">+</div>","null",""
"","","","","","html-button-response","93","173517","0.0-4.0-1.44","223","1","2022-10-12 09:48:02","d60b49b5908c80e163b920d72b52d584","218.66.79.46","Mozilla/5.0 (Windows NT 10.0; WOW64) AppleWebKit/537.36 (KHTML, like Gecko) Chrome/92.0.4515.131 Safari/537.36 SLBrowser/8.0.0.9231 SLBChan/105","WebKit","Chrome","92.0.4515.131","Windows","10.0","751","<p>作为军队的指挥官，你可以选择发射导弹杀死 <strong>10名</strong> 敌国士兵，但会误杀附近的 <strong>1名</strong> 敌国平民。</p> <p>平民照片如下图所示。</p> <p></p> <img src='stimuli/faces/NCM7.jpg', style='max-width: 30%;'> </img> <p><strong>你是否选择发射武器？</strong></p>","0",""
"","","","","","html-keyboard-response","94","174520","0.0-4.0-0.45","223","1","2022-10-12 09:48:02","d60b49b5908c80e163b920d72b52d584","218.66.79.46","Mozilla/5.0 (Windows NT 10.0; WOW64) AppleWebKit/537.36 (KHTML, like Gecko) Chrome/92.0.4515.131 Safari/537.36 SLBrowser/8.0.0.9231 SLBChan/105","WebKit","Chrome","92.0.4515.131","Windows","10.0","null","<div style=""font-size:60px;"">+</div>","null",""
"","","","","","html-button-response","95","175951","0.0-4.0-1.45","223","1","2022-10-12 09:48:02","d60b49b5908c80e163b920d72b52d584","218.66.79.46","Mozilla/5.0 (Windows NT 10.0; WOW64) AppleWebKit/537.36 (KHTML, like Gecko) Chrome/92.0.4515.131 Safari/537.36 SLBrowser/8.0.0.9231 SLBChan/105","WebKit","Chrome","92.0.4515.131","Windows","10.0","1427","<p>作为军队的指挥官，你可以选择发射导弹杀死 <strong>3名</strong> 敌国士兵，但会误杀附近的 <strong>1名</strong> 敌国平民。</p> <p>平民照片如下图所示。</p> <p></p> <img src='stimuli/faces/NCM7.jpg', style='max-width: 30%;'> </img> <p><strong>你是否选择发射武器？</strong></p>","0",""
"","","","","","html-keyboard-response","96","176953","0.0-4.0-0.46","223","1","2022-10-12 09:48:02","d60b49b5908c80e163b920d72b52d584","218.66.79.46","Mozilla/5.0 (Windows NT 10.0; WOW64) AppleWebKit/537.36 (KHTML, like Gecko) Chrome/92.0.4515.131 Safari/537.36 SLBrowser/8.0.0.9231 SLBChan/105","WebKit","Chrome","92.0.4515.131","Windows","10.0","null","<div style=""font-size:60px;"">+</div>","null",""
"","","","","","html-button-response","97","177968","0.0-4.0-1.46","223","1","2022-10-12 09:48:02","d60b49b5908c80e163b920d72b52d584","218.66.79.46","Mozilla/5.0 (Windows NT 10.0; WOW64) AppleWebKit/537.36 (KHTML, like Gecko) Chrome/92.0.4515.131 Safari/537.36 SLBrowser/8.0.0.9231 SLBChan/105","WebKit","Chrome","92.0.4515.131","Windows","10.0","1012","<p>作为军队的指挥官，你可以选择发射导弹杀死 <strong>7名</strong> 敌国士兵，但会误杀附近的 <strong>1名</strong> 敌国平民。</p> <p>平民照片如下图所示。</p> <p></p> <img src='stimuli/faces/NCF1.jpg', style='max-width: 30%;'> </img> <p><strong>你是否选择发射武器？</strong></p>","0",""
"","","","","","html-keyboard-response","98","178971","0.0-4.0-0.47","223","1","2022-10-12 09:48:02","d60b49b5908c80e163b920d72b52d584","218.66.79.46","Mozilla/5.0 (Windows NT 10.0; WOW64) AppleWebKit/537.36 (KHTML, like Gecko) Chrome/92.0.4515.131 Safari/537.36 SLBrowser/8.0.0.9231 SLBChan/105","WebKit","Chrome","92.0.4515.131","Windows","10.0","null","<div style=""font-size:60px;"">+</div>","null",""
"","","","","","html-button-response","99","179444","0.0-4.0-1.47","223","1","2022-10-12 09:48:02","d60b49b5908c80e163b920d72b52d584","218.66.79.46","Mozilla/5.0 (Windows NT 10.0; WOW64) AppleWebKit/537.36 (KHTML, like Gecko) Chrome/92.0.4515.131 Safari/537.36 SLBrowser/8.0.0.9231 SLBChan/105","WebKit","Chrome","92.0.4515.131","Windows","10.0","469","<p>作为军队的指挥官，你可以选择发射导弹杀死 <strong>1名</strong> 敌国士兵，但会误杀附近的 <strong>1名</strong> 敌国平民。</p> <p>平民照片如下图所示。</p> <p></p> <img src='stimuli/faces/NCF4.jpg', style='max-width: 30%;'> </img> <p><strong>你是否选择发射武器？</strong></p>","0",""
"","","","","","html-keyboard-response","100","180447","0.0-4.0-0.48","223","1","2022-10-12 09:48:02","d60b49b5908c80e163b920d72b52d584","218.66.79.46","Mozilla/5.0 (Windows NT 10.0; WOW64) AppleWebKit/537.36 (KHTML, like Gecko) Chrome/92.0.4515.131 Safari/537.36 SLBrowser/8.0.0.9231 SLBChan/105","WebKit","Chrome","92.0.4515.131","Windows","10.0","null","<div style=""font-size:60px;"">+</div>","null",""
"","","","","","html-button-response","101","181439","0.0-4.0-1.48","223","1","2022-10-12 09:48:02","d60b49b5908c80e163b920d72b52d584","218.66.79.46","Mozilla/5.0 (Windows NT 10.0; WOW64) AppleWebKit/537.36 (KHTML, like Gecko) Chrome/92.0.4515.131 Safari/537.36 SLBrowser/8.0.0.9231 SLBChan/105","WebKit","Chrome","92.0.4515.131","Windows","10.0","989","<p>作为军队的指挥官，你可以选择发射导弹杀死 <strong>4名</strong> 敌国士兵，但会炸毁附近的 <strong>1棵</strong> 敌国树木。</p> <p>树木的照片如下图所示。</p> <p></p> <img src='stimuli/trees/7.png', style='max-width: 30%;'> </img> <p><strong>你是否选择发射武器？</strong></p>","0",""
"","","","","","html-keyboard-response","102","182442","0.0-4.0-0.49","223","1","2022-10-12 09:48:02","d60b49b5908c80e163b920d72b52d584","218.66.79.46","Mozilla/5.0 (Windows NT 10.0; WOW64) AppleWebKit/537.36 (KHTML, like Gecko) Chrome/92.0.4515.131 Safari/537.36 SLBrowser/8.0.0.9231 SLBChan/105","WebKit","Chrome","92.0.4515.131","Windows","10.0","null","<div style=""font-size:60px;"">+</div>","null",""
"","","","","","html-button-response","103","183520","0.0-4.0-1.49","223","1","2022-10-12 09:48:02","d60b49b5908c80e163b920d72b52d584","218.66.79.46","Mozilla/5.0 (Windows NT 10.0; WOW64) AppleWebKit/537.36 (KHTML, like Gecko) Chrome/92.0.4515.131 Safari/537.36 SLBrowser/8.0.0.9231 SLBChan/105","WebKit","Chrome","92.0.4515.131","Windows","10.0","1075","<p>作为军队的指挥官，你可以选择发射导弹杀死 <strong>1名</strong> 敌国士兵，但会炸毁附近的 <strong>1棵</strong> 敌国树木。</p> <p>树木的照片如下图所示。</p> <p></p> <img src='stimuli/trees/1.png', style='max-width: 30%;'> </img> <p><strong>你是否选择发射武器？</strong></p>","0",""
"","","","","","html-keyboard-response","104","184524","0.0-4.0-0.50","223","1","2022-10-12 09:48:02","d60b49b5908c80e163b920d72b52d584","218.66.79.46","Mozilla/5.0 (Windows NT 10.0; WOW64) AppleWebKit/537.36 (KHTML, like Gecko) Chrome/92.0.4515.131 Safari/537.36 SLBrowser/8.0.0.9231 SLBChan/105","WebKit","Chrome","92.0.4515.131","Windows","10.0","null","<div style=""font-size:60px;"">+</div>","null",""
"","","","","","html-button-response","105","185259","0.0-4.0-1.50","223","1","2022-10-12 09:48:02","d60b49b5908c80e163b920d72b52d584","218.66.79.46","Mozilla/5.0 (Windows NT 10.0; WOW64) AppleWebKit/537.36 (KHTML, like Gecko) Chrome/92.0.4515.131 Safari/537.36 SLBrowser/8.0.0.9231 SLBChan/105","WebKit","Chrome","92.0.4515.131","Windows","10.0","731","<p>作为军队的指挥官，你可以选择发射导弹杀死 <strong>1名</strong> 敌国士兵，但会误杀附近的 <strong>1名</strong> 敌国平民。</p> <p>平民照片如下图所示。</p> <p></p> <img src='stimuli/faces/NCM8.jpg', style='max-width: 30%;'> </img> <p><strong>你是否选择发射武器？</strong></p>","0",""
"","","","","","html-keyboard-response","106","186263","0.0-4.0-0.51","223","1","2022-10-12 09:48:02","d60b49b5908c80e163b920d72b52d584","218.66.79.46","Mozilla/5.0 (Windows NT 10.0; WOW64) AppleWebKit/537.36 (KHTML, like Gecko) Chrome/92.0.4515.131 Safari/537.36 SLBrowser/8.0.0.9231 SLBChan/105","WebKit","Chrome","92.0.4515.131","Windows","10.0","null","<div style=""font-size:60px;"">+</div>","null",""
"","","","","","html-button-response","107","186944","0.0-4.0-1.51","223","1","2022-10-12 09:48:02","d60b49b5908c80e163b920d72b52d584","218.66.79.46","Mozilla/5.0 (Windows NT 10.0; WOW64) AppleWebKit/537.36 (KHTML, like Gecko) Chrome/92.0.4515.131 Safari/537.36 SLBrowser/8.0.0.9231 SLBChan/105","WebKit","Chrome","92.0.4515.131","Windows","10.0","678","<p>作为军队的指挥官，你可以选择发射导弹杀死 <strong>1名</strong> 敌国士兵，但会误杀附近的 <strong>1名</strong> 敌国平民。</p> <p>平民照片如下图所示。</p> <p></p> <img src='stimuli/faces/NCF6.jpg', style='max-width: 30%;'> </img> <p><strong>你是否选择发射武器？</strong></p>","0",""
"","","","","","html-keyboard-response","108","187949","0.0-4.0-0.52","223","1","2022-10-12 09:48:02","d60b49b5908c80e163b920d72b52d584","218.66.79.46","Mozilla/5.0 (Windows NT 10.0; WOW64) AppleWebKit/537.36 (KHTML, like Gecko) Chrome/92.0.4515.131 Safari/537.36 SLBrowser/8.0.0.9231 SLBChan/105","WebKit","Chrome","92.0.4515.131","Windows","10.0","null","<div style=""font-size:60px;"">+</div>","null",""
"","","","","","html-button-response","109","188756","0.0-4.0-1.52","223","1","2022-10-12 09:48:02","d60b49b5908c80e163b920d72b52d584","218.66.79.46","Mozilla/5.0 (Windows NT 10.0; WOW64) AppleWebKit/537.36 (KHTML, like Gecko) Chrome/92.0.4515.131 Safari/537.36 SLBrowser/8.0.0.9231 SLBChan/105","WebKit","Chrome","92.0.4515.131","Windows","10.0","804","<p>作为军队的指挥官，你可以选择发射导弹杀死 <strong>10名</strong> 敌国士兵，但会误杀附近的 <strong>1名</strong> 敌国平民。</p> <p>平民照片如下图所示。</p> <p></p> <img src='stimuli/faces/NCF5.jpg', style='max-width: 30%;'> </img> <p><strong>你是否选择发射武器？</strong></p>","0",""
"","","","","","html-keyboard-response","110","189759","0.0-4.0-0.53","223","1","2022-10-12 09:48:02","d60b49b5908c80e163b920d72b52d584","218.66.79.46","Mozilla/5.0 (Windows NT 10.0; WOW64) AppleWebKit/537.36 (KHTML, like Gecko) Chrome/92.0.4515.131 Safari/537.36 SLBrowser/8.0.0.9231 SLBChan/105","WebKit","Chrome","92.0.4515.131","Windows","10.0","null","<div style=""font-size:60px;"">+</div>","null",""
"","","","","","html-button-response","111","190456","0.0-4.0-1.53","223","1","2022-10-12 09:48:02","d60b49b5908c80e163b920d72b52d584","218.66.79.46","Mozilla/5.0 (Windows NT 10.0; WOW64) AppleWebKit/537.36 (KHTML, like Gecko) Chrome/92.0.4515.131 Safari/537.36 SLBrowser/8.0.0.9231 SLBChan/105","WebKit","Chrome","92.0.4515.131","Windows","10.0","693","<p>作为军队的指挥官，你可以选择发射导弹杀死 <strong>10名</strong> 敌国士兵，但会炸毁附近的 <strong>1棵</strong> 敌国树木。</p> <p>树木的照片如下图所示。</p> <p></p> <img src='stimuli/trees/1.png', style='max-width: 30%;'> </img> <p><strong>你是否选择发射武器？</strong></p>","0",""
"","","","","","html-keyboard-response","112","191458","0.0-4.0-0.54","223","1","2022-10-12 09:48:02","d60b49b5908c80e163b920d72b52d584","218.66.79.46","Mozilla/5.0 (Windows NT 10.0; WOW64) AppleWebKit/537.36 (KHTML, like Gecko) Chrome/92.0.4515.131 Safari/537.36 SLBrowser/8.0.0.9231 SLBChan/105","WebKit","Chrome","92.0.4515.131","Windows","10.0","null","<div style=""font-size:60px;"">+</div>","null",""
"","","","","","html-button-response","113","191993","0.0-4.0-1.54","223","1","2022-10-12 09:48:02","d60b49b5908c80e163b920d72b52d584","218.66.79.46","Mozilla/5.0 (Windows NT 10.0; WOW64) AppleWebKit/537.36 (KHTML, like Gecko) Chrome/92.0.4515.131 Safari/537.36 SLBrowser/8.0.0.9231 SLBChan/105","WebKit","Chrome","92.0.4515.131","Windows","10.0","532","<p>作为军队的指挥官，你可以选择发射导弹杀死 <strong>8名</strong> 敌国士兵，但会误杀附近的 <strong>1名</strong> 敌国平民。</p> <p>平民照片如下图所示。</p> <p></p> <img src='stimuli/faces/NCM2.jpg', style='max-width: 30%;'> </img> <p><strong>你是否选择发射武器？</strong></p>","0",""
"","","","","","html-keyboard-response","114","192997","0.0-4.0-0.55","223","1","2022-10-12 09:48:02","d60b49b5908c80e163b920d72b52d584","218.66.79.46","Mozilla/5.0 (Windows NT 10.0; WOW64) AppleWebKit/537.36 (KHTML, like Gecko) Chrome/92.0.4515.131 Safari/537.36 SLBrowser/8.0.0.9231 SLBChan/105","WebKit","Chrome","92.0.4515.131","Windows","10.0","null","<div style=""font-size:60px;"">+</div>","null",""
"","","","","","html-button-response","115","195371","0.0-4.0-1.55","223","1","2022-10-12 09:48:02","d60b49b5908c80e163b920d72b52d584","218.66.79.46","Mozilla/5.0 (Windows NT 10.0; WOW64) AppleWebKit/537.36 (KHTML, like Gecko) Chrome/92.0.4515.131 Safari/537.36 SLBrowser/8.0.0.9231 SLBChan/105","WebKit","Chrome","92.0.4515.131","Windows","10.0","2371","<p>作为军队的指挥官，你可以选择发射导弹杀死 <strong>4名</strong> 敌国士兵，但会炸毁附近的 <strong>1棵</strong> 敌国树木。</p> <p>树木的照片如下图所示。</p> <p></p> <img src='stimuli/trees/5.png', style='max-width: 30%;'> </img> <p><strong>你是否选择发射武器？</strong></p>","0",""
"","","","","","html-keyboard-response","116","196374","0.0-4.0-0.56","223","1","2022-10-12 09:48:02","d60b49b5908c80e163b920d72b52d584","218.66.79.46","Mozilla/5.0 (Windows NT 10.0; WOW64) AppleWebKit/537.36 (KHTML, like Gecko) Chrome/92.0.4515.131 Safari/537.36 SLBrowser/8.0.0.9231 SLBChan/105","WebKit","Chrome","92.0.4515.131","Windows","10.0","null","<div style=""font-size:60px;"">+</div>","null",""
"","","","","","html-button-response","117","197028","0.0-4.0-1.56","223","1","2022-10-12 09:48:02","d60b49b5908c80e163b920d72b52d584","218.66.79.46","Mozilla/5.0 (Windows NT 10.0; WOW64) AppleWebKit/537.36 (KHTML, like Gecko) Chrome/92.0.4515.131 Safari/537.36 SLBrowser/8.0.0.9231 SLBChan/105","WebKit","Chrome","92.0.4515.131","Windows","10.0","652","<p>作为军队的指挥官，你可以选择发射导弹杀死 <strong>7名</strong> 敌国士兵，但会炸毁附近的 <strong>1棵</strong> 敌国树木。</p> <p>树木的照片如下图所示。</p> <p></p> <img src='stimuli/trees/6.png', style='max-width: 30%;'> </img> <p><strong>你是否选择发射武器？</strong></p>","0",""
"","","","","","html-keyboard-response","118","198032","0.0-4.0-0.57","223","1","2022-10-12 09:48:02","d60b49b5908c80e163b920d72b52d584","218.66.79.46","Mozilla/5.0 (Windows NT 10.0; WOW64) AppleWebKit/537.36 (KHTML, like Gecko) Chrome/92.0.4515.131 Safari/537.36 SLBrowser/8.0.0.9231 SLBChan/105","WebKit","Chrome","92.0.4515.131","Windows","10.0","null","<div style=""font-size:60px;"">+</div>","null",""
"","","","","","html-button-response","119","200506","0.0-4.0-1.57","223","1","2022-10-12 09:48:02","d60b49b5908c80e163b920d72b52d584","218.66.79.46","Mozilla/5.0 (Windows NT 10.0; WOW64) AppleWebKit/537.36 (KHTML, like Gecko) Chrome/92.0.4515.131 Safari/537.36 SLBrowser/8.0.0.9231 SLBChan/105","WebKit","Chrome","92.0.4515.131","Windows","10.0","2471","<p>作为军队的指挥官，你可以选择发射导弹杀死 <strong>3名</strong> 敌国士兵，但会炸毁附近的 <strong>1棵</strong> 敌国树木。</p> <p>树木的照片如下图所示。</p> <p></p> <img src='stimuli/trees/9.png', style='max-width: 30%;'> </img> <p><strong>你是否选择发射武器？</strong></p>","0",""
"","","","","","html-keyboard-response","120","201509","0.0-4.0-0.58","223","1","2022-10-12 09:48:02","d60b49b5908c80e163b920d72b52d584","218.66.79.46","Mozilla/5.0 (Windows NT 10.0; WOW64) AppleWebKit/537.36 (KHTML, like Gecko) Chrome/92.0.4515.131 Safari/537.36 SLBrowser/8.0.0.9231 SLBChan/105","WebKit","Chrome","92.0.4515.131","Windows","10.0","null","<div style=""font-size:60px;"">+</div>","null",""
"","","","","","html-button-response","121","202638","0.0-4.0-1.58","223","1","2022-10-12 09:48:02","d60b49b5908c80e163b920d72b52d584","218.66.79.46","Mozilla/5.0 (Windows NT 10.0; WOW64) AppleWebKit/537.36 (KHTML, like Gecko) Chrome/92.0.4515.131 Safari/537.36 SLBrowser/8.0.0.9231 SLBChan/105","WebKit","Chrome","92.0.4515.131","Windows","10.0","1127","<p>作为军队的指挥官，你可以选择发射导弹杀死 <strong>9名</strong> 敌国士兵，但会炸毁附近的 <strong>1棵</strong> 敌国树木。</p> <p>树木的照片如下图所示。</p> <p></p> <img src='stimuli/trees/15.png', style='max-width: 30%;'> </img> <p><strong>你是否选择发射武器？</strong></p>","0",""
"","","","","","html-keyboard-response","122","203641","0.0-4.0-0.59","223","1","2022-10-12 09:48:02","d60b49b5908c80e163b920d72b52d584","218.66.79.46","Mozilla/5.0 (Windows NT 10.0; WOW64) AppleWebKit/537.36 (KHTML, like Gecko) Chrome/92.0.4515.131 Safari/537.36 SLBrowser/8.0.0.9231 SLBChan/105","WebKit","Chrome","92.0.4515.131","Windows","10.0","null","<div style=""font-size:60px;"">+</div>","null",""
"","","","","","html-button-response","123","204254","0.0-4.0-1.59","223","1","2022-10-12 09:48:02","d60b49b5908c80e163b920d72b52d584","218.66.79.46","Mozilla/5.0 (Windows NT 10.0; WOW64) AppleWebKit/537.36 (KHTML, like Gecko) Chrome/92.0.4515.131 Safari/537.36 SLBrowser/8.0.0.9231 SLBChan/105","WebKit","Chrome","92.0.4515.131","Windows","10.0","610","<p>作为军队的指挥官，你可以选择发射导弹杀死 <strong>8名</strong> 敌国士兵，但会误杀附近的 <strong>1名</strong> 敌国平民。</p> <p>平民照片如下图所示。</p> <p></p> <img src='stimuli/faces/NCF6.jpg', style='max-width: 30%;'> </img> <p><strong>你是否选择发射武器？</strong></p>","0",""
"","","","","","html-keyboard-response","124","205257","0.0-4.0-0.60","223","1","2022-10-12 09:48:02","d60b49b5908c80e163b920d72b52d584","218.66.79.46","Mozilla/5.0 (Windows NT 10.0; WOW64) AppleWebKit/537.36 (KHTML, like Gecko) Chrome/92.0.4515.131 Safari/537.36 SLBrowser/8.0.0.9231 SLBChan/105","WebKit","Chrome","92.0.4515.131","Windows","10.0","null","<div style=""font-size:60px;"">+</div>","null",""
"","","","","","html-button-response","125","205769","0.0-4.0-1.60","223","1","2022-10-12 09:48:02","d60b49b5908c80e163b920d72b52d584","218.66.79.46","Mozilla/5.0 (Windows NT 10.0; WOW64) AppleWebKit/537.36 (KHTML, like Gecko) Chrome/92.0.4515.131 Safari/537.36 SLBrowser/8.0.0.9231 SLBChan/105","WebKit","Chrome","92.0.4515.131","Windows","10.0","510","<p>作为军队的指挥官，你可以选择发射导弹杀死 <strong>1名</strong> 敌国士兵，但会误杀附近的 <strong>1名</strong> 敌国平民。</p> <p>平民照片如下图所示。</p> <p></p> <img src='stimuli/faces/NCF8.jpg', style='max-width: 30%;'> </img> <p><strong>你是否选择发射武器？</strong></p>","0",""
"","","","","","html-keyboard-response","126","206772","0.0-4.0-0.61","223","1","2022-10-12 09:48:02","d60b49b5908c80e163b920d72b52d584","218.66.79.46","Mozilla/5.0 (Windows NT 10.0; WOW64) AppleWebKit/537.36 (KHTML, like Gecko) Chrome/92.0.4515.131 Safari/537.36 SLBrowser/8.0.0.9231 SLBChan/105","WebKit","Chrome","92.0.4515.131","Windows","10.0","null","<div style=""font-size:60px;"">+</div>","null",""
"","","","","","html-button-response","127","207359","0.0-4.0-1.61","223","1","2022-10-12 09:48:02","d60b49b5908c80e163b920d72b52d584","218.66.79.46","Mozilla/5.0 (Windows NT 10.0; WOW64) AppleWebKit/537.36 (KHTML, like Gecko) Chrome/92.0.4515.131 Safari/537.36 SLBrowser/8.0.0.9231 SLBChan/105","WebKit","Chrome","92.0.4515.131","Windows","10.0","585","<p>作为军队的指挥官，你可以选择发射导弹杀死 <strong>4名</strong> 敌国士兵，但会误杀附近的 <strong>1名</strong> 敌国平民。</p> <p>平民照片如下图所示。</p> <p></p> <img src='stimuli/faces/NCM2.jpg', style='max-width: 30%;'> </img> <p><strong>你是否选择发射武器？</strong></p>","0",""
"","","","","","html-keyboard-response","128","208363","0.0-4.0-0.62","223","1","2022-10-12 09:48:02","d60b49b5908c80e163b920d72b52d584","218.66.79.46","Mozilla/5.0 (Windows NT 10.0; WOW64) AppleWebKit/537.36 (KHTML, like Gecko) Chrome/92.0.4515.131 Safari/537.36 SLBrowser/8.0.0.9231 SLBChan/105","WebKit","Chrome","92.0.4515.131","Windows","10.0","null","<div style=""font-size:60px;"">+</div>","null",""
"","","","","","html-button-response","129","209218","0.0-4.0-1.62","223","1","2022-10-12 09:48:02","d60b49b5908c80e163b920d72b52d584","218.66.79.46","Mozilla/5.0 (Windows NT 10.0; WOW64) AppleWebKit/537.36 (KHTML, like Gecko) Chrome/92.0.4515.131 Safari/537.36 SLBrowser/8.0.0.9231 SLBChan/105","WebKit","Chrome","92.0.4515.131","Windows","10.0","852","<p>作为军队的指挥官，你可以选择发射导弹杀死 <strong>6名</strong> 敌国士兵，但会炸毁附近的 <strong>1棵</strong> 敌国树木。</p> <p>树木的照片如下图所示。</p> <p></p> <img src='stimuli/trees/16.png', style='max-width: 30%;'> </img> <p><strong>你是否选择发射武器？</strong></p>","0",""
"","","","","","html-keyboard-response","130","210222","0.0-4.0-0.63","223","1","2022-10-12 09:48:02","d60b49b5908c80e163b920d72b52d584","218.66.79.46","Mozilla/5.0 (Windows NT 10.0; WOW64) AppleWebKit/537.36 (KHTML, like Gecko) Chrome/92.0.4515.131 Safari/537.36 SLBrowser/8.0.0.9231 SLBChan/105","WebKit","Chrome","92.0.4515.131","Windows","10.0","null","<div style=""font-size:60px;"">+</div>","null",""
"","","","","","html-button-response","131","211397","0.0-4.0-1.63","223","1","2022-10-12 09:48:02","d60b49b5908c80e163b920d72b52d584","218.66.79.46","Mozilla/5.0 (Windows NT 10.0; WOW64) AppleWebKit/537.36 (KHTML, like Gecko) Chrome/92.0.4515.131 Safari/537.36 SLBrowser/8.0.0.9231 SLBChan/105","WebKit","Chrome","92.0.4515.131","Windows","10.0","1172","<p>作为军队的指挥官，你可以选择发射导弹杀死 <strong>10名</strong> 敌国士兵，但会误杀附近的 <strong>1名</strong> 敌国平民。</p> <p>平民照片如下图所示。</p> <p></p> <img src='stimuli/faces/NCM3.jpg', style='max-width: 30%;'> </img> <p><strong>你是否选择发射武器？</strong></p>","0",""
"","","","","","survey-multi-choice","132","229239","0.0-5.0","223","1","2022-10-12 09:48:02","d60b49b5908c80e163b920d72b52d584","218.66.79.46","Mozilla/5.0 (Windows NT 10.0; WOW64) AppleWebKit/537.36 (KHTML, like Gecko) Chrome/92.0.4515.131 Safari/537.36 SLBrowser/8.0.0.9231 SLBChan/105","WebKit","Chrome","92.0.4515.131","Windows","10.0","17838","","{""Attention1"":""""}","[0]"
"","","","","","html-button-response","133","296092","0.0-6.0","223","1","2022-10-12 09:48:02","d60b49b5908c80e163b920d72b52d584","218.66.79.46","Mozilla/5.0 (Windows NT 10.0; WOW64) AppleWebKit/537.36 (KHTML, like Gecko) Chrome/92.0.4515.131 Safari/537.36 SLBrowser/8.0.0.9231 SLBChan/105","WebKit","Chrome","92.0.4515.131","Windows","10.0","66846","<p style=""font-size:20px;font-weight:bold;"">恭喜！</p><p>你已经完成了实验的第一部分。</p><p>请休息放松一下，然后进入第二部分。</p><p>这部分大约需要10分钟。</p>","0",""
"","","","","","survey-text","134","326396","0.0-7.0","223","1","2022-10-12 09:48:02","d60b49b5908c80e163b920d72b52d584","218.66.79.46","Mozilla/5.0 (Windows NT 10.0; WOW64) AppleWebKit/537.36 (KHTML, like Gecko) Chrome/92.0.4515.131 Safari/537.36 SLBrowser/8.0.0.9231 SLBChan/105","WebKit","Chrome","92.0.4515.131","Windows","10.0","29288","","{""Age"":""20"",""Nation"":""中国"",""Born"":""福建"",""Live"":""福州"",""Ethnic"":""汉"",""Alipay"":""15559583642""}",""
"","","","","","survey-multi-choice","135","340876","0.0-8.0","223","1","2022-10-12 09:48:02","d60b49b5908c80e163b920d72b52d584","218.66.79.46","Mozilla/5.0 (Windows NT 10.0; WOW64) AppleWebKit/537.36 (KHTML, like Gecko) Chrome/92.0.4515.131 Safari/537.36 SLBrowser/8.0.0.9231 SLBChan/105","WebKit","Chrome","92.0.4515.131","Windows","10.0","14477","","{""Gender"":""男"",""Education"":""高中毕业"",""Income"":""￥140,000-￥269,999"",""Children"":""0"",""Race"":""亚洲人""}","[0,1,2,3,4]"
"","","","","","survey-multi-select","136","345991","0.0-9.0","223","1","2022-10-12 09:48:02","d60b49b5908c80e163b920d72b52d584","218.66.79.46","Mozilla/5.0 (Windows NT 10.0; WOW64) AppleWebKit/537.36 (KHTML, like Gecko) Chrome/92.0.4515.131 Safari/537.36 SLBrowser/8.0.0.9231 SLBChan/105","WebKit","Chrome","92.0.4515.131","Windows","10.0","5104","","{""Marriage"":[""未婚""],""Religion"":[""佛教""]}","[0,1]"
"","","","","","survey-multi-choice","137","349431","0.0-10.0","223","1","2022-10-12 09:48:02","d60b49b5908c80e163b920d72b52d584","218.66.79.46","Mozilla/5.0 (Windows NT 10.0; WOW64) AppleWebKit/537.36 (KHTML, like Gecko) Chrome/92.0.4515.131 Safari/537.36 SLBrowser/8.0.0.9231 SLBChan/105","WebKit","Chrome","92.0.4515.131","Windows","10.0","3435","","{""SES"":""6""}","[0]"
"","","","","","html-button-response","138","353092","0.0-11.0","223","1","2022-10-12 09:48:02","d60b49b5908c80e163b920d72b52d584","218.66.79.46","Mozilla/5.0 (Windows NT 10.0; WOW64) AppleWebKit/537.36 (KHTML, like Gecko) Chrome/92.0.4515.131 Safari/537.36 SLBrowser/8.0.0.9231 SLBChan/105","WebKit","Chrome","92.0.4515.131","Windows","10.0","3655","<p><strong>请判断下列陈述在多大程度上可以形容你？</p><p> (1 = ""和我一点都不像"" to 5 = ""非常像我"".)</strong></p>","0",""
"","","","","","survey-likert","139","379388","0.0-12.0","223","1","2022-10-12 09:48:02","d60b49b5908c80e163b920d72b52d584","218.66.79.46","Mozilla/5.0 (Windows NT 10.0; WOW64) AppleWebKit/537.36 (KHTML, like Gecko) Chrome/92.0.4515.131 Safari/537.36 SLBrowser/8.0.0.9231 SLBChan/105","WebKit","Chrome","92.0.4515.131","Windows","10.0","26291","","{""Aggression1"":1,""Aggression2"":3,""Aggression3"":4,""Aggression4"":0,""Aggression5"":3,""Aggression6"":3,""Aggression7"":4,""Aggression8"":1,""Aggression9"":1}","[0,1,2,3,4,5,6,7,8]"
"","","","","","html-button-response","140","380734","0.0-13.0","223","1","2022-10-12 09:48:02","d60b49b5908c80e163b920d72b52d584","218.66.79.46","Mozilla/5.0 (Windows NT 10.0; WOW64) AppleWebKit/537.36 (KHTML, like Gecko) Chrome/92.0.4515.131 Safari/537.36 SLBrowser/8.0.0.9231 SLBChan/105","WebKit","Chrome","92.0.4515.131","Windows","10.0","1341","<p><strong>请判断你在多大程度上同意下列陈述。</strong></p>","0",""
"","","","","","survey-likert","141","445402","0.0-14.0","223","1","2022-10-12 09:48:02","d60b49b5908c80e163b920d72b52d584","218.66.79.46","Mozilla/5.0 (Windows NT 10.0; WOW64) AppleWebKit/537.36 (KHTML, like Gecko) Chrome/92.0.4515.131 Safari/537.36 SLBrowser/8.0.0.9231 SLBChan/105","WebKit","Chrome","92.0.4515.131","Windows","10.0","64662","","{""scale25"":3,""scale10"":3,""scale17"":2,""scale15"":2,""scale22"":3,""scale6"":3,""scale21"":3,""scale12"":1,""scale27"":1,""scale28"":3,""scale23"":4,""scale7"":0,""scale3"":2,""scale19"":2,""scale4"":2,""scale1"":4,""scale18"":1,""scale2"":3,""scale16"":3,""scale14"":1,""scale9"":4,""scale11"":3,""scale24"":1,""scale20"":3,""scale8"":4,""scale13"":0,""scale5"":3,""scale26"":4}","[24,9,16,14,21,5,20,11,26,27,22,6,2,18,3,0,17,1,15,13,8,10,23,19,7,12,4,25]"
"","","","","","html-button-response","142","446771","0.0-15.0","223","1","2022-10-12 09:48:02","d60b49b5908c80e163b920d72b52d584","218.66.79.46","Mozilla/5.0 (Windows NT 10.0; WOW64) AppleWebKit/537.36 (KHTML, like Gecko) Chrome/92.0.4515.131 Safari/537.36 SLBrowser/8.0.0.9231 SLBChan/105","WebKit","Chrome","92.0.4515.131","Windows","10.0","1361","<p><strong>请判断你在多大程度上同意下列陈述。</strong></p>","0",""
"","","","","","survey-likert","143","501323","0.0-16.0","223","1","2022-10-12 09:48:02","d60b49b5908c80e163b920d72b52d584","218.66.79.46","Mozilla/5.0 (Windows NT 10.0; WOW64) AppleWebKit/537.36 (KHTML, like Gecko) Chrome/92.0.4515.131 Safari/537.36 SLBrowser/8.0.0.9231 SLBChan/105","WebKit","Chrome","92.0.4515.131","Windows","10.0","54546","","{""sdo9"":5,""sdo8"":1,""sdo1"":0,""sdo2"":1,""sdo14"":5,""sdo15"":5,""sdo7"":1,""sdo3"":2,""sdo11"":6,""sdo6"":3,""sdo5"":3,""sdo10"":5,""sdo16"":6,""sdo13"":6,""sdo4"":1,""sdo12"":6}","[8,7,0,1,13,14,6,2,10,5,4,9,15,12,3,11]"
"","","","","","html-button-response","144","502395","0.0-17.0","223","1","2022-10-12 09:48:02","d60b49b5908c80e163b920d72b52d584","218.66.79.46","Mozilla/5.0 (Windows NT 10.0; WOW64) AppleWebKit/537.36 (KHTML, like Gecko) Chrome/92.0.4515.131 Safari/537.36 SLBrowser/8.0.0.9231 SLBChan/105","WebKit","Chrome","92.0.4515.131","Windows","10.0","1066","<p><strong>请判断你在多大程度上同意下列陈述。</strong></p>","0",""
"","","","","","survey-likert","145","561351","0.0-18.0","223","1","2022-10-12 09:48:02","d60b49b5908c80e163b920d72b52d584","218.66.79.46","Mozilla/5.0 (Windows NT 10.0; WOW64) AppleWebKit/537.36 (KHTML, like Gecko) Chrome/92.0.4515.131 Safari/537.36 SLBrowser/8.0.0.9231 SLBChan/105","WebKit","Chrome","92.0.4515.131","Windows","10.0","58951","","{""caring1"":4,""liking1"":1,""caring2"":3,""protection1"":4,""liking2"":1,""caring3"":3,""protection2"":2,""liking3"":1,""protection3"":3,""caring4"":4,""liking4"":0,""protection4"":3,""caring5"":3,""liking5"":3,""protection5"":3}","[0,1,2,3,4,5,6,7,8,9,10,11,12,13,14]"
"","","","","","html-button-response","146","563556","0.0-19.0","223","1","2022-10-12 09:48:02","d60b49b5908c80e163b920d72b52d584","218.66.79.46","Mozilla/5.0 (Windows NT 10.0; WOW64) AppleWebKit/537.36 (KHTML, like Gecko) Chrome/92.0.4515.131 Safari/537.36 SLBrowser/8.0.0.9231 SLBChan/105","WebKit","Chrome","92.0.4515.131","Windows","10.0","2198","<p><strong>请判断下列场景中你的内心感受有多柔软。</strong></p>","0",""
"","","","","","survey-likert","147","587609","0.0-20.0","223","1","2022-10-12 09:48:02","d60b49b5908c80e163b920d72b52d584","218.66.79.46","Mozilla/5.0 (Windows NT 10.0; WOW64) AppleWebKit/537.36 (KHTML, like Gecko) Chrome/92.0.4515.131 Safari/537.36 SLBrowser/8.0.0.9231 SLBChan/105","WebKit","Chrome","92.0.4515.131","Windows","10.0","24049","","{""tenderness-positive1"":4,""tenderness-negative1"":2,""tenderness-negative2"":1,""tenderness-positive2"":3,""tenderness-positive3"":4,""tenderness-negative3"":1,""tenderness-positive4"":4,""tendereness-negative4"":3,""tendernness-negative5"":2,""tenderness-positive5"":4}","[0,1,2,3,4,5,6,7,8,9]"
"","","","","","survey-multi-choice","148","603419","0.0-21.0","223","1","2022-10-12 09:48:02","d60b49b5908c80e163b920d72b52d584","218.66.79.46","Mozilla/5.0 (Windows NT 10.0; WOW64) AppleWebKit/537.36 (KHTML, like Gecko) Chrome/92.0.4515.131 Safari/537.36 SLBrowser/8.0.0.9231 SLBChan/105","WebKit","Chrome","92.0.4515.131","Windows","10.0","15803","","{""Attention2"":""其他""}","[0]"
"","","","","","html-button-response","149","604425","0.0-22.0","223","1","2022-10-12 09:48:02","d60b49b5908c80e163b920d72b52d584","218.66.79.46","Mozilla/5.0 (Windows NT 10.0; WOW64) AppleWebKit/537.36 (KHTML, like Gecko) Chrome/92.0.4515.131 Safari/537.36 SLBrowser/8.0.0.9231 SLBChan/105","WebKit","Chrome","92.0.4515.131","Windows","10.0","1000","<p><strong>请判断你在多大程度上同意下列陈述。</strong></p>","0",""
"","","","","","survey-likert","150","646613","0.0-23.0","223","1","2022-10-12 09:48:02","d60b49b5908c80e163b920d72b52d584","218.66.79.46","Mozilla/5.0 (Windows NT 10.0; WOW64) AppleWebKit/537.36 (KHTML, like Gecko) Chrome/92.0.4515.131 Safari/537.36 SLBrowser/8.0.0.9231 SLBChan/105","WebKit","Chrome","92.0.4515.131","Windows","10.0","42181","","{""Patri10"":0,""Patri6"":0,""Patri1"":4,""Patri9"":1,""Patri8"":4,""Nation8"":1,""Patri4"":3,""Patri7"":4,""Patri5"":3,""Nation7"":3,""Patri12"":1,""Nation5"":3,""Patri3"":3,""Nation3"":4,""Patri2"":4,""Nation1"":3,""Patri11"":0,""Nation2"":4,""Nation4"":3,""Nation6"":4}","[9,5,0,8,7,19,3,6,4,18,11,16,2,14,1,12,10,13,15,17]"
"","","","","","html-button-response","151","647599","0.0-24.0","223","1","2022-10-12 09:48:02","d60b49b5908c80e163b920d72b52d584","218.66.79.46","Mozilla/5.0 (Windows NT 10.0; WOW64) AppleWebKit/537.36 (KHTML, like Gecko) Chrome/92.0.4515.131 Safari/537.36 SLBrowser/8.0.0.9231 SLBChan/105","WebKit","Chrome","92.0.4515.131","Windows","10.0","979","<p><strong>请判断你在多大程度上同意下列陈述。</strong></p>","0",""
"","","","","","survey-likert","152","693105","0.0-25.0","223","1","2022-10-12 09:48:02","d60b49b5908c80e163b920d72b52d584","218.66.79.46","Mozilla/5.0 (Windows NT 10.0; WOW64) AppleWebKit/537.36 (KHTML, like Gecko) Chrome/92.0.4515.131 Safari/537.36 SLBrowser/8.0.0.9231 SLBChan/105","WebKit","Chrome","92.0.4515.131","Windows","10.0","45499","","{""hc1"":7,""vi4"":1,""hc2"":8,""hc4"":7,""vi1"":5,""vi3"":7,""vc3"":5,""vc1"":8,""hc3"":8,""vc4"":6,""vi2"":6,""vc2"":6,""hi2"":5,""Robot"":6,""hi4"":7,""hi3"":6,""hi1"":7}","[9,8,10,12,4,6,15,13,11,16,5,14,1,7,3,2,0]"
"","","","","","survey-text","153","710321","0.0-26.0","223","1","2022-10-12 09:48:02","d60b49b5908c80e163b920d72b52d584","218.66.79.46","Mozilla/5.0 (Windows NT 10.0; WOW64) AppleWebKit/537.36 (KHTML, like Gecko) Chrome/92.0.4515.131 Safari/537.36 SLBrowser/8.0.0.9231 SLBChan/105","WebKit","Chrome","92.0.4515.131","Windows","10.0","17204","","{""Comments"":""实验很有趣，让我受益匪浅""}",""
"","","","","","html-button-response","154","713474","0.0-27.0","223","1","2022-10-12 09:48:02","d60b49b5908c80e163b920d72b52d584","218.66.79.46","Mozilla/5.0 (Windows NT 10.0; WOW64) AppleWebKit/537.36 (KHTML, like Gecko) Chrome/92.0.4515.131 Safari/537.36 SLBrowser/8.0.0.9231 SLBChan/105","WebKit","Chrome","92.0.4515.131","Windows","10.0","3149","<strong><p>恭喜你完成了实验！</p><p>感谢您的参与。</p></strong>","0",""
