"success","timeout","failed_images","failed_audio","failed_video","trial_type","trial_index","time_elapsed","internal_node_id","run_id","condition","recorded_at","source_code_version","ip","user_agent","device","browser","browser_version","platform","platform_version","rt","stimulus","response","question_order"
"true","false","[]","[]","[]","preload","0","1489","0.0-0.0","240","1","2022-10-12 11:33:01","d60b49b5908c80e163b920d72b52d584","223.79.240.212","Mozilla/5.0 (Windows NT 10.0; Win64; x64) AppleWebKit/537.36 (KHTML, like Gecko) Chrome/103.0.5060.114 Safari/537.36 Edg/103.0.1264.49","WebKit","Edge","103.0.1264.49","Windows","10.0","","","",""
"true","","","","","fullscreen","1","6824","0.0-1.0","240","1","2022-10-12 11:33:01","d60b49b5908c80e163b920d72b52d584","223.79.240.212","Mozilla/5.0 (Windows NT 10.0; Win64; x64) AppleWebKit/537.36 (KHTML, like Gecko) Chrome/103.0.5060.114 Safari/537.36 Edg/103.0.1264.49","WebKit","Edge","103.0.1264.49","Windows","10.0","","","",""
"","","","","","html-button-response","2","17923","0.0-2.0","240","1","2022-10-12 11:33:01","d60b49b5908c80e163b920d72b52d584","223.79.240.212","Mozilla/5.0 (Windows NT 10.0; Win64; x64) AppleWebKit/537.36 (KHTML, like Gecko) Chrome/103.0.5060.114 Safari/537.36 Edg/103.0.1264.49","WebKit","Edge","103.0.1264.49","Windows","10.0","11098","<p style=""font-size:20px;font-weight:bold;"">实验知情同意书</p><p style=""text-align:left;""><strong>实验名称：</strong>社会冲突研究</p><p style=""text-align:left;""><strong>主要研究者：</strong>韩晓春副教授（北京师范大学心理学部）</p><p style=""text-align:left;""><strong>联系方式：</strong>发送邮件至xiaochun.han@bnu.edu.cn</p><p style=""text-align:left;""><strong>研究目的：</strong>研究旨在了解人类面对群体冲突时的决策方式，以及相关的心理学特质。实验调查大约需要20分钟。</p><p style=""text-align:left;""><strong>实验流程：</strong>实验包含两部分。第一部分呈现一系列群体冲突场景，请你决定如何对这些冲突进行反应，大约需要10分钟完成。第二部分包含一系列人口统计学信息收集和心理学问卷，大约需要10分钟完成。</p><p style=""text-align:left;""><strong>参加及退出规则：</strong>参加本实验完全取决于您的个人意愿。在参与过程中，您可以随时退出，并且不用承担任何后果。</p><p style=""text-align:left;""><strong>隐私：</strong>本实验完全匿名进行，不会收集您的姓名或其他能够识别您身份的信息。实验中收集的作答仅用作科学研究使用，可能会在学术期刊/书籍上发表，或者用于教学，您的数据未来可能会和其他研究者或实验室分享，但您的个人身份不会被识别。</p><p style=""text-align:left;""><strong>实验报酬：</strong>实验完成后，您将获得15元人民币报酬，以感谢您的时间和努力。调查问卷中包含几道题目用以测验您作答时的认真度。只有完成全部实验，并且正确回答认真度测验的被试才能获得实验报酬。实验报酬将通过支付宝转账发放。</p><p style=""text-align:left;font-size:20px;""><strong>如果您同意以上实验知情同意书的内容，请点击'同意并且开始实验'按钮；否则请关闭浏览器界面，退出实验。</strong></p>","0",""
"","","","","","html-button-response","3","91653","0.0-3.0","240","1","2022-10-12 11:33:01","d60b49b5908c80e163b920d72b52d584","223.79.240.212","Mozilla/5.0 (Windows NT 10.0; Win64; x64) AppleWebKit/537.36 (KHTML, like Gecko) Chrome/103.0.5060.114 Safari/537.36 Edg/103.0.1264.49","WebKit","Edge","103.0.1264.49","Windows","10.0","73729","<p ><strong>实验任务一：</strong></p><p>请想象你的国家与另一个国家发生了军事冲突。</p><p>你是国家军队的指挥官，你将如何在冲突中进行决策。</p><p>具体来说，作为军队指挥官，请你决定是否发射导弹进行打击。</p><p>接下来，你会面对一系列场景，请仔细阅读每个场景，然后进行决策。</p><p>这部分实验任务大约需要10分钟。</p><p><strong>实验过程中，请集中注意力。</strong></p>","0",""
"","","","","","html-keyboard-response","4","92663","0.0-4.0-0.0","240","1","2022-10-12 11:33:01","d60b49b5908c80e163b920d72b52d584","223.79.240.212","Mozilla/5.0 (Windows NT 10.0; Win64; x64) AppleWebKit/537.36 (KHTML, like Gecko) Chrome/103.0.5060.114 Safari/537.36 Edg/103.0.1264.49","WebKit","Edge","103.0.1264.49","Windows","10.0","null","<div style=""font-size:60px;"">+</div>","null",""
"","","","","","html-button-response","5","107692","0.0-4.0-1.0","240","1","2022-10-12 11:33:01","d60b49b5908c80e163b920d72b52d584","223.79.240.212","Mozilla/5.0 (Windows NT 10.0; Win64; x64) AppleWebKit/537.36 (KHTML, like Gecko) Chrome/103.0.5060.114 Safari/537.36 Edg/103.0.1264.49","WebKit","Edge","103.0.1264.49","Windows","10.0","15025","<p>作为军队的指挥官，你可以选择发射导弹杀死 <strong>1名</strong> 敌国士兵，但会误杀附近的 <strong>1名</strong> 敌国平民。</p> <p>平民照片如下图所示。</p> <p></p> <img src='stimuli/faces/NCF6.jpg', style='max-width: 30%;'> </img> <p><strong>你是否选择发射武器？</strong></p>","1",""
"","","","","","html-keyboard-response","6","108704","0.0-4.0-0.1","240","1","2022-10-12 11:33:01","d60b49b5908c80e163b920d72b52d584","223.79.240.212","Mozilla/5.0 (Windows NT 10.0; Win64; x64) AppleWebKit/537.36 (KHTML, like Gecko) Chrome/103.0.5060.114 Safari/537.36 Edg/103.0.1264.49","WebKit","Edge","103.0.1264.49","Windows","10.0","null","<div style=""font-size:60px;"">+</div>","null",""
"","","","","","html-button-response","7","112347","0.0-4.0-1.1","240","1","2022-10-12 11:33:01","d60b49b5908c80e163b920d72b52d584","223.79.240.212","Mozilla/5.0 (Windows NT 10.0; Win64; x64) AppleWebKit/537.36 (KHTML, like Gecko) Chrome/103.0.5060.114 Safari/537.36 Edg/103.0.1264.49","WebKit","Edge","103.0.1264.49","Windows","10.0","3641","<p>作为军队的指挥官，你可以选择发射导弹杀死 <strong>2名</strong> 敌国士兵，但会误杀附近的 <strong>1名</strong> 敌国平民。</p> <p>平民照片如下图所示。</p> <p></p> <img src='stimuli/faces/NCF4.jpg', style='max-width: 30%;'> </img> <p><strong>你是否选择发射武器？</strong></p>","1",""
"","","","","","html-keyboard-response","8","113350","0.0-4.0-0.2","240","1","2022-10-12 11:33:01","d60b49b5908c80e163b920d72b52d584","223.79.240.212","Mozilla/5.0 (Windows NT 10.0; Win64; x64) AppleWebKit/537.36 (KHTML, like Gecko) Chrome/103.0.5060.114 Safari/537.36 Edg/103.0.1264.49","WebKit","Edge","103.0.1264.49","Windows","10.0","null","<div style=""font-size:60px;"">+</div>","null",""
"","","","","","html-button-response","9","117309","0.0-4.0-1.2","240","1","2022-10-12 11:33:01","d60b49b5908c80e163b920d72b52d584","223.79.240.212","Mozilla/5.0 (Windows NT 10.0; Win64; x64) AppleWebKit/537.36 (KHTML, like Gecko) Chrome/103.0.5060.114 Safari/537.36 Edg/103.0.1264.49","WebKit","Edge","103.0.1264.49","Windows","10.0","3957","<p>作为军队的指挥官，你可以选择发射导弹杀死 <strong>4名</strong> 敌国士兵，但会炸毁附近的 <strong>1棵</strong> 敌国树木。</p> <p>树木的照片如下图所示。</p> <p></p> <img src='stimuli/trees/14.png', style='max-width: 30%;'> </img> <p><strong>你是否选择发射武器？</strong></p>","0",""
"","","","","","html-keyboard-response","10","118320","0.0-4.0-0.3","240","1","2022-10-12 11:33:01","d60b49b5908c80e163b920d72b52d584","223.79.240.212","Mozilla/5.0 (Windows NT 10.0; Win64; x64) AppleWebKit/537.36 (KHTML, like Gecko) Chrome/103.0.5060.114 Safari/537.36 Edg/103.0.1264.49","WebKit","Edge","103.0.1264.49","Windows","10.0","null","<div style=""font-size:60px;"">+</div>","null",""
"","","","","","html-button-response","11","121876","0.0-4.0-1.3","240","1","2022-10-12 11:33:01","d60b49b5908c80e163b920d72b52d584","223.79.240.212","Mozilla/5.0 (Windows NT 10.0; Win64; x64) AppleWebKit/537.36 (KHTML, like Gecko) Chrome/103.0.5060.114 Safari/537.36 Edg/103.0.1264.49","WebKit","Edge","103.0.1264.49","Windows","10.0","3554","<p>作为军队的指挥官，你可以选择发射导弹杀死 <strong>5名</strong> 敌国士兵，但会误杀附近的 <strong>1名</strong> 敌国平民。</p> <p>平民照片如下图所示。</p> <p></p> <img src='stimuli/faces/NCF5.jpg', style='max-width: 30%;'> </img> <p><strong>你是否选择发射武器？</strong></p>","1",""
"","","","","","html-keyboard-response","12","122885","0.0-4.0-0.4","240","1","2022-10-12 11:33:01","d60b49b5908c80e163b920d72b52d584","223.79.240.212","Mozilla/5.0 (Windows NT 10.0; Win64; x64) AppleWebKit/537.36 (KHTML, like Gecko) Chrome/103.0.5060.114 Safari/537.36 Edg/103.0.1264.49","WebKit","Edge","103.0.1264.49","Windows","10.0","null","<div style=""font-size:60px;"">+</div>","null",""
"","","","","","html-button-response","13","124142","0.0-4.0-1.4","240","1","2022-10-12 11:33:01","d60b49b5908c80e163b920d72b52d584","223.79.240.212","Mozilla/5.0 (Windows NT 10.0; Win64; x64) AppleWebKit/537.36 (KHTML, like Gecko) Chrome/103.0.5060.114 Safari/537.36 Edg/103.0.1264.49","WebKit","Edge","103.0.1264.49","Windows","10.0","1255","<p>作为军队的指挥官，你可以选择发射导弹杀死 <strong>9名</strong> 敌国士兵，但会误杀附近的 <strong>1名</strong> 敌国平民。</p> <p>平民照片如下图所示。</p> <p></p> <img src='stimuli/faces/NCF5.jpg', style='max-width: 30%;'> </img> <p><strong>你是否选择发射武器？</strong></p>","1",""
"","","","","","html-keyboard-response","14","125156","0.0-4.0-0.5","240","1","2022-10-12 11:33:01","d60b49b5908c80e163b920d72b52d584","223.79.240.212","Mozilla/5.0 (Windows NT 10.0; Win64; x64) AppleWebKit/537.36 (KHTML, like Gecko) Chrome/103.0.5060.114 Safari/537.36 Edg/103.0.1264.49","WebKit","Edge","103.0.1264.49","Windows","10.0","null","<div style=""font-size:60px;"">+</div>","null",""
"","","","","","html-button-response","15","127284","0.0-4.0-1.5","240","1","2022-10-12 11:33:01","d60b49b5908c80e163b920d72b52d584","223.79.240.212","Mozilla/5.0 (Windows NT 10.0; Win64; x64) AppleWebKit/537.36 (KHTML, like Gecko) Chrome/103.0.5060.114 Safari/537.36 Edg/103.0.1264.49","WebKit","Edge","103.0.1264.49","Windows","10.0","2127","<p>作为军队的指挥官，你可以选择发射导弹杀死 <strong>9名</strong> 敌国士兵，但会误杀附近的 <strong>1名</strong> 敌国平民。</p> <p>平民照片如下图所示。</p> <p></p> <img src='stimuli/faces/NCF8.jpg', style='max-width: 30%;'> </img> <p><strong>你是否选择发射武器？</strong></p>","1",""
"","","","","","html-keyboard-response","16","128298","0.0-4.0-0.6","240","1","2022-10-12 11:33:01","d60b49b5908c80e163b920d72b52d584","223.79.240.212","Mozilla/5.0 (Windows NT 10.0; Win64; x64) AppleWebKit/537.36 (KHTML, like Gecko) Chrome/103.0.5060.114 Safari/537.36 Edg/103.0.1264.49","WebKit","Edge","103.0.1264.49","Windows","10.0","null","<div style=""font-size:60px;"">+</div>","null",""
"","","","","","html-button-response","17","130119","0.0-4.0-1.6","240","1","2022-10-12 11:33:01","d60b49b5908c80e163b920d72b52d584","223.79.240.212","Mozilla/5.0 (Windows NT 10.0; Win64; x64) AppleWebKit/537.36 (KHTML, like Gecko) Chrome/103.0.5060.114 Safari/537.36 Edg/103.0.1264.49","WebKit","Edge","103.0.1264.49","Windows","10.0","1819","<p>作为军队的指挥官，你可以选择发射导弹杀死 <strong>2名</strong> 敌国士兵，但会炸毁附近的 <strong>1棵</strong> 敌国树木。</p> <p>树木的照片如下图所示。</p> <p></p> <img src='stimuli/trees/16.png', style='max-width: 30%;'> </img> <p><strong>你是否选择发射武器？</strong></p>","0",""
"","","","","","html-keyboard-response","18","131125","0.0-4.0-0.7","240","1","2022-10-12 11:33:01","d60b49b5908c80e163b920d72b52d584","223.79.240.212","Mozilla/5.0 (Windows NT 10.0; Win64; x64) AppleWebKit/537.36 (KHTML, like Gecko) Chrome/103.0.5060.114 Safari/537.36 Edg/103.0.1264.49","WebKit","Edge","103.0.1264.49","Windows","10.0","null","<div style=""font-size:60px;"">+</div>","null",""
"","","","","","html-button-response","19","132700","0.0-4.0-1.7","240","1","2022-10-12 11:33:01","d60b49b5908c80e163b920d72b52d584","223.79.240.212","Mozilla/5.0 (Windows NT 10.0; Win64; x64) AppleWebKit/537.36 (KHTML, like Gecko) Chrome/103.0.5060.114 Safari/537.36 Edg/103.0.1264.49","WebKit","Edge","103.0.1264.49","Windows","10.0","1574","<p>作为军队的指挥官，你可以选择发射导弹杀死 <strong>4名</strong> 敌国士兵，但会误杀附近的 <strong>1名</strong> 敌国平民。</p> <p>平民照片如下图所示。</p> <p></p> <img src='stimuli/faces/NCM3.jpg', style='max-width: 30%;'> </img> <p><strong>你是否选择发射武器？</strong></p>","1",""
"","","","","","html-keyboard-response","20","133708","0.0-4.0-0.8","240","1","2022-10-12 11:33:01","d60b49b5908c80e163b920d72b52d584","223.79.240.212","Mozilla/5.0 (Windows NT 10.0; Win64; x64) AppleWebKit/537.36 (KHTML, like Gecko) Chrome/103.0.5060.114 Safari/537.36 Edg/103.0.1264.49","WebKit","Edge","103.0.1264.49","Windows","10.0","null","<div style=""font-size:60px;"">+</div>","null",""
"","","","","","html-button-response","21","134923","0.0-4.0-1.8","240","1","2022-10-12 11:33:01","d60b49b5908c80e163b920d72b52d584","223.79.240.212","Mozilla/5.0 (Windows NT 10.0; Win64; x64) AppleWebKit/537.36 (KHTML, like Gecko) Chrome/103.0.5060.114 Safari/537.36 Edg/103.0.1264.49","WebKit","Edge","103.0.1264.49","Windows","10.0","1213","<p>作为军队的指挥官，你可以选择发射导弹杀死 <strong>7名</strong> 敌国士兵，但会炸毁附近的 <strong>1棵</strong> 敌国树木。</p> <p>树木的照片如下图所示。</p> <p></p> <img src='stimuli/trees/7.png', style='max-width: 30%;'> </img> <p><strong>你是否选择发射武器？</strong></p>","0",""
"","","","","","html-keyboard-response","22","135937","0.0-4.0-0.9","240","1","2022-10-12 11:33:01","d60b49b5908c80e163b920d72b52d584","223.79.240.212","Mozilla/5.0 (Windows NT 10.0; Win64; x64) AppleWebKit/537.36 (KHTML, like Gecko) Chrome/103.0.5060.114 Safari/537.36 Edg/103.0.1264.49","WebKit","Edge","103.0.1264.49","Windows","10.0","null","<div style=""font-size:60px;"">+</div>","null",""
"","","","","","html-button-response","23","137478","0.0-4.0-1.9","240","1","2022-10-12 11:33:01","d60b49b5908c80e163b920d72b52d584","223.79.240.212","Mozilla/5.0 (Windows NT 10.0; Win64; x64) AppleWebKit/537.36 (KHTML, like Gecko) Chrome/103.0.5060.114 Safari/537.36 Edg/103.0.1264.49","WebKit","Edge","103.0.1264.49","Windows","10.0","1539","<p>作为军队的指挥官，你可以选择发射导弹杀死 <strong>4名</strong> 敌国士兵，但会误杀附近的 <strong>1名</strong> 敌国平民。</p> <p>平民照片如下图所示。</p> <p></p> <img src='stimuli/faces/NCM1.jpg', style='max-width: 30%;'> </img> <p><strong>你是否选择发射武器？</strong></p>","1",""
"","","","","","html-keyboard-response","24","138485","0.0-4.0-0.10","240","1","2022-10-12 11:33:01","d60b49b5908c80e163b920d72b52d584","223.79.240.212","Mozilla/5.0 (Windows NT 10.0; Win64; x64) AppleWebKit/537.36 (KHTML, like Gecko) Chrome/103.0.5060.114 Safari/537.36 Edg/103.0.1264.49","WebKit","Edge","103.0.1264.49","Windows","10.0","null","<div style=""font-size:60px;"">+</div>","null",""
"","","","","","html-button-response","25","139403","0.0-4.0-1.10","240","1","2022-10-12 11:33:01","d60b49b5908c80e163b920d72b52d584","223.79.240.212","Mozilla/5.0 (Windows NT 10.0; Win64; x64) AppleWebKit/537.36 (KHTML, like Gecko) Chrome/103.0.5060.114 Safari/537.36 Edg/103.0.1264.49","WebKit","Edge","103.0.1264.49","Windows","10.0","915","<p>作为军队的指挥官，你可以选择发射导弹杀死 <strong>7名</strong> 敌国士兵，但会误杀附近的 <strong>1名</strong> 敌国平民。</p> <p>平民照片如下图所示。</p> <p></p> <img src='stimuli/faces/NCF6.jpg', style='max-width: 30%;'> </img> <p><strong>你是否选择发射武器？</strong></p>","1",""
"","","","","","html-keyboard-response","26","140418","0.0-4.0-0.11","240","1","2022-10-12 11:33:01","d60b49b5908c80e163b920d72b52d584","223.79.240.212","Mozilla/5.0 (Windows NT 10.0; Win64; x64) AppleWebKit/537.36 (KHTML, like Gecko) Chrome/103.0.5060.114 Safari/537.36 Edg/103.0.1264.49","WebKit","Edge","103.0.1264.49","Windows","10.0","null","<div style=""font-size:60px;"">+</div>","null",""
"","","","","","html-button-response","27","145983","0.0-4.0-1.11","240","1","2022-10-12 11:33:01","d60b49b5908c80e163b920d72b52d584","223.79.240.212","Mozilla/5.0 (Windows NT 10.0; Win64; x64) AppleWebKit/537.36 (KHTML, like Gecko) Chrome/103.0.5060.114 Safari/537.36 Edg/103.0.1264.49","WebKit","Edge","103.0.1264.49","Windows","10.0","5563","<p>作为军队的指挥官，你可以选择发射导弹杀死 <strong>10名</strong> 敌国士兵，但会炸毁附近的 <strong>1棵</strong> 敌国树木。</p> <p>树木的照片如下图所示。</p> <p></p> <img src='stimuli/trees/8.png', style='max-width: 30%;'> </img> <p><strong>你是否选择发射武器？</strong></p>","0",""
"","","","","","html-keyboard-response","28","146990","0.0-4.0-0.12","240","1","2022-10-12 11:33:01","d60b49b5908c80e163b920d72b52d584","223.79.240.212","Mozilla/5.0 (Windows NT 10.0; Win64; x64) AppleWebKit/537.36 (KHTML, like Gecko) Chrome/103.0.5060.114 Safari/537.36 Edg/103.0.1264.49","WebKit","Edge","103.0.1264.49","Windows","10.0","null","<div style=""font-size:60px;"">+</div>","null",""
"","","","","","html-button-response","29","147977","0.0-4.0-1.12","240","1","2022-10-12 11:33:01","d60b49b5908c80e163b920d72b52d584","223.79.240.212","Mozilla/5.0 (Windows NT 10.0; Win64; x64) AppleWebKit/537.36 (KHTML, like Gecko) Chrome/103.0.5060.114 Safari/537.36 Edg/103.0.1264.49","WebKit","Edge","103.0.1264.49","Windows","10.0","985","<p>作为军队的指挥官，你可以选择发射导弹杀死 <strong>4名</strong> 敌国士兵，但会炸毁附近的 <strong>1棵</strong> 敌国树木。</p> <p>树木的照片如下图所示。</p> <p></p> <img src='stimuli/trees/4.png', style='max-width: 30%;'> </img> <p><strong>你是否选择发射武器？</strong></p>","0",""
"","","","","","html-keyboard-response","30","148989","0.0-4.0-0.13","240","1","2022-10-12 11:33:01","d60b49b5908c80e163b920d72b52d584","223.79.240.212","Mozilla/5.0 (Windows NT 10.0; Win64; x64) AppleWebKit/537.36 (KHTML, like Gecko) Chrome/103.0.5060.114 Safari/537.36 Edg/103.0.1264.49","WebKit","Edge","103.0.1264.49","Windows","10.0","null","<div style=""font-size:60px;"">+</div>","null",""
"","","","","","html-button-response","31","150323","0.0-4.0-1.13","240","1","2022-10-12 11:33:01","d60b49b5908c80e163b920d72b52d584","223.79.240.212","Mozilla/5.0 (Windows NT 10.0; Win64; x64) AppleWebKit/537.36 (KHTML, like Gecko) Chrome/103.0.5060.114 Safari/537.36 Edg/103.0.1264.49","WebKit","Edge","103.0.1264.49","Windows","10.0","1331","<p>作为军队的指挥官，你可以选择发射导弹杀死 <strong>1名</strong> 敌国士兵，但会炸毁附近的 <strong>1棵</strong> 敌国树木。</p> <p>树木的照片如下图所示。</p> <p></p> <img src='stimuli/trees/3.png', style='max-width: 30%;'> </img> <p><strong>你是否选择发射武器？</strong></p>","0",""
"","","","","","html-keyboard-response","32","151330","0.0-4.0-0.14","240","1","2022-10-12 11:33:01","d60b49b5908c80e163b920d72b52d584","223.79.240.212","Mozilla/5.0 (Windows NT 10.0; Win64; x64) AppleWebKit/537.36 (KHTML, like Gecko) Chrome/103.0.5060.114 Safari/537.36 Edg/103.0.1264.49","WebKit","Edge","103.0.1264.49","Windows","10.0","null","<div style=""font-size:60px;"">+</div>","null",""
"","","","","","html-button-response","33","152818","0.0-4.0-1.14","240","1","2022-10-12 11:33:01","d60b49b5908c80e163b920d72b52d584","223.79.240.212","Mozilla/5.0 (Windows NT 10.0; Win64; x64) AppleWebKit/537.36 (KHTML, like Gecko) Chrome/103.0.5060.114 Safari/537.36 Edg/103.0.1264.49","WebKit","Edge","103.0.1264.49","Windows","10.0","1485","<p>作为军队的指挥官，你可以选择发射导弹杀死 <strong>6名</strong> 敌国士兵，但会误杀附近的 <strong>1名</strong> 敌国平民。</p> <p>平民照片如下图所示。</p> <p></p> <img src='stimuli/faces/NCM4.jpg', style='max-width: 30%;'> </img> <p><strong>你是否选择发射武器？</strong></p>","1",""
"","","","","","html-keyboard-response","34","153835","0.0-4.0-0.15","240","1","2022-10-12 11:33:01","d60b49b5908c80e163b920d72b52d584","223.79.240.212","Mozilla/5.0 (Windows NT 10.0; Win64; x64) AppleWebKit/537.36 (KHTML, like Gecko) Chrome/103.0.5060.114 Safari/537.36 Edg/103.0.1264.49","WebKit","Edge","103.0.1264.49","Windows","10.0","null","<div style=""font-size:60px;"">+</div>","null",""
"","","","","","html-button-response","35","155538","0.0-4.0-1.15","240","1","2022-10-12 11:33:01","d60b49b5908c80e163b920d72b52d584","223.79.240.212","Mozilla/5.0 (Windows NT 10.0; Win64; x64) AppleWebKit/537.36 (KHTML, like Gecko) Chrome/103.0.5060.114 Safari/537.36 Edg/103.0.1264.49","WebKit","Edge","103.0.1264.49","Windows","10.0","1701","<p>作为军队的指挥官，你可以选择发射导弹杀死 <strong>3名</strong> 敌国士兵，但会炸毁附近的 <strong>1棵</strong> 敌国树木。</p> <p>树木的照片如下图所示。</p> <p></p> <img src='stimuli/trees/10.png', style='max-width: 30%;'> </img> <p><strong>你是否选择发射武器？</strong></p>","0",""
"","","","","","html-keyboard-response","36","156551","0.0-4.0-0.16","240","1","2022-10-12 11:33:01","d60b49b5908c80e163b920d72b52d584","223.79.240.212","Mozilla/5.0 (Windows NT 10.0; Win64; x64) AppleWebKit/537.36 (KHTML, like Gecko) Chrome/103.0.5060.114 Safari/537.36 Edg/103.0.1264.49","WebKit","Edge","103.0.1264.49","Windows","10.0","null","<div style=""font-size:60px;"">+</div>","null",""
"","","","","","html-button-response","37","162232","0.0-4.0-1.16","240","1","2022-10-12 11:33:01","d60b49b5908c80e163b920d72b52d584","223.79.240.212","Mozilla/5.0 (Windows NT 10.0; Win64; x64) AppleWebKit/537.36 (KHTML, like Gecko) Chrome/103.0.5060.114 Safari/537.36 Edg/103.0.1264.49","WebKit","Edge","103.0.1264.49","Windows","10.0","5679","<p>作为军队的指挥官，你可以选择发射导弹杀死 <strong>6名</strong> 敌国士兵，但会误杀附近的 <strong>1名</strong> 敌国平民。</p> <p>平民照片如下图所示。</p> <p></p> <img src='stimuli/faces/NCF2.jpg', style='max-width: 30%;'> </img> <p><strong>你是否选择发射武器？</strong></p>","1",""
"","","","","","html-keyboard-response","38","163251","0.0-4.0-0.17","240","1","2022-10-12 11:33:01","d60b49b5908c80e163b920d72b52d584","223.79.240.212","Mozilla/5.0 (Windows NT 10.0; Win64; x64) AppleWebKit/537.36 (KHTML, like Gecko) Chrome/103.0.5060.114 Safari/537.36 Edg/103.0.1264.49","WebKit","Edge","103.0.1264.49","Windows","10.0","null","<div style=""font-size:60px;"">+</div>","null",""
"","","","","","html-button-response","39","164218","0.0-4.0-1.17","240","1","2022-10-12 11:33:01","d60b49b5908c80e163b920d72b52d584","223.79.240.212","Mozilla/5.0 (Windows NT 10.0; Win64; x64) AppleWebKit/537.36 (KHTML, like Gecko) Chrome/103.0.5060.114 Safari/537.36 Edg/103.0.1264.49","WebKit","Edge","103.0.1264.49","Windows","10.0","965","<p>作为军队的指挥官，你可以选择发射导弹杀死 <strong>7名</strong> 敌国士兵，但会炸毁附近的 <strong>1棵</strong> 敌国树木。</p> <p>树木的照片如下图所示。</p> <p></p> <img src='stimuli/trees/10.png', style='max-width: 30%;'> </img> <p><strong>你是否选择发射武器？</strong></p>","0",""
"","","","","","html-keyboard-response","40","165225","0.0-4.0-0.18","240","1","2022-10-12 11:33:01","d60b49b5908c80e163b920d72b52d584","223.79.240.212","Mozilla/5.0 (Windows NT 10.0; Win64; x64) AppleWebKit/537.36 (KHTML, like Gecko) Chrome/103.0.5060.114 Safari/537.36 Edg/103.0.1264.49","WebKit","Edge","103.0.1264.49","Windows","10.0","null","<div style=""font-size:60px;"">+</div>","null",""
"","","","","","html-button-response","41","166389","0.0-4.0-1.18","240","1","2022-10-12 11:33:01","d60b49b5908c80e163b920d72b52d584","223.79.240.212","Mozilla/5.0 (Windows NT 10.0; Win64; x64) AppleWebKit/537.36 (KHTML, like Gecko) Chrome/103.0.5060.114 Safari/537.36 Edg/103.0.1264.49","WebKit","Edge","103.0.1264.49","Windows","10.0","1162","<p>作为军队的指挥官，你可以选择发射导弹杀死 <strong>8名</strong> 敌国士兵，但会炸毁附近的 <strong>1棵</strong> 敌国树木。</p> <p>树木的照片如下图所示。</p> <p></p> <img src='stimuli/trees/14.png', style='max-width: 30%;'> </img> <p><strong>你是否选择发射武器？</strong></p>","1",""
"","","","","","html-keyboard-response","42","167402","0.0-4.0-0.19","240","1","2022-10-12 11:33:01","d60b49b5908c80e163b920d72b52d584","223.79.240.212","Mozilla/5.0 (Windows NT 10.0; Win64; x64) AppleWebKit/537.36 (KHTML, like Gecko) Chrome/103.0.5060.114 Safari/537.36 Edg/103.0.1264.49","WebKit","Edge","103.0.1264.49","Windows","10.0","null","<div style=""font-size:60px;"">+</div>","null",""
"","","","","","html-button-response","43","168786","0.0-4.0-1.19","240","1","2022-10-12 11:33:01","d60b49b5908c80e163b920d72b52d584","223.79.240.212","Mozilla/5.0 (Windows NT 10.0; Win64; x64) AppleWebKit/537.36 (KHTML, like Gecko) Chrome/103.0.5060.114 Safari/537.36 Edg/103.0.1264.49","WebKit","Edge","103.0.1264.49","Windows","10.0","1382","<p>作为军队的指挥官，你可以选择发射导弹杀死 <strong>7名</strong> 敌国士兵，但会误杀附近的 <strong>1名</strong> 敌国平民。</p> <p>平民照片如下图所示。</p> <p></p> <img src='stimuli/faces/NCF1.jpg', style='max-width: 30%;'> </img> <p><strong>你是否选择发射武器？</strong></p>","1",""
"","","","","","html-keyboard-response","44","169801","0.0-4.0-0.20","240","1","2022-10-12 11:33:01","d60b49b5908c80e163b920d72b52d584","223.79.240.212","Mozilla/5.0 (Windows NT 10.0; Win64; x64) AppleWebKit/537.36 (KHTML, like Gecko) Chrome/103.0.5060.114 Safari/537.36 Edg/103.0.1264.49","WebKit","Edge","103.0.1264.49","Windows","10.0","null","<div style=""font-size:60px;"">+</div>","null",""
"","","","","","html-button-response","45","170772","0.0-4.0-1.20","240","1","2022-10-12 11:33:01","d60b49b5908c80e163b920d72b52d584","223.79.240.212","Mozilla/5.0 (Windows NT 10.0; Win64; x64) AppleWebKit/537.36 (KHTML, like Gecko) Chrome/103.0.5060.114 Safari/537.36 Edg/103.0.1264.49","WebKit","Edge","103.0.1264.49","Windows","10.0","968","<p>作为军队的指挥官，你可以选择发射导弹杀死 <strong>2名</strong> 敌国士兵，但会炸毁附近的 <strong>1棵</strong> 敌国树木。</p> <p>树木的照片如下图所示。</p> <p></p> <img src='stimuli/trees/13.png', style='max-width: 30%;'> </img> <p><strong>你是否选择发射武器？</strong></p>","0",""
"","","","","","html-keyboard-response","46","171785","0.0-4.0-0.21","240","1","2022-10-12 11:33:01","d60b49b5908c80e163b920d72b52d584","223.79.240.212","Mozilla/5.0 (Windows NT 10.0; Win64; x64) AppleWebKit/537.36 (KHTML, like Gecko) Chrome/103.0.5060.114 Safari/537.36 Edg/103.0.1264.49","WebKit","Edge","103.0.1264.49","Windows","10.0","null","<div style=""font-size:60px;"">+</div>","null",""
"","","","","","html-button-response","47","173108","0.0-4.0-1.21","240","1","2022-10-12 11:33:01","d60b49b5908c80e163b920d72b52d584","223.79.240.212","Mozilla/5.0 (Windows NT 10.0; Win64; x64) AppleWebKit/537.36 (KHTML, like Gecko) Chrome/103.0.5060.114 Safari/537.36 Edg/103.0.1264.49","WebKit","Edge","103.0.1264.49","Windows","10.0","1321","<p>作为军队的指挥官，你可以选择发射导弹杀死 <strong>8名</strong> 敌国士兵，但会误杀附近的 <strong>1名</strong> 敌国平民。</p> <p>平民照片如下图所示。</p> <p></p> <img src='stimuli/faces/NCF3.jpg', style='max-width: 30%;'> </img> <p><strong>你是否选择发射武器？</strong></p>","1",""
"","","","","","html-keyboard-response","48","174118","0.0-4.0-0.22","240","1","2022-10-12 11:33:01","d60b49b5908c80e163b920d72b52d584","223.79.240.212","Mozilla/5.0 (Windows NT 10.0; Win64; x64) AppleWebKit/537.36 (KHTML, like Gecko) Chrome/103.0.5060.114 Safari/537.36 Edg/103.0.1264.49","WebKit","Edge","103.0.1264.49","Windows","10.0","null","<div style=""font-size:60px;"">+</div>","null",""
"","","","","","html-button-response","49","176127","0.0-4.0-1.22","240","1","2022-10-12 11:33:01","d60b49b5908c80e163b920d72b52d584","223.79.240.212","Mozilla/5.0 (Windows NT 10.0; Win64; x64) AppleWebKit/537.36 (KHTML, like Gecko) Chrome/103.0.5060.114 Safari/537.36 Edg/103.0.1264.49","WebKit","Edge","103.0.1264.49","Windows","10.0","2007","<p>作为军队的指挥官，你可以选择发射导弹杀死 <strong>9名</strong> 敌国士兵，但会炸毁附近的 <strong>1棵</strong> 敌国树木。</p> <p>树木的照片如下图所示。</p> <p></p> <img src='stimuli/trees/1.png', style='max-width: 30%;'> </img> <p><strong>你是否选择发射武器？</strong></p>","0",""
"","","","","","html-keyboard-response","50","177145","0.0-4.0-0.23","240","1","2022-10-12 11:33:01","d60b49b5908c80e163b920d72b52d584","223.79.240.212","Mozilla/5.0 (Windows NT 10.0; Win64; x64) AppleWebKit/537.36 (KHTML, like Gecko) Chrome/103.0.5060.114 Safari/537.36 Edg/103.0.1264.49","WebKit","Edge","103.0.1264.49","Windows","10.0","null","<div style=""font-size:60px;"">+</div>","null",""
"","","","","","html-button-response","51","178542","0.0-4.0-1.23","240","1","2022-10-12 11:33:01","d60b49b5908c80e163b920d72b52d584","223.79.240.212","Mozilla/5.0 (Windows NT 10.0; Win64; x64) AppleWebKit/537.36 (KHTML, like Gecko) Chrome/103.0.5060.114 Safari/537.36 Edg/103.0.1264.49","WebKit","Edge","103.0.1264.49","Windows","10.0","1395","<p>作为军队的指挥官，你可以选择发射导弹杀死 <strong>6名</strong> 敌国士兵，但会炸毁附近的 <strong>1棵</strong> 敌国树木。</p> <p>树木的照片如下图所示。</p> <p></p> <img src='stimuli/trees/6.png', style='max-width: 30%;'> </img> <p><strong>你是否选择发射武器？</strong></p>","0",""
"","","","","","html-keyboard-response","52","179554","0.0-4.0-0.24","240","1","2022-10-12 11:33:01","d60b49b5908c80e163b920d72b52d584","223.79.240.212","Mozilla/5.0 (Windows NT 10.0; Win64; x64) AppleWebKit/537.36 (KHTML, like Gecko) Chrome/103.0.5060.114 Safari/537.36 Edg/103.0.1264.49","WebKit","Edge","103.0.1264.49","Windows","10.0","null","<div style=""font-size:60px;"">+</div>","null",""
"","","","","","html-button-response","53","180222","0.0-4.0-1.24","240","1","2022-10-12 11:33:01","d60b49b5908c80e163b920d72b52d584","223.79.240.212","Mozilla/5.0 (Windows NT 10.0; Win64; x64) AppleWebKit/537.36 (KHTML, like Gecko) Chrome/103.0.5060.114 Safari/537.36 Edg/103.0.1264.49","WebKit","Edge","103.0.1264.49","Windows","10.0","665","<p>作为军队的指挥官，你可以选择发射导弹杀死 <strong>8名</strong> 敌国士兵，但会炸毁附近的 <strong>1棵</strong> 敌国树木。</p> <p>树木的照片如下图所示。</p> <p></p> <img src='stimuli/trees/9.png', style='max-width: 30%;'> </img> <p><strong>你是否选择发射武器？</strong></p>","0",""
"","","","","","html-keyboard-response","54","181237","0.0-4.0-0.25","240","1","2022-10-12 11:33:01","d60b49b5908c80e163b920d72b52d584","223.79.240.212","Mozilla/5.0 (Windows NT 10.0; Win64; x64) AppleWebKit/537.36 (KHTML, like Gecko) Chrome/103.0.5060.114 Safari/537.36 Edg/103.0.1264.49","WebKit","Edge","103.0.1264.49","Windows","10.0","null","<div style=""font-size:60px;"">+</div>","null",""
"","","","","","html-button-response","55","182007","0.0-4.0-1.25","240","1","2022-10-12 11:33:01","d60b49b5908c80e163b920d72b52d584","223.79.240.212","Mozilla/5.0 (Windows NT 10.0; Win64; x64) AppleWebKit/537.36 (KHTML, like Gecko) Chrome/103.0.5060.114 Safari/537.36 Edg/103.0.1264.49","WebKit","Edge","103.0.1264.49","Windows","10.0","767","<p>作为军队的指挥官，你可以选择发射导弹杀死 <strong>10名</strong> 敌国士兵，但会炸毁附近的 <strong>1棵</strong> 敌国树木。</p> <p>树木的照片如下图所示。</p> <p></p> <img src='stimuli/trees/12.png', style='max-width: 30%;'> </img> <p><strong>你是否选择发射武器？</strong></p>","0",""
"","","","","","html-keyboard-response","56","183017","0.0-4.0-0.26","240","1","2022-10-12 11:33:01","d60b49b5908c80e163b920d72b52d584","223.79.240.212","Mozilla/5.0 (Windows NT 10.0; Win64; x64) AppleWebKit/537.36 (KHTML, like Gecko) Chrome/103.0.5060.114 Safari/537.36 Edg/103.0.1264.49","WebKit","Edge","103.0.1264.49","Windows","10.0","null","<div style=""font-size:60px;"">+</div>","null",""
"","","","","","html-button-response","57","184142","0.0-4.0-1.26","240","1","2022-10-12 11:33:01","d60b49b5908c80e163b920d72b52d584","223.79.240.212","Mozilla/5.0 (Windows NT 10.0; Win64; x64) AppleWebKit/537.36 (KHTML, like Gecko) Chrome/103.0.5060.114 Safari/537.36 Edg/103.0.1264.49","WebKit","Edge","103.0.1264.49","Windows","10.0","1123","<p>作为军队的指挥官，你可以选择发射导弹杀死 <strong>9名</strong> 敌国士兵，但会误杀附近的 <strong>1名</strong> 敌国平民。</p> <p>平民照片如下图所示。</p> <p></p> <img src='stimuli/faces/NCF4.jpg', style='max-width: 30%;'> </img> <p><strong>你是否选择发射武器？</strong></p>","1",""
"","","","","","html-keyboard-response","58","185152","0.0-4.0-0.27","240","1","2022-10-12 11:33:01","d60b49b5908c80e163b920d72b52d584","223.79.240.212","Mozilla/5.0 (Windows NT 10.0; Win64; x64) AppleWebKit/537.36 (KHTML, like Gecko) Chrome/103.0.5060.114 Safari/537.36 Edg/103.0.1264.49","WebKit","Edge","103.0.1264.49","Windows","10.0","null","<div style=""font-size:60px;"">+</div>","null",""
"","","","","","html-button-response","59","186242","0.0-4.0-1.27","240","1","2022-10-12 11:33:01","d60b49b5908c80e163b920d72b52d584","223.79.240.212","Mozilla/5.0 (Windows NT 10.0; Win64; x64) AppleWebKit/537.36 (KHTML, like Gecko) Chrome/103.0.5060.114 Safari/537.36 Edg/103.0.1264.49","WebKit","Edge","103.0.1264.49","Windows","10.0","1088","<p>作为军队的指挥官，你可以选择发射导弹杀死 <strong>8名</strong> 敌国士兵，但会炸毁附近的 <strong>1棵</strong> 敌国树木。</p> <p>树木的照片如下图所示。</p> <p></p> <img src='stimuli/trees/4.png', style='max-width: 30%;'> </img> <p><strong>你是否选择发射武器？</strong></p>","1",""
"","","","","","html-keyboard-response","60","187245","0.0-4.0-0.28","240","1","2022-10-12 11:33:01","d60b49b5908c80e163b920d72b52d584","223.79.240.212","Mozilla/5.0 (Windows NT 10.0; Win64; x64) AppleWebKit/537.36 (KHTML, like Gecko) Chrome/103.0.5060.114 Safari/537.36 Edg/103.0.1264.49","WebKit","Edge","103.0.1264.49","Windows","10.0","null","<div style=""font-size:60px;"">+</div>","null",""
"","","","","","html-button-response","61","188141","0.0-4.0-1.28","240","1","2022-10-12 11:33:01","d60b49b5908c80e163b920d72b52d584","223.79.240.212","Mozilla/5.0 (Windows NT 10.0; Win64; x64) AppleWebKit/537.36 (KHTML, like Gecko) Chrome/103.0.5060.114 Safari/537.36 Edg/103.0.1264.49","WebKit","Edge","103.0.1264.49","Windows","10.0","894","<p>作为军队的指挥官，你可以选择发射导弹杀死 <strong>2名</strong> 敌国士兵，但会误杀附近的 <strong>1名</strong> 敌国平民。</p> <p>平民照片如下图所示。</p> <p></p> <img src='stimuli/faces/NCF1.jpg', style='max-width: 30%;'> </img> <p><strong>你是否选择发射武器？</strong></p>","1",""
"","","","","","html-keyboard-response","62","189151","0.0-4.0-0.29","240","1","2022-10-12 11:33:01","d60b49b5908c80e163b920d72b52d584","223.79.240.212","Mozilla/5.0 (Windows NT 10.0; Win64; x64) AppleWebKit/537.36 (KHTML, like Gecko) Chrome/103.0.5060.114 Safari/537.36 Edg/103.0.1264.49","WebKit","Edge","103.0.1264.49","Windows","10.0","null","<div style=""font-size:60px;"">+</div>","null",""
"","","","","","html-button-response","63","189891","0.0-4.0-1.29","240","1","2022-10-12 11:33:01","d60b49b5908c80e163b920d72b52d584","223.79.240.212","Mozilla/5.0 (Windows NT 10.0; Win64; x64) AppleWebKit/537.36 (KHTML, like Gecko) Chrome/103.0.5060.114 Safari/537.36 Edg/103.0.1264.49","WebKit","Edge","103.0.1264.49","Windows","10.0","738","<p>作为军队的指挥官，你可以选择发射导弹杀死 <strong>8名</strong> 敌国士兵，但会炸毁附近的 <strong>1棵</strong> 敌国树木。</p> <p>树木的照片如下图所示。</p> <p></p> <img src='stimuli/trees/16.png', style='max-width: 30%;'> </img> <p><strong>你是否选择发射武器？</strong></p>","0",""
"","","","","","html-keyboard-response","64","190900","0.0-4.0-0.30","240","1","2022-10-12 11:33:01","d60b49b5908c80e163b920d72b52d584","223.79.240.212","Mozilla/5.0 (Windows NT 10.0; Win64; x64) AppleWebKit/537.36 (KHTML, like Gecko) Chrome/103.0.5060.114 Safari/537.36 Edg/103.0.1264.49","WebKit","Edge","103.0.1264.49","Windows","10.0","null","<div style=""font-size:60px;"">+</div>","null",""
"","","","","","html-button-response","65","191413","0.0-4.0-1.30","240","1","2022-10-12 11:33:01","d60b49b5908c80e163b920d72b52d584","223.79.240.212","Mozilla/5.0 (Windows NT 10.0; Win64; x64) AppleWebKit/537.36 (KHTML, like Gecko) Chrome/103.0.5060.114 Safari/537.36 Edg/103.0.1264.49","WebKit","Edge","103.0.1264.49","Windows","10.0","511","<p>作为军队的指挥官，你可以选择发射导弹杀死 <strong>8名</strong> 敌国士兵，但会炸毁附近的 <strong>1棵</strong> 敌国树木。</p> <p>树木的照片如下图所示。</p> <p></p> <img src='stimuli/trees/3.png', style='max-width: 30%;'> </img> <p><strong>你是否选择发射武器？</strong></p>","0",""
"","","","","","html-keyboard-response","66","192418","0.0-4.0-0.31","240","1","2022-10-12 11:33:01","d60b49b5908c80e163b920d72b52d584","223.79.240.212","Mozilla/5.0 (Windows NT 10.0; Win64; x64) AppleWebKit/537.36 (KHTML, like Gecko) Chrome/103.0.5060.114 Safari/537.36 Edg/103.0.1264.49","WebKit","Edge","103.0.1264.49","Windows","10.0","null","<div style=""font-size:60px;"">+</div>","null",""
"","","","","","html-button-response","67","192962","0.0-4.0-1.31","240","1","2022-10-12 11:33:01","d60b49b5908c80e163b920d72b52d584","223.79.240.212","Mozilla/5.0 (Windows NT 10.0; Win64; x64) AppleWebKit/537.36 (KHTML, like Gecko) Chrome/103.0.5060.114 Safari/537.36 Edg/103.0.1264.49","WebKit","Edge","103.0.1264.49","Windows","10.0","541","<p>作为军队的指挥官，你可以选择发射导弹杀死 <strong>6名</strong> 敌国士兵，但会炸毁附近的 <strong>1棵</strong> 敌国树木。</p> <p>树木的照片如下图所示。</p> <p></p> <img src='stimuli/trees/11.png', style='max-width: 30%;'> </img> <p><strong>你是否选择发射武器？</strong></p>","0",""
"","","","","","html-keyboard-response","68","193969","0.0-4.0-0.32","240","1","2022-10-12 11:33:01","d60b49b5908c80e163b920d72b52d584","223.79.240.212","Mozilla/5.0 (Windows NT 10.0; Win64; x64) AppleWebKit/537.36 (KHTML, like Gecko) Chrome/103.0.5060.114 Safari/537.36 Edg/103.0.1264.49","WebKit","Edge","103.0.1264.49","Windows","10.0","null","<div style=""font-size:60px;"">+</div>","null",""
"","","","","","html-button-response","69","194966","0.0-4.0-1.32","240","1","2022-10-12 11:33:01","d60b49b5908c80e163b920d72b52d584","223.79.240.212","Mozilla/5.0 (Windows NT 10.0; Win64; x64) AppleWebKit/537.36 (KHTML, like Gecko) Chrome/103.0.5060.114 Safari/537.36 Edg/103.0.1264.49","WebKit","Edge","103.0.1264.49","Windows","10.0","994","<p>作为军队的指挥官，你可以选择发射导弹杀死 <strong>3名</strong> 敌国士兵，但会误杀附近的 <strong>1名</strong> 敌国平民。</p> <p>平民照片如下图所示。</p> <p></p> <img src='stimuli/faces/NCF2.jpg', style='max-width: 30%;'> </img> <p><strong>你是否选择发射武器？</strong></p>","1",""
"","","","","","html-keyboard-response","70","195969","0.0-4.0-0.33","240","1","2022-10-12 11:33:01","d60b49b5908c80e163b920d72b52d584","223.79.240.212","Mozilla/5.0 (Windows NT 10.0; Win64; x64) AppleWebKit/537.36 (KHTML, like Gecko) Chrome/103.0.5060.114 Safari/537.36 Edg/103.0.1264.49","WebKit","Edge","103.0.1264.49","Windows","10.0","null","<div style=""font-size:60px;"">+</div>","null",""
"","","","","","html-button-response","71","196602","0.0-4.0-1.33","240","1","2022-10-12 11:33:01","d60b49b5908c80e163b920d72b52d584","223.79.240.212","Mozilla/5.0 (Windows NT 10.0; Win64; x64) AppleWebKit/537.36 (KHTML, like Gecko) Chrome/103.0.5060.114 Safari/537.36 Edg/103.0.1264.49","WebKit","Edge","103.0.1264.49","Windows","10.0","632","<p>作为军队的指挥官，你可以选择发射导弹杀死 <strong>10名</strong> 敌国士兵，但会误杀附近的 <strong>1名</strong> 敌国平民。</p> <p>平民照片如下图所示。</p> <p></p> <img src='stimuli/faces/NCM1.jpg', style='max-width: 30%;'> </img> <p><strong>你是否选择发射武器？</strong></p>","1",""
"","","","","","html-keyboard-response","72","197610","0.0-4.0-0.34","240","1","2022-10-12 11:33:01","d60b49b5908c80e163b920d72b52d584","223.79.240.212","Mozilla/5.0 (Windows NT 10.0; Win64; x64) AppleWebKit/537.36 (KHTML, like Gecko) Chrome/103.0.5060.114 Safari/537.36 Edg/103.0.1264.49","WebKit","Edge","103.0.1264.49","Windows","10.0","null","<div style=""font-size:60px;"">+</div>","null",""
"","","","","","html-button-response","73","198422","0.0-4.0-1.34","240","1","2022-10-12 11:33:01","d60b49b5908c80e163b920d72b52d584","223.79.240.212","Mozilla/5.0 (Windows NT 10.0; Win64; x64) AppleWebKit/537.36 (KHTML, like Gecko) Chrome/103.0.5060.114 Safari/537.36 Edg/103.0.1264.49","WebKit","Edge","103.0.1264.49","Windows","10.0","810","<p>作为军队的指挥官，你可以选择发射导弹杀死 <strong>1名</strong> 敌国士兵，但会炸毁附近的 <strong>1棵</strong> 敌国树木。</p> <p>树木的照片如下图所示。</p> <p></p> <img src='stimuli/trees/15.png', style='max-width: 30%;'> </img> <p><strong>你是否选择发射武器？</strong></p>","0",""
"","","","","","html-keyboard-response","74","199426","0.0-4.0-0.35","240","1","2022-10-12 11:33:01","d60b49b5908c80e163b920d72b52d584","223.79.240.212","Mozilla/5.0 (Windows NT 10.0; Win64; x64) AppleWebKit/537.36 (KHTML, like Gecko) Chrome/103.0.5060.114 Safari/537.36 Edg/103.0.1264.49","WebKit","Edge","103.0.1264.49","Windows","10.0","null","<div style=""font-size:60px;"">+</div>","null",""
"","","","","","html-button-response","75","200067","0.0-4.0-1.35","240","1","2022-10-12 11:33:01","d60b49b5908c80e163b920d72b52d584","223.79.240.212","Mozilla/5.0 (Windows NT 10.0; Win64; x64) AppleWebKit/537.36 (KHTML, like Gecko) Chrome/103.0.5060.114 Safari/537.36 Edg/103.0.1264.49","WebKit","Edge","103.0.1264.49","Windows","10.0","638","<p>作为军队的指挥官，你可以选择发射导弹杀死 <strong>1名</strong> 敌国士兵，但会误杀附近的 <strong>1名</strong> 敌国平民。</p> <p>平民照片如下图所示。</p> <p></p> <img src='stimuli/faces/NCF8.jpg', style='max-width: 30%;'> </img> <p><strong>你是否选择发射武器？</strong></p>","1",""
"","","","","","html-keyboard-response","76","201084","0.0-4.0-0.36","240","1","2022-10-12 11:33:01","d60b49b5908c80e163b920d72b52d584","223.79.240.212","Mozilla/5.0 (Windows NT 10.0; Win64; x64) AppleWebKit/537.36 (KHTML, like Gecko) Chrome/103.0.5060.114 Safari/537.36 Edg/103.0.1264.49","WebKit","Edge","103.0.1264.49","Windows","10.0","null","<div style=""font-size:60px;"">+</div>","null",""
"","","","","","html-button-response","77","202342","0.0-4.0-1.36","240","1","2022-10-12 11:33:01","d60b49b5908c80e163b920d72b52d584","223.79.240.212","Mozilla/5.0 (Windows NT 10.0; Win64; x64) AppleWebKit/537.36 (KHTML, like Gecko) Chrome/103.0.5060.114 Safari/537.36 Edg/103.0.1264.49","WebKit","Edge","103.0.1264.49","Windows","10.0","1255","<p>作为军队的指挥官，你可以选择发射导弹杀死 <strong>3名</strong> 敌国士兵，但会误杀附近的 <strong>1名</strong> 敌国平民。</p> <p>平民照片如下图所示。</p> <p></p> <img src='stimuli/faces/NCF7.jpg', style='max-width: 30%;'> </img> <p><strong>你是否选择发射武器？</strong></p>","1",""
"","","","","","html-keyboard-response","78","203353","0.0-4.0-0.37","240","1","2022-10-12 11:33:01","d60b49b5908c80e163b920d72b52d584","223.79.240.212","Mozilla/5.0 (Windows NT 10.0; Win64; x64) AppleWebKit/537.36 (KHTML, like Gecko) Chrome/103.0.5060.114 Safari/537.36 Edg/103.0.1264.49","WebKit","Edge","103.0.1264.49","Windows","10.0","null","<div style=""font-size:60px;"">+</div>","null",""
"","","","","","html-button-response","79","204267","0.0-4.0-1.37","240","1","2022-10-12 11:33:01","d60b49b5908c80e163b920d72b52d584","223.79.240.212","Mozilla/5.0 (Windows NT 10.0; Win64; x64) AppleWebKit/537.36 (KHTML, like Gecko) Chrome/103.0.5060.114 Safari/537.36 Edg/103.0.1264.49","WebKit","Edge","103.0.1264.49","Windows","10.0","911","<p>作为军队的指挥官，你可以选择发射导弹杀死 <strong>3名</strong> 敌国士兵，但会误杀附近的 <strong>1名</strong> 敌国平民。</p> <p>平民照片如下图所示。</p> <p></p> <img src='stimuli/faces/NCM7.jpg', style='max-width: 30%;'> </img> <p><strong>你是否选择发射武器？</strong></p>","1",""
"","","","","","html-keyboard-response","80","205285","0.0-4.0-0.38","240","1","2022-10-12 11:33:01","d60b49b5908c80e163b920d72b52d584","223.79.240.212","Mozilla/5.0 (Windows NT 10.0; Win64; x64) AppleWebKit/537.36 (KHTML, like Gecko) Chrome/103.0.5060.114 Safari/537.36 Edg/103.0.1264.49","WebKit","Edge","103.0.1264.49","Windows","10.0","null","<div style=""font-size:60px;"">+</div>","null",""
"","","","","","html-button-response","81","206271","0.0-4.0-1.38","240","1","2022-10-12 11:33:01","d60b49b5908c80e163b920d72b52d584","223.79.240.212","Mozilla/5.0 (Windows NT 10.0; Win64; x64) AppleWebKit/537.36 (KHTML, like Gecko) Chrome/103.0.5060.114 Safari/537.36 Edg/103.0.1264.49","WebKit","Edge","103.0.1264.49","Windows","10.0","984","<p>作为军队的指挥官，你可以选择发射导弹杀死 <strong>2名</strong> 敌国士兵，但会炸毁附近的 <strong>1棵</strong> 敌国树木。</p> <p>树木的照片如下图所示。</p> <p></p> <img src='stimuli/trees/8.png', style='max-width: 30%;'> </img> <p><strong>你是否选择发射武器？</strong></p>","0",""
"","","","","","html-keyboard-response","82","207288","0.0-4.0-0.39","240","1","2022-10-12 11:33:01","d60b49b5908c80e163b920d72b52d584","223.79.240.212","Mozilla/5.0 (Windows NT 10.0; Win64; x64) AppleWebKit/537.36 (KHTML, like Gecko) Chrome/103.0.5060.114 Safari/537.36 Edg/103.0.1264.49","WebKit","Edge","103.0.1264.49","Windows","10.0","null","<div style=""font-size:60px;"">+</div>","null",""
"","","","","","html-button-response","83","208686","0.0-4.0-1.39","240","1","2022-10-12 11:33:01","d60b49b5908c80e163b920d72b52d584","223.79.240.212","Mozilla/5.0 (Windows NT 10.0; Win64; x64) AppleWebKit/537.36 (KHTML, like Gecko) Chrome/103.0.5060.114 Safari/537.36 Edg/103.0.1264.49","WebKit","Edge","103.0.1264.49","Windows","10.0","1395","<p>作为军队的指挥官，你可以选择发射导弹杀死 <strong>9名</strong> 敌国士兵，但会误杀附近的 <strong>1名</strong> 敌国平民。</p> <p>平民照片如下图所示。</p> <p></p> <img src='stimuli/faces/NCM5.jpg', style='max-width: 30%;'> </img> <p><strong>你是否选择发射武器？</strong></p>","1",""
"","","","","","html-keyboard-response","84","209702","0.0-4.0-0.40","240","1","2022-10-12 11:33:01","d60b49b5908c80e163b920d72b52d584","223.79.240.212","Mozilla/5.0 (Windows NT 10.0; Win64; x64) AppleWebKit/537.36 (KHTML, like Gecko) Chrome/103.0.5060.114 Safari/537.36 Edg/103.0.1264.49","WebKit","Edge","103.0.1264.49","Windows","10.0","null","<div style=""font-size:60px;"">+</div>","null",""
"","","","","","html-button-response","85","210584","0.0-4.0-1.40","240","1","2022-10-12 11:33:01","d60b49b5908c80e163b920d72b52d584","223.79.240.212","Mozilla/5.0 (Windows NT 10.0; Win64; x64) AppleWebKit/537.36 (KHTML, like Gecko) Chrome/103.0.5060.114 Safari/537.36 Edg/103.0.1264.49","WebKit","Edge","103.0.1264.49","Windows","10.0","879","<p>作为军队的指挥官，你可以选择发射导弹杀死 <strong>1名</strong> 敌国士兵，但会炸毁附近的 <strong>1棵</strong> 敌国树木。</p> <p>树木的照片如下图所示。</p> <p></p> <img src='stimuli/trees/12.png', style='max-width: 30%;'> </img> <p><strong>你是否选择发射武器？</strong></p>","0",""
"","","","","","html-keyboard-response","86","211601","0.0-4.0-0.41","240","1","2022-10-12 11:33:01","d60b49b5908c80e163b920d72b52d584","223.79.240.212","Mozilla/5.0 (Windows NT 10.0; Win64; x64) AppleWebKit/537.36 (KHTML, like Gecko) Chrome/103.0.5060.114 Safari/537.36 Edg/103.0.1264.49","WebKit","Edge","103.0.1264.49","Windows","10.0","null","<div style=""font-size:60px;"">+</div>","null",""
"","","","","","html-button-response","87","212885","0.0-4.0-1.41","240","1","2022-10-12 11:33:01","d60b49b5908c80e163b920d72b52d584","223.79.240.212","Mozilla/5.0 (Windows NT 10.0; Win64; x64) AppleWebKit/537.36 (KHTML, like Gecko) Chrome/103.0.5060.114 Safari/537.36 Edg/103.0.1264.49","WebKit","Edge","103.0.1264.49","Windows","10.0","1283","<p>作为军队的指挥官，你可以选择发射导弹杀死 <strong>1名</strong> 敌国士兵，但会误杀附近的 <strong>1名</strong> 敌国平民。</p> <p>平民照片如下图所示。</p> <p></p> <img src='stimuli/faces/NCM4.jpg', style='max-width: 30%;'> </img> <p><strong>你是否选择发射武器？</strong></p>","1",""
"","","","","","html-keyboard-response","88","213896","0.0-4.0-0.42","240","1","2022-10-12 11:33:01","d60b49b5908c80e163b920d72b52d584","223.79.240.212","Mozilla/5.0 (Windows NT 10.0; Win64; x64) AppleWebKit/537.36 (KHTML, like Gecko) Chrome/103.0.5060.114 Safari/537.36 Edg/103.0.1264.49","WebKit","Edge","103.0.1264.49","Windows","10.0","null","<div style=""font-size:60px;"">+</div>","null",""
"","","","","","html-button-response","89","214802","0.0-4.0-1.42","240","1","2022-10-12 11:33:01","d60b49b5908c80e163b920d72b52d584","223.79.240.212","Mozilla/5.0 (Windows NT 10.0; Win64; x64) AppleWebKit/537.36 (KHTML, like Gecko) Chrome/103.0.5060.114 Safari/537.36 Edg/103.0.1264.49","WebKit","Edge","103.0.1264.49","Windows","10.0","904","<p>作为军队的指挥官，你可以选择发射导弹杀死 <strong>5名</strong> 敌国士兵，但会炸毁附近的 <strong>1棵</strong> 敌国树木。</p> <p>树木的照片如下图所示。</p> <p></p> <img src='stimuli/trees/2.png', style='max-width: 30%;'> </img> <p><strong>你是否选择发射武器？</strong></p>","0",""
"","","","","","html-keyboard-response","90","215818","0.0-4.0-0.43","240","1","2022-10-12 11:33:01","d60b49b5908c80e163b920d72b52d584","223.79.240.212","Mozilla/5.0 (Windows NT 10.0; Win64; x64) AppleWebKit/537.36 (KHTML, like Gecko) Chrome/103.0.5060.114 Safari/537.36 Edg/103.0.1264.49","WebKit","Edge","103.0.1264.49","Windows","10.0","null","<div style=""font-size:60px;"">+</div>","null",""
"","","","","","html-button-response","91","219158","0.0-4.0-1.43","240","1","2022-10-12 11:33:01","d60b49b5908c80e163b920d72b52d584","223.79.240.212","Mozilla/5.0 (Windows NT 10.0; Win64; x64) AppleWebKit/537.36 (KHTML, like Gecko) Chrome/103.0.5060.114 Safari/537.36 Edg/103.0.1264.49","WebKit","Edge","103.0.1264.49","Windows","10.0","3338","<p>作为军队的指挥官，你可以选择发射导弹杀死 <strong>1名</strong> 敌国士兵，但会误杀附近的 <strong>1名</strong> 敌国平民。</p> <p>平民照片如下图所示。</p> <p></p> <img src='stimuli/faces/NCM2.jpg', style='max-width: 30%;'> </img> <p><strong>你是否选择发射武器？</strong></p>","1",""
"","","","","","html-keyboard-response","92","220166","0.0-4.0-0.44","240","1","2022-10-12 11:33:01","d60b49b5908c80e163b920d72b52d584","223.79.240.212","Mozilla/5.0 (Windows NT 10.0; Win64; x64) AppleWebKit/537.36 (KHTML, like Gecko) Chrome/103.0.5060.114 Safari/537.36 Edg/103.0.1264.49","WebKit","Edge","103.0.1264.49","Windows","10.0","null","<div style=""font-size:60px;"">+</div>","null",""
"","","","","","html-button-response","93","267032","0.0-4.0-1.44","240","1","2022-10-12 11:33:01","d60b49b5908c80e163b920d72b52d584","223.79.240.212","Mozilla/5.0 (Windows NT 10.0; Win64; x64) AppleWebKit/537.36 (KHTML, like Gecko) Chrome/103.0.5060.114 Safari/537.36 Edg/103.0.1264.49","WebKit","Edge","103.0.1264.49","Windows","10.0","46864","<p>作为军队的指挥官，你可以选择发射导弹杀死 <strong>10名</strong> 敌国士兵，但会误杀附近的 <strong>1名</strong> 敌国平民。</p> <p>平民照片如下图所示。</p> <p></p> <img src='stimuli/faces/NCM3.jpg', style='max-width: 30%;'> </img> <p><strong>你是否选择发射武器？</strong></p>","1",""
"","","","","","html-keyboard-response","94","268049","0.0-4.0-0.45","240","1","2022-10-12 11:33:01","d60b49b5908c80e163b920d72b52d584","223.79.240.212","Mozilla/5.0 (Windows NT 10.0; Win64; x64) AppleWebKit/537.36 (KHTML, like Gecko) Chrome/103.0.5060.114 Safari/537.36 Edg/103.0.1264.49","WebKit","Edge","103.0.1264.49","Windows","10.0","null","<div style=""font-size:60px;"">+</div>","null",""
"","","","","","html-button-response","95","268616","0.0-4.0-1.45","240","1","2022-10-12 11:33:01","d60b49b5908c80e163b920d72b52d584","223.79.240.212","Mozilla/5.0 (Windows NT 10.0; Win64; x64) AppleWebKit/537.36 (KHTML, like Gecko) Chrome/103.0.5060.114 Safari/537.36 Edg/103.0.1264.49","WebKit","Edge","103.0.1264.49","Windows","10.0","565","<p>作为军队的指挥官，你可以选择发射导弹杀死 <strong>9名</strong> 敌国士兵，但会误杀附近的 <strong>1名</strong> 敌国平民。</p> <p>平民照片如下图所示。</p> <p></p> <img src='stimuli/faces/NCF7.jpg', style='max-width: 30%;'> </img> <p><strong>你是否选择发射武器？</strong></p>","1",""
"","","","","","html-keyboard-response","96","269619","0.0-4.0-0.46","240","1","2022-10-12 11:33:01","d60b49b5908c80e163b920d72b52d584","223.79.240.212","Mozilla/5.0 (Windows NT 10.0; Win64; x64) AppleWebKit/537.36 (KHTML, like Gecko) Chrome/103.0.5060.114 Safari/537.36 Edg/103.0.1264.49","WebKit","Edge","103.0.1264.49","Windows","10.0","null","<div style=""font-size:60px;"">+</div>","null",""
"","","","","","html-button-response","97","271189","0.0-4.0-1.46","240","1","2022-10-12 11:33:01","d60b49b5908c80e163b920d72b52d584","223.79.240.212","Mozilla/5.0 (Windows NT 10.0; Win64; x64) AppleWebKit/537.36 (KHTML, like Gecko) Chrome/103.0.5060.114 Safari/537.36 Edg/103.0.1264.49","WebKit","Edge","103.0.1264.49","Windows","10.0","1567","<p>作为军队的指挥官，你可以选择发射导弹杀死 <strong>8名</strong> 敌国士兵，但会炸毁附近的 <strong>1棵</strong> 敌国树木。</p> <p>树木的照片如下图所示。</p> <p></p> <img src='stimuli/trees/2.png', style='max-width: 30%;'> </img> <p><strong>你是否选择发射武器？</strong></p>","0",""
"","","","","","html-keyboard-response","98","272200","0.0-4.0-0.47","240","1","2022-10-12 11:33:01","d60b49b5908c80e163b920d72b52d584","223.79.240.212","Mozilla/5.0 (Windows NT 10.0; Win64; x64) AppleWebKit/537.36 (KHTML, like Gecko) Chrome/103.0.5060.114 Safari/537.36 Edg/103.0.1264.49","WebKit","Edge","103.0.1264.49","Windows","10.0","null","<div style=""font-size:60px;"">+</div>","null",""
"","","","","","html-button-response","99","273017","0.0-4.0-1.47","240","1","2022-10-12 11:33:01","d60b49b5908c80e163b920d72b52d584","223.79.240.212","Mozilla/5.0 (Windows NT 10.0; Win64; x64) AppleWebKit/537.36 (KHTML, like Gecko) Chrome/103.0.5060.114 Safari/537.36 Edg/103.0.1264.49","WebKit","Edge","103.0.1264.49","Windows","10.0","815","<p>作为军队的指挥官，你可以选择发射导弹杀死 <strong>10名</strong> 敌国士兵，但会炸毁附近的 <strong>1棵</strong> 敌国树木。</p> <p>树木的照片如下图所示。</p> <p></p> <img src='stimuli/trees/13.png', style='max-width: 30%;'> </img> <p><strong>你是否选择发射武器？</strong></p>","0",""
"","","","","","html-keyboard-response","100","274035","0.0-4.0-0.48","240","1","2022-10-12 11:33:01","d60b49b5908c80e163b920d72b52d584","223.79.240.212","Mozilla/5.0 (Windows NT 10.0; Win64; x64) AppleWebKit/537.36 (KHTML, like Gecko) Chrome/103.0.5060.114 Safari/537.36 Edg/103.0.1264.49","WebKit","Edge","103.0.1264.49","Windows","10.0","null","<div style=""font-size:60px;"">+</div>","null",""
"","","","","","html-button-response","101","274882","0.0-4.0-1.48","240","1","2022-10-12 11:33:01","d60b49b5908c80e163b920d72b52d584","223.79.240.212","Mozilla/5.0 (Windows NT 10.0; Win64; x64) AppleWebKit/537.36 (KHTML, like Gecko) Chrome/103.0.5060.114 Safari/537.36 Edg/103.0.1264.49","WebKit","Edge","103.0.1264.49","Windows","10.0","845","<p>作为军队的指挥官，你可以选择发射导弹杀死 <strong>3名</strong> 敌国士兵，但会误杀附近的 <strong>1名</strong> 敌国平民。</p> <p>平民照片如下图所示。</p> <p></p> <img src='stimuli/faces/NCF3.jpg', style='max-width: 30%;'> </img> <p><strong>你是否选择发射武器？</strong></p>","1",""
"","","","","","html-keyboard-response","102","275888","0.0-4.0-0.49","240","1","2022-10-12 11:33:01","d60b49b5908c80e163b920d72b52d584","223.79.240.212","Mozilla/5.0 (Windows NT 10.0; Win64; x64) AppleWebKit/537.36 (KHTML, like Gecko) Chrome/103.0.5060.114 Safari/537.36 Edg/103.0.1264.49","WebKit","Edge","103.0.1264.49","Windows","10.0","null","<div style=""font-size:60px;"">+</div>","null",""
"","","","","","html-button-response","103","276631","0.0-4.0-1.49","240","1","2022-10-12 11:33:01","d60b49b5908c80e163b920d72b52d584","223.79.240.212","Mozilla/5.0 (Windows NT 10.0; Win64; x64) AppleWebKit/537.36 (KHTML, like Gecko) Chrome/103.0.5060.114 Safari/537.36 Edg/103.0.1264.49","WebKit","Edge","103.0.1264.49","Windows","10.0","740","<p>作为军队的指挥官，你可以选择发射导弹杀死 <strong>5名</strong> 敌国士兵，但会误杀附近的 <strong>1名</strong> 敌国平民。</p> <p>平民照片如下图所示。</p> <p></p> <img src='stimuli/faces/NCM5.jpg', style='max-width: 30%;'> </img> <p><strong>你是否选择发射武器？</strong></p>","1",""
"","","","","","html-keyboard-response","104","277636","0.0-4.0-0.50","240","1","2022-10-12 11:33:01","d60b49b5908c80e163b920d72b52d584","223.79.240.212","Mozilla/5.0 (Windows NT 10.0; Win64; x64) AppleWebKit/537.36 (KHTML, like Gecko) Chrome/103.0.5060.114 Safari/537.36 Edg/103.0.1264.49","WebKit","Edge","103.0.1264.49","Windows","10.0","null","<div style=""font-size:60px;"">+</div>","null",""
"","","","","","html-button-response","105","278442","0.0-4.0-1.50","240","1","2022-10-12 11:33:01","d60b49b5908c80e163b920d72b52d584","223.79.240.212","Mozilla/5.0 (Windows NT 10.0; Win64; x64) AppleWebKit/537.36 (KHTML, like Gecko) Chrome/103.0.5060.114 Safari/537.36 Edg/103.0.1264.49","WebKit","Edge","103.0.1264.49","Windows","10.0","804","<p>作为军队的指挥官，你可以选择发射导弹杀死 <strong>6名</strong> 敌国士兵，但会误杀附近的 <strong>1名</strong> 敌国平民。</p> <p>平民照片如下图所示。</p> <p></p> <img src='stimuli/faces/NCM8.jpg', style='max-width: 30%;'> </img> <p><strong>你是否选择发射武器？</strong></p>","1",""
"","","","","","html-keyboard-response","106","279452","0.0-4.0-0.51","240","1","2022-10-12 11:33:01","d60b49b5908c80e163b920d72b52d584","223.79.240.212","Mozilla/5.0 (Windows NT 10.0; Win64; x64) AppleWebKit/537.36 (KHTML, like Gecko) Chrome/103.0.5060.114 Safari/537.36 Edg/103.0.1264.49","WebKit","Edge","103.0.1264.49","Windows","10.0","null","<div style=""font-size:60px;"">+</div>","null",""
"","","","","","html-button-response","107","280157","0.0-4.0-1.51","240","1","2022-10-12 11:33:01","d60b49b5908c80e163b920d72b52d584","223.79.240.212","Mozilla/5.0 (Windows NT 10.0; Win64; x64) AppleWebKit/537.36 (KHTML, like Gecko) Chrome/103.0.5060.114 Safari/537.36 Edg/103.0.1264.49","WebKit","Edge","103.0.1264.49","Windows","10.0","703","<p>作为军队的指挥官，你可以选择发射导弹杀死 <strong>2名</strong> 敌国士兵，但会炸毁附近的 <strong>1棵</strong> 敌国树木。</p> <p>树木的照片如下图所示。</p> <p></p> <img src='stimuli/trees/7.png', style='max-width: 30%;'> </img> <p><strong>你是否选择发射武器？</strong></p>","0",""
"","","","","","html-keyboard-response","108","281167","0.0-4.0-0.52","240","1","2022-10-12 11:33:01","d60b49b5908c80e163b920d72b52d584","223.79.240.212","Mozilla/5.0 (Windows NT 10.0; Win64; x64) AppleWebKit/537.36 (KHTML, like Gecko) Chrome/103.0.5060.114 Safari/537.36 Edg/103.0.1264.49","WebKit","Edge","103.0.1264.49","Windows","10.0","null","<div style=""font-size:60px;"">+</div>","null",""
"","","","","","html-button-response","109","282310","0.0-4.0-1.52","240","1","2022-10-12 11:33:01","d60b49b5908c80e163b920d72b52d584","223.79.240.212","Mozilla/5.0 (Windows NT 10.0; Win64; x64) AppleWebKit/537.36 (KHTML, like Gecko) Chrome/103.0.5060.114 Safari/537.36 Edg/103.0.1264.49","WebKit","Edge","103.0.1264.49","Windows","10.0","1140","<p>作为军队的指挥官，你可以选择发射导弹杀死 <strong>6名</strong> 敌国士兵，但会误杀附近的 <strong>1名</strong> 敌国平民。</p> <p>平民照片如下图所示。</p> <p></p> <img src='stimuli/faces/NCM6.jpg', style='max-width: 30%;'> </img> <p><strong>你是否选择发射武器？</strong></p>","1",""
"","","","","","html-keyboard-response","110","283319","0.0-4.0-0.53","240","1","2022-10-12 11:33:01","d60b49b5908c80e163b920d72b52d584","223.79.240.212","Mozilla/5.0 (Windows NT 10.0; Win64; x64) AppleWebKit/537.36 (KHTML, like Gecko) Chrome/103.0.5060.114 Safari/537.36 Edg/103.0.1264.49","WebKit","Edge","103.0.1264.49","Windows","10.0","null","<div style=""font-size:60px;"">+</div>","null",""
"","","","","","html-button-response","111","284708","0.0-4.0-1.53","240","1","2022-10-12 11:33:01","d60b49b5908c80e163b920d72b52d584","223.79.240.212","Mozilla/5.0 (Windows NT 10.0; Win64; x64) AppleWebKit/537.36 (KHTML, like Gecko) Chrome/103.0.5060.114 Safari/537.36 Edg/103.0.1264.49","WebKit","Edge","103.0.1264.49","Windows","10.0","1387","<p>作为军队的指挥官，你可以选择发射导弹杀死 <strong>2名</strong> 敌国士兵，但会炸毁附近的 <strong>1棵</strong> 敌国树木。</p> <p>树木的照片如下图所示。</p> <p></p> <img src='stimuli/trees/5.png', style='max-width: 30%;'> </img> <p><strong>你是否选择发射武器？</strong></p>","0",""
"","","","","","html-keyboard-response","112","285718","0.0-4.0-0.54","240","1","2022-10-12 11:33:01","d60b49b5908c80e163b920d72b52d584","223.79.240.212","Mozilla/5.0 (Windows NT 10.0; Win64; x64) AppleWebKit/537.36 (KHTML, like Gecko) Chrome/103.0.5060.114 Safari/537.36 Edg/103.0.1264.49","WebKit","Edge","103.0.1264.49","Windows","10.0","null","<div style=""font-size:60px;"">+</div>","null",""
"","","","","","html-button-response","113","286942","0.0-4.0-1.54","240","1","2022-10-12 11:33:01","d60b49b5908c80e163b920d72b52d584","223.79.240.212","Mozilla/5.0 (Windows NT 10.0; Win64; x64) AppleWebKit/537.36 (KHTML, like Gecko) Chrome/103.0.5060.114 Safari/537.36 Edg/103.0.1264.49","WebKit","Edge","103.0.1264.49","Windows","10.0","1222","<p>作为军队的指挥官，你可以选择发射导弹杀死 <strong>5名</strong> 敌国士兵，但会炸毁附近的 <strong>1棵</strong> 敌国树木。</p> <p>树木的照片如下图所示。</p> <p></p> <img src='stimuli/trees/11.png', style='max-width: 30%;'> </img> <p><strong>你是否选择发射武器？</strong></p>","0",""
"","","","","","html-keyboard-response","114","287952","0.0-4.0-0.55","240","1","2022-10-12 11:33:01","d60b49b5908c80e163b920d72b52d584","223.79.240.212","Mozilla/5.0 (Windows NT 10.0; Win64; x64) AppleWebKit/537.36 (KHTML, like Gecko) Chrome/103.0.5060.114 Safari/537.36 Edg/103.0.1264.49","WebKit","Edge","103.0.1264.49","Windows","10.0","null","<div style=""font-size:60px;"">+</div>","null",""
"","","","","","html-button-response","115","288802","0.0-4.0-1.55","240","1","2022-10-12 11:33:01","d60b49b5908c80e163b920d72b52d584","223.79.240.212","Mozilla/5.0 (Windows NT 10.0; Win64; x64) AppleWebKit/537.36 (KHTML, like Gecko) Chrome/103.0.5060.114 Safari/537.36 Edg/103.0.1264.49","WebKit","Edge","103.0.1264.49","Windows","10.0","848","<p>作为军队的指挥官，你可以选择发射导弹杀死 <strong>6名</strong> 敌国士兵，但会炸毁附近的 <strong>1棵</strong> 敌国树木。</p> <p>树木的照片如下图所示。</p> <p></p> <img src='stimuli/trees/5.png', style='max-width: 30%;'> </img> <p><strong>你是否选择发射武器？</strong></p>","0",""
"","","","","","html-keyboard-response","116","289818","0.0-4.0-0.56","240","1","2022-10-12 11:33:01","d60b49b5908c80e163b920d72b52d584","223.79.240.212","Mozilla/5.0 (Windows NT 10.0; Win64; x64) AppleWebKit/537.36 (KHTML, like Gecko) Chrome/103.0.5060.114 Safari/537.36 Edg/103.0.1264.49","WebKit","Edge","103.0.1264.49","Windows","10.0","null","<div style=""font-size:60px;"">+</div>","null",""
"","","","","","html-button-response","117","290587","0.0-4.0-1.56","240","1","2022-10-12 11:33:01","d60b49b5908c80e163b920d72b52d584","223.79.240.212","Mozilla/5.0 (Windows NT 10.0; Win64; x64) AppleWebKit/537.36 (KHTML, like Gecko) Chrome/103.0.5060.114 Safari/537.36 Edg/103.0.1264.49","WebKit","Edge","103.0.1264.49","Windows","10.0","767","<p>作为军队的指挥官，你可以选择发射导弹杀死 <strong>2名</strong> 敌国士兵，但会炸毁附近的 <strong>1棵</strong> 敌国树木。</p> <p>树木的照片如下图所示。</p> <p></p> <img src='stimuli/trees/6.png', style='max-width: 30%;'> </img> <p><strong>你是否选择发射武器？</strong></p>","0",""
"","","","","","html-keyboard-response","118","291602","0.0-4.0-0.57","240","1","2022-10-12 11:33:01","d60b49b5908c80e163b920d72b52d584","223.79.240.212","Mozilla/5.0 (Windows NT 10.0; Win64; x64) AppleWebKit/537.36 (KHTML, like Gecko) Chrome/103.0.5060.114 Safari/537.36 Edg/103.0.1264.49","WebKit","Edge","103.0.1264.49","Windows","10.0","null","<div style=""font-size:60px;"">+</div>","null",""
"","","","","","html-button-response","119","292862","0.0-4.0-1.57","240","1","2022-10-12 11:33:01","d60b49b5908c80e163b920d72b52d584","223.79.240.212","Mozilla/5.0 (Windows NT 10.0; Win64; x64) AppleWebKit/537.36 (KHTML, like Gecko) Chrome/103.0.5060.114 Safari/537.36 Edg/103.0.1264.49","WebKit","Edge","103.0.1264.49","Windows","10.0","1258","<p>作为军队的指挥官，你可以选择发射导弹杀死 <strong>6名</strong> 敌国士兵，但会误杀附近的 <strong>1名</strong> 敌国平民。</p> <p>平民照片如下图所示。</p> <p></p> <img src='stimuli/faces/NCM2.jpg', style='max-width: 30%;'> </img> <p><strong>你是否选择发射武器？</strong></p>","1",""
"","","","","","html-keyboard-response","120","293869","0.0-4.0-0.58","240","1","2022-10-12 11:33:01","d60b49b5908c80e163b920d72b52d584","223.79.240.212","Mozilla/5.0 (Windows NT 10.0; Win64; x64) AppleWebKit/537.36 (KHTML, like Gecko) Chrome/103.0.5060.114 Safari/537.36 Edg/103.0.1264.49","WebKit","Edge","103.0.1264.49","Windows","10.0","null","<div style=""font-size:60px;"">+</div>","null",""
"","","","","","html-button-response","121","294831","0.0-4.0-1.58","240","1","2022-10-12 11:33:01","d60b49b5908c80e163b920d72b52d584","223.79.240.212","Mozilla/5.0 (Windows NT 10.0; Win64; x64) AppleWebKit/537.36 (KHTML, like Gecko) Chrome/103.0.5060.114 Safari/537.36 Edg/103.0.1264.49","WebKit","Edge","103.0.1264.49","Windows","10.0","959","<p>作为军队的指挥官，你可以选择发射导弹杀死 <strong>5名</strong> 敌国士兵，但会炸毁附近的 <strong>1棵</strong> 敌国树木。</p> <p>树木的照片如下图所示。</p> <p></p> <img src='stimuli/trees/1.png', style='max-width: 30%;'> </img> <p><strong>你是否选择发射武器？</strong></p>","0",""
"","","","","","html-keyboard-response","122","295850","0.0-4.0-0.59","240","1","2022-10-12 11:33:01","d60b49b5908c80e163b920d72b52d584","223.79.240.212","Mozilla/5.0 (Windows NT 10.0; Win64; x64) AppleWebKit/537.36 (KHTML, like Gecko) Chrome/103.0.5060.114 Safari/537.36 Edg/103.0.1264.49","WebKit","Edge","103.0.1264.49","Windows","10.0","null","<div style=""font-size:60px;"">+</div>","null",""
"","","","","","html-button-response","123","298226","0.0-4.0-1.59","240","1","2022-10-12 11:33:01","d60b49b5908c80e163b920d72b52d584","223.79.240.212","Mozilla/5.0 (Windows NT 10.0; Win64; x64) AppleWebKit/537.36 (KHTML, like Gecko) Chrome/103.0.5060.114 Safari/537.36 Edg/103.0.1264.49","WebKit","Edge","103.0.1264.49","Windows","10.0","2374","<p>作为军队的指挥官，你可以选择发射导弹杀死 <strong>5名</strong> 敌国士兵，但会误杀附近的 <strong>1名</strong> 敌国平民。</p> <p>平民照片如下图所示。</p> <p></p> <img src='stimuli/faces/NCM6.jpg', style='max-width: 30%;'> </img> <p><strong>你是否选择发射武器？</strong></p>","1",""
"","","","","","html-keyboard-response","124","299237","0.0-4.0-0.60","240","1","2022-10-12 11:33:01","d60b49b5908c80e163b920d72b52d584","223.79.240.212","Mozilla/5.0 (Windows NT 10.0; Win64; x64) AppleWebKit/537.36 (KHTML, like Gecko) Chrome/103.0.5060.114 Safari/537.36 Edg/103.0.1264.49","WebKit","Edge","103.0.1264.49","Windows","10.0","null","<div style=""font-size:60px;"">+</div>","null",""
"","","","","","html-button-response","125","300974","0.0-4.0-1.60","240","1","2022-10-12 11:33:01","d60b49b5908c80e163b920d72b52d584","223.79.240.212","Mozilla/5.0 (Windows NT 10.0; Win64; x64) AppleWebKit/537.36 (KHTML, like Gecko) Chrome/103.0.5060.114 Safari/537.36 Edg/103.0.1264.49","WebKit","Edge","103.0.1264.49","Windows","10.0","1734","<p>作为军队的指挥官，你可以选择发射导弹杀死 <strong>5名</strong> 敌国士兵，但会炸毁附近的 <strong>1棵</strong> 敌国树木。</p> <p>树木的照片如下图所示。</p> <p></p> <img src='stimuli/trees/9.png', style='max-width: 30%;'> </img> <p><strong>你是否选择发射武器？</strong></p>","0",""
"","","","","","html-keyboard-response","126","301987","0.0-4.0-0.61","240","1","2022-10-12 11:33:01","d60b49b5908c80e163b920d72b52d584","223.79.240.212","Mozilla/5.0 (Windows NT 10.0; Win64; x64) AppleWebKit/537.36 (KHTML, like Gecko) Chrome/103.0.5060.114 Safari/537.36 Edg/103.0.1264.49","WebKit","Edge","103.0.1264.49","Windows","10.0","null","<div style=""font-size:60px;"">+</div>","null",""
"","","","","","html-button-response","127","308560","0.0-4.0-1.61","240","1","2022-10-12 11:33:01","d60b49b5908c80e163b920d72b52d584","223.79.240.212","Mozilla/5.0 (Windows NT 10.0; Win64; x64) AppleWebKit/537.36 (KHTML, like Gecko) Chrome/103.0.5060.114 Safari/537.36 Edg/103.0.1264.49","WebKit","Edge","103.0.1264.49","Windows","10.0","6571","<p>作为军队的指挥官，你可以选择发射导弹杀死 <strong>8名</strong> 敌国士兵，但会炸毁附近的 <strong>1棵</strong> 敌国树木。</p> <p>树木的照片如下图所示。</p> <p></p> <img src='stimuli/trees/15.png', style='max-width: 30%;'> </img> <p><strong>你是否选择发射武器？</strong></p>","0",""
"","","","","","html-keyboard-response","128","309563","0.0-4.0-0.62","240","1","2022-10-12 11:33:01","d60b49b5908c80e163b920d72b52d584","223.79.240.212","Mozilla/5.0 (Windows NT 10.0; Win64; x64) AppleWebKit/537.36 (KHTML, like Gecko) Chrome/103.0.5060.114 Safari/537.36 Edg/103.0.1264.49","WebKit","Edge","103.0.1264.49","Windows","10.0","null","<div style=""font-size:60px;"">+</div>","null",""
"","","","","","html-button-response","129","310599","0.0-4.0-1.62","240","1","2022-10-12 11:33:01","d60b49b5908c80e163b920d72b52d584","223.79.240.212","Mozilla/5.0 (Windows NT 10.0; Win64; x64) AppleWebKit/537.36 (KHTML, like Gecko) Chrome/103.0.5060.114 Safari/537.36 Edg/103.0.1264.49","WebKit","Edge","103.0.1264.49","Windows","10.0","1033","<p>作为军队的指挥官，你可以选择发射导弹杀死 <strong>1名</strong> 敌国士兵，但会误杀附近的 <strong>1名</strong> 敌国平民。</p> <p>平民照片如下图所示。</p> <p></p> <img src='stimuli/faces/NCM8.jpg', style='max-width: 30%;'> </img> <p><strong>你是否选择发射武器？</strong></p>","1",""
"","","","","","html-keyboard-response","130","311601","0.0-4.0-0.63","240","1","2022-10-12 11:33:01","d60b49b5908c80e163b920d72b52d584","223.79.240.212","Mozilla/5.0 (Windows NT 10.0; Win64; x64) AppleWebKit/537.36 (KHTML, like Gecko) Chrome/103.0.5060.114 Safari/537.36 Edg/103.0.1264.49","WebKit","Edge","103.0.1264.49","Windows","10.0","null","<div style=""font-size:60px;"">+</div>","null",""
"","","","","","html-button-response","131","312559","0.0-4.0-1.63","240","1","2022-10-12 11:33:01","d60b49b5908c80e163b920d72b52d584","223.79.240.212","Mozilla/5.0 (Windows NT 10.0; Win64; x64) AppleWebKit/537.36 (KHTML, like Gecko) Chrome/103.0.5060.114 Safari/537.36 Edg/103.0.1264.49","WebKit","Edge","103.0.1264.49","Windows","10.0","955","<p>作为军队的指挥官，你可以选择发射导弹杀死 <strong>8名</strong> 敌国士兵，但会误杀附近的 <strong>1名</strong> 敌国平民。</p> <p>平民照片如下图所示。</p> <p></p> <img src='stimuli/faces/NCM7.jpg', style='max-width: 30%;'> </img> <p><strong>你是否选择发射武器？</strong></p>","1",""
"","","","","","survey-multi-choice","132","402319","0.0-5.0","240","1","2022-10-12 11:33:01","d60b49b5908c80e163b920d72b52d584","223.79.240.212","Mozilla/5.0 (Windows NT 10.0; Win64; x64) AppleWebKit/537.36 (KHTML, like Gecko) Chrome/103.0.5060.114 Safari/537.36 Edg/103.0.1264.49","WebKit","Edge","103.0.1264.49","Windows","10.0","89757","","{""Attention1"":""""}","[0]"
"","","","","","html-button-response","133","477250","0.0-6.0","240","1","2022-10-12 11:33:01","d60b49b5908c80e163b920d72b52d584","223.79.240.212","Mozilla/5.0 (Windows NT 10.0; Win64; x64) AppleWebKit/537.36 (KHTML, like Gecko) Chrome/103.0.5060.114 Safari/537.36 Edg/103.0.1264.49","WebKit","Edge","103.0.1264.49","Windows","10.0","74928","<p style=""font-size:20px;font-weight:bold;"">恭喜！</p><p>你已经完成了实验的第一部分。</p><p>请休息放松一下，然后进入第二部分。</p><p>这部分大约需要10分钟。</p>","0",""
"","","","","","survey-text","134","522363","0.0-7.0","240","1","2022-10-12 11:33:01","d60b49b5908c80e163b920d72b52d584","223.79.240.212","Mozilla/5.0 (Windows NT 10.0; Win64; x64) AppleWebKit/537.36 (KHTML, like Gecko) Chrome/103.0.5060.114 Safari/537.36 Edg/103.0.1264.49","WebKit","Edge","103.0.1264.49","Windows","10.0","44101","","{""Age"":""20"",""Nation"":""中国"",""Born"":""河北省石家庄市"",""Live"":""河北省石家庄市"",""Ethnic"":""汉族"",""Alipay"":""18754442306""}",""
"","","","","","survey-multi-choice","135","542707","0.0-8.0","240","1","2022-10-12 11:33:01","d60b49b5908c80e163b920d72b52d584","223.79.240.212","Mozilla/5.0 (Windows NT 10.0; Win64; x64) AppleWebKit/537.36 (KHTML, like Gecko) Chrome/103.0.5060.114 Safari/537.36 Edg/103.0.1264.49","WebKit","Edge","103.0.1264.49","Windows","10.0","20341","","{""Gender"":""女"",""Education"":""本科毕业"",""Income"":""￥140,000-￥269,999"",""Children"":""0"",""Race"":""亚洲人""}","[0,1,2,3,4]"
"","","","","","survey-multi-select","136","552070","0.0-9.0","240","1","2022-10-12 11:33:01","d60b49b5908c80e163b920d72b52d584","223.79.240.212","Mozilla/5.0 (Windows NT 10.0; Win64; x64) AppleWebKit/537.36 (KHTML, like Gecko) Chrome/103.0.5060.114 Safari/537.36 Edg/103.0.1264.49","WebKit","Edge","103.0.1264.49","Windows","10.0","9357","","{""Marriage"":[""未婚""],""Religion"":[""无宗教信仰""]}","[0,1]"
"","","","","","survey-multi-choice","137","575433","0.0-10.0","240","1","2022-10-12 11:33:01","d60b49b5908c80e163b920d72b52d584","223.79.240.212","Mozilla/5.0 (Windows NT 10.0; Win64; x64) AppleWebKit/537.36 (KHTML, like Gecko) Chrome/103.0.5060.114 Safari/537.36 Edg/103.0.1264.49","WebKit","Edge","103.0.1264.49","Windows","10.0","23359","","{""SES"":""5""}","[0]"
"","","","","","html-button-response","138","577821","0.0-11.0","240","1","2022-10-12 11:33:01","d60b49b5908c80e163b920d72b52d584","223.79.240.212","Mozilla/5.0 (Windows NT 10.0; Win64; x64) AppleWebKit/537.36 (KHTML, like Gecko) Chrome/103.0.5060.114 Safari/537.36 Edg/103.0.1264.49","WebKit","Edge","103.0.1264.49","Windows","10.0","2385","<p><strong>请判断下列陈述在多大程度上可以形容你？</p><p> (1 = ""和我一点都不像"" to 5 = ""非常像我"".)</strong></p>","0",""
"","","","","","survey-likert","139","704622","0.0-12.0","240","1","2022-10-12 11:33:01","d60b49b5908c80e163b920d72b52d584","223.79.240.212","Mozilla/5.0 (Windows NT 10.0; Win64; x64) AppleWebKit/537.36 (KHTML, like Gecko) Chrome/103.0.5060.114 Safari/537.36 Edg/103.0.1264.49","WebKit","Edge","103.0.1264.49","Windows","10.0","126798","","{""Aggression1"":0,""Aggression2"":0,""Aggression3"":1,""Aggression4"":0,""Aggression5"":0,""Aggression6"":1,""Aggression7"":4,""Aggression8"":0,""Aggression9"":0}","[0,1,2,3,4,5,6,7,8]"
"","","","","","html-button-response","140","706266","0.0-13.0","240","1","2022-10-12 11:33:01","d60b49b5908c80e163b920d72b52d584","223.79.240.212","Mozilla/5.0 (Windows NT 10.0; Win64; x64) AppleWebKit/537.36 (KHTML, like Gecko) Chrome/103.0.5060.114 Safari/537.36 Edg/103.0.1264.49","WebKit","Edge","103.0.1264.49","Windows","10.0","1641","<p><strong>请判断你在多大程度上同意下列陈述。</strong></p>","0",""
"","","","","","survey-likert","141","918344","0.0-14.0","240","1","2022-10-12 11:33:01","d60b49b5908c80e163b920d72b52d584","223.79.240.212","Mozilla/5.0 (Windows NT 10.0; Win64; x64) AppleWebKit/537.36 (KHTML, like Gecko) Chrome/103.0.5060.114 Safari/537.36 Edg/103.0.1264.49","WebKit","Edge","103.0.1264.49","Windows","10.0","212074","","{""scale10"":1,""scale25"":3,""scale20"":4,""scale21"":4,""scale17"":1,""scale8"":4,""scale23"":4,""scale9"":3,""scale27"":0,""scale19"":4,""scale12"":0,""scale11"":4,""scale14"":1,""scale3"":1,""scale16"":3,""scale5"":4,""scale4"":0,""scale13"":1,""scale24"":0,""scale26"":4,""scale15"":0,""scale28"":4,""scale1"":0,""scale7"":1,""scale22"":3,""scale18"":0,""scale6"":0,""scale2"":3}","[9,24,19,20,16,7,22,8,26,18,11,10,13,2,15,4,3,12,23,25,14,27,0,6,21,17,5,1]"
"","","","","","html-button-response","142","919918","0.0-15.0","240","1","2022-10-12 11:33:01","d60b49b5908c80e163b920d72b52d584","223.79.240.212","Mozilla/5.0 (Windows NT 10.0; Win64; x64) AppleWebKit/537.36 (KHTML, like Gecko) Chrome/103.0.5060.114 Safari/537.36 Edg/103.0.1264.49","WebKit","Edge","103.0.1264.49","Windows","10.0","1570","<p><strong>请判断你在多大程度上同意下列陈述。</strong></p>","0",""
"","","","","","survey-likert","143","989036","0.0-16.0","240","1","2022-10-12 11:33:01","d60b49b5908c80e163b920d72b52d584","223.79.240.212","Mozilla/5.0 (Windows NT 10.0; Win64; x64) AppleWebKit/537.36 (KHTML, like Gecko) Chrome/103.0.5060.114 Safari/537.36 Edg/103.0.1264.49","WebKit","Edge","103.0.1264.49","Windows","10.0","69115","","{""sdo15"":6,""sdo16"":6,""sdo3"":1,""sdo4"":0,""sdo1"":0,""sdo13"":6,""sdo12"":6,""sdo8"":0,""sdo9"":5,""sdo7"":1,""sdo2"":0,""sdo6"":1,""sdo5"":1,""sdo10"":6,""sdo11"":5,""sdo14"":6}","[14,15,2,3,0,12,11,7,8,6,1,5,4,9,10,13]"
"","","","","","html-button-response","144","990566","0.0-17.0","240","1","2022-10-12 11:33:01","d60b49b5908c80e163b920d72b52d584","223.79.240.212","Mozilla/5.0 (Windows NT 10.0; Win64; x64) AppleWebKit/537.36 (KHTML, like Gecko) Chrome/103.0.5060.114 Safari/537.36 Edg/103.0.1264.49","WebKit","Edge","103.0.1264.49","Windows","10.0","1526","<p><strong>请判断你在多大程度上同意下列陈述。</strong></p>","0",""
"","","","","","survey-likert","145","1029732","0.0-18.0","240","1","2022-10-12 11:33:01","d60b49b5908c80e163b920d72b52d584","223.79.240.212","Mozilla/5.0 (Windows NT 10.0; Win64; x64) AppleWebKit/537.36 (KHTML, like Gecko) Chrome/103.0.5060.114 Safari/537.36 Edg/103.0.1264.49","WebKit","Edge","103.0.1264.49","Windows","10.0","39163","","{""caring1"":3,""liking1"":0,""caring2"":3,""protection1"":4,""liking2"":1,""caring3"":4,""protection2"":1,""liking3"":0,""protection3"":4,""caring4"":4,""liking4"":0,""protection4"":3,""caring5"":3,""liking5"":1,""protection5"":3}","[0,1,2,3,4,5,6,7,8,9,10,11,12,13,14]"
"","","","","","html-button-response","146","1033685","0.0-19.0","240","1","2022-10-12 11:33:01","d60b49b5908c80e163b920d72b52d584","223.79.240.212","Mozilla/5.0 (Windows NT 10.0; Win64; x64) AppleWebKit/537.36 (KHTML, like Gecko) Chrome/103.0.5060.114 Safari/537.36 Edg/103.0.1264.49","WebKit","Edge","103.0.1264.49","Windows","10.0","3949","<p><strong>请判断下列场景中你的内心感受有多柔软。</strong></p>","0",""
"","","","","","survey-likert","147","1058371","0.0-20.0","240","1","2022-10-12 11:33:01","d60b49b5908c80e163b920d72b52d584","223.79.240.212","Mozilla/5.0 (Windows NT 10.0; Win64; x64) AppleWebKit/537.36 (KHTML, like Gecko) Chrome/103.0.5060.114 Safari/537.36 Edg/103.0.1264.49","WebKit","Edge","103.0.1264.49","Windows","10.0","24682","","{""tenderness-positive1"":4,""tenderness-negative1"":3,""tenderness-negative2"":1,""tenderness-positive2"":4,""tenderness-positive3"":3,""tenderness-negative3"":3,""tenderness-positive4"":4,""tendereness-negative4"":3,""tendernness-negative5"":3,""tenderness-positive5"":4}","[0,1,2,3,4,5,6,7,8,9]"
"","","","","","survey-multi-choice","148","1066560","0.0-21.0","240","1","2022-10-12 11:33:01","d60b49b5908c80e163b920d72b52d584","223.79.240.212","Mozilla/5.0 (Windows NT 10.0; Win64; x64) AppleWebKit/537.36 (KHTML, like Gecko) Chrome/103.0.5060.114 Safari/537.36 Edg/103.0.1264.49","WebKit","Edge","103.0.1264.49","Windows","10.0","8186","","{""Attention2"":""其他""}","[0]"
"","","","","","html-button-response","149","1067786","0.0-22.0","240","1","2022-10-12 11:33:01","d60b49b5908c80e163b920d72b52d584","223.79.240.212","Mozilla/5.0 (Windows NT 10.0; Win64; x64) AppleWebKit/537.36 (KHTML, like Gecko) Chrome/103.0.5060.114 Safari/537.36 Edg/103.0.1264.49","WebKit","Edge","103.0.1264.49","Windows","10.0","1222","<p><strong>请判断你在多大程度上同意下列陈述。</strong></p>","0",""
"","","","","","survey-likert","150","1130068","0.0-23.0","240","1","2022-10-12 11:33:01","d60b49b5908c80e163b920d72b52d584","223.79.240.212","Mozilla/5.0 (Windows NT 10.0; Win64; x64) AppleWebKit/537.36 (KHTML, like Gecko) Chrome/103.0.5060.114 Safari/537.36 Edg/103.0.1264.49","WebKit","Edge","103.0.1264.49","Windows","10.0","62280","","{""Patri9"":0,""Patri8"":4,""Patri5"":4,""Patri4"":3,""Nation1"":4,""Nation5"":4,""Nation6"":3,""Patri10"":0,""Patri12"":0,""Patri1"":4,""Patri3"":4,""Nation2"":3,""Nation7"":4,""Patri2"":4,""Patri11"":0,""Nation8"":1,""Nation3"":3,""Nation4"":4,""Patri6"":0,""Patri7"":4}","[8,7,4,3,12,16,17,9,11,0,2,13,18,1,10,19,14,15,5,6]"
"","","","","","html-button-response","151","1131782","0.0-24.0","240","1","2022-10-12 11:33:01","d60b49b5908c80e163b920d72b52d584","223.79.240.212","Mozilla/5.0 (Windows NT 10.0; Win64; x64) AppleWebKit/537.36 (KHTML, like Gecko) Chrome/103.0.5060.114 Safari/537.36 Edg/103.0.1264.49","WebKit","Edge","103.0.1264.49","Windows","10.0","1710","<p><strong>请判断你在多大程度上同意下列陈述。</strong></p>","0",""
"","","","","","survey-likert","152","1179131","0.0-25.0","240","1","2022-10-12 11:33:01","d60b49b5908c80e163b920d72b52d584","223.79.240.212","Mozilla/5.0 (Windows NT 10.0; Win64; x64) AppleWebKit/537.36 (KHTML, like Gecko) Chrome/103.0.5060.114 Safari/537.36 Edg/103.0.1264.49","WebKit","Edge","103.0.1264.49","Windows","10.0","47345","","{""vc4"":8,""hi1"":7,""vc1"":8,""hi4"":8,""hi2"":7,""Robot"":6,""hc1"":8,""hc3"":7,""hc2"":8,""vi1"":5,""vi4"":1,""vi2"":0,""vc3"":5,""vi3"":8,""hi3"":0,""hc4"":7,""vc2"":6}","[16,0,13,3,1,7,9,11,10,4,8,5,15,6,2,12,14]"
"","","","","","survey-text","153","1182524","0.0-26.0","240","1","2022-10-12 11:33:01","d60b49b5908c80e163b920d72b52d584","223.79.240.212","Mozilla/5.0 (Windows NT 10.0; Win64; x64) AppleWebKit/537.36 (KHTML, like Gecko) Chrome/103.0.5060.114 Safari/537.36 Edg/103.0.1264.49","WebKit","Edge","103.0.1264.49","Windows","10.0","3383","","{""Comments"":""""}",""
"","","","","","html-button-response","154","1183845","0.0-27.0","240","1","2022-10-12 11:33:01","d60b49b5908c80e163b920d72b52d584","223.79.240.212","Mozilla/5.0 (Windows NT 10.0; Win64; x64) AppleWebKit/537.36 (KHTML, like Gecko) Chrome/103.0.5060.114 Safari/537.36 Edg/103.0.1264.49","WebKit","Edge","103.0.1264.49","Windows","10.0","1319","<strong><p>恭喜你完成了实验！</p><p>感谢您的参与。</p></strong>","0",""
