"success","timeout","failed_images","failed_audio","failed_video","trial_type","trial_index","time_elapsed","internal_node_id","run_id","condition","recorded_at","source_code_version","ip","user_agent","device","browser","browser_version","platform","platform_version","rt","stimulus","response","question_order"
"true","false","[]","[]","[]","preload","0","2806","0.0-0.0","25","1","2022-10-07 05:58:18","d60b49b5908c80e163b920d72b52d584","116.8.231.189","Mozilla/5.0 (Windows NT 10.0; Win64; x64) AppleWebKit/537.36 (KHTML, like Gecko) Chrome/106.0.0.0 Safari/537.36 Edg/106.0.1370.34","WebKit","Edge","106.0.1370.34","Windows","10.0","","","",""
"true","","","","","fullscreen","1","5966","0.0-1.0","25","1","2022-10-07 05:58:18","d60b49b5908c80e163b920d72b52d584","116.8.231.189","Mozilla/5.0 (Windows NT 10.0; Win64; x64) AppleWebKit/537.36 (KHTML, like Gecko) Chrome/106.0.0.0 Safari/537.36 Edg/106.0.1370.34","WebKit","Edge","106.0.1370.34","Windows","10.0","","","",""
"","","","","","html-button-response","2","1324329","0.0-2.0","25","1","2022-10-07 05:58:18","d60b49b5908c80e163b920d72b52d584","116.8.231.189","Mozilla/5.0 (Windows NT 10.0; Win64; x64) AppleWebKit/537.36 (KHTML, like Gecko) Chrome/106.0.0.0 Safari/537.36 Edg/106.0.1370.34","WebKit","Edge","106.0.1370.34","Windows","10.0","1318361","<p style=""font-size:20px;font-weight:bold;"">实验知情同意书</p><p style=""text-align:left;""><strong>实验名称：</strong>社会冲突研究</p><p style=""text-align:left;""><strong>主要研究者：</strong>韩晓春副教授（北京师范大学心理学部）</p><p style=""text-align:left;""><strong>联系方式：</strong>发送邮件至xiaochun.han@bnu.edu.cn</p><p style=""text-align:left;""><strong>研究目的：</strong>研究旨在了解人类面对群体冲突时的决策方式，以及相关的心理学特质。实验调查大约需要20分钟。</p><p style=""text-align:left;""><strong>实验流程：</strong>实验包含两部分。第一部分呈现一系列群体冲突场景，请你决定如何对这些冲突进行反应，大约需要10分钟完成。第二部分包含一系列人口统计学信息收集和心理学问卷，大约需要10分钟完成。</p><p style=""text-align:left;""><strong>参加及退出规则：</strong>参加本实验完全取决于您的个人意愿。在参与过程中，您可以随时退出，并且不用承担任何后果。</p><p style=""text-align:left;""><strong>隐私：</strong>本实验完全匿名进行，不会收集您的姓名或其他能够识别您身份的信息。实验中收集的作答仅用作科学研究使用，可能会在学术期刊/书籍上发表，或者用于教学，您的数据未来可能会和其他研究者或实验室分享，但您的个人身份不会被识别。</p><p style=""text-align:left;""><strong>实验报酬：</strong>实验完成后，您将获得15元人民币报酬，以感谢您的时间和努力。调查问卷中包含几道题目用以测验您作答时的认真度。只有完成全部实验，并且正确回答认真度测验的被试才能获得实验报酬。实验报酬将通过支付宝转账发放。</p><p style=""text-align:left;font-size:20px;""><strong>如果您同意以上实验知情同意书的内容，请点击'同意并且开始实验'按钮；否则请关闭浏览器界面，退出实验。</strong></p>","0",""
"","","","","","html-button-response","3","1359018","0.0-3.0","25","1","2022-10-07 05:58:18","d60b49b5908c80e163b920d72b52d584","116.8.231.189","Mozilla/5.0 (Windows NT 10.0; Win64; x64) AppleWebKit/537.36 (KHTML, like Gecko) Chrome/106.0.0.0 Safari/537.36 Edg/106.0.1370.34","WebKit","Edge","106.0.1370.34","Windows","10.0","34687","<p ><strong>实验任务一：</strong></p><p>请想象你的国家与另一个国家发生了军事冲突。</p><p>你是国家军队的指挥官，你将如何在冲突中进行决策。</p><p>具体来说，作为军队指挥官，请你决定是否发射导弹进行打击。</p><p>接下来，你会面对一系列场景，请仔细阅读每个场景，然后进行决策。</p><p>这部分实验任务大约需要10分钟。</p><p><strong>实验过程中，请集中注意力。</strong></p>","0",""
"","","","","","html-keyboard-response","4","1360019","0.0-4.0-0.0","25","1","2022-10-07 05:58:18","d60b49b5908c80e163b920d72b52d584","116.8.231.189","Mozilla/5.0 (Windows NT 10.0; Win64; x64) AppleWebKit/537.36 (KHTML, like Gecko) Chrome/106.0.0.0 Safari/537.36 Edg/106.0.1370.34","WebKit","Edge","106.0.1370.34","Windows","10.0","null","<div style=""font-size:60px;"">+</div>","null",""
"","","","","","html-button-response","5","1367600","0.0-4.0-1.0","25","1","2022-10-07 05:58:18","d60b49b5908c80e163b920d72b52d584","116.8.231.189","Mozilla/5.0 (Windows NT 10.0; Win64; x64) AppleWebKit/537.36 (KHTML, like Gecko) Chrome/106.0.0.0 Safari/537.36 Edg/106.0.1370.34","WebKit","Edge","106.0.1370.34","Windows","10.0","7576","<p>作为军队的指挥官，你可以选择发射导弹杀死 <strong>8名</strong> 敌国士兵，但会炸毁附近的 <strong>1棵</strong> 敌国树木。</p> <p>树木的照片如下图所示。</p> <p></p> <img src='stimuli/trees/13.png', style='max-width: 30%;'> </img> <p><strong>你是否选择发射武器？</strong></p>","0",""
"","","","","","html-keyboard-response","6","1368602","0.0-4.0-0.1","25","1","2022-10-07 05:58:18","d60b49b5908c80e163b920d72b52d584","116.8.231.189","Mozilla/5.0 (Windows NT 10.0; Win64; x64) AppleWebKit/537.36 (KHTML, like Gecko) Chrome/106.0.0.0 Safari/537.36 Edg/106.0.1370.34","WebKit","Edge","106.0.1370.34","Windows","10.0","null","<div style=""font-size:60px;"">+</div>","null",""
"","","","","","html-button-response","7","1372619","0.0-4.0-1.1","25","1","2022-10-07 05:58:18","d60b49b5908c80e163b920d72b52d584","116.8.231.189","Mozilla/5.0 (Windows NT 10.0; Win64; x64) AppleWebKit/537.36 (KHTML, like Gecko) Chrome/106.0.0.0 Safari/537.36 Edg/106.0.1370.34","WebKit","Edge","106.0.1370.34","Windows","10.0","4015","<p>作为军队的指挥官，你可以选择发射导弹杀死 <strong>5名</strong> 敌国士兵，但会误杀附近的 <strong>1名</strong> 敌国平民。</p> <p>平民照片如下图所示。</p> <p></p> <img src='stimuli/faces/NCM5.jpg', style='max-width: 30%;'> </img> <p><strong>你是否选择发射武器？</strong></p>","0",""
"","","","","","html-keyboard-response","8","1373622","0.0-4.0-0.2","25","1","2022-10-07 05:58:18","d60b49b5908c80e163b920d72b52d584","116.8.231.189","Mozilla/5.0 (Windows NT 10.0; Win64; x64) AppleWebKit/537.36 (KHTML, like Gecko) Chrome/106.0.0.0 Safari/537.36 Edg/106.0.1370.34","WebKit","Edge","106.0.1370.34","Windows","10.0","null","<div style=""font-size:60px;"">+</div>","null",""
"","","","","","html-button-response","9","1377837","0.0-4.0-1.2","25","1","2022-10-07 05:58:18","d60b49b5908c80e163b920d72b52d584","116.8.231.189","Mozilla/5.0 (Windows NT 10.0; Win64; x64) AppleWebKit/537.36 (KHTML, like Gecko) Chrome/106.0.0.0 Safari/537.36 Edg/106.0.1370.34","WebKit","Edge","106.0.1370.34","Windows","10.0","4212","<p>作为军队的指挥官，你可以选择发射导弹杀死 <strong>1名</strong> 敌国士兵，但会炸毁附近的 <strong>1棵</strong> 敌国树木。</p> <p>树木的照片如下图所示。</p> <p></p> <img src='stimuli/trees/2.png', style='max-width: 30%;'> </img> <p><strong>你是否选择发射武器？</strong></p>","0",""
"","","","","","html-keyboard-response","10","1378840","0.0-4.0-0.3","25","1","2022-10-07 05:58:18","d60b49b5908c80e163b920d72b52d584","116.8.231.189","Mozilla/5.0 (Windows NT 10.0; Win64; x64) AppleWebKit/537.36 (KHTML, like Gecko) Chrome/106.0.0.0 Safari/537.36 Edg/106.0.1370.34","WebKit","Edge","106.0.1370.34","Windows","10.0","null","<div style=""font-size:60px;"">+</div>","null",""
"","","","","","html-button-response","11","1383960","0.0-4.0-1.3","25","1","2022-10-07 05:58:18","d60b49b5908c80e163b920d72b52d584","116.8.231.189","Mozilla/5.0 (Windows NT 10.0; Win64; x64) AppleWebKit/537.36 (KHTML, like Gecko) Chrome/106.0.0.0 Safari/537.36 Edg/106.0.1370.34","WebKit","Edge","106.0.1370.34","Windows","10.0","5118","<p>作为军队的指挥官，你可以选择发射导弹杀死 <strong>3名</strong> 敌国士兵，但会误杀附近的 <strong>1名</strong> 敌国平民。</p> <p>平民照片如下图所示。</p> <p></p> <img src='stimuli/faces/NCM2.jpg', style='max-width: 30%;'> </img> <p><strong>你是否选择发射武器？</strong></p>","0",""
"","","","","","html-keyboard-response","12","1384963","0.0-4.0-0.4","25","1","2022-10-07 05:58:18","d60b49b5908c80e163b920d72b52d584","116.8.231.189","Mozilla/5.0 (Windows NT 10.0; Win64; x64) AppleWebKit/537.36 (KHTML, like Gecko) Chrome/106.0.0.0 Safari/537.36 Edg/106.0.1370.34","WebKit","Edge","106.0.1370.34","Windows","10.0","null","<div style=""font-size:60px;"">+</div>","null",""
"","","","","","html-button-response","13","1388871","0.0-4.0-1.4","25","1","2022-10-07 05:58:18","d60b49b5908c80e163b920d72b52d584","116.8.231.189","Mozilla/5.0 (Windows NT 10.0; Win64; x64) AppleWebKit/537.36 (KHTML, like Gecko) Chrome/106.0.0.0 Safari/537.36 Edg/106.0.1370.34","WebKit","Edge","106.0.1370.34","Windows","10.0","3905","<p>作为军队的指挥官，你可以选择发射导弹杀死 <strong>3名</strong> 敌国士兵，但会误杀附近的 <strong>1名</strong> 敌国平民。</p> <p>平民照片如下图所示。</p> <p></p> <img src='stimuli/faces/NCF2.jpg', style='max-width: 30%;'> </img> <p><strong>你是否选择发射武器？</strong></p>","0",""
"","","","","","html-keyboard-response","14","1389873","0.0-4.0-0.5","25","1","2022-10-07 05:58:18","d60b49b5908c80e163b920d72b52d584","116.8.231.189","Mozilla/5.0 (Windows NT 10.0; Win64; x64) AppleWebKit/537.36 (KHTML, like Gecko) Chrome/106.0.0.0 Safari/537.36 Edg/106.0.1370.34","WebKit","Edge","106.0.1370.34","Windows","10.0","null","<div style=""font-size:60px;"">+</div>","null",""
"","","","","","html-button-response","15","1391830","0.0-4.0-1.5","25","1","2022-10-07 05:58:18","d60b49b5908c80e163b920d72b52d584","116.8.231.189","Mozilla/5.0 (Windows NT 10.0; Win64; x64) AppleWebKit/537.36 (KHTML, like Gecko) Chrome/106.0.0.0 Safari/537.36 Edg/106.0.1370.34","WebKit","Edge","106.0.1370.34","Windows","10.0","1955","<p>作为军队的指挥官，你可以选择发射导弹杀死 <strong>10名</strong> 敌国士兵，但会炸毁附近的 <strong>1棵</strong> 敌国树木。</p> <p>树木的照片如下图所示。</p> <p></p> <img src='stimuli/trees/4.png', style='max-width: 30%;'> </img> <p><strong>你是否选择发射武器？</strong></p>","0",""
"","","","","","html-keyboard-response","16","1392832","0.0-4.0-0.6","25","1","2022-10-07 05:58:18","d60b49b5908c80e163b920d72b52d584","116.8.231.189","Mozilla/5.0 (Windows NT 10.0; Win64; x64) AppleWebKit/537.36 (KHTML, like Gecko) Chrome/106.0.0.0 Safari/537.36 Edg/106.0.1370.34","WebKit","Edge","106.0.1370.34","Windows","10.0","null","<div style=""font-size:60px;"">+</div>","null",""
"","","","","","html-button-response","17","1394523","0.0-4.0-1.6","25","1","2022-10-07 05:58:18","d60b49b5908c80e163b920d72b52d584","116.8.231.189","Mozilla/5.0 (Windows NT 10.0; Win64; x64) AppleWebKit/537.36 (KHTML, like Gecko) Chrome/106.0.0.0 Safari/537.36 Edg/106.0.1370.34","WebKit","Edge","106.0.1370.34","Windows","10.0","1687","<p>作为军队的指挥官，你可以选择发射导弹杀死 <strong>2名</strong> 敌国士兵，但会炸毁附近的 <strong>1棵</strong> 敌国树木。</p> <p>树木的照片如下图所示。</p> <p></p> <img src='stimuli/trees/8.png', style='max-width: 30%;'> </img> <p><strong>你是否选择发射武器？</strong></p>","0",""
"","","","","","html-keyboard-response","18","1395525","0.0-4.0-0.7","25","1","2022-10-07 05:58:18","d60b49b5908c80e163b920d72b52d584","116.8.231.189","Mozilla/5.0 (Windows NT 10.0; Win64; x64) AppleWebKit/537.36 (KHTML, like Gecko) Chrome/106.0.0.0 Safari/537.36 Edg/106.0.1370.34","WebKit","Edge","106.0.1370.34","Windows","10.0","null","<div style=""font-size:60px;"">+</div>","null",""
"","","","","","html-button-response","19","1397218","0.0-4.0-1.7","25","1","2022-10-07 05:58:18","d60b49b5908c80e163b920d72b52d584","116.8.231.189","Mozilla/5.0 (Windows NT 10.0; Win64; x64) AppleWebKit/537.36 (KHTML, like Gecko) Chrome/106.0.0.0 Safari/537.36 Edg/106.0.1370.34","WebKit","Edge","106.0.1370.34","Windows","10.0","1690","<p>作为军队的指挥官，你可以选择发射导弹杀死 <strong>9名</strong> 敌国士兵，但会炸毁附近的 <strong>1棵</strong> 敌国树木。</p> <p>树木的照片如下图所示。</p> <p></p> <img src='stimuli/trees/6.png', style='max-width: 30%;'> </img> <p><strong>你是否选择发射武器？</strong></p>","0",""
"","","","","","html-keyboard-response","20","1398220","0.0-4.0-0.8","25","1","2022-10-07 05:58:18","d60b49b5908c80e163b920d72b52d584","116.8.231.189","Mozilla/5.0 (Windows NT 10.0; Win64; x64) AppleWebKit/537.36 (KHTML, like Gecko) Chrome/106.0.0.0 Safari/537.36 Edg/106.0.1370.34","WebKit","Edge","106.0.1370.34","Windows","10.0","null","<div style=""font-size:60px;"">+</div>","null",""
"","","","","","html-button-response","21","1401738","0.0-4.0-1.8","25","1","2022-10-07 05:58:18","d60b49b5908c80e163b920d72b52d584","116.8.231.189","Mozilla/5.0 (Windows NT 10.0; Win64; x64) AppleWebKit/537.36 (KHTML, like Gecko) Chrome/106.0.0.0 Safari/537.36 Edg/106.0.1370.34","WebKit","Edge","106.0.1370.34","Windows","10.0","3515","<p>作为军队的指挥官，你可以选择发射导弹杀死 <strong>9名</strong> 敌国士兵，但会炸毁附近的 <strong>1棵</strong> 敌国树木。</p> <p>树木的照片如下图所示。</p> <p></p> <img src='stimuli/trees/1.png', style='max-width: 30%;'> </img> <p><strong>你是否选择发射武器？</strong></p>","0",""
"","","","","","html-keyboard-response","22","1402740","0.0-4.0-0.9","25","1","2022-10-07 05:58:18","d60b49b5908c80e163b920d72b52d584","116.8.231.189","Mozilla/5.0 (Windows NT 10.0; Win64; x64) AppleWebKit/537.36 (KHTML, like Gecko) Chrome/106.0.0.0 Safari/537.36 Edg/106.0.1370.34","WebKit","Edge","106.0.1370.34","Windows","10.0","null","<div style=""font-size:60px;"">+</div>","null",""
"","","","","","html-button-response","23","1403837","0.0-4.0-1.9","25","1","2022-10-07 05:58:18","d60b49b5908c80e163b920d72b52d584","116.8.231.189","Mozilla/5.0 (Windows NT 10.0; Win64; x64) AppleWebKit/537.36 (KHTML, like Gecko) Chrome/106.0.0.0 Safari/537.36 Edg/106.0.1370.34","WebKit","Edge","106.0.1370.34","Windows","10.0","1094","<p>作为军队的指挥官，你可以选择发射导弹杀死 <strong>2名</strong> 敌国士兵，但会误杀附近的 <strong>1名</strong> 敌国平民。</p> <p>平民照片如下图所示。</p> <p></p> <img src='stimuli/faces/NCM1.jpg', style='max-width: 30%;'> </img> <p><strong>你是否选择发射武器？</strong></p>","0",""
"","","","","","html-keyboard-response","24","1404839","0.0-4.0-0.10","25","1","2022-10-07 05:58:18","d60b49b5908c80e163b920d72b52d584","116.8.231.189","Mozilla/5.0 (Windows NT 10.0; Win64; x64) AppleWebKit/537.36 (KHTML, like Gecko) Chrome/106.0.0.0 Safari/537.36 Edg/106.0.1370.34","WebKit","Edge","106.0.1370.34","Windows","10.0","null","<div style=""font-size:60px;"">+</div>","null",""
"","","","","","html-button-response","25","1406453","0.0-4.0-1.10","25","1","2022-10-07 05:58:18","d60b49b5908c80e163b920d72b52d584","116.8.231.189","Mozilla/5.0 (Windows NT 10.0; Win64; x64) AppleWebKit/537.36 (KHTML, like Gecko) Chrome/106.0.0.0 Safari/537.36 Edg/106.0.1370.34","WebKit","Edge","106.0.1370.34","Windows","10.0","1611","<p>作为军队的指挥官，你可以选择发射导弹杀死 <strong>4名</strong> 敌国士兵，但会炸毁附近的 <strong>1棵</strong> 敌国树木。</p> <p>树木的照片如下图所示。</p> <p></p> <img src='stimuli/trees/15.png', style='max-width: 30%;'> </img> <p><strong>你是否选择发射武器？</strong></p>","0",""
"","","","","","html-keyboard-response","26","1407455","0.0-4.0-0.11","25","1","2022-10-07 05:58:18","d60b49b5908c80e163b920d72b52d584","116.8.231.189","Mozilla/5.0 (Windows NT 10.0; Win64; x64) AppleWebKit/537.36 (KHTML, like Gecko) Chrome/106.0.0.0 Safari/537.36 Edg/106.0.1370.34","WebKit","Edge","106.0.1370.34","Windows","10.0","null","<div style=""font-size:60px;"">+</div>","null",""
"","","","","","html-button-response","27","1412084","0.0-4.0-1.11","25","1","2022-10-07 05:58:18","d60b49b5908c80e163b920d72b52d584","116.8.231.189","Mozilla/5.0 (Windows NT 10.0; Win64; x64) AppleWebKit/537.36 (KHTML, like Gecko) Chrome/106.0.0.0 Safari/537.36 Edg/106.0.1370.34","WebKit","Edge","106.0.1370.34","Windows","10.0","4625","<p>作为军队的指挥官，你可以选择发射导弹杀死 <strong>9名</strong> 敌国士兵，但会炸毁附近的 <strong>1棵</strong> 敌国树木。</p> <p>树木的照片如下图所示。</p> <p></p> <img src='stimuli/trees/9.png', style='max-width: 30%;'> </img> <p><strong>你是否选择发射武器？</strong></p>","0",""
"","","","","","html-keyboard-response","28","1413087","0.0-4.0-0.12","25","1","2022-10-07 05:58:18","d60b49b5908c80e163b920d72b52d584","116.8.231.189","Mozilla/5.0 (Windows NT 10.0; Win64; x64) AppleWebKit/537.36 (KHTML, like Gecko) Chrome/106.0.0.0 Safari/537.36 Edg/106.0.1370.34","WebKit","Edge","106.0.1370.34","Windows","10.0","null","<div style=""font-size:60px;"">+</div>","null",""
"","","","","","html-button-response","29","1417174","0.0-4.0-1.12","25","1","2022-10-07 05:58:18","d60b49b5908c80e163b920d72b52d584","116.8.231.189","Mozilla/5.0 (Windows NT 10.0; Win64; x64) AppleWebKit/537.36 (KHTML, like Gecko) Chrome/106.0.0.0 Safari/537.36 Edg/106.0.1370.34","WebKit","Edge","106.0.1370.34","Windows","10.0","4083","<p>作为军队的指挥官，你可以选择发射导弹杀死 <strong>5名</strong> 敌国士兵，但会误杀附近的 <strong>1名</strong> 敌国平民。</p> <p>平民照片如下图所示。</p> <p></p> <img src='stimuli/faces/NCF6.jpg', style='max-width: 30%;'> </img> <p><strong>你是否选择发射武器？</strong></p>","1",""
"","","","","","html-keyboard-response","30","1418177","0.0-4.0-0.13","25","1","2022-10-07 05:58:18","d60b49b5908c80e163b920d72b52d584","116.8.231.189","Mozilla/5.0 (Windows NT 10.0; Win64; x64) AppleWebKit/537.36 (KHTML, like Gecko) Chrome/106.0.0.0 Safari/537.36 Edg/106.0.1370.34","WebKit","Edge","106.0.1370.34","Windows","10.0","null","<div style=""font-size:60px;"">+</div>","null",""
"","","","","","html-button-response","31","1419582","0.0-4.0-1.13","25","1","2022-10-07 05:58:18","d60b49b5908c80e163b920d72b52d584","116.8.231.189","Mozilla/5.0 (Windows NT 10.0; Win64; x64) AppleWebKit/537.36 (KHTML, like Gecko) Chrome/106.0.0.0 Safari/537.36 Edg/106.0.1370.34","WebKit","Edge","106.0.1370.34","Windows","10.0","1402","<p>作为军队的指挥官，你可以选择发射导弹杀死 <strong>6名</strong> 敌国士兵，但会误杀附近的 <strong>1名</strong> 敌国平民。</p> <p>平民照片如下图所示。</p> <p></p> <img src='stimuli/faces/NCF1.jpg', style='max-width: 30%;'> </img> <p><strong>你是否选择发射武器？</strong></p>","0",""
"","","","","","html-keyboard-response","32","1420584","0.0-4.0-0.14","25","1","2022-10-07 05:58:18","d60b49b5908c80e163b920d72b52d584","116.8.231.189","Mozilla/5.0 (Windows NT 10.0; Win64; x64) AppleWebKit/537.36 (KHTML, like Gecko) Chrome/106.0.0.0 Safari/537.36 Edg/106.0.1370.34","WebKit","Edge","106.0.1370.34","Windows","10.0","null","<div style=""font-size:60px;"">+</div>","null",""
"","","","","","html-button-response","33","1421569","0.0-4.0-1.14","25","1","2022-10-07 05:58:18","d60b49b5908c80e163b920d72b52d584","116.8.231.189","Mozilla/5.0 (Windows NT 10.0; Win64; x64) AppleWebKit/537.36 (KHTML, like Gecko) Chrome/106.0.0.0 Safari/537.36 Edg/106.0.1370.34","WebKit","Edge","106.0.1370.34","Windows","10.0","981","<p>作为军队的指挥官，你可以选择发射导弹杀死 <strong>2名</strong> 敌国士兵，但会误杀附近的 <strong>1名</strong> 敌国平民。</p> <p>平民照片如下图所示。</p> <p></p> <img src='stimuli/faces/NCF8.jpg', style='max-width: 30%;'> </img> <p><strong>你是否选择发射武器？</strong></p>","0",""
"","","","","","html-keyboard-response","34","1422573","0.0-4.0-0.15","25","1","2022-10-07 05:58:18","d60b49b5908c80e163b920d72b52d584","116.8.231.189","Mozilla/5.0 (Windows NT 10.0; Win64; x64) AppleWebKit/537.36 (KHTML, like Gecko) Chrome/106.0.0.0 Safari/537.36 Edg/106.0.1370.34","WebKit","Edge","106.0.1370.34","Windows","10.0","null","<div style=""font-size:60px;"">+</div>","null",""
"","","","","","html-button-response","35","1423583","0.0-4.0-1.15","25","1","2022-10-07 05:58:18","d60b49b5908c80e163b920d72b52d584","116.8.231.189","Mozilla/5.0 (Windows NT 10.0; Win64; x64) AppleWebKit/537.36 (KHTML, like Gecko) Chrome/106.0.0.0 Safari/537.36 Edg/106.0.1370.34","WebKit","Edge","106.0.1370.34","Windows","10.0","1007","<p>作为军队的指挥官，你可以选择发射导弹杀死 <strong>6名</strong> 敌国士兵，但会炸毁附近的 <strong>1棵</strong> 敌国树木。</p> <p>树木的照片如下图所示。</p> <p></p> <img src='stimuli/trees/10.png', style='max-width: 30%;'> </img> <p><strong>你是否选择发射武器？</strong></p>","0",""
"","","","","","html-keyboard-response","36","1424586","0.0-4.0-0.16","25","1","2022-10-07 05:58:18","d60b49b5908c80e163b920d72b52d584","116.8.231.189","Mozilla/5.0 (Windows NT 10.0; Win64; x64) AppleWebKit/537.36 (KHTML, like Gecko) Chrome/106.0.0.0 Safari/537.36 Edg/106.0.1370.34","WebKit","Edge","106.0.1370.34","Windows","10.0","null","<div style=""font-size:60px;"">+</div>","null",""
"","","","","","html-button-response","37","1426695","0.0-4.0-1.16","25","1","2022-10-07 05:58:18","d60b49b5908c80e163b920d72b52d584","116.8.231.189","Mozilla/5.0 (Windows NT 10.0; Win64; x64) AppleWebKit/537.36 (KHTML, like Gecko) Chrome/106.0.0.0 Safari/537.36 Edg/106.0.1370.34","WebKit","Edge","106.0.1370.34","Windows","10.0","2106","<p>作为军队的指挥官，你可以选择发射导弹杀死 <strong>1名</strong> 敌国士兵，但会炸毁附近的 <strong>1棵</strong> 敌国树木。</p> <p>树木的照片如下图所示。</p> <p></p> <img src='stimuli/trees/3.png', style='max-width: 30%;'> </img> <p><strong>你是否选择发射武器？</strong></p>","0",""
"","","","","","html-keyboard-response","38","1427697","0.0-4.0-0.17","25","1","2022-10-07 05:58:18","d60b49b5908c80e163b920d72b52d584","116.8.231.189","Mozilla/5.0 (Windows NT 10.0; Win64; x64) AppleWebKit/537.36 (KHTML, like Gecko) Chrome/106.0.0.0 Safari/537.36 Edg/106.0.1370.34","WebKit","Edge","106.0.1370.34","Windows","10.0","null","<div style=""font-size:60px;"">+</div>","null",""
"","","","","","html-button-response","39","1430445","0.0-4.0-1.17","25","1","2022-10-07 05:58:18","d60b49b5908c80e163b920d72b52d584","116.8.231.189","Mozilla/5.0 (Windows NT 10.0; Win64; x64) AppleWebKit/537.36 (KHTML, like Gecko) Chrome/106.0.0.0 Safari/537.36 Edg/106.0.1370.34","WebKit","Edge","106.0.1370.34","Windows","10.0","2744","<p>作为军队的指挥官，你可以选择发射导弹杀死 <strong>8名</strong> 敌国士兵，但会误杀附近的 <strong>1名</strong> 敌国平民。</p> <p>平民照片如下图所示。</p> <p></p> <img src='stimuli/faces/NCM2.jpg', style='max-width: 30%;'> </img> <p><strong>你是否选择发射武器？</strong></p>","0",""
"","","","","","html-keyboard-response","40","1431448","0.0-4.0-0.18","25","1","2022-10-07 05:58:18","d60b49b5908c80e163b920d72b52d584","116.8.231.189","Mozilla/5.0 (Windows NT 10.0; Win64; x64) AppleWebKit/537.36 (KHTML, like Gecko) Chrome/106.0.0.0 Safari/537.36 Edg/106.0.1370.34","WebKit","Edge","106.0.1370.34","Windows","10.0","null","<div style=""font-size:60px;"">+</div>","null",""
"","","","","","html-button-response","41","1432923","0.0-4.0-1.18","25","1","2022-10-07 05:58:18","d60b49b5908c80e163b920d72b52d584","116.8.231.189","Mozilla/5.0 (Windows NT 10.0; Win64; x64) AppleWebKit/537.36 (KHTML, like Gecko) Chrome/106.0.0.0 Safari/537.36 Edg/106.0.1370.34","WebKit","Edge","106.0.1370.34","Windows","10.0","1471","<p>作为军队的指挥官，你可以选择发射导弹杀死 <strong>6名</strong> 敌国士兵，但会误杀附近的 <strong>1名</strong> 敌国平民。</p> <p>平民照片如下图所示。</p> <p></p> <img src='stimuli/faces/NCF3.jpg', style='max-width: 30%;'> </img> <p><strong>你是否选择发射武器？</strong></p>","0",""
"","","","","","html-keyboard-response","42","1433926","0.0-4.0-0.19","25","1","2022-10-07 05:58:18","d60b49b5908c80e163b920d72b52d584","116.8.231.189","Mozilla/5.0 (Windows NT 10.0; Win64; x64) AppleWebKit/537.36 (KHTML, like Gecko) Chrome/106.0.0.0 Safari/537.36 Edg/106.0.1370.34","WebKit","Edge","106.0.1370.34","Windows","10.0","null","<div style=""font-size:60px;"">+</div>","null",""
"","","","","","html-button-response","43","1463595","0.0-4.0-1.19","25","1","2022-10-07 05:58:18","d60b49b5908c80e163b920d72b52d584","116.8.231.189","Mozilla/5.0 (Windows NT 10.0; Win64; x64) AppleWebKit/537.36 (KHTML, like Gecko) Chrome/106.0.0.0 Safari/537.36 Edg/106.0.1370.34","WebKit","Edge","106.0.1370.34","Windows","10.0","29665","<p>作为军队的指挥官，你可以选择发射导弹杀死 <strong>3名</strong> 敌国士兵，但会炸毁附近的 <strong>1棵</strong> 敌国树木。</p> <p>树木的照片如下图所示。</p> <p></p> <img src='stimuli/trees/10.png', style='max-width: 30%;'> </img> <p><strong>你是否选择发射武器？</strong></p>","0",""
"","","","","","html-keyboard-response","44","1464597","0.0-4.0-0.20","25","1","2022-10-07 05:58:18","d60b49b5908c80e163b920d72b52d584","116.8.231.189","Mozilla/5.0 (Windows NT 10.0; Win64; x64) AppleWebKit/537.36 (KHTML, like Gecko) Chrome/106.0.0.0 Safari/537.36 Edg/106.0.1370.34","WebKit","Edge","106.0.1370.34","Windows","10.0","null","<div style=""font-size:60px;"">+</div>","null",""
"","","","","","html-button-response","45","1466655","0.0-4.0-1.20","25","1","2022-10-07 05:58:18","d60b49b5908c80e163b920d72b52d584","116.8.231.189","Mozilla/5.0 (Windows NT 10.0; Win64; x64) AppleWebKit/537.36 (KHTML, like Gecko) Chrome/106.0.0.0 Safari/537.36 Edg/106.0.1370.34","WebKit","Edge","106.0.1370.34","Windows","10.0","2054","<p>作为军队的指挥官，你可以选择发射导弹杀死 <strong>10名</strong> 敌国士兵，但会误杀附近的 <strong>1名</strong> 敌国平民。</p> <p>平民照片如下图所示。</p> <p></p> <img src='stimuli/faces/NCM8.jpg', style='max-width: 30%;'> </img> <p><strong>你是否选择发射武器？</strong></p>","0",""
"","","","","","html-keyboard-response","46","1467658","0.0-4.0-0.21","25","1","2022-10-07 05:58:18","d60b49b5908c80e163b920d72b52d584","116.8.231.189","Mozilla/5.0 (Windows NT 10.0; Win64; x64) AppleWebKit/537.36 (KHTML, like Gecko) Chrome/106.0.0.0 Safari/537.36 Edg/106.0.1370.34","WebKit","Edge","106.0.1370.34","Windows","10.0","null","<div style=""font-size:60px;"">+</div>","null",""
"","","","","","html-button-response","47","1485473","0.0-4.0-1.21","25","1","2022-10-07 05:58:18","d60b49b5908c80e163b920d72b52d584","116.8.231.189","Mozilla/5.0 (Windows NT 10.0; Win64; x64) AppleWebKit/537.36 (KHTML, like Gecko) Chrome/106.0.0.0 Safari/537.36 Edg/106.0.1370.34","WebKit","Edge","106.0.1370.34","Windows","10.0","17811","<p>作为军队的指挥官，你可以选择发射导弹杀死 <strong>10名</strong> 敌国士兵，但会误杀附近的 <strong>1名</strong> 敌国平民。</p> <p>平民照片如下图所示。</p> <p></p> <img src='stimuli/faces/NCF7.jpg', style='max-width: 30%;'> </img> <p><strong>你是否选择发射武器？</strong></p>","0",""
"","","","","","html-keyboard-response","48","1486476","0.0-4.0-0.22","25","1","2022-10-07 05:58:18","d60b49b5908c80e163b920d72b52d584","116.8.231.189","Mozilla/5.0 (Windows NT 10.0; Win64; x64) AppleWebKit/537.36 (KHTML, like Gecko) Chrome/106.0.0.0 Safari/537.36 Edg/106.0.1370.34","WebKit","Edge","106.0.1370.34","Windows","10.0","null","<div style=""font-size:60px;"">+</div>","null",""
"","","","","","html-button-response","49","1489902","0.0-4.0-1.22","25","1","2022-10-07 05:58:18","d60b49b5908c80e163b920d72b52d584","116.8.231.189","Mozilla/5.0 (Windows NT 10.0; Win64; x64) AppleWebKit/537.36 (KHTML, like Gecko) Chrome/106.0.0.0 Safari/537.36 Edg/106.0.1370.34","WebKit","Edge","106.0.1370.34","Windows","10.0","3421","<p>作为军队的指挥官，你可以选择发射导弹杀死 <strong>2名</strong> 敌国士兵，但会炸毁附近的 <strong>1棵</strong> 敌国树木。</p> <p>树木的照片如下图所示。</p> <p></p> <img src='stimuli/trees/5.png', style='max-width: 30%;'> </img> <p><strong>你是否选择发射武器？</strong></p>","0",""
"","","","","","html-keyboard-response","50","1490905","0.0-4.0-0.23","25","1","2022-10-07 05:58:18","d60b49b5908c80e163b920d72b52d584","116.8.231.189","Mozilla/5.0 (Windows NT 10.0; Win64; x64) AppleWebKit/537.36 (KHTML, like Gecko) Chrome/106.0.0.0 Safari/537.36 Edg/106.0.1370.34","WebKit","Edge","106.0.1370.34","Windows","10.0","null","<div style=""font-size:60px;"">+</div>","null",""
"","","","","","html-button-response","51","1492267","0.0-4.0-1.23","25","1","2022-10-07 05:58:18","d60b49b5908c80e163b920d72b52d584","116.8.231.189","Mozilla/5.0 (Windows NT 10.0; Win64; x64) AppleWebKit/537.36 (KHTML, like Gecko) Chrome/106.0.0.0 Safari/537.36 Edg/106.0.1370.34","WebKit","Edge","106.0.1370.34","Windows","10.0","1358","<p>作为军队的指挥官，你可以选择发射导弹杀死 <strong>4名</strong> 敌国士兵，但会炸毁附近的 <strong>1棵</strong> 敌国树木。</p> <p>树木的照片如下图所示。</p> <p></p> <img src='stimuli/trees/7.png', style='max-width: 30%;'> </img> <p><strong>你是否选择发射武器？</strong></p>","0",""
"","","","","","html-keyboard-response","52","1493270","0.0-4.0-0.24","25","1","2022-10-07 05:58:18","d60b49b5908c80e163b920d72b52d584","116.8.231.189","Mozilla/5.0 (Windows NT 10.0; Win64; x64) AppleWebKit/537.36 (KHTML, like Gecko) Chrome/106.0.0.0 Safari/537.36 Edg/106.0.1370.34","WebKit","Edge","106.0.1370.34","Windows","10.0","null","<div style=""font-size:60px;"">+</div>","null",""
"","","","","","html-button-response","53","1502308","0.0-4.0-1.24","25","1","2022-10-07 05:58:18","d60b49b5908c80e163b920d72b52d584","116.8.231.189","Mozilla/5.0 (Windows NT 10.0; Win64; x64) AppleWebKit/537.36 (KHTML, like Gecko) Chrome/106.0.0.0 Safari/537.36 Edg/106.0.1370.34","WebKit","Edge","106.0.1370.34","Windows","10.0","9034","<p>作为军队的指挥官，你可以选择发射导弹杀死 <strong>6名</strong> 敌国士兵，但会误杀附近的 <strong>1名</strong> 敌国平民。</p> <p>平民照片如下图所示。</p> <p></p> <img src='stimuli/faces/NCF2.jpg', style='max-width: 30%;'> </img> <p><strong>你是否选择发射武器？</strong></p>","1",""
"","","","","","html-keyboard-response","54","1503311","0.0-4.0-0.25","25","1","2022-10-07 05:58:18","d60b49b5908c80e163b920d72b52d584","116.8.231.189","Mozilla/5.0 (Windows NT 10.0; Win64; x64) AppleWebKit/537.36 (KHTML, like Gecko) Chrome/106.0.0.0 Safari/537.36 Edg/106.0.1370.34","WebKit","Edge","106.0.1370.34","Windows","10.0","null","<div style=""font-size:60px;"">+</div>","null",""
"","","","","","html-button-response","55","1505524","0.0-4.0-1.25","25","1","2022-10-07 05:58:18","d60b49b5908c80e163b920d72b52d584","116.8.231.189","Mozilla/5.0 (Windows NT 10.0; Win64; x64) AppleWebKit/537.36 (KHTML, like Gecko) Chrome/106.0.0.0 Safari/537.36 Edg/106.0.1370.34","WebKit","Edge","106.0.1370.34","Windows","10.0","2209","<p>作为军队的指挥官，你可以选择发射导弹杀死 <strong>4名</strong> 敌国士兵，但会炸毁附近的 <strong>1棵</strong> 敌国树木。</p> <p>树木的照片如下图所示。</p> <p></p> <img src='stimuli/trees/16.png', style='max-width: 30%;'> </img> <p><strong>你是否选择发射武器？</strong></p>","0",""
"","","","","","html-keyboard-response","56","1506528","0.0-4.0-0.26","25","1","2022-10-07 05:58:18","d60b49b5908c80e163b920d72b52d584","116.8.231.189","Mozilla/5.0 (Windows NT 10.0; Win64; x64) AppleWebKit/537.36 (KHTML, like Gecko) Chrome/106.0.0.0 Safari/537.36 Edg/106.0.1370.34","WebKit","Edge","106.0.1370.34","Windows","10.0","null","<div style=""font-size:60px;"">+</div>","null",""
"","","","","","html-button-response","57","1507347","0.0-4.0-1.26","25","1","2022-10-07 05:58:18","d60b49b5908c80e163b920d72b52d584","116.8.231.189","Mozilla/5.0 (Windows NT 10.0; Win64; x64) AppleWebKit/537.36 (KHTML, like Gecko) Chrome/106.0.0.0 Safari/537.36 Edg/106.0.1370.34","WebKit","Edge","106.0.1370.34","Windows","10.0","815","<p>作为军队的指挥官，你可以选择发射导弹杀死 <strong>2名</strong> 敌国士兵，但会误杀附近的 <strong>1名</strong> 敌国平民。</p> <p>平民照片如下图所示。</p> <p></p> <img src='stimuli/faces/NCF3.jpg', style='max-width: 30%;'> </img> <p><strong>你是否选择发射武器？</strong></p>","0",""
"","","","","","html-keyboard-response","58","1508349","0.0-4.0-0.27","25","1","2022-10-07 05:58:18","d60b49b5908c80e163b920d72b52d584","116.8.231.189","Mozilla/5.0 (Windows NT 10.0; Win64; x64) AppleWebKit/537.36 (KHTML, like Gecko) Chrome/106.0.0.0 Safari/537.36 Edg/106.0.1370.34","WebKit","Edge","106.0.1370.34","Windows","10.0","null","<div style=""font-size:60px;"">+</div>","null",""
"","","","","","html-button-response","59","1535143","0.0-4.0-1.27","25","1","2022-10-07 05:58:18","d60b49b5908c80e163b920d72b52d584","116.8.231.189","Mozilla/5.0 (Windows NT 10.0; Win64; x64) AppleWebKit/537.36 (KHTML, like Gecko) Chrome/106.0.0.0 Safari/537.36 Edg/106.0.1370.34","WebKit","Edge","106.0.1370.34","Windows","10.0","26789","<p>作为军队的指挥官，你可以选择发射导弹杀死 <strong>8名</strong> 敌国士兵，但会误杀附近的 <strong>1名</strong> 敌国平民。</p> <p>平民照片如下图所示。</p> <p></p> <img src='stimuli/faces/NCF5.jpg', style='max-width: 30%;'> </img> <p><strong>你是否选择发射武器？</strong></p>","0",""
"","","","","","html-keyboard-response","60","1536147","0.0-4.0-0.28","25","1","2022-10-07 05:58:18","d60b49b5908c80e163b920d72b52d584","116.8.231.189","Mozilla/5.0 (Windows NT 10.0; Win64; x64) AppleWebKit/537.36 (KHTML, like Gecko) Chrome/106.0.0.0 Safari/537.36 Edg/106.0.1370.34","WebKit","Edge","106.0.1370.34","Windows","10.0","null","<div style=""font-size:60px;"">+</div>","null",""
"","","","","","html-button-response","61","1554921","0.0-4.0-1.28","25","1","2022-10-07 05:58:18","d60b49b5908c80e163b920d72b52d584","116.8.231.189","Mozilla/5.0 (Windows NT 10.0; Win64; x64) AppleWebKit/537.36 (KHTML, like Gecko) Chrome/106.0.0.0 Safari/537.36 Edg/106.0.1370.34","WebKit","Edge","106.0.1370.34","Windows","10.0","18769","<p>作为军队的指挥官，你可以选择发射导弹杀死 <strong>4名</strong> 敌国士兵，但会炸毁附近的 <strong>1棵</strong> 敌国树木。</p> <p>树木的照片如下图所示。</p> <p></p> <img src='stimuli/trees/14.png', style='max-width: 30%;'> </img> <p><strong>你是否选择发射武器？</strong></p>","0",""
"","","","","","html-keyboard-response","62","1555923","0.0-4.0-0.29","25","1","2022-10-07 05:58:18","d60b49b5908c80e163b920d72b52d584","116.8.231.189","Mozilla/5.0 (Windows NT 10.0; Win64; x64) AppleWebKit/537.36 (KHTML, like Gecko) Chrome/106.0.0.0 Safari/537.36 Edg/106.0.1370.34","WebKit","Edge","106.0.1370.34","Windows","10.0","null","<div style=""font-size:60px;"">+</div>","null",""
"","","","","","html-button-response","63","1557925","0.0-4.0-1.29","25","1","2022-10-07 05:58:18","d60b49b5908c80e163b920d72b52d584","116.8.231.189","Mozilla/5.0 (Windows NT 10.0; Win64; x64) AppleWebKit/537.36 (KHTML, like Gecko) Chrome/106.0.0.0 Safari/537.36 Edg/106.0.1370.34","WebKit","Edge","106.0.1370.34","Windows","10.0","1998","<p>作为军队的指挥官，你可以选择发射导弹杀死 <strong>8名</strong> 敌国士兵，但会误杀附近的 <strong>1名</strong> 敌国平民。</p> <p>平民照片如下图所示。</p> <p></p> <img src='stimuli/faces/NCF4.jpg', style='max-width: 30%;'> </img> <p><strong>你是否选择发射武器？</strong></p>","0",""
"","","","","","html-keyboard-response","64","1558929","0.0-4.0-0.30","25","1","2022-10-07 05:58:18","d60b49b5908c80e163b920d72b52d584","116.8.231.189","Mozilla/5.0 (Windows NT 10.0; Win64; x64) AppleWebKit/537.36 (KHTML, like Gecko) Chrome/106.0.0.0 Safari/537.36 Edg/106.0.1370.34","WebKit","Edge","106.0.1370.34","Windows","10.0","null","<div style=""font-size:60px;"">+</div>","null",""
"","","","","","html-button-response","65","1561740","0.0-4.0-1.30","25","1","2022-10-07 05:58:18","d60b49b5908c80e163b920d72b52d584","116.8.231.189","Mozilla/5.0 (Windows NT 10.0; Win64; x64) AppleWebKit/537.36 (KHTML, like Gecko) Chrome/106.0.0.0 Safari/537.36 Edg/106.0.1370.34","WebKit","Edge","106.0.1370.34","Windows","10.0","2807","<p>作为军队的指挥官，你可以选择发射导弹杀死 <strong>7名</strong> 敌国士兵，但会误杀附近的 <strong>1名</strong> 敌国平民。</p> <p>平民照片如下图所示。</p> <p></p> <img src='stimuli/faces/NCM6.jpg', style='max-width: 30%;'> </img> <p><strong>你是否选择发射武器？</strong></p>","0",""
"","","","","","html-keyboard-response","66","1562743","0.0-4.0-0.31","25","1","2022-10-07 05:58:18","d60b49b5908c80e163b920d72b52d584","116.8.231.189","Mozilla/5.0 (Windows NT 10.0; Win64; x64) AppleWebKit/537.36 (KHTML, like Gecko) Chrome/106.0.0.0 Safari/537.36 Edg/106.0.1370.34","WebKit","Edge","106.0.1370.34","Windows","10.0","null","<div style=""font-size:60px;"">+</div>","null",""
"","","","","","html-button-response","67","1586802","0.0-4.0-1.31","25","1","2022-10-07 05:58:18","d60b49b5908c80e163b920d72b52d584","116.8.231.189","Mozilla/5.0 (Windows NT 10.0; Win64; x64) AppleWebKit/537.36 (KHTML, like Gecko) Chrome/106.0.0.0 Safari/537.36 Edg/106.0.1370.34","WebKit","Edge","106.0.1370.34","Windows","10.0","24054","<p>作为军队的指挥官，你可以选择发射导弹杀死 <strong>10名</strong> 敌国士兵，但会误杀附近的 <strong>1名</strong> 敌国平民。</p> <p>平民照片如下图所示。</p> <p></p> <img src='stimuli/faces/NCM3.jpg', style='max-width: 30%;'> </img> <p><strong>你是否选择发射武器？</strong></p>","0",""
"","","","","","html-keyboard-response","68","1587806","0.0-4.0-0.32","25","1","2022-10-07 05:58:18","d60b49b5908c80e163b920d72b52d584","116.8.231.189","Mozilla/5.0 (Windows NT 10.0; Win64; x64) AppleWebKit/537.36 (KHTML, like Gecko) Chrome/106.0.0.0 Safari/537.36 Edg/106.0.1370.34","WebKit","Edge","106.0.1370.34","Windows","10.0","null","<div style=""font-size:60px;"">+</div>","null",""
"","","","","","html-button-response","69","1591041","0.0-4.0-1.32","25","1","2022-10-07 05:58:18","d60b49b5908c80e163b920d72b52d584","116.8.231.189","Mozilla/5.0 (Windows NT 10.0; Win64; x64) AppleWebKit/537.36 (KHTML, like Gecko) Chrome/106.0.0.0 Safari/537.36 Edg/106.0.1370.34","WebKit","Edge","106.0.1370.34","Windows","10.0","3230","<p>作为军队的指挥官，你可以选择发射导弹杀死 <strong>2名</strong> 敌国士兵，但会炸毁附近的 <strong>1棵</strong> 敌国树木。</p> <p>树木的照片如下图所示。</p> <p></p> <img src='stimuli/trees/6.png', style='max-width: 30%;'> </img> <p><strong>你是否选择发射武器？</strong></p>","0",""
"","","","","","html-keyboard-response","70","1592044","0.0-4.0-0.33","25","1","2022-10-07 05:58:18","d60b49b5908c80e163b920d72b52d584","116.8.231.189","Mozilla/5.0 (Windows NT 10.0; Win64; x64) AppleWebKit/537.36 (KHTML, like Gecko) Chrome/106.0.0.0 Safari/537.36 Edg/106.0.1370.34","WebKit","Edge","106.0.1370.34","Windows","10.0","null","<div style=""font-size:60px;"">+</div>","null",""
"","","","","","html-button-response","71","1595179","0.0-4.0-1.33","25","1","2022-10-07 05:58:18","d60b49b5908c80e163b920d72b52d584","116.8.231.189","Mozilla/5.0 (Windows NT 10.0; Win64; x64) AppleWebKit/537.36 (KHTML, like Gecko) Chrome/106.0.0.0 Safari/537.36 Edg/106.0.1370.34","WebKit","Edge","106.0.1370.34","Windows","10.0","3129","<p>作为军队的指挥官，你可以选择发射导弹杀死 <strong>4名</strong> 敌国士兵，但会炸毁附近的 <strong>1棵</strong> 敌国树木。</p> <p>树木的照片如下图所示。</p> <p></p> <img src='stimuli/trees/4.png', style='max-width: 30%;'> </img> <p><strong>你是否选择发射武器？</strong></p>","0",""
"","","","","","html-keyboard-response","72","1596183","0.0-4.0-0.34","25","1","2022-10-07 05:58:18","d60b49b5908c80e163b920d72b52d584","116.8.231.189","Mozilla/5.0 (Windows NT 10.0; Win64; x64) AppleWebKit/537.36 (KHTML, like Gecko) Chrome/106.0.0.0 Safari/537.36 Edg/106.0.1370.34","WebKit","Edge","106.0.1370.34","Windows","10.0","null","<div style=""font-size:60px;"">+</div>","null",""
"","","","","","html-button-response","73","1637298","0.0-4.0-1.34","25","1","2022-10-07 05:58:18","d60b49b5908c80e163b920d72b52d584","116.8.231.189","Mozilla/5.0 (Windows NT 10.0; Win64; x64) AppleWebKit/537.36 (KHTML, like Gecko) Chrome/106.0.0.0 Safari/537.36 Edg/106.0.1370.34","WebKit","Edge","106.0.1370.34","Windows","10.0","41111","<p>作为军队的指挥官，你可以选择发射导弹杀死 <strong>1名</strong> 敌国士兵，但会炸毁附近的 <strong>1棵</strong> 敌国树木。</p> <p>树木的照片如下图所示。</p> <p></p> <img src='stimuli/trees/11.png', style='max-width: 30%;'> </img> <p><strong>你是否选择发射武器？</strong></p>","1",""
"","","","","","html-keyboard-response","74","1638301","0.0-4.0-0.35","25","1","2022-10-07 05:58:18","d60b49b5908c80e163b920d72b52d584","116.8.231.189","Mozilla/5.0 (Windows NT 10.0; Win64; x64) AppleWebKit/537.36 (KHTML, like Gecko) Chrome/106.0.0.0 Safari/537.36 Edg/106.0.1370.34","WebKit","Edge","106.0.1370.34","Windows","10.0","null","<div style=""font-size:60px;"">+</div>","null",""
"","","","","","html-button-response","75","1641554","0.0-4.0-1.35","25","1","2022-10-07 05:58:18","d60b49b5908c80e163b920d72b52d584","116.8.231.189","Mozilla/5.0 (Windows NT 10.0; Win64; x64) AppleWebKit/537.36 (KHTML, like Gecko) Chrome/106.0.0.0 Safari/537.36 Edg/106.0.1370.34","WebKit","Edge","106.0.1370.34","Windows","10.0","3248","<p>作为军队的指挥官，你可以选择发射导弹杀死 <strong>4名</strong> 敌国士兵，但会误杀附近的 <strong>1名</strong> 敌国平民。</p> <p>平民照片如下图所示。</p> <p></p> <img src='stimuli/faces/NCF1.jpg', style='max-width: 30%;'> </img> <p><strong>你是否选择发射武器？</strong></p>","0",""
"","","","","","html-keyboard-response","76","1642557","0.0-4.0-0.36","25","1","2022-10-07 05:58:18","d60b49b5908c80e163b920d72b52d584","116.8.231.189","Mozilla/5.0 (Windows NT 10.0; Win64; x64) AppleWebKit/537.36 (KHTML, like Gecko) Chrome/106.0.0.0 Safari/537.36 Edg/106.0.1370.34","WebKit","Edge","106.0.1370.34","Windows","10.0","null","<div style=""font-size:60px;"">+</div>","null",""
"","","","","","html-button-response","77","1644235","0.0-4.0-1.36","25","1","2022-10-07 05:58:18","d60b49b5908c80e163b920d72b52d584","116.8.231.189","Mozilla/5.0 (Windows NT 10.0; Win64; x64) AppleWebKit/537.36 (KHTML, like Gecko) Chrome/106.0.0.0 Safari/537.36 Edg/106.0.1370.34","WebKit","Edge","106.0.1370.34","Windows","10.0","1672","<p>作为军队的指挥官，你可以选择发射导弹杀死 <strong>5名</strong> 敌国士兵，但会炸毁附近的 <strong>1棵</strong> 敌国树木。</p> <p>树木的照片如下图所示。</p> <p></p> <img src='stimuli/trees/1.png', style='max-width: 30%;'> </img> <p><strong>你是否选择发射武器？</strong></p>","1",""
"","","","","","html-keyboard-response","78","1645238","0.0-4.0-0.37","25","1","2022-10-07 05:58:18","d60b49b5908c80e163b920d72b52d584","116.8.231.189","Mozilla/5.0 (Windows NT 10.0; Win64; x64) AppleWebKit/537.36 (KHTML, like Gecko) Chrome/106.0.0.0 Safari/537.36 Edg/106.0.1370.34","WebKit","Edge","106.0.1370.34","Windows","10.0","null","<div style=""font-size:60px;"">+</div>","null",""
"","","","","","html-button-response","79","1646583","0.0-4.0-1.37","25","1","2022-10-07 05:58:18","d60b49b5908c80e163b920d72b52d584","116.8.231.189","Mozilla/5.0 (Windows NT 10.0; Win64; x64) AppleWebKit/537.36 (KHTML, like Gecko) Chrome/106.0.0.0 Safari/537.36 Edg/106.0.1370.34","WebKit","Edge","106.0.1370.34","Windows","10.0","1340","<p>作为军队的指挥官，你可以选择发射导弹杀死 <strong>9名</strong> 敌国士兵，但会炸毁附近的 <strong>1棵</strong> 敌国树木。</p> <p>树木的照片如下图所示。</p> <p></p> <img src='stimuli/trees/15.png', style='max-width: 30%;'> </img> <p><strong>你是否选择发射武器？</strong></p>","0",""
"","","","","","html-keyboard-response","80","1647587","0.0-4.0-0.38","25","1","2022-10-07 05:58:18","d60b49b5908c80e163b920d72b52d584","116.8.231.189","Mozilla/5.0 (Windows NT 10.0; Win64; x64) AppleWebKit/537.36 (KHTML, like Gecko) Chrome/106.0.0.0 Safari/537.36 Edg/106.0.1370.34","WebKit","Edge","106.0.1370.34","Windows","10.0","null","<div style=""font-size:60px;"">+</div>","null",""
"","","","","","html-button-response","81","1649342","0.0-4.0-1.38","25","1","2022-10-07 05:58:18","d60b49b5908c80e163b920d72b52d584","116.8.231.189","Mozilla/5.0 (Windows NT 10.0; Win64; x64) AppleWebKit/537.36 (KHTML, like Gecko) Chrome/106.0.0.0 Safari/537.36 Edg/106.0.1370.34","WebKit","Edge","106.0.1370.34","Windows","10.0","1749","<p>作为军队的指挥官，你可以选择发射导弹杀死 <strong>10名</strong> 敌国士兵，但会炸毁附近的 <strong>1棵</strong> 敌国树木。</p> <p>树木的照片如下图所示。</p> <p></p> <img src='stimuli/trees/16.png', style='max-width: 30%;'> </img> <p><strong>你是否选择发射武器？</strong></p>","0",""
"","","","","","html-keyboard-response","82","1650345","0.0-4.0-0.39","25","1","2022-10-07 05:58:18","d60b49b5908c80e163b920d72b52d584","116.8.231.189","Mozilla/5.0 (Windows NT 10.0; Win64; x64) AppleWebKit/537.36 (KHTML, like Gecko) Chrome/106.0.0.0 Safari/537.36 Edg/106.0.1370.34","WebKit","Edge","106.0.1370.34","Windows","10.0","null","<div style=""font-size:60px;"">+</div>","null",""
"","","","","","html-button-response","83","1651497","0.0-4.0-1.39","25","1","2022-10-07 05:58:18","d60b49b5908c80e163b920d72b52d584","116.8.231.189","Mozilla/5.0 (Windows NT 10.0; Win64; x64) AppleWebKit/537.36 (KHTML, like Gecko) Chrome/106.0.0.0 Safari/537.36 Edg/106.0.1370.34","WebKit","Edge","106.0.1370.34","Windows","10.0","1146","<p>作为军队的指挥官，你可以选择发射导弹杀死 <strong>2名</strong> 敌国士兵，但会误杀附近的 <strong>1名</strong> 敌国平民。</p> <p>平民照片如下图所示。</p> <p></p> <img src='stimuli/faces/NCF7.jpg', style='max-width: 30%;'> </img> <p><strong>你是否选择发射武器？</strong></p>","0",""
"","","","","","html-keyboard-response","84","1652501","0.0-4.0-0.40","25","1","2022-10-07 05:58:18","d60b49b5908c80e163b920d72b52d584","116.8.231.189","Mozilla/5.0 (Windows NT 10.0; Win64; x64) AppleWebKit/537.36 (KHTML, like Gecko) Chrome/106.0.0.0 Safari/537.36 Edg/106.0.1370.34","WebKit","Edge","106.0.1370.34","Windows","10.0","null","<div style=""font-size:60px;"">+</div>","null",""
"","","","","","html-button-response","85","1658401","0.0-4.0-1.40","25","1","2022-10-07 05:58:18","d60b49b5908c80e163b920d72b52d584","116.8.231.189","Mozilla/5.0 (Windows NT 10.0; Win64; x64) AppleWebKit/537.36 (KHTML, like Gecko) Chrome/106.0.0.0 Safari/537.36 Edg/106.0.1370.34","WebKit","Edge","106.0.1370.34","Windows","10.0","5894","<p>作为军队的指挥官，你可以选择发射导弹杀死 <strong>5名</strong> 敌国士兵，但会误杀附近的 <strong>1名</strong> 敌国平民。</p> <p>平民照片如下图所示。</p> <p></p> <img src='stimuli/faces/NCM4.jpg', style='max-width: 30%;'> </img> <p><strong>你是否选择发射武器？</strong></p>","0",""
"","","","","","html-keyboard-response","86","1659405","0.0-4.0-0.41","25","1","2022-10-07 05:58:18","d60b49b5908c80e163b920d72b52d584","116.8.231.189","Mozilla/5.0 (Windows NT 10.0; Win64; x64) AppleWebKit/537.36 (KHTML, like Gecko) Chrome/106.0.0.0 Safari/537.36 Edg/106.0.1370.34","WebKit","Edge","106.0.1370.34","Windows","10.0","null","<div style=""font-size:60px;"">+</div>","null",""
"","","","","","html-button-response","87","1696468","0.0-4.0-1.41","25","1","2022-10-07 05:58:18","d60b49b5908c80e163b920d72b52d584","116.8.231.189","Mozilla/5.0 (Windows NT 10.0; Win64; x64) AppleWebKit/537.36 (KHTML, like Gecko) Chrome/106.0.0.0 Safari/537.36 Edg/106.0.1370.34","WebKit","Edge","106.0.1370.34","Windows","10.0","37056","<p>作为军队的指挥官，你可以选择发射导弹杀死 <strong>5名</strong> 敌国士兵，但会误杀附近的 <strong>1名</strong> 敌国平民。</p> <p>平民照片如下图所示。</p> <p></p> <img src='stimuli/faces/NCM7.jpg', style='max-width: 30%;'> </img> <p><strong>你是否选择发射武器？</strong></p>","0",""
"","","","","","html-keyboard-response","88","1697472","0.0-4.0-0.42","25","1","2022-10-07 05:58:18","d60b49b5908c80e163b920d72b52d584","116.8.231.189","Mozilla/5.0 (Windows NT 10.0; Win64; x64) AppleWebKit/537.36 (KHTML, like Gecko) Chrome/106.0.0.0 Safari/537.36 Edg/106.0.1370.34","WebKit","Edge","106.0.1370.34","Windows","10.0","null","<div style=""font-size:60px;"">+</div>","null",""
"","","","","","html-button-response","89","1702554","0.0-4.0-1.42","25","1","2022-10-07 05:58:18","d60b49b5908c80e163b920d72b52d584","116.8.231.189","Mozilla/5.0 (Windows NT 10.0; Win64; x64) AppleWebKit/537.36 (KHTML, like Gecko) Chrome/106.0.0.0 Safari/537.36 Edg/106.0.1370.34","WebKit","Edge","106.0.1370.34","Windows","10.0","5076","<p>作为军队的指挥官，你可以选择发射导弹杀死 <strong>2名</strong> 敌国士兵，但会误杀附近的 <strong>1名</strong> 敌国平民。</p> <p>平民照片如下图所示。</p> <p></p> <img src='stimuli/faces/NCF5.jpg', style='max-width: 30%;'> </img> <p><strong>你是否选择发射武器？</strong></p>","0",""
"","","","","","html-keyboard-response","90","1703558","0.0-4.0-0.43","25","1","2022-10-07 05:58:18","d60b49b5908c80e163b920d72b52d584","116.8.231.189","Mozilla/5.0 (Windows NT 10.0; Win64; x64) AppleWebKit/537.36 (KHTML, like Gecko) Chrome/106.0.0.0 Safari/537.36 Edg/106.0.1370.34","WebKit","Edge","106.0.1370.34","Windows","10.0","null","<div style=""font-size:60px;"">+</div>","null",""
"","","","","","html-button-response","91","1705458","0.0-4.0-1.43","25","1","2022-10-07 05:58:18","d60b49b5908c80e163b920d72b52d584","116.8.231.189","Mozilla/5.0 (Windows NT 10.0; Win64; x64) AppleWebKit/537.36 (KHTML, like Gecko) Chrome/106.0.0.0 Safari/537.36 Edg/106.0.1370.34","WebKit","Edge","106.0.1370.34","Windows","10.0","1894","<p>作为军队的指挥官，你可以选择发射导弹杀死 <strong>6名</strong> 敌国士兵，但会误杀附近的 <strong>1名</strong> 敌国平民。</p> <p>平民照片如下图所示。</p> <p></p> <img src='stimuli/faces/NCF6.jpg', style='max-width: 30%;'> </img> <p><strong>你是否选择发射武器？</strong></p>","0",""
"","","","","","html-keyboard-response","92","1706462","0.0-4.0-0.44","25","1","2022-10-07 05:58:18","d60b49b5908c80e163b920d72b52d584","116.8.231.189","Mozilla/5.0 (Windows NT 10.0; Win64; x64) AppleWebKit/537.36 (KHTML, like Gecko) Chrome/106.0.0.0 Safari/537.36 Edg/106.0.1370.34","WebKit","Edge","106.0.1370.34","Windows","10.0","null","<div style=""font-size:60px;"">+</div>","null",""
"","","","","","html-button-response","93","1721534","0.0-4.0-1.44","25","1","2022-10-07 05:58:18","d60b49b5908c80e163b920d72b52d584","116.8.231.189","Mozilla/5.0 (Windows NT 10.0; Win64; x64) AppleWebKit/537.36 (KHTML, like Gecko) Chrome/106.0.0.0 Safari/537.36 Edg/106.0.1370.34","WebKit","Edge","106.0.1370.34","Windows","10.0","15066","<p>作为军队的指挥官，你可以选择发射导弹杀死 <strong>1名</strong> 敌国士兵，但会炸毁附近的 <strong>1棵</strong> 敌国树木。</p> <p>树木的照片如下图所示。</p> <p></p> <img src='stimuli/trees/9.png', style='max-width: 30%;'> </img> <p><strong>你是否选择发射武器？</strong></p>","0",""
"","","","","","html-keyboard-response","94","1722538","0.0-4.0-0.45","25","1","2022-10-07 05:58:18","d60b49b5908c80e163b920d72b52d584","116.8.231.189","Mozilla/5.0 (Windows NT 10.0; Win64; x64) AppleWebKit/537.36 (KHTML, like Gecko) Chrome/106.0.0.0 Safari/537.36 Edg/106.0.1370.34","WebKit","Edge","106.0.1370.34","Windows","10.0","null","<div style=""font-size:60px;"">+</div>","null",""
"","","","","","html-button-response","95","1732340","0.0-4.0-1.45","25","1","2022-10-07 05:58:18","d60b49b5908c80e163b920d72b52d584","116.8.231.189","Mozilla/5.0 (Windows NT 10.0; Win64; x64) AppleWebKit/537.36 (KHTML, like Gecko) Chrome/106.0.0.0 Safari/537.36 Edg/106.0.1370.34","WebKit","Edge","106.0.1370.34","Windows","10.0","9797","<p>作为军队的指挥官，你可以选择发射导弹杀死 <strong>5名</strong> 敌国士兵，但会误杀附近的 <strong>1名</strong> 敌国平民。</p> <p>平民照片如下图所示。</p> <p></p> <img src='stimuli/faces/NCM8.jpg', style='max-width: 30%;'> </img> <p><strong>你是否选择发射武器？</strong></p>","0",""
"","","","","","html-keyboard-response","96","1733344","0.0-4.0-0.46","25","1","2022-10-07 05:58:18","d60b49b5908c80e163b920d72b52d584","116.8.231.189","Mozilla/5.0 (Windows NT 10.0; Win64; x64) AppleWebKit/537.36 (KHTML, like Gecko) Chrome/106.0.0.0 Safari/537.36 Edg/106.0.1370.34","WebKit","Edge","106.0.1370.34","Windows","10.0","null","<div style=""font-size:60px;"">+</div>","null",""
"","","","","","html-button-response","97","1741401","0.0-4.0-1.46","25","1","2022-10-07 05:58:18","d60b49b5908c80e163b920d72b52d584","116.8.231.189","Mozilla/5.0 (Windows NT 10.0; Win64; x64) AppleWebKit/537.36 (KHTML, like Gecko) Chrome/106.0.0.0 Safari/537.36 Edg/106.0.1370.34","WebKit","Edge","106.0.1370.34","Windows","10.0","8050","<p>作为军队的指挥官，你可以选择发射导弹杀死 <strong>1名</strong> 敌国士兵，但会误杀附近的 <strong>1名</strong> 敌国平民。</p> <p>平民照片如下图所示。</p> <p></p> <img src='stimuli/faces/NCM6.jpg', style='max-width: 30%;'> </img> <p><strong>你是否选择发射武器？</strong></p>","0",""
"","","","","","html-keyboard-response","98","1742404","0.0-4.0-0.47","25","1","2022-10-07 05:58:18","d60b49b5908c80e163b920d72b52d584","116.8.231.189","Mozilla/5.0 (Windows NT 10.0; Win64; x64) AppleWebKit/537.36 (KHTML, like Gecko) Chrome/106.0.0.0 Safari/537.36 Edg/106.0.1370.34","WebKit","Edge","106.0.1370.34","Windows","10.0","null","<div style=""font-size:60px;"">+</div>","null",""
"","","","","","html-button-response","99","1743676","0.0-4.0-1.47","25","1","2022-10-07 05:58:18","d60b49b5908c80e163b920d72b52d584","116.8.231.189","Mozilla/5.0 (Windows NT 10.0; Win64; x64) AppleWebKit/537.36 (KHTML, like Gecko) Chrome/106.0.0.0 Safari/537.36 Edg/106.0.1370.34","WebKit","Edge","106.0.1370.34","Windows","10.0","1266","<p>作为军队的指挥官，你可以选择发射导弹杀死 <strong>6名</strong> 敌国士兵，但会炸毁附近的 <strong>1棵</strong> 敌国树木。</p> <p>树木的照片如下图所示。</p> <p></p> <img src='stimuli/trees/3.png', style='max-width: 30%;'> </img> <p><strong>你是否选择发射武器？</strong></p>","0",""
"","","","","","html-keyboard-response","100","1744680","0.0-4.0-0.48","25","1","2022-10-07 05:58:18","d60b49b5908c80e163b920d72b52d584","116.8.231.189","Mozilla/5.0 (Windows NT 10.0; Win64; x64) AppleWebKit/537.36 (KHTML, like Gecko) Chrome/106.0.0.0 Safari/537.36 Edg/106.0.1370.34","WebKit","Edge","106.0.1370.34","Windows","10.0","null","<div style=""font-size:60px;"">+</div>","null",""
"","","","","","html-button-response","101","1745696","0.0-4.0-1.48","25","1","2022-10-07 05:58:18","d60b49b5908c80e163b920d72b52d584","116.8.231.189","Mozilla/5.0 (Windows NT 10.0; Win64; x64) AppleWebKit/537.36 (KHTML, like Gecko) Chrome/106.0.0.0 Safari/537.36 Edg/106.0.1370.34","WebKit","Edge","106.0.1370.34","Windows","10.0","1011","<p>作为军队的指挥官，你可以选择发射导弹杀死 <strong>7名</strong> 敌国士兵，但会误杀附近的 <strong>1名</strong> 敌国平民。</p> <p>平民照片如下图所示。</p> <p></p> <img src='stimuli/faces/NCM1.jpg', style='max-width: 30%;'> </img> <p><strong>你是否选择发射武器？</strong></p>","0",""
"","","","","","html-keyboard-response","102","1746701","0.0-4.0-0.49","25","1","2022-10-07 05:58:18","d60b49b5908c80e163b920d72b52d584","116.8.231.189","Mozilla/5.0 (Windows NT 10.0; Win64; x64) AppleWebKit/537.36 (KHTML, like Gecko) Chrome/106.0.0.0 Safari/537.36 Edg/106.0.1370.34","WebKit","Edge","106.0.1370.34","Windows","10.0","null","<div style=""font-size:60px;"">+</div>","null",""
"","","","","","html-button-response","103","1754854","0.0-4.0-1.49","25","1","2022-10-07 05:58:18","d60b49b5908c80e163b920d72b52d584","116.8.231.189","Mozilla/5.0 (Windows NT 10.0; Win64; x64) AppleWebKit/537.36 (KHTML, like Gecko) Chrome/106.0.0.0 Safari/537.36 Edg/106.0.1370.34","WebKit","Edge","106.0.1370.34","Windows","10.0","8148","<p>作为军队的指挥官，你可以选择发射导弹杀死 <strong>1名</strong> 敌国士兵，但会炸毁附近的 <strong>1棵</strong> 敌国树木。</p> <p>树木的照片如下图所示。</p> <p></p> <img src='stimuli/trees/12.png', style='max-width: 30%;'> </img> <p><strong>你是否选择发射武器？</strong></p>","0",""
"","","","","","html-keyboard-response","104","1755859","0.0-4.0-0.50","25","1","2022-10-07 05:58:18","d60b49b5908c80e163b920d72b52d584","116.8.231.189","Mozilla/5.0 (Windows NT 10.0; Win64; x64) AppleWebKit/537.36 (KHTML, like Gecko) Chrome/106.0.0.0 Safari/537.36 Edg/106.0.1370.34","WebKit","Edge","106.0.1370.34","Windows","10.0","null","<div style=""font-size:60px;"">+</div>","null",""
"","","","","","html-button-response","105","1765042","0.0-4.0-1.50","25","1","2022-10-07 05:58:18","d60b49b5908c80e163b920d72b52d584","116.8.231.189","Mozilla/5.0 (Windows NT 10.0; Win64; x64) AppleWebKit/537.36 (KHTML, like Gecko) Chrome/106.0.0.0 Safari/537.36 Edg/106.0.1370.34","WebKit","Edge","106.0.1370.34","Windows","10.0","9177","<p>作为军队的指挥官，你可以选择发射导弹杀死 <strong>9名</strong> 敌国士兵，但会炸毁附近的 <strong>1棵</strong> 敌国树木。</p> <p>树木的照片如下图所示。</p> <p></p> <img src='stimuli/trees/14.png', style='max-width: 30%;'> </img> <p><strong>你是否选择发射武器？</strong></p>","0",""
"","","","","","html-keyboard-response","106","1766046","0.0-4.0-0.51","25","1","2022-10-07 05:58:18","d60b49b5908c80e163b920d72b52d584","116.8.231.189","Mozilla/5.0 (Windows NT 10.0; Win64; x64) AppleWebKit/537.36 (KHTML, like Gecko) Chrome/106.0.0.0 Safari/537.36 Edg/106.0.1370.34","WebKit","Edge","106.0.1370.34","Windows","10.0","null","<div style=""font-size:60px;"">+</div>","null",""
"","","","","","html-button-response","107","1767654","0.0-4.0-1.51","25","1","2022-10-07 05:58:18","d60b49b5908c80e163b920d72b52d584","116.8.231.189","Mozilla/5.0 (Windows NT 10.0; Win64; x64) AppleWebKit/537.36 (KHTML, like Gecko) Chrome/106.0.0.0 Safari/537.36 Edg/106.0.1370.34","WebKit","Edge","106.0.1370.34","Windows","10.0","1600","<p>作为军队的指挥官，你可以选择发射导弹杀死 <strong>9名</strong> 敌国士兵，但会炸毁附近的 <strong>1棵</strong> 敌国树木。</p> <p>树木的照片如下图所示。</p> <p></p> <img src='stimuli/trees/11.png', style='max-width: 30%;'> </img> <p><strong>你是否选择发射武器？</strong></p>","1",""
"","","","","","html-keyboard-response","108","1768659","0.0-4.0-0.52","25","1","2022-10-07 05:58:18","d60b49b5908c80e163b920d72b52d584","116.8.231.189","Mozilla/5.0 (Windows NT 10.0; Win64; x64) AppleWebKit/537.36 (KHTML, like Gecko) Chrome/106.0.0.0 Safari/537.36 Edg/106.0.1370.34","WebKit","Edge","106.0.1370.34","Windows","10.0","null","<div style=""font-size:60px;"">+</div>","null",""
"","","","","","html-button-response","109","1772335","0.0-4.0-1.52","25","1","2022-10-07 05:58:18","d60b49b5908c80e163b920d72b52d584","116.8.231.189","Mozilla/5.0 (Windows NT 10.0; Win64; x64) AppleWebKit/537.36 (KHTML, like Gecko) Chrome/106.0.0.0 Safari/537.36 Edg/106.0.1370.34","WebKit","Edge","106.0.1370.34","Windows","10.0","3671","<p>作为军队的指挥官，你可以选择发射导弹杀死 <strong>7名</strong> 敌国士兵，但会炸毁附近的 <strong>1棵</strong> 敌国树木。</p> <p>树木的照片如下图所示。</p> <p></p> <img src='stimuli/trees/5.png', style='max-width: 30%;'> </img> <p><strong>你是否选择发射武器？</strong></p>","0",""
"","","","","","html-keyboard-response","110","1773339","0.0-4.0-0.53","25","1","2022-10-07 05:58:18","d60b49b5908c80e163b920d72b52d584","116.8.231.189","Mozilla/5.0 (Windows NT 10.0; Win64; x64) AppleWebKit/537.36 (KHTML, like Gecko) Chrome/106.0.0.0 Safari/537.36 Edg/106.0.1370.34","WebKit","Edge","106.0.1370.34","Windows","10.0","null","<div style=""font-size:60px;"">+</div>","null",""
"","","","","","html-button-response","111","1795293","0.0-4.0-1.53","25","1","2022-10-07 05:58:18","d60b49b5908c80e163b920d72b52d584","116.8.231.189","Mozilla/5.0 (Windows NT 10.0; Win64; x64) AppleWebKit/537.36 (KHTML, like Gecko) Chrome/106.0.0.0 Safari/537.36 Edg/106.0.1370.34","WebKit","Edge","106.0.1370.34","Windows","10.0","21947","<p>作为军队的指挥官，你可以选择发射导弹杀死 <strong>8名</strong> 敌国士兵，但会炸毁附近的 <strong>1棵</strong> 敌国树木。</p> <p>树木的照片如下图所示。</p> <p></p> <img src='stimuli/trees/7.png', style='max-width: 30%;'> </img> <p><strong>你是否选择发射武器？</strong></p>","0",""
"","","","","","html-keyboard-response","112","1796298","0.0-4.0-0.54","25","1","2022-10-07 05:58:18","d60b49b5908c80e163b920d72b52d584","116.8.231.189","Mozilla/5.0 (Windows NT 10.0; Win64; x64) AppleWebKit/537.36 (KHTML, like Gecko) Chrome/106.0.0.0 Safari/537.36 Edg/106.0.1370.34","WebKit","Edge","106.0.1370.34","Windows","10.0","null","<div style=""font-size:60px;"">+</div>","null",""
"","","","","","html-button-response","113","1802467","0.0-4.0-1.54","25","1","2022-10-07 05:58:18","d60b49b5908c80e163b920d72b52d584","116.8.231.189","Mozilla/5.0 (Windows NT 10.0; Win64; x64) AppleWebKit/537.36 (KHTML, like Gecko) Chrome/106.0.0.0 Safari/537.36 Edg/106.0.1370.34","WebKit","Edge","106.0.1370.34","Windows","10.0","6162","<p>作为军队的指挥官，你可以选择发射导弹杀死 <strong>3名</strong> 敌国士兵，但会炸毁附近的 <strong>1棵</strong> 敌国树木。</p> <p>树木的照片如下图所示。</p> <p></p> <img src='stimuli/trees/13.png', style='max-width: 30%;'> </img> <p><strong>你是否选择发射武器？</strong></p>","0",""
"","","","","","html-keyboard-response","114","1803470","0.0-4.0-0.55","25","1","2022-10-07 05:58:18","d60b49b5908c80e163b920d72b52d584","116.8.231.189","Mozilla/5.0 (Windows NT 10.0; Win64; x64) AppleWebKit/537.36 (KHTML, like Gecko) Chrome/106.0.0.0 Safari/537.36 Edg/106.0.1370.34","WebKit","Edge","106.0.1370.34","Windows","10.0","null","<div style=""font-size:60px;"">+</div>","null",""
"","","","","","html-button-response","115","1805189","0.0-4.0-1.55","25","1","2022-10-07 05:58:18","d60b49b5908c80e163b920d72b52d584","116.8.231.189","Mozilla/5.0 (Windows NT 10.0; Win64; x64) AppleWebKit/537.36 (KHTML, like Gecko) Chrome/106.0.0.0 Safari/537.36 Edg/106.0.1370.34","WebKit","Edge","106.0.1370.34","Windows","10.0","1714","<p>作为军队的指挥官，你可以选择发射导弹杀死 <strong>2名</strong> 敌国士兵，但会误杀附近的 <strong>1名</strong> 敌国平民。</p> <p>平民照片如下图所示。</p> <p></p> <img src='stimuli/faces/NCM3.jpg', style='max-width: 30%;'> </img> <p><strong>你是否选择发射武器？</strong></p>","0",""
"","","","","","html-keyboard-response","116","1806193","0.0-4.0-0.56","25","1","2022-10-07 05:58:18","d60b49b5908c80e163b920d72b52d584","116.8.231.189","Mozilla/5.0 (Windows NT 10.0; Win64; x64) AppleWebKit/537.36 (KHTML, like Gecko) Chrome/106.0.0.0 Safari/537.36 Edg/106.0.1370.34","WebKit","Edge","106.0.1370.34","Windows","10.0","null","<div style=""font-size:60px;"">+</div>","null",""
"","","","","","html-button-response","117","1838436","0.0-4.0-1.56","25","1","2022-10-07 05:58:18","d60b49b5908c80e163b920d72b52d584","116.8.231.189","Mozilla/5.0 (Windows NT 10.0; Win64; x64) AppleWebKit/537.36 (KHTML, like Gecko) Chrome/106.0.0.0 Safari/537.36 Edg/106.0.1370.34","WebKit","Edge","106.0.1370.34","Windows","10.0","32236","<p>作为军队的指挥官，你可以选择发射导弹杀死 <strong>7名</strong> 敌国士兵，但会误杀附近的 <strong>1名</strong> 敌国平民。</p> <p>平民照片如下图所示。</p> <p></p> <img src='stimuli/faces/NCM5.jpg', style='max-width: 30%;'> </img> <p><strong>你是否选择发射武器？</strong></p>","0",""
"","","","","","html-keyboard-response","118","1839439","0.0-4.0-0.57","25","1","2022-10-07 05:58:18","d60b49b5908c80e163b920d72b52d584","116.8.231.189","Mozilla/5.0 (Windows NT 10.0; Win64; x64) AppleWebKit/537.36 (KHTML, like Gecko) Chrome/106.0.0.0 Safari/537.36 Edg/106.0.1370.34","WebKit","Edge","106.0.1370.34","Windows","10.0","null","<div style=""font-size:60px;"">+</div>","null",""
"","","","","","html-button-response","119","1841081","0.0-4.0-1.57","25","1","2022-10-07 05:58:18","d60b49b5908c80e163b920d72b52d584","116.8.231.189","Mozilla/5.0 (Windows NT 10.0; Win64; x64) AppleWebKit/537.36 (KHTML, like Gecko) Chrome/106.0.0.0 Safari/537.36 Edg/106.0.1370.34","WebKit","Edge","106.0.1370.34","Windows","10.0","1635","<p>作为军队的指挥官，你可以选择发射导弹杀死 <strong>7名</strong> 敌国士兵，但会炸毁附近的 <strong>1棵</strong> 敌国树木。</p> <p>树木的照片如下图所示。</p> <p></p> <img src='stimuli/trees/8.png', style='max-width: 30%;'> </img> <p><strong>你是否选择发射武器？</strong></p>","1",""
"","","","","","html-keyboard-response","120","1842086","0.0-4.0-0.58","25","1","2022-10-07 05:58:18","d60b49b5908c80e163b920d72b52d584","116.8.231.189","Mozilla/5.0 (Windows NT 10.0; Win64; x64) AppleWebKit/537.36 (KHTML, like Gecko) Chrome/106.0.0.0 Safari/537.36 Edg/106.0.1370.34","WebKit","Edge","106.0.1370.34","Windows","10.0","null","<div style=""font-size:60px;"">+</div>","null",""
"","","","","","html-button-response","121","1843595","0.0-4.0-1.58","25","1","2022-10-07 05:58:18","d60b49b5908c80e163b920d72b52d584","116.8.231.189","Mozilla/5.0 (Windows NT 10.0; Win64; x64) AppleWebKit/537.36 (KHTML, like Gecko) Chrome/106.0.0.0 Safari/537.36 Edg/106.0.1370.34","WebKit","Edge","106.0.1370.34","Windows","10.0","1503","<p>作为军队的指挥官，你可以选择发射导弹杀死 <strong>6名</strong> 敌国士兵，但会炸毁附近的 <strong>1棵</strong> 敌国树木。</p> <p>树木的照片如下图所示。</p> <p></p> <img src='stimuli/trees/2.png', style='max-width: 30%;'> </img> <p><strong>你是否选择发射武器？</strong></p>","0",""
"","","","","","html-keyboard-response","122","1844599","0.0-4.0-0.59","25","1","2022-10-07 05:58:18","d60b49b5908c80e163b920d72b52d584","116.8.231.189","Mozilla/5.0 (Windows NT 10.0; Win64; x64) AppleWebKit/537.36 (KHTML, like Gecko) Chrome/106.0.0.0 Safari/537.36 Edg/106.0.1370.34","WebKit","Edge","106.0.1370.34","Windows","10.0","null","<div style=""font-size:60px;"">+</div>","null",""
"","","","","","html-button-response","123","1845331","0.0-4.0-1.59","25","1","2022-10-07 05:58:18","d60b49b5908c80e163b920d72b52d584","116.8.231.189","Mozilla/5.0 (Windows NT 10.0; Win64; x64) AppleWebKit/537.36 (KHTML, like Gecko) Chrome/106.0.0.0 Safari/537.36 Edg/106.0.1370.34","WebKit","Edge","106.0.1370.34","Windows","10.0","725","<p>作为军队的指挥官，你可以选择发射导弹杀死 <strong>9名</strong> 敌国士兵，但会炸毁附近的 <strong>1棵</strong> 敌国树木。</p> <p>树木的照片如下图所示。</p> <p></p> <img src='stimuli/trees/12.png', style='max-width: 30%;'> </img> <p><strong>你是否选择发射武器？</strong></p>","0",""
"","","","","","html-keyboard-response","124","1846335","0.0-4.0-0.60","25","1","2022-10-07 05:58:18","d60b49b5908c80e163b920d72b52d584","116.8.231.189","Mozilla/5.0 (Windows NT 10.0; Win64; x64) AppleWebKit/537.36 (KHTML, like Gecko) Chrome/106.0.0.0 Safari/537.36 Edg/106.0.1370.34","WebKit","Edge","106.0.1370.34","Windows","10.0","null","<div style=""font-size:60px;"">+</div>","null",""
"","","","","","html-button-response","125","1849237","0.0-4.0-1.60","25","1","2022-10-07 05:58:18","d60b49b5908c80e163b920d72b52d584","116.8.231.189","Mozilla/5.0 (Windows NT 10.0; Win64; x64) AppleWebKit/537.36 (KHTML, like Gecko) Chrome/106.0.0.0 Safari/537.36 Edg/106.0.1370.34","WebKit","Edge","106.0.1370.34","Windows","10.0","2896","<p>作为军队的指挥官，你可以选择发射导弹杀死 <strong>10名</strong> 敌国士兵，但会误杀附近的 <strong>1名</strong> 敌国平民。</p> <p>平民照片如下图所示。</p> <p></p> <img src='stimuli/faces/NCM7.jpg', style='max-width: 30%;'> </img> <p><strong>你是否选择发射武器？</strong></p>","0",""
"","","","","","html-keyboard-response","126","1850240","0.0-4.0-0.61","25","1","2022-10-07 05:58:18","d60b49b5908c80e163b920d72b52d584","116.8.231.189","Mozilla/5.0 (Windows NT 10.0; Win64; x64) AppleWebKit/537.36 (KHTML, like Gecko) Chrome/106.0.0.0 Safari/537.36 Edg/106.0.1370.34","WebKit","Edge","106.0.1370.34","Windows","10.0","null","<div style=""font-size:60px;"">+</div>","null",""
"","","","","","html-button-response","127","1851183","0.0-4.0-1.61","25","1","2022-10-07 05:58:18","d60b49b5908c80e163b920d72b52d584","116.8.231.189","Mozilla/5.0 (Windows NT 10.0; Win64; x64) AppleWebKit/537.36 (KHTML, like Gecko) Chrome/106.0.0.0 Safari/537.36 Edg/106.0.1370.34","WebKit","Edge","106.0.1370.34","Windows","10.0","936","<p>作为军队的指挥官，你可以选择发射导弹杀死 <strong>2名</strong> 敌国士兵，但会误杀附近的 <strong>1名</strong> 敌国平民。</p> <p>平民照片如下图所示。</p> <p></p> <img src='stimuli/faces/NCF4.jpg', style='max-width: 30%;'> </img> <p><strong>你是否选择发射武器？</strong></p>","0",""
"","","","","","html-keyboard-response","128","1852187","0.0-4.0-0.62","25","1","2022-10-07 05:58:18","d60b49b5908c80e163b920d72b52d584","116.8.231.189","Mozilla/5.0 (Windows NT 10.0; Win64; x64) AppleWebKit/537.36 (KHTML, like Gecko) Chrome/106.0.0.0 Safari/537.36 Edg/106.0.1370.34","WebKit","Edge","106.0.1370.34","Windows","10.0","null","<div style=""font-size:60px;"">+</div>","null",""
"","","","","","html-button-response","129","1853135","0.0-4.0-1.62","25","1","2022-10-07 05:58:18","d60b49b5908c80e163b920d72b52d584","116.8.231.189","Mozilla/5.0 (Windows NT 10.0; Win64; x64) AppleWebKit/537.36 (KHTML, like Gecko) Chrome/106.0.0.0 Safari/537.36 Edg/106.0.1370.34","WebKit","Edge","106.0.1370.34","Windows","10.0","942","<p>作为军队的指挥官，你可以选择发射导弹杀死 <strong>10名</strong> 敌国士兵，但会误杀附近的 <strong>1名</strong> 敌国平民。</p> <p>平民照片如下图所示。</p> <p></p> <img src='stimuli/faces/NCM4.jpg', style='max-width: 30%;'> </img> <p><strong>你是否选择发射武器？</strong></p>","0",""
"","","","","","html-keyboard-response","130","1854140","0.0-4.0-0.63","25","1","2022-10-07 05:58:18","d60b49b5908c80e163b920d72b52d584","116.8.231.189","Mozilla/5.0 (Windows NT 10.0; Win64; x64) AppleWebKit/537.36 (KHTML, like Gecko) Chrome/106.0.0.0 Safari/537.36 Edg/106.0.1370.34","WebKit","Edge","106.0.1370.34","Windows","10.0","null","<div style=""font-size:60px;"">+</div>","null",""
"","","","","","html-button-response","131","1864757","0.0-4.0-1.63","25","1","2022-10-07 05:58:18","d60b49b5908c80e163b920d72b52d584","116.8.231.189","Mozilla/5.0 (Windows NT 10.0; Win64; x64) AppleWebKit/537.36 (KHTML, like Gecko) Chrome/106.0.0.0 Safari/537.36 Edg/106.0.1370.34","WebKit","Edge","106.0.1370.34","Windows","10.0","10611","<p>作为军队的指挥官，你可以选择发射导弹杀死 <strong>8名</strong> 敌国士兵，但会误杀附近的 <strong>1名</strong> 敌国平民。</p> <p>平民照片如下图所示。</p> <p></p> <img src='stimuli/faces/NCF8.jpg', style='max-width: 30%;'> </img> <p><strong>你是否选择发射武器？</strong></p>","0",""
"","","","","","survey-multi-choice","132","1946662","0.0-5.0","25","1","2022-10-07 05:58:18","d60b49b5908c80e163b920d72b52d584","116.8.231.189","Mozilla/5.0 (Windows NT 10.0; Win64; x64) AppleWebKit/537.36 (KHTML, like Gecko) Chrome/106.0.0.0 Safari/537.36 Edg/106.0.1370.34","WebKit","Edge","106.0.1370.34","Windows","10.0","81899","","{""Attention1"":""""}","[0]"
"","","","","","html-button-response","133","2186267","0.0-6.0","25","1","2022-10-07 05:58:18","d60b49b5908c80e163b920d72b52d584","116.8.231.189","Mozilla/5.0 (Windows NT 10.0; Win64; x64) AppleWebKit/537.36 (KHTML, like Gecko) Chrome/106.0.0.0 Safari/537.36 Edg/106.0.1370.34","WebKit","Edge","106.0.1370.34","Windows","10.0","239598","<p style=""font-size:20px;font-weight:bold;"">恭喜！</p><p>你已经完成了实验的第一部分。</p><p>请休息放松一下，然后进入第二部分。</p><p>这部分大约需要10分钟。</p>","0",""
"","","","","","survey-text","134","2226608","0.0-7.0","25","1","2022-10-07 05:58:18","d60b49b5908c80e163b920d72b52d584","116.8.231.189","Mozilla/5.0 (Windows NT 10.0; Win64; x64) AppleWebKit/537.36 (KHTML, like Gecko) Chrome/106.0.0.0 Safari/537.36 Edg/106.0.1370.34","WebKit","Edge","106.0.1370.34","Windows","10.0","39328","","{""Age"":""21"",""Nation"":""中国"",""Born"":""海南"",""Live"":""广西"",""Ethnic"":""汉"",""Alipay"":""18708900183""}",""
"","","","","","survey-multi-choice","135","2239184","0.0-8.0","25","1","2022-10-07 05:58:18","d60b49b5908c80e163b920d72b52d584","116.8.231.189","Mozilla/5.0 (Windows NT 10.0; Win64; x64) AppleWebKit/537.36 (KHTML, like Gecko) Chrome/106.0.0.0 Safari/537.36 Edg/106.0.1370.34","WebKit","Edge","106.0.1370.34","Windows","10.0","12571","","{""Gender"":""男"",""Education"":""本科毕业"",""Income"":""￥35,000-￥69,999"",""Children"":""0"",""Race"":""亚洲人""}","[0,1,2,3,4]"
"","","","","","survey-multi-select","136","2247172","0.0-9.0","25","1","2022-10-07 05:58:18","d60b49b5908c80e163b920d72b52d584","116.8.231.189","Mozilla/5.0 (Windows NT 10.0; Win64; x64) AppleWebKit/537.36 (KHTML, like Gecko) Chrome/106.0.0.0 Safari/537.36 Edg/106.0.1370.34","WebKit","Edge","106.0.1370.34","Windows","10.0","7978","","{""Marriage"":[""未婚""],""Religion"":[""无宗教信仰""]}","[0,1]"
"","","","","","survey-multi-choice","137","2252862","0.0-10.0","25","1","2022-10-07 05:58:18","d60b49b5908c80e163b920d72b52d584","116.8.231.189","Mozilla/5.0 (Windows NT 10.0; Win64; x64) AppleWebKit/537.36 (KHTML, like Gecko) Chrome/106.0.0.0 Safari/537.36 Edg/106.0.1370.34","WebKit","Edge","106.0.1370.34","Windows","10.0","5682","","{""SES"":""5""}","[0]"
"","","","","","html-button-response","138","2255041","0.0-11.0","25","1","2022-10-07 05:58:18","d60b49b5908c80e163b920d72b52d584","116.8.231.189","Mozilla/5.0 (Windows NT 10.0; Win64; x64) AppleWebKit/537.36 (KHTML, like Gecko) Chrome/106.0.0.0 Safari/537.36 Edg/106.0.1370.34","WebKit","Edge","106.0.1370.34","Windows","10.0","2172","<p><strong>请判断下列陈述在多大程度上可以形容你？</p><p> (1 = ""和我一点都不像"" to 5 = ""非常像我"".)</strong></p>","0",""
"","","","","","survey-likert","139","2279966","0.0-12.0","25","1","2022-10-07 05:58:18","d60b49b5908c80e163b920d72b52d584","116.8.231.189","Mozilla/5.0 (Windows NT 10.0; Win64; x64) AppleWebKit/537.36 (KHTML, like Gecko) Chrome/106.0.0.0 Safari/537.36 Edg/106.0.1370.34","WebKit","Edge","106.0.1370.34","Windows","10.0","24919","","{""Aggression1"":4,""Aggression2"":4,""Aggression3"":4,""Aggression4"":1,""Aggression5"":4,""Aggression6"":4,""Aggression7"":2,""Aggression8"":0,""Aggression9"":4}","[0,1,2,3,4,5,6,7,8]"
"","","","","","html-button-response","140","2282361","0.0-13.0","25","1","2022-10-07 05:58:18","d60b49b5908c80e163b920d72b52d584","116.8.231.189","Mozilla/5.0 (Windows NT 10.0; Win64; x64) AppleWebKit/537.36 (KHTML, like Gecko) Chrome/106.0.0.0 Safari/537.36 Edg/106.0.1370.34","WebKit","Edge","106.0.1370.34","Windows","10.0","2389","<p><strong>请判断你在多大程度上同意下列陈述。</strong></p>","0",""
"","","","","","survey-likert","141","2351262","0.0-14.0","25","1","2022-10-07 05:58:18","d60b49b5908c80e163b920d72b52d584","116.8.231.189","Mozilla/5.0 (Windows NT 10.0; Win64; x64) AppleWebKit/537.36 (KHTML, like Gecko) Chrome/106.0.0.0 Safari/537.36 Edg/106.0.1370.34","WebKit","Edge","106.0.1370.34","Windows","10.0","68894","","{""scale9"":2,""scale7"":1,""scale16"":3,""scale19"":2,""scale28"":4,""scale5"":2,""scale22"":2,""scale10"":4,""scale11"":3,""scale27"":1,""scale23"":3,""scale17"":4,""scale21"":2,""scale18"":1,""scale14"":1,""scale6"":3,""scale2"":2,""scale15"":3,""scale3"":3,""scale13"":1,""scale1"":4,""scale4"":1,""scale12"":3,""scale26"":3,""scale25"":2,""scale20"":3,""scale8"":2,""scale24"":3}","[8,6,15,18,27,4,21,9,10,26,22,16,20,17,13,5,1,14,2,12,0,3,11,25,24,19,7,23]"
"","","","","","html-button-response","142","2352510","0.0-15.0","25","1","2022-10-07 05:58:18","d60b49b5908c80e163b920d72b52d584","116.8.231.189","Mozilla/5.0 (Windows NT 10.0; Win64; x64) AppleWebKit/537.36 (KHTML, like Gecko) Chrome/106.0.0.0 Safari/537.36 Edg/106.0.1370.34","WebKit","Edge","106.0.1370.34","Windows","10.0","1240","<p><strong>请判断你在多大程度上同意下列陈述。</strong></p>","0",""
"","","","","","survey-likert","143","2504582","0.0-16.0","25","1","2022-10-07 05:58:18","d60b49b5908c80e163b920d72b52d584","116.8.231.189","Mozilla/5.0 (Windows NT 10.0; Win64; x64) AppleWebKit/537.36 (KHTML, like Gecko) Chrome/106.0.0.0 Safari/537.36 Edg/106.0.1370.34","WebKit","Edge","106.0.1370.34","Windows","10.0","152066","","{""sdo2"":1,""sdo6"":4,""sdo8"":5,""sdo7"":3,""sdo15"":6,""sdo3"":3,""sdo1"":3,""sdo11"":6,""sdo4"":3,""sdo10"":6,""sdo12"":6,""sdo5"":4,""sdo16"":5,""sdo9"":4,""sdo13"":5,""sdo14"":5}","[1,5,7,6,14,2,0,10,3,9,11,4,15,8,12,13]"
"","","","","","html-button-response","144","2505848","0.0-17.0","25","1","2022-10-07 05:58:18","d60b49b5908c80e163b920d72b52d584","116.8.231.189","Mozilla/5.0 (Windows NT 10.0; Win64; x64) AppleWebKit/537.36 (KHTML, like Gecko) Chrome/106.0.0.0 Safari/537.36 Edg/106.0.1370.34","WebKit","Edge","106.0.1370.34","Windows","10.0","1259","<p><strong>请判断你在多大程度上同意下列陈述。</strong></p>","0",""
"","","","","","survey-likert","145","2548978","0.0-18.0","25","1","2022-10-07 05:58:18","d60b49b5908c80e163b920d72b52d584","116.8.231.189","Mozilla/5.0 (Windows NT 10.0; Win64; x64) AppleWebKit/537.36 (KHTML, like Gecko) Chrome/106.0.0.0 Safari/537.36 Edg/106.0.1370.34","WebKit","Edge","106.0.1370.34","Windows","10.0","43125","","{""caring1"":4,""liking1"":1,""caring2"":3,""protection1"":3,""liking2"":1,""caring3"":3,""protection2"":1,""liking3"":1,""protection3"":3,""caring4"":4,""liking4"":0,""protection4"":3,""caring5"":3,""liking5"":3,""protection5"":2}","[0,1,2,3,4,5,6,7,8,9,10,11,12,13,14]"
"","","","","","html-button-response","146","2550146","0.0-19.0","25","1","2022-10-07 05:58:18","d60b49b5908c80e163b920d72b52d584","116.8.231.189","Mozilla/5.0 (Windows NT 10.0; Win64; x64) AppleWebKit/537.36 (KHTML, like Gecko) Chrome/106.0.0.0 Safari/537.36 Edg/106.0.1370.34","WebKit","Edge","106.0.1370.34","Windows","10.0","1160","<p><strong>请判断下列场景中你的内心感受有多柔软。</strong></p>","0",""
"","","","","","survey-likert","147","2594618","0.0-20.0","25","1","2022-10-07 05:58:18","d60b49b5908c80e163b920d72b52d584","116.8.231.189","Mozilla/5.0 (Windows NT 10.0; Win64; x64) AppleWebKit/537.36 (KHTML, like Gecko) Chrome/106.0.0.0 Safari/537.36 Edg/106.0.1370.34","WebKit","Edge","106.0.1370.34","Windows","10.0","44468","","{""tenderness-positive1"":3,""tenderness-negative1"":3,""tenderness-negative2"":1,""tenderness-positive2"":3,""tenderness-positive3"":4,""tenderness-negative3"":2,""tenderness-positive4"":3,""tendereness-negative4"":3,""tendernness-negative5"":3,""tenderness-positive5"":4}","[0,1,2,3,4,5,6,7,8,9]"
"","","","","","survey-multi-choice","148","2600245","0.0-21.0","25","1","2022-10-07 05:58:18","d60b49b5908c80e163b920d72b52d584","116.8.231.189","Mozilla/5.0 (Windows NT 10.0; Win64; x64) AppleWebKit/537.36 (KHTML, like Gecko) Chrome/106.0.0.0 Safari/537.36 Edg/106.0.1370.34","WebKit","Edge","106.0.1370.34","Windows","10.0","5619","","{""Attention2"":""其他""}","[0]"
"","","","","","html-button-response","149","2601268","0.0-22.0","25","1","2022-10-07 05:58:18","d60b49b5908c80e163b920d72b52d584","116.8.231.189","Mozilla/5.0 (Windows NT 10.0; Win64; x64) AppleWebKit/537.36 (KHTML, like Gecko) Chrome/106.0.0.0 Safari/537.36 Edg/106.0.1370.34","WebKit","Edge","106.0.1370.34","Windows","10.0","1016","<p><strong>请判断你在多大程度上同意下列陈述。</strong></p>","0",""
"","","","","","survey-likert","150","2654726","0.0-23.0","25","1","2022-10-07 05:58:18","d60b49b5908c80e163b920d72b52d584","116.8.231.189","Mozilla/5.0 (Windows NT 10.0; Win64; x64) AppleWebKit/537.36 (KHTML, like Gecko) Chrome/106.0.0.0 Safari/537.36 Edg/106.0.1370.34","WebKit","Edge","106.0.1370.34","Windows","10.0","53451","","{""Patri11"":0,""Nation6"":4,""Patri5"":4,""Nation7"":4,""Nation1"":2,""Patri6"":1,""Nation5"":3,""Patri10"":2,""Nation3"":3,""Patri3"":4,""Nation4"":3,""Patri7"":4,""Nation2"":4,""Patri9"":1,""Patri1"":4,""Patri4"":3,""Patri12"":1,""Patri2"":4,""Nation8"":0,""Patri8"":4}","[10,17,4,18,12,5,16,9,14,2,15,6,13,8,0,3,11,1,19,7]"
"","","","","","html-button-response","151","2656087","0.0-24.0","25","1","2022-10-07 05:58:18","d60b49b5908c80e163b920d72b52d584","116.8.231.189","Mozilla/5.0 (Windows NT 10.0; Win64; x64) AppleWebKit/537.36 (KHTML, like Gecko) Chrome/106.0.0.0 Safari/537.36 Edg/106.0.1370.34","WebKit","Edge","106.0.1370.34","Windows","10.0","1353","<p><strong>请判断你在多大程度上同意下列陈述。</strong></p>","0",""
"","","","","","survey-likert","152","2694624","0.0-25.0","25","1","2022-10-07 05:58:18","d60b49b5908c80e163b920d72b52d584","116.8.231.189","Mozilla/5.0 (Windows NT 10.0; Win64; x64) AppleWebKit/537.36 (KHTML, like Gecko) Chrome/106.0.0.0 Safari/537.36 Edg/106.0.1370.34","WebKit","Edge","106.0.1370.34","Windows","10.0","38531","","{""hc2"":7,""vi4"":2,""vc1"":7,""vi1"":7,""vc4"":8,""vc2"":5,""Robot"":6,""hc1"":7,""vi2"":7,""hc3"":8,""hc4"":6,""hi1"":4,""hi4"":6,""hi2"":4,""vc3"":6,""vi3"":8,""hi3"":4}","[10,8,13,4,16,14,7,9,5,11,12,0,3,1,15,6,2]"
"","","","","","survey-text","153","2701452","0.0-26.0","25","1","2022-10-07 05:58:18","d60b49b5908c80e163b920d72b52d584","116.8.231.189","Mozilla/5.0 (Windows NT 10.0; Win64; x64) AppleWebKit/537.36 (KHTML, like Gecko) Chrome/106.0.0.0 Safari/537.36 Edg/106.0.1370.34","WebKit","Edge","106.0.1370.34","Windows","10.0","6810","","{""Comments"":""无""}",""
"","","","","","html-button-response","154","2702659","0.0-27.0","25","1","2022-10-07 05:58:18","d60b49b5908c80e163b920d72b52d584","116.8.231.189","Mozilla/5.0 (Windows NT 10.0; Win64; x64) AppleWebKit/537.36 (KHTML, like Gecko) Chrome/106.0.0.0 Safari/537.36 Edg/106.0.1370.34","WebKit","Edge","106.0.1370.34","Windows","10.0","1202","<strong><p>恭喜你完成了实验！</p><p>感谢您的参与。</p></strong>","0",""
