"success","timeout","failed_images","failed_audio","failed_video","trial_type","trial_index","time_elapsed","internal_node_id","run_id","condition","recorded_at","source_code_version","ip","user_agent","device","browser","browser_version","platform","platform_version","rt","stimulus","response","question_order"
"true","false","[]","[]","[]","preload","0","2883","0.0-0.0","268","1","2022-10-15 10:30:55","d60b49b5908c80e163b920d72b52d584","113.220.122.19","Mozilla/5.0 (Linux; Android 10; KKG-AN00 Build/HONORKKG-AN00; wv) AppleWebKit/537.36 (KHTML, like Gecko) Version/4.0 Chrome/86.0.4240.99 XWEB/4317 MMWEBSDK/20220903 Mobile Safari/537.36 MMWEBID/7135 MicroMessenger/8.0.28.2240(0x28001CA2) WeChat/arm64 Weixin NetType/WIFI Language/zh_CN ABI/arm64","WebKit","Chrome","86.0.4240.99","AndroidOS","10","","","",""
"true","","","","","fullscreen","1","5175","0.0-1.0","268","1","2022-10-15 10:30:55","d60b49b5908c80e163b920d72b52d584","113.220.122.19","Mozilla/5.0 (Linux; Android 10; KKG-AN00 Build/HONORKKG-AN00; wv) AppleWebKit/537.36 (KHTML, like Gecko) Version/4.0 Chrome/86.0.4240.99 XWEB/4317 MMWEBSDK/20220903 Mobile Safari/537.36 MMWEBID/7135 MicroMessenger/8.0.28.2240(0x28001CA2) WeChat/arm64 Weixin NetType/WIFI Language/zh_CN ABI/arm64","WebKit","Chrome","86.0.4240.99","AndroidOS","10","","","",""
"","","","","","html-button-response","2","27848","0.0-2.0","268","1","2022-10-15 10:30:55","d60b49b5908c80e163b920d72b52d584","113.220.122.19","Mozilla/5.0 (Linux; Android 10; KKG-AN00 Build/HONORKKG-AN00; wv) AppleWebKit/537.36 (KHTML, like Gecko) Version/4.0 Chrome/86.0.4240.99 XWEB/4317 MMWEBSDK/20220903 Mobile Safari/537.36 MMWEBID/7135 MicroMessenger/8.0.28.2240(0x28001CA2) WeChat/arm64 Weixin NetType/WIFI Language/zh_CN ABI/arm64","WebKit","Chrome","86.0.4240.99","AndroidOS","10","22663","<p style=""font-size:20px;font-weight:bold;"">实验知情同意书</p><p style=""text-align:left;""><strong>实验名称：</strong>社会冲突研究</p><p style=""text-align:left;""><strong>主要研究者：</strong>韩晓春副教授（北京师范大学心理学部）</p><p style=""text-align:left;""><strong>联系方式：</strong>发送邮件至xiaochun.han@bnu.edu.cn</p><p style=""text-align:left;""><strong>研究目的：</strong>研究旨在了解人类面对群体冲突时的决策方式，以及相关的心理学特质。实验调查大约需要20分钟。</p><p style=""text-align:left;""><strong>实验流程：</strong>实验包含两部分。第一部分呈现一系列群体冲突场景，请你决定如何对这些冲突进行反应，大约需要10分钟完成。第二部分包含一系列人口统计学信息收集和心理学问卷，大约需要10分钟完成。</p><p style=""text-align:left;""><strong>参加及退出规则：</strong>参加本实验完全取决于您的个人意愿。在参与过程中，您可以随时退出，并且不用承担任何后果。</p><p style=""text-align:left;""><strong>隐私：</strong>本实验完全匿名进行，不会收集您的姓名或其他能够识别您身份的信息。实验中收集的作答仅用作科学研究使用，可能会在学术期刊/书籍上发表，或者用于教学，您的数据未来可能会和其他研究者或实验室分享，但您的个人身份不会被识别。</p><p style=""text-align:left;""><strong>实验报酬：</strong>实验完成后，您将获得15元人民币报酬，以感谢您的时间和努力。调查问卷中包含几道题目用以测验您作答时的认真度。只有完成全部实验，并且正确回答认真度测验的被试才能获得实验报酬。实验报酬将通过支付宝转账发放。</p><p style=""text-align:left;font-size:20px;""><strong>如果您同意以上实验知情同意书的内容，请点击'同意并且开始实验'按钮；否则请关闭浏览器界面，退出实验。</strong></p>","0",""
"","","","","","html-button-response","3","29649","0.0-3.0","268","1","2022-10-15 10:30:55","d60b49b5908c80e163b920d72b52d584","113.220.122.19","Mozilla/5.0 (Linux; Android 10; KKG-AN00 Build/HONORKKG-AN00; wv) AppleWebKit/537.36 (KHTML, like Gecko) Version/4.0 Chrome/86.0.4240.99 XWEB/4317 MMWEBSDK/20220903 Mobile Safari/537.36 MMWEBID/7135 MicroMessenger/8.0.28.2240(0x28001CA2) WeChat/arm64 Weixin NetType/WIFI Language/zh_CN ABI/arm64","WebKit","Chrome","86.0.4240.99","AndroidOS","10","1788","<p ><strong>实验任务一：</strong></p><p>请想象你的国家与另一个国家发生了军事冲突。</p><p>你是国家军队的指挥官，你将如何在冲突中进行决策。</p><p>具体来说，作为军队指挥官，请你决定是否发射导弹进行打击。</p><p>接下来，你会面对一系列场景，请仔细阅读每个场景，然后进行决策。</p><p>这部分实验任务大约需要10分钟。</p><p><strong>实验过程中，请集中注意力。</strong></p>","0",""
"","","","","","html-keyboard-response","4","30658","0.0-4.0-0.0","268","1","2022-10-15 10:30:55","d60b49b5908c80e163b920d72b52d584","113.220.122.19","Mozilla/5.0 (Linux; Android 10; KKG-AN00 Build/HONORKKG-AN00; wv) AppleWebKit/537.36 (KHTML, like Gecko) Version/4.0 Chrome/86.0.4240.99 XWEB/4317 MMWEBSDK/20220903 Mobile Safari/537.36 MMWEBID/7135 MicroMessenger/8.0.28.2240(0x28001CA2) WeChat/arm64 Weixin NetType/WIFI Language/zh_CN ABI/arm64","WebKit","Chrome","86.0.4240.99","AndroidOS","10","null","<div style=""font-size:60px;"">+</div>","null",""
"","","","","","html-button-response","5","33898","0.0-4.0-1.0","268","1","2022-10-15 10:30:55","d60b49b5908c80e163b920d72b52d584","113.220.122.19","Mozilla/5.0 (Linux; Android 10; KKG-AN00 Build/HONORKKG-AN00; wv) AppleWebKit/537.36 (KHTML, like Gecko) Version/4.0 Chrome/86.0.4240.99 XWEB/4317 MMWEBSDK/20220903 Mobile Safari/537.36 MMWEBID/7135 MicroMessenger/8.0.28.2240(0x28001CA2) WeChat/arm64 Weixin NetType/WIFI Language/zh_CN ABI/arm64","WebKit","Chrome","86.0.4240.99","AndroidOS","10","3223","<p>作为军队的指挥官，你可以选择发射导弹杀死 <strong>9名</strong> 敌国士兵，但会炸毁附近的 <strong>1棵</strong> 敌国树木。</p> <p>树木的照片如下图所示。</p> <p></p> <img src='stimuli/trees/3.png', style='max-width: 30%;'> </img> <p><strong>你是否选择发射武器？</strong></p>","1",""
"","","","","","html-keyboard-response","6","34904","0.0-4.0-0.1","268","1","2022-10-15 10:30:55","d60b49b5908c80e163b920d72b52d584","113.220.122.19","Mozilla/5.0 (Linux; Android 10; KKG-AN00 Build/HONORKKG-AN00; wv) AppleWebKit/537.36 (KHTML, like Gecko) Version/4.0 Chrome/86.0.4240.99 XWEB/4317 MMWEBSDK/20220903 Mobile Safari/537.36 MMWEBID/7135 MicroMessenger/8.0.28.2240(0x28001CA2) WeChat/arm64 Weixin NetType/WIFI Language/zh_CN ABI/arm64","WebKit","Chrome","86.0.4240.99","AndroidOS","10","null","<div style=""font-size:60px;"">+</div>","null",""
"","","","","","html-button-response","7","36871","0.0-4.0-1.1","268","1","2022-10-15 10:30:55","d60b49b5908c80e163b920d72b52d584","113.220.122.19","Mozilla/5.0 (Linux; Android 10; KKG-AN00 Build/HONORKKG-AN00; wv) AppleWebKit/537.36 (KHTML, like Gecko) Version/4.0 Chrome/86.0.4240.99 XWEB/4317 MMWEBSDK/20220903 Mobile Safari/537.36 MMWEBID/7135 MicroMessenger/8.0.28.2240(0x28001CA2) WeChat/arm64 Weixin NetType/WIFI Language/zh_CN ABI/arm64","WebKit","Chrome","86.0.4240.99","AndroidOS","10","1952","<p>作为军队的指挥官，你可以选择发射导弹杀死 <strong>10名</strong> 敌国士兵，但会炸毁附近的 <strong>1棵</strong> 敌国树木。</p> <p>树木的照片如下图所示。</p> <p></p> <img src='stimuli/trees/11.png', style='max-width: 30%;'> </img> <p><strong>你是否选择发射武器？</strong></p>","0",""
"","","","","","html-keyboard-response","8","37879","0.0-4.0-0.2","268","1","2022-10-15 10:30:55","d60b49b5908c80e163b920d72b52d584","113.220.122.19","Mozilla/5.0 (Linux; Android 10; KKG-AN00 Build/HONORKKG-AN00; wv) AppleWebKit/537.36 (KHTML, like Gecko) Version/4.0 Chrome/86.0.4240.99 XWEB/4317 MMWEBSDK/20220903 Mobile Safari/537.36 MMWEBID/7135 MicroMessenger/8.0.28.2240(0x28001CA2) WeChat/arm64 Weixin NetType/WIFI Language/zh_CN ABI/arm64","WebKit","Chrome","86.0.4240.99","AndroidOS","10","null","<div style=""font-size:60px;"">+</div>","null",""
"","","","","","html-button-response","9","39036","0.0-4.0-1.2","268","1","2022-10-15 10:30:55","d60b49b5908c80e163b920d72b52d584","113.220.122.19","Mozilla/5.0 (Linux; Android 10; KKG-AN00 Build/HONORKKG-AN00; wv) AppleWebKit/537.36 (KHTML, like Gecko) Version/4.0 Chrome/86.0.4240.99 XWEB/4317 MMWEBSDK/20220903 Mobile Safari/537.36 MMWEBID/7135 MicroMessenger/8.0.28.2240(0x28001CA2) WeChat/arm64 Weixin NetType/WIFI Language/zh_CN ABI/arm64","WebKit","Chrome","86.0.4240.99","AndroidOS","10","1144","<p>作为军队的指挥官，你可以选择发射导弹杀死 <strong>7名</strong> 敌国士兵，但会误杀附近的 <strong>1名</strong> 敌国平民。</p> <p>平民照片如下图所示。</p> <p></p> <img src='stimuli/faces/NCF3.jpg', style='max-width: 30%;'> </img> <p><strong>你是否选择发射武器？</strong></p>","0",""
"","","","","","html-keyboard-response","10","40042","0.0-4.0-0.3","268","1","2022-10-15 10:30:55","d60b49b5908c80e163b920d72b52d584","113.220.122.19","Mozilla/5.0 (Linux; Android 10; KKG-AN00 Build/HONORKKG-AN00; wv) AppleWebKit/537.36 (KHTML, like Gecko) Version/4.0 Chrome/86.0.4240.99 XWEB/4317 MMWEBSDK/20220903 Mobile Safari/537.36 MMWEBID/7135 MicroMessenger/8.0.28.2240(0x28001CA2) WeChat/arm64 Weixin NetType/WIFI Language/zh_CN ABI/arm64","WebKit","Chrome","86.0.4240.99","AndroidOS","10","null","<div style=""font-size:60px;"">+</div>","null",""
"","","","","","html-button-response","11","41085","0.0-4.0-1.3","268","1","2022-10-15 10:30:55","d60b49b5908c80e163b920d72b52d584","113.220.122.19","Mozilla/5.0 (Linux; Android 10; KKG-AN00 Build/HONORKKG-AN00; wv) AppleWebKit/537.36 (KHTML, like Gecko) Version/4.0 Chrome/86.0.4240.99 XWEB/4317 MMWEBSDK/20220903 Mobile Safari/537.36 MMWEBID/7135 MicroMessenger/8.0.28.2240(0x28001CA2) WeChat/arm64 Weixin NetType/WIFI Language/zh_CN ABI/arm64","WebKit","Chrome","86.0.4240.99","AndroidOS","10","1029","<p>作为军队的指挥官，你可以选择发射导弹杀死 <strong>6名</strong> 敌国士兵，但会炸毁附近的 <strong>1棵</strong> 敌国树木。</p> <p>树木的照片如下图所示。</p> <p></p> <img src='stimuli/trees/2.png', style='max-width: 30%;'> </img> <p><strong>你是否选择发射武器？</strong></p>","0",""
"","","","","","html-keyboard-response","12","42090","0.0-4.0-0.4","268","1","2022-10-15 10:30:55","d60b49b5908c80e163b920d72b52d584","113.220.122.19","Mozilla/5.0 (Linux; Android 10; KKG-AN00 Build/HONORKKG-AN00; wv) AppleWebKit/537.36 (KHTML, like Gecko) Version/4.0 Chrome/86.0.4240.99 XWEB/4317 MMWEBSDK/20220903 Mobile Safari/537.36 MMWEBID/7135 MicroMessenger/8.0.28.2240(0x28001CA2) WeChat/arm64 Weixin NetType/WIFI Language/zh_CN ABI/arm64","WebKit","Chrome","86.0.4240.99","AndroidOS","10","null","<div style=""font-size:60px;"">+</div>","null",""
"","","","","","html-button-response","13","43535","0.0-4.0-1.4","268","1","2022-10-15 10:30:55","d60b49b5908c80e163b920d72b52d584","113.220.122.19","Mozilla/5.0 (Linux; Android 10; KKG-AN00 Build/HONORKKG-AN00; wv) AppleWebKit/537.36 (KHTML, like Gecko) Version/4.0 Chrome/86.0.4240.99 XWEB/4317 MMWEBSDK/20220903 Mobile Safari/537.36 MMWEBID/7135 MicroMessenger/8.0.28.2240(0x28001CA2) WeChat/arm64 Weixin NetType/WIFI Language/zh_CN ABI/arm64","WebKit","Chrome","86.0.4240.99","AndroidOS","10","1435","<p>作为军队的指挥官，你可以选择发射导弹杀死 <strong>4名</strong> 敌国士兵，但会炸毁附近的 <strong>1棵</strong> 敌国树木。</p> <p>树木的照片如下图所示。</p> <p></p> <img src='stimuli/trees/16.png', style='max-width: 30%;'> </img> <p><strong>你是否选择发射武器？</strong></p>","0",""
"","","","","","html-keyboard-response","14","44545","0.0-4.0-0.5","268","1","2022-10-15 10:30:55","d60b49b5908c80e163b920d72b52d584","113.220.122.19","Mozilla/5.0 (Linux; Android 10; KKG-AN00 Build/HONORKKG-AN00; wv) AppleWebKit/537.36 (KHTML, like Gecko) Version/4.0 Chrome/86.0.4240.99 XWEB/4317 MMWEBSDK/20220903 Mobile Safari/537.36 MMWEBID/7135 MicroMessenger/8.0.28.2240(0x28001CA2) WeChat/arm64 Weixin NetType/WIFI Language/zh_CN ABI/arm64","WebKit","Chrome","86.0.4240.99","AndroidOS","10","null","<div style=""font-size:60px;"">+</div>","null",""
"","","","","","html-button-response","15","45734","0.0-4.0-1.5","268","1","2022-10-15 10:30:55","d60b49b5908c80e163b920d72b52d584","113.220.122.19","Mozilla/5.0 (Linux; Android 10; KKG-AN00 Build/HONORKKG-AN00; wv) AppleWebKit/537.36 (KHTML, like Gecko) Version/4.0 Chrome/86.0.4240.99 XWEB/4317 MMWEBSDK/20220903 Mobile Safari/537.36 MMWEBID/7135 MicroMessenger/8.0.28.2240(0x28001CA2) WeChat/arm64 Weixin NetType/WIFI Language/zh_CN ABI/arm64","WebKit","Chrome","86.0.4240.99","AndroidOS","10","1170","<p>作为军队的指挥官，你可以选择发射导弹杀死 <strong>7名</strong> 敌国士兵，但会炸毁附近的 <strong>1棵</strong> 敌国树木。</p> <p>树木的照片如下图所示。</p> <p></p> <img src='stimuli/trees/15.png', style='max-width: 30%;'> </img> <p><strong>你是否选择发射武器？</strong></p>","0",""
"","","","","","html-keyboard-response","16","46743","0.0-4.0-0.6","268","1","2022-10-15 10:30:55","d60b49b5908c80e163b920d72b52d584","113.220.122.19","Mozilla/5.0 (Linux; Android 10; KKG-AN00 Build/HONORKKG-AN00; wv) AppleWebKit/537.36 (KHTML, like Gecko) Version/4.0 Chrome/86.0.4240.99 XWEB/4317 MMWEBSDK/20220903 Mobile Safari/537.36 MMWEBID/7135 MicroMessenger/8.0.28.2240(0x28001CA2) WeChat/arm64 Weixin NetType/WIFI Language/zh_CN ABI/arm64","WebKit","Chrome","86.0.4240.99","AndroidOS","10","null","<div style=""font-size:60px;"">+</div>","null",""
"","","","","","html-button-response","17","47928","0.0-4.0-1.6","268","1","2022-10-15 10:30:55","d60b49b5908c80e163b920d72b52d584","113.220.122.19","Mozilla/5.0 (Linux; Android 10; KKG-AN00 Build/HONORKKG-AN00; wv) AppleWebKit/537.36 (KHTML, like Gecko) Version/4.0 Chrome/86.0.4240.99 XWEB/4317 MMWEBSDK/20220903 Mobile Safari/537.36 MMWEBID/7135 MicroMessenger/8.0.28.2240(0x28001CA2) WeChat/arm64 Weixin NetType/WIFI Language/zh_CN ABI/arm64","WebKit","Chrome","86.0.4240.99","AndroidOS","10","1171","<p>作为军队的指挥官，你可以选择发射导弹杀死 <strong>10名</strong> 敌国士兵，但会误杀附近的 <strong>1名</strong> 敌国平民。</p> <p>平民照片如下图所示。</p> <p></p> <img src='stimuli/faces/NCM8.jpg', style='max-width: 30%;'> </img> <p><strong>你是否选择发射武器？</strong></p>","1",""
"","","","","","html-keyboard-response","18","48932","0.0-4.0-0.7","268","1","2022-10-15 10:30:55","d60b49b5908c80e163b920d72b52d584","113.220.122.19","Mozilla/5.0 (Linux; Android 10; KKG-AN00 Build/HONORKKG-AN00; wv) AppleWebKit/537.36 (KHTML, like Gecko) Version/4.0 Chrome/86.0.4240.99 XWEB/4317 MMWEBSDK/20220903 Mobile Safari/537.36 MMWEBID/7135 MicroMessenger/8.0.28.2240(0x28001CA2) WeChat/arm64 Weixin NetType/WIFI Language/zh_CN ABI/arm64","WebKit","Chrome","86.0.4240.99","AndroidOS","10","null","<div style=""font-size:60px;"">+</div>","null",""
"","","","","","html-button-response","19","49575","0.0-4.0-1.7","268","1","2022-10-15 10:30:55","d60b49b5908c80e163b920d72b52d584","113.220.122.19","Mozilla/5.0 (Linux; Android 10; KKG-AN00 Build/HONORKKG-AN00; wv) AppleWebKit/537.36 (KHTML, like Gecko) Version/4.0 Chrome/86.0.4240.99 XWEB/4317 MMWEBSDK/20220903 Mobile Safari/537.36 MMWEBID/7135 MicroMessenger/8.0.28.2240(0x28001CA2) WeChat/arm64 Weixin NetType/WIFI Language/zh_CN ABI/arm64","WebKit","Chrome","86.0.4240.99","AndroidOS","10","629","<p>作为军队的指挥官，你可以选择发射导弹杀死 <strong>3名</strong> 敌国士兵，但会炸毁附近的 <strong>1棵</strong> 敌国树木。</p> <p>树木的照片如下图所示。</p> <p></p> <img src='stimuli/trees/3.png', style='max-width: 30%;'> </img> <p><strong>你是否选择发射武器？</strong></p>","0",""
"","","","","","html-keyboard-response","20","50584","0.0-4.0-0.8","268","1","2022-10-15 10:30:55","d60b49b5908c80e163b920d72b52d584","113.220.122.19","Mozilla/5.0 (Linux; Android 10; KKG-AN00 Build/HONORKKG-AN00; wv) AppleWebKit/537.36 (KHTML, like Gecko) Version/4.0 Chrome/86.0.4240.99 XWEB/4317 MMWEBSDK/20220903 Mobile Safari/537.36 MMWEBID/7135 MicroMessenger/8.0.28.2240(0x28001CA2) WeChat/arm64 Weixin NetType/WIFI Language/zh_CN ABI/arm64","WebKit","Chrome","86.0.4240.99","AndroidOS","10","null","<div style=""font-size:60px;"">+</div>","null",""
"","","","","","html-button-response","21","51314","0.0-4.0-1.8","268","1","2022-10-15 10:30:55","d60b49b5908c80e163b920d72b52d584","113.220.122.19","Mozilla/5.0 (Linux; Android 10; KKG-AN00 Build/HONORKKG-AN00; wv) AppleWebKit/537.36 (KHTML, like Gecko) Version/4.0 Chrome/86.0.4240.99 XWEB/4317 MMWEBSDK/20220903 Mobile Safari/537.36 MMWEBID/7135 MicroMessenger/8.0.28.2240(0x28001CA2) WeChat/arm64 Weixin NetType/WIFI Language/zh_CN ABI/arm64","WebKit","Chrome","86.0.4240.99","AndroidOS","10","714","<p>作为军队的指挥官，你可以选择发射导弹杀死 <strong>2名</strong> 敌国士兵，但会炸毁附近的 <strong>1棵</strong> 敌国树木。</p> <p>树木的照片如下图所示。</p> <p></p> <img src='stimuli/trees/11.png', style='max-width: 30%;'> </img> <p><strong>你是否选择发射武器？</strong></p>","1",""
"","","","","","html-keyboard-response","22","52324","0.0-4.0-0.9","268","1","2022-10-15 10:30:55","d60b49b5908c80e163b920d72b52d584","113.220.122.19","Mozilla/5.0 (Linux; Android 10; KKG-AN00 Build/HONORKKG-AN00; wv) AppleWebKit/537.36 (KHTML, like Gecko) Version/4.0 Chrome/86.0.4240.99 XWEB/4317 MMWEBSDK/20220903 Mobile Safari/537.36 MMWEBID/7135 MicroMessenger/8.0.28.2240(0x28001CA2) WeChat/arm64 Weixin NetType/WIFI Language/zh_CN ABI/arm64","WebKit","Chrome","86.0.4240.99","AndroidOS","10","null","<div style=""font-size:60px;"">+</div>","null",""
"","","","","","html-button-response","23","54206","0.0-4.0-1.9","268","1","2022-10-15 10:30:55","d60b49b5908c80e163b920d72b52d584","113.220.122.19","Mozilla/5.0 (Linux; Android 10; KKG-AN00 Build/HONORKKG-AN00; wv) AppleWebKit/537.36 (KHTML, like Gecko) Version/4.0 Chrome/86.0.4240.99 XWEB/4317 MMWEBSDK/20220903 Mobile Safari/537.36 MMWEBID/7135 MicroMessenger/8.0.28.2240(0x28001CA2) WeChat/arm64 Weixin NetType/WIFI Language/zh_CN ABI/arm64","WebKit","Chrome","86.0.4240.99","AndroidOS","10","1866","<p>作为军队的指挥官，你可以选择发射导弹杀死 <strong>7名</strong> 敌国士兵，但会炸毁附近的 <strong>1棵</strong> 敌国树木。</p> <p>树木的照片如下图所示。</p> <p></p> <img src='stimuli/trees/9.png', style='max-width: 30%;'> </img> <p><strong>你是否选择发射武器？</strong></p>","0",""
"","","","","","html-keyboard-response","24","55211","0.0-4.0-0.10","268","1","2022-10-15 10:30:55","d60b49b5908c80e163b920d72b52d584","113.220.122.19","Mozilla/5.0 (Linux; Android 10; KKG-AN00 Build/HONORKKG-AN00; wv) AppleWebKit/537.36 (KHTML, like Gecko) Version/4.0 Chrome/86.0.4240.99 XWEB/4317 MMWEBSDK/20220903 Mobile Safari/537.36 MMWEBID/7135 MicroMessenger/8.0.28.2240(0x28001CA2) WeChat/arm64 Weixin NetType/WIFI Language/zh_CN ABI/arm64","WebKit","Chrome","86.0.4240.99","AndroidOS","10","null","<div style=""font-size:60px;"">+</div>","null",""
"","","","","","html-button-response","25","55995","0.0-4.0-1.10","268","1","2022-10-15 10:30:55","d60b49b5908c80e163b920d72b52d584","113.220.122.19","Mozilla/5.0 (Linux; Android 10; KKG-AN00 Build/HONORKKG-AN00; wv) AppleWebKit/537.36 (KHTML, like Gecko) Version/4.0 Chrome/86.0.4240.99 XWEB/4317 MMWEBSDK/20220903 Mobile Safari/537.36 MMWEBID/7135 MicroMessenger/8.0.28.2240(0x28001CA2) WeChat/arm64 Weixin NetType/WIFI Language/zh_CN ABI/arm64","WebKit","Chrome","86.0.4240.99","AndroidOS","10","774","<p>作为军队的指挥官，你可以选择发射导弹杀死 <strong>4名</strong> 敌国士兵，但会炸毁附近的 <strong>1棵</strong> 敌国树木。</p> <p>树木的照片如下图所示。</p> <p></p> <img src='stimuli/trees/8.png', style='max-width: 30%;'> </img> <p><strong>你是否选择发射武器？</strong></p>","1",""
"","","","","","html-keyboard-response","26","57002","0.0-4.0-0.11","268","1","2022-10-15 10:30:55","d60b49b5908c80e163b920d72b52d584","113.220.122.19","Mozilla/5.0 (Linux; Android 10; KKG-AN00 Build/HONORKKG-AN00; wv) AppleWebKit/537.36 (KHTML, like Gecko) Version/4.0 Chrome/86.0.4240.99 XWEB/4317 MMWEBSDK/20220903 Mobile Safari/537.36 MMWEBID/7135 MicroMessenger/8.0.28.2240(0x28001CA2) WeChat/arm64 Weixin NetType/WIFI Language/zh_CN ABI/arm64","WebKit","Chrome","86.0.4240.99","AndroidOS","10","null","<div style=""font-size:60px;"">+</div>","null",""
"","","","","","html-button-response","27","58307","0.0-4.0-1.11","268","1","2022-10-15 10:30:55","d60b49b5908c80e163b920d72b52d584","113.220.122.19","Mozilla/5.0 (Linux; Android 10; KKG-AN00 Build/HONORKKG-AN00; wv) AppleWebKit/537.36 (KHTML, like Gecko) Version/4.0 Chrome/86.0.4240.99 XWEB/4317 MMWEBSDK/20220903 Mobile Safari/537.36 MMWEBID/7135 MicroMessenger/8.0.28.2240(0x28001CA2) WeChat/arm64 Weixin NetType/WIFI Language/zh_CN ABI/arm64","WebKit","Chrome","86.0.4240.99","AndroidOS","10","1286","<p>作为军队的指挥官，你可以选择发射导弹杀死 <strong>10名</strong> 敌国士兵，但会误杀附近的 <strong>1名</strong> 敌国平民。</p> <p>平民照片如下图所示。</p> <p></p> <img src='stimuli/faces/NCF6.jpg', style='max-width: 30%;'> </img> <p><strong>你是否选择发射武器？</strong></p>","0",""
"","","","","","html-keyboard-response","28","59316","0.0-4.0-0.12","268","1","2022-10-15 10:30:55","d60b49b5908c80e163b920d72b52d584","113.220.122.19","Mozilla/5.0 (Linux; Android 10; KKG-AN00 Build/HONORKKG-AN00; wv) AppleWebKit/537.36 (KHTML, like Gecko) Version/4.0 Chrome/86.0.4240.99 XWEB/4317 MMWEBSDK/20220903 Mobile Safari/537.36 MMWEBID/7135 MicroMessenger/8.0.28.2240(0x28001CA2) WeChat/arm64 Weixin NetType/WIFI Language/zh_CN ABI/arm64","WebKit","Chrome","86.0.4240.99","AndroidOS","10","null","<div style=""font-size:60px;"">+</div>","null",""
"","","","","","html-button-response","29","59990","0.0-4.0-1.12","268","1","2022-10-15 10:30:55","d60b49b5908c80e163b920d72b52d584","113.220.122.19","Mozilla/5.0 (Linux; Android 10; KKG-AN00 Build/HONORKKG-AN00; wv) AppleWebKit/537.36 (KHTML, like Gecko) Version/4.0 Chrome/86.0.4240.99 XWEB/4317 MMWEBSDK/20220903 Mobile Safari/537.36 MMWEBID/7135 MicroMessenger/8.0.28.2240(0x28001CA2) WeChat/arm64 Weixin NetType/WIFI Language/zh_CN ABI/arm64","WebKit","Chrome","86.0.4240.99","AndroidOS","10","662","<p>作为军队的指挥官，你可以选择发射导弹杀死 <strong>2名</strong> 敌国士兵，但会炸毁附近的 <strong>1棵</strong> 敌国树木。</p> <p>树木的照片如下图所示。</p> <p></p> <img src='stimuli/trees/12.png', style='max-width: 30%;'> </img> <p><strong>你是否选择发射武器？</strong></p>","1",""
"","","","","","html-keyboard-response","30","60996","0.0-4.0-0.13","268","1","2022-10-15 10:30:55","d60b49b5908c80e163b920d72b52d584","113.220.122.19","Mozilla/5.0 (Linux; Android 10; KKG-AN00 Build/HONORKKG-AN00; wv) AppleWebKit/537.36 (KHTML, like Gecko) Version/4.0 Chrome/86.0.4240.99 XWEB/4317 MMWEBSDK/20220903 Mobile Safari/537.36 MMWEBID/7135 MicroMessenger/8.0.28.2240(0x28001CA2) WeChat/arm64 Weixin NetType/WIFI Language/zh_CN ABI/arm64","WebKit","Chrome","86.0.4240.99","AndroidOS","10","null","<div style=""font-size:60px;"">+</div>","null",""
"","","","","","html-button-response","31","62190","0.0-4.0-1.13","268","1","2022-10-15 10:30:55","d60b49b5908c80e163b920d72b52d584","113.220.122.19","Mozilla/5.0 (Linux; Android 10; KKG-AN00 Build/HONORKKG-AN00; wv) AppleWebKit/537.36 (KHTML, like Gecko) Version/4.0 Chrome/86.0.4240.99 XWEB/4317 MMWEBSDK/20220903 Mobile Safari/537.36 MMWEBID/7135 MicroMessenger/8.0.28.2240(0x28001CA2) WeChat/arm64 Weixin NetType/WIFI Language/zh_CN ABI/arm64","WebKit","Chrome","86.0.4240.99","AndroidOS","10","1185","<p>作为军队的指挥官，你可以选择发射导弹杀死 <strong>7名</strong> 敌国士兵，但会炸毁附近的 <strong>1棵</strong> 敌国树木。</p> <p>树木的照片如下图所示。</p> <p></p> <img src='stimuli/trees/5.png', style='max-width: 30%;'> </img> <p><strong>你是否选择发射武器？</strong></p>","0",""
"","","","","","html-keyboard-response","32","63196","0.0-4.0-0.14","268","1","2022-10-15 10:30:55","d60b49b5908c80e163b920d72b52d584","113.220.122.19","Mozilla/5.0 (Linux; Android 10; KKG-AN00 Build/HONORKKG-AN00; wv) AppleWebKit/537.36 (KHTML, like Gecko) Version/4.0 Chrome/86.0.4240.99 XWEB/4317 MMWEBSDK/20220903 Mobile Safari/537.36 MMWEBID/7135 MicroMessenger/8.0.28.2240(0x28001CA2) WeChat/arm64 Weixin NetType/WIFI Language/zh_CN ABI/arm64","WebKit","Chrome","86.0.4240.99","AndroidOS","10","null","<div style=""font-size:60px;"">+</div>","null",""
"","","","","","html-button-response","33","64136","0.0-4.0-1.14","268","1","2022-10-15 10:30:55","d60b49b5908c80e163b920d72b52d584","113.220.122.19","Mozilla/5.0 (Linux; Android 10; KKG-AN00 Build/HONORKKG-AN00; wv) AppleWebKit/537.36 (KHTML, like Gecko) Version/4.0 Chrome/86.0.4240.99 XWEB/4317 MMWEBSDK/20220903 Mobile Safari/537.36 MMWEBID/7135 MicroMessenger/8.0.28.2240(0x28001CA2) WeChat/arm64 Weixin NetType/WIFI Language/zh_CN ABI/arm64","WebKit","Chrome","86.0.4240.99","AndroidOS","10","921","<p>作为军队的指挥官，你可以选择发射导弹杀死 <strong>7名</strong> 敌国士兵，但会误杀附近的 <strong>1名</strong> 敌国平民。</p> <p>平民照片如下图所示。</p> <p></p> <img src='stimuli/faces/NCF5.jpg', style='max-width: 30%;'> </img> <p><strong>你是否选择发射武器？</strong></p>","0",""
"","","","","","html-keyboard-response","34","65146","0.0-4.0-0.15","268","1","2022-10-15 10:30:55","d60b49b5908c80e163b920d72b52d584","113.220.122.19","Mozilla/5.0 (Linux; Android 10; KKG-AN00 Build/HONORKKG-AN00; wv) AppleWebKit/537.36 (KHTML, like Gecko) Version/4.0 Chrome/86.0.4240.99 XWEB/4317 MMWEBSDK/20220903 Mobile Safari/537.36 MMWEBID/7135 MicroMessenger/8.0.28.2240(0x28001CA2) WeChat/arm64 Weixin NetType/WIFI Language/zh_CN ABI/arm64","WebKit","Chrome","86.0.4240.99","AndroidOS","10","null","<div style=""font-size:60px;"">+</div>","null",""
"","","","","","html-button-response","35","66027","0.0-4.0-1.15","268","1","2022-10-15 10:30:55","d60b49b5908c80e163b920d72b52d584","113.220.122.19","Mozilla/5.0 (Linux; Android 10; KKG-AN00 Build/HONORKKG-AN00; wv) AppleWebKit/537.36 (KHTML, like Gecko) Version/4.0 Chrome/86.0.4240.99 XWEB/4317 MMWEBSDK/20220903 Mobile Safari/537.36 MMWEBID/7135 MicroMessenger/8.0.28.2240(0x28001CA2) WeChat/arm64 Weixin NetType/WIFI Language/zh_CN ABI/arm64","WebKit","Chrome","86.0.4240.99","AndroidOS","10","857","<p>作为军队的指挥官，你可以选择发射导弹杀死 <strong>6名</strong> 敌国士兵，但会误杀附近的 <strong>1名</strong> 敌国平民。</p> <p>平民照片如下图所示。</p> <p></p> <img src='stimuli/faces/NCF4.jpg', style='max-width: 30%;'> </img> <p><strong>你是否选择发射武器？</strong></p>","0",""
"","","","","","html-keyboard-response","36","67038","0.0-4.0-0.16","268","1","2022-10-15 10:30:55","d60b49b5908c80e163b920d72b52d584","113.220.122.19","Mozilla/5.0 (Linux; Android 10; KKG-AN00 Build/HONORKKG-AN00; wv) AppleWebKit/537.36 (KHTML, like Gecko) Version/4.0 Chrome/86.0.4240.99 XWEB/4317 MMWEBSDK/20220903 Mobile Safari/537.36 MMWEBID/7135 MicroMessenger/8.0.28.2240(0x28001CA2) WeChat/arm64 Weixin NetType/WIFI Language/zh_CN ABI/arm64","WebKit","Chrome","86.0.4240.99","AndroidOS","10","null","<div style=""font-size:60px;"">+</div>","null",""
"","","","","","html-button-response","37","67993","0.0-4.0-1.16","268","1","2022-10-15 10:30:55","d60b49b5908c80e163b920d72b52d584","113.220.122.19","Mozilla/5.0 (Linux; Android 10; KKG-AN00 Build/HONORKKG-AN00; wv) AppleWebKit/537.36 (KHTML, like Gecko) Version/4.0 Chrome/86.0.4240.99 XWEB/4317 MMWEBSDK/20220903 Mobile Safari/537.36 MMWEBID/7135 MicroMessenger/8.0.28.2240(0x28001CA2) WeChat/arm64 Weixin NetType/WIFI Language/zh_CN ABI/arm64","WebKit","Chrome","86.0.4240.99","AndroidOS","10","936","<p>作为军队的指挥官，你可以选择发射导弹杀死 <strong>9名</strong> 敌国士兵，但会炸毁附近的 <strong>1棵</strong> 敌国树木。</p> <p>树木的照片如下图所示。</p> <p></p> <img src='stimuli/trees/7.png', style='max-width: 30%;'> </img> <p><strong>你是否选择发射武器？</strong></p>","0",""
"","","","","","html-keyboard-response","38","68999","0.0-4.0-0.17","268","1","2022-10-15 10:30:55","d60b49b5908c80e163b920d72b52d584","113.220.122.19","Mozilla/5.0 (Linux; Android 10; KKG-AN00 Build/HONORKKG-AN00; wv) AppleWebKit/537.36 (KHTML, like Gecko) Version/4.0 Chrome/86.0.4240.99 XWEB/4317 MMWEBSDK/20220903 Mobile Safari/537.36 MMWEBID/7135 MicroMessenger/8.0.28.2240(0x28001CA2) WeChat/arm64 Weixin NetType/WIFI Language/zh_CN ABI/arm64","WebKit","Chrome","86.0.4240.99","AndroidOS","10","null","<div style=""font-size:60px;"">+</div>","null",""
"","","","","","html-button-response","39","69928","0.0-4.0-1.17","268","1","2022-10-15 10:30:55","d60b49b5908c80e163b920d72b52d584","113.220.122.19","Mozilla/5.0 (Linux; Android 10; KKG-AN00 Build/HONORKKG-AN00; wv) AppleWebKit/537.36 (KHTML, like Gecko) Version/4.0 Chrome/86.0.4240.99 XWEB/4317 MMWEBSDK/20220903 Mobile Safari/537.36 MMWEBID/7135 MicroMessenger/8.0.28.2240(0x28001CA2) WeChat/arm64 Weixin NetType/WIFI Language/zh_CN ABI/arm64","WebKit","Chrome","86.0.4240.99","AndroidOS","10","912","<p>作为军队的指挥官，你可以选择发射导弹杀死 <strong>10名</strong> 敌国士兵，但会误杀附近的 <strong>1名</strong> 敌国平民。</p> <p>平民照片如下图所示。</p> <p></p> <img src='stimuli/faces/NCF2.jpg', style='max-width: 30%;'> </img> <p><strong>你是否选择发射武器？</strong></p>","0",""
"","","","","","html-keyboard-response","40","70934","0.0-4.0-0.18","268","1","2022-10-15 10:30:55","d60b49b5908c80e163b920d72b52d584","113.220.122.19","Mozilla/5.0 (Linux; Android 10; KKG-AN00 Build/HONORKKG-AN00; wv) AppleWebKit/537.36 (KHTML, like Gecko) Version/4.0 Chrome/86.0.4240.99 XWEB/4317 MMWEBSDK/20220903 Mobile Safari/537.36 MMWEBID/7135 MicroMessenger/8.0.28.2240(0x28001CA2) WeChat/arm64 Weixin NetType/WIFI Language/zh_CN ABI/arm64","WebKit","Chrome","86.0.4240.99","AndroidOS","10","null","<div style=""font-size:60px;"">+</div>","null",""
"","","","","","html-button-response","41","72697","0.0-4.0-1.18","268","1","2022-10-15 10:30:55","d60b49b5908c80e163b920d72b52d584","113.220.122.19","Mozilla/5.0 (Linux; Android 10; KKG-AN00 Build/HONORKKG-AN00; wv) AppleWebKit/537.36 (KHTML, like Gecko) Version/4.0 Chrome/86.0.4240.99 XWEB/4317 MMWEBSDK/20220903 Mobile Safari/537.36 MMWEBID/7135 MicroMessenger/8.0.28.2240(0x28001CA2) WeChat/arm64 Weixin NetType/WIFI Language/zh_CN ABI/arm64","WebKit","Chrome","86.0.4240.99","AndroidOS","10","1742","<p>作为军队的指挥官，你可以选择发射导弹杀死 <strong>1名</strong> 敌国士兵，但会误杀附近的 <strong>1名</strong> 敌国平民。</p> <p>平民照片如下图所示。</p> <p></p> <img src='stimuli/faces/NCM6.jpg', style='max-width: 30%;'> </img> <p><strong>你是否选择发射武器？</strong></p>","0",""
"","","","","","html-keyboard-response","42","73711","0.0-4.0-0.19","268","1","2022-10-15 10:30:55","d60b49b5908c80e163b920d72b52d584","113.220.122.19","Mozilla/5.0 (Linux; Android 10; KKG-AN00 Build/HONORKKG-AN00; wv) AppleWebKit/537.36 (KHTML, like Gecko) Version/4.0 Chrome/86.0.4240.99 XWEB/4317 MMWEBSDK/20220903 Mobile Safari/537.36 MMWEBID/7135 MicroMessenger/8.0.28.2240(0x28001CA2) WeChat/arm64 Weixin NetType/WIFI Language/zh_CN ABI/arm64","WebKit","Chrome","86.0.4240.99","AndroidOS","10","null","<div style=""font-size:60px;"">+</div>","null",""
"","","","","","html-button-response","43","74988","0.0-4.0-1.19","268","1","2022-10-15 10:30:55","d60b49b5908c80e163b920d72b52d584","113.220.122.19","Mozilla/5.0 (Linux; Android 10; KKG-AN00 Build/HONORKKG-AN00; wv) AppleWebKit/537.36 (KHTML, like Gecko) Version/4.0 Chrome/86.0.4240.99 XWEB/4317 MMWEBSDK/20220903 Mobile Safari/537.36 MMWEBID/7135 MicroMessenger/8.0.28.2240(0x28001CA2) WeChat/arm64 Weixin NetType/WIFI Language/zh_CN ABI/arm64","WebKit","Chrome","86.0.4240.99","AndroidOS","10","1254","<p>作为军队的指挥官，你可以选择发射导弹杀死 <strong>7名</strong> 敌国士兵，但会误杀附近的 <strong>1名</strong> 敌国平民。</p> <p>平民照片如下图所示。</p> <p></p> <img src='stimuli/faces/NCM5.jpg', style='max-width: 30%;'> </img> <p><strong>你是否选择发射武器？</strong></p>","0",""
"","","","","","html-keyboard-response","44","76002","0.0-4.0-0.20","268","1","2022-10-15 10:30:55","d60b49b5908c80e163b920d72b52d584","113.220.122.19","Mozilla/5.0 (Linux; Android 10; KKG-AN00 Build/HONORKKG-AN00; wv) AppleWebKit/537.36 (KHTML, like Gecko) Version/4.0 Chrome/86.0.4240.99 XWEB/4317 MMWEBSDK/20220903 Mobile Safari/537.36 MMWEBID/7135 MicroMessenger/8.0.28.2240(0x28001CA2) WeChat/arm64 Weixin NetType/WIFI Language/zh_CN ABI/arm64","WebKit","Chrome","86.0.4240.99","AndroidOS","10","null","<div style=""font-size:60px;"">+</div>","null",""
"","","","","","html-button-response","45","78295","0.0-4.0-1.20","268","1","2022-10-15 10:30:55","d60b49b5908c80e163b920d72b52d584","113.220.122.19","Mozilla/5.0 (Linux; Android 10; KKG-AN00 Build/HONORKKG-AN00; wv) AppleWebKit/537.36 (KHTML, like Gecko) Version/4.0 Chrome/86.0.4240.99 XWEB/4317 MMWEBSDK/20220903 Mobile Safari/537.36 MMWEBID/7135 MicroMessenger/8.0.28.2240(0x28001CA2) WeChat/arm64 Weixin NetType/WIFI Language/zh_CN ABI/arm64","WebKit","Chrome","86.0.4240.99","AndroidOS","10","2272","<p>作为军队的指挥官，你可以选择发射导弹杀死 <strong>1名</strong> 敌国士兵，但会误杀附近的 <strong>1名</strong> 敌国平民。</p> <p>平民照片如下图所示。</p> <p></p> <img src='stimuli/faces/NCF7.jpg', style='max-width: 30%;'> </img> <p><strong>你是否选择发射武器？</strong></p>","0",""
"","","","","","html-keyboard-response","46","79309","0.0-4.0-0.21","268","1","2022-10-15 10:30:55","d60b49b5908c80e163b920d72b52d584","113.220.122.19","Mozilla/5.0 (Linux; Android 10; KKG-AN00 Build/HONORKKG-AN00; wv) AppleWebKit/537.36 (KHTML, like Gecko) Version/4.0 Chrome/86.0.4240.99 XWEB/4317 MMWEBSDK/20220903 Mobile Safari/537.36 MMWEBID/7135 MicroMessenger/8.0.28.2240(0x28001CA2) WeChat/arm64 Weixin NetType/WIFI Language/zh_CN ABI/arm64","WebKit","Chrome","86.0.4240.99","AndroidOS","10","null","<div style=""font-size:60px;"">+</div>","null",""
"","","","","","html-button-response","47","88028","0.0-4.0-1.21","268","1","2022-10-15 10:30:55","d60b49b5908c80e163b920d72b52d584","113.220.122.19","Mozilla/5.0 (Linux; Android 10; KKG-AN00 Build/HONORKKG-AN00; wv) AppleWebKit/537.36 (KHTML, like Gecko) Version/4.0 Chrome/86.0.4240.99 XWEB/4317 MMWEBSDK/20220903 Mobile Safari/537.36 MMWEBID/7135 MicroMessenger/8.0.28.2240(0x28001CA2) WeChat/arm64 Weixin NetType/WIFI Language/zh_CN ABI/arm64","WebKit","Chrome","86.0.4240.99","AndroidOS","10","8697","<p>作为军队的指挥官，你可以选择发射导弹杀死 <strong>1名</strong> 敌国士兵，但会炸毁附近的 <strong>1棵</strong> 敌国树木。</p> <p>树木的照片如下图所示。</p> <p></p> <img src='stimuli/trees/1.png', style='max-width: 30%;'> </img> <p><strong>你是否选择发射武器？</strong></p>","1",""
"","","","","","html-keyboard-response","48","89040","0.0-4.0-0.22","268","1","2022-10-15 10:30:55","d60b49b5908c80e163b920d72b52d584","113.220.122.19","Mozilla/5.0 (Linux; Android 10; KKG-AN00 Build/HONORKKG-AN00; wv) AppleWebKit/537.36 (KHTML, like Gecko) Version/4.0 Chrome/86.0.4240.99 XWEB/4317 MMWEBSDK/20220903 Mobile Safari/537.36 MMWEBID/7135 MicroMessenger/8.0.28.2240(0x28001CA2) WeChat/arm64 Weixin NetType/WIFI Language/zh_CN ABI/arm64","WebKit","Chrome","86.0.4240.99","AndroidOS","10","null","<div style=""font-size:60px;"">+</div>","null",""
"","","","","","html-button-response","49","89940","0.0-4.0-1.22","268","1","2022-10-15 10:30:55","d60b49b5908c80e163b920d72b52d584","113.220.122.19","Mozilla/5.0 (Linux; Android 10; KKG-AN00 Build/HONORKKG-AN00; wv) AppleWebKit/537.36 (KHTML, like Gecko) Version/4.0 Chrome/86.0.4240.99 XWEB/4317 MMWEBSDK/20220903 Mobile Safari/537.36 MMWEBID/7135 MicroMessenger/8.0.28.2240(0x28001CA2) WeChat/arm64 Weixin NetType/WIFI Language/zh_CN ABI/arm64","WebKit","Chrome","86.0.4240.99","AndroidOS","10","878","<p>作为军队的指挥官，你可以选择发射导弹杀死 <strong>4名</strong> 敌国士兵，但会炸毁附近的 <strong>1棵</strong> 敌国树木。</p> <p>树木的照片如下图所示。</p> <p></p> <img src='stimuli/trees/13.png', style='max-width: 30%;'> </img> <p><strong>你是否选择发射武器？</strong></p>","0",""
"","","","","","html-keyboard-response","50","90950","0.0-4.0-0.23","268","1","2022-10-15 10:30:55","d60b49b5908c80e163b920d72b52d584","113.220.122.19","Mozilla/5.0 (Linux; Android 10; KKG-AN00 Build/HONORKKG-AN00; wv) AppleWebKit/537.36 (KHTML, like Gecko) Version/4.0 Chrome/86.0.4240.99 XWEB/4317 MMWEBSDK/20220903 Mobile Safari/537.36 MMWEBID/7135 MicroMessenger/8.0.28.2240(0x28001CA2) WeChat/arm64 Weixin NetType/WIFI Language/zh_CN ABI/arm64","WebKit","Chrome","86.0.4240.99","AndroidOS","10","null","<div style=""font-size:60px;"">+</div>","null",""
"","","","","","html-button-response","51","92705","0.0-4.0-1.23","268","1","2022-10-15 10:30:55","d60b49b5908c80e163b920d72b52d584","113.220.122.19","Mozilla/5.0 (Linux; Android 10; KKG-AN00 Build/HONORKKG-AN00; wv) AppleWebKit/537.36 (KHTML, like Gecko) Version/4.0 Chrome/86.0.4240.99 XWEB/4317 MMWEBSDK/20220903 Mobile Safari/537.36 MMWEBID/7135 MicroMessenger/8.0.28.2240(0x28001CA2) WeChat/arm64 Weixin NetType/WIFI Language/zh_CN ABI/arm64","WebKit","Chrome","86.0.4240.99","AndroidOS","10","1729","<p>作为军队的指挥官，你可以选择发射导弹杀死 <strong>6名</strong> 敌国士兵，但会炸毁附近的 <strong>1棵</strong> 敌国树木。</p> <p>树木的照片如下图所示。</p> <p></p> <img src='stimuli/trees/1.png', style='max-width: 30%;'> </img> <p><strong>你是否选择发射武器？</strong></p>","1",""
"","","","","","html-keyboard-response","52","93710","0.0-4.0-0.24","268","1","2022-10-15 10:30:55","d60b49b5908c80e163b920d72b52d584","113.220.122.19","Mozilla/5.0 (Linux; Android 10; KKG-AN00 Build/HONORKKG-AN00; wv) AppleWebKit/537.36 (KHTML, like Gecko) Version/4.0 Chrome/86.0.4240.99 XWEB/4317 MMWEBSDK/20220903 Mobile Safari/537.36 MMWEBID/7135 MicroMessenger/8.0.28.2240(0x28001CA2) WeChat/arm64 Weixin NetType/WIFI Language/zh_CN ABI/arm64","WebKit","Chrome","86.0.4240.99","AndroidOS","10","null","<div style=""font-size:60px;"">+</div>","null",""
"","","","","","html-button-response","53","94450","0.0-4.0-1.24","268","1","2022-10-15 10:30:55","d60b49b5908c80e163b920d72b52d584","113.220.122.19","Mozilla/5.0 (Linux; Android 10; KKG-AN00 Build/HONORKKG-AN00; wv) AppleWebKit/537.36 (KHTML, like Gecko) Version/4.0 Chrome/86.0.4240.99 XWEB/4317 MMWEBSDK/20220903 Mobile Safari/537.36 MMWEBID/7135 MicroMessenger/8.0.28.2240(0x28001CA2) WeChat/arm64 Weixin NetType/WIFI Language/zh_CN ABI/arm64","WebKit","Chrome","86.0.4240.99","AndroidOS","10","726","<p>作为军队的指挥官，你可以选择发射导弹杀死 <strong>5名</strong> 敌国士兵，但会误杀附近的 <strong>1名</strong> 敌国平民。</p> <p>平民照片如下图所示。</p> <p></p> <img src='stimuli/faces/NCF4.jpg', style='max-width: 30%;'> </img> <p><strong>你是否选择发射武器？</strong></p>","0",""
"","","","","","html-keyboard-response","54","95460","0.0-4.0-0.25","268","1","2022-10-15 10:30:55","d60b49b5908c80e163b920d72b52d584","113.220.122.19","Mozilla/5.0 (Linux; Android 10; KKG-AN00 Build/HONORKKG-AN00; wv) AppleWebKit/537.36 (KHTML, like Gecko) Version/4.0 Chrome/86.0.4240.99 XWEB/4317 MMWEBSDK/20220903 Mobile Safari/537.36 MMWEBID/7135 MicroMessenger/8.0.28.2240(0x28001CA2) WeChat/arm64 Weixin NetType/WIFI Language/zh_CN ABI/arm64","WebKit","Chrome","86.0.4240.99","AndroidOS","10","null","<div style=""font-size:60px;"">+</div>","null",""
"","","","","","html-button-response","55","96475","0.0-4.0-1.25","268","1","2022-10-15 10:30:55","d60b49b5908c80e163b920d72b52d584","113.220.122.19","Mozilla/5.0 (Linux; Android 10; KKG-AN00 Build/HONORKKG-AN00; wv) AppleWebKit/537.36 (KHTML, like Gecko) Version/4.0 Chrome/86.0.4240.99 XWEB/4317 MMWEBSDK/20220903 Mobile Safari/537.36 MMWEBID/7135 MicroMessenger/8.0.28.2240(0x28001CA2) WeChat/arm64 Weixin NetType/WIFI Language/zh_CN ABI/arm64","WebKit","Chrome","86.0.4240.99","AndroidOS","10","988","<p>作为军队的指挥官，你可以选择发射导弹杀死 <strong>10名</strong> 敌国士兵，但会误杀附近的 <strong>1名</strong> 敌国平民。</p> <p>平民照片如下图所示。</p> <p></p> <img src='stimuli/faces/NCM6.jpg', style='max-width: 30%;'> </img> <p><strong>你是否选择发射武器？</strong></p>","0",""
"","","","","","html-keyboard-response","56","97481","0.0-4.0-0.26","268","1","2022-10-15 10:30:55","d60b49b5908c80e163b920d72b52d584","113.220.122.19","Mozilla/5.0 (Linux; Android 10; KKG-AN00 Build/HONORKKG-AN00; wv) AppleWebKit/537.36 (KHTML, like Gecko) Version/4.0 Chrome/86.0.4240.99 XWEB/4317 MMWEBSDK/20220903 Mobile Safari/537.36 MMWEBID/7135 MicroMessenger/8.0.28.2240(0x28001CA2) WeChat/arm64 Weixin NetType/WIFI Language/zh_CN ABI/arm64","WebKit","Chrome","86.0.4240.99","AndroidOS","10","null","<div style=""font-size:60px;"">+</div>","null",""
"","","","","","html-button-response","57","98443","0.0-4.0-1.26","268","1","2022-10-15 10:30:55","d60b49b5908c80e163b920d72b52d584","113.220.122.19","Mozilla/5.0 (Linux; Android 10; KKG-AN00 Build/HONORKKG-AN00; wv) AppleWebKit/537.36 (KHTML, like Gecko) Version/4.0 Chrome/86.0.4240.99 XWEB/4317 MMWEBSDK/20220903 Mobile Safari/537.36 MMWEBID/7135 MicroMessenger/8.0.28.2240(0x28001CA2) WeChat/arm64 Weixin NetType/WIFI Language/zh_CN ABI/arm64","WebKit","Chrome","86.0.4240.99","AndroidOS","10","937","<p>作为军队的指挥官，你可以选择发射导弹杀死 <strong>10名</strong> 敌国士兵，但会误杀附近的 <strong>1名</strong> 敌国平民。</p> <p>平民照片如下图所示。</p> <p></p> <img src='stimuli/faces/NCM3.jpg', style='max-width: 30%;'> </img> <p><strong>你是否选择发射武器？</strong></p>","1",""
"","","","","","html-keyboard-response","58","99451","0.0-4.0-0.27","268","1","2022-10-15 10:30:55","d60b49b5908c80e163b920d72b52d584","113.220.122.19","Mozilla/5.0 (Linux; Android 10; KKG-AN00 Build/HONORKKG-AN00; wv) AppleWebKit/537.36 (KHTML, like Gecko) Version/4.0 Chrome/86.0.4240.99 XWEB/4317 MMWEBSDK/20220903 Mobile Safari/537.36 MMWEBID/7135 MicroMessenger/8.0.28.2240(0x28001CA2) WeChat/arm64 Weixin NetType/WIFI Language/zh_CN ABI/arm64","WebKit","Chrome","86.0.4240.99","AndroidOS","10","null","<div style=""font-size:60px;"">+</div>","null",""
"","","","","","html-button-response","59","100048","0.0-4.0-1.27","268","1","2022-10-15 10:30:55","d60b49b5908c80e163b920d72b52d584","113.220.122.19","Mozilla/5.0 (Linux; Android 10; KKG-AN00 Build/HONORKKG-AN00; wv) AppleWebKit/537.36 (KHTML, like Gecko) Version/4.0 Chrome/86.0.4240.99 XWEB/4317 MMWEBSDK/20220903 Mobile Safari/537.36 MMWEBID/7135 MicroMessenger/8.0.28.2240(0x28001CA2) WeChat/arm64 Weixin NetType/WIFI Language/zh_CN ABI/arm64","WebKit","Chrome","86.0.4240.99","AndroidOS","10","567","<p>作为军队的指挥官，你可以选择发射导弹杀死 <strong>9名</strong> 敌国士兵，但会炸毁附近的 <strong>1棵</strong> 敌国树木。</p> <p>树木的照片如下图所示。</p> <p></p> <img src='stimuli/trees/12.png', style='max-width: 30%;'> </img> <p><strong>你是否选择发射武器？</strong></p>","0",""
"","","","","","html-keyboard-response","60","101062","0.0-4.0-0.28","268","1","2022-10-15 10:30:55","d60b49b5908c80e163b920d72b52d584","113.220.122.19","Mozilla/5.0 (Linux; Android 10; KKG-AN00 Build/HONORKKG-AN00; wv) AppleWebKit/537.36 (KHTML, like Gecko) Version/4.0 Chrome/86.0.4240.99 XWEB/4317 MMWEBSDK/20220903 Mobile Safari/537.36 MMWEBID/7135 MicroMessenger/8.0.28.2240(0x28001CA2) WeChat/arm64 Weixin NetType/WIFI Language/zh_CN ABI/arm64","WebKit","Chrome","86.0.4240.99","AndroidOS","10","null","<div style=""font-size:60px;"">+</div>","null",""
"","","","","","html-button-response","61","101864","0.0-4.0-1.28","268","1","2022-10-15 10:30:55","d60b49b5908c80e163b920d72b52d584","113.220.122.19","Mozilla/5.0 (Linux; Android 10; KKG-AN00 Build/HONORKKG-AN00; wv) AppleWebKit/537.36 (KHTML, like Gecko) Version/4.0 Chrome/86.0.4240.99 XWEB/4317 MMWEBSDK/20220903 Mobile Safari/537.36 MMWEBID/7135 MicroMessenger/8.0.28.2240(0x28001CA2) WeChat/arm64 Weixin NetType/WIFI Language/zh_CN ABI/arm64","WebKit","Chrome","86.0.4240.99","AndroidOS","10","775","<p>作为军队的指挥官，你可以选择发射导弹杀死 <strong>5名</strong> 敌国士兵，但会误杀附近的 <strong>1名</strong> 敌国平民。</p> <p>平民照片如下图所示。</p> <p></p> <img src='stimuli/faces/NCF5.jpg', style='max-width: 30%;'> </img> <p><strong>你是否选择发射武器？</strong></p>","0",""
"","","","","","html-keyboard-response","62","102870","0.0-4.0-0.29","268","1","2022-10-15 10:30:55","d60b49b5908c80e163b920d72b52d584","113.220.122.19","Mozilla/5.0 (Linux; Android 10; KKG-AN00 Build/HONORKKG-AN00; wv) AppleWebKit/537.36 (KHTML, like Gecko) Version/4.0 Chrome/86.0.4240.99 XWEB/4317 MMWEBSDK/20220903 Mobile Safari/537.36 MMWEBID/7135 MicroMessenger/8.0.28.2240(0x28001CA2) WeChat/arm64 Weixin NetType/WIFI Language/zh_CN ABI/arm64","WebKit","Chrome","86.0.4240.99","AndroidOS","10","null","<div style=""font-size:60px;"">+</div>","null",""
"","","","","","html-button-response","63","105491","0.0-4.0-1.29","268","1","2022-10-15 10:30:55","d60b49b5908c80e163b920d72b52d584","113.220.122.19","Mozilla/5.0 (Linux; Android 10; KKG-AN00 Build/HONORKKG-AN00; wv) AppleWebKit/537.36 (KHTML, like Gecko) Version/4.0 Chrome/86.0.4240.99 XWEB/4317 MMWEBSDK/20220903 Mobile Safari/537.36 MMWEBID/7135 MicroMessenger/8.0.28.2240(0x28001CA2) WeChat/arm64 Weixin NetType/WIFI Language/zh_CN ABI/arm64","WebKit","Chrome","86.0.4240.99","AndroidOS","10","2593","<p>作为军队的指挥官，你可以选择发射导弹杀死 <strong>5名</strong> 敌国士兵，但会炸毁附近的 <strong>1棵</strong> 敌国树木。</p> <p>树木的照片如下图所示。</p> <p></p> <img src='stimuli/trees/14.png', style='max-width: 30%;'> </img> <p><strong>你是否选择发射武器？</strong></p>","0",""
"","","","","","html-keyboard-response","64","106514","0.0-4.0-0.30","268","1","2022-10-15 10:30:55","d60b49b5908c80e163b920d72b52d584","113.220.122.19","Mozilla/5.0 (Linux; Android 10; KKG-AN00 Build/HONORKKG-AN00; wv) AppleWebKit/537.36 (KHTML, like Gecko) Version/4.0 Chrome/86.0.4240.99 XWEB/4317 MMWEBSDK/20220903 Mobile Safari/537.36 MMWEBID/7135 MicroMessenger/8.0.28.2240(0x28001CA2) WeChat/arm64 Weixin NetType/WIFI Language/zh_CN ABI/arm64","WebKit","Chrome","86.0.4240.99","AndroidOS","10","null","<div style=""font-size:60px;"">+</div>","null",""
"","","","","","html-button-response","65","111265","0.0-4.0-1.30","268","1","2022-10-15 10:30:55","d60b49b5908c80e163b920d72b52d584","113.220.122.19","Mozilla/5.0 (Linux; Android 10; KKG-AN00 Build/HONORKKG-AN00; wv) AppleWebKit/537.36 (KHTML, like Gecko) Version/4.0 Chrome/86.0.4240.99 XWEB/4317 MMWEBSDK/20220903 Mobile Safari/537.36 MMWEBID/7135 MicroMessenger/8.0.28.2240(0x28001CA2) WeChat/arm64 Weixin NetType/WIFI Language/zh_CN ABI/arm64","WebKit","Chrome","86.0.4240.99","AndroidOS","10","4720","<p>作为军队的指挥官，你可以选择发射导弹杀死 <strong>3名</strong> 敌国士兵，但会误杀附近的 <strong>1名</strong> 敌国平民。</p> <p>平民照片如下图所示。</p> <p></p> <img src='stimuli/faces/NCM3.jpg', style='max-width: 30%;'> </img> <p><strong>你是否选择发射武器？</strong></p>","0",""
"","","","","","html-keyboard-response","66","112281","0.0-4.0-0.31","268","1","2022-10-15 10:30:55","d60b49b5908c80e163b920d72b52d584","113.220.122.19","Mozilla/5.0 (Linux; Android 10; KKG-AN00 Build/HONORKKG-AN00; wv) AppleWebKit/537.36 (KHTML, like Gecko) Version/4.0 Chrome/86.0.4240.99 XWEB/4317 MMWEBSDK/20220903 Mobile Safari/537.36 MMWEBID/7135 MicroMessenger/8.0.28.2240(0x28001CA2) WeChat/arm64 Weixin NetType/WIFI Language/zh_CN ABI/arm64","WebKit","Chrome","86.0.4240.99","AndroidOS","10","null","<div style=""font-size:60px;"">+</div>","null",""
"","","","","","html-button-response","67","113991","0.0-4.0-1.31","268","1","2022-10-15 10:30:55","d60b49b5908c80e163b920d72b52d584","113.220.122.19","Mozilla/5.0 (Linux; Android 10; KKG-AN00 Build/HONORKKG-AN00; wv) AppleWebKit/537.36 (KHTML, like Gecko) Version/4.0 Chrome/86.0.4240.99 XWEB/4317 MMWEBSDK/20220903 Mobile Safari/537.36 MMWEBID/7135 MicroMessenger/8.0.28.2240(0x28001CA2) WeChat/arm64 Weixin NetType/WIFI Language/zh_CN ABI/arm64","WebKit","Chrome","86.0.4240.99","AndroidOS","10","1700","<p>作为军队的指挥官，你可以选择发射导弹杀死 <strong>10名</strong> 敌国士兵，但会炸毁附近的 <strong>1棵</strong> 敌国树木。</p> <p>树木的照片如下图所示。</p> <p></p> <img src='stimuli/trees/4.png', style='max-width: 30%;'> </img> <p><strong>你是否选择发射武器？</strong></p>","0",""
"","","","","","html-keyboard-response","68","115003","0.0-4.0-0.32","268","1","2022-10-15 10:30:55","d60b49b5908c80e163b920d72b52d584","113.220.122.19","Mozilla/5.0 (Linux; Android 10; KKG-AN00 Build/HONORKKG-AN00; wv) AppleWebKit/537.36 (KHTML, like Gecko) Version/4.0 Chrome/86.0.4240.99 XWEB/4317 MMWEBSDK/20220903 Mobile Safari/537.36 MMWEBID/7135 MicroMessenger/8.0.28.2240(0x28001CA2) WeChat/arm64 Weixin NetType/WIFI Language/zh_CN ABI/arm64","WebKit","Chrome","86.0.4240.99","AndroidOS","10","null","<div style=""font-size:60px;"">+</div>","null",""
"","","","","","html-button-response","69","116307","0.0-4.0-1.32","268","1","2022-10-15 10:30:55","d60b49b5908c80e163b920d72b52d584","113.220.122.19","Mozilla/5.0 (Linux; Android 10; KKG-AN00 Build/HONORKKG-AN00; wv) AppleWebKit/537.36 (KHTML, like Gecko) Version/4.0 Chrome/86.0.4240.99 XWEB/4317 MMWEBSDK/20220903 Mobile Safari/537.36 MMWEBID/7135 MicroMessenger/8.0.28.2240(0x28001CA2) WeChat/arm64 Weixin NetType/WIFI Language/zh_CN ABI/arm64","WebKit","Chrome","86.0.4240.99","AndroidOS","10","1279","<p>作为军队的指挥官，你可以选择发射导弹杀死 <strong>6名</strong> 敌国士兵，但会误杀附近的 <strong>1名</strong> 敌国平民。</p> <p>平民照片如下图所示。</p> <p></p> <img src='stimuli/faces/NCM1.jpg', style='max-width: 30%;'> </img> <p><strong>你是否选择发射武器？</strong></p>","0",""
"","","","","","html-keyboard-response","70","117318","0.0-4.0-0.33","268","1","2022-10-15 10:30:55","d60b49b5908c80e163b920d72b52d584","113.220.122.19","Mozilla/5.0 (Linux; Android 10; KKG-AN00 Build/HONORKKG-AN00; wv) AppleWebKit/537.36 (KHTML, like Gecko) Version/4.0 Chrome/86.0.4240.99 XWEB/4317 MMWEBSDK/20220903 Mobile Safari/537.36 MMWEBID/7135 MicroMessenger/8.0.28.2240(0x28001CA2) WeChat/arm64 Weixin NetType/WIFI Language/zh_CN ABI/arm64","WebKit","Chrome","86.0.4240.99","AndroidOS","10","null","<div style=""font-size:60px;"">+</div>","null",""
"","","","","","html-button-response","71","118255","0.0-4.0-1.33","268","1","2022-10-15 10:30:55","d60b49b5908c80e163b920d72b52d584","113.220.122.19","Mozilla/5.0 (Linux; Android 10; KKG-AN00 Build/HONORKKG-AN00; wv) AppleWebKit/537.36 (KHTML, like Gecko) Version/4.0 Chrome/86.0.4240.99 XWEB/4317 MMWEBSDK/20220903 Mobile Safari/537.36 MMWEBID/7135 MicroMessenger/8.0.28.2240(0x28001CA2) WeChat/arm64 Weixin NetType/WIFI Language/zh_CN ABI/arm64","WebKit","Chrome","86.0.4240.99","AndroidOS","10","910","<p>作为军队的指挥官，你可以选择发射导弹杀死 <strong>4名</strong> 敌国士兵，但会误杀附近的 <strong>1名</strong> 敌国平民。</p> <p>平民照片如下图所示。</p> <p></p> <img src='stimuli/faces/NCF6.jpg', style='max-width: 30%;'> </img> <p><strong>你是否选择发射武器？</strong></p>","0",""
"","","","","","html-keyboard-response","72","119273","0.0-4.0-0.34","268","1","2022-10-15 10:30:55","d60b49b5908c80e163b920d72b52d584","113.220.122.19","Mozilla/5.0 (Linux; Android 10; KKG-AN00 Build/HONORKKG-AN00; wv) AppleWebKit/537.36 (KHTML, like Gecko) Version/4.0 Chrome/86.0.4240.99 XWEB/4317 MMWEBSDK/20220903 Mobile Safari/537.36 MMWEBID/7135 MicroMessenger/8.0.28.2240(0x28001CA2) WeChat/arm64 Weixin NetType/WIFI Language/zh_CN ABI/arm64","WebKit","Chrome","86.0.4240.99","AndroidOS","10","null","<div style=""font-size:60px;"">+</div>","null",""
"","","","","","html-button-response","73","120039","0.0-4.0-1.34","268","1","2022-10-15 10:30:55","d60b49b5908c80e163b920d72b52d584","113.220.122.19","Mozilla/5.0 (Linux; Android 10; KKG-AN00 Build/HONORKKG-AN00; wv) AppleWebKit/537.36 (KHTML, like Gecko) Version/4.0 Chrome/86.0.4240.99 XWEB/4317 MMWEBSDK/20220903 Mobile Safari/537.36 MMWEBID/7135 MicroMessenger/8.0.28.2240(0x28001CA2) WeChat/arm64 Weixin NetType/WIFI Language/zh_CN ABI/arm64","WebKit","Chrome","86.0.4240.99","AndroidOS","10","734","<p>作为军队的指挥官，你可以选择发射导弹杀死 <strong>1名</strong> 敌国士兵，但会误杀附近的 <strong>1名</strong> 敌国平民。</p> <p>平民照片如下图所示。</p> <p></p> <img src='stimuli/faces/NCF2.jpg', style='max-width: 30%;'> </img> <p><strong>你是否选择发射武器？</strong></p>","0",""
"","","","","","html-keyboard-response","74","121057","0.0-4.0-0.35","268","1","2022-10-15 10:30:55","d60b49b5908c80e163b920d72b52d584","113.220.122.19","Mozilla/5.0 (Linux; Android 10; KKG-AN00 Build/HONORKKG-AN00; wv) AppleWebKit/537.36 (KHTML, like Gecko) Version/4.0 Chrome/86.0.4240.99 XWEB/4317 MMWEBSDK/20220903 Mobile Safari/537.36 MMWEBID/7135 MicroMessenger/8.0.28.2240(0x28001CA2) WeChat/arm64 Weixin NetType/WIFI Language/zh_CN ABI/arm64","WebKit","Chrome","86.0.4240.99","AndroidOS","10","null","<div style=""font-size:60px;"">+</div>","null",""
"","","","","","html-button-response","75","121906","0.0-4.0-1.35","268","1","2022-10-15 10:30:55","d60b49b5908c80e163b920d72b52d584","113.220.122.19","Mozilla/5.0 (Linux; Android 10; KKG-AN00 Build/HONORKKG-AN00; wv) AppleWebKit/537.36 (KHTML, like Gecko) Version/4.0 Chrome/86.0.4240.99 XWEB/4317 MMWEBSDK/20220903 Mobile Safari/537.36 MMWEBID/7135 MicroMessenger/8.0.28.2240(0x28001CA2) WeChat/arm64 Weixin NetType/WIFI Language/zh_CN ABI/arm64","WebKit","Chrome","86.0.4240.99","AndroidOS","10","818","<p>作为军队的指挥官，你可以选择发射导弹杀死 <strong>1名</strong> 敌国士兵，但会误杀附近的 <strong>1名</strong> 敌国平民。</p> <p>平民照片如下图所示。</p> <p></p> <img src='stimuli/faces/NCF1.jpg', style='max-width: 30%;'> </img> <p><strong>你是否选择发射武器？</strong></p>","0",""
"","","","","","html-keyboard-response","76","122925","0.0-4.0-0.36","268","1","2022-10-15 10:30:55","d60b49b5908c80e163b920d72b52d584","113.220.122.19","Mozilla/5.0 (Linux; Android 10; KKG-AN00 Build/HONORKKG-AN00; wv) AppleWebKit/537.36 (KHTML, like Gecko) Version/4.0 Chrome/86.0.4240.99 XWEB/4317 MMWEBSDK/20220903 Mobile Safari/537.36 MMWEBID/7135 MicroMessenger/8.0.28.2240(0x28001CA2) WeChat/arm64 Weixin NetType/WIFI Language/zh_CN ABI/arm64","WebKit","Chrome","86.0.4240.99","AndroidOS","10","null","<div style=""font-size:60px;"">+</div>","null",""
"","","","","","html-button-response","77","124346","0.0-4.0-1.36","268","1","2022-10-15 10:30:55","d60b49b5908c80e163b920d72b52d584","113.220.122.19","Mozilla/5.0 (Linux; Android 10; KKG-AN00 Build/HONORKKG-AN00; wv) AppleWebKit/537.36 (KHTML, like Gecko) Version/4.0 Chrome/86.0.4240.99 XWEB/4317 MMWEBSDK/20220903 Mobile Safari/537.36 MMWEBID/7135 MicroMessenger/8.0.28.2240(0x28001CA2) WeChat/arm64 Weixin NetType/WIFI Language/zh_CN ABI/arm64","WebKit","Chrome","86.0.4240.99","AndroidOS","10","1403","<p>作为军队的指挥官，你可以选择发射导弹杀死 <strong>4名</strong> 敌国士兵，但会炸毁附近的 <strong>1棵</strong> 敌国树木。</p> <p>树木的照片如下图所示。</p> <p></p> <img src='stimuli/trees/5.png', style='max-width: 30%;'> </img> <p><strong>你是否选择发射武器？</strong></p>","0",""
"","","","","","html-keyboard-response","78","125360","0.0-4.0-0.37","268","1","2022-10-15 10:30:55","d60b49b5908c80e163b920d72b52d584","113.220.122.19","Mozilla/5.0 (Linux; Android 10; KKG-AN00 Build/HONORKKG-AN00; wv) AppleWebKit/537.36 (KHTML, like Gecko) Version/4.0 Chrome/86.0.4240.99 XWEB/4317 MMWEBSDK/20220903 Mobile Safari/537.36 MMWEBID/7135 MicroMessenger/8.0.28.2240(0x28001CA2) WeChat/arm64 Weixin NetType/WIFI Language/zh_CN ABI/arm64","WebKit","Chrome","86.0.4240.99","AndroidOS","10","null","<div style=""font-size:60px;"">+</div>","null",""
"","","","","","html-button-response","79","126675","0.0-4.0-1.37","268","1","2022-10-15 10:30:55","d60b49b5908c80e163b920d72b52d584","113.220.122.19","Mozilla/5.0 (Linux; Android 10; KKG-AN00 Build/HONORKKG-AN00; wv) AppleWebKit/537.36 (KHTML, like Gecko) Version/4.0 Chrome/86.0.4240.99 XWEB/4317 MMWEBSDK/20220903 Mobile Safari/537.36 MMWEBID/7135 MicroMessenger/8.0.28.2240(0x28001CA2) WeChat/arm64 Weixin NetType/WIFI Language/zh_CN ABI/arm64","WebKit","Chrome","86.0.4240.99","AndroidOS","10","1286","<p>作为军队的指挥官，你可以选择发射导弹杀死 <strong>4名</strong> 敌国士兵，但会误杀附近的 <strong>1名</strong> 敌国平民。</p> <p>平民照片如下图所示。</p> <p></p> <img src='stimuli/faces/NCM2.jpg', style='max-width: 30%;'> </img> <p><strong>你是否选择发射武器？</strong></p>","1",""
"","","","","","html-keyboard-response","80","127692","0.0-4.0-0.38","268","1","2022-10-15 10:30:55","d60b49b5908c80e163b920d72b52d584","113.220.122.19","Mozilla/5.0 (Linux; Android 10; KKG-AN00 Build/HONORKKG-AN00; wv) AppleWebKit/537.36 (KHTML, like Gecko) Version/4.0 Chrome/86.0.4240.99 XWEB/4317 MMWEBSDK/20220903 Mobile Safari/537.36 MMWEBID/7135 MicroMessenger/8.0.28.2240(0x28001CA2) WeChat/arm64 Weixin NetType/WIFI Language/zh_CN ABI/arm64","WebKit","Chrome","86.0.4240.99","AndroidOS","10","null","<div style=""font-size:60px;"">+</div>","null",""
"","","","","","html-button-response","81","139717","0.0-4.0-1.38","268","1","2022-10-15 10:30:55","d60b49b5908c80e163b920d72b52d584","113.220.122.19","Mozilla/5.0 (Linux; Android 10; KKG-AN00 Build/HONORKKG-AN00; wv) AppleWebKit/537.36 (KHTML, like Gecko) Version/4.0 Chrome/86.0.4240.99 XWEB/4317 MMWEBSDK/20220903 Mobile Safari/537.36 MMWEBID/7135 MicroMessenger/8.0.28.2240(0x28001CA2) WeChat/arm64 Weixin NetType/WIFI Language/zh_CN ABI/arm64","WebKit","Chrome","86.0.4240.99","AndroidOS","10","12011","<p>作为军队的指挥官，你可以选择发射导弹杀死 <strong>8名</strong> 敌国士兵，但会误杀附近的 <strong>1名</strong> 敌国平民。</p> <p>平民照片如下图所示。</p> <p></p> <img src='stimuli/faces/NCF8.jpg', style='max-width: 30%;'> </img> <p><strong>你是否选择发射武器？</strong></p>","1",""
"","","","","","html-keyboard-response","82","140726","0.0-4.0-0.39","268","1","2022-10-15 10:30:55","d60b49b5908c80e163b920d72b52d584","113.220.122.19","Mozilla/5.0 (Linux; Android 10; KKG-AN00 Build/HONORKKG-AN00; wv) AppleWebKit/537.36 (KHTML, like Gecko) Version/4.0 Chrome/86.0.4240.99 XWEB/4317 MMWEBSDK/20220903 Mobile Safari/537.36 MMWEBID/7135 MicroMessenger/8.0.28.2240(0x28001CA2) WeChat/arm64 Weixin NetType/WIFI Language/zh_CN ABI/arm64","WebKit","Chrome","86.0.4240.99","AndroidOS","10","null","<div style=""font-size:60px;"">+</div>","null",""
"","","","","","html-button-response","83","141728","0.0-4.0-1.39","268","1","2022-10-15 10:30:55","d60b49b5908c80e163b920d72b52d584","113.220.122.19","Mozilla/5.0 (Linux; Android 10; KKG-AN00 Build/HONORKKG-AN00; wv) AppleWebKit/537.36 (KHTML, like Gecko) Version/4.0 Chrome/86.0.4240.99 XWEB/4317 MMWEBSDK/20220903 Mobile Safari/537.36 MMWEBID/7135 MicroMessenger/8.0.28.2240(0x28001CA2) WeChat/arm64 Weixin NetType/WIFI Language/zh_CN ABI/arm64","WebKit","Chrome","86.0.4240.99","AndroidOS","10","967","<p>作为军队的指挥官，你可以选择发射导弹杀死 <strong>5名</strong> 敌国士兵，但会炸毁附近的 <strong>1棵</strong> 敌国树木。</p> <p>树木的照片如下图所示。</p> <p></p> <img src='stimuli/trees/10.png', style='max-width: 30%;'> </img> <p><strong>你是否选择发射武器？</strong></p>","1",""
"","","","","","html-keyboard-response","84","142738","0.0-4.0-0.40","268","1","2022-10-15 10:30:55","d60b49b5908c80e163b920d72b52d584","113.220.122.19","Mozilla/5.0 (Linux; Android 10; KKG-AN00 Build/HONORKKG-AN00; wv) AppleWebKit/537.36 (KHTML, like Gecko) Version/4.0 Chrome/86.0.4240.99 XWEB/4317 MMWEBSDK/20220903 Mobile Safari/537.36 MMWEBID/7135 MicroMessenger/8.0.28.2240(0x28001CA2) WeChat/arm64 Weixin NetType/WIFI Language/zh_CN ABI/arm64","WebKit","Chrome","86.0.4240.99","AndroidOS","10","null","<div style=""font-size:60px;"">+</div>","null",""
"","","","","","html-button-response","85","143338","0.0-4.0-1.40","268","1","2022-10-15 10:30:55","d60b49b5908c80e163b920d72b52d584","113.220.122.19","Mozilla/5.0 (Linux; Android 10; KKG-AN00 Build/HONORKKG-AN00; wv) AppleWebKit/537.36 (KHTML, like Gecko) Version/4.0 Chrome/86.0.4240.99 XWEB/4317 MMWEBSDK/20220903 Mobile Safari/537.36 MMWEBID/7135 MicroMessenger/8.0.28.2240(0x28001CA2) WeChat/arm64 Weixin NetType/WIFI Language/zh_CN ABI/arm64","WebKit","Chrome","86.0.4240.99","AndroidOS","10","562","<p>作为军队的指挥官，你可以选择发射导弹杀死 <strong>1名</strong> 敌国士兵，但会误杀附近的 <strong>1名</strong> 敌国平民。</p> <p>平民照片如下图所示。</p> <p></p> <img src='stimuli/faces/NCF3.jpg', style='max-width: 30%;'> </img> <p><strong>你是否选择发射武器？</strong></p>","0",""
"","","","","","html-keyboard-response","86","144357","0.0-4.0-0.41","268","1","2022-10-15 10:30:55","d60b49b5908c80e163b920d72b52d584","113.220.122.19","Mozilla/5.0 (Linux; Android 10; KKG-AN00 Build/HONORKKG-AN00; wv) AppleWebKit/537.36 (KHTML, like Gecko) Version/4.0 Chrome/86.0.4240.99 XWEB/4317 MMWEBSDK/20220903 Mobile Safari/537.36 MMWEBID/7135 MicroMessenger/8.0.28.2240(0x28001CA2) WeChat/arm64 Weixin NetType/WIFI Language/zh_CN ABI/arm64","WebKit","Chrome","86.0.4240.99","AndroidOS","10","null","<div style=""font-size:60px;"">+</div>","null",""
"","","","","","html-button-response","87","145062","0.0-4.0-1.41","268","1","2022-10-15 10:30:55","d60b49b5908c80e163b920d72b52d584","113.220.122.19","Mozilla/5.0 (Linux; Android 10; KKG-AN00 Build/HONORKKG-AN00; wv) AppleWebKit/537.36 (KHTML, like Gecko) Version/4.0 Chrome/86.0.4240.99 XWEB/4317 MMWEBSDK/20220903 Mobile Safari/537.36 MMWEBID/7135 MicroMessenger/8.0.28.2240(0x28001CA2) WeChat/arm64 Weixin NetType/WIFI Language/zh_CN ABI/arm64","WebKit","Chrome","86.0.4240.99","AndroidOS","10","671","<p>作为军队的指挥官，你可以选择发射导弹杀死 <strong>3名</strong> 敌国士兵，但会炸毁附近的 <strong>1棵</strong> 敌国树木。</p> <p>树木的照片如下图所示。</p> <p></p> <img src='stimuli/trees/9.png', style='max-width: 30%;'> </img> <p><strong>你是否选择发射武器？</strong></p>","0",""
"","","","","","html-keyboard-response","88","146077","0.0-4.0-0.42","268","1","2022-10-15 10:30:55","d60b49b5908c80e163b920d72b52d584","113.220.122.19","Mozilla/5.0 (Linux; Android 10; KKG-AN00 Build/HONORKKG-AN00; wv) AppleWebKit/537.36 (KHTML, like Gecko) Version/4.0 Chrome/86.0.4240.99 XWEB/4317 MMWEBSDK/20220903 Mobile Safari/537.36 MMWEBID/7135 MicroMessenger/8.0.28.2240(0x28001CA2) WeChat/arm64 Weixin NetType/WIFI Language/zh_CN ABI/arm64","WebKit","Chrome","86.0.4240.99","AndroidOS","10","null","<div style=""font-size:60px;"">+</div>","null",""
"","","","","","html-button-response","89","146975","0.0-4.0-1.42","268","1","2022-10-15 10:30:55","d60b49b5908c80e163b920d72b52d584","113.220.122.19","Mozilla/5.0 (Linux; Android 10; KKG-AN00 Build/HONORKKG-AN00; wv) AppleWebKit/537.36 (KHTML, like Gecko) Version/4.0 Chrome/86.0.4240.99 XWEB/4317 MMWEBSDK/20220903 Mobile Safari/537.36 MMWEBID/7135 MicroMessenger/8.0.28.2240(0x28001CA2) WeChat/arm64 Weixin NetType/WIFI Language/zh_CN ABI/arm64","WebKit","Chrome","86.0.4240.99","AndroidOS","10","863","<p>作为军队的指挥官，你可以选择发射导弹杀死 <strong>5名</strong> 敌国士兵，但会炸毁附近的 <strong>1棵</strong> 敌国树木。</p> <p>树木的照片如下图所示。</p> <p></p> <img src='stimuli/trees/2.png', style='max-width: 30%;'> </img> <p><strong>你是否选择发射武器？</strong></p>","0",""
"","","","","","html-keyboard-response","90","147990","0.0-4.0-0.43","268","1","2022-10-15 10:30:55","d60b49b5908c80e163b920d72b52d584","113.220.122.19","Mozilla/5.0 (Linux; Android 10; KKG-AN00 Build/HONORKKG-AN00; wv) AppleWebKit/537.36 (KHTML, like Gecko) Version/4.0 Chrome/86.0.4240.99 XWEB/4317 MMWEBSDK/20220903 Mobile Safari/537.36 MMWEBID/7135 MicroMessenger/8.0.28.2240(0x28001CA2) WeChat/arm64 Weixin NetType/WIFI Language/zh_CN ABI/arm64","WebKit","Chrome","86.0.4240.99","AndroidOS","10","null","<div style=""font-size:60px;"">+</div>","null",""
"","","","","","html-button-response","91","149208","0.0-4.0-1.43","268","1","2022-10-15 10:30:55","d60b49b5908c80e163b920d72b52d584","113.220.122.19","Mozilla/5.0 (Linux; Android 10; KKG-AN00 Build/HONORKKG-AN00; wv) AppleWebKit/537.36 (KHTML, like Gecko) Version/4.0 Chrome/86.0.4240.99 XWEB/4317 MMWEBSDK/20220903 Mobile Safari/537.36 MMWEBID/7135 MicroMessenger/8.0.28.2240(0x28001CA2) WeChat/arm64 Weixin NetType/WIFI Language/zh_CN ABI/arm64","WebKit","Chrome","86.0.4240.99","AndroidOS","10","1181","<p>作为军队的指挥官，你可以选择发射导弹杀死 <strong>10名</strong> 敌国士兵，但会误杀附近的 <strong>1名</strong> 敌国平民。</p> <p>平民照片如下图所示。</p> <p></p> <img src='stimuli/faces/NCM7.jpg', style='max-width: 30%;'> </img> <p><strong>你是否选择发射武器？</strong></p>","1",""
"","","","","","html-keyboard-response","92","150230","0.0-4.0-0.44","268","1","2022-10-15 10:30:55","d60b49b5908c80e163b920d72b52d584","113.220.122.19","Mozilla/5.0 (Linux; Android 10; KKG-AN00 Build/HONORKKG-AN00; wv) AppleWebKit/537.36 (KHTML, like Gecko) Version/4.0 Chrome/86.0.4240.99 XWEB/4317 MMWEBSDK/20220903 Mobile Safari/537.36 MMWEBID/7135 MicroMessenger/8.0.28.2240(0x28001CA2) WeChat/arm64 Weixin NetType/WIFI Language/zh_CN ABI/arm64","WebKit","Chrome","86.0.4240.99","AndroidOS","10","null","<div style=""font-size:60px;"">+</div>","null",""
"","","","","","html-button-response","93","151431","0.0-4.0-1.44","268","1","2022-10-15 10:30:55","d60b49b5908c80e163b920d72b52d584","113.220.122.19","Mozilla/5.0 (Linux; Android 10; KKG-AN00 Build/HONORKKG-AN00; wv) AppleWebKit/537.36 (KHTML, like Gecko) Version/4.0 Chrome/86.0.4240.99 XWEB/4317 MMWEBSDK/20220903 Mobile Safari/537.36 MMWEBID/7135 MicroMessenger/8.0.28.2240(0x28001CA2) WeChat/arm64 Weixin NetType/WIFI Language/zh_CN ABI/arm64","WebKit","Chrome","86.0.4240.99","AndroidOS","10","1172","<p>作为军队的指挥官，你可以选择发射导弹杀死 <strong>8名</strong> 敌国士兵，但会炸毁附近的 <strong>1棵</strong> 敌国树木。</p> <p>树木的照片如下图所示。</p> <p></p> <img src='stimuli/trees/10.png', style='max-width: 30%;'> </img> <p><strong>你是否选择发射武器？</strong></p>","0",""
"","","","","","html-keyboard-response","94","152449","0.0-4.0-0.45","268","1","2022-10-15 10:30:55","d60b49b5908c80e163b920d72b52d584","113.220.122.19","Mozilla/5.0 (Linux; Android 10; KKG-AN00 Build/HONORKKG-AN00; wv) AppleWebKit/537.36 (KHTML, like Gecko) Version/4.0 Chrome/86.0.4240.99 XWEB/4317 MMWEBSDK/20220903 Mobile Safari/537.36 MMWEBID/7135 MicroMessenger/8.0.28.2240(0x28001CA2) WeChat/arm64 Weixin NetType/WIFI Language/zh_CN ABI/arm64","WebKit","Chrome","86.0.4240.99","AndroidOS","10","null","<div style=""font-size:60px;"">+</div>","null",""
"","","","","","html-button-response","95","153542","0.0-4.0-1.45","268","1","2022-10-15 10:30:55","d60b49b5908c80e163b920d72b52d584","113.220.122.19","Mozilla/5.0 (Linux; Android 10; KKG-AN00 Build/HONORKKG-AN00; wv) AppleWebKit/537.36 (KHTML, like Gecko) Version/4.0 Chrome/86.0.4240.99 XWEB/4317 MMWEBSDK/20220903 Mobile Safari/537.36 MMWEBID/7135 MicroMessenger/8.0.28.2240(0x28001CA2) WeChat/arm64 Weixin NetType/WIFI Language/zh_CN ABI/arm64","WebKit","Chrome","86.0.4240.99","AndroidOS","10","1062","<p>作为军队的指挥官，你可以选择发射导弹杀死 <strong>10名</strong> 敌国士兵，但会炸毁附近的 <strong>1棵</strong> 敌国树木。</p> <p>树木的照片如下图所示。</p> <p></p> <img src='stimuli/trees/6.png', style='max-width: 30%;'> </img> <p><strong>你是否选择发射武器？</strong></p>","0",""
"","","","","","html-keyboard-response","96","154555","0.0-4.0-0.46","268","1","2022-10-15 10:30:55","d60b49b5908c80e163b920d72b52d584","113.220.122.19","Mozilla/5.0 (Linux; Android 10; KKG-AN00 Build/HONORKKG-AN00; wv) AppleWebKit/537.36 (KHTML, like Gecko) Version/4.0 Chrome/86.0.4240.99 XWEB/4317 MMWEBSDK/20220903 Mobile Safari/537.36 MMWEBID/7135 MicroMessenger/8.0.28.2240(0x28001CA2) WeChat/arm64 Weixin NetType/WIFI Language/zh_CN ABI/arm64","WebKit","Chrome","86.0.4240.99","AndroidOS","10","null","<div style=""font-size:60px;"">+</div>","null",""
"","","","","","html-button-response","97","155393","0.0-4.0-1.46","268","1","2022-10-15 10:30:55","d60b49b5908c80e163b920d72b52d584","113.220.122.19","Mozilla/5.0 (Linux; Android 10; KKG-AN00 Build/HONORKKG-AN00; wv) AppleWebKit/537.36 (KHTML, like Gecko) Version/4.0 Chrome/86.0.4240.99 XWEB/4317 MMWEBSDK/20220903 Mobile Safari/537.36 MMWEBID/7135 MicroMessenger/8.0.28.2240(0x28001CA2) WeChat/arm64 Weixin NetType/WIFI Language/zh_CN ABI/arm64","WebKit","Chrome","86.0.4240.99","AndroidOS","10","807","<p>作为军队的指挥官，你可以选择发射导弹杀死 <strong>4名</strong> 敌国士兵，但会炸毁附近的 <strong>1棵</strong> 敌国树木。</p> <p>树木的照片如下图所示。</p> <p></p> <img src='stimuli/trees/7.png', style='max-width: 30%;'> </img> <p><strong>你是否选择发射武器？</strong></p>","0",""
"","","","","","html-keyboard-response","98","156412","0.0-4.0-0.47","268","1","2022-10-15 10:30:55","d60b49b5908c80e163b920d72b52d584","113.220.122.19","Mozilla/5.0 (Linux; Android 10; KKG-AN00 Build/HONORKKG-AN00; wv) AppleWebKit/537.36 (KHTML, like Gecko) Version/4.0 Chrome/86.0.4240.99 XWEB/4317 MMWEBSDK/20220903 Mobile Safari/537.36 MMWEBID/7135 MicroMessenger/8.0.28.2240(0x28001CA2) WeChat/arm64 Weixin NetType/WIFI Language/zh_CN ABI/arm64","WebKit","Chrome","86.0.4240.99","AndroidOS","10","null","<div style=""font-size:60px;"">+</div>","null",""
"","","","","","html-button-response","99","157455","0.0-4.0-1.47","268","1","2022-10-15 10:30:55","d60b49b5908c80e163b920d72b52d584","113.220.122.19","Mozilla/5.0 (Linux; Android 10; KKG-AN00 Build/HONORKKG-AN00; wv) AppleWebKit/537.36 (KHTML, like Gecko) Version/4.0 Chrome/86.0.4240.99 XWEB/4317 MMWEBSDK/20220903 Mobile Safari/537.36 MMWEBID/7135 MicroMessenger/8.0.28.2240(0x28001CA2) WeChat/arm64 Weixin NetType/WIFI Language/zh_CN ABI/arm64","WebKit","Chrome","86.0.4240.99","AndroidOS","10","1005","<p>作为军队的指挥官，你可以选择发射导弹杀死 <strong>3名</strong> 敌国士兵，但会误杀附近的 <strong>1名</strong> 敌国平民。</p> <p>平民照片如下图所示。</p> <p></p> <img src='stimuli/faces/NCF8.jpg', style='max-width: 30%;'> </img> <p><strong>你是否选择发射武器？</strong></p>","0",""
"","","","","","html-keyboard-response","100","158476","0.0-4.0-0.48","268","1","2022-10-15 10:30:55","d60b49b5908c80e163b920d72b52d584","113.220.122.19","Mozilla/5.0 (Linux; Android 10; KKG-AN00 Build/HONORKKG-AN00; wv) AppleWebKit/537.36 (KHTML, like Gecko) Version/4.0 Chrome/86.0.4240.99 XWEB/4317 MMWEBSDK/20220903 Mobile Safari/537.36 MMWEBID/7135 MicroMessenger/8.0.28.2240(0x28001CA2) WeChat/arm64 Weixin NetType/WIFI Language/zh_CN ABI/arm64","WebKit","Chrome","86.0.4240.99","AndroidOS","10","null","<div style=""font-size:60px;"">+</div>","null",""
"","","","","","html-button-response","101","159575","0.0-4.0-1.48","268","1","2022-10-15 10:30:55","d60b49b5908c80e163b920d72b52d584","113.220.122.19","Mozilla/5.0 (Linux; Android 10; KKG-AN00 Build/HONORKKG-AN00; wv) AppleWebKit/537.36 (KHTML, like Gecko) Version/4.0 Chrome/86.0.4240.99 XWEB/4317 MMWEBSDK/20220903 Mobile Safari/537.36 MMWEBID/7135 MicroMessenger/8.0.28.2240(0x28001CA2) WeChat/arm64 Weixin NetType/WIFI Language/zh_CN ABI/arm64","WebKit","Chrome","86.0.4240.99","AndroidOS","10","1066","<p>作为军队的指挥官，你可以选择发射导弹杀死 <strong>3名</strong> 敌国士兵，但会误杀附近的 <strong>1名</strong> 敌国平民。</p> <p>平民照片如下图所示。</p> <p></p> <img src='stimuli/faces/NCM5.jpg', style='max-width: 30%;'> </img> <p><strong>你是否选择发射武器？</strong></p>","1",""
"","","","","","html-keyboard-response","102","160586","0.0-4.0-0.49","268","1","2022-10-15 10:30:55","d60b49b5908c80e163b920d72b52d584","113.220.122.19","Mozilla/5.0 (Linux; Android 10; KKG-AN00 Build/HONORKKG-AN00; wv) AppleWebKit/537.36 (KHTML, like Gecko) Version/4.0 Chrome/86.0.4240.99 XWEB/4317 MMWEBSDK/20220903 Mobile Safari/537.36 MMWEBID/7135 MicroMessenger/8.0.28.2240(0x28001CA2) WeChat/arm64 Weixin NetType/WIFI Language/zh_CN ABI/arm64","WebKit","Chrome","86.0.4240.99","AndroidOS","10","null","<div style=""font-size:60px;"">+</div>","null",""
"","","","","","html-button-response","103","161264","0.0-4.0-1.49","268","1","2022-10-15 10:30:55","d60b49b5908c80e163b920d72b52d584","113.220.122.19","Mozilla/5.0 (Linux; Android 10; KKG-AN00 Build/HONORKKG-AN00; wv) AppleWebKit/537.36 (KHTML, like Gecko) Version/4.0 Chrome/86.0.4240.99 XWEB/4317 MMWEBSDK/20220903 Mobile Safari/537.36 MMWEBID/7135 MicroMessenger/8.0.28.2240(0x28001CA2) WeChat/arm64 Weixin NetType/WIFI Language/zh_CN ABI/arm64","WebKit","Chrome","86.0.4240.99","AndroidOS","10","646","<p>作为军队的指挥官，你可以选择发射导弹杀死 <strong>6名</strong> 敌国士兵，但会炸毁附近的 <strong>1棵</strong> 敌国树木。</p> <p>树木的照片如下图所示。</p> <p></p> <img src='stimuli/trees/13.png', style='max-width: 30%;'> </img> <p><strong>你是否选择发射武器？</strong></p>","0",""
"","","","","","html-keyboard-response","104","162273","0.0-4.0-0.50","268","1","2022-10-15 10:30:55","d60b49b5908c80e163b920d72b52d584","113.220.122.19","Mozilla/5.0 (Linux; Android 10; KKG-AN00 Build/HONORKKG-AN00; wv) AppleWebKit/537.36 (KHTML, like Gecko) Version/4.0 Chrome/86.0.4240.99 XWEB/4317 MMWEBSDK/20220903 Mobile Safari/537.36 MMWEBID/7135 MicroMessenger/8.0.28.2240(0x28001CA2) WeChat/arm64 Weixin NetType/WIFI Language/zh_CN ABI/arm64","WebKit","Chrome","86.0.4240.99","AndroidOS","10","null","<div style=""font-size:60px;"">+</div>","null",""
"","","","","","html-button-response","105","163028","0.0-4.0-1.50","268","1","2022-10-15 10:30:55","d60b49b5908c80e163b920d72b52d584","113.220.122.19","Mozilla/5.0 (Linux; Android 10; KKG-AN00 Build/HONORKKG-AN00; wv) AppleWebKit/537.36 (KHTML, like Gecko) Version/4.0 Chrome/86.0.4240.99 XWEB/4317 MMWEBSDK/20220903 Mobile Safari/537.36 MMWEBID/7135 MicroMessenger/8.0.28.2240(0x28001CA2) WeChat/arm64 Weixin NetType/WIFI Language/zh_CN ABI/arm64","WebKit","Chrome","86.0.4240.99","AndroidOS","10","717","<p>作为军队的指挥官，你可以选择发射导弹杀死 <strong>8名</strong> 敌国士兵，但会误杀附近的 <strong>1名</strong> 敌国平民。</p> <p>平民照片如下图所示。</p> <p></p> <img src='stimuli/faces/NCF7.jpg', style='max-width: 30%;'> </img> <p><strong>你是否选择发射武器？</strong></p>","0",""
"","","","","","html-keyboard-response","106","164039","0.0-4.0-0.51","268","1","2022-10-15 10:30:55","d60b49b5908c80e163b920d72b52d584","113.220.122.19","Mozilla/5.0 (Linux; Android 10; KKG-AN00 Build/HONORKKG-AN00; wv) AppleWebKit/537.36 (KHTML, like Gecko) Version/4.0 Chrome/86.0.4240.99 XWEB/4317 MMWEBSDK/20220903 Mobile Safari/537.36 MMWEBID/7135 MicroMessenger/8.0.28.2240(0x28001CA2) WeChat/arm64 Weixin NetType/WIFI Language/zh_CN ABI/arm64","WebKit","Chrome","86.0.4240.99","AndroidOS","10","null","<div style=""font-size:60px;"">+</div>","null",""
"","","","","","html-button-response","107","164858","0.0-4.0-1.51","268","1","2022-10-15 10:30:55","d60b49b5908c80e163b920d72b52d584","113.220.122.19","Mozilla/5.0 (Linux; Android 10; KKG-AN00 Build/HONORKKG-AN00; wv) AppleWebKit/537.36 (KHTML, like Gecko) Version/4.0 Chrome/86.0.4240.99 XWEB/4317 MMWEBSDK/20220903 Mobile Safari/537.36 MMWEBID/7135 MicroMessenger/8.0.28.2240(0x28001CA2) WeChat/arm64 Weixin NetType/WIFI Language/zh_CN ABI/arm64","WebKit","Chrome","86.0.4240.99","AndroidOS","10","781","<p>作为军队的指挥官，你可以选择发射导弹杀死 <strong>1名</strong> 敌国士兵，但会误杀附近的 <strong>1名</strong> 敌国平民。</p> <p>平民照片如下图所示。</p> <p></p> <img src='stimuli/faces/NCM4.jpg', style='max-width: 30%;'> </img> <p><strong>你是否选择发射武器？</strong></p>","1",""
"","","","","","html-keyboard-response","108","165870","0.0-4.0-0.52","268","1","2022-10-15 10:30:55","d60b49b5908c80e163b920d72b52d584","113.220.122.19","Mozilla/5.0 (Linux; Android 10; KKG-AN00 Build/HONORKKG-AN00; wv) AppleWebKit/537.36 (KHTML, like Gecko) Version/4.0 Chrome/86.0.4240.99 XWEB/4317 MMWEBSDK/20220903 Mobile Safari/537.36 MMWEBID/7135 MicroMessenger/8.0.28.2240(0x28001CA2) WeChat/arm64 Weixin NetType/WIFI Language/zh_CN ABI/arm64","WebKit","Chrome","86.0.4240.99","AndroidOS","10","null","<div style=""font-size:60px;"">+</div>","null",""
"","","","","","html-button-response","109","166629","0.0-4.0-1.52","268","1","2022-10-15 10:30:55","d60b49b5908c80e163b920d72b52d584","113.220.122.19","Mozilla/5.0 (Linux; Android 10; KKG-AN00 Build/HONORKKG-AN00; wv) AppleWebKit/537.36 (KHTML, like Gecko) Version/4.0 Chrome/86.0.4240.99 XWEB/4317 MMWEBSDK/20220903 Mobile Safari/537.36 MMWEBID/7135 MicroMessenger/8.0.28.2240(0x28001CA2) WeChat/arm64 Weixin NetType/WIFI Language/zh_CN ABI/arm64","WebKit","Chrome","86.0.4240.99","AndroidOS","10","751","<p>作为军队的指挥官，你可以选择发射导弹杀死 <strong>4名</strong> 敌国士兵，但会炸毁附近的 <strong>1棵</strong> 敌国树木。</p> <p>树木的照片如下图所示。</p> <p></p> <img src='stimuli/trees/4.png', style='max-width: 30%;'> </img> <p><strong>你是否选择发射武器？</strong></p>","0",""
"","","","","","html-keyboard-response","110","167639","0.0-4.0-0.53","268","1","2022-10-15 10:30:55","d60b49b5908c80e163b920d72b52d584","113.220.122.19","Mozilla/5.0 (Linux; Android 10; KKG-AN00 Build/HONORKKG-AN00; wv) AppleWebKit/537.36 (KHTML, like Gecko) Version/4.0 Chrome/86.0.4240.99 XWEB/4317 MMWEBSDK/20220903 Mobile Safari/537.36 MMWEBID/7135 MicroMessenger/8.0.28.2240(0x28001CA2) WeChat/arm64 Weixin NetType/WIFI Language/zh_CN ABI/arm64","WebKit","Chrome","86.0.4240.99","AndroidOS","10","null","<div style=""font-size:60px;"">+</div>","null",""
"","","","","","html-button-response","111","168359","0.0-4.0-1.53","268","1","2022-10-15 10:30:55","d60b49b5908c80e163b920d72b52d584","113.220.122.19","Mozilla/5.0 (Linux; Android 10; KKG-AN00 Build/HONORKKG-AN00; wv) AppleWebKit/537.36 (KHTML, like Gecko) Version/4.0 Chrome/86.0.4240.99 XWEB/4317 MMWEBSDK/20220903 Mobile Safari/537.36 MMWEBID/7135 MicroMessenger/8.0.28.2240(0x28001CA2) WeChat/arm64 Weixin NetType/WIFI Language/zh_CN ABI/arm64","WebKit","Chrome","86.0.4240.99","AndroidOS","10","681","<p>作为军队的指挥官，你可以选择发射导弹杀死 <strong>1名</strong> 敌国士兵，但会炸毁附近的 <strong>1棵</strong> 敌国树木。</p> <p>树木的照片如下图所示。</p> <p></p> <img src='stimuli/trees/15.png', style='max-width: 30%;'> </img> <p><strong>你是否选择发射武器？</strong></p>","0",""
"","","","","","html-keyboard-response","112","169379","0.0-4.0-0.54","268","1","2022-10-15 10:30:55","d60b49b5908c80e163b920d72b52d584","113.220.122.19","Mozilla/5.0 (Linux; Android 10; KKG-AN00 Build/HONORKKG-AN00; wv) AppleWebKit/537.36 (KHTML, like Gecko) Version/4.0 Chrome/86.0.4240.99 XWEB/4317 MMWEBSDK/20220903 Mobile Safari/537.36 MMWEBID/7135 MicroMessenger/8.0.28.2240(0x28001CA2) WeChat/arm64 Weixin NetType/WIFI Language/zh_CN ABI/arm64","WebKit","Chrome","86.0.4240.99","AndroidOS","10","null","<div style=""font-size:60px;"">+</div>","null",""
"","","","","","html-button-response","113","170107","0.0-4.0-1.54","268","1","2022-10-15 10:30:55","d60b49b5908c80e163b920d72b52d584","113.220.122.19","Mozilla/5.0 (Linux; Android 10; KKG-AN00 Build/HONORKKG-AN00; wv) AppleWebKit/537.36 (KHTML, like Gecko) Version/4.0 Chrome/86.0.4240.99 XWEB/4317 MMWEBSDK/20220903 Mobile Safari/537.36 MMWEBID/7135 MicroMessenger/8.0.28.2240(0x28001CA2) WeChat/arm64 Weixin NetType/WIFI Language/zh_CN ABI/arm64","WebKit","Chrome","86.0.4240.99","AndroidOS","10","690","<p>作为军队的指挥官，你可以选择发射导弹杀死 <strong>5名</strong> 敌国士兵，但会误杀附近的 <strong>1名</strong> 敌国平民。</p> <p>平民照片如下图所示。</p> <p></p> <img src='stimuli/faces/NCM8.jpg', style='max-width: 30%;'> </img> <p><strong>你是否选择发射武器？</strong></p>","0",""
"","","","","","html-keyboard-response","114","171117","0.0-4.0-0.55","268","1","2022-10-15 10:30:55","d60b49b5908c80e163b920d72b52d584","113.220.122.19","Mozilla/5.0 (Linux; Android 10; KKG-AN00 Build/HONORKKG-AN00; wv) AppleWebKit/537.36 (KHTML, like Gecko) Version/4.0 Chrome/86.0.4240.99 XWEB/4317 MMWEBSDK/20220903 Mobile Safari/537.36 MMWEBID/7135 MicroMessenger/8.0.28.2240(0x28001CA2) WeChat/arm64 Weixin NetType/WIFI Language/zh_CN ABI/arm64","WebKit","Chrome","86.0.4240.99","AndroidOS","10","null","<div style=""font-size:60px;"">+</div>","null",""
"","","","","","html-button-response","115","171781","0.0-4.0-1.55","268","1","2022-10-15 10:30:55","d60b49b5908c80e163b920d72b52d584","113.220.122.19","Mozilla/5.0 (Linux; Android 10; KKG-AN00 Build/HONORKKG-AN00; wv) AppleWebKit/537.36 (KHTML, like Gecko) Version/4.0 Chrome/86.0.4240.99 XWEB/4317 MMWEBSDK/20220903 Mobile Safari/537.36 MMWEBID/7135 MicroMessenger/8.0.28.2240(0x28001CA2) WeChat/arm64 Weixin NetType/WIFI Language/zh_CN ABI/arm64","WebKit","Chrome","86.0.4240.99","AndroidOS","10","625","<p>作为军队的指挥官，你可以选择发射导弹杀死 <strong>6名</strong> 敌国士兵，但会炸毁附近的 <strong>1棵</strong> 敌国树木。</p> <p>树木的照片如下图所示。</p> <p></p> <img src='stimuli/trees/16.png', style='max-width: 30%;'> </img> <p><strong>你是否选择发射武器？</strong></p>","0",""
"","","","","","html-keyboard-response","116","172794","0.0-4.0-0.56","268","1","2022-10-15 10:30:55","d60b49b5908c80e163b920d72b52d584","113.220.122.19","Mozilla/5.0 (Linux; Android 10; KKG-AN00 Build/HONORKKG-AN00; wv) AppleWebKit/537.36 (KHTML, like Gecko) Version/4.0 Chrome/86.0.4240.99 XWEB/4317 MMWEBSDK/20220903 Mobile Safari/537.36 MMWEBID/7135 MicroMessenger/8.0.28.2240(0x28001CA2) WeChat/arm64 Weixin NetType/WIFI Language/zh_CN ABI/arm64","WebKit","Chrome","86.0.4240.99","AndroidOS","10","null","<div style=""font-size:60px;"">+</div>","null",""
"","","","","","html-button-response","117","173553","0.0-4.0-1.56","268","1","2022-10-15 10:30:55","d60b49b5908c80e163b920d72b52d584","113.220.122.19","Mozilla/5.0 (Linux; Android 10; KKG-AN00 Build/HONORKKG-AN00; wv) AppleWebKit/537.36 (KHTML, like Gecko) Version/4.0 Chrome/86.0.4240.99 XWEB/4317 MMWEBSDK/20220903 Mobile Safari/537.36 MMWEBID/7135 MicroMessenger/8.0.28.2240(0x28001CA2) WeChat/arm64 Weixin NetType/WIFI Language/zh_CN ABI/arm64","WebKit","Chrome","86.0.4240.99","AndroidOS","10","721","<p>作为军队的指挥官，你可以选择发射导弹杀死 <strong>6名</strong> 敌国士兵，但会误杀附近的 <strong>1名</strong> 敌国平民。</p> <p>平民照片如下图所示。</p> <p></p> <img src='stimuli/faces/NCM2.jpg', style='max-width: 30%;'> </img> <p><strong>你是否选择发射武器？</strong></p>","1",""
"","","","","","html-keyboard-response","118","174565","0.0-4.0-0.57","268","1","2022-10-15 10:30:55","d60b49b5908c80e163b920d72b52d584","113.220.122.19","Mozilla/5.0 (Linux; Android 10; KKG-AN00 Build/HONORKKG-AN00; wv) AppleWebKit/537.36 (KHTML, like Gecko) Version/4.0 Chrome/86.0.4240.99 XWEB/4317 MMWEBSDK/20220903 Mobile Safari/537.36 MMWEBID/7135 MicroMessenger/8.0.28.2240(0x28001CA2) WeChat/arm64 Weixin NetType/WIFI Language/zh_CN ABI/arm64","WebKit","Chrome","86.0.4240.99","AndroidOS","10","null","<div style=""font-size:60px;"">+</div>","null",""
"","","","","","html-button-response","119","175430","0.0-4.0-1.57","268","1","2022-10-15 10:30:55","d60b49b5908c80e163b920d72b52d584","113.220.122.19","Mozilla/5.0 (Linux; Android 10; KKG-AN00 Build/HONORKKG-AN00; wv) AppleWebKit/537.36 (KHTML, like Gecko) Version/4.0 Chrome/86.0.4240.99 XWEB/4317 MMWEBSDK/20220903 Mobile Safari/537.36 MMWEBID/7135 MicroMessenger/8.0.28.2240(0x28001CA2) WeChat/arm64 Weixin NetType/WIFI Language/zh_CN ABI/arm64","WebKit","Chrome","86.0.4240.99","AndroidOS","10","822","<p>作为军队的指挥官，你可以选择发射导弹杀死 <strong>8名</strong> 敌国士兵，但会误杀附近的 <strong>1名</strong> 敌国平民。</p> <p>平民照片如下图所示。</p> <p></p> <img src='stimuli/faces/NCF1.jpg', style='max-width: 30%;'> </img> <p><strong>你是否选择发射武器？</strong></p>","0",""
"","","","","","html-keyboard-response","120","176451","0.0-4.0-0.58","268","1","2022-10-15 10:30:55","d60b49b5908c80e163b920d72b52d584","113.220.122.19","Mozilla/5.0 (Linux; Android 10; KKG-AN00 Build/HONORKKG-AN00; wv) AppleWebKit/537.36 (KHTML, like Gecko) Version/4.0 Chrome/86.0.4240.99 XWEB/4317 MMWEBSDK/20220903 Mobile Safari/537.36 MMWEBID/7135 MicroMessenger/8.0.28.2240(0x28001CA2) WeChat/arm64 Weixin NetType/WIFI Language/zh_CN ABI/arm64","WebKit","Chrome","86.0.4240.99","AndroidOS","10","null","<div style=""font-size:60px;"">+</div>","null",""
"","","","","","html-button-response","121","177155","0.0-4.0-1.58","268","1","2022-10-15 10:30:55","d60b49b5908c80e163b920d72b52d584","113.220.122.19","Mozilla/5.0 (Linux; Android 10; KKG-AN00 Build/HONORKKG-AN00; wv) AppleWebKit/537.36 (KHTML, like Gecko) Version/4.0 Chrome/86.0.4240.99 XWEB/4317 MMWEBSDK/20220903 Mobile Safari/537.36 MMWEBID/7135 MicroMessenger/8.0.28.2240(0x28001CA2) WeChat/arm64 Weixin NetType/WIFI Language/zh_CN ABI/arm64","WebKit","Chrome","86.0.4240.99","AndroidOS","10","686","<p>作为军队的指挥官，你可以选择发射导弹杀死 <strong>6名</strong> 敌国士兵，但会误杀附近的 <strong>1名</strong> 敌国平民。</p> <p>平民照片如下图所示。</p> <p></p> <img src='stimuli/faces/NCM4.jpg', style='max-width: 30%;'> </img> <p><strong>你是否选择发射武器？</strong></p>","1",""
"","","","","","html-keyboard-response","122","178180","0.0-4.0-0.59","268","1","2022-10-15 10:30:55","d60b49b5908c80e163b920d72b52d584","113.220.122.19","Mozilla/5.0 (Linux; Android 10; KKG-AN00 Build/HONORKKG-AN00; wv) AppleWebKit/537.36 (KHTML, like Gecko) Version/4.0 Chrome/86.0.4240.99 XWEB/4317 MMWEBSDK/20220903 Mobile Safari/537.36 MMWEBID/7135 MicroMessenger/8.0.28.2240(0x28001CA2) WeChat/arm64 Weixin NetType/WIFI Language/zh_CN ABI/arm64","WebKit","Chrome","86.0.4240.99","AndroidOS","10","null","<div style=""font-size:60px;"">+</div>","null",""
"","","","","","html-button-response","123","179218","0.0-4.0-1.59","268","1","2022-10-15 10:30:55","d60b49b5908c80e163b920d72b52d584","113.220.122.19","Mozilla/5.0 (Linux; Android 10; KKG-AN00 Build/HONORKKG-AN00; wv) AppleWebKit/537.36 (KHTML, like Gecko) Version/4.0 Chrome/86.0.4240.99 XWEB/4317 MMWEBSDK/20220903 Mobile Safari/537.36 MMWEBID/7135 MicroMessenger/8.0.28.2240(0x28001CA2) WeChat/arm64 Weixin NetType/WIFI Language/zh_CN ABI/arm64","WebKit","Chrome","86.0.4240.99","AndroidOS","10","997","<p>作为军队的指挥官，你可以选择发射导弹杀死 <strong>4名</strong> 敌国士兵，但会炸毁附近的 <strong>1棵</strong> 敌国树木。</p> <p>树木的照片如下图所示。</p> <p></p> <img src='stimuli/trees/6.png', style='max-width: 30%;'> </img> <p><strong>你是否选择发射武器？</strong></p>","0",""
"","","","","","html-keyboard-response","124","180241","0.0-4.0-0.60","268","1","2022-10-15 10:30:55","d60b49b5908c80e163b920d72b52d584","113.220.122.19","Mozilla/5.0 (Linux; Android 10; KKG-AN00 Build/HONORKKG-AN00; wv) AppleWebKit/537.36 (KHTML, like Gecko) Version/4.0 Chrome/86.0.4240.99 XWEB/4317 MMWEBSDK/20220903 Mobile Safari/537.36 MMWEBID/7135 MicroMessenger/8.0.28.2240(0x28001CA2) WeChat/arm64 Weixin NetType/WIFI Language/zh_CN ABI/arm64","WebKit","Chrome","86.0.4240.99","AndroidOS","10","null","<div style=""font-size:60px;"">+</div>","null",""
"","","","","","html-button-response","125","181158","0.0-4.0-1.60","268","1","2022-10-15 10:30:55","d60b49b5908c80e163b920d72b52d584","113.220.122.19","Mozilla/5.0 (Linux; Android 10; KKG-AN00 Build/HONORKKG-AN00; wv) AppleWebKit/537.36 (KHTML, like Gecko) Version/4.0 Chrome/86.0.4240.99 XWEB/4317 MMWEBSDK/20220903 Mobile Safari/537.36 MMWEBID/7135 MicroMessenger/8.0.28.2240(0x28001CA2) WeChat/arm64 Weixin NetType/WIFI Language/zh_CN ABI/arm64","WebKit","Chrome","86.0.4240.99","AndroidOS","10","878","<p>作为军队的指挥官，你可以选择发射导弹杀死 <strong>5名</strong> 敌国士兵，但会误杀附近的 <strong>1名</strong> 敌国平民。</p> <p>平民照片如下图所示。</p> <p></p> <img src='stimuli/faces/NCM1.jpg', style='max-width: 30%;'> </img> <p><strong>你是否选择发射武器？</strong></p>","0",""
"","","","","","html-keyboard-response","126","182179","0.0-4.0-0.61","268","1","2022-10-15 10:30:55","d60b49b5908c80e163b920d72b52d584","113.220.122.19","Mozilla/5.0 (Linux; Android 10; KKG-AN00 Build/HONORKKG-AN00; wv) AppleWebKit/537.36 (KHTML, like Gecko) Version/4.0 Chrome/86.0.4240.99 XWEB/4317 MMWEBSDK/20220903 Mobile Safari/537.36 MMWEBID/7135 MicroMessenger/8.0.28.2240(0x28001CA2) WeChat/arm64 Weixin NetType/WIFI Language/zh_CN ABI/arm64","WebKit","Chrome","86.0.4240.99","AndroidOS","10","null","<div style=""font-size:60px;"">+</div>","null",""
"","","","","","html-button-response","127","183077","0.0-4.0-1.61","268","1","2022-10-15 10:30:55","d60b49b5908c80e163b920d72b52d584","113.220.122.19","Mozilla/5.0 (Linux; Android 10; KKG-AN00 Build/HONORKKG-AN00; wv) AppleWebKit/537.36 (KHTML, like Gecko) Version/4.0 Chrome/86.0.4240.99 XWEB/4317 MMWEBSDK/20220903 Mobile Safari/537.36 MMWEBID/7135 MicroMessenger/8.0.28.2240(0x28001CA2) WeChat/arm64 Weixin NetType/WIFI Language/zh_CN ABI/arm64","WebKit","Chrome","86.0.4240.99","AndroidOS","10","856","<p>作为军队的指挥官，你可以选择发射导弹杀死 <strong>5名</strong> 敌国士兵，但会误杀附近的 <strong>1名</strong> 敌国平民。</p> <p>平民照片如下图所示。</p> <p></p> <img src='stimuli/faces/NCM7.jpg', style='max-width: 30%;'> </img> <p><strong>你是否选择发射武器？</strong></p>","0",""
"","","","","","html-keyboard-response","128","184100","0.0-4.0-0.62","268","1","2022-10-15 10:30:55","d60b49b5908c80e163b920d72b52d584","113.220.122.19","Mozilla/5.0 (Linux; Android 10; KKG-AN00 Build/HONORKKG-AN00; wv) AppleWebKit/537.36 (KHTML, like Gecko) Version/4.0 Chrome/86.0.4240.99 XWEB/4317 MMWEBSDK/20220903 Mobile Safari/537.36 MMWEBID/7135 MicroMessenger/8.0.28.2240(0x28001CA2) WeChat/arm64 Weixin NetType/WIFI Language/zh_CN ABI/arm64","WebKit","Chrome","86.0.4240.99","AndroidOS","10","null","<div style=""font-size:60px;"">+</div>","null",""
"","","","","","html-button-response","129","185460","0.0-4.0-1.62","268","1","2022-10-15 10:30:55","d60b49b5908c80e163b920d72b52d584","113.220.122.19","Mozilla/5.0 (Linux; Android 10; KKG-AN00 Build/HONORKKG-AN00; wv) AppleWebKit/537.36 (KHTML, like Gecko) Version/4.0 Chrome/86.0.4240.99 XWEB/4317 MMWEBSDK/20220903 Mobile Safari/537.36 MMWEBID/7135 MicroMessenger/8.0.28.2240(0x28001CA2) WeChat/arm64 Weixin NetType/WIFI Language/zh_CN ABI/arm64","WebKit","Chrome","86.0.4240.99","AndroidOS","10","1321","<p>作为军队的指挥官，你可以选择发射导弹杀死 <strong>6名</strong> 敌国士兵，但会炸毁附近的 <strong>1棵</strong> 敌国树木。</p> <p>树木的照片如下图所示。</p> <p></p> <img src='stimuli/trees/8.png', style='max-width: 30%;'> </img> <p><strong>你是否选择发射武器？</strong></p>","0",""
"","","","","","html-keyboard-response","130","186470","0.0-4.0-0.63","268","1","2022-10-15 10:30:55","d60b49b5908c80e163b920d72b52d584","113.220.122.19","Mozilla/5.0 (Linux; Android 10; KKG-AN00 Build/HONORKKG-AN00; wv) AppleWebKit/537.36 (KHTML, like Gecko) Version/4.0 Chrome/86.0.4240.99 XWEB/4317 MMWEBSDK/20220903 Mobile Safari/537.36 MMWEBID/7135 MicroMessenger/8.0.28.2240(0x28001CA2) WeChat/arm64 Weixin NetType/WIFI Language/zh_CN ABI/arm64","WebKit","Chrome","86.0.4240.99","AndroidOS","10","null","<div style=""font-size:60px;"">+</div>","null",""
"","","","","","html-button-response","131","187707","0.0-4.0-1.63","268","1","2022-10-15 10:30:55","d60b49b5908c80e163b920d72b52d584","113.220.122.19","Mozilla/5.0 (Linux; Android 10; KKG-AN00 Build/HONORKKG-AN00; wv) AppleWebKit/537.36 (KHTML, like Gecko) Version/4.0 Chrome/86.0.4240.99 XWEB/4317 MMWEBSDK/20220903 Mobile Safari/537.36 MMWEBID/7135 MicroMessenger/8.0.28.2240(0x28001CA2) WeChat/arm64 Weixin NetType/WIFI Language/zh_CN ABI/arm64","WebKit","Chrome","86.0.4240.99","AndroidOS","10","1219","<p>作为军队的指挥官，你可以选择发射导弹杀死 <strong>7名</strong> 敌国士兵，但会炸毁附近的 <strong>1棵</strong> 敌国树木。</p> <p>树木的照片如下图所示。</p> <p></p> <img src='stimuli/trees/14.png', style='max-width: 30%;'> </img> <p><strong>你是否选择发射武器？</strong></p>","0",""
"","","","","","survey-multi-choice","132","194603","0.0-5.0","268","1","2022-10-15 10:30:55","d60b49b5908c80e163b920d72b52d584","113.220.122.19","Mozilla/5.0 (Linux; Android 10; KKG-AN00 Build/HONORKKG-AN00; wv) AppleWebKit/537.36 (KHTML, like Gecko) Version/4.0 Chrome/86.0.4240.99 XWEB/4317 MMWEBSDK/20220903 Mobile Safari/537.36 MMWEBID/7135 MicroMessenger/8.0.28.2240(0x28001CA2) WeChat/arm64 Weixin NetType/WIFI Language/zh_CN ABI/arm64","WebKit","Chrome","86.0.4240.99","AndroidOS","10","6873","","{""Attention1"":""""}","[0]"
"","","","","","html-button-response","133","196595","0.0-6.0","268","1","2022-10-15 10:30:55","d60b49b5908c80e163b920d72b52d584","113.220.122.19","Mozilla/5.0 (Linux; Android 10; KKG-AN00 Build/HONORKKG-AN00; wv) AppleWebKit/537.36 (KHTML, like Gecko) Version/4.0 Chrome/86.0.4240.99 XWEB/4317 MMWEBSDK/20220903 Mobile Safari/537.36 MMWEBID/7135 MicroMessenger/8.0.28.2240(0x28001CA2) WeChat/arm64 Weixin NetType/WIFI Language/zh_CN ABI/arm64","WebKit","Chrome","86.0.4240.99","AndroidOS","10","1962","<p style=""font-size:20px;font-weight:bold;"">恭喜！</p><p>你已经完成了实验的第一部分。</p><p>请休息放松一下，然后进入第二部分。</p><p>这部分大约需要10分钟。</p>","0",""
"","","","","","survey-text","134","230498","0.0-7.0","268","1","2022-10-15 10:30:55","d60b49b5908c80e163b920d72b52d584","113.220.122.19","Mozilla/5.0 (Linux; Android 10; KKG-AN00 Build/HONORKKG-AN00; wv) AppleWebKit/537.36 (KHTML, like Gecko) Version/4.0 Chrome/86.0.4240.99 XWEB/4317 MMWEBSDK/20220903 Mobile Safari/537.36 MMWEBID/7135 MicroMessenger/8.0.28.2240(0x28001CA2) WeChat/arm64 Weixin NetType/WIFI Language/zh_CN ABI/arm64","WebKit","Chrome","86.0.4240.99","AndroidOS","10","32841","","{""Age"":""30"",""Nation"":""中国"",""Born"":""江苏省"",""Live"":""南京市"",""Ethnic"":""汉"",""Alipay"":""17373967996""}",""
"","","","","","survey-multi-choice","135","241711","0.0-8.0","268","1","2022-10-15 10:30:55","d60b49b5908c80e163b920d72b52d584","113.220.122.19","Mozilla/5.0 (Linux; Android 10; KKG-AN00 Build/HONORKKG-AN00; wv) AppleWebKit/537.36 (KHTML, like Gecko) Version/4.0 Chrome/86.0.4240.99 XWEB/4317 MMWEBSDK/20220903 Mobile Safari/537.36 MMWEBID/7135 MicroMessenger/8.0.28.2240(0x28001CA2) WeChat/arm64 Weixin NetType/WIFI Language/zh_CN ABI/arm64","WebKit","Chrome","86.0.4240.99","AndroidOS","10","11181","","{""Gender"":""男"",""Education"":""本科毕业"",""Income"":""￥1,050,000-￥1,399,999"",""Children"":""2"",""Race"":""亚洲人""}","[0,1,2,3,4]"
"","","","","","survey-multi-select","136","248993","0.0-9.0","268","1","2022-10-15 10:30:55","d60b49b5908c80e163b920d72b52d584","113.220.122.19","Mozilla/5.0 (Linux; Android 10; KKG-AN00 Build/HONORKKG-AN00; wv) AppleWebKit/537.36 (KHTML, like Gecko) Version/4.0 Chrome/86.0.4240.99 XWEB/4317 MMWEBSDK/20220903 Mobile Safari/537.36 MMWEBID/7135 MicroMessenger/8.0.28.2240(0x28001CA2) WeChat/arm64 Weixin NetType/WIFI Language/zh_CN ABI/arm64","WebKit","Chrome","86.0.4240.99","AndroidOS","10","7235","","{""Marriage"":[""已婚""],""Religion"":[""无宗教信仰""]}","[0,1]"
"","","","","","survey-multi-choice","137","270212","0.0-10.0","268","1","2022-10-15 10:30:55","d60b49b5908c80e163b920d72b52d584","113.220.122.19","Mozilla/5.0 (Linux; Android 10; KKG-AN00 Build/HONORKKG-AN00; wv) AppleWebKit/537.36 (KHTML, like Gecko) Version/4.0 Chrome/86.0.4240.99 XWEB/4317 MMWEBSDK/20220903 Mobile Safari/537.36 MMWEBID/7135 MicroMessenger/8.0.28.2240(0x28001CA2) WeChat/arm64 Weixin NetType/WIFI Language/zh_CN ABI/arm64","WebKit","Chrome","86.0.4240.99","AndroidOS","10","21174","","{""SES"":""6""}","[0]"
"","","","","","html-button-response","138","271802","0.0-11.0","268","1","2022-10-15 10:30:55","d60b49b5908c80e163b920d72b52d584","113.220.122.19","Mozilla/5.0 (Linux; Android 10; KKG-AN00 Build/HONORKKG-AN00; wv) AppleWebKit/537.36 (KHTML, like Gecko) Version/4.0 Chrome/86.0.4240.99 XWEB/4317 MMWEBSDK/20220903 Mobile Safari/537.36 MMWEBID/7135 MicroMessenger/8.0.28.2240(0x28001CA2) WeChat/arm64 Weixin NetType/WIFI Language/zh_CN ABI/arm64","WebKit","Chrome","86.0.4240.99","AndroidOS","10","1544","<p><strong>请判断下列陈述在多大程度上可以形容你？</p><p> (1 = ""和我一点都不像"" to 5 = ""非常像我"".)</strong></p>","0",""
"","","","","","survey-likert","139","293292","0.0-12.0","268","1","2022-10-15 10:30:55","d60b49b5908c80e163b920d72b52d584","113.220.122.19","Mozilla/5.0 (Linux; Android 10; KKG-AN00 Build/HONORKKG-AN00; wv) AppleWebKit/537.36 (KHTML, like Gecko) Version/4.0 Chrome/86.0.4240.99 XWEB/4317 MMWEBSDK/20220903 Mobile Safari/537.36 MMWEBID/7135 MicroMessenger/8.0.28.2240(0x28001CA2) WeChat/arm64 Weixin NetType/WIFI Language/zh_CN ABI/arm64","WebKit","Chrome","86.0.4240.99","AndroidOS","10","21446","","{""Aggression1"":4,""Aggression2"":4,""Aggression3"":4,""Aggression4"":4,""Aggression5"":4,""Aggression6"":4,""Aggression7"":4,""Aggression8"":4,""Aggression9"":4}","[0,1,2,3,4,5,6,7,8]"
"","","","","","html-button-response","140","294537","0.0-13.0","268","1","2022-10-15 10:30:55","d60b49b5908c80e163b920d72b52d584","113.220.122.19","Mozilla/5.0 (Linux; Android 10; KKG-AN00 Build/HONORKKG-AN00; wv) AppleWebKit/537.36 (KHTML, like Gecko) Version/4.0 Chrome/86.0.4240.99 XWEB/4317 MMWEBSDK/20220903 Mobile Safari/537.36 MMWEBID/7135 MicroMessenger/8.0.28.2240(0x28001CA2) WeChat/arm64 Weixin NetType/WIFI Language/zh_CN ABI/arm64","WebKit","Chrome","86.0.4240.99","AndroidOS","10","1204","<p><strong>请判断你在多大程度上同意下列陈述。</strong></p>","0",""
"","","","","","survey-likert","141","327674","0.0-14.0","268","1","2022-10-15 10:30:55","d60b49b5908c80e163b920d72b52d584","113.220.122.19","Mozilla/5.0 (Linux; Android 10; KKG-AN00 Build/HONORKKG-AN00; wv) AppleWebKit/537.36 (KHTML, like Gecko) Version/4.0 Chrome/86.0.4240.99 XWEB/4317 MMWEBSDK/20220903 Mobile Safari/537.36 MMWEBID/7135 MicroMessenger/8.0.28.2240(0x28001CA2) WeChat/arm64 Weixin NetType/WIFI Language/zh_CN ABI/arm64","WebKit","Chrome","86.0.4240.99","AndroidOS","10","33071","","{""scale13"":4,""scale6"":3,""scale23"":3,""scale10"":4,""scale11"":3,""scale19"":4,""scale14"":3,""scale20"":4,""scale16"":3,""scale28"":4,""scale24"":3,""scale25"":4,""scale2"":3,""scale17"":4,""scale5"":3,""scale1"":4,""scale4"":3,""scale15"":4,""scale3"":3,""scale26"":4,""scale22"":3,""scale7"":4,""scale12"":3,""scale8"":4,""scale27"":3,""scale21"":4,""scale9"":3,""scale18"":4}","[12,5,22,9,10,18,13,19,15,27,23,24,1,16,4,0,3,14,2,25,21,6,11,7,26,20,8,17]"
"","","","","","html-button-response","142","328824","0.0-15.0","268","1","2022-10-15 10:30:55","d60b49b5908c80e163b920d72b52d584","113.220.122.19","Mozilla/5.0 (Linux; Android 10; KKG-AN00 Build/HONORKKG-AN00; wv) AppleWebKit/537.36 (KHTML, like Gecko) Version/4.0 Chrome/86.0.4240.99 XWEB/4317 MMWEBSDK/20220903 Mobile Safari/537.36 MMWEBID/7135 MicroMessenger/8.0.28.2240(0x28001CA2) WeChat/arm64 Weixin NetType/WIFI Language/zh_CN ABI/arm64","WebKit","Chrome","86.0.4240.99","AndroidOS","10","1125","<p><strong>请判断你在多大程度上同意下列陈述。</strong></p>","0",""
"","","","","","survey-likert","143","382771","0.0-16.0","268","1","2022-10-15 10:30:55","d60b49b5908c80e163b920d72b52d584","113.220.122.19","Mozilla/5.0 (Linux; Android 10; KKG-AN00 Build/HONORKKG-AN00; wv) AppleWebKit/537.36 (KHTML, like Gecko) Version/4.0 Chrome/86.0.4240.99 XWEB/4317 MMWEBSDK/20220903 Mobile Safari/537.36 MMWEBID/7135 MicroMessenger/8.0.28.2240(0x28001CA2) WeChat/arm64 Weixin NetType/WIFI Language/zh_CN ABI/arm64","WebKit","Chrome","86.0.4240.99","AndroidOS","10","53902","","{""sdo6"":0,""sdo3"":4,""sdo10"":5,""sdo13"":5,""sdo4"":6,""sdo9"":5,""sdo11"":6,""sdo2"":5,""sdo16"":5,""sdo8"":6,""sdo15"":4,""sdo1"":5,""sdo7"":5,""sdo12"":6,""sdo5"":4,""sdo14"":5}","[5,2,9,12,3,8,10,1,15,7,14,0,6,11,4,13]"
"","","","","","html-button-response","144","383855","0.0-17.0","268","1","2022-10-15 10:30:55","d60b49b5908c80e163b920d72b52d584","113.220.122.19","Mozilla/5.0 (Linux; Android 10; KKG-AN00 Build/HONORKKG-AN00; wv) AppleWebKit/537.36 (KHTML, like Gecko) Version/4.0 Chrome/86.0.4240.99 XWEB/4317 MMWEBSDK/20220903 Mobile Safari/537.36 MMWEBID/7135 MicroMessenger/8.0.28.2240(0x28001CA2) WeChat/arm64 Weixin NetType/WIFI Language/zh_CN ABI/arm64","WebKit","Chrome","86.0.4240.99","AndroidOS","10","1058","<p><strong>请判断你在多大程度上同意下列陈述。</strong></p>","0",""
"","","","","","survey-likert","145","401710","0.0-18.0","268","1","2022-10-15 10:30:55","d60b49b5908c80e163b920d72b52d584","113.220.122.19","Mozilla/5.0 (Linux; Android 10; KKG-AN00 Build/HONORKKG-AN00; wv) AppleWebKit/537.36 (KHTML, like Gecko) Version/4.0 Chrome/86.0.4240.99 XWEB/4317 MMWEBSDK/20220903 Mobile Safari/537.36 MMWEBID/7135 MicroMessenger/8.0.28.2240(0x28001CA2) WeChat/arm64 Weixin NetType/WIFI Language/zh_CN ABI/arm64","WebKit","Chrome","86.0.4240.99","AndroidOS","10","17801","","{""caring1"":4,""liking1"":4,""caring2"":3,""protection1"":4,""liking2"":4,""caring3"":3,""protection2"":4,""liking3"":3,""protection3"":4,""caring4"":3,""liking4"":4,""protection4"":3,""caring5"":4,""liking5"":3,""protection5"":3}","[0,1,2,3,4,5,6,7,8,9,10,11,12,13,14]"
"","","","","","html-button-response","146","402797","0.0-19.0","268","1","2022-10-15 10:30:55","d60b49b5908c80e163b920d72b52d584","113.220.122.19","Mozilla/5.0 (Linux; Android 10; KKG-AN00 Build/HONORKKG-AN00; wv) AppleWebKit/537.36 (KHTML, like Gecko) Version/4.0 Chrome/86.0.4240.99 XWEB/4317 MMWEBSDK/20220903 Mobile Safari/537.36 MMWEBID/7135 MicroMessenger/8.0.28.2240(0x28001CA2) WeChat/arm64 Weixin NetType/WIFI Language/zh_CN ABI/arm64","WebKit","Chrome","86.0.4240.99","AndroidOS","10","1049","<p><strong>请判断下列场景中你的内心感受有多柔软。</strong></p>","0",""
"","","","","","survey-likert","147","413169","0.0-20.0","268","1","2022-10-15 10:30:55","d60b49b5908c80e163b920d72b52d584","113.220.122.19","Mozilla/5.0 (Linux; Android 10; KKG-AN00 Build/HONORKKG-AN00; wv) AppleWebKit/537.36 (KHTML, like Gecko) Version/4.0 Chrome/86.0.4240.99 XWEB/4317 MMWEBSDK/20220903 Mobile Safari/537.36 MMWEBID/7135 MicroMessenger/8.0.28.2240(0x28001CA2) WeChat/arm64 Weixin NetType/WIFI Language/zh_CN ABI/arm64","WebKit","Chrome","86.0.4240.99","AndroidOS","10","10324","","{""tenderness-positive1"":3,""tenderness-negative1"":4,""tenderness-negative2"":3,""tenderness-positive2"":4,""tenderness-positive3"":3,""tenderness-negative3"":4,""tenderness-positive4"":3,""tendereness-negative4"":4,""tendernness-negative5"":3,""tenderness-positive5"":4}","[0,1,2,3,4,5,6,7,8,9]"
"","","","","","survey-multi-choice","148","417486","0.0-21.0","268","1","2022-10-15 10:30:55","d60b49b5908c80e163b920d72b52d584","113.220.122.19","Mozilla/5.0 (Linux; Android 10; KKG-AN00 Build/HONORKKG-AN00; wv) AppleWebKit/537.36 (KHTML, like Gecko) Version/4.0 Chrome/86.0.4240.99 XWEB/4317 MMWEBSDK/20220903 Mobile Safari/537.36 MMWEBID/7135 MicroMessenger/8.0.28.2240(0x28001CA2) WeChat/arm64 Weixin NetType/WIFI Language/zh_CN ABI/arm64","WebKit","Chrome","86.0.4240.99","AndroidOS","10","4270","","{""Attention2"":""其他""}","[0]"
"","","","","","html-button-response","149","418549","0.0-22.0","268","1","2022-10-15 10:30:55","d60b49b5908c80e163b920d72b52d584","113.220.122.19","Mozilla/5.0 (Linux; Android 10; KKG-AN00 Build/HONORKKG-AN00; wv) AppleWebKit/537.36 (KHTML, like Gecko) Version/4.0 Chrome/86.0.4240.99 XWEB/4317 MMWEBSDK/20220903 Mobile Safari/537.36 MMWEBID/7135 MicroMessenger/8.0.28.2240(0x28001CA2) WeChat/arm64 Weixin NetType/WIFI Language/zh_CN ABI/arm64","WebKit","Chrome","86.0.4240.99","AndroidOS","10","1029","<p><strong>请判断你在多大程度上同意下列陈述。</strong></p>","0",""
"","","","","","survey-likert","150","456776","0.0-23.0","268","1","2022-10-15 10:30:55","d60b49b5908c80e163b920d72b52d584","113.220.122.19","Mozilla/5.0 (Linux; Android 10; KKG-AN00 Build/HONORKKG-AN00; wv) AppleWebKit/537.36 (KHTML, like Gecko) Version/4.0 Chrome/86.0.4240.99 XWEB/4317 MMWEBSDK/20220903 Mobile Safari/537.36 MMWEBID/7135 MicroMessenger/8.0.28.2240(0x28001CA2) WeChat/arm64 Weixin NetType/WIFI Language/zh_CN ABI/arm64","WebKit","Chrome","86.0.4240.99","AndroidOS","10","38162","","{""Patri10"":0,""Patri4"":4,""Nation4"":3,""Patri5"":4,""Patri3"":4,""Nation6"":4,""Patri2"":3,""Patri8"":3,""Patri1"":4,""Nation1"":4,""Nation5"":4,""Nation7"":4,""Patri9"":3,""Patri6"":4,""Nation3"":3,""Nation8"":4,""Nation2"":3,""Patri11"":4,""Patri7"":4,""Patri12"":4}","[9,3,15,4,2,17,1,7,0,12,16,18,8,5,14,19,13,10,6,11]"
"","","","","","html-button-response","151","457752","0.0-24.0","268","1","2022-10-15 10:30:55","d60b49b5908c80e163b920d72b52d584","113.220.122.19","Mozilla/5.0 (Linux; Android 10; KKG-AN00 Build/HONORKKG-AN00; wv) AppleWebKit/537.36 (KHTML, like Gecko) Version/4.0 Chrome/86.0.4240.99 XWEB/4317 MMWEBSDK/20220903 Mobile Safari/537.36 MMWEBID/7135 MicroMessenger/8.0.28.2240(0x28001CA2) WeChat/arm64 Weixin NetType/WIFI Language/zh_CN ABI/arm64","WebKit","Chrome","86.0.4240.99","AndroidOS","10","938","<p><strong>请判断你在多大程度上同意下列陈述。</strong></p>","0",""
"","","","","","survey-likert","152","485954","0.0-25.0","268","1","2022-10-15 10:30:55","d60b49b5908c80e163b920d72b52d584","113.220.122.19","Mozilla/5.0 (Linux; Android 10; KKG-AN00 Build/HONORKKG-AN00; wv) AppleWebKit/537.36 (KHTML, like Gecko) Version/4.0 Chrome/86.0.4240.99 XWEB/4317 MMWEBSDK/20220903 Mobile Safari/537.36 MMWEBID/7135 MicroMessenger/8.0.28.2240(0x28001CA2) WeChat/arm64 Weixin NetType/WIFI Language/zh_CN ABI/arm64","WebKit","Chrome","86.0.4240.99","AndroidOS","10","28154","","{""hi4"":7,""vi3"":7,""hc3"":7,""hi2"":8,""hi1"":8,""vc2"":6,""hc2"":8,""vi4"":6,""vc3"":8,""vi1"":6,""hi3"":8,""vi2"":7,""Robot"":6,""vc4"":8,""vc1"":6,""hc1"":8,""hc4"":6}","[3,6,11,1,0,14,10,8,15,4,2,5,7,16,13,9,12]"
