"success","timeout","failed_images","failed_audio","failed_video","trial_type","trial_index","time_elapsed","internal_node_id","run_id","condition","recorded_at","source_code_version","ip","user_agent","device","browser","browser_version","platform","platform_version","rt","stimulus","response","question_order"
"true","false","[]","[]","[]","preload","0","2591","0.0-0.0","267","1","2022-10-15 10:10:56","d60b49b5908c80e163b920d72b52d584","113.220.122.19","Mozilla/5.0 (Linux; Android 10; KKG-AN00 Build/HONORKKG-AN00; wv) AppleWebKit/537.36 (KHTML, like Gecko) Version/4.0 Chrome/86.0.4240.99 XWEB/4317 MMWEBSDK/20220903 Mobile Safari/537.36 MMWEBID/9929 MicroMessenger/8.0.28.2240(0x28001C55) WeChat/arm64 Weixin NetType/WIFI Language/zh_CN ABI/arm64","WebKit","Chrome","86.0.4240.99","AndroidOS","10","","","",""
"true","","","","","fullscreen","1","9109","0.0-1.0","267","1","2022-10-15 10:10:56","d60b49b5908c80e163b920d72b52d584","113.220.122.19","Mozilla/5.0 (Linux; Android 10; KKG-AN00 Build/HONORKKG-AN00; wv) AppleWebKit/537.36 (KHTML, like Gecko) Version/4.0 Chrome/86.0.4240.99 XWEB/4317 MMWEBSDK/20220903 Mobile Safari/537.36 MMWEBID/9929 MicroMessenger/8.0.28.2240(0x28001C55) WeChat/arm64 Weixin NetType/WIFI Language/zh_CN ABI/arm64","WebKit","Chrome","86.0.4240.99","AndroidOS","10","","","",""
"","","","","","html-button-response","2","17531","0.0-2.0","267","1","2022-10-15 10:10:56","d60b49b5908c80e163b920d72b52d584","113.220.122.19","Mozilla/5.0 (Linux; Android 10; KKG-AN00 Build/HONORKKG-AN00; wv) AppleWebKit/537.36 (KHTML, like Gecko) Version/4.0 Chrome/86.0.4240.99 XWEB/4317 MMWEBSDK/20220903 Mobile Safari/537.36 MMWEBID/9929 MicroMessenger/8.0.28.2240(0x28001C55) WeChat/arm64 Weixin NetType/WIFI Language/zh_CN ABI/arm64","WebKit","Chrome","86.0.4240.99","AndroidOS","10","8404","<p style=""font-size:20px;font-weight:bold;"">实验知情同意书</p><p style=""text-align:left;""><strong>实验名称：</strong>社会冲突研究</p><p style=""text-align:left;""><strong>主要研究者：</strong>韩晓春副教授（北京师范大学心理学部）</p><p style=""text-align:left;""><strong>联系方式：</strong>发送邮件至xiaochun.han@bnu.edu.cn</p><p style=""text-align:left;""><strong>研究目的：</strong>研究旨在了解人类面对群体冲突时的决策方式，以及相关的心理学特质。实验调查大约需要20分钟。</p><p style=""text-align:left;""><strong>实验流程：</strong>实验包含两部分。第一部分呈现一系列群体冲突场景，请你决定如何对这些冲突进行反应，大约需要10分钟完成。第二部分包含一系列人口统计学信息收集和心理学问卷，大约需要10分钟完成。</p><p style=""text-align:left;""><strong>参加及退出规则：</strong>参加本实验完全取决于您的个人意愿。在参与过程中，您可以随时退出，并且不用承担任何后果。</p><p style=""text-align:left;""><strong>隐私：</strong>本实验完全匿名进行，不会收集您的姓名或其他能够识别您身份的信息。实验中收集的作答仅用作科学研究使用，可能会在学术期刊/书籍上发表，或者用于教学，您的数据未来可能会和其他研究者或实验室分享，但您的个人身份不会被识别。</p><p style=""text-align:left;""><strong>实验报酬：</strong>实验完成后，您将获得15元人民币报酬，以感谢您的时间和努力。调查问卷中包含几道题目用以测验您作答时的认真度。只有完成全部实验，并且正确回答认真度测验的被试才能获得实验报酬。实验报酬将通过支付宝转账发放。</p><p style=""text-align:left;font-size:20px;""><strong>如果您同意以上实验知情同意书的内容，请点击'同意并且开始实验'按钮；否则请关闭浏览器界面，退出实验。</strong></p>","0",""
"","","","","","html-button-response","3","22238","0.0-3.0","267","1","2022-10-15 10:10:56","d60b49b5908c80e163b920d72b52d584","113.220.122.19","Mozilla/5.0 (Linux; Android 10; KKG-AN00 Build/HONORKKG-AN00; wv) AppleWebKit/537.36 (KHTML, like Gecko) Version/4.0 Chrome/86.0.4240.99 XWEB/4317 MMWEBSDK/20220903 Mobile Safari/537.36 MMWEBID/9929 MicroMessenger/8.0.28.2240(0x28001C55) WeChat/arm64 Weixin NetType/WIFI Language/zh_CN ABI/arm64","WebKit","Chrome","86.0.4240.99","AndroidOS","10","4696","<p ><strong>实验任务一：</strong></p><p>请想象你的国家与另一个国家发生了军事冲突。</p><p>你是国家军队的指挥官，你将如何在冲突中进行决策。</p><p>具体来说，作为军队指挥官，请你决定是否发射导弹进行打击。</p><p>接下来，你会面对一系列场景，请仔细阅读每个场景，然后进行决策。</p><p>这部分实验任务大约需要10分钟。</p><p><strong>实验过程中，请集中注意力。</strong></p>","0",""
"","","","","","html-keyboard-response","4","23244","0.0-4.0-0.0","267","1","2022-10-15 10:10:56","d60b49b5908c80e163b920d72b52d584","113.220.122.19","Mozilla/5.0 (Linux; Android 10; KKG-AN00 Build/HONORKKG-AN00; wv) AppleWebKit/537.36 (KHTML, like Gecko) Version/4.0 Chrome/86.0.4240.99 XWEB/4317 MMWEBSDK/20220903 Mobile Safari/537.36 MMWEBID/9929 MicroMessenger/8.0.28.2240(0x28001C55) WeChat/arm64 Weixin NetType/WIFI Language/zh_CN ABI/arm64","WebKit","Chrome","86.0.4240.99","AndroidOS","10","null","<div style=""font-size:60px;"">+</div>","null",""
"","","","","","html-button-response","5","36563","0.0-4.0-1.0","267","1","2022-10-15 10:10:56","d60b49b5908c80e163b920d72b52d584","113.220.122.19","Mozilla/5.0 (Linux; Android 10; KKG-AN00 Build/HONORKKG-AN00; wv) AppleWebKit/537.36 (KHTML, like Gecko) Version/4.0 Chrome/86.0.4240.99 XWEB/4317 MMWEBSDK/20220903 Mobile Safari/537.36 MMWEBID/9929 MicroMessenger/8.0.28.2240(0x28001C55) WeChat/arm64 Weixin NetType/WIFI Language/zh_CN ABI/arm64","WebKit","Chrome","86.0.4240.99","AndroidOS","10","13295","<p>作为军队的指挥官，你可以选择发射导弹杀死 <strong>7名</strong> 敌国士兵，但会炸毁附近的 <strong>1棵</strong> 敌国树木。</p> <p>树木的照片如下图所示。</p> <p></p> <img src='stimuli/trees/8.png', style='max-width: 30%;'> </img> <p><strong>你是否选择发射武器？</strong></p>","1",""
"","","","","","html-keyboard-response","6","37575","0.0-4.0-0.1","267","1","2022-10-15 10:10:56","d60b49b5908c80e163b920d72b52d584","113.220.122.19","Mozilla/5.0 (Linux; Android 10; KKG-AN00 Build/HONORKKG-AN00; wv) AppleWebKit/537.36 (KHTML, like Gecko) Version/4.0 Chrome/86.0.4240.99 XWEB/4317 MMWEBSDK/20220903 Mobile Safari/537.36 MMWEBID/9929 MicroMessenger/8.0.28.2240(0x28001C55) WeChat/arm64 Weixin NetType/WIFI Language/zh_CN ABI/arm64","WebKit","Chrome","86.0.4240.99","AndroidOS","10","null","<div style=""font-size:60px;"">+</div>","null",""
"","","","","","html-button-response","7","45087","0.0-4.0-1.1","267","1","2022-10-15 10:10:56","d60b49b5908c80e163b920d72b52d584","113.220.122.19","Mozilla/5.0 (Linux; Android 10; KKG-AN00 Build/HONORKKG-AN00; wv) AppleWebKit/537.36 (KHTML, like Gecko) Version/4.0 Chrome/86.0.4240.99 XWEB/4317 MMWEBSDK/20220903 Mobile Safari/537.36 MMWEBID/9929 MicroMessenger/8.0.28.2240(0x28001C55) WeChat/arm64 Weixin NetType/WIFI Language/zh_CN ABI/arm64","WebKit","Chrome","86.0.4240.99","AndroidOS","10","7495","<p>作为军队的指挥官，你可以选择发射导弹杀死 <strong>1名</strong> 敌国士兵，但会误杀附近的 <strong>1名</strong> 敌国平民。</p> <p>平民照片如下图所示。</p> <p></p> <img src='stimuli/faces/NCF1.jpg', style='max-width: 30%;'> </img> <p><strong>你是否选择发射武器？</strong></p>","1",""
"","","","","","html-keyboard-response","8","46095","0.0-4.0-0.2","267","1","2022-10-15 10:10:56","d60b49b5908c80e163b920d72b52d584","113.220.122.19","Mozilla/5.0 (Linux; Android 10; KKG-AN00 Build/HONORKKG-AN00; wv) AppleWebKit/537.36 (KHTML, like Gecko) Version/4.0 Chrome/86.0.4240.99 XWEB/4317 MMWEBSDK/20220903 Mobile Safari/537.36 MMWEBID/9929 MicroMessenger/8.0.28.2240(0x28001C55) WeChat/arm64 Weixin NetType/WIFI Language/zh_CN ABI/arm64","WebKit","Chrome","86.0.4240.99","AndroidOS","10","null","<div style=""font-size:60px;"">+</div>","null",""
"","","","","","html-button-response","9","55017","0.0-4.0-1.2","267","1","2022-10-15 10:10:56","d60b49b5908c80e163b920d72b52d584","113.220.122.19","Mozilla/5.0 (Linux; Android 10; KKG-AN00 Build/HONORKKG-AN00; wv) AppleWebKit/537.36 (KHTML, like Gecko) Version/4.0 Chrome/86.0.4240.99 XWEB/4317 MMWEBSDK/20220903 Mobile Safari/537.36 MMWEBID/9929 MicroMessenger/8.0.28.2240(0x28001C55) WeChat/arm64 Weixin NetType/WIFI Language/zh_CN ABI/arm64","WebKit","Chrome","86.0.4240.99","AndroidOS","10","8906","<p>作为军队的指挥官，你可以选择发射导弹杀死 <strong>5名</strong> 敌国士兵，但会炸毁附近的 <strong>1棵</strong> 敌国树木。</p> <p>树木的照片如下图所示。</p> <p></p> <img src='stimuli/trees/10.png', style='max-width: 30%;'> </img> <p><strong>你是否选择发射武器？</strong></p>","1",""
"","","","","","html-keyboard-response","10","56025","0.0-4.0-0.3","267","1","2022-10-15 10:10:56","d60b49b5908c80e163b920d72b52d584","113.220.122.19","Mozilla/5.0 (Linux; Android 10; KKG-AN00 Build/HONORKKG-AN00; wv) AppleWebKit/537.36 (KHTML, like Gecko) Version/4.0 Chrome/86.0.4240.99 XWEB/4317 MMWEBSDK/20220903 Mobile Safari/537.36 MMWEBID/9929 MicroMessenger/8.0.28.2240(0x28001C55) WeChat/arm64 Weixin NetType/WIFI Language/zh_CN ABI/arm64","WebKit","Chrome","86.0.4240.99","AndroidOS","10","null","<div style=""font-size:60px;"">+</div>","null",""
"","","","","","html-button-response","11","59896","0.0-4.0-1.3","267","1","2022-10-15 10:10:56","d60b49b5908c80e163b920d72b52d584","113.220.122.19","Mozilla/5.0 (Linux; Android 10; KKG-AN00 Build/HONORKKG-AN00; wv) AppleWebKit/537.36 (KHTML, like Gecko) Version/4.0 Chrome/86.0.4240.99 XWEB/4317 MMWEBSDK/20220903 Mobile Safari/537.36 MMWEBID/9929 MicroMessenger/8.0.28.2240(0x28001C55) WeChat/arm64 Weixin NetType/WIFI Language/zh_CN ABI/arm64","WebKit","Chrome","86.0.4240.99","AndroidOS","10","3853","<p>作为军队的指挥官，你可以选择发射导弹杀死 <strong>7名</strong> 敌国士兵，但会炸毁附近的 <strong>1棵</strong> 敌国树木。</p> <p>树木的照片如下图所示。</p> <p></p> <img src='stimuli/trees/5.png', style='max-width: 30%;'> </img> <p><strong>你是否选择发射武器？</strong></p>","0",""
"","","","","","html-keyboard-response","12","60903","0.0-4.0-0.4","267","1","2022-10-15 10:10:56","d60b49b5908c80e163b920d72b52d584","113.220.122.19","Mozilla/5.0 (Linux; Android 10; KKG-AN00 Build/HONORKKG-AN00; wv) AppleWebKit/537.36 (KHTML, like Gecko) Version/4.0 Chrome/86.0.4240.99 XWEB/4317 MMWEBSDK/20220903 Mobile Safari/537.36 MMWEBID/9929 MicroMessenger/8.0.28.2240(0x28001C55) WeChat/arm64 Weixin NetType/WIFI Language/zh_CN ABI/arm64","WebKit","Chrome","86.0.4240.99","AndroidOS","10","null","<div style=""font-size:60px;"">+</div>","null",""
"","","","","","html-button-response","13","66990","0.0-4.0-1.4","267","1","2022-10-15 10:10:56","d60b49b5908c80e163b920d72b52d584","113.220.122.19","Mozilla/5.0 (Linux; Android 10; KKG-AN00 Build/HONORKKG-AN00; wv) AppleWebKit/537.36 (KHTML, like Gecko) Version/4.0 Chrome/86.0.4240.99 XWEB/4317 MMWEBSDK/20220903 Mobile Safari/537.36 MMWEBID/9929 MicroMessenger/8.0.28.2240(0x28001C55) WeChat/arm64 Weixin NetType/WIFI Language/zh_CN ABI/arm64","WebKit","Chrome","86.0.4240.99","AndroidOS","10","6073","<p>作为军队的指挥官，你可以选择发射导弹杀死 <strong>2名</strong> 敌国士兵，但会误杀附近的 <strong>1名</strong> 敌国平民。</p> <p>平民照片如下图所示。</p> <p></p> <img src='stimuli/faces/NCM5.jpg', style='max-width: 30%;'> </img> <p><strong>你是否选择发射武器？</strong></p>","0",""
"","","","","","html-keyboard-response","14","67998","0.0-4.0-0.5","267","1","2022-10-15 10:10:56","d60b49b5908c80e163b920d72b52d584","113.220.122.19","Mozilla/5.0 (Linux; Android 10; KKG-AN00 Build/HONORKKG-AN00; wv) AppleWebKit/537.36 (KHTML, like Gecko) Version/4.0 Chrome/86.0.4240.99 XWEB/4317 MMWEBSDK/20220903 Mobile Safari/537.36 MMWEBID/9929 MicroMessenger/8.0.28.2240(0x28001C55) WeChat/arm64 Weixin NetType/WIFI Language/zh_CN ABI/arm64","WebKit","Chrome","86.0.4240.99","AndroidOS","10","null","<div style=""font-size:60px;"">+</div>","null",""
"","","","","","html-button-response","15","69308","0.0-4.0-1.5","267","1","2022-10-15 10:10:56","d60b49b5908c80e163b920d72b52d584","113.220.122.19","Mozilla/5.0 (Linux; Android 10; KKG-AN00 Build/HONORKKG-AN00; wv) AppleWebKit/537.36 (KHTML, like Gecko) Version/4.0 Chrome/86.0.4240.99 XWEB/4317 MMWEBSDK/20220903 Mobile Safari/537.36 MMWEBID/9929 MicroMessenger/8.0.28.2240(0x28001C55) WeChat/arm64 Weixin NetType/WIFI Language/zh_CN ABI/arm64","WebKit","Chrome","86.0.4240.99","AndroidOS","10","1295","<p>作为军队的指挥官，你可以选择发射导弹杀死 <strong>7名</strong> 敌国士兵，但会误杀附近的 <strong>1名</strong> 敌国平民。</p> <p>平民照片如下图所示。</p> <p></p> <img src='stimuli/faces/NCF2.jpg', style='max-width: 30%;'> </img> <p><strong>你是否选择发射武器？</strong></p>","0",""
"","","","","","html-keyboard-response","16","70316","0.0-4.0-0.6","267","1","2022-10-15 10:10:56","d60b49b5908c80e163b920d72b52d584","113.220.122.19","Mozilla/5.0 (Linux; Android 10; KKG-AN00 Build/HONORKKG-AN00; wv) AppleWebKit/537.36 (KHTML, like Gecko) Version/4.0 Chrome/86.0.4240.99 XWEB/4317 MMWEBSDK/20220903 Mobile Safari/537.36 MMWEBID/9929 MicroMessenger/8.0.28.2240(0x28001C55) WeChat/arm64 Weixin NetType/WIFI Language/zh_CN ABI/arm64","WebKit","Chrome","86.0.4240.99","AndroidOS","10","null","<div style=""font-size:60px;"">+</div>","null",""
"","","","","","html-button-response","17","72960","0.0-4.0-1.6","267","1","2022-10-15 10:10:56","d60b49b5908c80e163b920d72b52d584","113.220.122.19","Mozilla/5.0 (Linux; Android 10; KKG-AN00 Build/HONORKKG-AN00; wv) AppleWebKit/537.36 (KHTML, like Gecko) Version/4.0 Chrome/86.0.4240.99 XWEB/4317 MMWEBSDK/20220903 Mobile Safari/537.36 MMWEBID/9929 MicroMessenger/8.0.28.2240(0x28001C55) WeChat/arm64 Weixin NetType/WIFI Language/zh_CN ABI/arm64","WebKit","Chrome","86.0.4240.99","AndroidOS","10","2626","<p>作为军队的指挥官，你可以选择发射导弹杀死 <strong>1名</strong> 敌国士兵，但会炸毁附近的 <strong>1棵</strong> 敌国树木。</p> <p>树木的照片如下图所示。</p> <p></p> <img src='stimuli/trees/14.png', style='max-width: 30%;'> </img> <p><strong>你是否选择发射武器？</strong></p>","0",""
"","","","","","html-keyboard-response","18","73971","0.0-4.0-0.7","267","1","2022-10-15 10:10:56","d60b49b5908c80e163b920d72b52d584","113.220.122.19","Mozilla/5.0 (Linux; Android 10; KKG-AN00 Build/HONORKKG-AN00; wv) AppleWebKit/537.36 (KHTML, like Gecko) Version/4.0 Chrome/86.0.4240.99 XWEB/4317 MMWEBSDK/20220903 Mobile Safari/537.36 MMWEBID/9929 MicroMessenger/8.0.28.2240(0x28001C55) WeChat/arm64 Weixin NetType/WIFI Language/zh_CN ABI/arm64","WebKit","Chrome","86.0.4240.99","AndroidOS","10","null","<div style=""font-size:60px;"">+</div>","null",""
"","","","","","html-button-response","19","75399","0.0-4.0-1.7","267","1","2022-10-15 10:10:56","d60b49b5908c80e163b920d72b52d584","113.220.122.19","Mozilla/5.0 (Linux; Android 10; KKG-AN00 Build/HONORKKG-AN00; wv) AppleWebKit/537.36 (KHTML, like Gecko) Version/4.0 Chrome/86.0.4240.99 XWEB/4317 MMWEBSDK/20220903 Mobile Safari/537.36 MMWEBID/9929 MicroMessenger/8.0.28.2240(0x28001C55) WeChat/arm64 Weixin NetType/WIFI Language/zh_CN ABI/arm64","WebKit","Chrome","86.0.4240.99","AndroidOS","10","1413","<p>作为军队的指挥官，你可以选择发射导弹杀死 <strong>5名</strong> 敌国士兵，但会误杀附近的 <strong>1名</strong> 敌国平民。</p> <p>平民照片如下图所示。</p> <p></p> <img src='stimuli/faces/NCM7.jpg', style='max-width: 30%;'> </img> <p><strong>你是否选择发射武器？</strong></p>","1",""
"","","","","","html-keyboard-response","20","76404","0.0-4.0-0.8","267","1","2022-10-15 10:10:56","d60b49b5908c80e163b920d72b52d584","113.220.122.19","Mozilla/5.0 (Linux; Android 10; KKG-AN00 Build/HONORKKG-AN00; wv) AppleWebKit/537.36 (KHTML, like Gecko) Version/4.0 Chrome/86.0.4240.99 XWEB/4317 MMWEBSDK/20220903 Mobile Safari/537.36 MMWEBID/9929 MicroMessenger/8.0.28.2240(0x28001C55) WeChat/arm64 Weixin NetType/WIFI Language/zh_CN ABI/arm64","WebKit","Chrome","86.0.4240.99","AndroidOS","10","null","<div style=""font-size:60px;"">+</div>","null",""
"","","","","","html-button-response","21","78565","0.0-4.0-1.8","267","1","2022-10-15 10:10:56","d60b49b5908c80e163b920d72b52d584","113.220.122.19","Mozilla/5.0 (Linux; Android 10; KKG-AN00 Build/HONORKKG-AN00; wv) AppleWebKit/537.36 (KHTML, like Gecko) Version/4.0 Chrome/86.0.4240.99 XWEB/4317 MMWEBSDK/20220903 Mobile Safari/537.36 MMWEBID/9929 MicroMessenger/8.0.28.2240(0x28001C55) WeChat/arm64 Weixin NetType/WIFI Language/zh_CN ABI/arm64","WebKit","Chrome","86.0.4240.99","AndroidOS","10","2154","<p>作为军队的指挥官，你可以选择发射导弹杀死 <strong>7名</strong> 敌国士兵，但会误杀附近的 <strong>1名</strong> 敌国平民。</p> <p>平民照片如下图所示。</p> <p></p> <img src='stimuli/faces/NCF8.jpg', style='max-width: 30%;'> </img> <p><strong>你是否选择发射武器？</strong></p>","0",""
"","","","","","html-keyboard-response","22","79569","0.0-4.0-0.9","267","1","2022-10-15 10:10:56","d60b49b5908c80e163b920d72b52d584","113.220.122.19","Mozilla/5.0 (Linux; Android 10; KKG-AN00 Build/HONORKKG-AN00; wv) AppleWebKit/537.36 (KHTML, like Gecko) Version/4.0 Chrome/86.0.4240.99 XWEB/4317 MMWEBSDK/20220903 Mobile Safari/537.36 MMWEBID/9929 MicroMessenger/8.0.28.2240(0x28001C55) WeChat/arm64 Weixin NetType/WIFI Language/zh_CN ABI/arm64","WebKit","Chrome","86.0.4240.99","AndroidOS","10","null","<div style=""font-size:60px;"">+</div>","null",""
"","","","","","html-button-response","23","80901","0.0-4.0-1.9","267","1","2022-10-15 10:10:56","d60b49b5908c80e163b920d72b52d584","113.220.122.19","Mozilla/5.0 (Linux; Android 10; KKG-AN00 Build/HONORKKG-AN00; wv) AppleWebKit/537.36 (KHTML, like Gecko) Version/4.0 Chrome/86.0.4240.99 XWEB/4317 MMWEBSDK/20220903 Mobile Safari/537.36 MMWEBID/9929 MicroMessenger/8.0.28.2240(0x28001C55) WeChat/arm64 Weixin NetType/WIFI Language/zh_CN ABI/arm64","WebKit","Chrome","86.0.4240.99","AndroidOS","10","1325","<p>作为军队的指挥官，你可以选择发射导弹杀死 <strong>8名</strong> 敌国士兵，但会误杀附近的 <strong>1名</strong> 敌国平民。</p> <p>平民照片如下图所示。</p> <p></p> <img src='stimuli/faces/NCF4.jpg', style='max-width: 30%;'> </img> <p><strong>你是否选择发射武器？</strong></p>","0",""
"","","","","","html-keyboard-response","24","81906","0.0-4.0-0.10","267","1","2022-10-15 10:10:56","d60b49b5908c80e163b920d72b52d584","113.220.122.19","Mozilla/5.0 (Linux; Android 10; KKG-AN00 Build/HONORKKG-AN00; wv) AppleWebKit/537.36 (KHTML, like Gecko) Version/4.0 Chrome/86.0.4240.99 XWEB/4317 MMWEBSDK/20220903 Mobile Safari/537.36 MMWEBID/9929 MicroMessenger/8.0.28.2240(0x28001C55) WeChat/arm64 Weixin NetType/WIFI Language/zh_CN ABI/arm64","WebKit","Chrome","86.0.4240.99","AndroidOS","10","null","<div style=""font-size:60px;"">+</div>","null",""
"","","","","","html-button-response","25","82956","0.0-4.0-1.10","267","1","2022-10-15 10:10:56","d60b49b5908c80e163b920d72b52d584","113.220.122.19","Mozilla/5.0 (Linux; Android 10; KKG-AN00 Build/HONORKKG-AN00; wv) AppleWebKit/537.36 (KHTML, like Gecko) Version/4.0 Chrome/86.0.4240.99 XWEB/4317 MMWEBSDK/20220903 Mobile Safari/537.36 MMWEBID/9929 MicroMessenger/8.0.28.2240(0x28001C55) WeChat/arm64 Weixin NetType/WIFI Language/zh_CN ABI/arm64","WebKit","Chrome","86.0.4240.99","AndroidOS","10","1045","<p>作为军队的指挥官，你可以选择发射导弹杀死 <strong>6名</strong> 敌国士兵，但会误杀附近的 <strong>1名</strong> 敌国平民。</p> <p>平民照片如下图所示。</p> <p></p> <img src='stimuli/faces/NCM3.jpg', style='max-width: 30%;'> </img> <p><strong>你是否选择发射武器？</strong></p>","0",""
"","","","","","html-keyboard-response","26","83963","0.0-4.0-0.11","267","1","2022-10-15 10:10:56","d60b49b5908c80e163b920d72b52d584","113.220.122.19","Mozilla/5.0 (Linux; Android 10; KKG-AN00 Build/HONORKKG-AN00; wv) AppleWebKit/537.36 (KHTML, like Gecko) Version/4.0 Chrome/86.0.4240.99 XWEB/4317 MMWEBSDK/20220903 Mobile Safari/537.36 MMWEBID/9929 MicroMessenger/8.0.28.2240(0x28001C55) WeChat/arm64 Weixin NetType/WIFI Language/zh_CN ABI/arm64","WebKit","Chrome","86.0.4240.99","AndroidOS","10","null","<div style=""font-size:60px;"">+</div>","null",""
"","","","","","html-button-response","27","85421","0.0-4.0-1.11","267","1","2022-10-15 10:10:56","d60b49b5908c80e163b920d72b52d584","113.220.122.19","Mozilla/5.0 (Linux; Android 10; KKG-AN00 Build/HONORKKG-AN00; wv) AppleWebKit/537.36 (KHTML, like Gecko) Version/4.0 Chrome/86.0.4240.99 XWEB/4317 MMWEBSDK/20220903 Mobile Safari/537.36 MMWEBID/9929 MicroMessenger/8.0.28.2240(0x28001C55) WeChat/arm64 Weixin NetType/WIFI Language/zh_CN ABI/arm64","WebKit","Chrome","86.0.4240.99","AndroidOS","10","1438","<p>作为军队的指挥官，你可以选择发射导弹杀死 <strong>3名</strong> 敌国士兵，但会误杀附近的 <strong>1名</strong> 敌国平民。</p> <p>平民照片如下图所示。</p> <p></p> <img src='stimuli/faces/NCF8.jpg', style='max-width: 30%;'> </img> <p><strong>你是否选择发射武器？</strong></p>","0",""
"","","","","","html-keyboard-response","28","86429","0.0-4.0-0.12","267","1","2022-10-15 10:10:56","d60b49b5908c80e163b920d72b52d584","113.220.122.19","Mozilla/5.0 (Linux; Android 10; KKG-AN00 Build/HONORKKG-AN00; wv) AppleWebKit/537.36 (KHTML, like Gecko) Version/4.0 Chrome/86.0.4240.99 XWEB/4317 MMWEBSDK/20220903 Mobile Safari/537.36 MMWEBID/9929 MicroMessenger/8.0.28.2240(0x28001C55) WeChat/arm64 Weixin NetType/WIFI Language/zh_CN ABI/arm64","WebKit","Chrome","86.0.4240.99","AndroidOS","10","null","<div style=""font-size:60px;"">+</div>","null",""
"","","","","","html-button-response","29","88148","0.0-4.0-1.12","267","1","2022-10-15 10:10:56","d60b49b5908c80e163b920d72b52d584","113.220.122.19","Mozilla/5.0 (Linux; Android 10; KKG-AN00 Build/HONORKKG-AN00; wv) AppleWebKit/537.36 (KHTML, like Gecko) Version/4.0 Chrome/86.0.4240.99 XWEB/4317 MMWEBSDK/20220903 Mobile Safari/537.36 MMWEBID/9929 MicroMessenger/8.0.28.2240(0x28001C55) WeChat/arm64 Weixin NetType/WIFI Language/zh_CN ABI/arm64","WebKit","Chrome","86.0.4240.99","AndroidOS","10","1701","<p>作为军队的指挥官，你可以选择发射导弹杀死 <strong>10名</strong> 敌国士兵，但会误杀附近的 <strong>1名</strong> 敌国平民。</p> <p>平民照片如下图所示。</p> <p></p> <img src='stimuli/faces/NCM8.jpg', style='max-width: 30%;'> </img> <p><strong>你是否选择发射武器？</strong></p>","1",""
"","","","","","html-keyboard-response","30","89157","0.0-4.0-0.13","267","1","2022-10-15 10:10:56","d60b49b5908c80e163b920d72b52d584","113.220.122.19","Mozilla/5.0 (Linux; Android 10; KKG-AN00 Build/HONORKKG-AN00; wv) AppleWebKit/537.36 (KHTML, like Gecko) Version/4.0 Chrome/86.0.4240.99 XWEB/4317 MMWEBSDK/20220903 Mobile Safari/537.36 MMWEBID/9929 MicroMessenger/8.0.28.2240(0x28001C55) WeChat/arm64 Weixin NetType/WIFI Language/zh_CN ABI/arm64","WebKit","Chrome","86.0.4240.99","AndroidOS","10","null","<div style=""font-size:60px;"">+</div>","null",""
"","","","","","html-button-response","31","91216","0.0-4.0-1.13","267","1","2022-10-15 10:10:56","d60b49b5908c80e163b920d72b52d584","113.220.122.19","Mozilla/5.0 (Linux; Android 10; KKG-AN00 Build/HONORKKG-AN00; wv) AppleWebKit/537.36 (KHTML, like Gecko) Version/4.0 Chrome/86.0.4240.99 XWEB/4317 MMWEBSDK/20220903 Mobile Safari/537.36 MMWEBID/9929 MicroMessenger/8.0.28.2240(0x28001C55) WeChat/arm64 Weixin NetType/WIFI Language/zh_CN ABI/arm64","WebKit","Chrome","86.0.4240.99","AndroidOS","10","2042","<p>作为军队的指挥官，你可以选择发射导弹杀死 <strong>1名</strong> 敌国士兵，但会炸毁附近的 <strong>1棵</strong> 敌国树木。</p> <p>树木的照片如下图所示。</p> <p></p> <img src='stimuli/trees/6.png', style='max-width: 30%;'> </img> <p><strong>你是否选择发射武器？</strong></p>","0",""
"","","","","","html-keyboard-response","32","92222","0.0-4.0-0.14","267","1","2022-10-15 10:10:56","d60b49b5908c80e163b920d72b52d584","113.220.122.19","Mozilla/5.0 (Linux; Android 10; KKG-AN00 Build/HONORKKG-AN00; wv) AppleWebKit/537.36 (KHTML, like Gecko) Version/4.0 Chrome/86.0.4240.99 XWEB/4317 MMWEBSDK/20220903 Mobile Safari/537.36 MMWEBID/9929 MicroMessenger/8.0.28.2240(0x28001C55) WeChat/arm64 Weixin NetType/WIFI Language/zh_CN ABI/arm64","WebKit","Chrome","86.0.4240.99","AndroidOS","10","null","<div style=""font-size:60px;"">+</div>","null",""
"","","","","","html-button-response","33","93256","0.0-4.0-1.14","267","1","2022-10-15 10:10:56","d60b49b5908c80e163b920d72b52d584","113.220.122.19","Mozilla/5.0 (Linux; Android 10; KKG-AN00 Build/HONORKKG-AN00; wv) AppleWebKit/537.36 (KHTML, like Gecko) Version/4.0 Chrome/86.0.4240.99 XWEB/4317 MMWEBSDK/20220903 Mobile Safari/537.36 MMWEBID/9929 MicroMessenger/8.0.28.2240(0x28001C55) WeChat/arm64 Weixin NetType/WIFI Language/zh_CN ABI/arm64","WebKit","Chrome","86.0.4240.99","AndroidOS","10","1013","<p>作为军队的指挥官，你可以选择发射导弹杀死 <strong>1名</strong> 敌国士兵，但会误杀附近的 <strong>1名</strong> 敌国平民。</p> <p>平民照片如下图所示。</p> <p></p> <img src='stimuli/faces/NCF3.jpg', style='max-width: 30%;'> </img> <p><strong>你是否选择发射武器？</strong></p>","0",""
"","","","","","html-keyboard-response","34","94269","0.0-4.0-0.15","267","1","2022-10-15 10:10:56","d60b49b5908c80e163b920d72b52d584","113.220.122.19","Mozilla/5.0 (Linux; Android 10; KKG-AN00 Build/HONORKKG-AN00; wv) AppleWebKit/537.36 (KHTML, like Gecko) Version/4.0 Chrome/86.0.4240.99 XWEB/4317 MMWEBSDK/20220903 Mobile Safari/537.36 MMWEBID/9929 MicroMessenger/8.0.28.2240(0x28001C55) WeChat/arm64 Weixin NetType/WIFI Language/zh_CN ABI/arm64","WebKit","Chrome","86.0.4240.99","AndroidOS","10","null","<div style=""font-size:60px;"">+</div>","null",""
"","","","","","html-button-response","35","95353","0.0-4.0-1.15","267","1","2022-10-15 10:10:56","d60b49b5908c80e163b920d72b52d584","113.220.122.19","Mozilla/5.0 (Linux; Android 10; KKG-AN00 Build/HONORKKG-AN00; wv) AppleWebKit/537.36 (KHTML, like Gecko) Version/4.0 Chrome/86.0.4240.99 XWEB/4317 MMWEBSDK/20220903 Mobile Safari/537.36 MMWEBID/9929 MicroMessenger/8.0.28.2240(0x28001C55) WeChat/arm64 Weixin NetType/WIFI Language/zh_CN ABI/arm64","WebKit","Chrome","86.0.4240.99","AndroidOS","10","1064","<p>作为军队的指挥官，你可以选择发射导弹杀死 <strong>3名</strong> 敌国士兵，但会炸毁附近的 <strong>1棵</strong> 敌国树木。</p> <p>树木的照片如下图所示。</p> <p></p> <img src='stimuli/trees/15.png', style='max-width: 30%;'> </img> <p><strong>你是否选择发射武器？</strong></p>","0",""
"","","","","","html-keyboard-response","36","96363","0.0-4.0-0.16","267","1","2022-10-15 10:10:56","d60b49b5908c80e163b920d72b52d584","113.220.122.19","Mozilla/5.0 (Linux; Android 10; KKG-AN00 Build/HONORKKG-AN00; wv) AppleWebKit/537.36 (KHTML, like Gecko) Version/4.0 Chrome/86.0.4240.99 XWEB/4317 MMWEBSDK/20220903 Mobile Safari/537.36 MMWEBID/9929 MicroMessenger/8.0.28.2240(0x28001C55) WeChat/arm64 Weixin NetType/WIFI Language/zh_CN ABI/arm64","WebKit","Chrome","86.0.4240.99","AndroidOS","10","null","<div style=""font-size:60px;"">+</div>","null",""
"","","","","","html-button-response","37","98178","0.0-4.0-1.16","267","1","2022-10-15 10:10:56","d60b49b5908c80e163b920d72b52d584","113.220.122.19","Mozilla/5.0 (Linux; Android 10; KKG-AN00 Build/HONORKKG-AN00; wv) AppleWebKit/537.36 (KHTML, like Gecko) Version/4.0 Chrome/86.0.4240.99 XWEB/4317 MMWEBSDK/20220903 Mobile Safari/537.36 MMWEBID/9929 MicroMessenger/8.0.28.2240(0x28001C55) WeChat/arm64 Weixin NetType/WIFI Language/zh_CN ABI/arm64","WebKit","Chrome","86.0.4240.99","AndroidOS","10","1796","<p>作为军队的指挥官，你可以选择发射导弹杀死 <strong>8名</strong> 敌国士兵，但会误杀附近的 <strong>1名</strong> 敌国平民。</p> <p>平民照片如下图所示。</p> <p></p> <img src='stimuli/faces/NCM1.jpg', style='max-width: 30%;'> </img> <p><strong>你是否选择发射武器？</strong></p>","1",""
"","","","","","html-keyboard-response","38","99191","0.0-4.0-0.17","267","1","2022-10-15 10:10:56","d60b49b5908c80e163b920d72b52d584","113.220.122.19","Mozilla/5.0 (Linux; Android 10; KKG-AN00 Build/HONORKKG-AN00; wv) AppleWebKit/537.36 (KHTML, like Gecko) Version/4.0 Chrome/86.0.4240.99 XWEB/4317 MMWEBSDK/20220903 Mobile Safari/537.36 MMWEBID/9929 MicroMessenger/8.0.28.2240(0x28001C55) WeChat/arm64 Weixin NetType/WIFI Language/zh_CN ABI/arm64","WebKit","Chrome","86.0.4240.99","AndroidOS","10","null","<div style=""font-size:60px;"">+</div>","null",""
"","","","","","html-button-response","39","99943","0.0-4.0-1.17","267","1","2022-10-15 10:10:56","d60b49b5908c80e163b920d72b52d584","113.220.122.19","Mozilla/5.0 (Linux; Android 10; KKG-AN00 Build/HONORKKG-AN00; wv) AppleWebKit/537.36 (KHTML, like Gecko) Version/4.0 Chrome/86.0.4240.99 XWEB/4317 MMWEBSDK/20220903 Mobile Safari/537.36 MMWEBID/9929 MicroMessenger/8.0.28.2240(0x28001C55) WeChat/arm64 Weixin NetType/WIFI Language/zh_CN ABI/arm64","WebKit","Chrome","86.0.4240.99","AndroidOS","10","732","<p>作为军队的指挥官，你可以选择发射导弹杀死 <strong>3名</strong> 敌国士兵，但会炸毁附近的 <strong>1棵</strong> 敌国树木。</p> <p>树木的照片如下图所示。</p> <p></p> <img src='stimuli/trees/12.png', style='max-width: 30%;'> </img> <p><strong>你是否选择发射武器？</strong></p>","0",""
"","","","","","html-keyboard-response","40","100956","0.0-4.0-0.18","267","1","2022-10-15 10:10:56","d60b49b5908c80e163b920d72b52d584","113.220.122.19","Mozilla/5.0 (Linux; Android 10; KKG-AN00 Build/HONORKKG-AN00; wv) AppleWebKit/537.36 (KHTML, like Gecko) Version/4.0 Chrome/86.0.4240.99 XWEB/4317 MMWEBSDK/20220903 Mobile Safari/537.36 MMWEBID/9929 MicroMessenger/8.0.28.2240(0x28001C55) WeChat/arm64 Weixin NetType/WIFI Language/zh_CN ABI/arm64","WebKit","Chrome","86.0.4240.99","AndroidOS","10","null","<div style=""font-size:60px;"">+</div>","null",""
"","","","","","html-button-response","41","101623","0.0-4.0-1.18","267","1","2022-10-15 10:10:56","d60b49b5908c80e163b920d72b52d584","113.220.122.19","Mozilla/5.0 (Linux; Android 10; KKG-AN00 Build/HONORKKG-AN00; wv) AppleWebKit/537.36 (KHTML, like Gecko) Version/4.0 Chrome/86.0.4240.99 XWEB/4317 MMWEBSDK/20220903 Mobile Safari/537.36 MMWEBID/9929 MicroMessenger/8.0.28.2240(0x28001C55) WeChat/arm64 Weixin NetType/WIFI Language/zh_CN ABI/arm64","WebKit","Chrome","86.0.4240.99","AndroidOS","10","644","<p>作为军队的指挥官，你可以选择发射导弹杀死 <strong>4名</strong> 敌国士兵，但会误杀附近的 <strong>1名</strong> 敌国平民。</p> <p>平民照片如下图所示。</p> <p></p> <img src='stimuli/faces/NCM4.jpg', style='max-width: 30%;'> </img> <p><strong>你是否选择发射武器？</strong></p>","0",""
"","","","","","html-keyboard-response","42","102635","0.0-4.0-0.19","267","1","2022-10-15 10:10:56","d60b49b5908c80e163b920d72b52d584","113.220.122.19","Mozilla/5.0 (Linux; Android 10; KKG-AN00 Build/HONORKKG-AN00; wv) AppleWebKit/537.36 (KHTML, like Gecko) Version/4.0 Chrome/86.0.4240.99 XWEB/4317 MMWEBSDK/20220903 Mobile Safari/537.36 MMWEBID/9929 MicroMessenger/8.0.28.2240(0x28001C55) WeChat/arm64 Weixin NetType/WIFI Language/zh_CN ABI/arm64","WebKit","Chrome","86.0.4240.99","AndroidOS","10","null","<div style=""font-size:60px;"">+</div>","null",""
"","","","","","html-button-response","43","103228","0.0-4.0-1.19","267","1","2022-10-15 10:10:56","d60b49b5908c80e163b920d72b52d584","113.220.122.19","Mozilla/5.0 (Linux; Android 10; KKG-AN00 Build/HONORKKG-AN00; wv) AppleWebKit/537.36 (KHTML, like Gecko) Version/4.0 Chrome/86.0.4240.99 XWEB/4317 MMWEBSDK/20220903 Mobile Safari/537.36 MMWEBID/9929 MicroMessenger/8.0.28.2240(0x28001C55) WeChat/arm64 Weixin NetType/WIFI Language/zh_CN ABI/arm64","WebKit","Chrome","86.0.4240.99","AndroidOS","10","571","<p>作为军队的指挥官，你可以选择发射导弹杀死 <strong>9名</strong> 敌国士兵，但会误杀附近的 <strong>1名</strong> 敌国平民。</p> <p>平民照片如下图所示。</p> <p></p> <img src='stimuli/faces/NCM7.jpg', style='max-width: 30%;'> </img> <p><strong>你是否选择发射武器？</strong></p>","0",""
"","","","","","html-keyboard-response","44","104236","0.0-4.0-0.20","267","1","2022-10-15 10:10:56","d60b49b5908c80e163b920d72b52d584","113.220.122.19","Mozilla/5.0 (Linux; Android 10; KKG-AN00 Build/HONORKKG-AN00; wv) AppleWebKit/537.36 (KHTML, like Gecko) Version/4.0 Chrome/86.0.4240.99 XWEB/4317 MMWEBSDK/20220903 Mobile Safari/537.36 MMWEBID/9929 MicroMessenger/8.0.28.2240(0x28001C55) WeChat/arm64 Weixin NetType/WIFI Language/zh_CN ABI/arm64","WebKit","Chrome","86.0.4240.99","AndroidOS","10","null","<div style=""font-size:60px;"">+</div>","null",""
"","","","","","html-button-response","45","105054","0.0-4.0-1.20","267","1","2022-10-15 10:10:56","d60b49b5908c80e163b920d72b52d584","113.220.122.19","Mozilla/5.0 (Linux; Android 10; KKG-AN00 Build/HONORKKG-AN00; wv) AppleWebKit/537.36 (KHTML, like Gecko) Version/4.0 Chrome/86.0.4240.99 XWEB/4317 MMWEBSDK/20220903 Mobile Safari/537.36 MMWEBID/9929 MicroMessenger/8.0.28.2240(0x28001C55) WeChat/arm64 Weixin NetType/WIFI Language/zh_CN ABI/arm64","WebKit","Chrome","86.0.4240.99","AndroidOS","10","790","<p>作为军队的指挥官，你可以选择发射导弹杀死 <strong>8名</strong> 敌国士兵，但会炸毁附近的 <strong>1棵</strong> 敌国树木。</p> <p>树木的照片如下图所示。</p> <p></p> <img src='stimuli/trees/14.png', style='max-width: 30%;'> </img> <p><strong>你是否选择发射武器？</strong></p>","0",""
"","","","","","html-keyboard-response","46","106063","0.0-4.0-0.21","267","1","2022-10-15 10:10:56","d60b49b5908c80e163b920d72b52d584","113.220.122.19","Mozilla/5.0 (Linux; Android 10; KKG-AN00 Build/HONORKKG-AN00; wv) AppleWebKit/537.36 (KHTML, like Gecko) Version/4.0 Chrome/86.0.4240.99 XWEB/4317 MMWEBSDK/20220903 Mobile Safari/537.36 MMWEBID/9929 MicroMessenger/8.0.28.2240(0x28001C55) WeChat/arm64 Weixin NetType/WIFI Language/zh_CN ABI/arm64","WebKit","Chrome","86.0.4240.99","AndroidOS","10","null","<div style=""font-size:60px;"">+</div>","null",""
"","","","","","html-button-response","47","108020","0.0-4.0-1.21","267","1","2022-10-15 10:10:56","d60b49b5908c80e163b920d72b52d584","113.220.122.19","Mozilla/5.0 (Linux; Android 10; KKG-AN00 Build/HONORKKG-AN00; wv) AppleWebKit/537.36 (KHTML, like Gecko) Version/4.0 Chrome/86.0.4240.99 XWEB/4317 MMWEBSDK/20220903 Mobile Safari/537.36 MMWEBID/9929 MicroMessenger/8.0.28.2240(0x28001C55) WeChat/arm64 Weixin NetType/WIFI Language/zh_CN ABI/arm64","WebKit","Chrome","86.0.4240.99","AndroidOS","10","1933","<p>作为军队的指挥官，你可以选择发射导弹杀死 <strong>6名</strong> 敌国士兵，但会炸毁附近的 <strong>1棵</strong> 敌国树木。</p> <p>树木的照片如下图所示。</p> <p></p> <img src='stimuli/trees/1.png', style='max-width: 30%;'> </img> <p><strong>你是否选择发射武器？</strong></p>","1",""
"","","","","","html-keyboard-response","48","109026","0.0-4.0-0.22","267","1","2022-10-15 10:10:56","d60b49b5908c80e163b920d72b52d584","113.220.122.19","Mozilla/5.0 (Linux; Android 10; KKG-AN00 Build/HONORKKG-AN00; wv) AppleWebKit/537.36 (KHTML, like Gecko) Version/4.0 Chrome/86.0.4240.99 XWEB/4317 MMWEBSDK/20220903 Mobile Safari/537.36 MMWEBID/9929 MicroMessenger/8.0.28.2240(0x28001C55) WeChat/arm64 Weixin NetType/WIFI Language/zh_CN ABI/arm64","WebKit","Chrome","86.0.4240.99","AndroidOS","10","null","<div style=""font-size:60px;"">+</div>","null",""
"","","","","","html-button-response","49","109701","0.0-4.0-1.22","267","1","2022-10-15 10:10:56","d60b49b5908c80e163b920d72b52d584","113.220.122.19","Mozilla/5.0 (Linux; Android 10; KKG-AN00 Build/HONORKKG-AN00; wv) AppleWebKit/537.36 (KHTML, like Gecko) Version/4.0 Chrome/86.0.4240.99 XWEB/4317 MMWEBSDK/20220903 Mobile Safari/537.36 MMWEBID/9929 MicroMessenger/8.0.28.2240(0x28001C55) WeChat/arm64 Weixin NetType/WIFI Language/zh_CN ABI/arm64","WebKit","Chrome","86.0.4240.99","AndroidOS","10","651","<p>作为军队的指挥官，你可以选择发射导弹杀死 <strong>7名</strong> 敌国士兵，但会炸毁附近的 <strong>1棵</strong> 敌国树木。</p> <p>树木的照片如下图所示。</p> <p></p> <img src='stimuli/trees/3.png', style='max-width: 30%;'> </img> <p><strong>你是否选择发射武器？</strong></p>","0",""
"","","","","","html-keyboard-response","50","110714","0.0-4.0-0.23","267","1","2022-10-15 10:10:56","d60b49b5908c80e163b920d72b52d584","113.220.122.19","Mozilla/5.0 (Linux; Android 10; KKG-AN00 Build/HONORKKG-AN00; wv) AppleWebKit/537.36 (KHTML, like Gecko) Version/4.0 Chrome/86.0.4240.99 XWEB/4317 MMWEBSDK/20220903 Mobile Safari/537.36 MMWEBID/9929 MicroMessenger/8.0.28.2240(0x28001C55) WeChat/arm64 Weixin NetType/WIFI Language/zh_CN ABI/arm64","WebKit","Chrome","86.0.4240.99","AndroidOS","10","null","<div style=""font-size:60px;"">+</div>","null",""
"","","","","","html-button-response","51","111411","0.0-4.0-1.23","267","1","2022-10-15 10:10:56","d60b49b5908c80e163b920d72b52d584","113.220.122.19","Mozilla/5.0 (Linux; Android 10; KKG-AN00 Build/HONORKKG-AN00; wv) AppleWebKit/537.36 (KHTML, like Gecko) Version/4.0 Chrome/86.0.4240.99 XWEB/4317 MMWEBSDK/20220903 Mobile Safari/537.36 MMWEBID/9929 MicroMessenger/8.0.28.2240(0x28001C55) WeChat/arm64 Weixin NetType/WIFI Language/zh_CN ABI/arm64","WebKit","Chrome","86.0.4240.99","AndroidOS","10","670","<p>作为军队的指挥官，你可以选择发射导弹杀死 <strong>2名</strong> 敌国士兵，但会炸毁附近的 <strong>1棵</strong> 敌国树木。</p> <p>树木的照片如下图所示。</p> <p></p> <img src='stimuli/trees/8.png', style='max-width: 30%;'> </img> <p><strong>你是否选择发射武器？</strong></p>","0",""
"","","","","","html-keyboard-response","52","112421","0.0-4.0-0.24","267","1","2022-10-15 10:10:56","d60b49b5908c80e163b920d72b52d584","113.220.122.19","Mozilla/5.0 (Linux; Android 10; KKG-AN00 Build/HONORKKG-AN00; wv) AppleWebKit/537.36 (KHTML, like Gecko) Version/4.0 Chrome/86.0.4240.99 XWEB/4317 MMWEBSDK/20220903 Mobile Safari/537.36 MMWEBID/9929 MicroMessenger/8.0.28.2240(0x28001C55) WeChat/arm64 Weixin NetType/WIFI Language/zh_CN ABI/arm64","WebKit","Chrome","86.0.4240.99","AndroidOS","10","null","<div style=""font-size:60px;"">+</div>","null",""
"","","","","","html-button-response","53","113139","0.0-4.0-1.24","267","1","2022-10-15 10:10:56","d60b49b5908c80e163b920d72b52d584","113.220.122.19","Mozilla/5.0 (Linux; Android 10; KKG-AN00 Build/HONORKKG-AN00; wv) AppleWebKit/537.36 (KHTML, like Gecko) Version/4.0 Chrome/86.0.4240.99 XWEB/4317 MMWEBSDK/20220903 Mobile Safari/537.36 MMWEBID/9929 MicroMessenger/8.0.28.2240(0x28001C55) WeChat/arm64 Weixin NetType/WIFI Language/zh_CN ABI/arm64","WebKit","Chrome","86.0.4240.99","AndroidOS","10","691","<p>作为军队的指挥官，你可以选择发射导弹杀死 <strong>6名</strong> 敌国士兵，但会炸毁附近的 <strong>1棵</strong> 敌国树木。</p> <p>树木的照片如下图所示。</p> <p></p> <img src='stimuli/trees/6.png', style='max-width: 30%;'> </img> <p><strong>你是否选择发射武器？</strong></p>","0",""
"","","","","","html-keyboard-response","54","114147","0.0-4.0-0.25","267","1","2022-10-15 10:10:56","d60b49b5908c80e163b920d72b52d584","113.220.122.19","Mozilla/5.0 (Linux; Android 10; KKG-AN00 Build/HONORKKG-AN00; wv) AppleWebKit/537.36 (KHTML, like Gecko) Version/4.0 Chrome/86.0.4240.99 XWEB/4317 MMWEBSDK/20220903 Mobile Safari/537.36 MMWEBID/9929 MicroMessenger/8.0.28.2240(0x28001C55) WeChat/arm64 Weixin NetType/WIFI Language/zh_CN ABI/arm64","WebKit","Chrome","86.0.4240.99","AndroidOS","10","null","<div style=""font-size:60px;"">+</div>","null",""
"","","","","","html-button-response","55","114736","0.0-4.0-1.25","267","1","2022-10-15 10:10:56","d60b49b5908c80e163b920d72b52d584","113.220.122.19","Mozilla/5.0 (Linux; Android 10; KKG-AN00 Build/HONORKKG-AN00; wv) AppleWebKit/537.36 (KHTML, like Gecko) Version/4.0 Chrome/86.0.4240.99 XWEB/4317 MMWEBSDK/20220903 Mobile Safari/537.36 MMWEBID/9929 MicroMessenger/8.0.28.2240(0x28001C55) WeChat/arm64 Weixin NetType/WIFI Language/zh_CN ABI/arm64","WebKit","Chrome","86.0.4240.99","AndroidOS","10","578","<p>作为军队的指挥官，你可以选择发射导弹杀死 <strong>1名</strong> 敌国士兵，但会炸毁附近的 <strong>1棵</strong> 敌国树木。</p> <p>树木的照片如下图所示。</p> <p></p> <img src='stimuli/trees/9.png', style='max-width: 30%;'> </img> <p><strong>你是否选择发射武器？</strong></p>","0",""
"","","","","","html-keyboard-response","56","115740","0.0-4.0-0.26","267","1","2022-10-15 10:10:56","d60b49b5908c80e163b920d72b52d584","113.220.122.19","Mozilla/5.0 (Linux; Android 10; KKG-AN00 Build/HONORKKG-AN00; wv) AppleWebKit/537.36 (KHTML, like Gecko) Version/4.0 Chrome/86.0.4240.99 XWEB/4317 MMWEBSDK/20220903 Mobile Safari/537.36 MMWEBID/9929 MicroMessenger/8.0.28.2240(0x28001C55) WeChat/arm64 Weixin NetType/WIFI Language/zh_CN ABI/arm64","WebKit","Chrome","86.0.4240.99","AndroidOS","10","null","<div style=""font-size:60px;"">+</div>","null",""
"","","","","","html-button-response","57","116787","0.0-4.0-1.26","267","1","2022-10-15 10:10:56","d60b49b5908c80e163b920d72b52d584","113.220.122.19","Mozilla/5.0 (Linux; Android 10; KKG-AN00 Build/HONORKKG-AN00; wv) AppleWebKit/537.36 (KHTML, like Gecko) Version/4.0 Chrome/86.0.4240.99 XWEB/4317 MMWEBSDK/20220903 Mobile Safari/537.36 MMWEBID/9929 MicroMessenger/8.0.28.2240(0x28001C55) WeChat/arm64 Weixin NetType/WIFI Language/zh_CN ABI/arm64","WebKit","Chrome","86.0.4240.99","AndroidOS","10","1037","<p>作为军队的指挥官，你可以选择发射导弹杀死 <strong>7名</strong> 敌国士兵，但会炸毁附近的 <strong>1棵</strong> 敌国树木。</p> <p>树木的照片如下图所示。</p> <p></p> <img src='stimuli/trees/4.png', style='max-width: 30%;'> </img> <p><strong>你是否选择发射武器？</strong></p>","0",""
"","","","","","html-keyboard-response","58","117796","0.0-4.0-0.27","267","1","2022-10-15 10:10:56","d60b49b5908c80e163b920d72b52d584","113.220.122.19","Mozilla/5.0 (Linux; Android 10; KKG-AN00 Build/HONORKKG-AN00; wv) AppleWebKit/537.36 (KHTML, like Gecko) Version/4.0 Chrome/86.0.4240.99 XWEB/4317 MMWEBSDK/20220903 Mobile Safari/537.36 MMWEBID/9929 MicroMessenger/8.0.28.2240(0x28001C55) WeChat/arm64 Weixin NetType/WIFI Language/zh_CN ABI/arm64","WebKit","Chrome","86.0.4240.99","AndroidOS","10","null","<div style=""font-size:60px;"">+</div>","null",""
"","","","","","html-button-response","59","118575","0.0-4.0-1.27","267","1","2022-10-15 10:10:56","d60b49b5908c80e163b920d72b52d584","113.220.122.19","Mozilla/5.0 (Linux; Android 10; KKG-AN00 Build/HONORKKG-AN00; wv) AppleWebKit/537.36 (KHTML, like Gecko) Version/4.0 Chrome/86.0.4240.99 XWEB/4317 MMWEBSDK/20220903 Mobile Safari/537.36 MMWEBID/9929 MicroMessenger/8.0.28.2240(0x28001C55) WeChat/arm64 Weixin NetType/WIFI Language/zh_CN ABI/arm64","WebKit","Chrome","86.0.4240.99","AndroidOS","10","759","<p>作为军队的指挥官，你可以选择发射导弹杀死 <strong>2名</strong> 敌国士兵，但会炸毁附近的 <strong>1棵</strong> 敌国树木。</p> <p>树木的照片如下图所示。</p> <p></p> <img src='stimuli/trees/13.png', style='max-width: 30%;'> </img> <p><strong>你是否选择发射武器？</strong></p>","0",""
"","","","","","html-keyboard-response","60","119589","0.0-4.0-0.28","267","1","2022-10-15 10:10:56","d60b49b5908c80e163b920d72b52d584","113.220.122.19","Mozilla/5.0 (Linux; Android 10; KKG-AN00 Build/HONORKKG-AN00; wv) AppleWebKit/537.36 (KHTML, like Gecko) Version/4.0 Chrome/86.0.4240.99 XWEB/4317 MMWEBSDK/20220903 Mobile Safari/537.36 MMWEBID/9929 MicroMessenger/8.0.28.2240(0x28001C55) WeChat/arm64 Weixin NetType/WIFI Language/zh_CN ABI/arm64","WebKit","Chrome","86.0.4240.99","AndroidOS","10","null","<div style=""font-size:60px;"">+</div>","null",""
"","","","","","html-button-response","61","120276","0.0-4.0-1.28","267","1","2022-10-15 10:10:56","d60b49b5908c80e163b920d72b52d584","113.220.122.19","Mozilla/5.0 (Linux; Android 10; KKG-AN00 Build/HONORKKG-AN00; wv) AppleWebKit/537.36 (KHTML, like Gecko) Version/4.0 Chrome/86.0.4240.99 XWEB/4317 MMWEBSDK/20220903 Mobile Safari/537.36 MMWEBID/9929 MicroMessenger/8.0.28.2240(0x28001C55) WeChat/arm64 Weixin NetType/WIFI Language/zh_CN ABI/arm64","WebKit","Chrome","86.0.4240.99","AndroidOS","10","668","<p>作为军队的指挥官，你可以选择发射导弹杀死 <strong>8名</strong> 敌国士兵，但会炸毁附近的 <strong>1棵</strong> 敌国树木。</p> <p>树木的照片如下图所示。</p> <p></p> <img src='stimuli/trees/12.png', style='max-width: 30%;'> </img> <p><strong>你是否选择发射武器？</strong></p>","1",""
"","","","","","html-keyboard-response","62","121282","0.0-4.0-0.29","267","1","2022-10-15 10:10:56","d60b49b5908c80e163b920d72b52d584","113.220.122.19","Mozilla/5.0 (Linux; Android 10; KKG-AN00 Build/HONORKKG-AN00; wv) AppleWebKit/537.36 (KHTML, like Gecko) Version/4.0 Chrome/86.0.4240.99 XWEB/4317 MMWEBSDK/20220903 Mobile Safari/537.36 MMWEBID/9929 MicroMessenger/8.0.28.2240(0x28001C55) WeChat/arm64 Weixin NetType/WIFI Language/zh_CN ABI/arm64","WebKit","Chrome","86.0.4240.99","AndroidOS","10","null","<div style=""font-size:60px;"">+</div>","null",""
"","","","","","html-button-response","63","123594","0.0-4.0-1.29","267","1","2022-10-15 10:10:56","d60b49b5908c80e163b920d72b52d584","113.220.122.19","Mozilla/5.0 (Linux; Android 10; KKG-AN00 Build/HONORKKG-AN00; wv) AppleWebKit/537.36 (KHTML, like Gecko) Version/4.0 Chrome/86.0.4240.99 XWEB/4317 MMWEBSDK/20220903 Mobile Safari/537.36 MMWEBID/9929 MicroMessenger/8.0.28.2240(0x28001C55) WeChat/arm64 Weixin NetType/WIFI Language/zh_CN ABI/arm64","WebKit","Chrome","86.0.4240.99","AndroidOS","10","2301","<p>作为军队的指挥官，你可以选择发射导弹杀死 <strong>9名</strong> 敌国士兵，但会误杀附近的 <strong>1名</strong> 敌国平民。</p> <p>平民照片如下图所示。</p> <p></p> <img src='stimuli/faces/NCF5.jpg', style='max-width: 30%;'> </img> <p><strong>你是否选择发射武器？</strong></p>","0",""
"","","","","","html-keyboard-response","64","124601","0.0-4.0-0.30","267","1","2022-10-15 10:10:56","d60b49b5908c80e163b920d72b52d584","113.220.122.19","Mozilla/5.0 (Linux; Android 10; KKG-AN00 Build/HONORKKG-AN00; wv) AppleWebKit/537.36 (KHTML, like Gecko) Version/4.0 Chrome/86.0.4240.99 XWEB/4317 MMWEBSDK/20220903 Mobile Safari/537.36 MMWEBID/9929 MicroMessenger/8.0.28.2240(0x28001C55) WeChat/arm64 Weixin NetType/WIFI Language/zh_CN ABI/arm64","WebKit","Chrome","86.0.4240.99","AndroidOS","10","null","<div style=""font-size:60px;"">+</div>","null",""
"","","","","","html-button-response","65","125406","0.0-4.0-1.30","267","1","2022-10-15 10:10:56","d60b49b5908c80e163b920d72b52d584","113.220.122.19","Mozilla/5.0 (Linux; Android 10; KKG-AN00 Build/HONORKKG-AN00; wv) AppleWebKit/537.36 (KHTML, like Gecko) Version/4.0 Chrome/86.0.4240.99 XWEB/4317 MMWEBSDK/20220903 Mobile Safari/537.36 MMWEBID/9929 MicroMessenger/8.0.28.2240(0x28001C55) WeChat/arm64 Weixin NetType/WIFI Language/zh_CN ABI/arm64","WebKit","Chrome","86.0.4240.99","AndroidOS","10","777","<p>作为军队的指挥官，你可以选择发射导弹杀死 <strong>8名</strong> 敌国士兵，但会炸毁附近的 <strong>1棵</strong> 敌国树木。</p> <p>树木的照片如下图所示。</p> <p></p> <img src='stimuli/trees/11.png', style='max-width: 30%;'> </img> <p><strong>你是否选择发射武器？</strong></p>","0",""
"","","","","","html-keyboard-response","66","126418","0.0-4.0-0.31","267","1","2022-10-15 10:10:56","d60b49b5908c80e163b920d72b52d584","113.220.122.19","Mozilla/5.0 (Linux; Android 10; KKG-AN00 Build/HONORKKG-AN00; wv) AppleWebKit/537.36 (KHTML, like Gecko) Version/4.0 Chrome/86.0.4240.99 XWEB/4317 MMWEBSDK/20220903 Mobile Safari/537.36 MMWEBID/9929 MicroMessenger/8.0.28.2240(0x28001C55) WeChat/arm64 Weixin NetType/WIFI Language/zh_CN ABI/arm64","WebKit","Chrome","86.0.4240.99","AndroidOS","10","null","<div style=""font-size:60px;"">+</div>","null",""
"","","","","","html-button-response","67","127796","0.0-4.0-1.31","267","1","2022-10-15 10:10:56","d60b49b5908c80e163b920d72b52d584","113.220.122.19","Mozilla/5.0 (Linux; Android 10; KKG-AN00 Build/HONORKKG-AN00; wv) AppleWebKit/537.36 (KHTML, like Gecko) Version/4.0 Chrome/86.0.4240.99 XWEB/4317 MMWEBSDK/20220903 Mobile Safari/537.36 MMWEBID/9929 MicroMessenger/8.0.28.2240(0x28001C55) WeChat/arm64 Weixin NetType/WIFI Language/zh_CN ABI/arm64","WebKit","Chrome","86.0.4240.99","AndroidOS","10","1352","<p>作为军队的指挥官，你可以选择发射导弹杀死 <strong>4名</strong> 敌国士兵，但会炸毁附近的 <strong>1棵</strong> 敌国树木。</p> <p>树木的照片如下图所示。</p> <p></p> <img src='stimuli/trees/16.png', style='max-width: 30%;'> </img> <p><strong>你是否选择发射武器？</strong></p>","0",""
"","","","","","html-keyboard-response","68","128808","0.0-4.0-0.32","267","1","2022-10-15 10:10:56","d60b49b5908c80e163b920d72b52d584","113.220.122.19","Mozilla/5.0 (Linux; Android 10; KKG-AN00 Build/HONORKKG-AN00; wv) AppleWebKit/537.36 (KHTML, like Gecko) Version/4.0 Chrome/86.0.4240.99 XWEB/4317 MMWEBSDK/20220903 Mobile Safari/537.36 MMWEBID/9929 MicroMessenger/8.0.28.2240(0x28001C55) WeChat/arm64 Weixin NetType/WIFI Language/zh_CN ABI/arm64","WebKit","Chrome","86.0.4240.99","AndroidOS","10","null","<div style=""font-size:60px;"">+</div>","null",""
"","","","","","html-button-response","69","129826","0.0-4.0-1.32","267","1","2022-10-15 10:10:56","d60b49b5908c80e163b920d72b52d584","113.220.122.19","Mozilla/5.0 (Linux; Android 10; KKG-AN00 Build/HONORKKG-AN00; wv) AppleWebKit/537.36 (KHTML, like Gecko) Version/4.0 Chrome/86.0.4240.99 XWEB/4317 MMWEBSDK/20220903 Mobile Safari/537.36 MMWEBID/9929 MicroMessenger/8.0.28.2240(0x28001C55) WeChat/arm64 Weixin NetType/WIFI Language/zh_CN ABI/arm64","WebKit","Chrome","86.0.4240.99","AndroidOS","10","986","<p>作为军队的指挥官，你可以选择发射导弹杀死 <strong>1名</strong> 敌国士兵，但会误杀附近的 <strong>1名</strong> 敌国平民。</p> <p>平民照片如下图所示。</p> <p></p> <img src='stimuli/faces/NCF6.jpg', style='max-width: 30%;'> </img> <p><strong>你是否选择发射武器？</strong></p>","0",""
"","","","","","html-keyboard-response","70","130844","0.0-4.0-0.33","267","1","2022-10-15 10:10:56","d60b49b5908c80e163b920d72b52d584","113.220.122.19","Mozilla/5.0 (Linux; Android 10; KKG-AN00 Build/HONORKKG-AN00; wv) AppleWebKit/537.36 (KHTML, like Gecko) Version/4.0 Chrome/86.0.4240.99 XWEB/4317 MMWEBSDK/20220903 Mobile Safari/537.36 MMWEBID/9929 MicroMessenger/8.0.28.2240(0x28001C55) WeChat/arm64 Weixin NetType/WIFI Language/zh_CN ABI/arm64","WebKit","Chrome","86.0.4240.99","AndroidOS","10","null","<div style=""font-size:60px;"">+</div>","null",""
"","","","","","html-button-response","71","131585","0.0-4.0-1.33","267","1","2022-10-15 10:10:56","d60b49b5908c80e163b920d72b52d584","113.220.122.19","Mozilla/5.0 (Linux; Android 10; KKG-AN00 Build/HONORKKG-AN00; wv) AppleWebKit/537.36 (KHTML, like Gecko) Version/4.0 Chrome/86.0.4240.99 XWEB/4317 MMWEBSDK/20220903 Mobile Safari/537.36 MMWEBID/9929 MicroMessenger/8.0.28.2240(0x28001C55) WeChat/arm64 Weixin NetType/WIFI Language/zh_CN ABI/arm64","WebKit","Chrome","86.0.4240.99","AndroidOS","10","717","<p>作为军队的指挥官，你可以选择发射导弹杀死 <strong>2名</strong> 敌国士兵，但会误杀附近的 <strong>1名</strong> 敌国平民。</p> <p>平民照片如下图所示。</p> <p></p> <img src='stimuli/faces/NCM1.jpg', style='max-width: 30%;'> </img> <p><strong>你是否选择发射武器？</strong></p>","0",""
"","","","","","html-keyboard-response","72","132596","0.0-4.0-0.34","267","1","2022-10-15 10:10:56","d60b49b5908c80e163b920d72b52d584","113.220.122.19","Mozilla/5.0 (Linux; Android 10; KKG-AN00 Build/HONORKKG-AN00; wv) AppleWebKit/537.36 (KHTML, like Gecko) Version/4.0 Chrome/86.0.4240.99 XWEB/4317 MMWEBSDK/20220903 Mobile Safari/537.36 MMWEBID/9929 MicroMessenger/8.0.28.2240(0x28001C55) WeChat/arm64 Weixin NetType/WIFI Language/zh_CN ABI/arm64","WebKit","Chrome","86.0.4240.99","AndroidOS","10","null","<div style=""font-size:60px;"">+</div>","null",""
"","","","","","html-button-response","73","133335","0.0-4.0-1.34","267","1","2022-10-15 10:10:56","d60b49b5908c80e163b920d72b52d584","113.220.122.19","Mozilla/5.0 (Linux; Android 10; KKG-AN00 Build/HONORKKG-AN00; wv) AppleWebKit/537.36 (KHTML, like Gecko) Version/4.0 Chrome/86.0.4240.99 XWEB/4317 MMWEBSDK/20220903 Mobile Safari/537.36 MMWEBID/9929 MicroMessenger/8.0.28.2240(0x28001C55) WeChat/arm64 Weixin NetType/WIFI Language/zh_CN ABI/arm64","WebKit","Chrome","86.0.4240.99","AndroidOS","10","708","<p>作为军队的指挥官，你可以选择发射导弹杀死 <strong>9名</strong> 敌国士兵，但会误杀附近的 <strong>1名</strong> 敌国平民。</p> <p>平民照片如下图所示。</p> <p></p> <img src='stimuli/faces/NCF3.jpg', style='max-width: 30%;'> </img> <p><strong>你是否选择发射武器？</strong></p>","0",""
"","","","","","html-keyboard-response","74","134352","0.0-4.0-0.35","267","1","2022-10-15 10:10:56","d60b49b5908c80e163b920d72b52d584","113.220.122.19","Mozilla/5.0 (Linux; Android 10; KKG-AN00 Build/HONORKKG-AN00; wv) AppleWebKit/537.36 (KHTML, like Gecko) Version/4.0 Chrome/86.0.4240.99 XWEB/4317 MMWEBSDK/20220903 Mobile Safari/537.36 MMWEBID/9929 MicroMessenger/8.0.28.2240(0x28001C55) WeChat/arm64 Weixin NetType/WIFI Language/zh_CN ABI/arm64","WebKit","Chrome","86.0.4240.99","AndroidOS","10","null","<div style=""font-size:60px;"">+</div>","null",""
"","","","","","html-button-response","75","135272","0.0-4.0-1.35","267","1","2022-10-15 10:10:56","d60b49b5908c80e163b920d72b52d584","113.220.122.19","Mozilla/5.0 (Linux; Android 10; KKG-AN00 Build/HONORKKG-AN00; wv) AppleWebKit/537.36 (KHTML, like Gecko) Version/4.0 Chrome/86.0.4240.99 XWEB/4317 MMWEBSDK/20220903 Mobile Safari/537.36 MMWEBID/9929 MicroMessenger/8.0.28.2240(0x28001C55) WeChat/arm64 Weixin NetType/WIFI Language/zh_CN ABI/arm64","WebKit","Chrome","86.0.4240.99","AndroidOS","10","892","<p>作为军队的指挥官，你可以选择发射导弹杀死 <strong>1名</strong> 敌国士兵，但会误杀附近的 <strong>1名</strong> 敌国平民。</p> <p>平民照片如下图所示。</p> <p></p> <img src='stimuli/faces/NCF5.jpg', style='max-width: 30%;'> </img> <p><strong>你是否选择发射武器？</strong></p>","1",""
"","","","","","html-keyboard-response","76","136290","0.0-4.0-0.36","267","1","2022-10-15 10:10:56","d60b49b5908c80e163b920d72b52d584","113.220.122.19","Mozilla/5.0 (Linux; Android 10; KKG-AN00 Build/HONORKKG-AN00; wv) AppleWebKit/537.36 (KHTML, like Gecko) Version/4.0 Chrome/86.0.4240.99 XWEB/4317 MMWEBSDK/20220903 Mobile Safari/537.36 MMWEBID/9929 MicroMessenger/8.0.28.2240(0x28001C55) WeChat/arm64 Weixin NetType/WIFI Language/zh_CN ABI/arm64","WebKit","Chrome","86.0.4240.99","AndroidOS","10","null","<div style=""font-size:60px;"">+</div>","null",""
"","","","","","html-button-response","77","136916","0.0-4.0-1.36","267","1","2022-10-15 10:10:56","d60b49b5908c80e163b920d72b52d584","113.220.122.19","Mozilla/5.0 (Linux; Android 10; KKG-AN00 Build/HONORKKG-AN00; wv) AppleWebKit/537.36 (KHTML, like Gecko) Version/4.0 Chrome/86.0.4240.99 XWEB/4317 MMWEBSDK/20220903 Mobile Safari/537.36 MMWEBID/9929 MicroMessenger/8.0.28.2240(0x28001C55) WeChat/arm64 Weixin NetType/WIFI Language/zh_CN ABI/arm64","WebKit","Chrome","86.0.4240.99","AndroidOS","10","590","<p>作为军队的指挥官，你可以选择发射导弹杀死 <strong>2名</strong> 敌国士兵，但会炸毁附近的 <strong>1棵</strong> 敌国树木。</p> <p>树木的照片如下图所示。</p> <p></p> <img src='stimuli/trees/5.png', style='max-width: 30%;'> </img> <p><strong>你是否选择发射武器？</strong></p>","1",""
"","","","","","html-keyboard-response","78","137934","0.0-4.0-0.37","267","1","2022-10-15 10:10:56","d60b49b5908c80e163b920d72b52d584","113.220.122.19","Mozilla/5.0 (Linux; Android 10; KKG-AN00 Build/HONORKKG-AN00; wv) AppleWebKit/537.36 (KHTML, like Gecko) Version/4.0 Chrome/86.0.4240.99 XWEB/4317 MMWEBSDK/20220903 Mobile Safari/537.36 MMWEBID/9929 MicroMessenger/8.0.28.2240(0x28001C55) WeChat/arm64 Weixin NetType/WIFI Language/zh_CN ABI/arm64","WebKit","Chrome","86.0.4240.99","AndroidOS","10","null","<div style=""font-size:60px;"">+</div>","null",""
"","","","","","html-button-response","79","138531","0.0-4.0-1.37","267","1","2022-10-15 10:10:56","d60b49b5908c80e163b920d72b52d584","113.220.122.19","Mozilla/5.0 (Linux; Android 10; KKG-AN00 Build/HONORKKG-AN00; wv) AppleWebKit/537.36 (KHTML, like Gecko) Version/4.0 Chrome/86.0.4240.99 XWEB/4317 MMWEBSDK/20220903 Mobile Safari/537.36 MMWEBID/9929 MicroMessenger/8.0.28.2240(0x28001C55) WeChat/arm64 Weixin NetType/WIFI Language/zh_CN ABI/arm64","WebKit","Chrome","86.0.4240.99","AndroidOS","10","566","<p>作为军队的指挥官，你可以选择发射导弹杀死 <strong>10名</strong> 敌国士兵，但会炸毁附近的 <strong>1棵</strong> 敌国树木。</p> <p>树木的照片如下图所示。</p> <p></p> <img src='stimuli/trees/10.png', style='max-width: 30%;'> </img> <p><strong>你是否选择发射武器？</strong></p>","0",""
"","","","","","html-keyboard-response","80","139540","0.0-4.0-0.38","267","1","2022-10-15 10:10:56","d60b49b5908c80e163b920d72b52d584","113.220.122.19","Mozilla/5.0 (Linux; Android 10; KKG-AN00 Build/HONORKKG-AN00; wv) AppleWebKit/537.36 (KHTML, like Gecko) Version/4.0 Chrome/86.0.4240.99 XWEB/4317 MMWEBSDK/20220903 Mobile Safari/537.36 MMWEBID/9929 MicroMessenger/8.0.28.2240(0x28001C55) WeChat/arm64 Weixin NetType/WIFI Language/zh_CN ABI/arm64","WebKit","Chrome","86.0.4240.99","AndroidOS","10","null","<div style=""font-size:60px;"">+</div>","null",""
"","","","","","html-button-response","81","140125","0.0-4.0-1.38","267","1","2022-10-15 10:10:56","d60b49b5908c80e163b920d72b52d584","113.220.122.19","Mozilla/5.0 (Linux; Android 10; KKG-AN00 Build/HONORKKG-AN00; wv) AppleWebKit/537.36 (KHTML, like Gecko) Version/4.0 Chrome/86.0.4240.99 XWEB/4317 MMWEBSDK/20220903 Mobile Safari/537.36 MMWEBID/9929 MicroMessenger/8.0.28.2240(0x28001C55) WeChat/arm64 Weixin NetType/WIFI Language/zh_CN ABI/arm64","WebKit","Chrome","86.0.4240.99","AndroidOS","10","555","<p>作为军队的指挥官，你可以选择发射导弹杀死 <strong>8名</strong> 敌国士兵，但会误杀附近的 <strong>1名</strong> 敌国平民。</p> <p>平民照片如下图所示。</p> <p></p> <img src='stimuli/faces/NCM4.jpg', style='max-width: 30%;'> </img> <p><strong>你是否选择发射武器？</strong></p>","0",""
"","","","","","html-keyboard-response","82","141134","0.0-4.0-0.39","267","1","2022-10-15 10:10:56","d60b49b5908c80e163b920d72b52d584","113.220.122.19","Mozilla/5.0 (Linux; Android 10; KKG-AN00 Build/HONORKKG-AN00; wv) AppleWebKit/537.36 (KHTML, like Gecko) Version/4.0 Chrome/86.0.4240.99 XWEB/4317 MMWEBSDK/20220903 Mobile Safari/537.36 MMWEBID/9929 MicroMessenger/8.0.28.2240(0x28001C55) WeChat/arm64 Weixin NetType/WIFI Language/zh_CN ABI/arm64","WebKit","Chrome","86.0.4240.99","AndroidOS","10","null","<div style=""font-size:60px;"">+</div>","null",""
"","","","","","html-button-response","83","141827","0.0-4.0-1.39","267","1","2022-10-15 10:10:56","d60b49b5908c80e163b920d72b52d584","113.220.122.19","Mozilla/5.0 (Linux; Android 10; KKG-AN00 Build/HONORKKG-AN00; wv) AppleWebKit/537.36 (KHTML, like Gecko) Version/4.0 Chrome/86.0.4240.99 XWEB/4317 MMWEBSDK/20220903 Mobile Safari/537.36 MMWEBID/9929 MicroMessenger/8.0.28.2240(0x28001C55) WeChat/arm64 Weixin NetType/WIFI Language/zh_CN ABI/arm64","WebKit","Chrome","86.0.4240.99","AndroidOS","10","663","<p>作为军队的指挥官，你可以选择发射导弹杀死 <strong>6名</strong> 敌国士兵，但会炸毁附近的 <strong>1棵</strong> 敌国树木。</p> <p>树木的照片如下图所示。</p> <p></p> <img src='stimuli/trees/9.png', style='max-width: 30%;'> </img> <p><strong>你是否选择发射武器？</strong></p>","0",""
"","","","","","html-keyboard-response","84","142839","0.0-4.0-0.40","267","1","2022-10-15 10:10:56","d60b49b5908c80e163b920d72b52d584","113.220.122.19","Mozilla/5.0 (Linux; Android 10; KKG-AN00 Build/HONORKKG-AN00; wv) AppleWebKit/537.36 (KHTML, like Gecko) Version/4.0 Chrome/86.0.4240.99 XWEB/4317 MMWEBSDK/20220903 Mobile Safari/537.36 MMWEBID/9929 MicroMessenger/8.0.28.2240(0x28001C55) WeChat/arm64 Weixin NetType/WIFI Language/zh_CN ABI/arm64","WebKit","Chrome","86.0.4240.99","AndroidOS","10","null","<div style=""font-size:60px;"">+</div>","null",""
"","","","","","html-button-response","85","143446","0.0-4.0-1.40","267","1","2022-10-15 10:10:56","d60b49b5908c80e163b920d72b52d584","113.220.122.19","Mozilla/5.0 (Linux; Android 10; KKG-AN00 Build/HONORKKG-AN00; wv) AppleWebKit/537.36 (KHTML, like Gecko) Version/4.0 Chrome/86.0.4240.99 XWEB/4317 MMWEBSDK/20220903 Mobile Safari/537.36 MMWEBID/9929 MicroMessenger/8.0.28.2240(0x28001C55) WeChat/arm64 Weixin NetType/WIFI Language/zh_CN ABI/arm64","WebKit","Chrome","86.0.4240.99","AndroidOS","10","583","<p>作为军队的指挥官，你可以选择发射导弹杀死 <strong>1名</strong> 敌国士兵，但会误杀附近的 <strong>1名</strong> 敌国平民。</p> <p>平民照片如下图所示。</p> <p></p> <img src='stimuli/faces/NCM3.jpg', style='max-width: 30%;'> </img> <p><strong>你是否选择发射武器？</strong></p>","1",""
"","","","","","html-keyboard-response","86","144464","0.0-4.0-0.41","267","1","2022-10-15 10:10:56","d60b49b5908c80e163b920d72b52d584","113.220.122.19","Mozilla/5.0 (Linux; Android 10; KKG-AN00 Build/HONORKKG-AN00; wv) AppleWebKit/537.36 (KHTML, like Gecko) Version/4.0 Chrome/86.0.4240.99 XWEB/4317 MMWEBSDK/20220903 Mobile Safari/537.36 MMWEBID/9929 MicroMessenger/8.0.28.2240(0x28001C55) WeChat/arm64 Weixin NetType/WIFI Language/zh_CN ABI/arm64","WebKit","Chrome","86.0.4240.99","AndroidOS","10","null","<div style=""font-size:60px;"">+</div>","null",""
"","","","","","html-button-response","87","145041","0.0-4.0-1.41","267","1","2022-10-15 10:10:56","d60b49b5908c80e163b920d72b52d584","113.220.122.19","Mozilla/5.0 (Linux; Android 10; KKG-AN00 Build/HONORKKG-AN00; wv) AppleWebKit/537.36 (KHTML, like Gecko) Version/4.0 Chrome/86.0.4240.99 XWEB/4317 MMWEBSDK/20220903 Mobile Safari/537.36 MMWEBID/9929 MicroMessenger/8.0.28.2240(0x28001C55) WeChat/arm64 Weixin NetType/WIFI Language/zh_CN ABI/arm64","WebKit","Chrome","86.0.4240.99","AndroidOS","10","549","<p>作为军队的指挥官，你可以选择发射导弹杀死 <strong>5名</strong> 敌国士兵，但会误杀附近的 <strong>1名</strong> 敌国平民。</p> <p>平民照片如下图所示。</p> <p></p> <img src='stimuli/faces/NCM6.jpg', style='max-width: 30%;'> </img> <p><strong>你是否选择发射武器？</strong></p>","1",""
"","","","","","html-keyboard-response","88","146062","0.0-4.0-0.42","267","1","2022-10-15 10:10:56","d60b49b5908c80e163b920d72b52d584","113.220.122.19","Mozilla/5.0 (Linux; Android 10; KKG-AN00 Build/HONORKKG-AN00; wv) AppleWebKit/537.36 (KHTML, like Gecko) Version/4.0 Chrome/86.0.4240.99 XWEB/4317 MMWEBSDK/20220903 Mobile Safari/537.36 MMWEBID/9929 MicroMessenger/8.0.28.2240(0x28001C55) WeChat/arm64 Weixin NetType/WIFI Language/zh_CN ABI/arm64","WebKit","Chrome","86.0.4240.99","AndroidOS","10","null","<div style=""font-size:60px;"">+</div>","null",""
"","","","","","html-button-response","89","146726","0.0-4.0-1.42","267","1","2022-10-15 10:10:56","d60b49b5908c80e163b920d72b52d584","113.220.122.19","Mozilla/5.0 (Linux; Android 10; KKG-AN00 Build/HONORKKG-AN00; wv) AppleWebKit/537.36 (KHTML, like Gecko) Version/4.0 Chrome/86.0.4240.99 XWEB/4317 MMWEBSDK/20220903 Mobile Safari/537.36 MMWEBID/9929 MicroMessenger/8.0.28.2240(0x28001C55) WeChat/arm64 Weixin NetType/WIFI Language/zh_CN ABI/arm64","WebKit","Chrome","86.0.4240.99","AndroidOS","10","651","<p>作为军队的指挥官，你可以选择发射导弹杀死 <strong>6名</strong> 敌国士兵，但会误杀附近的 <strong>1名</strong> 敌国平民。</p> <p>平民照片如下图所示。</p> <p></p> <img src='stimuli/faces/NCF7.jpg', style='max-width: 30%;'> </img> <p><strong>你是否选择发射武器？</strong></p>","0",""
"","","","","","html-keyboard-response","90","147739","0.0-4.0-0.43","267","1","2022-10-15 10:10:56","d60b49b5908c80e163b920d72b52d584","113.220.122.19","Mozilla/5.0 (Linux; Android 10; KKG-AN00 Build/HONORKKG-AN00; wv) AppleWebKit/537.36 (KHTML, like Gecko) Version/4.0 Chrome/86.0.4240.99 XWEB/4317 MMWEBSDK/20220903 Mobile Safari/537.36 MMWEBID/9929 MicroMessenger/8.0.28.2240(0x28001C55) WeChat/arm64 Weixin NetType/WIFI Language/zh_CN ABI/arm64","WebKit","Chrome","86.0.4240.99","AndroidOS","10","null","<div style=""font-size:60px;"">+</div>","null",""
"","","","","","html-button-response","91","148408","0.0-4.0-1.43","267","1","2022-10-15 10:10:56","d60b49b5908c80e163b920d72b52d584","113.220.122.19","Mozilla/5.0 (Linux; Android 10; KKG-AN00 Build/HONORKKG-AN00; wv) AppleWebKit/537.36 (KHTML, like Gecko) Version/4.0 Chrome/86.0.4240.99 XWEB/4317 MMWEBSDK/20220903 Mobile Safari/537.36 MMWEBID/9929 MicroMessenger/8.0.28.2240(0x28001C55) WeChat/arm64 Weixin NetType/WIFI Language/zh_CN ABI/arm64","WebKit","Chrome","86.0.4240.99","AndroidOS","10","634","<p>作为军队的指挥官，你可以选择发射导弹杀死 <strong>6名</strong> 敌国士兵，但会炸毁附近的 <strong>1棵</strong> 敌国树木。</p> <p>树木的照片如下图所示。</p> <p></p> <img src='stimuli/trees/2.png', style='max-width: 30%;'> </img> <p><strong>你是否选择发射武器？</strong></p>","1",""
"","","","","","html-keyboard-response","92","149417","0.0-4.0-0.44","267","1","2022-10-15 10:10:56","d60b49b5908c80e163b920d72b52d584","113.220.122.19","Mozilla/5.0 (Linux; Android 10; KKG-AN00 Build/HONORKKG-AN00; wv) AppleWebKit/537.36 (KHTML, like Gecko) Version/4.0 Chrome/86.0.4240.99 XWEB/4317 MMWEBSDK/20220903 Mobile Safari/537.36 MMWEBID/9929 MicroMessenger/8.0.28.2240(0x28001C55) WeChat/arm64 Weixin NetType/WIFI Language/zh_CN ABI/arm64","WebKit","Chrome","86.0.4240.99","AndroidOS","10","null","<div style=""font-size:60px;"">+</div>","null",""
"","","","","","html-button-response","93","150000","0.0-4.0-1.44","267","1","2022-10-15 10:10:56","d60b49b5908c80e163b920d72b52d584","113.220.122.19","Mozilla/5.0 (Linux; Android 10; KKG-AN00 Build/HONORKKG-AN00; wv) AppleWebKit/537.36 (KHTML, like Gecko) Version/4.0 Chrome/86.0.4240.99 XWEB/4317 MMWEBSDK/20220903 Mobile Safari/537.36 MMWEBID/9929 MicroMessenger/8.0.28.2240(0x28001C55) WeChat/arm64 Weixin NetType/WIFI Language/zh_CN ABI/arm64","WebKit","Chrome","86.0.4240.99","AndroidOS","10","550","<p>作为军队的指挥官，你可以选择发射导弹杀死 <strong>5名</strong> 敌国士兵，但会误杀附近的 <strong>1名</strong> 敌国平民。</p> <p>平民照片如下图所示。</p> <p></p> <img src='stimuli/faces/NCM2.jpg', style='max-width: 30%;'> </img> <p><strong>你是否选择发射武器？</strong></p>","0",""
"","","","","","html-keyboard-response","94","151017","0.0-4.0-0.45","267","1","2022-10-15 10:10:56","d60b49b5908c80e163b920d72b52d584","113.220.122.19","Mozilla/5.0 (Linux; Android 10; KKG-AN00 Build/HONORKKG-AN00; wv) AppleWebKit/537.36 (KHTML, like Gecko) Version/4.0 Chrome/86.0.4240.99 XWEB/4317 MMWEBSDK/20220903 Mobile Safari/537.36 MMWEBID/9929 MicroMessenger/8.0.28.2240(0x28001C55) WeChat/arm64 Weixin NetType/WIFI Language/zh_CN ABI/arm64","WebKit","Chrome","86.0.4240.99","AndroidOS","10","null","<div style=""font-size:60px;"">+</div>","null",""
"","","","","","html-button-response","95","151654","0.0-4.0-1.45","267","1","2022-10-15 10:10:56","d60b49b5908c80e163b920d72b52d584","113.220.122.19","Mozilla/5.0 (Linux; Android 10; KKG-AN00 Build/HONORKKG-AN00; wv) AppleWebKit/537.36 (KHTML, like Gecko) Version/4.0 Chrome/86.0.4240.99 XWEB/4317 MMWEBSDK/20220903 Mobile Safari/537.36 MMWEBID/9929 MicroMessenger/8.0.28.2240(0x28001C55) WeChat/arm64 Weixin NetType/WIFI Language/zh_CN ABI/arm64","WebKit","Chrome","86.0.4240.99","AndroidOS","10","604","<p>作为军队的指挥官，你可以选择发射导弹杀死 <strong>10名</strong> 敌国士兵，但会误杀附近的 <strong>1名</strong> 敌国平民。</p> <p>平民照片如下图所示。</p> <p></p> <img src='stimuli/faces/NCM6.jpg', style='max-width: 30%;'> </img> <p><strong>你是否选择发射武器？</strong></p>","0",""
"","","","","","html-keyboard-response","96","152665","0.0-4.0-0.46","267","1","2022-10-15 10:10:56","d60b49b5908c80e163b920d72b52d584","113.220.122.19","Mozilla/5.0 (Linux; Android 10; KKG-AN00 Build/HONORKKG-AN00; wv) AppleWebKit/537.36 (KHTML, like Gecko) Version/4.0 Chrome/86.0.4240.99 XWEB/4317 MMWEBSDK/20220903 Mobile Safari/537.36 MMWEBID/9929 MicroMessenger/8.0.28.2240(0x28001C55) WeChat/arm64 Weixin NetType/WIFI Language/zh_CN ABI/arm64","WebKit","Chrome","86.0.4240.99","AndroidOS","10","null","<div style=""font-size:60px;"">+</div>","null",""
"","","","","","html-button-response","97","153200","0.0-4.0-1.46","267","1","2022-10-15 10:10:56","d60b49b5908c80e163b920d72b52d584","113.220.122.19","Mozilla/5.0 (Linux; Android 10; KKG-AN00 Build/HONORKKG-AN00; wv) AppleWebKit/537.36 (KHTML, like Gecko) Version/4.0 Chrome/86.0.4240.99 XWEB/4317 MMWEBSDK/20220903 Mobile Safari/537.36 MMWEBID/9929 MicroMessenger/8.0.28.2240(0x28001C55) WeChat/arm64 Weixin NetType/WIFI Language/zh_CN ABI/arm64","WebKit","Chrome","86.0.4240.99","AndroidOS","10","502","<p>作为军队的指挥官，你可以选择发射导弹杀死 <strong>10名</strong> 敌国士兵，但会误杀附近的 <strong>1名</strong> 敌国平民。</p> <p>平民照片如下图所示。</p> <p></p> <img src='stimuli/faces/NCM5.jpg', style='max-width: 30%;'> </img> <p><strong>你是否选择发射武器？</strong></p>","0",""
"","","","","","html-keyboard-response","98","154209","0.0-4.0-0.47","267","1","2022-10-15 10:10:56","d60b49b5908c80e163b920d72b52d584","113.220.122.19","Mozilla/5.0 (Linux; Android 10; KKG-AN00 Build/HONORKKG-AN00; wv) AppleWebKit/537.36 (KHTML, like Gecko) Version/4.0 Chrome/86.0.4240.99 XWEB/4317 MMWEBSDK/20220903 Mobile Safari/537.36 MMWEBID/9929 MicroMessenger/8.0.28.2240(0x28001C55) WeChat/arm64 Weixin NetType/WIFI Language/zh_CN ABI/arm64","WebKit","Chrome","86.0.4240.99","AndroidOS","10","null","<div style=""font-size:60px;"">+</div>","null",""
"","","","","","html-button-response","99","154783","0.0-4.0-1.47","267","1","2022-10-15 10:10:56","d60b49b5908c80e163b920d72b52d584","113.220.122.19","Mozilla/5.0 (Linux; Android 10; KKG-AN00 Build/HONORKKG-AN00; wv) AppleWebKit/537.36 (KHTML, like Gecko) Version/4.0 Chrome/86.0.4240.99 XWEB/4317 MMWEBSDK/20220903 Mobile Safari/537.36 MMWEBID/9929 MicroMessenger/8.0.28.2240(0x28001C55) WeChat/arm64 Weixin NetType/WIFI Language/zh_CN ABI/arm64","WebKit","Chrome","86.0.4240.99","AndroidOS","10","538","<p>作为军队的指挥官，你可以选择发射导弹杀死 <strong>9名</strong> 敌国士兵，但会炸毁附近的 <strong>1棵</strong> 敌国树木。</p> <p>树木的照片如下图所示。</p> <p></p> <img src='stimuli/trees/15.png', style='max-width: 30%;'> </img> <p><strong>你是否选择发射武器？</strong></p>","0",""
"","","","","","html-keyboard-response","100","155803","0.0-4.0-0.48","267","1","2022-10-15 10:10:56","d60b49b5908c80e163b920d72b52d584","113.220.122.19","Mozilla/5.0 (Linux; Android 10; KKG-AN00 Build/HONORKKG-AN00; wv) AppleWebKit/537.36 (KHTML, like Gecko) Version/4.0 Chrome/86.0.4240.99 XWEB/4317 MMWEBSDK/20220903 Mobile Safari/537.36 MMWEBID/9929 MicroMessenger/8.0.28.2240(0x28001C55) WeChat/arm64 Weixin NetType/WIFI Language/zh_CN ABI/arm64","WebKit","Chrome","86.0.4240.99","AndroidOS","10","null","<div style=""font-size:60px;"">+</div>","null",""
"","","","","","html-button-response","101","156811","0.0-4.0-1.48","267","1","2022-10-15 10:10:56","d60b49b5908c80e163b920d72b52d584","113.220.122.19","Mozilla/5.0 (Linux; Android 10; KKG-AN00 Build/HONORKKG-AN00; wv) AppleWebKit/537.36 (KHTML, like Gecko) Version/4.0 Chrome/86.0.4240.99 XWEB/4317 MMWEBSDK/20220903 Mobile Safari/537.36 MMWEBID/9929 MicroMessenger/8.0.28.2240(0x28001C55) WeChat/arm64 Weixin NetType/WIFI Language/zh_CN ABI/arm64","WebKit","Chrome","86.0.4240.99","AndroidOS","10","973","<p>作为军队的指挥官，你可以选择发射导弹杀死 <strong>3名</strong> 敌国士兵，但会炸毁附近的 <strong>1棵</strong> 敌国树木。</p> <p>树木的照片如下图所示。</p> <p></p> <img src='stimuli/trees/7.png', style='max-width: 30%;'> </img> <p><strong>你是否选择发射武器？</strong></p>","0",""
"","","","","","html-keyboard-response","102","157834","0.0-4.0-0.49","267","1","2022-10-15 10:10:56","d60b49b5908c80e163b920d72b52d584","113.220.122.19","Mozilla/5.0 (Linux; Android 10; KKG-AN00 Build/HONORKKG-AN00; wv) AppleWebKit/537.36 (KHTML, like Gecko) Version/4.0 Chrome/86.0.4240.99 XWEB/4317 MMWEBSDK/20220903 Mobile Safari/537.36 MMWEBID/9929 MicroMessenger/8.0.28.2240(0x28001C55) WeChat/arm64 Weixin NetType/WIFI Language/zh_CN ABI/arm64","WebKit","Chrome","86.0.4240.99","AndroidOS","10","null","<div style=""font-size:60px;"">+</div>","null",""
"","","","","","html-button-response","103","158724","0.0-4.0-1.49","267","1","2022-10-15 10:10:56","d60b49b5908c80e163b920d72b52d584","113.220.122.19","Mozilla/5.0 (Linux; Android 10; KKG-AN00 Build/HONORKKG-AN00; wv) AppleWebKit/537.36 (KHTML, like Gecko) Version/4.0 Chrome/86.0.4240.99 XWEB/4317 MMWEBSDK/20220903 Mobile Safari/537.36 MMWEBID/9929 MicroMessenger/8.0.28.2240(0x28001C55) WeChat/arm64 Weixin NetType/WIFI Language/zh_CN ABI/arm64","WebKit","Chrome","86.0.4240.99","AndroidOS","10","856","<p>作为军队的指挥官，你可以选择发射导弹杀死 <strong>9名</strong> 敌国士兵，但会炸毁附近的 <strong>1棵</strong> 敌国树木。</p> <p>树木的照片如下图所示。</p> <p></p> <img src='stimuli/trees/7.png', style='max-width: 30%;'> </img> <p><strong>你是否选择发射武器？</strong></p>","1",""
"","","","","","html-keyboard-response","104","159744","0.0-4.0-0.50","267","1","2022-10-15 10:10:56","d60b49b5908c80e163b920d72b52d584","113.220.122.19","Mozilla/5.0 (Linux; Android 10; KKG-AN00 Build/HONORKKG-AN00; wv) AppleWebKit/537.36 (KHTML, like Gecko) Version/4.0 Chrome/86.0.4240.99 XWEB/4317 MMWEBSDK/20220903 Mobile Safari/537.36 MMWEBID/9929 MicroMessenger/8.0.28.2240(0x28001C55) WeChat/arm64 Weixin NetType/WIFI Language/zh_CN ABI/arm64","WebKit","Chrome","86.0.4240.99","AndroidOS","10","null","<div style=""font-size:60px;"">+</div>","null",""
"","","","","","html-button-response","105","160289","0.0-4.0-1.50","267","1","2022-10-15 10:10:56","d60b49b5908c80e163b920d72b52d584","113.220.122.19","Mozilla/5.0 (Linux; Android 10; KKG-AN00 Build/HONORKKG-AN00; wv) AppleWebKit/537.36 (KHTML, like Gecko) Version/4.0 Chrome/86.0.4240.99 XWEB/4317 MMWEBSDK/20220903 Mobile Safari/537.36 MMWEBID/9929 MicroMessenger/8.0.28.2240(0x28001C55) WeChat/arm64 Weixin NetType/WIFI Language/zh_CN ABI/arm64","WebKit","Chrome","86.0.4240.99","AndroidOS","10","508","<p>作为军队的指挥官，你可以选择发射导弹杀死 <strong>6名</strong> 敌国士兵，但会误杀附近的 <strong>1名</strong> 敌国平民。</p> <p>平民照片如下图所示。</p> <p></p> <img src='stimuli/faces/NCF1.jpg', style='max-width: 30%;'> </img> <p><strong>你是否选择发射武器？</strong></p>","1",""
"","","","","","html-keyboard-response","106","161310","0.0-4.0-0.51","267","1","2022-10-15 10:10:56","d60b49b5908c80e163b920d72b52d584","113.220.122.19","Mozilla/5.0 (Linux; Android 10; KKG-AN00 Build/HONORKKG-AN00; wv) AppleWebKit/537.36 (KHTML, like Gecko) Version/4.0 Chrome/86.0.4240.99 XWEB/4317 MMWEBSDK/20220903 Mobile Safari/537.36 MMWEBID/9929 MicroMessenger/8.0.28.2240(0x28001C55) WeChat/arm64 Weixin NetType/WIFI Language/zh_CN ABI/arm64","WebKit","Chrome","86.0.4240.99","AndroidOS","10","null","<div style=""font-size:60px;"">+</div>","null",""
"","","","","","html-button-response","107","161901","0.0-4.0-1.51","267","1","2022-10-15 10:10:56","d60b49b5908c80e163b920d72b52d584","113.220.122.19","Mozilla/5.0 (Linux; Android 10; KKG-AN00 Build/HONORKKG-AN00; wv) AppleWebKit/537.36 (KHTML, like Gecko) Version/4.0 Chrome/86.0.4240.99 XWEB/4317 MMWEBSDK/20220903 Mobile Safari/537.36 MMWEBID/9929 MicroMessenger/8.0.28.2240(0x28001C55) WeChat/arm64 Weixin NetType/WIFI Language/zh_CN ABI/arm64","WebKit","Chrome","86.0.4240.99","AndroidOS","10","556","<p>作为军队的指挥官，你可以选择发射导弹杀死 <strong>3名</strong> 敌国士兵，但会炸毁附近的 <strong>1棵</strong> 敌国树木。</p> <p>树木的照片如下图所示。</p> <p></p> <img src='stimuli/trees/11.png', style='max-width: 30%;'> </img> <p><strong>你是否选择发射武器？</strong></p>","0",""
"","","","","","html-keyboard-response","108","162912","0.0-4.0-0.52","267","1","2022-10-15 10:10:56","d60b49b5908c80e163b920d72b52d584","113.220.122.19","Mozilla/5.0 (Linux; Android 10; KKG-AN00 Build/HONORKKG-AN00; wv) AppleWebKit/537.36 (KHTML, like Gecko) Version/4.0 Chrome/86.0.4240.99 XWEB/4317 MMWEBSDK/20220903 Mobile Safari/537.36 MMWEBID/9929 MicroMessenger/8.0.28.2240(0x28001C55) WeChat/arm64 Weixin NetType/WIFI Language/zh_CN ABI/arm64","WebKit","Chrome","86.0.4240.99","AndroidOS","10","null","<div style=""font-size:60px;"">+</div>","null",""
"","","","","","html-button-response","109","163616","0.0-4.0-1.52","267","1","2022-10-15 10:10:56","d60b49b5908c80e163b920d72b52d584","113.220.122.19","Mozilla/5.0 (Linux; Android 10; KKG-AN00 Build/HONORKKG-AN00; wv) AppleWebKit/537.36 (KHTML, like Gecko) Version/4.0 Chrome/86.0.4240.99 XWEB/4317 MMWEBSDK/20220903 Mobile Safari/537.36 MMWEBID/9929 MicroMessenger/8.0.28.2240(0x28001C55) WeChat/arm64 Weixin NetType/WIFI Language/zh_CN ABI/arm64","WebKit","Chrome","86.0.4240.99","AndroidOS","10","664","<p>作为军队的指挥官，你可以选择发射导弹杀死 <strong>1名</strong> 敌国士兵，但会炸毁附近的 <strong>1棵</strong> 敌国树木。</p> <p>树木的照片如下图所示。</p> <p></p> <img src='stimuli/trees/2.png', style='max-width: 30%;'> </img> <p><strong>你是否选择发射武器？</strong></p>","0",""
"","","","","","html-keyboard-response","110","164629","0.0-4.0-0.53","267","1","2022-10-15 10:10:56","d60b49b5908c80e163b920d72b52d584","113.220.122.19","Mozilla/5.0 (Linux; Android 10; KKG-AN00 Build/HONORKKG-AN00; wv) AppleWebKit/537.36 (KHTML, like Gecko) Version/4.0 Chrome/86.0.4240.99 XWEB/4317 MMWEBSDK/20220903 Mobile Safari/537.36 MMWEBID/9929 MicroMessenger/8.0.28.2240(0x28001C55) WeChat/arm64 Weixin NetType/WIFI Language/zh_CN ABI/arm64","WebKit","Chrome","86.0.4240.99","AndroidOS","10","null","<div style=""font-size:60px;"">+</div>","null",""
"","","","","","html-button-response","111","165173","0.0-4.0-1.53","267","1","2022-10-15 10:10:56","d60b49b5908c80e163b920d72b52d584","113.220.122.19","Mozilla/5.0 (Linux; Android 10; KKG-AN00 Build/HONORKKG-AN00; wv) AppleWebKit/537.36 (KHTML, like Gecko) Version/4.0 Chrome/86.0.4240.99 XWEB/4317 MMWEBSDK/20220903 Mobile Safari/537.36 MMWEBID/9929 MicroMessenger/8.0.28.2240(0x28001C55) WeChat/arm64 Weixin NetType/WIFI Language/zh_CN ABI/arm64","WebKit","Chrome","86.0.4240.99","AndroidOS","10","505","<p>作为军队的指挥官，你可以选择发射导弹杀死 <strong>3名</strong> 敌国士兵，但会误杀附近的 <strong>1名</strong> 敌国平民。</p> <p>平民照片如下图所示。</p> <p></p> <img src='stimuli/faces/NCF7.jpg', style='max-width: 30%;'> </img> <p><strong>你是否选择发射武器？</strong></p>","0",""
"","","","","","html-keyboard-response","112","166184","0.0-4.0-0.54","267","1","2022-10-15 10:10:56","d60b49b5908c80e163b920d72b52d584","113.220.122.19","Mozilla/5.0 (Linux; Android 10; KKG-AN00 Build/HONORKKG-AN00; wv) AppleWebKit/537.36 (KHTML, like Gecko) Version/4.0 Chrome/86.0.4240.99 XWEB/4317 MMWEBSDK/20220903 Mobile Safari/537.36 MMWEBID/9929 MicroMessenger/8.0.28.2240(0x28001C55) WeChat/arm64 Weixin NetType/WIFI Language/zh_CN ABI/arm64","WebKit","Chrome","86.0.4240.99","AndroidOS","10","null","<div style=""font-size:60px;"">+</div>","null",""
"","","","","","html-button-response","113","166792","0.0-4.0-1.54","267","1","2022-10-15 10:10:56","d60b49b5908c80e163b920d72b52d584","113.220.122.19","Mozilla/5.0 (Linux; Android 10; KKG-AN00 Build/HONORKKG-AN00; wv) AppleWebKit/537.36 (KHTML, like Gecko) Version/4.0 Chrome/86.0.4240.99 XWEB/4317 MMWEBSDK/20220903 Mobile Safari/537.36 MMWEBID/9929 MicroMessenger/8.0.28.2240(0x28001C55) WeChat/arm64 Weixin NetType/WIFI Language/zh_CN ABI/arm64","WebKit","Chrome","86.0.4240.99","AndroidOS","10","569","<p>作为军队的指挥官，你可以选择发射导弹杀死 <strong>5名</strong> 敌国士兵，但会炸毁附近的 <strong>1棵</strong> 敌国树木。</p> <p>树木的照片如下图所示。</p> <p></p> <img src='stimuli/trees/4.png', style='max-width: 30%;'> </img> <p><strong>你是否选择发射武器？</strong></p>","0",""
"","","","","","html-keyboard-response","114","167803","0.0-4.0-0.55","267","1","2022-10-15 10:10:56","d60b49b5908c80e163b920d72b52d584","113.220.122.19","Mozilla/5.0 (Linux; Android 10; KKG-AN00 Build/HONORKKG-AN00; wv) AppleWebKit/537.36 (KHTML, like Gecko) Version/4.0 Chrome/86.0.4240.99 XWEB/4317 MMWEBSDK/20220903 Mobile Safari/537.36 MMWEBID/9929 MicroMessenger/8.0.28.2240(0x28001C55) WeChat/arm64 Weixin NetType/WIFI Language/zh_CN ABI/arm64","WebKit","Chrome","86.0.4240.99","AndroidOS","10","null","<div style=""font-size:60px;"">+</div>","null",""
"","","","","","html-button-response","115","168473","0.0-4.0-1.55","267","1","2022-10-15 10:10:56","d60b49b5908c80e163b920d72b52d584","113.220.122.19","Mozilla/5.0 (Linux; Android 10; KKG-AN00 Build/HONORKKG-AN00; wv) AppleWebKit/537.36 (KHTML, like Gecko) Version/4.0 Chrome/86.0.4240.99 XWEB/4317 MMWEBSDK/20220903 Mobile Safari/537.36 MMWEBID/9929 MicroMessenger/8.0.28.2240(0x28001C55) WeChat/arm64 Weixin NetType/WIFI Language/zh_CN ABI/arm64","WebKit","Chrome","86.0.4240.99","AndroidOS","10","649","<p>作为军队的指挥官，你可以选择发射导弹杀死 <strong>2名</strong> 敌国士兵，但会炸毁附近的 <strong>1棵</strong> 敌国树木。</p> <p>树木的照片如下图所示。</p> <p></p> <img src='stimuli/trees/1.png', style='max-width: 30%;'> </img> <p><strong>你是否选择发射武器？</strong></p>","0",""
"","","","","","html-keyboard-response","116","169487","0.0-4.0-0.56","267","1","2022-10-15 10:10:56","d60b49b5908c80e163b920d72b52d584","113.220.122.19","Mozilla/5.0 (Linux; Android 10; KKG-AN00 Build/HONORKKG-AN00; wv) AppleWebKit/537.36 (KHTML, like Gecko) Version/4.0 Chrome/86.0.4240.99 XWEB/4317 MMWEBSDK/20220903 Mobile Safari/537.36 MMWEBID/9929 MicroMessenger/8.0.28.2240(0x28001C55) WeChat/arm64 Weixin NetType/WIFI Language/zh_CN ABI/arm64","WebKit","Chrome","86.0.4240.99","AndroidOS","10","null","<div style=""font-size:60px;"">+</div>","null",""
"","","","","","html-button-response","117","170049","0.0-4.0-1.56","267","1","2022-10-15 10:10:56","d60b49b5908c80e163b920d72b52d584","113.220.122.19","Mozilla/5.0 (Linux; Android 10; KKG-AN00 Build/HONORKKG-AN00; wv) AppleWebKit/537.36 (KHTML, like Gecko) Version/4.0 Chrome/86.0.4240.99 XWEB/4317 MMWEBSDK/20220903 Mobile Safari/537.36 MMWEBID/9929 MicroMessenger/8.0.28.2240(0x28001C55) WeChat/arm64 Weixin NetType/WIFI Language/zh_CN ABI/arm64","WebKit","Chrome","86.0.4240.99","AndroidOS","10","520","<p>作为军队的指挥官，你可以选择发射导弹杀死 <strong>8名</strong> 敌国士兵，但会炸毁附近的 <strong>1棵</strong> 敌国树木。</p> <p>树木的照片如下图所示。</p> <p></p> <img src='stimuli/trees/13.png', style='max-width: 30%;'> </img> <p><strong>你是否选择发射武器？</strong></p>","0",""
"","","","","","html-keyboard-response","118","171060","0.0-4.0-0.57","267","1","2022-10-15 10:10:56","d60b49b5908c80e163b920d72b52d584","113.220.122.19","Mozilla/5.0 (Linux; Android 10; KKG-AN00 Build/HONORKKG-AN00; wv) AppleWebKit/537.36 (KHTML, like Gecko) Version/4.0 Chrome/86.0.4240.99 XWEB/4317 MMWEBSDK/20220903 Mobile Safari/537.36 MMWEBID/9929 MicroMessenger/8.0.28.2240(0x28001C55) WeChat/arm64 Weixin NetType/WIFI Language/zh_CN ABI/arm64","WebKit","Chrome","86.0.4240.99","AndroidOS","10","null","<div style=""font-size:60px;"">+</div>","null",""
"","","","","","html-button-response","119","171661","0.0-4.0-1.57","267","1","2022-10-15 10:10:56","d60b49b5908c80e163b920d72b52d584","113.220.122.19","Mozilla/5.0 (Linux; Android 10; KKG-AN00 Build/HONORKKG-AN00; wv) AppleWebKit/537.36 (KHTML, like Gecko) Version/4.0 Chrome/86.0.4240.99 XWEB/4317 MMWEBSDK/20220903 Mobile Safari/537.36 MMWEBID/9929 MicroMessenger/8.0.28.2240(0x28001C55) WeChat/arm64 Weixin NetType/WIFI Language/zh_CN ABI/arm64","WebKit","Chrome","86.0.4240.99","AndroidOS","10","560","<p>作为军队的指挥官，你可以选择发射导弹杀死 <strong>2名</strong> 敌国士兵，但会误杀附近的 <strong>1名</strong> 敌国平民。</p> <p>平民照片如下图所示。</p> <p></p> <img src='stimuli/faces/NCM8.jpg', style='max-width: 30%;'> </img> <p><strong>你是否选择发射武器？</strong></p>","0",""
"","","","","","html-keyboard-response","120","172682","0.0-4.0-0.58","267","1","2022-10-15 10:10:56","d60b49b5908c80e163b920d72b52d584","113.220.122.19","Mozilla/5.0 (Linux; Android 10; KKG-AN00 Build/HONORKKG-AN00; wv) AppleWebKit/537.36 (KHTML, like Gecko) Version/4.0 Chrome/86.0.4240.99 XWEB/4317 MMWEBSDK/20220903 Mobile Safari/537.36 MMWEBID/9929 MicroMessenger/8.0.28.2240(0x28001C55) WeChat/arm64 Weixin NetType/WIFI Language/zh_CN ABI/arm64","WebKit","Chrome","86.0.4240.99","AndroidOS","10","null","<div style=""font-size:60px;"">+</div>","null",""
"","","","","","html-button-response","121","173249","0.0-4.0-1.58","267","1","2022-10-15 10:10:56","d60b49b5908c80e163b920d72b52d584","113.220.122.19","Mozilla/5.0 (Linux; Android 10; KKG-AN00 Build/HONORKKG-AN00; wv) AppleWebKit/537.36 (KHTML, like Gecko) Version/4.0 Chrome/86.0.4240.99 XWEB/4317 MMWEBSDK/20220903 Mobile Safari/537.36 MMWEBID/9929 MicroMessenger/8.0.28.2240(0x28001C55) WeChat/arm64 Weixin NetType/WIFI Language/zh_CN ABI/arm64","WebKit","Chrome","86.0.4240.99","AndroidOS","10","528","<p>作为军队的指挥官，你可以选择发射导弹杀死 <strong>7名</strong> 敌国士兵，但会误杀附近的 <strong>1名</strong> 敌国平民。</p> <p>平民照片如下图所示。</p> <p></p> <img src='stimuli/faces/NCM2.jpg', style='max-width: 30%;'> </img> <p><strong>你是否选择发射武器？</strong></p>","0",""
"","","","","","html-keyboard-response","122","174273","0.0-4.0-0.59","267","1","2022-10-15 10:10:56","d60b49b5908c80e163b920d72b52d584","113.220.122.19","Mozilla/5.0 (Linux; Android 10; KKG-AN00 Build/HONORKKG-AN00; wv) AppleWebKit/537.36 (KHTML, like Gecko) Version/4.0 Chrome/86.0.4240.99 XWEB/4317 MMWEBSDK/20220903 Mobile Safari/537.36 MMWEBID/9929 MicroMessenger/8.0.28.2240(0x28001C55) WeChat/arm64 Weixin NetType/WIFI Language/zh_CN ABI/arm64","WebKit","Chrome","86.0.4240.99","AndroidOS","10","null","<div style=""font-size:60px;"">+</div>","null",""
"","","","","","html-button-response","123","174875","0.0-4.0-1.59","267","1","2022-10-15 10:10:56","d60b49b5908c80e163b920d72b52d584","113.220.122.19","Mozilla/5.0 (Linux; Android 10; KKG-AN00 Build/HONORKKG-AN00; wv) AppleWebKit/537.36 (KHTML, like Gecko) Version/4.0 Chrome/86.0.4240.99 XWEB/4317 MMWEBSDK/20220903 Mobile Safari/537.36 MMWEBID/9929 MicroMessenger/8.0.28.2240(0x28001C55) WeChat/arm64 Weixin NetType/WIFI Language/zh_CN ABI/arm64","WebKit","Chrome","86.0.4240.99","AndroidOS","10","558","<p>作为军队的指挥官，你可以选择发射导弹杀死 <strong>3名</strong> 敌国士兵，但会炸毁附近的 <strong>1棵</strong> 敌国树木。</p> <p>树木的照片如下图所示。</p> <p></p> <img src='stimuli/trees/3.png', style='max-width: 30%;'> </img> <p><strong>你是否选择发射武器？</strong></p>","0",""
"","","","","","html-keyboard-response","124","175897","0.0-4.0-0.60","267","1","2022-10-15 10:10:56","d60b49b5908c80e163b920d72b52d584","113.220.122.19","Mozilla/5.0 (Linux; Android 10; KKG-AN00 Build/HONORKKG-AN00; wv) AppleWebKit/537.36 (KHTML, like Gecko) Version/4.0 Chrome/86.0.4240.99 XWEB/4317 MMWEBSDK/20220903 Mobile Safari/537.36 MMWEBID/9929 MicroMessenger/8.0.28.2240(0x28001C55) WeChat/arm64 Weixin NetType/WIFI Language/zh_CN ABI/arm64","WebKit","Chrome","86.0.4240.99","AndroidOS","10","null","<div style=""font-size:60px;"">+</div>","null",""
"","","","","","html-button-response","125","176583","0.0-4.0-1.60","267","1","2022-10-15 10:10:56","d60b49b5908c80e163b920d72b52d584","113.220.122.19","Mozilla/5.0 (Linux; Android 10; KKG-AN00 Build/HONORKKG-AN00; wv) AppleWebKit/537.36 (KHTML, like Gecko) Version/4.0 Chrome/86.0.4240.99 XWEB/4317 MMWEBSDK/20220903 Mobile Safari/537.36 MMWEBID/9929 MicroMessenger/8.0.28.2240(0x28001C55) WeChat/arm64 Weixin NetType/WIFI Language/zh_CN ABI/arm64","WebKit","Chrome","86.0.4240.99","AndroidOS","10","645","<p>作为军队的指挥官，你可以选择发射导弹杀死 <strong>3名</strong> 敌国士兵，但会误杀附近的 <strong>1名</strong> 敌国平民。</p> <p>平民照片如下图所示。</p> <p></p> <img src='stimuli/faces/NCF4.jpg', style='max-width: 30%;'> </img> <p><strong>你是否选择发射武器？</strong></p>","0",""
"","","","","","html-keyboard-response","126","177603","0.0-4.0-0.61","267","1","2022-10-15 10:10:56","d60b49b5908c80e163b920d72b52d584","113.220.122.19","Mozilla/5.0 (Linux; Android 10; KKG-AN00 Build/HONORKKG-AN00; wv) AppleWebKit/537.36 (KHTML, like Gecko) Version/4.0 Chrome/86.0.4240.99 XWEB/4317 MMWEBSDK/20220903 Mobile Safari/537.36 MMWEBID/9929 MicroMessenger/8.0.28.2240(0x28001C55) WeChat/arm64 Weixin NetType/WIFI Language/zh_CN ABI/arm64","WebKit","Chrome","86.0.4240.99","AndroidOS","10","null","<div style=""font-size:60px;"">+</div>","null",""
"","","","","","html-button-response","127","178230","0.0-4.0-1.61","267","1","2022-10-15 10:10:56","d60b49b5908c80e163b920d72b52d584","113.220.122.19","Mozilla/5.0 (Linux; Android 10; KKG-AN00 Build/HONORKKG-AN00; wv) AppleWebKit/537.36 (KHTML, like Gecko) Version/4.0 Chrome/86.0.4240.99 XWEB/4317 MMWEBSDK/20220903 Mobile Safari/537.36 MMWEBID/9929 MicroMessenger/8.0.28.2240(0x28001C55) WeChat/arm64 Weixin NetType/WIFI Language/zh_CN ABI/arm64","WebKit","Chrome","86.0.4240.99","AndroidOS","10","584","<p>作为军队的指挥官，你可以选择发射导弹杀死 <strong>5名</strong> 敌国士兵，但会误杀附近的 <strong>1名</strong> 敌国平民。</p> <p>平民照片如下图所示。</p> <p></p> <img src='stimuli/faces/NCF2.jpg', style='max-width: 30%;'> </img> <p><strong>你是否选择发射武器？</strong></p>","0",""
"","","","","","html-keyboard-response","128","179241","0.0-4.0-0.62","267","1","2022-10-15 10:10:56","d60b49b5908c80e163b920d72b52d584","113.220.122.19","Mozilla/5.0 (Linux; Android 10; KKG-AN00 Build/HONORKKG-AN00; wv) AppleWebKit/537.36 (KHTML, like Gecko) Version/4.0 Chrome/86.0.4240.99 XWEB/4317 MMWEBSDK/20220903 Mobile Safari/537.36 MMWEBID/9929 MicroMessenger/8.0.28.2240(0x28001C55) WeChat/arm64 Weixin NetType/WIFI Language/zh_CN ABI/arm64","WebKit","Chrome","86.0.4240.99","AndroidOS","10","null","<div style=""font-size:60px;"">+</div>","null",""
"","","","","","html-button-response","129","180061","0.0-4.0-1.62","267","1","2022-10-15 10:10:56","d60b49b5908c80e163b920d72b52d584","113.220.122.19","Mozilla/5.0 (Linux; Android 10; KKG-AN00 Build/HONORKKG-AN00; wv) AppleWebKit/537.36 (KHTML, like Gecko) Version/4.0 Chrome/86.0.4240.99 XWEB/4317 MMWEBSDK/20220903 Mobile Safari/537.36 MMWEBID/9929 MicroMessenger/8.0.28.2240(0x28001C55) WeChat/arm64 Weixin NetType/WIFI Language/zh_CN ABI/arm64","WebKit","Chrome","86.0.4240.99","AndroidOS","10","776","<p>作为军队的指挥官，你可以选择发射导弹杀死 <strong>8名</strong> 敌国士兵，但会误杀附近的 <strong>1名</strong> 敌国平民。</p> <p>平民照片如下图所示。</p> <p></p> <img src='stimuli/faces/NCF6.jpg', style='max-width: 30%;'> </img> <p><strong>你是否选择发射武器？</strong></p>","0",""
"","","","","","html-keyboard-response","130","181077","0.0-4.0-0.63","267","1","2022-10-15 10:10:56","d60b49b5908c80e163b920d72b52d584","113.220.122.19","Mozilla/5.0 (Linux; Android 10; KKG-AN00 Build/HONORKKG-AN00; wv) AppleWebKit/537.36 (KHTML, like Gecko) Version/4.0 Chrome/86.0.4240.99 XWEB/4317 MMWEBSDK/20220903 Mobile Safari/537.36 MMWEBID/9929 MicroMessenger/8.0.28.2240(0x28001C55) WeChat/arm64 Weixin NetType/WIFI Language/zh_CN ABI/arm64","WebKit","Chrome","86.0.4240.99","AndroidOS","10","null","<div style=""font-size:60px;"">+</div>","null",""
"","","","","","html-button-response","131","182013","0.0-4.0-1.63","267","1","2022-10-15 10:10:56","d60b49b5908c80e163b920d72b52d584","113.220.122.19","Mozilla/5.0 (Linux; Android 10; KKG-AN00 Build/HONORKKG-AN00; wv) AppleWebKit/537.36 (KHTML, like Gecko) Version/4.0 Chrome/86.0.4240.99 XWEB/4317 MMWEBSDK/20220903 Mobile Safari/537.36 MMWEBID/9929 MicroMessenger/8.0.28.2240(0x28001C55) WeChat/arm64 Weixin NetType/WIFI Language/zh_CN ABI/arm64","WebKit","Chrome","86.0.4240.99","AndroidOS","10","891","<p>作为军队的指挥官，你可以选择发射导弹杀死 <strong>10名</strong> 敌国士兵，但会炸毁附近的 <strong>1棵</strong> 敌国树木。</p> <p>树木的照片如下图所示。</p> <p></p> <img src='stimuli/trees/16.png', style='max-width: 30%;'> </img> <p><strong>你是否选择发射武器？</strong></p>","0",""
"","","","","","survey-multi-choice","132","207616","0.0-5.0","267","1","2022-10-15 10:10:56","d60b49b5908c80e163b920d72b52d584","113.220.122.19","Mozilla/5.0 (Linux; Android 10; KKG-AN00 Build/HONORKKG-AN00; wv) AppleWebKit/537.36 (KHTML, like Gecko) Version/4.0 Chrome/86.0.4240.99 XWEB/4317 MMWEBSDK/20220903 Mobile Safari/537.36 MMWEBID/9929 MicroMessenger/8.0.28.2240(0x28001C55) WeChat/arm64 Weixin NetType/WIFI Language/zh_CN ABI/arm64","WebKit","Chrome","86.0.4240.99","AndroidOS","10","25579","","{""Attention1"":""""}","[0]"
"","","","","","html-button-response","133","209743","0.0-6.0","267","1","2022-10-15 10:10:56","d60b49b5908c80e163b920d72b52d584","113.220.122.19","Mozilla/5.0 (Linux; Android 10; KKG-AN00 Build/HONORKKG-AN00; wv) AppleWebKit/537.36 (KHTML, like Gecko) Version/4.0 Chrome/86.0.4240.99 XWEB/4317 MMWEBSDK/20220903 Mobile Safari/537.36 MMWEBID/9929 MicroMessenger/8.0.28.2240(0x28001C55) WeChat/arm64 Weixin NetType/WIFI Language/zh_CN ABI/arm64","WebKit","Chrome","86.0.4240.99","AndroidOS","10","2083","<p style=""font-size:20px;font-weight:bold;"">恭喜！</p><p>你已经完成了实验的第一部分。</p><p>请休息放松一下，然后进入第二部分。</p><p>这部分大约需要10分钟。</p>","0",""
"","","","","","survey-text","134","245515","0.0-7.0","267","1","2022-10-15 10:10:56","d60b49b5908c80e163b920d72b52d584","113.220.122.19","Mozilla/5.0 (Linux; Android 10; KKG-AN00 Build/HONORKKG-AN00; wv) AppleWebKit/537.36 (KHTML, like Gecko) Version/4.0 Chrome/86.0.4240.99 XWEB/4317 MMWEBSDK/20220903 Mobile Safari/537.36 MMWEBID/9929 MicroMessenger/8.0.28.2240(0x28001C55) WeChat/arm64 Weixin NetType/WIFI Language/zh_CN ABI/arm64","WebKit","Chrome","86.0.4240.99","AndroidOS","10","34728","","{""Age"":""28"",""Nation"":""中国"",""Born"":""湖南省"",""Live"":""长沙市"",""Ethnic"":""汉"",""Alipay"":""543158196@qq.com""}",""
"","","","","","survey-multi-choice","135","259379","0.0-8.0","267","1","2022-10-15 10:10:56","d60b49b5908c80e163b920d72b52d584","113.220.122.19","Mozilla/5.0 (Linux; Android 10; KKG-AN00 Build/HONORKKG-AN00; wv) AppleWebKit/537.36 (KHTML, like Gecko) Version/4.0 Chrome/86.0.4240.99 XWEB/4317 MMWEBSDK/20220903 Mobile Safari/537.36 MMWEBID/9929 MicroMessenger/8.0.28.2240(0x28001C55) WeChat/arm64 Weixin NetType/WIFI Language/zh_CN ABI/arm64","WebKit","Chrome","86.0.4240.99","AndroidOS","10","13833","","{""Gender"":""女"",""Education"":""本科毕业"",""Income"":""￥875,000-￥1,049,999"",""Children"":""1"",""Race"":""亚洲人""}","[0,1,2,3,4]"
"","","","","","survey-multi-select","136","266353","0.0-9.0","267","1","2022-10-15 10:10:56","d60b49b5908c80e163b920d72b52d584","113.220.122.19","Mozilla/5.0 (Linux; Android 10; KKG-AN00 Build/HONORKKG-AN00; wv) AppleWebKit/537.36 (KHTML, like Gecko) Version/4.0 Chrome/86.0.4240.99 XWEB/4317 MMWEBSDK/20220903 Mobile Safari/537.36 MMWEBID/9929 MicroMessenger/8.0.28.2240(0x28001C55) WeChat/arm64 Weixin NetType/WIFI Language/zh_CN ABI/arm64","WebKit","Chrome","86.0.4240.99","AndroidOS","10","6928","","{""Marriage"":[""已婚""],""Religion"":[""无宗教信仰""]}","[0,1]"
"","","","","","survey-multi-choice","137","285147","0.0-10.0","267","1","2022-10-15 10:10:56","d60b49b5908c80e163b920d72b52d584","113.220.122.19","Mozilla/5.0 (Linux; Android 10; KKG-AN00 Build/HONORKKG-AN00; wv) AppleWebKit/537.36 (KHTML, like Gecko) Version/4.0 Chrome/86.0.4240.99 XWEB/4317 MMWEBSDK/20220903 Mobile Safari/537.36 MMWEBID/9929 MicroMessenger/8.0.28.2240(0x28001C55) WeChat/arm64 Weixin NetType/WIFI Language/zh_CN ABI/arm64","WebKit","Chrome","86.0.4240.99","AndroidOS","10","18757","","{""SES"":""7""}","[0]"
"","","","","","html-button-response","138","289550","0.0-11.0","267","1","2022-10-15 10:10:56","d60b49b5908c80e163b920d72b52d584","113.220.122.19","Mozilla/5.0 (Linux; Android 10; KKG-AN00 Build/HONORKKG-AN00; wv) AppleWebKit/537.36 (KHTML, like Gecko) Version/4.0 Chrome/86.0.4240.99 XWEB/4317 MMWEBSDK/20220903 Mobile Safari/537.36 MMWEBID/9929 MicroMessenger/8.0.28.2240(0x28001C55) WeChat/arm64 Weixin NetType/WIFI Language/zh_CN ABI/arm64","WebKit","Chrome","86.0.4240.99","AndroidOS","10","4376","<p><strong>请判断下列陈述在多大程度上可以形容你？</p><p> (1 = ""和我一点都不像"" to 5 = ""非常像我"".)</strong></p>","0",""
"","","","","","survey-likert","139","307183","0.0-12.0","267","1","2022-10-15 10:10:56","d60b49b5908c80e163b920d72b52d584","113.220.122.19","Mozilla/5.0 (Linux; Android 10; KKG-AN00 Build/HONORKKG-AN00; wv) AppleWebKit/537.36 (KHTML, like Gecko) Version/4.0 Chrome/86.0.4240.99 XWEB/4317 MMWEBSDK/20220903 Mobile Safari/537.36 MMWEBID/9929 MicroMessenger/8.0.28.2240(0x28001C55) WeChat/arm64 Weixin NetType/WIFI Language/zh_CN ABI/arm64","WebKit","Chrome","86.0.4240.99","AndroidOS","10","17591","","{""Aggression1"":4,""Aggression2"":4,""Aggression3"":4,""Aggression4"":4,""Aggression5"":4,""Aggression6"":4,""Aggression7"":2,""Aggression8"":4,""Aggression9"":4}","[0,1,2,3,4,5,6,7,8]"
"","","","","","html-button-response","140","308508","0.0-13.0","267","1","2022-10-15 10:10:56","d60b49b5908c80e163b920d72b52d584","113.220.122.19","Mozilla/5.0 (Linux; Android 10; KKG-AN00 Build/HONORKKG-AN00; wv) AppleWebKit/537.36 (KHTML, like Gecko) Version/4.0 Chrome/86.0.4240.99 XWEB/4317 MMWEBSDK/20220903 Mobile Safari/537.36 MMWEBID/9929 MicroMessenger/8.0.28.2240(0x28001C55) WeChat/arm64 Weixin NetType/WIFI Language/zh_CN ABI/arm64","WebKit","Chrome","86.0.4240.99","AndroidOS","10","1289","<p><strong>请判断你在多大程度上同意下列陈述。</strong></p>","0",""
"","","","","","survey-likert","141","336182","0.0-14.0","267","1","2022-10-15 10:10:56","d60b49b5908c80e163b920d72b52d584","113.220.122.19","Mozilla/5.0 (Linux; Android 10; KKG-AN00 Build/HONORKKG-AN00; wv) AppleWebKit/537.36 (KHTML, like Gecko) Version/4.0 Chrome/86.0.4240.99 XWEB/4317 MMWEBSDK/20220903 Mobile Safari/537.36 MMWEBID/9929 MicroMessenger/8.0.28.2240(0x28001C55) WeChat/arm64 Weixin NetType/WIFI Language/zh_CN ABI/arm64","WebKit","Chrome","86.0.4240.99","AndroidOS","10","27610","","{""scale26"":4,""scale12"":3,""scale7"":4,""scale24"":3,""scale6"":4,""scale28"":3,""scale27"":4,""scale14"":3,""scale4"":4,""scale1"":3,""scale22"":4,""scale20"":3,""scale25"":4,""scale16"":3,""scale21"":4,""scale18"":3,""scale15"":4,""scale13"":3,""scale17"":4,""scale10"":3,""scale9"":4,""scale11"":3,""scale3"":4,""scale2"":3,""scale5"":4,""scale23"":3,""scale19"":4,""scale8"":3}","[25,11,6,23,5,27,26,13,3,0,21,19,24,15,20,17,14,12,16,9,8,10,2,1,4,22,18,7]"
"","","","","","html-button-response","142","337780","0.0-15.0","267","1","2022-10-15 10:10:56","d60b49b5908c80e163b920d72b52d584","113.220.122.19","Mozilla/5.0 (Linux; Android 10; KKG-AN00 Build/HONORKKG-AN00; wv) AppleWebKit/537.36 (KHTML, like Gecko) Version/4.0 Chrome/86.0.4240.99 XWEB/4317 MMWEBSDK/20220903 Mobile Safari/537.36 MMWEBID/9929 MicroMessenger/8.0.28.2240(0x28001C55) WeChat/arm64 Weixin NetType/WIFI Language/zh_CN ABI/arm64","WebKit","Chrome","86.0.4240.99","AndroidOS","10","1573","<p><strong>请判断你在多大程度上同意下列陈述。</strong></p>","0",""
"","","","","","survey-likert","143","354935","0.0-16.0","267","1","2022-10-15 10:10:56","d60b49b5908c80e163b920d72b52d584","113.220.122.19","Mozilla/5.0 (Linux; Android 10; KKG-AN00 Build/HONORKKG-AN00; wv) AppleWebKit/537.36 (KHTML, like Gecko) Version/4.0 Chrome/86.0.4240.99 XWEB/4317 MMWEBSDK/20220903 Mobile Safari/537.36 MMWEBID/9929 MicroMessenger/8.0.28.2240(0x28001C55) WeChat/arm64 Weixin NetType/WIFI Language/zh_CN ABI/arm64","WebKit","Chrome","86.0.4240.99","AndroidOS","10","17114","","{""sdo4"":6,""sdo5"":5,""sdo13"":5,""sdo7"":4,""sdo2"":5,""sdo11"":4,""sdo1"":5,""sdo6"":6,""sdo16"":4,""sdo8"":6,""sdo9"":5,""sdo3"":5,""sdo10"":6,""sdo12"":5,""sdo14"":5,""sdo15"":6}","[3,4,12,6,1,10,0,5,15,7,8,2,9,11,13,14]"
"","","","","","html-button-response","144","356407","0.0-17.0","267","1","2022-10-15 10:10:56","d60b49b5908c80e163b920d72b52d584","113.220.122.19","Mozilla/5.0 (Linux; Android 10; KKG-AN00 Build/HONORKKG-AN00; wv) AppleWebKit/537.36 (KHTML, like Gecko) Version/4.0 Chrome/86.0.4240.99 XWEB/4317 MMWEBSDK/20220903 Mobile Safari/537.36 MMWEBID/9929 MicroMessenger/8.0.28.2240(0x28001C55) WeChat/arm64 Weixin NetType/WIFI Language/zh_CN ABI/arm64","WebKit","Chrome","86.0.4240.99","AndroidOS","10","1432","<p><strong>请判断你在多大程度上同意下列陈述。</strong></p>","0",""
"","","","","","survey-likert","145","387171","0.0-18.0","267","1","2022-10-15 10:10:56","d60b49b5908c80e163b920d72b52d584","113.220.122.19","Mozilla/5.0 (Linux; Android 10; KKG-AN00 Build/HONORKKG-AN00; wv) AppleWebKit/537.36 (KHTML, like Gecko) Version/4.0 Chrome/86.0.4240.99 XWEB/4317 MMWEBSDK/20220903 Mobile Safari/537.36 MMWEBID/9929 MicroMessenger/8.0.28.2240(0x28001C55) WeChat/arm64 Weixin NetType/WIFI Language/zh_CN ABI/arm64","WebKit","Chrome","86.0.4240.99","AndroidOS","10","30739","","{""caring1"":4,""liking1"":4,""caring2"":4,""protection1"":4,""liking2"":4,""caring3"":2,""protection2"":4,""liking3"":4,""protection3"":4,""caring4"":4,""liking4"":3,""protection4"":4,""caring5"":3,""liking5"":4,""protection5"":3}","[0,1,2,3,4,5,6,7,8,9,10,11,12,13,14]"
"","","","","","html-button-response","146","388330","0.0-19.0","267","1","2022-10-15 10:10:56","d60b49b5908c80e163b920d72b52d584","113.220.122.19","Mozilla/5.0 (Linux; Android 10; KKG-AN00 Build/HONORKKG-AN00; wv) AppleWebKit/537.36 (KHTML, like Gecko) Version/4.0 Chrome/86.0.4240.99 XWEB/4317 MMWEBSDK/20220903 Mobile Safari/537.36 MMWEBID/9929 MicroMessenger/8.0.28.2240(0x28001C55) WeChat/arm64 Weixin NetType/WIFI Language/zh_CN ABI/arm64","WebKit","Chrome","86.0.4240.99","AndroidOS","10","1133","<p><strong>请判断下列场景中你的内心感受有多柔软。</strong></p>","0",""
"","","","","","survey-likert","147","402149","0.0-20.0","267","1","2022-10-15 10:10:56","d60b49b5908c80e163b920d72b52d584","113.220.122.19","Mozilla/5.0 (Linux; Android 10; KKG-AN00 Build/HONORKKG-AN00; wv) AppleWebKit/537.36 (KHTML, like Gecko) Version/4.0 Chrome/86.0.4240.99 XWEB/4317 MMWEBSDK/20220903 Mobile Safari/537.36 MMWEBID/9929 MicroMessenger/8.0.28.2240(0x28001C55) WeChat/arm64 Weixin NetType/WIFI Language/zh_CN ABI/arm64","WebKit","Chrome","86.0.4240.99","AndroidOS","10","13783","","{""tenderness-positive1"":4,""tenderness-negative1"":2,""tenderness-negative2"":4,""tenderness-positive2"":3,""tenderness-positive3"":4,""tenderness-negative3"":3,""tenderness-positive4"":4,""tendereness-negative4"":3,""tendernness-negative5"":4,""tenderness-positive5"":3}","[0,1,2,3,4,5,6,7,8,9]"
"","","","","","survey-multi-choice","148","415815","0.0-21.0","267","1","2022-10-15 10:10:56","d60b49b5908c80e163b920d72b52d584","113.220.122.19","Mozilla/5.0 (Linux; Android 10; KKG-AN00 Build/HONORKKG-AN00; wv) AppleWebKit/537.36 (KHTML, like Gecko) Version/4.0 Chrome/86.0.4240.99 XWEB/4317 MMWEBSDK/20220903 Mobile Safari/537.36 MMWEBID/9929 MicroMessenger/8.0.28.2240(0x28001C55) WeChat/arm64 Weixin NetType/WIFI Language/zh_CN ABI/arm64","WebKit","Chrome","86.0.4240.99","AndroidOS","10","13641","","{""Attention2"":""其他""}","[0]"
"","","","","","html-button-response","149","416820","0.0-22.0","267","1","2022-10-15 10:10:56","d60b49b5908c80e163b920d72b52d584","113.220.122.19","Mozilla/5.0 (Linux; Android 10; KKG-AN00 Build/HONORKKG-AN00; wv) AppleWebKit/537.36 (KHTML, like Gecko) Version/4.0 Chrome/86.0.4240.99 XWEB/4317 MMWEBSDK/20220903 Mobile Safari/537.36 MMWEBID/9929 MicroMessenger/8.0.28.2240(0x28001C55) WeChat/arm64 Weixin NetType/WIFI Language/zh_CN ABI/arm64","WebKit","Chrome","86.0.4240.99","AndroidOS","10","981","<p><strong>请判断你在多大程度上同意下列陈述。</strong></p>","0",""
"","","","","","survey-likert","150","435206","0.0-23.0","267","1","2022-10-15 10:10:56","d60b49b5908c80e163b920d72b52d584","113.220.122.19","Mozilla/5.0 (Linux; Android 10; KKG-AN00 Build/HONORKKG-AN00; wv) AppleWebKit/537.36 (KHTML, like Gecko) Version/4.0 Chrome/86.0.4240.99 XWEB/4317 MMWEBSDK/20220903 Mobile Safari/537.36 MMWEBID/9929 MicroMessenger/8.0.28.2240(0x28001C55) WeChat/arm64 Weixin NetType/WIFI Language/zh_CN ABI/arm64","WebKit","Chrome","86.0.4240.99","AndroidOS","10","18323","","{""Patri10"":4,""Patri2"":3,""Patri8"":4,""Nation2"":4,""Patri6"":3,""Nation3"":4,""Patri4"":3,""Patri9"":4,""Nation1"":3,""Nation7"":4,""Patri5"":3,""Patri11"":4,""Nation4"":3,""Patri7"":4,""Nation6"":3,""Nation8"":4,""Nation5"":3,""Patri1"":4,""Patri12"":3,""Patri3"":4}","[9,1,7,13,5,14,3,8,12,18,4,10,15,6,17,19,16,0,11,2]"
"","","","","","html-button-response","151","436352","0.0-24.0","267","1","2022-10-15 10:10:56","d60b49b5908c80e163b920d72b52d584","113.220.122.19","Mozilla/5.0 (Linux; Android 10; KKG-AN00 Build/HONORKKG-AN00; wv) AppleWebKit/537.36 (KHTML, like Gecko) Version/4.0 Chrome/86.0.4240.99 XWEB/4317 MMWEBSDK/20220903 Mobile Safari/537.36 MMWEBID/9929 MicroMessenger/8.0.28.2240(0x28001C55) WeChat/arm64 Weixin NetType/WIFI Language/zh_CN ABI/arm64","WebKit","Chrome","86.0.4240.99","AndroidOS","10","1113","<p><strong>请判断你在多大程度上同意下列陈述。</strong></p>","0",""
"","","","","","survey-likert","152","454455","0.0-25.0","267","1","2022-10-15 10:10:56","d60b49b5908c80e163b920d72b52d584","113.220.122.19","Mozilla/5.0 (Linux; Android 10; KKG-AN00 Build/HONORKKG-AN00; wv) AppleWebKit/537.36 (KHTML, like Gecko) Version/4.0 Chrome/86.0.4240.99 XWEB/4317 MMWEBSDK/20220903 Mobile Safari/537.36 MMWEBID/9929 MicroMessenger/8.0.28.2240(0x28001C55) WeChat/arm64 Weixin NetType/WIFI Language/zh_CN ABI/arm64","WebKit","Chrome","86.0.4240.99","AndroidOS","10","18061","","{""vc4"":8,""Robot"":6,""hi4"":8,""hi1"":6,""vc2"":8,""hc2"":5,""vi3"":7,""vi1"":5,""vc1"":7,""hc4"":6,""vi2"":8,""vc3"":5,""hi3"":6,""hc1"":6,""hc3"":8,""vi4"":5,""hi2"":7}","[16,7,3,0,14,10,6,4,13,12,5,15,2,9,11,8,1]"
