"success","timeout","failed_images","failed_audio","failed_video","trial_type","trial_index","time_elapsed","internal_node_id","run_id","condition","recorded_at","source_code_version","ip","user_agent","device","browser","browser_version","platform","platform_version","rt","stimulus","response","question_order"
"true","false","[]","[]","[]","preload","0","3758","0.0-0.0","274","1","2022-10-15 11:24:51","d60b49b5908c80e163b920d72b52d584","113.220.122.19","Mozilla/5.0 (Linux; Android 7.0; TRT-AL00A Build/HUAWEITRT-AL00A; wv) AppleWebKit/537.36 (KHTML, like Gecko) Version/4.0 Chrome/86.0.4240.99 XWEB/4316 MMWEBSDK/20220604 Mobile Safari/537.36 MMWEBID/5688 MicroMessenger/8.0.24.2180(0x28001836) WeChat/arm32 Weixin NetType/WIFI Language/zh_CN ABI/arm32","WebKit","Chrome","86.0.4240.99","AndroidOS","7.0","","","",""
"true","","","","","fullscreen","1","53775","0.0-1.0","274","1","2022-10-15 11:24:51","d60b49b5908c80e163b920d72b52d584","113.220.122.19","Mozilla/5.0 (Linux; Android 7.0; TRT-AL00A Build/HUAWEITRT-AL00A; wv) AppleWebKit/537.36 (KHTML, like Gecko) Version/4.0 Chrome/86.0.4240.99 XWEB/4316 MMWEBSDK/20220604 Mobile Safari/537.36 MMWEBID/5688 MicroMessenger/8.0.24.2180(0x28001836) WeChat/arm32 Weixin NetType/WIFI Language/zh_CN ABI/arm32","WebKit","Chrome","86.0.4240.99","AndroidOS","7.0","","","",""
"","","","","","html-button-response","2","122939","0.0-2.0","274","1","2022-10-15 11:24:51","d60b49b5908c80e163b920d72b52d584","113.220.122.19","Mozilla/5.0 (Linux; Android 7.0; TRT-AL00A Build/HUAWEITRT-AL00A; wv) AppleWebKit/537.36 (KHTML, like Gecko) Version/4.0 Chrome/86.0.4240.99 XWEB/4316 MMWEBSDK/20220604 Mobile Safari/537.36 MMWEBID/5688 MicroMessenger/8.0.24.2180(0x28001836) WeChat/arm32 Weixin NetType/WIFI Language/zh_CN ABI/arm32","WebKit","Chrome","86.0.4240.99","AndroidOS","7.0","57380","<p style=""font-size:20px;font-weight:bold;"">实验知情同意书</p><p style=""text-align:left;""><strong>实验名称：</strong>社会冲突研究</p><p style=""text-align:left;""><strong>主要研究者：</strong>韩晓春副教授（北京师范大学心理学部）</p><p style=""text-align:left;""><strong>联系方式：</strong>发送邮件至xiaochun.han@bnu.edu.cn</p><p style=""text-align:left;""><strong>研究目的：</strong>研究旨在了解人类面对群体冲突时的决策方式，以及相关的心理学特质。实验调查大约需要20分钟。</p><p style=""text-align:left;""><strong>实验流程：</strong>实验包含两部分。第一部分呈现一系列群体冲突场景，请你决定如何对这些冲突进行反应，大约需要10分钟完成。第二部分包含一系列人口统计学信息收集和心理学问卷，大约需要10分钟完成。</p><p style=""text-align:left;""><strong>参加及退出规则：</strong>参加本实验完全取决于您的个人意愿。在参与过程中，您可以随时退出，并且不用承担任何后果。</p><p style=""text-align:left;""><strong>隐私：</strong>本实验完全匿名进行，不会收集您的姓名或其他能够识别您身份的信息。实验中收集的作答仅用作科学研究使用，可能会在学术期刊/书籍上发表，或者用于教学，您的数据未来可能会和其他研究者或实验室分享，但您的个人身份不会被识别。</p><p style=""text-align:left;""><strong>实验报酬：</strong>实验完成后，您将获得15元人民币报酬，以感谢您的时间和努力。调查问卷中包含几道题目用以测验您作答时的认真度。只有完成全部实验，并且正确回答认真度测验的被试才能获得实验报酬。实验报酬将通过支付宝转账发放。</p><p style=""text-align:left;font-size:20px;""><strong>如果您同意以上实验知情同意书的内容，请点击'同意并且开始实验'按钮；否则请关闭浏览器界面，退出实验。</strong></p>","0",""
"","","","","","html-button-response","3","124207","0.0-3.0","274","1","2022-10-15 11:24:51","d60b49b5908c80e163b920d72b52d584","113.220.122.19","Mozilla/5.0 (Linux; Android 7.0; TRT-AL00A Build/HUAWEITRT-AL00A; wv) AppleWebKit/537.36 (KHTML, like Gecko) Version/4.0 Chrome/86.0.4240.99 XWEB/4316 MMWEBSDK/20220604 Mobile Safari/537.36 MMWEBID/5688 MicroMessenger/8.0.24.2180(0x28001836) WeChat/arm32 Weixin NetType/WIFI Language/zh_CN ABI/arm32","WebKit","Chrome","86.0.4240.99","AndroidOS","7.0","1248","<p ><strong>实验任务一：</strong></p><p>请想象你的国家与另一个国家发生了军事冲突。</p><p>你是国家军队的指挥官，你将如何在冲突中进行决策。</p><p>具体来说，作为军队指挥官，请你决定是否发射导弹进行打击。</p><p>接下来，你会面对一系列场景，请仔细阅读每个场景，然后进行决策。</p><p>这部分实验任务大约需要10分钟。</p><p><strong>实验过程中，请集中注意力。</strong></p>","0",""
"","","","","","html-keyboard-response","4","125219","0.0-4.0-0.0","274","1","2022-10-15 11:24:51","d60b49b5908c80e163b920d72b52d584","113.220.122.19","Mozilla/5.0 (Linux; Android 7.0; TRT-AL00A Build/HUAWEITRT-AL00A; wv) AppleWebKit/537.36 (KHTML, like Gecko) Version/4.0 Chrome/86.0.4240.99 XWEB/4316 MMWEBSDK/20220604 Mobile Safari/537.36 MMWEBID/5688 MicroMessenger/8.0.24.2180(0x28001836) WeChat/arm32 Weixin NetType/WIFI Language/zh_CN ABI/arm32","WebKit","Chrome","86.0.4240.99","AndroidOS","7.0","null","<div style=""font-size:60px;"">+</div>","null",""
"","","","","","html-button-response","5","128068","0.0-4.0-1.0","274","1","2022-10-15 11:24:51","d60b49b5908c80e163b920d72b52d584","113.220.122.19","Mozilla/5.0 (Linux; Android 7.0; TRT-AL00A Build/HUAWEITRT-AL00A; wv) AppleWebKit/537.36 (KHTML, like Gecko) Version/4.0 Chrome/86.0.4240.99 XWEB/4316 MMWEBSDK/20220604 Mobile Safari/537.36 MMWEBID/5688 MicroMessenger/8.0.24.2180(0x28001836) WeChat/arm32 Weixin NetType/WIFI Language/zh_CN ABI/arm32","WebKit","Chrome","86.0.4240.99","AndroidOS","7.0","2805","<p>作为军队的指挥官，你可以选择发射导弹杀死 <strong>10名</strong> 敌国士兵，但会炸毁附近的 <strong>1棵</strong> 敌国树木。</p> <p>树木的照片如下图所示。</p> <p></p> <img src='stimuli/trees/2.png', style='max-width: 30%;'> </img> <p><strong>你是否选择发射武器？</strong></p>","0",""
"","","","","","html-keyboard-response","6","129079","0.0-4.0-0.1","274","1","2022-10-15 11:24:51","d60b49b5908c80e163b920d72b52d584","113.220.122.19","Mozilla/5.0 (Linux; Android 7.0; TRT-AL00A Build/HUAWEITRT-AL00A; wv) AppleWebKit/537.36 (KHTML, like Gecko) Version/4.0 Chrome/86.0.4240.99 XWEB/4316 MMWEBSDK/20220604 Mobile Safari/537.36 MMWEBID/5688 MicroMessenger/8.0.24.2180(0x28001836) WeChat/arm32 Weixin NetType/WIFI Language/zh_CN ABI/arm32","WebKit","Chrome","86.0.4240.99","AndroidOS","7.0","null","<div style=""font-size:60px;"">+</div>","null",""
"","","","","","html-button-response","7","129973","0.0-4.0-1.1","274","1","2022-10-15 11:24:51","d60b49b5908c80e163b920d72b52d584","113.220.122.19","Mozilla/5.0 (Linux; Android 7.0; TRT-AL00A Build/HUAWEITRT-AL00A; wv) AppleWebKit/537.36 (KHTML, like Gecko) Version/4.0 Chrome/86.0.4240.99 XWEB/4316 MMWEBSDK/20220604 Mobile Safari/537.36 MMWEBID/5688 MicroMessenger/8.0.24.2180(0x28001836) WeChat/arm32 Weixin NetType/WIFI Language/zh_CN ABI/arm32","WebKit","Chrome","86.0.4240.99","AndroidOS","7.0","879","<p>作为军队的指挥官，你可以选择发射导弹杀死 <strong>7名</strong> 敌国士兵，但会误杀附近的 <strong>1名</strong> 敌国平民。</p> <p>平民照片如下图所示。</p> <p></p> <img src='stimuli/faces/NCF5.jpg', style='max-width: 30%;'> </img> <p><strong>你是否选择发射武器？</strong></p>","1",""
"","","","","","html-keyboard-response","8","130984","0.0-4.0-0.2","274","1","2022-10-15 11:24:51","d60b49b5908c80e163b920d72b52d584","113.220.122.19","Mozilla/5.0 (Linux; Android 7.0; TRT-AL00A Build/HUAWEITRT-AL00A; wv) AppleWebKit/537.36 (KHTML, like Gecko) Version/4.0 Chrome/86.0.4240.99 XWEB/4316 MMWEBSDK/20220604 Mobile Safari/537.36 MMWEBID/5688 MicroMessenger/8.0.24.2180(0x28001836) WeChat/arm32 Weixin NetType/WIFI Language/zh_CN ABI/arm32","WebKit","Chrome","86.0.4240.99","AndroidOS","7.0","null","<div style=""font-size:60px;"">+</div>","null",""
"","","","","","html-button-response","9","148001","0.0-4.0-1.2","274","1","2022-10-15 11:24:51","d60b49b5908c80e163b920d72b52d584","113.220.122.19","Mozilla/5.0 (Linux; Android 7.0; TRT-AL00A Build/HUAWEITRT-AL00A; wv) AppleWebKit/537.36 (KHTML, like Gecko) Version/4.0 Chrome/86.0.4240.99 XWEB/4316 MMWEBSDK/20220604 Mobile Safari/537.36 MMWEBID/5688 MicroMessenger/8.0.24.2180(0x28001836) WeChat/arm32 Weixin NetType/WIFI Language/zh_CN ABI/arm32","WebKit","Chrome","86.0.4240.99","AndroidOS","7.0","17002","<p>作为军队的指挥官，你可以选择发射导弹杀死 <strong>10名</strong> 敌国士兵，但会炸毁附近的 <strong>1棵</strong> 敌国树木。</p> <p>树木的照片如下图所示。</p> <p></p> <img src='stimuli/trees/16.png', style='max-width: 30%;'> </img> <p><strong>你是否选择发射武器？</strong></p>","0",""
"","","","","","html-keyboard-response","10","149014","0.0-4.0-0.3","274","1","2022-10-15 11:24:51","d60b49b5908c80e163b920d72b52d584","113.220.122.19","Mozilla/5.0 (Linux; Android 7.0; TRT-AL00A Build/HUAWEITRT-AL00A; wv) AppleWebKit/537.36 (KHTML, like Gecko) Version/4.0 Chrome/86.0.4240.99 XWEB/4316 MMWEBSDK/20220604 Mobile Safari/537.36 MMWEBID/5688 MicroMessenger/8.0.24.2180(0x28001836) WeChat/arm32 Weixin NetType/WIFI Language/zh_CN ABI/arm32","WebKit","Chrome","86.0.4240.99","AndroidOS","7.0","null","<div style=""font-size:60px;"">+</div>","null",""
"","","","","","html-button-response","11","149774","0.0-4.0-1.3","274","1","2022-10-15 11:24:51","d60b49b5908c80e163b920d72b52d584","113.220.122.19","Mozilla/5.0 (Linux; Android 7.0; TRT-AL00A Build/HUAWEITRT-AL00A; wv) AppleWebKit/537.36 (KHTML, like Gecko) Version/4.0 Chrome/86.0.4240.99 XWEB/4316 MMWEBSDK/20220604 Mobile Safari/537.36 MMWEBID/5688 MicroMessenger/8.0.24.2180(0x28001836) WeChat/arm32 Weixin NetType/WIFI Language/zh_CN ABI/arm32","WebKit","Chrome","86.0.4240.99","AndroidOS","7.0","745","<p>作为军队的指挥官，你可以选择发射导弹杀死 <strong>6名</strong> 敌国士兵，但会误杀附近的 <strong>1名</strong> 敌国平民。</p> <p>平民照片如下图所示。</p> <p></p> <img src='stimuli/faces/NCF2.jpg', style='max-width: 30%;'> </img> <p><strong>你是否选择发射武器？</strong></p>","0",""
"","","","","","html-keyboard-response","12","150786","0.0-4.0-0.4","274","1","2022-10-15 11:24:51","d60b49b5908c80e163b920d72b52d584","113.220.122.19","Mozilla/5.0 (Linux; Android 7.0; TRT-AL00A Build/HUAWEITRT-AL00A; wv) AppleWebKit/537.36 (KHTML, like Gecko) Version/4.0 Chrome/86.0.4240.99 XWEB/4316 MMWEBSDK/20220604 Mobile Safari/537.36 MMWEBID/5688 MicroMessenger/8.0.24.2180(0x28001836) WeChat/arm32 Weixin NetType/WIFI Language/zh_CN ABI/arm32","WebKit","Chrome","86.0.4240.99","AndroidOS","7.0","null","<div style=""font-size:60px;"">+</div>","null",""
"","","","","","html-button-response","13","151446","0.0-4.0-1.4","274","1","2022-10-15 11:24:51","d60b49b5908c80e163b920d72b52d584","113.220.122.19","Mozilla/5.0 (Linux; Android 7.0; TRT-AL00A Build/HUAWEITRT-AL00A; wv) AppleWebKit/537.36 (KHTML, like Gecko) Version/4.0 Chrome/86.0.4240.99 XWEB/4316 MMWEBSDK/20220604 Mobile Safari/537.36 MMWEBID/5688 MicroMessenger/8.0.24.2180(0x28001836) WeChat/arm32 Weixin NetType/WIFI Language/zh_CN ABI/arm32","WebKit","Chrome","86.0.4240.99","AndroidOS","7.0","645","<p>作为军队的指挥官，你可以选择发射导弹杀死 <strong>4名</strong> 敌国士兵，但会炸毁附近的 <strong>1棵</strong> 敌国树木。</p> <p>树木的照片如下图所示。</p> <p></p> <img src='stimuli/trees/8.png', style='max-width: 30%;'> </img> <p><strong>你是否选择发射武器？</strong></p>","1",""
"","","","","","html-keyboard-response","14","152525","0.0-4.0-0.5","274","1","2022-10-15 11:24:51","d60b49b5908c80e163b920d72b52d584","113.220.122.19","Mozilla/5.0 (Linux; Android 7.0; TRT-AL00A Build/HUAWEITRT-AL00A; wv) AppleWebKit/537.36 (KHTML, like Gecko) Version/4.0 Chrome/86.0.4240.99 XWEB/4316 MMWEBSDK/20220604 Mobile Safari/537.36 MMWEBID/5688 MicroMessenger/8.0.24.2180(0x28001836) WeChat/arm32 Weixin NetType/WIFI Language/zh_CN ABI/arm32","WebKit","Chrome","86.0.4240.99","AndroidOS","7.0","null","<div style=""font-size:60px;"">+</div>","null",""
"","","","","","html-button-response","15","153113","0.0-4.0-1.5","274","1","2022-10-15 11:24:51","d60b49b5908c80e163b920d72b52d584","113.220.122.19","Mozilla/5.0 (Linux; Android 7.0; TRT-AL00A Build/HUAWEITRT-AL00A; wv) AppleWebKit/537.36 (KHTML, like Gecko) Version/4.0 Chrome/86.0.4240.99 XWEB/4316 MMWEBSDK/20220604 Mobile Safari/537.36 MMWEBID/5688 MicroMessenger/8.0.24.2180(0x28001836) WeChat/arm32 Weixin NetType/WIFI Language/zh_CN ABI/arm32","WebKit","Chrome","86.0.4240.99","AndroidOS","7.0","559","<p>作为军队的指挥官，你可以选择发射导弹杀死 <strong>3名</strong> 敌国士兵，但会误杀附近的 <strong>1名</strong> 敌国平民。</p> <p>平民照片如下图所示。</p> <p></p> <img src='stimuli/faces/NCM6.jpg', style='max-width: 30%;'> </img> <p><strong>你是否选择发射武器？</strong></p>","0",""
"","","","","","html-keyboard-response","16","154125","0.0-4.0-0.6","274","1","2022-10-15 11:24:51","d60b49b5908c80e163b920d72b52d584","113.220.122.19","Mozilla/5.0 (Linux; Android 7.0; TRT-AL00A Build/HUAWEITRT-AL00A; wv) AppleWebKit/537.36 (KHTML, like Gecko) Version/4.0 Chrome/86.0.4240.99 XWEB/4316 MMWEBSDK/20220604 Mobile Safari/537.36 MMWEBID/5688 MicroMessenger/8.0.24.2180(0x28001836) WeChat/arm32 Weixin NetType/WIFI Language/zh_CN ABI/arm32","WebKit","Chrome","86.0.4240.99","AndroidOS","7.0","null","<div style=""font-size:60px;"">+</div>","null",""
"","","","","","html-button-response","17","154988","0.0-4.0-1.6","274","1","2022-10-15 11:24:51","d60b49b5908c80e163b920d72b52d584","113.220.122.19","Mozilla/5.0 (Linux; Android 7.0; TRT-AL00A Build/HUAWEITRT-AL00A; wv) AppleWebKit/537.36 (KHTML, like Gecko) Version/4.0 Chrome/86.0.4240.99 XWEB/4316 MMWEBSDK/20220604 Mobile Safari/537.36 MMWEBID/5688 MicroMessenger/8.0.24.2180(0x28001836) WeChat/arm32 Weixin NetType/WIFI Language/zh_CN ABI/arm32","WebKit","Chrome","86.0.4240.99","AndroidOS","7.0","847","<p>作为军队的指挥官，你可以选择发射导弹杀死 <strong>7名</strong> 敌国士兵，但会炸毁附近的 <strong>1棵</strong> 敌国树木。</p> <p>树木的照片如下图所示。</p> <p></p> <img src='stimuli/trees/12.png', style='max-width: 30%;'> </img> <p><strong>你是否选择发射武器？</strong></p>","1",""
"","","","","","html-keyboard-response","18","155999","0.0-4.0-0.7","274","1","2022-10-15 11:24:51","d60b49b5908c80e163b920d72b52d584","113.220.122.19","Mozilla/5.0 (Linux; Android 7.0; TRT-AL00A Build/HUAWEITRT-AL00A; wv) AppleWebKit/537.36 (KHTML, like Gecko) Version/4.0 Chrome/86.0.4240.99 XWEB/4316 MMWEBSDK/20220604 Mobile Safari/537.36 MMWEBID/5688 MicroMessenger/8.0.24.2180(0x28001836) WeChat/arm32 Weixin NetType/WIFI Language/zh_CN ABI/arm32","WebKit","Chrome","86.0.4240.99","AndroidOS","7.0","null","<div style=""font-size:60px;"">+</div>","null",""
"","","","","","html-button-response","19","156639","0.0-4.0-1.7","274","1","2022-10-15 11:24:51","d60b49b5908c80e163b920d72b52d584","113.220.122.19","Mozilla/5.0 (Linux; Android 7.0; TRT-AL00A Build/HUAWEITRT-AL00A; wv) AppleWebKit/537.36 (KHTML, like Gecko) Version/4.0 Chrome/86.0.4240.99 XWEB/4316 MMWEBSDK/20220604 Mobile Safari/537.36 MMWEBID/5688 MicroMessenger/8.0.24.2180(0x28001836) WeChat/arm32 Weixin NetType/WIFI Language/zh_CN ABI/arm32","WebKit","Chrome","86.0.4240.99","AndroidOS","7.0","626","<p>作为军队的指挥官，你可以选择发射导弹杀死 <strong>1名</strong> 敌国士兵，但会误杀附近的 <strong>1名</strong> 敌国平民。</p> <p>平民照片如下图所示。</p> <p></p> <img src='stimuli/faces/NCF3.jpg', style='max-width: 30%;'> </img> <p><strong>你是否选择发射武器？</strong></p>","0",""
"","","","","","html-keyboard-response","20","157652","0.0-4.0-0.8","274","1","2022-10-15 11:24:51","d60b49b5908c80e163b920d72b52d584","113.220.122.19","Mozilla/5.0 (Linux; Android 7.0; TRT-AL00A Build/HUAWEITRT-AL00A; wv) AppleWebKit/537.36 (KHTML, like Gecko) Version/4.0 Chrome/86.0.4240.99 XWEB/4316 MMWEBSDK/20220604 Mobile Safari/537.36 MMWEBID/5688 MicroMessenger/8.0.24.2180(0x28001836) WeChat/arm32 Weixin NetType/WIFI Language/zh_CN ABI/arm32","WebKit","Chrome","86.0.4240.99","AndroidOS","7.0","null","<div style=""font-size:60px;"">+</div>","null",""
"","","","","","html-button-response","21","158444","0.0-4.0-1.8","274","1","2022-10-15 11:24:51","d60b49b5908c80e163b920d72b52d584","113.220.122.19","Mozilla/5.0 (Linux; Android 7.0; TRT-AL00A Build/HUAWEITRT-AL00A; wv) AppleWebKit/537.36 (KHTML, like Gecko) Version/4.0 Chrome/86.0.4240.99 XWEB/4316 MMWEBSDK/20220604 Mobile Safari/537.36 MMWEBID/5688 MicroMessenger/8.0.24.2180(0x28001836) WeChat/arm32 Weixin NetType/WIFI Language/zh_CN ABI/arm32","WebKit","Chrome","86.0.4240.99","AndroidOS","7.0","776","<p>作为军队的指挥官，你可以选择发射导弹杀死 <strong>6名</strong> 敌国士兵，但会炸毁附近的 <strong>1棵</strong> 敌国树木。</p> <p>树木的照片如下图所示。</p> <p></p> <img src='stimuli/trees/1.png', style='max-width: 30%;'> </img> <p><strong>你是否选择发射武器？</strong></p>","1",""
"","","","","","html-keyboard-response","22","159459","0.0-4.0-0.9","274","1","2022-10-15 11:24:51","d60b49b5908c80e163b920d72b52d584","113.220.122.19","Mozilla/5.0 (Linux; Android 7.0; TRT-AL00A Build/HUAWEITRT-AL00A; wv) AppleWebKit/537.36 (KHTML, like Gecko) Version/4.0 Chrome/86.0.4240.99 XWEB/4316 MMWEBSDK/20220604 Mobile Safari/537.36 MMWEBID/5688 MicroMessenger/8.0.24.2180(0x28001836) WeChat/arm32 Weixin NetType/WIFI Language/zh_CN ABI/arm32","WebKit","Chrome","86.0.4240.99","AndroidOS","7.0","null","<div style=""font-size:60px;"">+</div>","null",""
"","","","","","html-button-response","23","160084","0.0-4.0-1.9","274","1","2022-10-15 11:24:51","d60b49b5908c80e163b920d72b52d584","113.220.122.19","Mozilla/5.0 (Linux; Android 7.0; TRT-AL00A Build/HUAWEITRT-AL00A; wv) AppleWebKit/537.36 (KHTML, like Gecko) Version/4.0 Chrome/86.0.4240.99 XWEB/4316 MMWEBSDK/20220604 Mobile Safari/537.36 MMWEBID/5688 MicroMessenger/8.0.24.2180(0x28001836) WeChat/arm32 Weixin NetType/WIFI Language/zh_CN ABI/arm32","WebKit","Chrome","86.0.4240.99","AndroidOS","7.0","607","<p>作为军队的指挥官，你可以选择发射导弹杀死 <strong>8名</strong> 敌国士兵，但会炸毁附近的 <strong>1棵</strong> 敌国树木。</p> <p>树木的照片如下图所示。</p> <p></p> <img src='stimuli/trees/13.png', style='max-width: 30%;'> </img> <p><strong>你是否选择发射武器？</strong></p>","0",""
"","","","","","html-keyboard-response","24","161097","0.0-4.0-0.10","274","1","2022-10-15 11:24:51","d60b49b5908c80e163b920d72b52d584","113.220.122.19","Mozilla/5.0 (Linux; Android 7.0; TRT-AL00A Build/HUAWEITRT-AL00A; wv) AppleWebKit/537.36 (KHTML, like Gecko) Version/4.0 Chrome/86.0.4240.99 XWEB/4316 MMWEBSDK/20220604 Mobile Safari/537.36 MMWEBID/5688 MicroMessenger/8.0.24.2180(0x28001836) WeChat/arm32 Weixin NetType/WIFI Language/zh_CN ABI/arm32","WebKit","Chrome","86.0.4240.99","AndroidOS","7.0","null","<div style=""font-size:60px;"">+</div>","null",""
"","","","","","html-button-response","25","161654","0.0-4.0-1.10","274","1","2022-10-15 11:24:51","d60b49b5908c80e163b920d72b52d584","113.220.122.19","Mozilla/5.0 (Linux; Android 7.0; TRT-AL00A Build/HUAWEITRT-AL00A; wv) AppleWebKit/537.36 (KHTML, like Gecko) Version/4.0 Chrome/86.0.4240.99 XWEB/4316 MMWEBSDK/20220604 Mobile Safari/537.36 MMWEBID/5688 MicroMessenger/8.0.24.2180(0x28001836) WeChat/arm32 Weixin NetType/WIFI Language/zh_CN ABI/arm32","WebKit","Chrome","86.0.4240.99","AndroidOS","7.0","541","<p>作为军队的指挥官，你可以选择发射导弹杀死 <strong>6名</strong> 敌国士兵，但会炸毁附近的 <strong>1棵</strong> 敌国树木。</p> <p>树木的照片如下图所示。</p> <p></p> <img src='stimuli/trees/15.png', style='max-width: 30%;'> </img> <p><strong>你是否选择发射武器？</strong></p>","0",""
"","","","","","html-keyboard-response","26","162671","0.0-4.0-0.11","274","1","2022-10-15 11:24:51","d60b49b5908c80e163b920d72b52d584","113.220.122.19","Mozilla/5.0 (Linux; Android 7.0; TRT-AL00A Build/HUAWEITRT-AL00A; wv) AppleWebKit/537.36 (KHTML, like Gecko) Version/4.0 Chrome/86.0.4240.99 XWEB/4316 MMWEBSDK/20220604 Mobile Safari/537.36 MMWEBID/5688 MicroMessenger/8.0.24.2180(0x28001836) WeChat/arm32 Weixin NetType/WIFI Language/zh_CN ABI/arm32","WebKit","Chrome","86.0.4240.99","AndroidOS","7.0","null","<div style=""font-size:60px;"">+</div>","null",""
"","","","","","html-button-response","27","163308","0.0-4.0-1.11","274","1","2022-10-15 11:24:51","d60b49b5908c80e163b920d72b52d584","113.220.122.19","Mozilla/5.0 (Linux; Android 7.0; TRT-AL00A Build/HUAWEITRT-AL00A; wv) AppleWebKit/537.36 (KHTML, like Gecko) Version/4.0 Chrome/86.0.4240.99 XWEB/4316 MMWEBSDK/20220604 Mobile Safari/537.36 MMWEBID/5688 MicroMessenger/8.0.24.2180(0x28001836) WeChat/arm32 Weixin NetType/WIFI Language/zh_CN ABI/arm32","WebKit","Chrome","86.0.4240.99","AndroidOS","7.0","619","<p>作为军队的指挥官，你可以选择发射导弹杀死 <strong>1名</strong> 敌国士兵，但会炸毁附近的 <strong>1棵</strong> 敌国树木。</p> <p>树木的照片如下图所示。</p> <p></p> <img src='stimuli/trees/4.png', style='max-width: 30%;'> </img> <p><strong>你是否选择发射武器？</strong></p>","0",""
"","","","","","html-keyboard-response","28","164325","0.0-4.0-0.12","274","1","2022-10-15 11:24:51","d60b49b5908c80e163b920d72b52d584","113.220.122.19","Mozilla/5.0 (Linux; Android 7.0; TRT-AL00A Build/HUAWEITRT-AL00A; wv) AppleWebKit/537.36 (KHTML, like Gecko) Version/4.0 Chrome/86.0.4240.99 XWEB/4316 MMWEBSDK/20220604 Mobile Safari/537.36 MMWEBID/5688 MicroMessenger/8.0.24.2180(0x28001836) WeChat/arm32 Weixin NetType/WIFI Language/zh_CN ABI/arm32","WebKit","Chrome","86.0.4240.99","AndroidOS","7.0","null","<div style=""font-size:60px;"">+</div>","null",""
"","","","","","html-button-response","29","171278","0.0-4.0-1.12","274","1","2022-10-15 11:24:51","d60b49b5908c80e163b920d72b52d584","113.220.122.19","Mozilla/5.0 (Linux; Android 7.0; TRT-AL00A Build/HUAWEITRT-AL00A; wv) AppleWebKit/537.36 (KHTML, like Gecko) Version/4.0 Chrome/86.0.4240.99 XWEB/4316 MMWEBSDK/20220604 Mobile Safari/537.36 MMWEBID/5688 MicroMessenger/8.0.24.2180(0x28001836) WeChat/arm32 Weixin NetType/WIFI Language/zh_CN ABI/arm32","WebKit","Chrome","86.0.4240.99","AndroidOS","7.0","6933","<p>作为军队的指挥官，你可以选择发射导弹杀死 <strong>9名</strong> 敌国士兵，但会误杀附近的 <strong>1名</strong> 敌国平民。</p> <p>平民照片如下图所示。</p> <p></p> <img src='stimuli/faces/NCM5.jpg', style='max-width: 30%;'> </img> <p><strong>你是否选择发射武器？</strong></p>","1",""
"","","","","","html-keyboard-response","30","172292","0.0-4.0-0.13","274","1","2022-10-15 11:24:51","d60b49b5908c80e163b920d72b52d584","113.220.122.19","Mozilla/5.0 (Linux; Android 7.0; TRT-AL00A Build/HUAWEITRT-AL00A; wv) AppleWebKit/537.36 (KHTML, like Gecko) Version/4.0 Chrome/86.0.4240.99 XWEB/4316 MMWEBSDK/20220604 Mobile Safari/537.36 MMWEBID/5688 MicroMessenger/8.0.24.2180(0x28001836) WeChat/arm32 Weixin NetType/WIFI Language/zh_CN ABI/arm32","WebKit","Chrome","86.0.4240.99","AndroidOS","7.0","null","<div style=""font-size:60px;"">+</div>","null",""
"","","","","","html-button-response","31","173422","0.0-4.0-1.13","274","1","2022-10-15 11:24:51","d60b49b5908c80e163b920d72b52d584","113.220.122.19","Mozilla/5.0 (Linux; Android 7.0; TRT-AL00A Build/HUAWEITRT-AL00A; wv) AppleWebKit/537.36 (KHTML, like Gecko) Version/4.0 Chrome/86.0.4240.99 XWEB/4316 MMWEBSDK/20220604 Mobile Safari/537.36 MMWEBID/5688 MicroMessenger/8.0.24.2180(0x28001836) WeChat/arm32 Weixin NetType/WIFI Language/zh_CN ABI/arm32","WebKit","Chrome","86.0.4240.99","AndroidOS","7.0","1109","<p>作为军队的指挥官，你可以选择发射导弹杀死 <strong>10名</strong> 敌国士兵，但会误杀附近的 <strong>1名</strong> 敌国平民。</p> <p>平民照片如下图所示。</p> <p></p> <img src='stimuli/faces/NCF3.jpg', style='max-width: 30%;'> </img> <p><strong>你是否选择发射武器？</strong></p>","0",""
"","","","","","html-keyboard-response","32","174465","0.0-4.0-0.14","274","1","2022-10-15 11:24:51","d60b49b5908c80e163b920d72b52d584","113.220.122.19","Mozilla/5.0 (Linux; Android 7.0; TRT-AL00A Build/HUAWEITRT-AL00A; wv) AppleWebKit/537.36 (KHTML, like Gecko) Version/4.0 Chrome/86.0.4240.99 XWEB/4316 MMWEBSDK/20220604 Mobile Safari/537.36 MMWEBID/5688 MicroMessenger/8.0.24.2180(0x28001836) WeChat/arm32 Weixin NetType/WIFI Language/zh_CN ABI/arm32","WebKit","Chrome","86.0.4240.99","AndroidOS","7.0","null","<div style=""font-size:60px;"">+</div>","null",""
"","","","","","html-button-response","33","175071","0.0-4.0-1.14","274","1","2022-10-15 11:24:51","d60b49b5908c80e163b920d72b52d584","113.220.122.19","Mozilla/5.0 (Linux; Android 7.0; TRT-AL00A Build/HUAWEITRT-AL00A; wv) AppleWebKit/537.36 (KHTML, like Gecko) Version/4.0 Chrome/86.0.4240.99 XWEB/4316 MMWEBSDK/20220604 Mobile Safari/537.36 MMWEBID/5688 MicroMessenger/8.0.24.2180(0x28001836) WeChat/arm32 Weixin NetType/WIFI Language/zh_CN ABI/arm32","WebKit","Chrome","86.0.4240.99","AndroidOS","7.0","585","<p>作为军队的指挥官，你可以选择发射导弹杀死 <strong>10名</strong> 敌国士兵，但会炸毁附近的 <strong>1棵</strong> 敌国树木。</p> <p>树木的照片如下图所示。</p> <p></p> <img src='stimuli/trees/8.png', style='max-width: 30%;'> </img> <p><strong>你是否选择发射武器？</strong></p>","0",""
"","","","","","html-keyboard-response","34","176089","0.0-4.0-0.15","274","1","2022-10-15 11:24:51","d60b49b5908c80e163b920d72b52d584","113.220.122.19","Mozilla/5.0 (Linux; Android 7.0; TRT-AL00A Build/HUAWEITRT-AL00A; wv) AppleWebKit/537.36 (KHTML, like Gecko) Version/4.0 Chrome/86.0.4240.99 XWEB/4316 MMWEBSDK/20220604 Mobile Safari/537.36 MMWEBID/5688 MicroMessenger/8.0.24.2180(0x28001836) WeChat/arm32 Weixin NetType/WIFI Language/zh_CN ABI/arm32","WebKit","Chrome","86.0.4240.99","AndroidOS","7.0","null","<div style=""font-size:60px;"">+</div>","null",""
"","","","","","html-button-response","35","176740","0.0-4.0-1.15","274","1","2022-10-15 11:24:51","d60b49b5908c80e163b920d72b52d584","113.220.122.19","Mozilla/5.0 (Linux; Android 7.0; TRT-AL00A Build/HUAWEITRT-AL00A; wv) AppleWebKit/537.36 (KHTML, like Gecko) Version/4.0 Chrome/86.0.4240.99 XWEB/4316 MMWEBSDK/20220604 Mobile Safari/537.36 MMWEBID/5688 MicroMessenger/8.0.24.2180(0x28001836) WeChat/arm32 Weixin NetType/WIFI Language/zh_CN ABI/arm32","WebKit","Chrome","86.0.4240.99","AndroidOS","7.0","632","<p>作为军队的指挥官，你可以选择发射导弹杀死 <strong>3名</strong> 敌国士兵，但会炸毁附近的 <strong>1棵</strong> 敌国树木。</p> <p>树木的照片如下图所示。</p> <p></p> <img src='stimuli/trees/2.png', style='max-width: 30%;'> </img> <p><strong>你是否选择发射武器？</strong></p>","0",""
"","","","","","html-keyboard-response","36","177756","0.0-4.0-0.16","274","1","2022-10-15 11:24:51","d60b49b5908c80e163b920d72b52d584","113.220.122.19","Mozilla/5.0 (Linux; Android 7.0; TRT-AL00A Build/HUAWEITRT-AL00A; wv) AppleWebKit/537.36 (KHTML, like Gecko) Version/4.0 Chrome/86.0.4240.99 XWEB/4316 MMWEBSDK/20220604 Mobile Safari/537.36 MMWEBID/5688 MicroMessenger/8.0.24.2180(0x28001836) WeChat/arm32 Weixin NetType/WIFI Language/zh_CN ABI/arm32","WebKit","Chrome","86.0.4240.99","AndroidOS","7.0","null","<div style=""font-size:60px;"">+</div>","null",""
"","","","","","html-button-response","37","178330","0.0-4.0-1.16","274","1","2022-10-15 11:24:51","d60b49b5908c80e163b920d72b52d584","113.220.122.19","Mozilla/5.0 (Linux; Android 7.0; TRT-AL00A Build/HUAWEITRT-AL00A; wv) AppleWebKit/537.36 (KHTML, like Gecko) Version/4.0 Chrome/86.0.4240.99 XWEB/4316 MMWEBSDK/20220604 Mobile Safari/537.36 MMWEBID/5688 MicroMessenger/8.0.24.2180(0x28001836) WeChat/arm32 Weixin NetType/WIFI Language/zh_CN ABI/arm32","WebKit","Chrome","86.0.4240.99","AndroidOS","7.0","554","<p>作为军队的指挥官，你可以选择发射导弹杀死 <strong>9名</strong> 敌国士兵，但会误杀附近的 <strong>1名</strong> 敌国平民。</p> <p>平民照片如下图所示。</p> <p></p> <img src='stimuli/faces/NCM2.jpg', style='max-width: 30%;'> </img> <p><strong>你是否选择发射武器？</strong></p>","1",""
"","","","","","html-keyboard-response","38","179341","0.0-4.0-0.17","274","1","2022-10-15 11:24:51","d60b49b5908c80e163b920d72b52d584","113.220.122.19","Mozilla/5.0 (Linux; Android 7.0; TRT-AL00A Build/HUAWEITRT-AL00A; wv) AppleWebKit/537.36 (KHTML, like Gecko) Version/4.0 Chrome/86.0.4240.99 XWEB/4316 MMWEBSDK/20220604 Mobile Safari/537.36 MMWEBID/5688 MicroMessenger/8.0.24.2180(0x28001836) WeChat/arm32 Weixin NetType/WIFI Language/zh_CN ABI/arm32","WebKit","Chrome","86.0.4240.99","AndroidOS","7.0","null","<div style=""font-size:60px;"">+</div>","null",""
"","","","","","html-button-response","39","179918","0.0-4.0-1.17","274","1","2022-10-15 11:24:51","d60b49b5908c80e163b920d72b52d584","113.220.122.19","Mozilla/5.0 (Linux; Android 7.0; TRT-AL00A Build/HUAWEITRT-AL00A; wv) AppleWebKit/537.36 (KHTML, like Gecko) Version/4.0 Chrome/86.0.4240.99 XWEB/4316 MMWEBSDK/20220604 Mobile Safari/537.36 MMWEBID/5688 MicroMessenger/8.0.24.2180(0x28001836) WeChat/arm32 Weixin NetType/WIFI Language/zh_CN ABI/arm32","WebKit","Chrome","86.0.4240.99","AndroidOS","7.0","557","<p>作为军队的指挥官，你可以选择发射导弹杀死 <strong>7名</strong> 敌国士兵，但会炸毁附近的 <strong>1棵</strong> 敌国树木。</p> <p>树木的照片如下图所示。</p> <p></p> <img src='stimuli/trees/11.png', style='max-width: 30%;'> </img> <p><strong>你是否选择发射武器？</strong></p>","0",""
"","","","","","html-keyboard-response","40","180933","0.0-4.0-0.18","274","1","2022-10-15 11:24:51","d60b49b5908c80e163b920d72b52d584","113.220.122.19","Mozilla/5.0 (Linux; Android 7.0; TRT-AL00A Build/HUAWEITRT-AL00A; wv) AppleWebKit/537.36 (KHTML, like Gecko) Version/4.0 Chrome/86.0.4240.99 XWEB/4316 MMWEBSDK/20220604 Mobile Safari/537.36 MMWEBID/5688 MicroMessenger/8.0.24.2180(0x28001836) WeChat/arm32 Weixin NetType/WIFI Language/zh_CN ABI/arm32","WebKit","Chrome","86.0.4240.99","AndroidOS","7.0","null","<div style=""font-size:60px;"">+</div>","null",""
"","","","","","html-button-response","41","181789","0.0-4.0-1.18","274","1","2022-10-15 11:24:51","d60b49b5908c80e163b920d72b52d584","113.220.122.19","Mozilla/5.0 (Linux; Android 7.0; TRT-AL00A Build/HUAWEITRT-AL00A; wv) AppleWebKit/537.36 (KHTML, like Gecko) Version/4.0 Chrome/86.0.4240.99 XWEB/4316 MMWEBSDK/20220604 Mobile Safari/537.36 MMWEBID/5688 MicroMessenger/8.0.24.2180(0x28001836) WeChat/arm32 Weixin NetType/WIFI Language/zh_CN ABI/arm32","WebKit","Chrome","86.0.4240.99","AndroidOS","7.0","830","<p>作为军队的指挥官，你可以选择发射导弹杀死 <strong>2名</strong> 敌国士兵，但会炸毁附近的 <strong>1棵</strong> 敌国树木。</p> <p>树木的照片如下图所示。</p> <p></p> <img src='stimuli/trees/11.png', style='max-width: 30%;'> </img> <p><strong>你是否选择发射武器？</strong></p>","0",""
"","","","","","html-keyboard-response","42","182809","0.0-4.0-0.19","274","1","2022-10-15 11:24:51","d60b49b5908c80e163b920d72b52d584","113.220.122.19","Mozilla/5.0 (Linux; Android 7.0; TRT-AL00A Build/HUAWEITRT-AL00A; wv) AppleWebKit/537.36 (KHTML, like Gecko) Version/4.0 Chrome/86.0.4240.99 XWEB/4316 MMWEBSDK/20220604 Mobile Safari/537.36 MMWEBID/5688 MicroMessenger/8.0.24.2180(0x28001836) WeChat/arm32 Weixin NetType/WIFI Language/zh_CN ABI/arm32","WebKit","Chrome","86.0.4240.99","AndroidOS","7.0","null","<div style=""font-size:60px;"">+</div>","null",""
"","","","","","html-button-response","43","188505","0.0-4.0-1.19","274","1","2022-10-15 11:24:51","d60b49b5908c80e163b920d72b52d584","113.220.122.19","Mozilla/5.0 (Linux; Android 7.0; TRT-AL00A Build/HUAWEITRT-AL00A; wv) AppleWebKit/537.36 (KHTML, like Gecko) Version/4.0 Chrome/86.0.4240.99 XWEB/4316 MMWEBSDK/20220604 Mobile Safari/537.36 MMWEBID/5688 MicroMessenger/8.0.24.2180(0x28001836) WeChat/arm32 Weixin NetType/WIFI Language/zh_CN ABI/arm32","WebKit","Chrome","86.0.4240.99","AndroidOS","7.0","5672","<p>作为军队的指挥官，你可以选择发射导弹杀死 <strong>8名</strong> 敌国士兵，但会炸毁附近的 <strong>1棵</strong> 敌国树木。</p> <p>树木的照片如下图所示。</p> <p></p> <img src='stimuli/trees/7.png', style='max-width: 30%;'> </img> <p><strong>你是否选择发射武器？</strong></p>","1",""
"","","","","","html-keyboard-response","44","189522","0.0-4.0-0.20","274","1","2022-10-15 11:24:51","d60b49b5908c80e163b920d72b52d584","113.220.122.19","Mozilla/5.0 (Linux; Android 7.0; TRT-AL00A Build/HUAWEITRT-AL00A; wv) AppleWebKit/537.36 (KHTML, like Gecko) Version/4.0 Chrome/86.0.4240.99 XWEB/4316 MMWEBSDK/20220604 Mobile Safari/537.36 MMWEBID/5688 MicroMessenger/8.0.24.2180(0x28001836) WeChat/arm32 Weixin NetType/WIFI Language/zh_CN ABI/arm32","WebKit","Chrome","86.0.4240.99","AndroidOS","7.0","null","<div style=""font-size:60px;"">+</div>","null",""
"","","","","","html-button-response","45","190507","0.0-4.0-1.20","274","1","2022-10-15 11:24:51","d60b49b5908c80e163b920d72b52d584","113.220.122.19","Mozilla/5.0 (Linux; Android 7.0; TRT-AL00A Build/HUAWEITRT-AL00A; wv) AppleWebKit/537.36 (KHTML, like Gecko) Version/4.0 Chrome/86.0.4240.99 XWEB/4316 MMWEBSDK/20220604 Mobile Safari/537.36 MMWEBID/5688 MicroMessenger/8.0.24.2180(0x28001836) WeChat/arm32 Weixin NetType/WIFI Language/zh_CN ABI/arm32","WebKit","Chrome","86.0.4240.99","AndroidOS","7.0","951","<p>作为军队的指挥官，你可以选择发射导弹杀死 <strong>3名</strong> 敌国士兵，但会炸毁附近的 <strong>1棵</strong> 敌国树木。</p> <p>树木的照片如下图所示。</p> <p></p> <img src='stimuli/trees/15.png', style='max-width: 30%;'> </img> <p><strong>你是否选择发射武器？</strong></p>","0",""
"","","","","","html-keyboard-response","46","191521","0.0-4.0-0.21","274","1","2022-10-15 11:24:51","d60b49b5908c80e163b920d72b52d584","113.220.122.19","Mozilla/5.0 (Linux; Android 7.0; TRT-AL00A Build/HUAWEITRT-AL00A; wv) AppleWebKit/537.36 (KHTML, like Gecko) Version/4.0 Chrome/86.0.4240.99 XWEB/4316 MMWEBSDK/20220604 Mobile Safari/537.36 MMWEBID/5688 MicroMessenger/8.0.24.2180(0x28001836) WeChat/arm32 Weixin NetType/WIFI Language/zh_CN ABI/arm32","WebKit","Chrome","86.0.4240.99","AndroidOS","7.0","null","<div style=""font-size:60px;"">+</div>","null",""
"","","","","","html-button-response","47","193251","0.0-4.0-1.21","274","1","2022-10-15 11:24:51","d60b49b5908c80e163b920d72b52d584","113.220.122.19","Mozilla/5.0 (Linux; Android 7.0; TRT-AL00A Build/HUAWEITRT-AL00A; wv) AppleWebKit/537.36 (KHTML, like Gecko) Version/4.0 Chrome/86.0.4240.99 XWEB/4316 MMWEBSDK/20220604 Mobile Safari/537.36 MMWEBID/5688 MicroMessenger/8.0.24.2180(0x28001836) WeChat/arm32 Weixin NetType/WIFI Language/zh_CN ABI/arm32","WebKit","Chrome","86.0.4240.99","AndroidOS","7.0","1708","<p>作为军队的指挥官，你可以选择发射导弹杀死 <strong>5名</strong> 敌国士兵，但会炸毁附近的 <strong>1棵</strong> 敌国树木。</p> <p>树木的照片如下图所示。</p> <p></p> <img src='stimuli/trees/16.png', style='max-width: 30%;'> </img> <p><strong>你是否选择发射武器？</strong></p>","0",""
"","","","","","html-keyboard-response","48","194271","0.0-4.0-0.22","274","1","2022-10-15 11:24:51","d60b49b5908c80e163b920d72b52d584","113.220.122.19","Mozilla/5.0 (Linux; Android 7.0; TRT-AL00A Build/HUAWEITRT-AL00A; wv) AppleWebKit/537.36 (KHTML, like Gecko) Version/4.0 Chrome/86.0.4240.99 XWEB/4316 MMWEBSDK/20220604 Mobile Safari/537.36 MMWEBID/5688 MicroMessenger/8.0.24.2180(0x28001836) WeChat/arm32 Weixin NetType/WIFI Language/zh_CN ABI/arm32","WebKit","Chrome","86.0.4240.99","AndroidOS","7.0","null","<div style=""font-size:60px;"">+</div>","null",""
"","","","","","html-button-response","49","194972","0.0-4.0-1.22","274","1","2022-10-15 11:24:51","d60b49b5908c80e163b920d72b52d584","113.220.122.19","Mozilla/5.0 (Linux; Android 7.0; TRT-AL00A Build/HUAWEITRT-AL00A; wv) AppleWebKit/537.36 (KHTML, like Gecko) Version/4.0 Chrome/86.0.4240.99 XWEB/4316 MMWEBSDK/20220604 Mobile Safari/537.36 MMWEBID/5688 MicroMessenger/8.0.24.2180(0x28001836) WeChat/arm32 Weixin NetType/WIFI Language/zh_CN ABI/arm32","WebKit","Chrome","86.0.4240.99","AndroidOS","7.0","675","<p>作为军队的指挥官，你可以选择发射导弹杀死 <strong>3名</strong> 敌国士兵，但会误杀附近的 <strong>1名</strong> 敌国平民。</p> <p>平民照片如下图所示。</p> <p></p> <img src='stimuli/faces/NCM1.jpg', style='max-width: 30%;'> </img> <p><strong>你是否选择发射武器？</strong></p>","0",""
"","","","","","html-keyboard-response","50","195993","0.0-4.0-0.23","274","1","2022-10-15 11:24:51","d60b49b5908c80e163b920d72b52d584","113.220.122.19","Mozilla/5.0 (Linux; Android 7.0; TRT-AL00A Build/HUAWEITRT-AL00A; wv) AppleWebKit/537.36 (KHTML, like Gecko) Version/4.0 Chrome/86.0.4240.99 XWEB/4316 MMWEBSDK/20220604 Mobile Safari/537.36 MMWEBID/5688 MicroMessenger/8.0.24.2180(0x28001836) WeChat/arm32 Weixin NetType/WIFI Language/zh_CN ABI/arm32","WebKit","Chrome","86.0.4240.99","AndroidOS","7.0","null","<div style=""font-size:60px;"">+</div>","null",""
"","","","","","html-button-response","51","196631","0.0-4.0-1.23","274","1","2022-10-15 11:24:51","d60b49b5908c80e163b920d72b52d584","113.220.122.19","Mozilla/5.0 (Linux; Android 7.0; TRT-AL00A Build/HUAWEITRT-AL00A; wv) AppleWebKit/537.36 (KHTML, like Gecko) Version/4.0 Chrome/86.0.4240.99 XWEB/4316 MMWEBSDK/20220604 Mobile Safari/537.36 MMWEBID/5688 MicroMessenger/8.0.24.2180(0x28001836) WeChat/arm32 Weixin NetType/WIFI Language/zh_CN ABI/arm32","WebKit","Chrome","86.0.4240.99","AndroidOS","7.0","612","<p>作为军队的指挥官，你可以选择发射导弹杀死 <strong>10名</strong> 敌国士兵，但会炸毁附近的 <strong>1棵</strong> 敌国树木。</p> <p>树木的照片如下图所示。</p> <p></p> <img src='stimuli/trees/10.png', style='max-width: 30%;'> </img> <p><strong>你是否选择发射武器？</strong></p>","1",""
"","","","","","html-keyboard-response","52","197650","0.0-4.0-0.24","274","1","2022-10-15 11:24:51","d60b49b5908c80e163b920d72b52d584","113.220.122.19","Mozilla/5.0 (Linux; Android 7.0; TRT-AL00A Build/HUAWEITRT-AL00A; wv) AppleWebKit/537.36 (KHTML, like Gecko) Version/4.0 Chrome/86.0.4240.99 XWEB/4316 MMWEBSDK/20220604 Mobile Safari/537.36 MMWEBID/5688 MicroMessenger/8.0.24.2180(0x28001836) WeChat/arm32 Weixin NetType/WIFI Language/zh_CN ABI/arm32","WebKit","Chrome","86.0.4240.99","AndroidOS","7.0","null","<div style=""font-size:60px;"">+</div>","null",""
"","","","","","html-button-response","53","199365","0.0-4.0-1.24","274","1","2022-10-15 11:24:51","d60b49b5908c80e163b920d72b52d584","113.220.122.19","Mozilla/5.0 (Linux; Android 7.0; TRT-AL00A Build/HUAWEITRT-AL00A; wv) AppleWebKit/537.36 (KHTML, like Gecko) Version/4.0 Chrome/86.0.4240.99 XWEB/4316 MMWEBSDK/20220604 Mobile Safari/537.36 MMWEBID/5688 MicroMessenger/8.0.24.2180(0x28001836) WeChat/arm32 Weixin NetType/WIFI Language/zh_CN ABI/arm32","WebKit","Chrome","86.0.4240.99","AndroidOS","7.0","1689","<p>作为军队的指挥官，你可以选择发射导弹杀死 <strong>7名</strong> 敌国士兵，但会炸毁附近的 <strong>1棵</strong> 敌国树木。</p> <p>树木的照片如下图所示。</p> <p></p> <img src='stimuli/trees/3.png', style='max-width: 30%;'> </img> <p><strong>你是否选择发射武器？</strong></p>","0",""
"","","","","","html-keyboard-response","54","200380","0.0-4.0-0.25","274","1","2022-10-15 11:24:51","d60b49b5908c80e163b920d72b52d584","113.220.122.19","Mozilla/5.0 (Linux; Android 7.0; TRT-AL00A Build/HUAWEITRT-AL00A; wv) AppleWebKit/537.36 (KHTML, like Gecko) Version/4.0 Chrome/86.0.4240.99 XWEB/4316 MMWEBSDK/20220604 Mobile Safari/537.36 MMWEBID/5688 MicroMessenger/8.0.24.2180(0x28001836) WeChat/arm32 Weixin NetType/WIFI Language/zh_CN ABI/arm32","WebKit","Chrome","86.0.4240.99","AndroidOS","7.0","null","<div style=""font-size:60px;"">+</div>","null",""
"","","","","","html-button-response","55","203744","0.0-4.0-1.25","274","1","2022-10-15 11:24:51","d60b49b5908c80e163b920d72b52d584","113.220.122.19","Mozilla/5.0 (Linux; Android 7.0; TRT-AL00A Build/HUAWEITRT-AL00A; wv) AppleWebKit/537.36 (KHTML, like Gecko) Version/4.0 Chrome/86.0.4240.99 XWEB/4316 MMWEBSDK/20220604 Mobile Safari/537.36 MMWEBID/5688 MicroMessenger/8.0.24.2180(0x28001836) WeChat/arm32 Weixin NetType/WIFI Language/zh_CN ABI/arm32","WebKit","Chrome","86.0.4240.99","AndroidOS","7.0","3322","<p>作为军队的指挥官，你可以选择发射导弹杀死 <strong>9名</strong> 敌国士兵，但会炸毁附近的 <strong>1棵</strong> 敌国树木。</p> <p>树木的照片如下图所示。</p> <p></p> <img src='stimuli/trees/6.png', style='max-width: 30%;'> </img> <p><strong>你是否选择发射武器？</strong></p>","1",""
"","","","","","html-keyboard-response","56","204766","0.0-4.0-0.26","274","1","2022-10-15 11:24:51","d60b49b5908c80e163b920d72b52d584","113.220.122.19","Mozilla/5.0 (Linux; Android 7.0; TRT-AL00A Build/HUAWEITRT-AL00A; wv) AppleWebKit/537.36 (KHTML, like Gecko) Version/4.0 Chrome/86.0.4240.99 XWEB/4316 MMWEBSDK/20220604 Mobile Safari/537.36 MMWEBID/5688 MicroMessenger/8.0.24.2180(0x28001836) WeChat/arm32 Weixin NetType/WIFI Language/zh_CN ABI/arm32","WebKit","Chrome","86.0.4240.99","AndroidOS","7.0","null","<div style=""font-size:60px;"">+</div>","null",""
"","","","","","html-button-response","57","205499","0.0-4.0-1.26","274","1","2022-10-15 11:24:51","d60b49b5908c80e163b920d72b52d584","113.220.122.19","Mozilla/5.0 (Linux; Android 7.0; TRT-AL00A Build/HUAWEITRT-AL00A; wv) AppleWebKit/537.36 (KHTML, like Gecko) Version/4.0 Chrome/86.0.4240.99 XWEB/4316 MMWEBSDK/20220604 Mobile Safari/537.36 MMWEBID/5688 MicroMessenger/8.0.24.2180(0x28001836) WeChat/arm32 Weixin NetType/WIFI Language/zh_CN ABI/arm32","WebKit","Chrome","86.0.4240.99","AndroidOS","7.0","703","<p>作为军队的指挥官，你可以选择发射导弹杀死 <strong>3名</strong> 敌国士兵，但会误杀附近的 <strong>1名</strong> 敌国平民。</p> <p>平民照片如下图所示。</p> <p></p> <img src='stimuli/faces/NCF1.jpg', style='max-width: 30%;'> </img> <p><strong>你是否选择发射武器？</strong></p>","0",""
"","","","","","html-keyboard-response","58","206520","0.0-4.0-0.27","274","1","2022-10-15 11:24:51","d60b49b5908c80e163b920d72b52d584","113.220.122.19","Mozilla/5.0 (Linux; Android 7.0; TRT-AL00A Build/HUAWEITRT-AL00A; wv) AppleWebKit/537.36 (KHTML, like Gecko) Version/4.0 Chrome/86.0.4240.99 XWEB/4316 MMWEBSDK/20220604 Mobile Safari/537.36 MMWEBID/5688 MicroMessenger/8.0.24.2180(0x28001836) WeChat/arm32 Weixin NetType/WIFI Language/zh_CN ABI/arm32","WebKit","Chrome","86.0.4240.99","AndroidOS","7.0","null","<div style=""font-size:60px;"">+</div>","null",""
"","","","","","html-button-response","59","207204","0.0-4.0-1.27","274","1","2022-10-15 11:24:51","d60b49b5908c80e163b920d72b52d584","113.220.122.19","Mozilla/5.0 (Linux; Android 7.0; TRT-AL00A Build/HUAWEITRT-AL00A; wv) AppleWebKit/537.36 (KHTML, like Gecko) Version/4.0 Chrome/86.0.4240.99 XWEB/4316 MMWEBSDK/20220604 Mobile Safari/537.36 MMWEBID/5688 MicroMessenger/8.0.24.2180(0x28001836) WeChat/arm32 Weixin NetType/WIFI Language/zh_CN ABI/arm32","WebKit","Chrome","86.0.4240.99","AndroidOS","7.0","659","<p>作为军队的指挥官，你可以选择发射导弹杀死 <strong>4名</strong> 敌国士兵，但会炸毁附近的 <strong>1棵</strong> 敌国树木。</p> <p>树木的照片如下图所示。</p> <p></p> <img src='stimuli/trees/3.png', style='max-width: 30%;'> </img> <p><strong>你是否选择发射武器？</strong></p>","0",""
"","","","","","html-keyboard-response","60","208224","0.0-4.0-0.28","274","1","2022-10-15 11:24:51","d60b49b5908c80e163b920d72b52d584","113.220.122.19","Mozilla/5.0 (Linux; Android 7.0; TRT-AL00A Build/HUAWEITRT-AL00A; wv) AppleWebKit/537.36 (KHTML, like Gecko) Version/4.0 Chrome/86.0.4240.99 XWEB/4316 MMWEBSDK/20220604 Mobile Safari/537.36 MMWEBID/5688 MicroMessenger/8.0.24.2180(0x28001836) WeChat/arm32 Weixin NetType/WIFI Language/zh_CN ABI/arm32","WebKit","Chrome","86.0.4240.99","AndroidOS","7.0","null","<div style=""font-size:60px;"">+</div>","null",""
"","","","","","html-button-response","61","208925","0.0-4.0-1.28","274","1","2022-10-15 11:24:51","d60b49b5908c80e163b920d72b52d584","113.220.122.19","Mozilla/5.0 (Linux; Android 7.0; TRT-AL00A Build/HUAWEITRT-AL00A; wv) AppleWebKit/537.36 (KHTML, like Gecko) Version/4.0 Chrome/86.0.4240.99 XWEB/4316 MMWEBSDK/20220604 Mobile Safari/537.36 MMWEBID/5688 MicroMessenger/8.0.24.2180(0x28001836) WeChat/arm32 Weixin NetType/WIFI Language/zh_CN ABI/arm32","WebKit","Chrome","86.0.4240.99","AndroidOS","7.0","675","<p>作为军队的指挥官，你可以选择发射导弹杀死 <strong>4名</strong> 敌国士兵，但会误杀附近的 <strong>1名</strong> 敌国平民。</p> <p>平民照片如下图所示。</p> <p></p> <img src='stimuli/faces/NCF6.jpg', style='max-width: 30%;'> </img> <p><strong>你是否选择发射武器？</strong></p>","0",""
"","","","","","html-keyboard-response","62","209950","0.0-4.0-0.29","274","1","2022-10-15 11:24:51","d60b49b5908c80e163b920d72b52d584","113.220.122.19","Mozilla/5.0 (Linux; Android 7.0; TRT-AL00A Build/HUAWEITRT-AL00A; wv) AppleWebKit/537.36 (KHTML, like Gecko) Version/4.0 Chrome/86.0.4240.99 XWEB/4316 MMWEBSDK/20220604 Mobile Safari/537.36 MMWEBID/5688 MicroMessenger/8.0.24.2180(0x28001836) WeChat/arm32 Weixin NetType/WIFI Language/zh_CN ABI/arm32","WebKit","Chrome","86.0.4240.99","AndroidOS","7.0","null","<div style=""font-size:60px;"">+</div>","null",""
"","","","","","html-button-response","63","210562","0.0-4.0-1.29","274","1","2022-10-15 11:24:51","d60b49b5908c80e163b920d72b52d584","113.220.122.19","Mozilla/5.0 (Linux; Android 7.0; TRT-AL00A Build/HUAWEITRT-AL00A; wv) AppleWebKit/537.36 (KHTML, like Gecko) Version/4.0 Chrome/86.0.4240.99 XWEB/4316 MMWEBSDK/20220604 Mobile Safari/537.36 MMWEBID/5688 MicroMessenger/8.0.24.2180(0x28001836) WeChat/arm32 Weixin NetType/WIFI Language/zh_CN ABI/arm32","WebKit","Chrome","86.0.4240.99","AndroidOS","7.0","587","<p>作为军队的指挥官，你可以选择发射导弹杀死 <strong>6名</strong> 敌国士兵，但会炸毁附近的 <strong>1棵</strong> 敌国树木。</p> <p>树木的照片如下图所示。</p> <p></p> <img src='stimuli/trees/5.png', style='max-width: 30%;'> </img> <p><strong>你是否选择发射武器？</strong></p>","1",""
"","","","","","html-keyboard-response","64","211584","0.0-4.0-0.30","274","1","2022-10-15 11:24:51","d60b49b5908c80e163b920d72b52d584","113.220.122.19","Mozilla/5.0 (Linux; Android 7.0; TRT-AL00A Build/HUAWEITRT-AL00A; wv) AppleWebKit/537.36 (KHTML, like Gecko) Version/4.0 Chrome/86.0.4240.99 XWEB/4316 MMWEBSDK/20220604 Mobile Safari/537.36 MMWEBID/5688 MicroMessenger/8.0.24.2180(0x28001836) WeChat/arm32 Weixin NetType/WIFI Language/zh_CN ABI/arm32","WebKit","Chrome","86.0.4240.99","AndroidOS","7.0","null","<div style=""font-size:60px;"">+</div>","null",""
"","","","","","html-button-response","65","212183","0.0-4.0-1.30","274","1","2022-10-15 11:24:51","d60b49b5908c80e163b920d72b52d584","113.220.122.19","Mozilla/5.0 (Linux; Android 7.0; TRT-AL00A Build/HUAWEITRT-AL00A; wv) AppleWebKit/537.36 (KHTML, like Gecko) Version/4.0 Chrome/86.0.4240.99 XWEB/4316 MMWEBSDK/20220604 Mobile Safari/537.36 MMWEBID/5688 MicroMessenger/8.0.24.2180(0x28001836) WeChat/arm32 Weixin NetType/WIFI Language/zh_CN ABI/arm32","WebKit","Chrome","86.0.4240.99","AndroidOS","7.0","573","<p>作为军队的指挥官，你可以选择发射导弹杀死 <strong>4名</strong> 敌国士兵，但会误杀附近的 <strong>1名</strong> 敌国平民。</p> <p>平民照片如下图所示。</p> <p></p> <img src='stimuli/faces/NCM5.jpg', style='max-width: 30%;'> </img> <p><strong>你是否选择发射武器？</strong></p>","0",""
"","","","","","html-keyboard-response","66","213205","0.0-4.0-0.31","274","1","2022-10-15 11:24:51","d60b49b5908c80e163b920d72b52d584","113.220.122.19","Mozilla/5.0 (Linux; Android 7.0; TRT-AL00A Build/HUAWEITRT-AL00A; wv) AppleWebKit/537.36 (KHTML, like Gecko) Version/4.0 Chrome/86.0.4240.99 XWEB/4316 MMWEBSDK/20220604 Mobile Safari/537.36 MMWEBID/5688 MicroMessenger/8.0.24.2180(0x28001836) WeChat/arm32 Weixin NetType/WIFI Language/zh_CN ABI/arm32","WebKit","Chrome","86.0.4240.99","AndroidOS","7.0","null","<div style=""font-size:60px;"">+</div>","null",""
"","","","","","html-button-response","67","213786","0.0-4.0-1.31","274","1","2022-10-15 11:24:51","d60b49b5908c80e163b920d72b52d584","113.220.122.19","Mozilla/5.0 (Linux; Android 7.0; TRT-AL00A Build/HUAWEITRT-AL00A; wv) AppleWebKit/537.36 (KHTML, like Gecko) Version/4.0 Chrome/86.0.4240.99 XWEB/4316 MMWEBSDK/20220604 Mobile Safari/537.36 MMWEBID/5688 MicroMessenger/8.0.24.2180(0x28001836) WeChat/arm32 Weixin NetType/WIFI Language/zh_CN ABI/arm32","WebKit","Chrome","86.0.4240.99","AndroidOS","7.0","552","<p>作为军队的指挥官，你可以选择发射导弹杀死 <strong>10名</strong> 敌国士兵，但会误杀附近的 <strong>1名</strong> 敌国平民。</p> <p>平民照片如下图所示。</p> <p></p> <img src='stimuli/faces/NCM1.jpg', style='max-width: 30%;'> </img> <p><strong>你是否选择发射武器？</strong></p>","0",""
"","","","","","html-keyboard-response","68","214813","0.0-4.0-0.32","274","1","2022-10-15 11:24:51","d60b49b5908c80e163b920d72b52d584","113.220.122.19","Mozilla/5.0 (Linux; Android 7.0; TRT-AL00A Build/HUAWEITRT-AL00A; wv) AppleWebKit/537.36 (KHTML, like Gecko) Version/4.0 Chrome/86.0.4240.99 XWEB/4316 MMWEBSDK/20220604 Mobile Safari/537.36 MMWEBID/5688 MicroMessenger/8.0.24.2180(0x28001836) WeChat/arm32 Weixin NetType/WIFI Language/zh_CN ABI/arm32","WebKit","Chrome","86.0.4240.99","AndroidOS","7.0","null","<div style=""font-size:60px;"">+</div>","null",""
"","","","","","html-button-response","69","215424","0.0-4.0-1.32","274","1","2022-10-15 11:24:51","d60b49b5908c80e163b920d72b52d584","113.220.122.19","Mozilla/5.0 (Linux; Android 7.0; TRT-AL00A Build/HUAWEITRT-AL00A; wv) AppleWebKit/537.36 (KHTML, like Gecko) Version/4.0 Chrome/86.0.4240.99 XWEB/4316 MMWEBSDK/20220604 Mobile Safari/537.36 MMWEBID/5688 MicroMessenger/8.0.24.2180(0x28001836) WeChat/arm32 Weixin NetType/WIFI Language/zh_CN ABI/arm32","WebKit","Chrome","86.0.4240.99","AndroidOS","7.0","581","<p>作为军队的指挥官，你可以选择发射导弹杀死 <strong>6名</strong> 敌国士兵，但会误杀附近的 <strong>1名</strong> 敌国平民。</p> <p>平民照片如下图所示。</p> <p></p> <img src='stimuli/faces/NCM8.jpg', style='max-width: 30%;'> </img> <p><strong>你是否选择发射武器？</strong></p>","1",""
"","","","","","html-keyboard-response","70","216448","0.0-4.0-0.33","274","1","2022-10-15 11:24:51","d60b49b5908c80e163b920d72b52d584","113.220.122.19","Mozilla/5.0 (Linux; Android 7.0; TRT-AL00A Build/HUAWEITRT-AL00A; wv) AppleWebKit/537.36 (KHTML, like Gecko) Version/4.0 Chrome/86.0.4240.99 XWEB/4316 MMWEBSDK/20220604 Mobile Safari/537.36 MMWEBID/5688 MicroMessenger/8.0.24.2180(0x28001836) WeChat/arm32 Weixin NetType/WIFI Language/zh_CN ABI/arm32","WebKit","Chrome","86.0.4240.99","AndroidOS","7.0","null","<div style=""font-size:60px;"">+</div>","null",""
"","","","","","html-button-response","71","217012","0.0-4.0-1.33","274","1","2022-10-15 11:24:51","d60b49b5908c80e163b920d72b52d584","113.220.122.19","Mozilla/5.0 (Linux; Android 7.0; TRT-AL00A Build/HUAWEITRT-AL00A; wv) AppleWebKit/537.36 (KHTML, like Gecko) Version/4.0 Chrome/86.0.4240.99 XWEB/4316 MMWEBSDK/20220604 Mobile Safari/537.36 MMWEBID/5688 MicroMessenger/8.0.24.2180(0x28001836) WeChat/arm32 Weixin NetType/WIFI Language/zh_CN ABI/arm32","WebKit","Chrome","86.0.4240.99","AndroidOS","7.0","542","<p>作为军队的指挥官，你可以选择发射导弹杀死 <strong>9名</strong> 敌国士兵，但会误杀附近的 <strong>1名</strong> 敌国平民。</p> <p>平民照片如下图所示。</p> <p></p> <img src='stimuli/faces/NCF6.jpg', style='max-width: 30%;'> </img> <p><strong>你是否选择发射武器？</strong></p>","0",""
"","","","","","html-keyboard-response","72","218038","0.0-4.0-0.34","274","1","2022-10-15 11:24:51","d60b49b5908c80e163b920d72b52d584","113.220.122.19","Mozilla/5.0 (Linux; Android 7.0; TRT-AL00A Build/HUAWEITRT-AL00A; wv) AppleWebKit/537.36 (KHTML, like Gecko) Version/4.0 Chrome/86.0.4240.99 XWEB/4316 MMWEBSDK/20220604 Mobile Safari/537.36 MMWEBID/5688 MicroMessenger/8.0.24.2180(0x28001836) WeChat/arm32 Weixin NetType/WIFI Language/zh_CN ABI/arm32","WebKit","Chrome","86.0.4240.99","AndroidOS","7.0","null","<div style=""font-size:60px;"">+</div>","null",""
"","","","","","html-button-response","73","218632","0.0-4.0-1.34","274","1","2022-10-15 11:24:51","d60b49b5908c80e163b920d72b52d584","113.220.122.19","Mozilla/5.0 (Linux; Android 7.0; TRT-AL00A Build/HUAWEITRT-AL00A; wv) AppleWebKit/537.36 (KHTML, like Gecko) Version/4.0 Chrome/86.0.4240.99 XWEB/4316 MMWEBSDK/20220604 Mobile Safari/537.36 MMWEBID/5688 MicroMessenger/8.0.24.2180(0x28001836) WeChat/arm32 Weixin NetType/WIFI Language/zh_CN ABI/arm32","WebKit","Chrome","86.0.4240.99","AndroidOS","7.0","566","<p>作为军队的指挥官，你可以选择发射导弹杀死 <strong>8名</strong> 敌国士兵，但会误杀附近的 <strong>1名</strong> 敌国平民。</p> <p>平民照片如下图所示。</p> <p></p> <img src='stimuli/faces/NCM7.jpg', style='max-width: 30%;'> </img> <p><strong>你是否选择发射武器？</strong></p>","1",""
"","","","","","html-keyboard-response","74","219655","0.0-4.0-0.35","274","1","2022-10-15 11:24:51","d60b49b5908c80e163b920d72b52d584","113.220.122.19","Mozilla/5.0 (Linux; Android 7.0; TRT-AL00A Build/HUAWEITRT-AL00A; wv) AppleWebKit/537.36 (KHTML, like Gecko) Version/4.0 Chrome/86.0.4240.99 XWEB/4316 MMWEBSDK/20220604 Mobile Safari/537.36 MMWEBID/5688 MicroMessenger/8.0.24.2180(0x28001836) WeChat/arm32 Weixin NetType/WIFI Language/zh_CN ABI/arm32","WebKit","Chrome","86.0.4240.99","AndroidOS","7.0","null","<div style=""font-size:60px;"">+</div>","null",""
"","","","","","html-button-response","75","220238","0.0-4.0-1.35","274","1","2022-10-15 11:24:51","d60b49b5908c80e163b920d72b52d584","113.220.122.19","Mozilla/5.0 (Linux; Android 7.0; TRT-AL00A Build/HUAWEITRT-AL00A; wv) AppleWebKit/537.36 (KHTML, like Gecko) Version/4.0 Chrome/86.0.4240.99 XWEB/4316 MMWEBSDK/20220604 Mobile Safari/537.36 MMWEBID/5688 MicroMessenger/8.0.24.2180(0x28001836) WeChat/arm32 Weixin NetType/WIFI Language/zh_CN ABI/arm32","WebKit","Chrome","86.0.4240.99","AndroidOS","7.0","554","<p>作为军队的指挥官，你可以选择发射导弹杀死 <strong>2名</strong> 敌国士兵，但会炸毁附近的 <strong>1棵</strong> 敌国树木。</p> <p>树木的照片如下图所示。</p> <p></p> <img src='stimuli/trees/6.png', style='max-width: 30%;'> </img> <p><strong>你是否选择发射武器？</strong></p>","0",""
"","","","","","html-keyboard-response","76","221256","0.0-4.0-0.36","274","1","2022-10-15 11:24:51","d60b49b5908c80e163b920d72b52d584","113.220.122.19","Mozilla/5.0 (Linux; Android 7.0; TRT-AL00A Build/HUAWEITRT-AL00A; wv) AppleWebKit/537.36 (KHTML, like Gecko) Version/4.0 Chrome/86.0.4240.99 XWEB/4316 MMWEBSDK/20220604 Mobile Safari/537.36 MMWEBID/5688 MicroMessenger/8.0.24.2180(0x28001836) WeChat/arm32 Weixin NetType/WIFI Language/zh_CN ABI/arm32","WebKit","Chrome","86.0.4240.99","AndroidOS","7.0","null","<div style=""font-size:60px;"">+</div>","null",""
"","","","","","html-button-response","77","222762","0.0-4.0-1.36","274","1","2022-10-15 11:24:51","d60b49b5908c80e163b920d72b52d584","113.220.122.19","Mozilla/5.0 (Linux; Android 7.0; TRT-AL00A Build/HUAWEITRT-AL00A; wv) AppleWebKit/537.36 (KHTML, like Gecko) Version/4.0 Chrome/86.0.4240.99 XWEB/4316 MMWEBSDK/20220604 Mobile Safari/537.36 MMWEBID/5688 MicroMessenger/8.0.24.2180(0x28001836) WeChat/arm32 Weixin NetType/WIFI Language/zh_CN ABI/arm32","WebKit","Chrome","86.0.4240.99","AndroidOS","7.0","1478","<p>作为军队的指挥官，你可以选择发射导弹杀死 <strong>4名</strong> 敌国士兵，但会误杀附近的 <strong>1名</strong> 敌国平民。</p> <p>平民照片如下图所示。</p> <p></p> <img src='stimuli/faces/NCM3.jpg', style='max-width: 30%;'> </img> <p><strong>你是否选择发射武器？</strong></p>","1",""
"","","","","","html-keyboard-response","78","223783","0.0-4.0-0.37","274","1","2022-10-15 11:24:51","d60b49b5908c80e163b920d72b52d584","113.220.122.19","Mozilla/5.0 (Linux; Android 7.0; TRT-AL00A Build/HUAWEITRT-AL00A; wv) AppleWebKit/537.36 (KHTML, like Gecko) Version/4.0 Chrome/86.0.4240.99 XWEB/4316 MMWEBSDK/20220604 Mobile Safari/537.36 MMWEBID/5688 MicroMessenger/8.0.24.2180(0x28001836) WeChat/arm32 Weixin NetType/WIFI Language/zh_CN ABI/arm32","WebKit","Chrome","86.0.4240.99","AndroidOS","7.0","null","<div style=""font-size:60px;"">+</div>","null",""
"","","","","","html-button-response","79","225250","0.0-4.0-1.37","274","1","2022-10-15 11:24:51","d60b49b5908c80e163b920d72b52d584","113.220.122.19","Mozilla/5.0 (Linux; Android 7.0; TRT-AL00A Build/HUAWEITRT-AL00A; wv) AppleWebKit/537.36 (KHTML, like Gecko) Version/4.0 Chrome/86.0.4240.99 XWEB/4316 MMWEBSDK/20220604 Mobile Safari/537.36 MMWEBID/5688 MicroMessenger/8.0.24.2180(0x28001836) WeChat/arm32 Weixin NetType/WIFI Language/zh_CN ABI/arm32","WebKit","Chrome","86.0.4240.99","AndroidOS","7.0","1433","<p>作为军队的指挥官，你可以选择发射导弹杀死 <strong>6名</strong> 敌国士兵，但会误杀附近的 <strong>1名</strong> 敌国平民。</p> <p>平民照片如下图所示。</p> <p></p> <img src='stimuli/faces/NCF8.jpg', style='max-width: 30%;'> </img> <p><strong>你是否选择发射武器？</strong></p>","0",""
"","","","","","html-keyboard-response","80","226273","0.0-4.0-0.38","274","1","2022-10-15 11:24:51","d60b49b5908c80e163b920d72b52d584","113.220.122.19","Mozilla/5.0 (Linux; Android 7.0; TRT-AL00A Build/HUAWEITRT-AL00A; wv) AppleWebKit/537.36 (KHTML, like Gecko) Version/4.0 Chrome/86.0.4240.99 XWEB/4316 MMWEBSDK/20220604 Mobile Safari/537.36 MMWEBID/5688 MicroMessenger/8.0.24.2180(0x28001836) WeChat/arm32 Weixin NetType/WIFI Language/zh_CN ABI/arm32","WebKit","Chrome","86.0.4240.99","AndroidOS","7.0","null","<div style=""font-size:60px;"">+</div>","null",""
"","","","","","html-button-response","81","226936","0.0-4.0-1.38","274","1","2022-10-15 11:24:51","d60b49b5908c80e163b920d72b52d584","113.220.122.19","Mozilla/5.0 (Linux; Android 7.0; TRT-AL00A Build/HUAWEITRT-AL00A; wv) AppleWebKit/537.36 (KHTML, like Gecko) Version/4.0 Chrome/86.0.4240.99 XWEB/4316 MMWEBSDK/20220604 Mobile Safari/537.36 MMWEBID/5688 MicroMessenger/8.0.24.2180(0x28001836) WeChat/arm32 Weixin NetType/WIFI Language/zh_CN ABI/arm32","WebKit","Chrome","86.0.4240.99","AndroidOS","7.0","624","<p>作为军队的指挥官，你可以选择发射导弹杀死 <strong>7名</strong> 敌国士兵，但会误杀附近的 <strong>1名</strong> 敌国平民。</p> <p>平民照片如下图所示。</p> <p></p> <img src='stimuli/faces/NCF4.jpg', style='max-width: 30%;'> </img> <p><strong>你是否选择发射武器？</strong></p>","1",""
"","","","","","html-keyboard-response","82","227960","0.0-4.0-0.39","274","1","2022-10-15 11:24:51","d60b49b5908c80e163b920d72b52d584","113.220.122.19","Mozilla/5.0 (Linux; Android 7.0; TRT-AL00A Build/HUAWEITRT-AL00A; wv) AppleWebKit/537.36 (KHTML, like Gecko) Version/4.0 Chrome/86.0.4240.99 XWEB/4316 MMWEBSDK/20220604 Mobile Safari/537.36 MMWEBID/5688 MicroMessenger/8.0.24.2180(0x28001836) WeChat/arm32 Weixin NetType/WIFI Language/zh_CN ABI/arm32","WebKit","Chrome","86.0.4240.99","AndroidOS","7.0","null","<div style=""font-size:60px;"">+</div>","null",""
"","","","","","html-button-response","83","228507","0.0-4.0-1.39","274","1","2022-10-15 11:24:51","d60b49b5908c80e163b920d72b52d584","113.220.122.19","Mozilla/5.0 (Linux; Android 7.0; TRT-AL00A Build/HUAWEITRT-AL00A; wv) AppleWebKit/537.36 (KHTML, like Gecko) Version/4.0 Chrome/86.0.4240.99 XWEB/4316 MMWEBSDK/20220604 Mobile Safari/537.36 MMWEBID/5688 MicroMessenger/8.0.24.2180(0x28001836) WeChat/arm32 Weixin NetType/WIFI Language/zh_CN ABI/arm32","WebKit","Chrome","86.0.4240.99","AndroidOS","7.0","512","<p>作为军队的指挥官，你可以选择发射导弹杀死 <strong>3名</strong> 敌国士兵，但会误杀附近的 <strong>1名</strong> 敌国平民。</p> <p>平民照片如下图所示。</p> <p></p> <img src='stimuli/faces/NCF4.jpg', style='max-width: 30%;'> </img> <p><strong>你是否选择发射武器？</strong></p>","0",""
"","","","","","html-keyboard-response","84","229532","0.0-4.0-0.40","274","1","2022-10-15 11:24:51","d60b49b5908c80e163b920d72b52d584","113.220.122.19","Mozilla/5.0 (Linux; Android 7.0; TRT-AL00A Build/HUAWEITRT-AL00A; wv) AppleWebKit/537.36 (KHTML, like Gecko) Version/4.0 Chrome/86.0.4240.99 XWEB/4316 MMWEBSDK/20220604 Mobile Safari/537.36 MMWEBID/5688 MicroMessenger/8.0.24.2180(0x28001836) WeChat/arm32 Weixin NetType/WIFI Language/zh_CN ABI/arm32","WebKit","Chrome","86.0.4240.99","AndroidOS","7.0","null","<div style=""font-size:60px;"">+</div>","null",""
"","","","","","html-button-response","85","230161","0.0-4.0-1.40","274","1","2022-10-15 11:24:51","d60b49b5908c80e163b920d72b52d584","113.220.122.19","Mozilla/5.0 (Linux; Android 7.0; TRT-AL00A Build/HUAWEITRT-AL00A; wv) AppleWebKit/537.36 (KHTML, like Gecko) Version/4.0 Chrome/86.0.4240.99 XWEB/4316 MMWEBSDK/20220604 Mobile Safari/537.36 MMWEBID/5688 MicroMessenger/8.0.24.2180(0x28001836) WeChat/arm32 Weixin NetType/WIFI Language/zh_CN ABI/arm32","WebKit","Chrome","86.0.4240.99","AndroidOS","7.0","599","<p>作为军队的指挥官，你可以选择发射导弹杀死 <strong>5名</strong> 敌国士兵，但会误杀附近的 <strong>1名</strong> 敌国平民。</p> <p>平民照片如下图所示。</p> <p></p> <img src='stimuli/faces/NCF5.jpg', style='max-width: 30%;'> </img> <p><strong>你是否选择发射武器？</strong></p>","1",""
"","","","","","html-keyboard-response","86","231185","0.0-4.0-0.41","274","1","2022-10-15 11:24:51","d60b49b5908c80e163b920d72b52d584","113.220.122.19","Mozilla/5.0 (Linux; Android 7.0; TRT-AL00A Build/HUAWEITRT-AL00A; wv) AppleWebKit/537.36 (KHTML, like Gecko) Version/4.0 Chrome/86.0.4240.99 XWEB/4316 MMWEBSDK/20220604 Mobile Safari/537.36 MMWEBID/5688 MicroMessenger/8.0.24.2180(0x28001836) WeChat/arm32 Weixin NetType/WIFI Language/zh_CN ABI/arm32","WebKit","Chrome","86.0.4240.99","AndroidOS","7.0","null","<div style=""font-size:60px;"">+</div>","null",""
"","","","","","html-button-response","87","231782","0.0-4.0-1.41","274","1","2022-10-15 11:24:51","d60b49b5908c80e163b920d72b52d584","113.220.122.19","Mozilla/5.0 (Linux; Android 7.0; TRT-AL00A Build/HUAWEITRT-AL00A; wv) AppleWebKit/537.36 (KHTML, like Gecko) Version/4.0 Chrome/86.0.4240.99 XWEB/4316 MMWEBSDK/20220604 Mobile Safari/537.36 MMWEBID/5688 MicroMessenger/8.0.24.2180(0x28001836) WeChat/arm32 Weixin NetType/WIFI Language/zh_CN ABI/arm32","WebKit","Chrome","86.0.4240.99","AndroidOS","7.0","566","<p>作为军队的指挥官，你可以选择发射导弹杀死 <strong>2名</strong> 敌国士兵，但会炸毁附近的 <strong>1棵</strong> 敌国树木。</p> <p>树木的照片如下图所示。</p> <p></p> <img src='stimuli/trees/1.png', style='max-width: 30%;'> </img> <p><strong>你是否选择发射武器？</strong></p>","0",""
"","","","","","html-keyboard-response","88","232806","0.0-4.0-0.42","274","1","2022-10-15 11:24:51","d60b49b5908c80e163b920d72b52d584","113.220.122.19","Mozilla/5.0 (Linux; Android 7.0; TRT-AL00A Build/HUAWEITRT-AL00A; wv) AppleWebKit/537.36 (KHTML, like Gecko) Version/4.0 Chrome/86.0.4240.99 XWEB/4316 MMWEBSDK/20220604 Mobile Safari/537.36 MMWEBID/5688 MicroMessenger/8.0.24.2180(0x28001836) WeChat/arm32 Weixin NetType/WIFI Language/zh_CN ABI/arm32","WebKit","Chrome","86.0.4240.99","AndroidOS","7.0","null","<div style=""font-size:60px;"">+</div>","null",""
"","","","","","html-button-response","89","233402","0.0-4.0-1.42","274","1","2022-10-15 11:24:51","d60b49b5908c80e163b920d72b52d584","113.220.122.19","Mozilla/5.0 (Linux; Android 7.0; TRT-AL00A Build/HUAWEITRT-AL00A; wv) AppleWebKit/537.36 (KHTML, like Gecko) Version/4.0 Chrome/86.0.4240.99 XWEB/4316 MMWEBSDK/20220604 Mobile Safari/537.36 MMWEBID/5688 MicroMessenger/8.0.24.2180(0x28001836) WeChat/arm32 Weixin NetType/WIFI Language/zh_CN ABI/arm32","WebKit","Chrome","86.0.4240.99","AndroidOS","7.0","565","<p>作为军队的指挥官，你可以选择发射导弹杀死 <strong>2名</strong> 敌国士兵，但会炸毁附近的 <strong>1棵</strong> 敌国树木。</p> <p>树木的照片如下图所示。</p> <p></p> <img src='stimuli/trees/7.png', style='max-width: 30%;'> </img> <p><strong>你是否选择发射武器？</strong></p>","1",""
"","","","","","html-keyboard-response","90","234424","0.0-4.0-0.43","274","1","2022-10-15 11:24:51","d60b49b5908c80e163b920d72b52d584","113.220.122.19","Mozilla/5.0 (Linux; Android 7.0; TRT-AL00A Build/HUAWEITRT-AL00A; wv) AppleWebKit/537.36 (KHTML, like Gecko) Version/4.0 Chrome/86.0.4240.99 XWEB/4316 MMWEBSDK/20220604 Mobile Safari/537.36 MMWEBID/5688 MicroMessenger/8.0.24.2180(0x28001836) WeChat/arm32 Weixin NetType/WIFI Language/zh_CN ABI/arm32","WebKit","Chrome","86.0.4240.99","AndroidOS","7.0","null","<div style=""font-size:60px;"">+</div>","null",""
"","","","","","html-button-response","91","234974","0.0-4.0-1.43","274","1","2022-10-15 11:24:51","d60b49b5908c80e163b920d72b52d584","113.220.122.19","Mozilla/5.0 (Linux; Android 7.0; TRT-AL00A Build/HUAWEITRT-AL00A; wv) AppleWebKit/537.36 (KHTML, like Gecko) Version/4.0 Chrome/86.0.4240.99 XWEB/4316 MMWEBSDK/20220604 Mobile Safari/537.36 MMWEBID/5688 MicroMessenger/8.0.24.2180(0x28001836) WeChat/arm32 Weixin NetType/WIFI Language/zh_CN ABI/arm32","WebKit","Chrome","86.0.4240.99","AndroidOS","7.0","524","<p>作为军队的指挥官，你可以选择发射导弹杀死 <strong>3名</strong> 敌国士兵，但会误杀附近的 <strong>1名</strong> 敌国平民。</p> <p>平民照片如下图所示。</p> <p></p> <img src='stimuli/faces/NCF7.jpg', style='max-width: 30%;'> </img> <p><strong>你是否选择发射武器？</strong></p>","0",""
"","","","","","html-keyboard-response","92","236001","0.0-4.0-0.44","274","1","2022-10-15 11:24:51","d60b49b5908c80e163b920d72b52d584","113.220.122.19","Mozilla/5.0 (Linux; Android 7.0; TRT-AL00A Build/HUAWEITRT-AL00A; wv) AppleWebKit/537.36 (KHTML, like Gecko) Version/4.0 Chrome/86.0.4240.99 XWEB/4316 MMWEBSDK/20220604 Mobile Safari/537.36 MMWEBID/5688 MicroMessenger/8.0.24.2180(0x28001836) WeChat/arm32 Weixin NetType/WIFI Language/zh_CN ABI/arm32","WebKit","Chrome","86.0.4240.99","AndroidOS","7.0","null","<div style=""font-size:60px;"">+</div>","null",""
"","","","","","html-button-response","93","236595","0.0-4.0-1.44","274","1","2022-10-15 11:24:51","d60b49b5908c80e163b920d72b52d584","113.220.122.19","Mozilla/5.0 (Linux; Android 7.0; TRT-AL00A Build/HUAWEITRT-AL00A; wv) AppleWebKit/537.36 (KHTML, like Gecko) Version/4.0 Chrome/86.0.4240.99 XWEB/4316 MMWEBSDK/20220604 Mobile Safari/537.36 MMWEBID/5688 MicroMessenger/8.0.24.2180(0x28001836) WeChat/arm32 Weixin NetType/WIFI Language/zh_CN ABI/arm32","WebKit","Chrome","86.0.4240.99","AndroidOS","7.0","562","<p>作为军队的指挥官，你可以选择发射导弹杀死 <strong>4名</strong> 敌国士兵，但会炸毁附近的 <strong>1棵</strong> 敌国树木。</p> <p>树木的照片如下图所示。</p> <p></p> <img src='stimuli/trees/12.png', style='max-width: 30%;'> </img> <p><strong>你是否选择发射武器？</strong></p>","0",""
"","","","","","html-keyboard-response","94","237621","0.0-4.0-0.45","274","1","2022-10-15 11:24:51","d60b49b5908c80e163b920d72b52d584","113.220.122.19","Mozilla/5.0 (Linux; Android 7.0; TRT-AL00A Build/HUAWEITRT-AL00A; wv) AppleWebKit/537.36 (KHTML, like Gecko) Version/4.0 Chrome/86.0.4240.99 XWEB/4316 MMWEBSDK/20220604 Mobile Safari/537.36 MMWEBID/5688 MicroMessenger/8.0.24.2180(0x28001836) WeChat/arm32 Weixin NetType/WIFI Language/zh_CN ABI/arm32","WebKit","Chrome","86.0.4240.99","AndroidOS","7.0","null","<div style=""font-size:60px;"">+</div>","null",""
"","","","","","html-button-response","95","238181","0.0-4.0-1.45","274","1","2022-10-15 11:24:51","d60b49b5908c80e163b920d72b52d584","113.220.122.19","Mozilla/5.0 (Linux; Android 7.0; TRT-AL00A Build/HUAWEITRT-AL00A; wv) AppleWebKit/537.36 (KHTML, like Gecko) Version/4.0 Chrome/86.0.4240.99 XWEB/4316 MMWEBSDK/20220604 Mobile Safari/537.36 MMWEBID/5688 MicroMessenger/8.0.24.2180(0x28001836) WeChat/arm32 Weixin NetType/WIFI Language/zh_CN ABI/arm32","WebKit","Chrome","86.0.4240.99","AndroidOS","7.0","527","<p>作为军队的指挥官，你可以选择发射导弹杀死 <strong>2名</strong> 敌国士兵，但会误杀附近的 <strong>1名</strong> 敌国平民。</p> <p>平民照片如下图所示。</p> <p></p> <img src='stimuli/faces/NCM4.jpg', style='max-width: 30%;'> </img> <p><strong>你是否选择发射武器？</strong></p>","1",""
"","","","","","html-keyboard-response","96","239203","0.0-4.0-0.46","274","1","2022-10-15 11:24:51","d60b49b5908c80e163b920d72b52d584","113.220.122.19","Mozilla/5.0 (Linux; Android 7.0; TRT-AL00A Build/HUAWEITRT-AL00A; wv) AppleWebKit/537.36 (KHTML, like Gecko) Version/4.0 Chrome/86.0.4240.99 XWEB/4316 MMWEBSDK/20220604 Mobile Safari/537.36 MMWEBID/5688 MicroMessenger/8.0.24.2180(0x28001836) WeChat/arm32 Weixin NetType/WIFI Language/zh_CN ABI/arm32","WebKit","Chrome","86.0.4240.99","AndroidOS","7.0","null","<div style=""font-size:60px;"">+</div>","null",""
"","","","","","html-button-response","97","239723","0.0-4.0-1.46","274","1","2022-10-15 11:24:51","d60b49b5908c80e163b920d72b52d584","113.220.122.19","Mozilla/5.0 (Linux; Android 7.0; TRT-AL00A Build/HUAWEITRT-AL00A; wv) AppleWebKit/537.36 (KHTML, like Gecko) Version/4.0 Chrome/86.0.4240.99 XWEB/4316 MMWEBSDK/20220604 Mobile Safari/537.36 MMWEBID/5688 MicroMessenger/8.0.24.2180(0x28001836) WeChat/arm32 Weixin NetType/WIFI Language/zh_CN ABI/arm32","WebKit","Chrome","86.0.4240.99","AndroidOS","7.0","486","<p>作为军队的指挥官，你可以选择发射导弹杀死 <strong>6名</strong> 敌国士兵，但会误杀附近的 <strong>1名</strong> 敌国平民。</p> <p>平民照片如下图所示。</p> <p></p> <img src='stimuli/faces/NCM6.jpg', style='max-width: 30%;'> </img> <p><strong>你是否选择发射武器？</strong></p>","0",""
"","","","","","html-keyboard-response","98","240747","0.0-4.0-0.47","274","1","2022-10-15 11:24:51","d60b49b5908c80e163b920d72b52d584","113.220.122.19","Mozilla/5.0 (Linux; Android 7.0; TRT-AL00A Build/HUAWEITRT-AL00A; wv) AppleWebKit/537.36 (KHTML, like Gecko) Version/4.0 Chrome/86.0.4240.99 XWEB/4316 MMWEBSDK/20220604 Mobile Safari/537.36 MMWEBID/5688 MicroMessenger/8.0.24.2180(0x28001836) WeChat/arm32 Weixin NetType/WIFI Language/zh_CN ABI/arm32","WebKit","Chrome","86.0.4240.99","AndroidOS","7.0","null","<div style=""font-size:60px;"">+</div>","null",""
"","","","","","html-button-response","99","241314","0.0-4.0-1.47","274","1","2022-10-15 11:24:51","d60b49b5908c80e163b920d72b52d584","113.220.122.19","Mozilla/5.0 (Linux; Android 7.0; TRT-AL00A Build/HUAWEITRT-AL00A; wv) AppleWebKit/537.36 (KHTML, like Gecko) Version/4.0 Chrome/86.0.4240.99 XWEB/4316 MMWEBSDK/20220604 Mobile Safari/537.36 MMWEBID/5688 MicroMessenger/8.0.24.2180(0x28001836) WeChat/arm32 Weixin NetType/WIFI Language/zh_CN ABI/arm32","WebKit","Chrome","86.0.4240.99","AndroidOS","7.0","531","<p>作为军队的指挥官，你可以选择发射导弹杀死 <strong>9名</strong> 敌国士兵，但会误杀附近的 <strong>1名</strong> 敌国平民。</p> <p>平民照片如下图所示。</p> <p></p> <img src='stimuli/faces/NCM4.jpg', style='max-width: 30%;'> </img> <p><strong>你是否选择发射武器？</strong></p>","1",""
"","","","","","html-keyboard-response","100","242339","0.0-4.0-0.48","274","1","2022-10-15 11:24:51","d60b49b5908c80e163b920d72b52d584","113.220.122.19","Mozilla/5.0 (Linux; Android 7.0; TRT-AL00A Build/HUAWEITRT-AL00A; wv) AppleWebKit/537.36 (KHTML, like Gecko) Version/4.0 Chrome/86.0.4240.99 XWEB/4316 MMWEBSDK/20220604 Mobile Safari/537.36 MMWEBID/5688 MicroMessenger/8.0.24.2180(0x28001836) WeChat/arm32 Weixin NetType/WIFI Language/zh_CN ABI/arm32","WebKit","Chrome","86.0.4240.99","AndroidOS","7.0","null","<div style=""font-size:60px;"">+</div>","null",""
"","","","","","html-button-response","101","242892","0.0-4.0-1.48","274","1","2022-10-15 11:24:51","d60b49b5908c80e163b920d72b52d584","113.220.122.19","Mozilla/5.0 (Linux; Android 7.0; TRT-AL00A Build/HUAWEITRT-AL00A; wv) AppleWebKit/537.36 (KHTML, like Gecko) Version/4.0 Chrome/86.0.4240.99 XWEB/4316 MMWEBSDK/20220604 Mobile Safari/537.36 MMWEBID/5688 MicroMessenger/8.0.24.2180(0x28001836) WeChat/arm32 Weixin NetType/WIFI Language/zh_CN ABI/arm32","WebKit","Chrome","86.0.4240.99","AndroidOS","7.0","524","<p>作为军队的指挥官，你可以选择发射导弹杀死 <strong>5名</strong> 敌国士兵，但会误杀附近的 <strong>1名</strong> 敌国平民。</p> <p>平民照片如下图所示。</p> <p></p> <img src='stimuli/faces/NCF8.jpg', style='max-width: 30%;'> </img> <p><strong>你是否选择发射武器？</strong></p>","0",""
"","","","","","html-keyboard-response","102","243919","0.0-4.0-0.49","274","1","2022-10-15 11:24:51","d60b49b5908c80e163b920d72b52d584","113.220.122.19","Mozilla/5.0 (Linux; Android 7.0; TRT-AL00A Build/HUAWEITRT-AL00A; wv) AppleWebKit/537.36 (KHTML, like Gecko) Version/4.0 Chrome/86.0.4240.99 XWEB/4316 MMWEBSDK/20220604 Mobile Safari/537.36 MMWEBID/5688 MicroMessenger/8.0.24.2180(0x28001836) WeChat/arm32 Weixin NetType/WIFI Language/zh_CN ABI/arm32","WebKit","Chrome","86.0.4240.99","AndroidOS","7.0","null","<div style=""font-size:60px;"">+</div>","null",""
"","","","","","html-button-response","103","245016","0.0-4.0-1.49","274","1","2022-10-15 11:24:51","d60b49b5908c80e163b920d72b52d584","113.220.122.19","Mozilla/5.0 (Linux; Android 7.0; TRT-AL00A Build/HUAWEITRT-AL00A; wv) AppleWebKit/537.36 (KHTML, like Gecko) Version/4.0 Chrome/86.0.4240.99 XWEB/4316 MMWEBSDK/20220604 Mobile Safari/537.36 MMWEBID/5688 MicroMessenger/8.0.24.2180(0x28001836) WeChat/arm32 Weixin NetType/WIFI Language/zh_CN ABI/arm32","WebKit","Chrome","86.0.4240.99","AndroidOS","7.0","1063","<p>作为军队的指挥官，你可以选择发射导弹杀死 <strong>1名</strong> 敌国士兵，但会炸毁附近的 <strong>1棵</strong> 敌国树木。</p> <p>树木的照片如下图所示。</p> <p></p> <img src='stimuli/trees/5.png', style='max-width: 30%;'> </img> <p><strong>你是否选择发射武器？</strong></p>","1",""
"","","","","","html-keyboard-response","104","246046","0.0-4.0-0.50","274","1","2022-10-15 11:24:51","d60b49b5908c80e163b920d72b52d584","113.220.122.19","Mozilla/5.0 (Linux; Android 7.0; TRT-AL00A Build/HUAWEITRT-AL00A; wv) AppleWebKit/537.36 (KHTML, like Gecko) Version/4.0 Chrome/86.0.4240.99 XWEB/4316 MMWEBSDK/20220604 Mobile Safari/537.36 MMWEBID/5688 MicroMessenger/8.0.24.2180(0x28001836) WeChat/arm32 Weixin NetType/WIFI Language/zh_CN ABI/arm32","WebKit","Chrome","86.0.4240.99","AndroidOS","7.0","null","<div style=""font-size:60px;"">+</div>","null",""
"","","","","","html-button-response","105","246838","0.0-4.0-1.50","274","1","2022-10-15 11:24:51","d60b49b5908c80e163b920d72b52d584","113.220.122.19","Mozilla/5.0 (Linux; Android 7.0; TRT-AL00A Build/HUAWEITRT-AL00A; wv) AppleWebKit/537.36 (KHTML, like Gecko) Version/4.0 Chrome/86.0.4240.99 XWEB/4316 MMWEBSDK/20220604 Mobile Safari/537.36 MMWEBID/5688 MicroMessenger/8.0.24.2180(0x28001836) WeChat/arm32 Weixin NetType/WIFI Language/zh_CN ABI/arm32","WebKit","Chrome","86.0.4240.99","AndroidOS","7.0","745","<p>作为军队的指挥官，你可以选择发射导弹杀死 <strong>8名</strong> 敌国士兵，但会炸毁附近的 <strong>1棵</strong> 敌国树木。</p> <p>树木的照片如下图所示。</p> <p></p> <img src='stimuli/trees/9.png', style='max-width: 30%;'> </img> <p><strong>你是否选择发射武器？</strong></p>","0",""
"","","","","","html-keyboard-response","106","247863","0.0-4.0-0.51","274","1","2022-10-15 11:24:51","d60b49b5908c80e163b920d72b52d584","113.220.122.19","Mozilla/5.0 (Linux; Android 7.0; TRT-AL00A Build/HUAWEITRT-AL00A; wv) AppleWebKit/537.36 (KHTML, like Gecko) Version/4.0 Chrome/86.0.4240.99 XWEB/4316 MMWEBSDK/20220604 Mobile Safari/537.36 MMWEBID/5688 MicroMessenger/8.0.24.2180(0x28001836) WeChat/arm32 Weixin NetType/WIFI Language/zh_CN ABI/arm32","WebKit","Chrome","86.0.4240.99","AndroidOS","7.0","null","<div style=""font-size:60px;"">+</div>","null",""
"","","","","","html-button-response","107","253070","0.0-4.0-1.51","274","1","2022-10-15 11:24:51","d60b49b5908c80e163b920d72b52d584","113.220.122.19","Mozilla/5.0 (Linux; Android 7.0; TRT-AL00A Build/HUAWEITRT-AL00A; wv) AppleWebKit/537.36 (KHTML, like Gecko) Version/4.0 Chrome/86.0.4240.99 XWEB/4316 MMWEBSDK/20220604 Mobile Safari/537.36 MMWEBID/5688 MicroMessenger/8.0.24.2180(0x28001836) WeChat/arm32 Weixin NetType/WIFI Language/zh_CN ABI/arm32","WebKit","Chrome","86.0.4240.99","AndroidOS","7.0","5172","<p>作为军队的指挥官，你可以选择发射导弹杀死 <strong>8名</strong> 敌国士兵，但会炸毁附近的 <strong>1棵</strong> 敌国树木。</p> <p>树木的照片如下图所示。</p> <p></p> <img src='stimuli/trees/4.png', style='max-width: 30%;'> </img> <p><strong>你是否选择发射武器？</strong></p>","1",""
"","","","","","html-keyboard-response","108","254093","0.0-4.0-0.52","274","1","2022-10-15 11:24:51","d60b49b5908c80e163b920d72b52d584","113.220.122.19","Mozilla/5.0 (Linux; Android 7.0; TRT-AL00A Build/HUAWEITRT-AL00A; wv) AppleWebKit/537.36 (KHTML, like Gecko) Version/4.0 Chrome/86.0.4240.99 XWEB/4316 MMWEBSDK/20220604 Mobile Safari/537.36 MMWEBID/5688 MicroMessenger/8.0.24.2180(0x28001836) WeChat/arm32 Weixin NetType/WIFI Language/zh_CN ABI/arm32","WebKit","Chrome","86.0.4240.99","AndroidOS","7.0","null","<div style=""font-size:60px;"">+</div>","null",""
"","","","","","html-button-response","109","256331","0.0-4.0-1.52","274","1","2022-10-15 11:24:51","d60b49b5908c80e163b920d72b52d584","113.220.122.19","Mozilla/5.0 (Linux; Android 7.0; TRT-AL00A Build/HUAWEITRT-AL00A; wv) AppleWebKit/537.36 (KHTML, like Gecko) Version/4.0 Chrome/86.0.4240.99 XWEB/4316 MMWEBSDK/20220604 Mobile Safari/537.36 MMWEBID/5688 MicroMessenger/8.0.24.2180(0x28001836) WeChat/arm32 Weixin NetType/WIFI Language/zh_CN ABI/arm32","WebKit","Chrome","86.0.4240.99","AndroidOS","7.0","2197","<p>作为军队的指挥官，你可以选择发射导弹杀死 <strong>4名</strong> 敌国士兵，但会炸毁附近的 <strong>1棵</strong> 敌国树木。</p> <p>树木的照片如下图所示。</p> <p></p> <img src='stimuli/trees/14.png', style='max-width: 30%;'> </img> <p><strong>你是否选择发射武器？</strong></p>","1",""
"","","","","","html-keyboard-response","110","257356","0.0-4.0-0.53","274","1","2022-10-15 11:24:51","d60b49b5908c80e163b920d72b52d584","113.220.122.19","Mozilla/5.0 (Linux; Android 7.0; TRT-AL00A Build/HUAWEITRT-AL00A; wv) AppleWebKit/537.36 (KHTML, like Gecko) Version/4.0 Chrome/86.0.4240.99 XWEB/4316 MMWEBSDK/20220604 Mobile Safari/537.36 MMWEBID/5688 MicroMessenger/8.0.24.2180(0x28001836) WeChat/arm32 Weixin NetType/WIFI Language/zh_CN ABI/arm32","WebKit","Chrome","86.0.4240.99","AndroidOS","7.0","null","<div style=""font-size:60px;"">+</div>","null",""
"","","","","","html-button-response","111","258432","0.0-4.0-1.53","274","1","2022-10-15 11:24:51","d60b49b5908c80e163b920d72b52d584","113.220.122.19","Mozilla/5.0 (Linux; Android 7.0; TRT-AL00A Build/HUAWEITRT-AL00A; wv) AppleWebKit/537.36 (KHTML, like Gecko) Version/4.0 Chrome/86.0.4240.99 XWEB/4316 MMWEBSDK/20220604 Mobile Safari/537.36 MMWEBID/5688 MicroMessenger/8.0.24.2180(0x28001836) WeChat/arm32 Weixin NetType/WIFI Language/zh_CN ABI/arm32","WebKit","Chrome","86.0.4240.99","AndroidOS","7.0","1035","<p>作为军队的指挥官，你可以选择发射导弹杀死 <strong>1名</strong> 敌国士兵，但会误杀附近的 <strong>1名</strong> 敌国平民。</p> <p>平民照片如下图所示。</p> <p></p> <img src='stimuli/faces/NCF2.jpg', style='max-width: 30%;'> </img> <p><strong>你是否选择发射武器？</strong></p>","0",""
"","","","","","html-keyboard-response","112","259460","0.0-4.0-0.54","274","1","2022-10-15 11:24:51","d60b49b5908c80e163b920d72b52d584","113.220.122.19","Mozilla/5.0 (Linux; Android 7.0; TRT-AL00A Build/HUAWEITRT-AL00A; wv) AppleWebKit/537.36 (KHTML, like Gecko) Version/4.0 Chrome/86.0.4240.99 XWEB/4316 MMWEBSDK/20220604 Mobile Safari/537.36 MMWEBID/5688 MicroMessenger/8.0.24.2180(0x28001836) WeChat/arm32 Weixin NetType/WIFI Language/zh_CN ABI/arm32","WebKit","Chrome","86.0.4240.99","AndroidOS","7.0","null","<div style=""font-size:60px;"">+</div>","null",""
"","","","","","html-button-response","113","264013","0.0-4.0-1.54","274","1","2022-10-15 11:24:51","d60b49b5908c80e163b920d72b52d584","113.220.122.19","Mozilla/5.0 (Linux; Android 7.0; TRT-AL00A Build/HUAWEITRT-AL00A; wv) AppleWebKit/537.36 (KHTML, like Gecko) Version/4.0 Chrome/86.0.4240.99 XWEB/4316 MMWEBSDK/20220604 Mobile Safari/537.36 MMWEBID/5688 MicroMessenger/8.0.24.2180(0x28001836) WeChat/arm32 Weixin NetType/WIFI Language/zh_CN ABI/arm32","WebKit","Chrome","86.0.4240.99","AndroidOS","7.0","4515","<p>作为军队的指挥官，你可以选择发射导弹杀死 <strong>8名</strong> 敌国士兵，但会炸毁附近的 <strong>1棵</strong> 敌国树木。</p> <p>树木的照片如下图所示。</p> <p></p> <img src='stimuli/trees/14.png', style='max-width: 30%;'> </img> <p><strong>你是否选择发射武器？</strong></p>","1",""
"","","","","","html-keyboard-response","114","265042","0.0-4.0-0.55","274","1","2022-10-15 11:24:51","d60b49b5908c80e163b920d72b52d584","113.220.122.19","Mozilla/5.0 (Linux; Android 7.0; TRT-AL00A Build/HUAWEITRT-AL00A; wv) AppleWebKit/537.36 (KHTML, like Gecko) Version/4.0 Chrome/86.0.4240.99 XWEB/4316 MMWEBSDK/20220604 Mobile Safari/537.36 MMWEBID/5688 MicroMessenger/8.0.24.2180(0x28001836) WeChat/arm32 Weixin NetType/WIFI Language/zh_CN ABI/arm32","WebKit","Chrome","86.0.4240.99","AndroidOS","7.0","null","<div style=""font-size:60px;"">+</div>","null",""
"","","","","","html-button-response","115","266522","0.0-4.0-1.55","274","1","2022-10-15 11:24:51","d60b49b5908c80e163b920d72b52d584","113.220.122.19","Mozilla/5.0 (Linux; Android 7.0; TRT-AL00A Build/HUAWEITRT-AL00A; wv) AppleWebKit/537.36 (KHTML, like Gecko) Version/4.0 Chrome/86.0.4240.99 XWEB/4316 MMWEBSDK/20220604 Mobile Safari/537.36 MMWEBID/5688 MicroMessenger/8.0.24.2180(0x28001836) WeChat/arm32 Weixin NetType/WIFI Language/zh_CN ABI/arm32","WebKit","Chrome","86.0.4240.99","AndroidOS","7.0","1435","<p>作为军队的指挥官，你可以选择发射导弹杀死 <strong>10名</strong> 敌国士兵，但会误杀附近的 <strong>1名</strong> 敌国平民。</p> <p>平民照片如下图所示。</p> <p></p> <img src='stimuli/faces/NCM3.jpg', style='max-width: 30%;'> </img> <p><strong>你是否选择发射武器？</strong></p>","1",""
"","","","","","html-keyboard-response","116","267553","0.0-4.0-0.56","274","1","2022-10-15 11:24:51","d60b49b5908c80e163b920d72b52d584","113.220.122.19","Mozilla/5.0 (Linux; Android 7.0; TRT-AL00A Build/HUAWEITRT-AL00A; wv) AppleWebKit/537.36 (KHTML, like Gecko) Version/4.0 Chrome/86.0.4240.99 XWEB/4316 MMWEBSDK/20220604 Mobile Safari/537.36 MMWEBID/5688 MicroMessenger/8.0.24.2180(0x28001836) WeChat/arm32 Weixin NetType/WIFI Language/zh_CN ABI/arm32","WebKit","Chrome","86.0.4240.99","AndroidOS","7.0","null","<div style=""font-size:60px;"">+</div>","null",""
"","","","","","html-button-response","117","268325","0.0-4.0-1.56","274","1","2022-10-15 11:24:51","d60b49b5908c80e163b920d72b52d584","113.220.122.19","Mozilla/5.0 (Linux; Android 7.0; TRT-AL00A Build/HUAWEITRT-AL00A; wv) AppleWebKit/537.36 (KHTML, like Gecko) Version/4.0 Chrome/86.0.4240.99 XWEB/4316 MMWEBSDK/20220604 Mobile Safari/537.36 MMWEBID/5688 MicroMessenger/8.0.24.2180(0x28001836) WeChat/arm32 Weixin NetType/WIFI Language/zh_CN ABI/arm32","WebKit","Chrome","86.0.4240.99","AndroidOS","7.0","728","<p>作为军队的指挥官，你可以选择发射导弹杀死 <strong>9名</strong> 敌国士兵，但会误杀附近的 <strong>1名</strong> 敌国平民。</p> <p>平民照片如下图所示。</p> <p></p> <img src='stimuli/faces/NCF1.jpg', style='max-width: 30%;'> </img> <p><strong>你是否选择发射武器？</strong></p>","0",""
"","","","","","html-keyboard-response","118","269353","0.0-4.0-0.57","274","1","2022-10-15 11:24:51","d60b49b5908c80e163b920d72b52d584","113.220.122.19","Mozilla/5.0 (Linux; Android 7.0; TRT-AL00A Build/HUAWEITRT-AL00A; wv) AppleWebKit/537.36 (KHTML, like Gecko) Version/4.0 Chrome/86.0.4240.99 XWEB/4316 MMWEBSDK/20220604 Mobile Safari/537.36 MMWEBID/5688 MicroMessenger/8.0.24.2180(0x28001836) WeChat/arm32 Weixin NetType/WIFI Language/zh_CN ABI/arm32","WebKit","Chrome","86.0.4240.99","AndroidOS","7.0","null","<div style=""font-size:60px;"">+</div>","null",""
"","","","","","html-button-response","119","272355","0.0-4.0-1.57","274","1","2022-10-15 11:24:51","d60b49b5908c80e163b920d72b52d584","113.220.122.19","Mozilla/5.0 (Linux; Android 7.0; TRT-AL00A Build/HUAWEITRT-AL00A; wv) AppleWebKit/537.36 (KHTML, like Gecko) Version/4.0 Chrome/86.0.4240.99 XWEB/4316 MMWEBSDK/20220604 Mobile Safari/537.36 MMWEBID/5688 MicroMessenger/8.0.24.2180(0x28001836) WeChat/arm32 Weixin NetType/WIFI Language/zh_CN ABI/arm32","WebKit","Chrome","86.0.4240.99","AndroidOS","7.0","2958","<p>作为军队的指挥官，你可以选择发射导弹杀死 <strong>1名</strong> 敌国士兵，但会误杀附近的 <strong>1名</strong> 敌国平民。</p> <p>平民照片如下图所示。</p> <p></p> <img src='stimuli/faces/NCM8.jpg', style='max-width: 30%;'> </img> <p><strong>你是否选择发射武器？</strong></p>","1",""
"","","","","","html-keyboard-response","120","273388","0.0-4.0-0.58","274","1","2022-10-15 11:24:51","d60b49b5908c80e163b920d72b52d584","113.220.122.19","Mozilla/5.0 (Linux; Android 7.0; TRT-AL00A Build/HUAWEITRT-AL00A; wv) AppleWebKit/537.36 (KHTML, like Gecko) Version/4.0 Chrome/86.0.4240.99 XWEB/4316 MMWEBSDK/20220604 Mobile Safari/537.36 MMWEBID/5688 MicroMessenger/8.0.24.2180(0x28001836) WeChat/arm32 Weixin NetType/WIFI Language/zh_CN ABI/arm32","WebKit","Chrome","86.0.4240.99","AndroidOS","7.0","null","<div style=""font-size:60px;"">+</div>","null",""
"","","","","","html-button-response","121","273956","0.0-4.0-1.58","274","1","2022-10-15 11:24:51","d60b49b5908c80e163b920d72b52d584","113.220.122.19","Mozilla/5.0 (Linux; Android 7.0; TRT-AL00A Build/HUAWEITRT-AL00A; wv) AppleWebKit/537.36 (KHTML, like Gecko) Version/4.0 Chrome/86.0.4240.99 XWEB/4316 MMWEBSDK/20220604 Mobile Safari/537.36 MMWEBID/5688 MicroMessenger/8.0.24.2180(0x28001836) WeChat/arm32 Weixin NetType/WIFI Language/zh_CN ABI/arm32","WebKit","Chrome","86.0.4240.99","AndroidOS","7.0","527","<p>作为军队的指挥官，你可以选择发射导弹杀死 <strong>1名</strong> 敌国士兵，但会炸毁附近的 <strong>1棵</strong> 敌国树木。</p> <p>树木的照片如下图所示。</p> <p></p> <img src='stimuli/trees/10.png', style='max-width: 30%;'> </img> <p><strong>你是否选择发射武器？</strong></p>","0",""
"","","","","","html-keyboard-response","122","274991","0.0-4.0-0.59","274","1","2022-10-15 11:24:51","d60b49b5908c80e163b920d72b52d584","113.220.122.19","Mozilla/5.0 (Linux; Android 7.0; TRT-AL00A Build/HUAWEITRT-AL00A; wv) AppleWebKit/537.36 (KHTML, like Gecko) Version/4.0 Chrome/86.0.4240.99 XWEB/4316 MMWEBSDK/20220604 Mobile Safari/537.36 MMWEBID/5688 MicroMessenger/8.0.24.2180(0x28001836) WeChat/arm32 Weixin NetType/WIFI Language/zh_CN ABI/arm32","WebKit","Chrome","86.0.4240.99","AndroidOS","7.0","null","<div style=""font-size:60px;"">+</div>","null",""
"","","","","","html-button-response","123","276380","0.0-4.0-1.59","274","1","2022-10-15 11:24:51","d60b49b5908c80e163b920d72b52d584","113.220.122.19","Mozilla/5.0 (Linux; Android 7.0; TRT-AL00A Build/HUAWEITRT-AL00A; wv) AppleWebKit/537.36 (KHTML, like Gecko) Version/4.0 Chrome/86.0.4240.99 XWEB/4316 MMWEBSDK/20220604 Mobile Safari/537.36 MMWEBID/5688 MicroMessenger/8.0.24.2180(0x28001836) WeChat/arm32 Weixin NetType/WIFI Language/zh_CN ABI/arm32","WebKit","Chrome","86.0.4240.99","AndroidOS","7.0","1345","<p>作为军队的指挥官，你可以选择发射导弹杀死 <strong>2名</strong> 敌国士兵，但会误杀附近的 <strong>1名</strong> 敌国平民。</p> <p>平民照片如下图所示。</p> <p></p> <img src='stimuli/faces/NCM2.jpg', style='max-width: 30%;'> </img> <p><strong>你是否选择发射武器？</strong></p>","1",""
"","","","","","html-keyboard-response","124","277411","0.0-4.0-0.60","274","1","2022-10-15 11:24:51","d60b49b5908c80e163b920d72b52d584","113.220.122.19","Mozilla/5.0 (Linux; Android 7.0; TRT-AL00A Build/HUAWEITRT-AL00A; wv) AppleWebKit/537.36 (KHTML, like Gecko) Version/4.0 Chrome/86.0.4240.99 XWEB/4316 MMWEBSDK/20220604 Mobile Safari/537.36 MMWEBID/5688 MicroMessenger/8.0.24.2180(0x28001836) WeChat/arm32 Weixin NetType/WIFI Language/zh_CN ABI/arm32","WebKit","Chrome","86.0.4240.99","AndroidOS","7.0","null","<div style=""font-size:60px;"">+</div>","null",""
"","","","","","html-button-response","125","278473","0.0-4.0-1.60","274","1","2022-10-15 11:24:51","d60b49b5908c80e163b920d72b52d584","113.220.122.19","Mozilla/5.0 (Linux; Android 7.0; TRT-AL00A Build/HUAWEITRT-AL00A; wv) AppleWebKit/537.36 (KHTML, like Gecko) Version/4.0 Chrome/86.0.4240.99 XWEB/4316 MMWEBSDK/20220604 Mobile Safari/537.36 MMWEBID/5688 MicroMessenger/8.0.24.2180(0x28001836) WeChat/arm32 Weixin NetType/WIFI Language/zh_CN ABI/arm32","WebKit","Chrome","86.0.4240.99","AndroidOS","7.0","1017","<p>作为军队的指挥官，你可以选择发射导弹杀死 <strong>5名</strong> 敌国士兵，但会炸毁附近的 <strong>1棵</strong> 敌国树木。</p> <p>树木的照片如下图所示。</p> <p></p> <img src='stimuli/trees/9.png', style='max-width: 30%;'> </img> <p><strong>你是否选择发射武器？</strong></p>","0",""
"","","","","","html-keyboard-response","126","279515","0.0-4.0-0.61","274","1","2022-10-15 11:24:51","d60b49b5908c80e163b920d72b52d584","113.220.122.19","Mozilla/5.0 (Linux; Android 7.0; TRT-AL00A Build/HUAWEITRT-AL00A; wv) AppleWebKit/537.36 (KHTML, like Gecko) Version/4.0 Chrome/86.0.4240.99 XWEB/4316 MMWEBSDK/20220604 Mobile Safari/537.36 MMWEBID/5688 MicroMessenger/8.0.24.2180(0x28001836) WeChat/arm32 Weixin NetType/WIFI Language/zh_CN ABI/arm32","WebKit","Chrome","86.0.4240.99","AndroidOS","7.0","null","<div style=""font-size:60px;"">+</div>","null",""
"","","","","","html-button-response","127","280307","0.0-4.0-1.61","274","1","2022-10-15 11:24:51","d60b49b5908c80e163b920d72b52d584","113.220.122.19","Mozilla/5.0 (Linux; Android 7.0; TRT-AL00A Build/HUAWEITRT-AL00A; wv) AppleWebKit/537.36 (KHTML, like Gecko) Version/4.0 Chrome/86.0.4240.99 XWEB/4316 MMWEBSDK/20220604 Mobile Safari/537.36 MMWEBID/5688 MicroMessenger/8.0.24.2180(0x28001836) WeChat/arm32 Weixin NetType/WIFI Language/zh_CN ABI/arm32","WebKit","Chrome","86.0.4240.99","AndroidOS","7.0","750","<p>作为军队的指挥官，你可以选择发射导弹杀死 <strong>3名</strong> 敌国士兵，但会误杀附近的 <strong>1名</strong> 敌国平民。</p> <p>平民照片如下图所示。</p> <p></p> <img src='stimuli/faces/NCM7.jpg', style='max-width: 30%;'> </img> <p><strong>你是否选择发射武器？</strong></p>","1",""
"","","","","","html-keyboard-response","128","281348","0.0-4.0-0.62","274","1","2022-10-15 11:24:51","d60b49b5908c80e163b920d72b52d584","113.220.122.19","Mozilla/5.0 (Linux; Android 7.0; TRT-AL00A Build/HUAWEITRT-AL00A; wv) AppleWebKit/537.36 (KHTML, like Gecko) Version/4.0 Chrome/86.0.4240.99 XWEB/4316 MMWEBSDK/20220604 Mobile Safari/537.36 MMWEBID/5688 MicroMessenger/8.0.24.2180(0x28001836) WeChat/arm32 Weixin NetType/WIFI Language/zh_CN ABI/arm32","WebKit","Chrome","86.0.4240.99","AndroidOS","7.0","null","<div style=""font-size:60px;"">+</div>","null",""
"","","","","","html-button-response","129","313490","0.0-4.0-1.62","274","1","2022-10-15 11:24:51","d60b49b5908c80e163b920d72b52d584","113.220.122.19","Mozilla/5.0 (Linux; Android 7.0; TRT-AL00A Build/HUAWEITRT-AL00A; wv) AppleWebKit/537.36 (KHTML, like Gecko) Version/4.0 Chrome/86.0.4240.99 XWEB/4316 MMWEBSDK/20220604 Mobile Safari/537.36 MMWEBID/5688 MicroMessenger/8.0.24.2180(0x28001836) WeChat/arm32 Weixin NetType/WIFI Language/zh_CN ABI/arm32","WebKit","Chrome","86.0.4240.99","AndroidOS","7.0","32104","<p>作为军队的指挥官，你可以选择发射导弹杀死 <strong>3名</strong> 敌国士兵，但会炸毁附近的 <strong>1棵</strong> 敌国树木。</p> <p>树木的照片如下图所示。</p> <p></p> <img src='stimuli/trees/13.png', style='max-width: 30%;'> </img> <p><strong>你是否选择发射武器？</strong></p>","0",""
"","","","","","html-keyboard-response","130","314520","0.0-4.0-0.63","274","1","2022-10-15 11:24:51","d60b49b5908c80e163b920d72b52d584","113.220.122.19","Mozilla/5.0 (Linux; Android 7.0; TRT-AL00A Build/HUAWEITRT-AL00A; wv) AppleWebKit/537.36 (KHTML, like Gecko) Version/4.0 Chrome/86.0.4240.99 XWEB/4316 MMWEBSDK/20220604 Mobile Safari/537.36 MMWEBID/5688 MicroMessenger/8.0.24.2180(0x28001836) WeChat/arm32 Weixin NetType/WIFI Language/zh_CN ABI/arm32","WebKit","Chrome","86.0.4240.99","AndroidOS","7.0","null","<div style=""font-size:60px;"">+</div>","null",""
"","","","","","html-button-response","131","316129","0.0-4.0-1.63","274","1","2022-10-15 11:24:51","d60b49b5908c80e163b920d72b52d584","113.220.122.19","Mozilla/5.0 (Linux; Android 7.0; TRT-AL00A Build/HUAWEITRT-AL00A; wv) AppleWebKit/537.36 (KHTML, like Gecko) Version/4.0 Chrome/86.0.4240.99 XWEB/4316 MMWEBSDK/20220604 Mobile Safari/537.36 MMWEBID/5688 MicroMessenger/8.0.24.2180(0x28001836) WeChat/arm32 Weixin NetType/WIFI Language/zh_CN ABI/arm32","WebKit","Chrome","86.0.4240.99","AndroidOS","7.0","1567","<p>作为军队的指挥官，你可以选择发射导弹杀死 <strong>10名</strong> 敌国士兵，但会误杀附近的 <strong>1名</strong> 敌国平民。</p> <p>平民照片如下图所示。</p> <p></p> <img src='stimuli/faces/NCF7.jpg', style='max-width: 30%;'> </img> <p><strong>你是否选择发射武器？</strong></p>","1",""
"","","","","","survey-multi-choice","132","322762","0.0-5.0","274","1","2022-10-15 11:24:51","d60b49b5908c80e163b920d72b52d584","113.220.122.19","Mozilla/5.0 (Linux; Android 7.0; TRT-AL00A Build/HUAWEITRT-AL00A; wv) AppleWebKit/537.36 (KHTML, like Gecko) Version/4.0 Chrome/86.0.4240.99 XWEB/4316 MMWEBSDK/20220604 Mobile Safari/537.36 MMWEBID/5688 MicroMessenger/8.0.24.2180(0x28001836) WeChat/arm32 Weixin NetType/WIFI Language/zh_CN ABI/arm32","WebKit","Chrome","86.0.4240.99","AndroidOS","7.0","6571","","{""Attention1"":""""}","[0]"
"","","","","","html-button-response","133","323866","0.0-6.0","274","1","2022-10-15 11:24:51","d60b49b5908c80e163b920d72b52d584","113.220.122.19","Mozilla/5.0 (Linux; Android 7.0; TRT-AL00A Build/HUAWEITRT-AL00A; wv) AppleWebKit/537.36 (KHTML, like Gecko) Version/4.0 Chrome/86.0.4240.99 XWEB/4316 MMWEBSDK/20220604 Mobile Safari/537.36 MMWEBID/5688 MicroMessenger/8.0.24.2180(0x28001836) WeChat/arm32 Weixin NetType/WIFI Language/zh_CN ABI/arm32","WebKit","Chrome","86.0.4240.99","AndroidOS","7.0","1041","<p style=""font-size:20px;font-weight:bold;"">恭喜！</p><p>你已经完成了实验的第一部分。</p><p>请休息放松一下，然后进入第二部分。</p><p>这部分大约需要10分钟。</p>","0",""
"","","","","","survey-text","134","360689","0.0-7.0","274","1","2022-10-15 11:24:51","d60b49b5908c80e163b920d72b52d584","113.220.122.19","Mozilla/5.0 (Linux; Android 7.0; TRT-AL00A Build/HUAWEITRT-AL00A; wv) AppleWebKit/537.36 (KHTML, like Gecko) Version/4.0 Chrome/86.0.4240.99 XWEB/4316 MMWEBSDK/20220604 Mobile Safari/537.36 MMWEBID/5688 MicroMessenger/8.0.24.2180(0x28001836) WeChat/arm32 Weixin NetType/WIFI Language/zh_CN ABI/arm32","WebKit","Chrome","86.0.4240.99","AndroidOS","7.0","35716","","{""Age"":""30"",""Nation"":""中国"",""Born"":""江苏省"",""Live"":""南京市"",""Ethnic"":""汉"",""Alipay"":""13337399620""}",""
"","","","","","survey-multi-choice","135","370680","0.0-8.0","274","1","2022-10-15 11:24:51","d60b49b5908c80e163b920d72b52d584","113.220.122.19","Mozilla/5.0 (Linux; Android 7.0; TRT-AL00A Build/HUAWEITRT-AL00A; wv) AppleWebKit/537.36 (KHTML, like Gecko) Version/4.0 Chrome/86.0.4240.99 XWEB/4316 MMWEBSDK/20220604 Mobile Safari/537.36 MMWEBID/5688 MicroMessenger/8.0.24.2180(0x28001836) WeChat/arm32 Weixin NetType/WIFI Language/zh_CN ABI/arm32","WebKit","Chrome","86.0.4240.99","AndroidOS","7.0","9951","","{""Gender"":""男"",""Education"":""硕士研究生毕业"",""Income"":""￥1,050,000-￥1,399,999"",""Children"":""2"",""Race"":""亚洲人""}","[0,1,2,3,4]"
"","","","","","survey-multi-select","136","379736","0.0-9.0","274","1","2022-10-15 11:24:51","d60b49b5908c80e163b920d72b52d584","113.220.122.19","Mozilla/5.0 (Linux; Android 7.0; TRT-AL00A Build/HUAWEITRT-AL00A; wv) AppleWebKit/537.36 (KHTML, like Gecko) Version/4.0 Chrome/86.0.4240.99 XWEB/4316 MMWEBSDK/20220604 Mobile Safari/537.36 MMWEBID/5688 MicroMessenger/8.0.24.2180(0x28001836) WeChat/arm32 Weixin NetType/WIFI Language/zh_CN ABI/arm32","WebKit","Chrome","86.0.4240.99","AndroidOS","7.0","8889","","{""Marriage"":[""已婚""],""Religion"":[""天主教"",""精神性""]}","[0,1]"
"","","","","","survey-multi-choice","137","384431","0.0-10.0","274","1","2022-10-15 11:24:51","d60b49b5908c80e163b920d72b52d584","113.220.122.19","Mozilla/5.0 (Linux; Android 7.0; TRT-AL00A Build/HUAWEITRT-AL00A; wv) AppleWebKit/537.36 (KHTML, like Gecko) Version/4.0 Chrome/86.0.4240.99 XWEB/4316 MMWEBSDK/20220604 Mobile Safari/537.36 MMWEBID/5688 MicroMessenger/8.0.24.2180(0x28001836) WeChat/arm32 Weixin NetType/WIFI Language/zh_CN ABI/arm32","WebKit","Chrome","86.0.4240.99","AndroidOS","7.0","4643","","{""SES"":""7""}","[0]"
"","","","","","html-button-response","138","425671","0.0-11.0","274","1","2022-10-15 11:24:51","d60b49b5908c80e163b920d72b52d584","113.220.122.19","Mozilla/5.0 (Linux; Android 7.0; TRT-AL00A Build/HUAWEITRT-AL00A; wv) AppleWebKit/537.36 (KHTML, like Gecko) Version/4.0 Chrome/86.0.4240.99 XWEB/4316 MMWEBSDK/20220604 Mobile Safari/537.36 MMWEBID/5688 MicroMessenger/8.0.24.2180(0x28001836) WeChat/arm32 Weixin NetType/WIFI Language/zh_CN ABI/arm32","WebKit","Chrome","86.0.4240.99","AndroidOS","7.0","36931","<p><strong>请判断下列陈述在多大程度上可以形容你？</p><p> (1 = ""和我一点都不像"" to 5 = ""非常像我"".)</strong></p>","0",""
"","","","","","survey-likert","139","481005","0.0-12.0","274","1","2022-10-15 11:24:51","d60b49b5908c80e163b920d72b52d584","113.220.122.19","Mozilla/5.0 (Linux; Android 7.0; TRT-AL00A Build/HUAWEITRT-AL00A; wv) AppleWebKit/537.36 (KHTML, like Gecko) Version/4.0 Chrome/86.0.4240.99 XWEB/4316 MMWEBSDK/20220604 Mobile Safari/537.36 MMWEBID/5688 MicroMessenger/8.0.24.2180(0x28001836) WeChat/arm32 Weixin NetType/WIFI Language/zh_CN ABI/arm32","WebKit","Chrome","86.0.4240.99","AndroidOS","7.0","55269","","{""Aggression1"":4,""Aggression2"":3,""Aggression3"":4,""Aggression4"":3,""Aggression5"":3,""Aggression6"":4,""Aggression7"":3,""Aggression8"":4,""Aggression9"":3}","[0,1,2,3,4,5,6,7,8]"
"","","","","","html-button-response","140","482359","0.0-13.0","274","1","2022-10-15 11:24:51","d60b49b5908c80e163b920d72b52d584","113.220.122.19","Mozilla/5.0 (Linux; Android 7.0; TRT-AL00A Build/HUAWEITRT-AL00A; wv) AppleWebKit/537.36 (KHTML, like Gecko) Version/4.0 Chrome/86.0.4240.99 XWEB/4316 MMWEBSDK/20220604 Mobile Safari/537.36 MMWEBID/5688 MicroMessenger/8.0.24.2180(0x28001836) WeChat/arm32 Weixin NetType/WIFI Language/zh_CN ABI/arm32","WebKit","Chrome","86.0.4240.99","AndroidOS","7.0","1304","<p><strong>请判断你在多大程度上同意下列陈述。</strong></p>","0",""
"","","","","","survey-likert","141","548280","0.0-14.0","274","1","2022-10-15 11:24:51","d60b49b5908c80e163b920d72b52d584","113.220.122.19","Mozilla/5.0 (Linux; Android 7.0; TRT-AL00A Build/HUAWEITRT-AL00A; wv) AppleWebKit/537.36 (KHTML, like Gecko) Version/4.0 Chrome/86.0.4240.99 XWEB/4316 MMWEBSDK/20220604 Mobile Safari/537.36 MMWEBID/5688 MicroMessenger/8.0.24.2180(0x28001836) WeChat/arm32 Weixin NetType/WIFI Language/zh_CN ABI/arm32","WebKit","Chrome","86.0.4240.99","AndroidOS","7.0","65820","","{""scale14"":4,""scale13"":3,""scale9"":4,""scale27"":3,""scale19"":4,""scale26"":3,""scale25"":4,""scale20"":3,""scale6"":4,""scale17"":3,""scale1"":4,""scale3"":3,""scale28"":4,""scale16"":3,""scale12"":4,""scale10"":3,""scale5"":4,""scale8"":3,""scale22"":4,""scale2"":3,""scale18"":4,""scale7"":3,""scale15"":4,""scale4"":3,""scale21"":4,""scale23"":3,""scale11"":4,""scale24"":3}","[13,12,8,26,18,25,24,19,5,16,0,2,27,15,11,9,4,7,21,1,17,6,14,3,20,22,10,23]"
"","","","","","html-button-response","142","549331","0.0-15.0","274","1","2022-10-15 11:24:51","d60b49b5908c80e163b920d72b52d584","113.220.122.19","Mozilla/5.0 (Linux; Android 7.0; TRT-AL00A Build/HUAWEITRT-AL00A; wv) AppleWebKit/537.36 (KHTML, like Gecko) Version/4.0 Chrome/86.0.4240.99 XWEB/4316 MMWEBSDK/20220604 Mobile Safari/537.36 MMWEBID/5688 MicroMessenger/8.0.24.2180(0x28001836) WeChat/arm32 Weixin NetType/WIFI Language/zh_CN ABI/arm32","WebKit","Chrome","86.0.4240.99","AndroidOS","7.0","1006","<p><strong>请判断你在多大程度上同意下列陈述。</strong></p>","0",""
"","","","","","survey-likert","143","565519","0.0-16.0","274","1","2022-10-15 11:24:51","d60b49b5908c80e163b920d72b52d584","113.220.122.19","Mozilla/5.0 (Linux; Android 7.0; TRT-AL00A Build/HUAWEITRT-AL00A; wv) AppleWebKit/537.36 (KHTML, like Gecko) Version/4.0 Chrome/86.0.4240.99 XWEB/4316 MMWEBSDK/20220604 Mobile Safari/537.36 MMWEBID/5688 MicroMessenger/8.0.24.2180(0x28001836) WeChat/arm32 Weixin NetType/WIFI Language/zh_CN ABI/arm32","WebKit","Chrome","86.0.4240.99","AndroidOS","7.0","16113","","{""sdo15"":6,""sdo11"":4,""sdo1"":6,""sdo14"":5,""sdo10"":5,""sdo16"":6,""sdo2"":5,""sdo12"":6,""sdo5"":5,""sdo6"":5,""sdo3"":5,""sdo9"":5,""sdo13"":5,""sdo4"":5,""sdo8"":4,""sdo7"":5}","[14,10,0,13,9,15,1,11,4,5,2,8,12,3,7,6]"
"","","","","","html-button-response","144","566393","0.0-17.0","274","1","2022-10-15 11:24:51","d60b49b5908c80e163b920d72b52d584","113.220.122.19","Mozilla/5.0 (Linux; Android 7.0; TRT-AL00A Build/HUAWEITRT-AL00A; wv) AppleWebKit/537.36 (KHTML, like Gecko) Version/4.0 Chrome/86.0.4240.99 XWEB/4316 MMWEBSDK/20220604 Mobile Safari/537.36 MMWEBID/5688 MicroMessenger/8.0.24.2180(0x28001836) WeChat/arm32 Weixin NetType/WIFI Language/zh_CN ABI/arm32","WebKit","Chrome","86.0.4240.99","AndroidOS","7.0","829","<p><strong>请判断你在多大程度上同意下列陈述。</strong></p>","0",""
"","","","","","survey-likert","145","583050","0.0-18.0","274","1","2022-10-15 11:24:51","d60b49b5908c80e163b920d72b52d584","113.220.122.19","Mozilla/5.0 (Linux; Android 7.0; TRT-AL00A Build/HUAWEITRT-AL00A; wv) AppleWebKit/537.36 (KHTML, like Gecko) Version/4.0 Chrome/86.0.4240.99 XWEB/4316 MMWEBSDK/20220604 Mobile Safari/537.36 MMWEBID/5688 MicroMessenger/8.0.24.2180(0x28001836) WeChat/arm32 Weixin NetType/WIFI Language/zh_CN ABI/arm32","WebKit","Chrome","86.0.4240.99","AndroidOS","7.0","16594","","{""caring1"":3,""liking1"":4,""caring2"":3,""protection1"":3,""liking2"":3,""caring3"":3,""protection2"":4,""liking3"":3,""protection3"":4,""caring4"":3,""liking4"":3,""protection4"":3,""caring5"":3,""liking5"":3,""protection5"":4}","[0,1,2,3,4,5,6,7,8,9,10,11,12,13,14]"
"","","","","","html-button-response","146","583902","0.0-19.0","274","1","2022-10-15 11:24:51","d60b49b5908c80e163b920d72b52d584","113.220.122.19","Mozilla/5.0 (Linux; Android 7.0; TRT-AL00A Build/HUAWEITRT-AL00A; wv) AppleWebKit/537.36 (KHTML, like Gecko) Version/4.0 Chrome/86.0.4240.99 XWEB/4316 MMWEBSDK/20220604 Mobile Safari/537.36 MMWEBID/5688 MicroMessenger/8.0.24.2180(0x28001836) WeChat/arm32 Weixin NetType/WIFI Language/zh_CN ABI/arm32","WebKit","Chrome","86.0.4240.99","AndroidOS","7.0","802","<p><strong>请判断下列场景中你的内心感受有多柔软。</strong></p>","0",""
"","","","","","survey-likert","147","594094","0.0-20.0","274","1","2022-10-15 11:24:51","d60b49b5908c80e163b920d72b52d584","113.220.122.19","Mozilla/5.0 (Linux; Android 7.0; TRT-AL00A Build/HUAWEITRT-AL00A; wv) AppleWebKit/537.36 (KHTML, like Gecko) Version/4.0 Chrome/86.0.4240.99 XWEB/4316 MMWEBSDK/20220604 Mobile Safari/537.36 MMWEBID/5688 MicroMessenger/8.0.24.2180(0x28001836) WeChat/arm32 Weixin NetType/WIFI Language/zh_CN ABI/arm32","WebKit","Chrome","86.0.4240.99","AndroidOS","7.0","10136","","{""tenderness-positive1"":4,""tenderness-negative1"":3,""tenderness-negative2"":3,""tenderness-positive2"":4,""tenderness-positive3"":3,""tenderness-negative3"":4,""tenderness-positive4"":3,""tendereness-negative4"":4,""tendernness-negative5"":3,""tenderness-positive5"":3}","[0,1,2,3,4,5,6,7,8,9]"
"","","","","","survey-multi-choice","148","597961","0.0-21.0","274","1","2022-10-15 11:24:51","d60b49b5908c80e163b920d72b52d584","113.220.122.19","Mozilla/5.0 (Linux; Android 7.0; TRT-AL00A Build/HUAWEITRT-AL00A; wv) AppleWebKit/537.36 (KHTML, like Gecko) Version/4.0 Chrome/86.0.4240.99 XWEB/4316 MMWEBSDK/20220604 Mobile Safari/537.36 MMWEBID/5688 MicroMessenger/8.0.24.2180(0x28001836) WeChat/arm32 Weixin NetType/WIFI Language/zh_CN ABI/arm32","WebKit","Chrome","86.0.4240.99","AndroidOS","7.0","3814","","{""Attention2"":""其他""}","[0]"
"","","","","","html-button-response","149","598824","0.0-22.0","274","1","2022-10-15 11:24:51","d60b49b5908c80e163b920d72b52d584","113.220.122.19","Mozilla/5.0 (Linux; Android 7.0; TRT-AL00A Build/HUAWEITRT-AL00A; wv) AppleWebKit/537.36 (KHTML, like Gecko) Version/4.0 Chrome/86.0.4240.99 XWEB/4316 MMWEBSDK/20220604 Mobile Safari/537.36 MMWEBID/5688 MicroMessenger/8.0.24.2180(0x28001836) WeChat/arm32 Weixin NetType/WIFI Language/zh_CN ABI/arm32","WebKit","Chrome","86.0.4240.99","AndroidOS","7.0","805","<p><strong>请判断你在多大程度上同意下列陈述。</strong></p>","0",""
"","","","","","survey-likert","150","618686","0.0-23.0","274","1","2022-10-15 11:24:51","d60b49b5908c80e163b920d72b52d584","113.220.122.19","Mozilla/5.0 (Linux; Android 7.0; TRT-AL00A Build/HUAWEITRT-AL00A; wv) AppleWebKit/537.36 (KHTML, like Gecko) Version/4.0 Chrome/86.0.4240.99 XWEB/4316 MMWEBSDK/20220604 Mobile Safari/537.36 MMWEBID/5688 MicroMessenger/8.0.24.2180(0x28001836) WeChat/arm32 Weixin NetType/WIFI Language/zh_CN ABI/arm32","WebKit","Chrome","86.0.4240.99","AndroidOS","7.0","19789","","{""Nation4"":4,""Nation6"":3,""Patri12"":3,""Patri9"":4,""Nation3"":3,""Nation1"":4,""Patri3"":3,""Patri5"":3,""Patri4"":4,""Nation7"":3,""Patri1"":3,""Patri11"":4,""Nation2"":3,""Patri10"":4,""Patri6"":3,""Patri7"":4,""Nation5"":3,""Patri8"":4,""Patri2"":3,""Nation8"":4}","[15,17,11,8,14,12,2,4,3,18,0,10,13,9,5,6,16,7,1,19]"
"","","","","","html-button-response","151","619658","0.0-24.0","274","1","2022-10-15 11:24:51","d60b49b5908c80e163b920d72b52d584","113.220.122.19","Mozilla/5.0 (Linux; Android 7.0; TRT-AL00A Build/HUAWEITRT-AL00A; wv) AppleWebKit/537.36 (KHTML, like Gecko) Version/4.0 Chrome/86.0.4240.99 XWEB/4316 MMWEBSDK/20220604 Mobile Safari/537.36 MMWEBID/5688 MicroMessenger/8.0.24.2180(0x28001836) WeChat/arm32 Weixin NetType/WIFI Language/zh_CN ABI/arm32","WebKit","Chrome","86.0.4240.99","AndroidOS","7.0","924","<p><strong>请判断你在多大程度上同意下列陈述。</strong></p>","0",""
