"success","timeout","failed_images","failed_audio","failed_video","trial_type","trial_index","time_elapsed","internal_node_id","run_id","condition","recorded_at","source_code_version","ip","user_agent","device","browser","browser_version","platform","platform_version","rt","stimulus","response","question_order"
"true","false","[]","[]","[]","preload","0","4286","0.0-0.0","279","1","2022-10-15 11:50:07","d60b49b5908c80e163b920d72b52d584","113.220.122.19","Mozilla/5.0 (Linux; Android 8.0.0; BAC-AL00 Build/HUAWEIBAC-AL00; wv) AppleWebKit/537.36 (KHTML, like Gecko) Version/4.0 Chrome/86.0.4240.99 XWEB/4317 MMWEBSDK/20220903 Mobile Safari/537.36 MMWEBID/7130 MicroMessenger/8.0.28.2240(0x28001C35) WeChat/arm64 Weixin NetType/WIFI Language/zh_CN ABI/arm64","WebKit","Chrome","86.0.4240.99","AndroidOS","8.0.0","","","",""
"true","","","","","fullscreen","1","7052","0.0-1.0","279","1","2022-10-15 11:50:07","d60b49b5908c80e163b920d72b52d584","113.220.122.19","Mozilla/5.0 (Linux; Android 8.0.0; BAC-AL00 Build/HUAWEIBAC-AL00; wv) AppleWebKit/537.36 (KHTML, like Gecko) Version/4.0 Chrome/86.0.4240.99 XWEB/4317 MMWEBSDK/20220903 Mobile Safari/537.36 MMWEBID/7130 MicroMessenger/8.0.28.2240(0x28001C35) WeChat/arm64 Weixin NetType/WIFI Language/zh_CN ABI/arm64","WebKit","Chrome","86.0.4240.99","AndroidOS","8.0.0","","","",""
"","","","","","html-button-response","2","21472","0.0-2.0","279","1","2022-10-15 11:50:07","d60b49b5908c80e163b920d72b52d584","113.220.122.19","Mozilla/5.0 (Linux; Android 8.0.0; BAC-AL00 Build/HUAWEIBAC-AL00; wv) AppleWebKit/537.36 (KHTML, like Gecko) Version/4.0 Chrome/86.0.4240.99 XWEB/4317 MMWEBSDK/20220903 Mobile Safari/537.36 MMWEBID/7130 MicroMessenger/8.0.28.2240(0x28001C35) WeChat/arm64 Weixin NetType/WIFI Language/zh_CN ABI/arm64","WebKit","Chrome","86.0.4240.99","AndroidOS","8.0.0","14398","<p style=""font-size:20px;font-weight:bold;"">实验知情同意书</p><p style=""text-align:left;""><strong>实验名称：</strong>社会冲突研究</p><p style=""text-align:left;""><strong>主要研究者：</strong>韩晓春副教授（北京师范大学心理学部）</p><p style=""text-align:left;""><strong>联系方式：</strong>发送邮件至xiaochun.han@bnu.edu.cn</p><p style=""text-align:left;""><strong>研究目的：</strong>研究旨在了解人类面对群体冲突时的决策方式，以及相关的心理学特质。实验调查大约需要20分钟。</p><p style=""text-align:left;""><strong>实验流程：</strong>实验包含两部分。第一部分呈现一系列群体冲突场景，请你决定如何对这些冲突进行反应，大约需要10分钟完成。第二部分包含一系列人口统计学信息收集和心理学问卷，大约需要10分钟完成。</p><p style=""text-align:left;""><strong>参加及退出规则：</strong>参加本实验完全取决于您的个人意愿。在参与过程中，您可以随时退出，并且不用承担任何后果。</p><p style=""text-align:left;""><strong>隐私：</strong>本实验完全匿名进行，不会收集您的姓名或其他能够识别您身份的信息。实验中收集的作答仅用作科学研究使用，可能会在学术期刊/书籍上发表，或者用于教学，您的数据未来可能会和其他研究者或实验室分享，但您的个人身份不会被识别。</p><p style=""text-align:left;""><strong>实验报酬：</strong>实验完成后，您将获得15元人民币报酬，以感谢您的时间和努力。调查问卷中包含几道题目用以测验您作答时的认真度。只有完成全部实验，并且正确回答认真度测验的被试才能获得实验报酬。实验报酬将通过支付宝转账发放。</p><p style=""text-align:left;font-size:20px;""><strong>如果您同意以上实验知情同意书的内容，请点击'同意并且开始实验'按钮；否则请关闭浏览器界面，退出实验。</strong></p>","0",""
"","","","","","html-button-response","3","24675","0.0-3.0","279","1","2022-10-15 11:50:07","d60b49b5908c80e163b920d72b52d584","113.220.122.19","Mozilla/5.0 (Linux; Android 8.0.0; BAC-AL00 Build/HUAWEIBAC-AL00; wv) AppleWebKit/537.36 (KHTML, like Gecko) Version/4.0 Chrome/86.0.4240.99 XWEB/4317 MMWEBSDK/20220903 Mobile Safari/537.36 MMWEBID/7130 MicroMessenger/8.0.28.2240(0x28001C35) WeChat/arm64 Weixin NetType/WIFI Language/zh_CN ABI/arm64","WebKit","Chrome","86.0.4240.99","AndroidOS","8.0.0","3189","<p ><strong>实验任务一：</strong></p><p>请想象你的国家与另一个国家发生了军事冲突。</p><p>你是国家军队的指挥官，你将如何在冲突中进行决策。</p><p>具体来说，作为军队指挥官，请你决定是否发射导弹进行打击。</p><p>接下来，你会面对一系列场景，请仔细阅读每个场景，然后进行决策。</p><p>这部分实验任务大约需要10分钟。</p><p><strong>实验过程中，请集中注意力。</strong></p>","0",""
"","","","","","html-keyboard-response","4","25685","0.0-4.0-0.0","279","1","2022-10-15 11:50:07","d60b49b5908c80e163b920d72b52d584","113.220.122.19","Mozilla/5.0 (Linux; Android 8.0.0; BAC-AL00 Build/HUAWEIBAC-AL00; wv) AppleWebKit/537.36 (KHTML, like Gecko) Version/4.0 Chrome/86.0.4240.99 XWEB/4317 MMWEBSDK/20220903 Mobile Safari/537.36 MMWEBID/7130 MicroMessenger/8.0.28.2240(0x28001C35) WeChat/arm64 Weixin NetType/WIFI Language/zh_CN ABI/arm64","WebKit","Chrome","86.0.4240.99","AndroidOS","8.0.0","null","<div style=""font-size:60px;"">+</div>","null",""
"","","","","","html-button-response","5","27154","0.0-4.0-1.0","279","1","2022-10-15 11:50:07","d60b49b5908c80e163b920d72b52d584","113.220.122.19","Mozilla/5.0 (Linux; Android 8.0.0; BAC-AL00 Build/HUAWEIBAC-AL00; wv) AppleWebKit/537.36 (KHTML, like Gecko) Version/4.0 Chrome/86.0.4240.99 XWEB/4317 MMWEBSDK/20220903 Mobile Safari/537.36 MMWEBID/7130 MicroMessenger/8.0.28.2240(0x28001C35) WeChat/arm64 Weixin NetType/WIFI Language/zh_CN ABI/arm64","WebKit","Chrome","86.0.4240.99","AndroidOS","8.0.0","1424","<p>作为军队的指挥官，你可以选择发射导弹杀死 <strong>9名</strong> 敌国士兵，但会误杀附近的 <strong>1名</strong> 敌国平民。</p> <p>平民照片如下图所示。</p> <p></p> <img src='stimuli/faces/NCF2.jpg', style='max-width: 30%;'> </img> <p><strong>你是否选择发射武器？</strong></p>","0",""
"","","","","","html-keyboard-response","6","28162","0.0-4.0-0.1","279","1","2022-10-15 11:50:07","d60b49b5908c80e163b920d72b52d584","113.220.122.19","Mozilla/5.0 (Linux; Android 8.0.0; BAC-AL00 Build/HUAWEIBAC-AL00; wv) AppleWebKit/537.36 (KHTML, like Gecko) Version/4.0 Chrome/86.0.4240.99 XWEB/4317 MMWEBSDK/20220903 Mobile Safari/537.36 MMWEBID/7130 MicroMessenger/8.0.28.2240(0x28001C35) WeChat/arm64 Weixin NetType/WIFI Language/zh_CN ABI/arm64","WebKit","Chrome","86.0.4240.99","AndroidOS","8.0.0","null","<div style=""font-size:60px;"">+</div>","null",""
"","","","","","html-button-response","7","29113","0.0-4.0-1.1","279","1","2022-10-15 11:50:07","d60b49b5908c80e163b920d72b52d584","113.220.122.19","Mozilla/5.0 (Linux; Android 8.0.0; BAC-AL00 Build/HUAWEIBAC-AL00; wv) AppleWebKit/537.36 (KHTML, like Gecko) Version/4.0 Chrome/86.0.4240.99 XWEB/4317 MMWEBSDK/20220903 Mobile Safari/537.36 MMWEBID/7130 MicroMessenger/8.0.28.2240(0x28001C35) WeChat/arm64 Weixin NetType/WIFI Language/zh_CN ABI/arm64","WebKit","Chrome","86.0.4240.99","AndroidOS","8.0.0","935","<p>作为军队的指挥官，你可以选择发射导弹杀死 <strong>3名</strong> 敌国士兵，但会炸毁附近的 <strong>1棵</strong> 敌国树木。</p> <p>树木的照片如下图所示。</p> <p></p> <img src='stimuli/trees/1.png', style='max-width: 30%;'> </img> <p><strong>你是否选择发射武器？</strong></p>","0",""
"","","","","","html-keyboard-response","8","30124","0.0-4.0-0.2","279","1","2022-10-15 11:50:07","d60b49b5908c80e163b920d72b52d584","113.220.122.19","Mozilla/5.0 (Linux; Android 8.0.0; BAC-AL00 Build/HUAWEIBAC-AL00; wv) AppleWebKit/537.36 (KHTML, like Gecko) Version/4.0 Chrome/86.0.4240.99 XWEB/4317 MMWEBSDK/20220903 Mobile Safari/537.36 MMWEBID/7130 MicroMessenger/8.0.28.2240(0x28001C35) WeChat/arm64 Weixin NetType/WIFI Language/zh_CN ABI/arm64","WebKit","Chrome","86.0.4240.99","AndroidOS","8.0.0","null","<div style=""font-size:60px;"">+</div>","null",""
"","","","","","html-button-response","9","54568","0.0-4.0-1.2","279","1","2022-10-15 11:50:07","d60b49b5908c80e163b920d72b52d584","113.220.122.19","Mozilla/5.0 (Linux; Android 8.0.0; BAC-AL00 Build/HUAWEIBAC-AL00; wv) AppleWebKit/537.36 (KHTML, like Gecko) Version/4.0 Chrome/86.0.4240.99 XWEB/4317 MMWEBSDK/20220903 Mobile Safari/537.36 MMWEBID/7130 MicroMessenger/8.0.28.2240(0x28001C35) WeChat/arm64 Weixin NetType/WIFI Language/zh_CN ABI/arm64","WebKit","Chrome","86.0.4240.99","AndroidOS","8.0.0","24415","<p>作为军队的指挥官，你可以选择发射导弹杀死 <strong>8名</strong> 敌国士兵，但会误杀附近的 <strong>1名</strong> 敌国平民。</p> <p>平民照片如下图所示。</p> <p></p> <img src='stimuli/faces/NCF6.jpg', style='max-width: 30%;'> </img> <p><strong>你是否选择发射武器？</strong></p>","0",""
"","","","","","html-keyboard-response","10","55576","0.0-4.0-0.3","279","1","2022-10-15 11:50:07","d60b49b5908c80e163b920d72b52d584","113.220.122.19","Mozilla/5.0 (Linux; Android 8.0.0; BAC-AL00 Build/HUAWEIBAC-AL00; wv) AppleWebKit/537.36 (KHTML, like Gecko) Version/4.0 Chrome/86.0.4240.99 XWEB/4317 MMWEBSDK/20220903 Mobile Safari/537.36 MMWEBID/7130 MicroMessenger/8.0.28.2240(0x28001C35) WeChat/arm64 Weixin NetType/WIFI Language/zh_CN ABI/arm64","WebKit","Chrome","86.0.4240.99","AndroidOS","8.0.0","null","<div style=""font-size:60px;"">+</div>","null",""
"","","","","","html-button-response","11","56179","0.0-4.0-1.3","279","1","2022-10-15 11:50:07","d60b49b5908c80e163b920d72b52d584","113.220.122.19","Mozilla/5.0 (Linux; Android 8.0.0; BAC-AL00 Build/HUAWEIBAC-AL00; wv) AppleWebKit/537.36 (KHTML, like Gecko) Version/4.0 Chrome/86.0.4240.99 XWEB/4317 MMWEBSDK/20220903 Mobile Safari/537.36 MMWEBID/7130 MicroMessenger/8.0.28.2240(0x28001C35) WeChat/arm64 Weixin NetType/WIFI Language/zh_CN ABI/arm64","WebKit","Chrome","86.0.4240.99","AndroidOS","8.0.0","592","<p>作为军队的指挥官，你可以选择发射导弹杀死 <strong>5名</strong> 敌国士兵，但会炸毁附近的 <strong>1棵</strong> 敌国树木。</p> <p>树木的照片如下图所示。</p> <p></p> <img src='stimuli/trees/15.png', style='max-width: 30%;'> </img> <p><strong>你是否选择发射武器？</strong></p>","1",""
"","","","","","html-keyboard-response","12","57187","0.0-4.0-0.4","279","1","2022-10-15 11:50:07","d60b49b5908c80e163b920d72b52d584","113.220.122.19","Mozilla/5.0 (Linux; Android 8.0.0; BAC-AL00 Build/HUAWEIBAC-AL00; wv) AppleWebKit/537.36 (KHTML, like Gecko) Version/4.0 Chrome/86.0.4240.99 XWEB/4317 MMWEBSDK/20220903 Mobile Safari/537.36 MMWEBID/7130 MicroMessenger/8.0.28.2240(0x28001C35) WeChat/arm64 Weixin NetType/WIFI Language/zh_CN ABI/arm64","WebKit","Chrome","86.0.4240.99","AndroidOS","8.0.0","null","<div style=""font-size:60px;"">+</div>","null",""
"","","","","","html-button-response","13","57998","0.0-4.0-1.4","279","1","2022-10-15 11:50:07","d60b49b5908c80e163b920d72b52d584","113.220.122.19","Mozilla/5.0 (Linux; Android 8.0.0; BAC-AL00 Build/HUAWEIBAC-AL00; wv) AppleWebKit/537.36 (KHTML, like Gecko) Version/4.0 Chrome/86.0.4240.99 XWEB/4317 MMWEBSDK/20220903 Mobile Safari/537.36 MMWEBID/7130 MicroMessenger/8.0.28.2240(0x28001C35) WeChat/arm64 Weixin NetType/WIFI Language/zh_CN ABI/arm64","WebKit","Chrome","86.0.4240.99","AndroidOS","8.0.0","778","<p>作为军队的指挥官，你可以选择发射导弹杀死 <strong>7名</strong> 敌国士兵，但会误杀附近的 <strong>1名</strong> 敌国平民。</p> <p>平民照片如下图所示。</p> <p></p> <img src='stimuli/faces/NCM3.jpg', style='max-width: 30%;'> </img> <p><strong>你是否选择发射武器？</strong></p>","0",""
"","","","","","html-keyboard-response","14","59006","0.0-4.0-0.5","279","1","2022-10-15 11:50:07","d60b49b5908c80e163b920d72b52d584","113.220.122.19","Mozilla/5.0 (Linux; Android 8.0.0; BAC-AL00 Build/HUAWEIBAC-AL00; wv) AppleWebKit/537.36 (KHTML, like Gecko) Version/4.0 Chrome/86.0.4240.99 XWEB/4317 MMWEBSDK/20220903 Mobile Safari/537.36 MMWEBID/7130 MicroMessenger/8.0.28.2240(0x28001C35) WeChat/arm64 Weixin NetType/WIFI Language/zh_CN ABI/arm64","WebKit","Chrome","86.0.4240.99","AndroidOS","8.0.0","null","<div style=""font-size:60px;"">+</div>","null",""
"","","","","","html-button-response","15","64787","0.0-4.0-1.5","279","1","2022-10-15 11:50:07","d60b49b5908c80e163b920d72b52d584","113.220.122.19","Mozilla/5.0 (Linux; Android 8.0.0; BAC-AL00 Build/HUAWEIBAC-AL00; wv) AppleWebKit/537.36 (KHTML, like Gecko) Version/4.0 Chrome/86.0.4240.99 XWEB/4317 MMWEBSDK/20220903 Mobile Safari/537.36 MMWEBID/7130 MicroMessenger/8.0.28.2240(0x28001C35) WeChat/arm64 Weixin NetType/WIFI Language/zh_CN ABI/arm64","WebKit","Chrome","86.0.4240.99","AndroidOS","8.0.0","5768","<p>作为军队的指挥官，你可以选择发射导弹杀死 <strong>4名</strong> 敌国士兵，但会误杀附近的 <strong>1名</strong> 敌国平民。</p> <p>平民照片如下图所示。</p> <p></p> <img src='stimuli/faces/NCF1.jpg', style='max-width: 30%;'> </img> <p><strong>你是否选择发射武器？</strong></p>","1",""
"","","","","","html-keyboard-response","16","65795","0.0-4.0-0.6","279","1","2022-10-15 11:50:07","d60b49b5908c80e163b920d72b52d584","113.220.122.19","Mozilla/5.0 (Linux; Android 8.0.0; BAC-AL00 Build/HUAWEIBAC-AL00; wv) AppleWebKit/537.36 (KHTML, like Gecko) Version/4.0 Chrome/86.0.4240.99 XWEB/4317 MMWEBSDK/20220903 Mobile Safari/537.36 MMWEBID/7130 MicroMessenger/8.0.28.2240(0x28001C35) WeChat/arm64 Weixin NetType/WIFI Language/zh_CN ABI/arm64","WebKit","Chrome","86.0.4240.99","AndroidOS","8.0.0","null","<div style=""font-size:60px;"">+</div>","null",""
"","","","","","html-button-response","17","69233","0.0-4.0-1.6","279","1","2022-10-15 11:50:07","d60b49b5908c80e163b920d72b52d584","113.220.122.19","Mozilla/5.0 (Linux; Android 8.0.0; BAC-AL00 Build/HUAWEIBAC-AL00; wv) AppleWebKit/537.36 (KHTML, like Gecko) Version/4.0 Chrome/86.0.4240.99 XWEB/4317 MMWEBSDK/20220903 Mobile Safari/537.36 MMWEBID/7130 MicroMessenger/8.0.28.2240(0x28001C35) WeChat/arm64 Weixin NetType/WIFI Language/zh_CN ABI/arm64","WebKit","Chrome","86.0.4240.99","AndroidOS","8.0.0","3422","<p>作为军队的指挥官，你可以选择发射导弹杀死 <strong>5名</strong> 敌国士兵，但会误杀附近的 <strong>1名</strong> 敌国平民。</p> <p>平民照片如下图所示。</p> <p></p> <img src='stimuli/faces/NCF8.jpg', style='max-width: 30%;'> </img> <p><strong>你是否选择发射武器？</strong></p>","0",""
"","","","","","html-keyboard-response","18","70247","0.0-4.0-0.7","279","1","2022-10-15 11:50:07","d60b49b5908c80e163b920d72b52d584","113.220.122.19","Mozilla/5.0 (Linux; Android 8.0.0; BAC-AL00 Build/HUAWEIBAC-AL00; wv) AppleWebKit/537.36 (KHTML, like Gecko) Version/4.0 Chrome/86.0.4240.99 XWEB/4317 MMWEBSDK/20220903 Mobile Safari/537.36 MMWEBID/7130 MicroMessenger/8.0.28.2240(0x28001C35) WeChat/arm64 Weixin NetType/WIFI Language/zh_CN ABI/arm64","WebKit","Chrome","86.0.4240.99","AndroidOS","8.0.0","null","<div style=""font-size:60px;"">+</div>","null",""
"","","","","","html-button-response","19","70871","0.0-4.0-1.7","279","1","2022-10-15 11:50:07","d60b49b5908c80e163b920d72b52d584","113.220.122.19","Mozilla/5.0 (Linux; Android 8.0.0; BAC-AL00 Build/HUAWEIBAC-AL00; wv) AppleWebKit/537.36 (KHTML, like Gecko) Version/4.0 Chrome/86.0.4240.99 XWEB/4317 MMWEBSDK/20220903 Mobile Safari/537.36 MMWEBID/7130 MicroMessenger/8.0.28.2240(0x28001C35) WeChat/arm64 Weixin NetType/WIFI Language/zh_CN ABI/arm64","WebKit","Chrome","86.0.4240.99","AndroidOS","8.0.0","600","<p>作为军队的指挥官，你可以选择发射导弹杀死 <strong>3名</strong> 敌国士兵，但会炸毁附近的 <strong>1棵</strong> 敌国树木。</p> <p>树木的照片如下图所示。</p> <p></p> <img src='stimuli/trees/8.png', style='max-width: 30%;'> </img> <p><strong>你是否选择发射武器？</strong></p>","1",""
"","","","","","html-keyboard-response","20","71882","0.0-4.0-0.8","279","1","2022-10-15 11:50:07","d60b49b5908c80e163b920d72b52d584","113.220.122.19","Mozilla/5.0 (Linux; Android 8.0.0; BAC-AL00 Build/HUAWEIBAC-AL00; wv) AppleWebKit/537.36 (KHTML, like Gecko) Version/4.0 Chrome/86.0.4240.99 XWEB/4317 MMWEBSDK/20220903 Mobile Safari/537.36 MMWEBID/7130 MicroMessenger/8.0.28.2240(0x28001C35) WeChat/arm64 Weixin NetType/WIFI Language/zh_CN ABI/arm64","WebKit","Chrome","86.0.4240.99","AndroidOS","8.0.0","null","<div style=""font-size:60px;"">+</div>","null",""
"","","","","","html-button-response","21","73973","0.0-4.0-1.8","279","1","2022-10-15 11:50:07","d60b49b5908c80e163b920d72b52d584","113.220.122.19","Mozilla/5.0 (Linux; Android 8.0.0; BAC-AL00 Build/HUAWEIBAC-AL00; wv) AppleWebKit/537.36 (KHTML, like Gecko) Version/4.0 Chrome/86.0.4240.99 XWEB/4317 MMWEBSDK/20220903 Mobile Safari/537.36 MMWEBID/7130 MicroMessenger/8.0.28.2240(0x28001C35) WeChat/arm64 Weixin NetType/WIFI Language/zh_CN ABI/arm64","WebKit","Chrome","86.0.4240.99","AndroidOS","8.0.0","2072","<p>作为军队的指挥官，你可以选择发射导弹杀死 <strong>9名</strong> 敌国士兵，但会误杀附近的 <strong>1名</strong> 敌国平民。</p> <p>平民照片如下图所示。</p> <p></p> <img src='stimuli/faces/NCF5.jpg', style='max-width: 30%;'> </img> <p><strong>你是否选择发射武器？</strong></p>","0",""
"","","","","","html-keyboard-response","22","74984","0.0-4.0-0.9","279","1","2022-10-15 11:50:07","d60b49b5908c80e163b920d72b52d584","113.220.122.19","Mozilla/5.0 (Linux; Android 8.0.0; BAC-AL00 Build/HUAWEIBAC-AL00; wv) AppleWebKit/537.36 (KHTML, like Gecko) Version/4.0 Chrome/86.0.4240.99 XWEB/4317 MMWEBSDK/20220903 Mobile Safari/537.36 MMWEBID/7130 MicroMessenger/8.0.28.2240(0x28001C35) WeChat/arm64 Weixin NetType/WIFI Language/zh_CN ABI/arm64","WebKit","Chrome","86.0.4240.99","AndroidOS","8.0.0","null","<div style=""font-size:60px;"">+</div>","null",""
"","","","","","html-button-response","23","80605","0.0-4.0-1.9","279","1","2022-10-15 11:50:07","d60b49b5908c80e163b920d72b52d584","113.220.122.19","Mozilla/5.0 (Linux; Android 8.0.0; BAC-AL00 Build/HUAWEIBAC-AL00; wv) AppleWebKit/537.36 (KHTML, like Gecko) Version/4.0 Chrome/86.0.4240.99 XWEB/4317 MMWEBSDK/20220903 Mobile Safari/537.36 MMWEBID/7130 MicroMessenger/8.0.28.2240(0x28001C35) WeChat/arm64 Weixin NetType/WIFI Language/zh_CN ABI/arm64","WebKit","Chrome","86.0.4240.99","AndroidOS","8.0.0","5596","<p>作为军队的指挥官，你可以选择发射导弹杀死 <strong>8名</strong> 敌国士兵，但会误杀附近的 <strong>1名</strong> 敌国平民。</p> <p>平民照片如下图所示。</p> <p></p> <img src='stimuli/faces/NCM1.jpg', style='max-width: 30%;'> </img> <p><strong>你是否选择发射武器？</strong></p>","0",""
"","","","","","html-keyboard-response","24","81615","0.0-4.0-0.10","279","1","2022-10-15 11:50:07","d60b49b5908c80e163b920d72b52d584","113.220.122.19","Mozilla/5.0 (Linux; Android 8.0.0; BAC-AL00 Build/HUAWEIBAC-AL00; wv) AppleWebKit/537.36 (KHTML, like Gecko) Version/4.0 Chrome/86.0.4240.99 XWEB/4317 MMWEBSDK/20220903 Mobile Safari/537.36 MMWEBID/7130 MicroMessenger/8.0.28.2240(0x28001C35) WeChat/arm64 Weixin NetType/WIFI Language/zh_CN ABI/arm64","WebKit","Chrome","86.0.4240.99","AndroidOS","8.0.0","null","<div style=""font-size:60px;"">+</div>","null",""
"","","","","","html-button-response","25","90314","0.0-4.0-1.10","279","1","2022-10-15 11:50:07","d60b49b5908c80e163b920d72b52d584","113.220.122.19","Mozilla/5.0 (Linux; Android 8.0.0; BAC-AL00 Build/HUAWEIBAC-AL00; wv) AppleWebKit/537.36 (KHTML, like Gecko) Version/4.0 Chrome/86.0.4240.99 XWEB/4317 MMWEBSDK/20220903 Mobile Safari/537.36 MMWEBID/7130 MicroMessenger/8.0.28.2240(0x28001C35) WeChat/arm64 Weixin NetType/WIFI Language/zh_CN ABI/arm64","WebKit","Chrome","86.0.4240.99","AndroidOS","8.0.0","8669","<p>作为军队的指挥官，你可以选择发射导弹杀死 <strong>1名</strong> 敌国士兵，但会炸毁附近的 <strong>1棵</strong> 敌国树木。</p> <p>树木的照片如下图所示。</p> <p></p> <img src='stimuli/trees/9.png', style='max-width: 30%;'> </img> <p><strong>你是否选择发射武器？</strong></p>","0",""
"","","","","","html-keyboard-response","26","91324","0.0-4.0-0.11","279","1","2022-10-15 11:50:07","d60b49b5908c80e163b920d72b52d584","113.220.122.19","Mozilla/5.0 (Linux; Android 8.0.0; BAC-AL00 Build/HUAWEIBAC-AL00; wv) AppleWebKit/537.36 (KHTML, like Gecko) Version/4.0 Chrome/86.0.4240.99 XWEB/4317 MMWEBSDK/20220903 Mobile Safari/537.36 MMWEBID/7130 MicroMessenger/8.0.28.2240(0x28001C35) WeChat/arm64 Weixin NetType/WIFI Language/zh_CN ABI/arm64","WebKit","Chrome","86.0.4240.99","AndroidOS","8.0.0","null","<div style=""font-size:60px;"">+</div>","null",""
"","","","","","html-button-response","27","98413","0.0-4.0-1.11","279","1","2022-10-15 11:50:07","d60b49b5908c80e163b920d72b52d584","113.220.122.19","Mozilla/5.0 (Linux; Android 8.0.0; BAC-AL00 Build/HUAWEIBAC-AL00; wv) AppleWebKit/537.36 (KHTML, like Gecko) Version/4.0 Chrome/86.0.4240.99 XWEB/4317 MMWEBSDK/20220903 Mobile Safari/537.36 MMWEBID/7130 MicroMessenger/8.0.28.2240(0x28001C35) WeChat/arm64 Weixin NetType/WIFI Language/zh_CN ABI/arm64","WebKit","Chrome","86.0.4240.99","AndroidOS","8.0.0","7059","<p>作为军队的指挥官，你可以选择发射导弹杀死 <strong>1名</strong> 敌国士兵，但会炸毁附近的 <strong>1棵</strong> 敌国树木。</p> <p>树木的照片如下图所示。</p> <p></p> <img src='stimuli/trees/6.png', style='max-width: 30%;'> </img> <p><strong>你是否选择发射武器？</strong></p>","0",""
"","","","","","html-keyboard-response","28","99423","0.0-4.0-0.12","279","1","2022-10-15 11:50:07","d60b49b5908c80e163b920d72b52d584","113.220.122.19","Mozilla/5.0 (Linux; Android 8.0.0; BAC-AL00 Build/HUAWEIBAC-AL00; wv) AppleWebKit/537.36 (KHTML, like Gecko) Version/4.0 Chrome/86.0.4240.99 XWEB/4317 MMWEBSDK/20220903 Mobile Safari/537.36 MMWEBID/7130 MicroMessenger/8.0.28.2240(0x28001C35) WeChat/arm64 Weixin NetType/WIFI Language/zh_CN ABI/arm64","WebKit","Chrome","86.0.4240.99","AndroidOS","8.0.0","null","<div style=""font-size:60px;"">+</div>","null",""
"","","","","","html-button-response","29","100840","0.0-4.0-1.12","279","1","2022-10-15 11:50:07","d60b49b5908c80e163b920d72b52d584","113.220.122.19","Mozilla/5.0 (Linux; Android 8.0.0; BAC-AL00 Build/HUAWEIBAC-AL00; wv) AppleWebKit/537.36 (KHTML, like Gecko) Version/4.0 Chrome/86.0.4240.99 XWEB/4317 MMWEBSDK/20220903 Mobile Safari/537.36 MMWEBID/7130 MicroMessenger/8.0.28.2240(0x28001C35) WeChat/arm64 Weixin NetType/WIFI Language/zh_CN ABI/arm64","WebKit","Chrome","86.0.4240.99","AndroidOS","8.0.0","1389","<p>作为军队的指挥官，你可以选择发射导弹杀死 <strong>7名</strong> 敌国士兵，但会炸毁附近的 <strong>1棵</strong> 敌国树木。</p> <p>树木的照片如下图所示。</p> <p></p> <img src='stimuli/trees/2.png', style='max-width: 30%;'> </img> <p><strong>你是否选择发射武器？</strong></p>","0",""
"","","","","","html-keyboard-response","30","101851","0.0-4.0-0.13","279","1","2022-10-15 11:50:07","d60b49b5908c80e163b920d72b52d584","113.220.122.19","Mozilla/5.0 (Linux; Android 8.0.0; BAC-AL00 Build/HUAWEIBAC-AL00; wv) AppleWebKit/537.36 (KHTML, like Gecko) Version/4.0 Chrome/86.0.4240.99 XWEB/4317 MMWEBSDK/20220903 Mobile Safari/537.36 MMWEBID/7130 MicroMessenger/8.0.28.2240(0x28001C35) WeChat/arm64 Weixin NetType/WIFI Language/zh_CN ABI/arm64","WebKit","Chrome","86.0.4240.99","AndroidOS","8.0.0","null","<div style=""font-size:60px;"">+</div>","null",""
"","","","","","html-button-response","31","103511","0.0-4.0-1.13","279","1","2022-10-15 11:50:07","d60b49b5908c80e163b920d72b52d584","113.220.122.19","Mozilla/5.0 (Linux; Android 8.0.0; BAC-AL00 Build/HUAWEIBAC-AL00; wv) AppleWebKit/537.36 (KHTML, like Gecko) Version/4.0 Chrome/86.0.4240.99 XWEB/4317 MMWEBSDK/20220903 Mobile Safari/537.36 MMWEBID/7130 MicroMessenger/8.0.28.2240(0x28001C35) WeChat/arm64 Weixin NetType/WIFI Language/zh_CN ABI/arm64","WebKit","Chrome","86.0.4240.99","AndroidOS","8.0.0","1642","<p>作为军队的指挥官，你可以选择发射导弹杀死 <strong>9名</strong> 敌国士兵，但会炸毁附近的 <strong>1棵</strong> 敌国树木。</p> <p>树木的照片如下图所示。</p> <p></p> <img src='stimuli/trees/12.png', style='max-width: 30%;'> </img> <p><strong>你是否选择发射武器？</strong></p>","0",""
"","","","","","html-keyboard-response","32","104522","0.0-4.0-0.14","279","1","2022-10-15 11:50:07","d60b49b5908c80e163b920d72b52d584","113.220.122.19","Mozilla/5.0 (Linux; Android 8.0.0; BAC-AL00 Build/HUAWEIBAC-AL00; wv) AppleWebKit/537.36 (KHTML, like Gecko) Version/4.0 Chrome/86.0.4240.99 XWEB/4317 MMWEBSDK/20220903 Mobile Safari/537.36 MMWEBID/7130 MicroMessenger/8.0.28.2240(0x28001C35) WeChat/arm64 Weixin NetType/WIFI Language/zh_CN ABI/arm64","WebKit","Chrome","86.0.4240.99","AndroidOS","8.0.0","null","<div style=""font-size:60px;"">+</div>","null",""
"","","","","","html-button-response","33","105273","0.0-4.0-1.14","279","1","2022-10-15 11:50:07","d60b49b5908c80e163b920d72b52d584","113.220.122.19","Mozilla/5.0 (Linux; Android 8.0.0; BAC-AL00 Build/HUAWEIBAC-AL00; wv) AppleWebKit/537.36 (KHTML, like Gecko) Version/4.0 Chrome/86.0.4240.99 XWEB/4317 MMWEBSDK/20220903 Mobile Safari/537.36 MMWEBID/7130 MicroMessenger/8.0.28.2240(0x28001C35) WeChat/arm64 Weixin NetType/WIFI Language/zh_CN ABI/arm64","WebKit","Chrome","86.0.4240.99","AndroidOS","8.0.0","724","<p>作为军队的指挥官，你可以选择发射导弹杀死 <strong>4名</strong> 敌国士兵，但会炸毁附近的 <strong>1棵</strong> 敌国树木。</p> <p>树木的照片如下图所示。</p> <p></p> <img src='stimuli/trees/13.png', style='max-width: 30%;'> </img> <p><strong>你是否选择发射武器？</strong></p>","1",""
"","","","","","html-keyboard-response","34","106286","0.0-4.0-0.15","279","1","2022-10-15 11:50:07","d60b49b5908c80e163b920d72b52d584","113.220.122.19","Mozilla/5.0 (Linux; Android 8.0.0; BAC-AL00 Build/HUAWEIBAC-AL00; wv) AppleWebKit/537.36 (KHTML, like Gecko) Version/4.0 Chrome/86.0.4240.99 XWEB/4317 MMWEBSDK/20220903 Mobile Safari/537.36 MMWEBID/7130 MicroMessenger/8.0.28.2240(0x28001C35) WeChat/arm64 Weixin NetType/WIFI Language/zh_CN ABI/arm64","WebKit","Chrome","86.0.4240.99","AndroidOS","8.0.0","null","<div style=""font-size:60px;"">+</div>","null",""
"","","","","","html-button-response","35","107322","0.0-4.0-1.15","279","1","2022-10-15 11:50:07","d60b49b5908c80e163b920d72b52d584","113.220.122.19","Mozilla/5.0 (Linux; Android 8.0.0; BAC-AL00 Build/HUAWEIBAC-AL00; wv) AppleWebKit/537.36 (KHTML, like Gecko) Version/4.0 Chrome/86.0.4240.99 XWEB/4317 MMWEBSDK/20220903 Mobile Safari/537.36 MMWEBID/7130 MicroMessenger/8.0.28.2240(0x28001C35) WeChat/arm64 Weixin NetType/WIFI Language/zh_CN ABI/arm64","WebKit","Chrome","86.0.4240.99","AndroidOS","8.0.0","1002","<p>作为军队的指挥官，你可以选择发射导弹杀死 <strong>10名</strong> 敌国士兵，但会误杀附近的 <strong>1名</strong> 敌国平民。</p> <p>平民照片如下图所示。</p> <p></p> <img src='stimuli/faces/NCF3.jpg', style='max-width: 30%;'> </img> <p><strong>你是否选择发射武器？</strong></p>","0",""
"","","","","","html-keyboard-response","36","108334","0.0-4.0-0.16","279","1","2022-10-15 11:50:07","d60b49b5908c80e163b920d72b52d584","113.220.122.19","Mozilla/5.0 (Linux; Android 8.0.0; BAC-AL00 Build/HUAWEIBAC-AL00; wv) AppleWebKit/537.36 (KHTML, like Gecko) Version/4.0 Chrome/86.0.4240.99 XWEB/4317 MMWEBSDK/20220903 Mobile Safari/537.36 MMWEBID/7130 MicroMessenger/8.0.28.2240(0x28001C35) WeChat/arm64 Weixin NetType/WIFI Language/zh_CN ABI/arm64","WebKit","Chrome","86.0.4240.99","AndroidOS","8.0.0","null","<div style=""font-size:60px;"">+</div>","null",""
"","","","","","html-button-response","37","109504","0.0-4.0-1.16","279","1","2022-10-15 11:50:07","d60b49b5908c80e163b920d72b52d584","113.220.122.19","Mozilla/5.0 (Linux; Android 8.0.0; BAC-AL00 Build/HUAWEIBAC-AL00; wv) AppleWebKit/537.36 (KHTML, like Gecko) Version/4.0 Chrome/86.0.4240.99 XWEB/4317 MMWEBSDK/20220903 Mobile Safari/537.36 MMWEBID/7130 MicroMessenger/8.0.28.2240(0x28001C35) WeChat/arm64 Weixin NetType/WIFI Language/zh_CN ABI/arm64","WebKit","Chrome","86.0.4240.99","AndroidOS","8.0.0","1144","<p>作为军队的指挥官，你可以选择发射导弹杀死 <strong>1名</strong> 敌国士兵，但会误杀附近的 <strong>1名</strong> 敌国平民。</p> <p>平民照片如下图所示。</p> <p></p> <img src='stimuli/faces/NCF7.jpg', style='max-width: 30%;'> </img> <p><strong>你是否选择发射武器？</strong></p>","0",""
"","","","","","html-keyboard-response","38","110517","0.0-4.0-0.17","279","1","2022-10-15 11:50:07","d60b49b5908c80e163b920d72b52d584","113.220.122.19","Mozilla/5.0 (Linux; Android 8.0.0; BAC-AL00 Build/HUAWEIBAC-AL00; wv) AppleWebKit/537.36 (KHTML, like Gecko) Version/4.0 Chrome/86.0.4240.99 XWEB/4317 MMWEBSDK/20220903 Mobile Safari/537.36 MMWEBID/7130 MicroMessenger/8.0.28.2240(0x28001C35) WeChat/arm64 Weixin NetType/WIFI Language/zh_CN ABI/arm64","WebKit","Chrome","86.0.4240.99","AndroidOS","8.0.0","null","<div style=""font-size:60px;"">+</div>","null",""
"","","","","","html-button-response","39","116204","0.0-4.0-1.17","279","1","2022-10-15 11:50:07","d60b49b5908c80e163b920d72b52d584","113.220.122.19","Mozilla/5.0 (Linux; Android 8.0.0; BAC-AL00 Build/HUAWEIBAC-AL00; wv) AppleWebKit/537.36 (KHTML, like Gecko) Version/4.0 Chrome/86.0.4240.99 XWEB/4317 MMWEBSDK/20220903 Mobile Safari/537.36 MMWEBID/7130 MicroMessenger/8.0.28.2240(0x28001C35) WeChat/arm64 Weixin NetType/WIFI Language/zh_CN ABI/arm64","WebKit","Chrome","86.0.4240.99","AndroidOS","8.0.0","5658","<p>作为军队的指挥官，你可以选择发射导弹杀死 <strong>10名</strong> 敌国士兵，但会误杀附近的 <strong>1名</strong> 敌国平民。</p> <p>平民照片如下图所示。</p> <p></p> <img src='stimuli/faces/NCM8.jpg', style='max-width: 30%;'> </img> <p><strong>你是否选择发射武器？</strong></p>","0",""
"","","","","","html-keyboard-response","40","117216","0.0-4.0-0.18","279","1","2022-10-15 11:50:07","d60b49b5908c80e163b920d72b52d584","113.220.122.19","Mozilla/5.0 (Linux; Android 8.0.0; BAC-AL00 Build/HUAWEIBAC-AL00; wv) AppleWebKit/537.36 (KHTML, like Gecko) Version/4.0 Chrome/86.0.4240.99 XWEB/4317 MMWEBSDK/20220903 Mobile Safari/537.36 MMWEBID/7130 MicroMessenger/8.0.28.2240(0x28001C35) WeChat/arm64 Weixin NetType/WIFI Language/zh_CN ABI/arm64","WebKit","Chrome","86.0.4240.99","AndroidOS","8.0.0","null","<div style=""font-size:60px;"">+</div>","null",""
"","","","","","html-button-response","41","118976","0.0-4.0-1.18","279","1","2022-10-15 11:50:07","d60b49b5908c80e163b920d72b52d584","113.220.122.19","Mozilla/5.0 (Linux; Android 8.0.0; BAC-AL00 Build/HUAWEIBAC-AL00; wv) AppleWebKit/537.36 (KHTML, like Gecko) Version/4.0 Chrome/86.0.4240.99 XWEB/4317 MMWEBSDK/20220903 Mobile Safari/537.36 MMWEBID/7130 MicroMessenger/8.0.28.2240(0x28001C35) WeChat/arm64 Weixin NetType/WIFI Language/zh_CN ABI/arm64","WebKit","Chrome","86.0.4240.99","AndroidOS","8.0.0","1726","<p>作为军队的指挥官，你可以选择发射导弹杀死 <strong>10名</strong> 敌国士兵，但会误杀附近的 <strong>1名</strong> 敌国平民。</p> <p>平民照片如下图所示。</p> <p></p> <img src='stimuli/faces/NCM2.jpg', style='max-width: 30%;'> </img> <p><strong>你是否选择发射武器？</strong></p>","0",""
"","","","","","html-keyboard-response","42","119989","0.0-4.0-0.19","279","1","2022-10-15 11:50:07","d60b49b5908c80e163b920d72b52d584","113.220.122.19","Mozilla/5.0 (Linux; Android 8.0.0; BAC-AL00 Build/HUAWEIBAC-AL00; wv) AppleWebKit/537.36 (KHTML, like Gecko) Version/4.0 Chrome/86.0.4240.99 XWEB/4317 MMWEBSDK/20220903 Mobile Safari/537.36 MMWEBID/7130 MicroMessenger/8.0.28.2240(0x28001C35) WeChat/arm64 Weixin NetType/WIFI Language/zh_CN ABI/arm64","WebKit","Chrome","86.0.4240.99","AndroidOS","8.0.0","null","<div style=""font-size:60px;"">+</div>","null",""
"","","","","","html-button-response","43","132015","0.0-4.0-1.19","279","1","2022-10-15 11:50:07","d60b49b5908c80e163b920d72b52d584","113.220.122.19","Mozilla/5.0 (Linux; Android 8.0.0; BAC-AL00 Build/HUAWEIBAC-AL00; wv) AppleWebKit/537.36 (KHTML, like Gecko) Version/4.0 Chrome/86.0.4240.99 XWEB/4317 MMWEBSDK/20220903 Mobile Safari/537.36 MMWEBID/7130 MicroMessenger/8.0.28.2240(0x28001C35) WeChat/arm64 Weixin NetType/WIFI Language/zh_CN ABI/arm64","WebKit","Chrome","86.0.4240.99","AndroidOS","8.0.0","12005","<p>作为军队的指挥官，你可以选择发射导弹杀死 <strong>6名</strong> 敌国士兵，但会炸毁附近的 <strong>1棵</strong> 敌国树木。</p> <p>树木的照片如下图所示。</p> <p></p> <img src='stimuli/trees/4.png', style='max-width: 30%;'> </img> <p><strong>你是否选择发射武器？</strong></p>","1",""
"","","","","","html-keyboard-response","44","133030","0.0-4.0-0.20","279","1","2022-10-15 11:50:07","d60b49b5908c80e163b920d72b52d584","113.220.122.19","Mozilla/5.0 (Linux; Android 8.0.0; BAC-AL00 Build/HUAWEIBAC-AL00; wv) AppleWebKit/537.36 (KHTML, like Gecko) Version/4.0 Chrome/86.0.4240.99 XWEB/4317 MMWEBSDK/20220903 Mobile Safari/537.36 MMWEBID/7130 MicroMessenger/8.0.28.2240(0x28001C35) WeChat/arm64 Weixin NetType/WIFI Language/zh_CN ABI/arm64","WebKit","Chrome","86.0.4240.99","AndroidOS","8.0.0","null","<div style=""font-size:60px;"">+</div>","null",""
"","","","","","html-button-response","45","159818","0.0-4.0-1.20","279","1","2022-10-15 11:50:07","d60b49b5908c80e163b920d72b52d584","113.220.122.19","Mozilla/5.0 (Linux; Android 8.0.0; BAC-AL00 Build/HUAWEIBAC-AL00; wv) AppleWebKit/537.36 (KHTML, like Gecko) Version/4.0 Chrome/86.0.4240.99 XWEB/4317 MMWEBSDK/20220903 Mobile Safari/537.36 MMWEBID/7130 MicroMessenger/8.0.28.2240(0x28001C35) WeChat/arm64 Weixin NetType/WIFI Language/zh_CN ABI/arm64","WebKit","Chrome","86.0.4240.99","AndroidOS","8.0.0","26755","<p>作为军队的指挥官，你可以选择发射导弹杀死 <strong>9名</strong> 敌国士兵，但会炸毁附近的 <strong>1棵</strong> 敌国树木。</p> <p>树木的照片如下图所示。</p> <p></p> <img src='stimuli/trees/13.png', style='max-width: 30%;'> </img> <p><strong>你是否选择发射武器？</strong></p>","1",""
"","","","","","html-keyboard-response","46","160834","0.0-4.0-0.21","279","1","2022-10-15 11:50:07","d60b49b5908c80e163b920d72b52d584","113.220.122.19","Mozilla/5.0 (Linux; Android 8.0.0; BAC-AL00 Build/HUAWEIBAC-AL00; wv) AppleWebKit/537.36 (KHTML, like Gecko) Version/4.0 Chrome/86.0.4240.99 XWEB/4317 MMWEBSDK/20220903 Mobile Safari/537.36 MMWEBID/7130 MicroMessenger/8.0.28.2240(0x28001C35) WeChat/arm64 Weixin NetType/WIFI Language/zh_CN ABI/arm64","WebKit","Chrome","86.0.4240.99","AndroidOS","8.0.0","null","<div style=""font-size:60px;"">+</div>","null",""
"","","","","","html-button-response","47","176176","0.0-4.0-1.21","279","1","2022-10-15 11:50:07","d60b49b5908c80e163b920d72b52d584","113.220.122.19","Mozilla/5.0 (Linux; Android 8.0.0; BAC-AL00 Build/HUAWEIBAC-AL00; wv) AppleWebKit/537.36 (KHTML, like Gecko) Version/4.0 Chrome/86.0.4240.99 XWEB/4317 MMWEBSDK/20220903 Mobile Safari/537.36 MMWEBID/7130 MicroMessenger/8.0.28.2240(0x28001C35) WeChat/arm64 Weixin NetType/WIFI Language/zh_CN ABI/arm64","WebKit","Chrome","86.0.4240.99","AndroidOS","8.0.0","15326","<p>作为军队的指挥官，你可以选择发射导弹杀死 <strong>5名</strong> 敌国士兵，但会误杀附近的 <strong>1名</strong> 敌国平民。</p> <p>平民照片如下图所示。</p> <p></p> <img src='stimuli/faces/NCF3.jpg', style='max-width: 30%;'> </img> <p><strong>你是否选择发射武器？</strong></p>","0",""
"","","","","","html-keyboard-response","48","177188","0.0-4.0-0.22","279","1","2022-10-15 11:50:07","d60b49b5908c80e163b920d72b52d584","113.220.122.19","Mozilla/5.0 (Linux; Android 8.0.0; BAC-AL00 Build/HUAWEIBAC-AL00; wv) AppleWebKit/537.36 (KHTML, like Gecko) Version/4.0 Chrome/86.0.4240.99 XWEB/4317 MMWEBSDK/20220903 Mobile Safari/537.36 MMWEBID/7130 MicroMessenger/8.0.28.2240(0x28001C35) WeChat/arm64 Weixin NetType/WIFI Language/zh_CN ABI/arm64","WebKit","Chrome","86.0.4240.99","AndroidOS","8.0.0","null","<div style=""font-size:60px;"">+</div>","null",""
"","","","","","html-button-response","49","178407","0.0-4.0-1.22","279","1","2022-10-15 11:50:07","d60b49b5908c80e163b920d72b52d584","113.220.122.19","Mozilla/5.0 (Linux; Android 8.0.0; BAC-AL00 Build/HUAWEIBAC-AL00; wv) AppleWebKit/537.36 (KHTML, like Gecko) Version/4.0 Chrome/86.0.4240.99 XWEB/4317 MMWEBSDK/20220903 Mobile Safari/537.36 MMWEBID/7130 MicroMessenger/8.0.28.2240(0x28001C35) WeChat/arm64 Weixin NetType/WIFI Language/zh_CN ABI/arm64","WebKit","Chrome","86.0.4240.99","AndroidOS","8.0.0","1198","<p>作为军队的指挥官，你可以选择发射导弹杀死 <strong>3名</strong> 敌国士兵，但会误杀附近的 <strong>1名</strong> 敌国平民。</p> <p>平民照片如下图所示。</p> <p></p> <img src='stimuli/faces/NCF4.jpg', style='max-width: 30%;'> </img> <p><strong>你是否选择发射武器？</strong></p>","1",""
"","","","","","html-keyboard-response","50","179425","0.0-4.0-0.23","279","1","2022-10-15 11:50:07","d60b49b5908c80e163b920d72b52d584","113.220.122.19","Mozilla/5.0 (Linux; Android 8.0.0; BAC-AL00 Build/HUAWEIBAC-AL00; wv) AppleWebKit/537.36 (KHTML, like Gecko) Version/4.0 Chrome/86.0.4240.99 XWEB/4317 MMWEBSDK/20220903 Mobile Safari/537.36 MMWEBID/7130 MicroMessenger/8.0.28.2240(0x28001C35) WeChat/arm64 Weixin NetType/WIFI Language/zh_CN ABI/arm64","WebKit","Chrome","86.0.4240.99","AndroidOS","8.0.0","null","<div style=""font-size:60px;"">+</div>","null",""
"","","","","","html-button-response","51","182489","0.0-4.0-1.23","279","1","2022-10-15 11:50:07","d60b49b5908c80e163b920d72b52d584","113.220.122.19","Mozilla/5.0 (Linux; Android 8.0.0; BAC-AL00 Build/HUAWEIBAC-AL00; wv) AppleWebKit/537.36 (KHTML, like Gecko) Version/4.0 Chrome/86.0.4240.99 XWEB/4317 MMWEBSDK/20220903 Mobile Safari/537.36 MMWEBID/7130 MicroMessenger/8.0.28.2240(0x28001C35) WeChat/arm64 Weixin NetType/WIFI Language/zh_CN ABI/arm64","WebKit","Chrome","86.0.4240.99","AndroidOS","8.0.0","3044","<p>作为军队的指挥官，你可以选择发射导弹杀死 <strong>3名</strong> 敌国士兵，但会误杀附近的 <strong>1名</strong> 敌国平民。</p> <p>平民照片如下图所示。</p> <p></p> <img src='stimuli/faces/NCM1.jpg', style='max-width: 30%;'> </img> <p><strong>你是否选择发射武器？</strong></p>","0",""
"","","","","","html-keyboard-response","52","183505","0.0-4.0-0.24","279","1","2022-10-15 11:50:07","d60b49b5908c80e163b920d72b52d584","113.220.122.19","Mozilla/5.0 (Linux; Android 8.0.0; BAC-AL00 Build/HUAWEIBAC-AL00; wv) AppleWebKit/537.36 (KHTML, like Gecko) Version/4.0 Chrome/86.0.4240.99 XWEB/4317 MMWEBSDK/20220903 Mobile Safari/537.36 MMWEBID/7130 MicroMessenger/8.0.28.2240(0x28001C35) WeChat/arm64 Weixin NetType/WIFI Language/zh_CN ABI/arm64","WebKit","Chrome","86.0.4240.99","AndroidOS","8.0.0","null","<div style=""font-size:60px;"">+</div>","null",""
"","","","","","html-button-response","53","184209","0.0-4.0-1.24","279","1","2022-10-15 11:50:07","d60b49b5908c80e163b920d72b52d584","113.220.122.19","Mozilla/5.0 (Linux; Android 8.0.0; BAC-AL00 Build/HUAWEIBAC-AL00; wv) AppleWebKit/537.36 (KHTML, like Gecko) Version/4.0 Chrome/86.0.4240.99 XWEB/4317 MMWEBSDK/20220903 Mobile Safari/537.36 MMWEBID/7130 MicroMessenger/8.0.28.2240(0x28001C35) WeChat/arm64 Weixin NetType/WIFI Language/zh_CN ABI/arm64","WebKit","Chrome","86.0.4240.99","AndroidOS","8.0.0","667","<p>作为军队的指挥官，你可以选择发射导弹杀死 <strong>10名</strong> 敌国士兵，但会炸毁附近的 <strong>1棵</strong> 敌国树木。</p> <p>树木的照片如下图所示。</p> <p></p> <img src='stimuli/trees/5.png', style='max-width: 30%;'> </img> <p><strong>你是否选择发射武器？</strong></p>","1",""
"","","","","","html-keyboard-response","54","185223","0.0-4.0-0.25","279","1","2022-10-15 11:50:07","d60b49b5908c80e163b920d72b52d584","113.220.122.19","Mozilla/5.0 (Linux; Android 8.0.0; BAC-AL00 Build/HUAWEIBAC-AL00; wv) AppleWebKit/537.36 (KHTML, like Gecko) Version/4.0 Chrome/86.0.4240.99 XWEB/4317 MMWEBSDK/20220903 Mobile Safari/537.36 MMWEBID/7130 MicroMessenger/8.0.28.2240(0x28001C35) WeChat/arm64 Weixin NetType/WIFI Language/zh_CN ABI/arm64","WebKit","Chrome","86.0.4240.99","AndroidOS","8.0.0","null","<div style=""font-size:60px;"">+</div>","null",""
"","","","","","html-button-response","55","194650","0.0-4.0-1.25","279","1","2022-10-15 11:50:07","d60b49b5908c80e163b920d72b52d584","113.220.122.19","Mozilla/5.0 (Linux; Android 8.0.0; BAC-AL00 Build/HUAWEIBAC-AL00; wv) AppleWebKit/537.36 (KHTML, like Gecko) Version/4.0 Chrome/86.0.4240.99 XWEB/4317 MMWEBSDK/20220903 Mobile Safari/537.36 MMWEBID/7130 MicroMessenger/8.0.28.2240(0x28001C35) WeChat/arm64 Weixin NetType/WIFI Language/zh_CN ABI/arm64","WebKit","Chrome","86.0.4240.99","AndroidOS","8.0.0","9380","<p>作为军队的指挥官，你可以选择发射导弹杀死 <strong>2名</strong> 敌国士兵，但会误杀附近的 <strong>1名</strong> 敌国平民。</p> <p>平民照片如下图所示。</p> <p></p> <img src='stimuli/faces/NCM6.jpg', style='max-width: 30%;'> </img> <p><strong>你是否选择发射武器？</strong></p>","0",""
"","","","","","html-keyboard-response","56","195664","0.0-4.0-0.26","279","1","2022-10-15 11:50:07","d60b49b5908c80e163b920d72b52d584","113.220.122.19","Mozilla/5.0 (Linux; Android 8.0.0; BAC-AL00 Build/HUAWEIBAC-AL00; wv) AppleWebKit/537.36 (KHTML, like Gecko) Version/4.0 Chrome/86.0.4240.99 XWEB/4317 MMWEBSDK/20220903 Mobile Safari/537.36 MMWEBID/7130 MicroMessenger/8.0.28.2240(0x28001C35) WeChat/arm64 Weixin NetType/WIFI Language/zh_CN ABI/arm64","WebKit","Chrome","86.0.4240.99","AndroidOS","8.0.0","null","<div style=""font-size:60px;"">+</div>","null",""
"","","","","","html-button-response","57","218096","0.0-4.0-1.26","279","1","2022-10-15 11:50:07","d60b49b5908c80e163b920d72b52d584","113.220.122.19","Mozilla/5.0 (Linux; Android 8.0.0; BAC-AL00 Build/HUAWEIBAC-AL00; wv) AppleWebKit/537.36 (KHTML, like Gecko) Version/4.0 Chrome/86.0.4240.99 XWEB/4317 MMWEBSDK/20220903 Mobile Safari/537.36 MMWEBID/7130 MicroMessenger/8.0.28.2240(0x28001C35) WeChat/arm64 Weixin NetType/WIFI Language/zh_CN ABI/arm64","WebKit","Chrome","86.0.4240.99","AndroidOS","8.0.0","22394","<p>作为军队的指挥官，你可以选择发射导弹杀死 <strong>7名</strong> 敌国士兵，但会炸毁附近的 <strong>1棵</strong> 敌国树木。</p> <p>树木的照片如下图所示。</p> <p></p> <img src='stimuli/trees/3.png', style='max-width: 30%;'> </img> <p><strong>你是否选择发射武器？</strong></p>","0",""
"","","","","","html-keyboard-response","58","219110","0.0-4.0-0.27","279","1","2022-10-15 11:50:07","d60b49b5908c80e163b920d72b52d584","113.220.122.19","Mozilla/5.0 (Linux; Android 8.0.0; BAC-AL00 Build/HUAWEIBAC-AL00; wv) AppleWebKit/537.36 (KHTML, like Gecko) Version/4.0 Chrome/86.0.4240.99 XWEB/4317 MMWEBSDK/20220903 Mobile Safari/537.36 MMWEBID/7130 MicroMessenger/8.0.28.2240(0x28001C35) WeChat/arm64 Weixin NetType/WIFI Language/zh_CN ABI/arm64","WebKit","Chrome","86.0.4240.99","AndroidOS","8.0.0","null","<div style=""font-size:60px;"">+</div>","null",""
"","","","","","html-button-response","59","219857","0.0-4.0-1.27","279","1","2022-10-15 11:50:07","d60b49b5908c80e163b920d72b52d584","113.220.122.19","Mozilla/5.0 (Linux; Android 8.0.0; BAC-AL00 Build/HUAWEIBAC-AL00; wv) AppleWebKit/537.36 (KHTML, like Gecko) Version/4.0 Chrome/86.0.4240.99 XWEB/4317 MMWEBSDK/20220903 Mobile Safari/537.36 MMWEBID/7130 MicroMessenger/8.0.28.2240(0x28001C35) WeChat/arm64 Weixin NetType/WIFI Language/zh_CN ABI/arm64","WebKit","Chrome","86.0.4240.99","AndroidOS","8.0.0","711","<p>作为军队的指挥官，你可以选择发射导弹杀死 <strong>5名</strong> 敌国士兵，但会误杀附近的 <strong>1名</strong> 敌国平民。</p> <p>平民照片如下图所示。</p> <p></p> <img src='stimuli/faces/NCF6.jpg', style='max-width: 30%;'> </img> <p><strong>你是否选择发射武器？</strong></p>","1",""
"","","","","","html-keyboard-response","60","220875","0.0-4.0-0.28","279","1","2022-10-15 11:50:07","d60b49b5908c80e163b920d72b52d584","113.220.122.19","Mozilla/5.0 (Linux; Android 8.0.0; BAC-AL00 Build/HUAWEIBAC-AL00; wv) AppleWebKit/537.36 (KHTML, like Gecko) Version/4.0 Chrome/86.0.4240.99 XWEB/4317 MMWEBSDK/20220903 Mobile Safari/537.36 MMWEBID/7130 MicroMessenger/8.0.28.2240(0x28001C35) WeChat/arm64 Weixin NetType/WIFI Language/zh_CN ABI/arm64","WebKit","Chrome","86.0.4240.99","AndroidOS","8.0.0","null","<div style=""font-size:60px;"">+</div>","null",""
"","","","","","html-button-response","61","221973","0.0-4.0-1.28","279","1","2022-10-15 11:50:07","d60b49b5908c80e163b920d72b52d584","113.220.122.19","Mozilla/5.0 (Linux; Android 8.0.0; BAC-AL00 Build/HUAWEIBAC-AL00; wv) AppleWebKit/537.36 (KHTML, like Gecko) Version/4.0 Chrome/86.0.4240.99 XWEB/4317 MMWEBSDK/20220903 Mobile Safari/537.36 MMWEBID/7130 MicroMessenger/8.0.28.2240(0x28001C35) WeChat/arm64 Weixin NetType/WIFI Language/zh_CN ABI/arm64","WebKit","Chrome","86.0.4240.99","AndroidOS","8.0.0","1061","<p>作为军队的指挥官，你可以选择发射导弹杀死 <strong>7名</strong> 敌国士兵，但会炸毁附近的 <strong>1棵</strong> 敌国树木。</p> <p>树木的照片如下图所示。</p> <p></p> <img src='stimuli/trees/11.png', style='max-width: 30%;'> </img> <p><strong>你是否选择发射武器？</strong></p>","0",""
"","","","","","html-keyboard-response","62","222989","0.0-4.0-0.29","279","1","2022-10-15 11:50:07","d60b49b5908c80e163b920d72b52d584","113.220.122.19","Mozilla/5.0 (Linux; Android 8.0.0; BAC-AL00 Build/HUAWEIBAC-AL00; wv) AppleWebKit/537.36 (KHTML, like Gecko) Version/4.0 Chrome/86.0.4240.99 XWEB/4317 MMWEBSDK/20220903 Mobile Safari/537.36 MMWEBID/7130 MicroMessenger/8.0.28.2240(0x28001C35) WeChat/arm64 Weixin NetType/WIFI Language/zh_CN ABI/arm64","WebKit","Chrome","86.0.4240.99","AndroidOS","8.0.0","null","<div style=""font-size:60px;"">+</div>","null",""
"","","","","","html-button-response","63","226212","0.0-4.0-1.29","279","1","2022-10-15 11:50:07","d60b49b5908c80e163b920d72b52d584","113.220.122.19","Mozilla/5.0 (Linux; Android 8.0.0; BAC-AL00 Build/HUAWEIBAC-AL00; wv) AppleWebKit/537.36 (KHTML, like Gecko) Version/4.0 Chrome/86.0.4240.99 XWEB/4317 MMWEBSDK/20220903 Mobile Safari/537.36 MMWEBID/7130 MicroMessenger/8.0.28.2240(0x28001C35) WeChat/arm64 Weixin NetType/WIFI Language/zh_CN ABI/arm64","WebKit","Chrome","86.0.4240.99","AndroidOS","8.0.0","3194","<p>作为军队的指挥官，你可以选择发射导弹杀死 <strong>1名</strong> 敌国士兵，但会炸毁附近的 <strong>1棵</strong> 敌国树木。</p> <p>树木的照片如下图所示。</p> <p></p> <img src='stimuli/trees/12.png', style='max-width: 30%;'> </img> <p><strong>你是否选择发射武器？</strong></p>","1",""
"","","","","","html-keyboard-response","64","227229","0.0-4.0-0.30","279","1","2022-10-15 11:50:07","d60b49b5908c80e163b920d72b52d584","113.220.122.19","Mozilla/5.0 (Linux; Android 8.0.0; BAC-AL00 Build/HUAWEIBAC-AL00; wv) AppleWebKit/537.36 (KHTML, like Gecko) Version/4.0 Chrome/86.0.4240.99 XWEB/4317 MMWEBSDK/20220903 Mobile Safari/537.36 MMWEBID/7130 MicroMessenger/8.0.28.2240(0x28001C35) WeChat/arm64 Weixin NetType/WIFI Language/zh_CN ABI/arm64","WebKit","Chrome","86.0.4240.99","AndroidOS","8.0.0","null","<div style=""font-size:60px;"">+</div>","null",""
"","","","","","html-button-response","65","227804","0.0-4.0-1.30","279","1","2022-10-15 11:50:07","d60b49b5908c80e163b920d72b52d584","113.220.122.19","Mozilla/5.0 (Linux; Android 8.0.0; BAC-AL00 Build/HUAWEIBAC-AL00; wv) AppleWebKit/537.36 (KHTML, like Gecko) Version/4.0 Chrome/86.0.4240.99 XWEB/4317 MMWEBSDK/20220903 Mobile Safari/537.36 MMWEBID/7130 MicroMessenger/8.0.28.2240(0x28001C35) WeChat/arm64 Weixin NetType/WIFI Language/zh_CN ABI/arm64","WebKit","Chrome","86.0.4240.99","AndroidOS","8.0.0","554","<p>作为军队的指挥官，你可以选择发射导弹杀死 <strong>1名</strong> 敌国士兵，但会炸毁附近的 <strong>1棵</strong> 敌国树木。</p> <p>树木的照片如下图所示。</p> <p></p> <img src='stimuli/trees/4.png', style='max-width: 30%;'> </img> <p><strong>你是否选择发射武器？</strong></p>","0",""
"","","","","","html-keyboard-response","66","228822","0.0-4.0-0.31","279","1","2022-10-15 11:50:07","d60b49b5908c80e163b920d72b52d584","113.220.122.19","Mozilla/5.0 (Linux; Android 8.0.0; BAC-AL00 Build/HUAWEIBAC-AL00; wv) AppleWebKit/537.36 (KHTML, like Gecko) Version/4.0 Chrome/86.0.4240.99 XWEB/4317 MMWEBSDK/20220903 Mobile Safari/537.36 MMWEBID/7130 MicroMessenger/8.0.28.2240(0x28001C35) WeChat/arm64 Weixin NetType/WIFI Language/zh_CN ABI/arm64","WebKit","Chrome","86.0.4240.99","AndroidOS","8.0.0","null","<div style=""font-size:60px;"">+</div>","null",""
"","","","","","html-button-response","67","229394","0.0-4.0-1.31","279","1","2022-10-15 11:50:07","d60b49b5908c80e163b920d72b52d584","113.220.122.19","Mozilla/5.0 (Linux; Android 8.0.0; BAC-AL00 Build/HUAWEIBAC-AL00; wv) AppleWebKit/537.36 (KHTML, like Gecko) Version/4.0 Chrome/86.0.4240.99 XWEB/4317 MMWEBSDK/20220903 Mobile Safari/537.36 MMWEBID/7130 MicroMessenger/8.0.28.2240(0x28001C35) WeChat/arm64 Weixin NetType/WIFI Language/zh_CN ABI/arm64","WebKit","Chrome","86.0.4240.99","AndroidOS","8.0.0","552","<p>作为军队的指挥官，你可以选择发射导弹杀死 <strong>1名</strong> 敌国士兵，但会误杀附近的 <strong>1名</strong> 敌国平民。</p> <p>平民照片如下图所示。</p> <p></p> <img src='stimuli/faces/NCM3.jpg', style='max-width: 30%;'> </img> <p><strong>你是否选择发射武器？</strong></p>","1",""
"","","","","","html-keyboard-response","68","230411","0.0-4.0-0.32","279","1","2022-10-15 11:50:07","d60b49b5908c80e163b920d72b52d584","113.220.122.19","Mozilla/5.0 (Linux; Android 8.0.0; BAC-AL00 Build/HUAWEIBAC-AL00; wv) AppleWebKit/537.36 (KHTML, like Gecko) Version/4.0 Chrome/86.0.4240.99 XWEB/4317 MMWEBSDK/20220903 Mobile Safari/537.36 MMWEBID/7130 MicroMessenger/8.0.28.2240(0x28001C35) WeChat/arm64 Weixin NetType/WIFI Language/zh_CN ABI/arm64","WebKit","Chrome","86.0.4240.99","AndroidOS","8.0.0","null","<div style=""font-size:60px;"">+</div>","null",""
"","","","","","html-button-response","69","233983","0.0-4.0-1.32","279","1","2022-10-15 11:50:07","d60b49b5908c80e163b920d72b52d584","113.220.122.19","Mozilla/5.0 (Linux; Android 8.0.0; BAC-AL00 Build/HUAWEIBAC-AL00; wv) AppleWebKit/537.36 (KHTML, like Gecko) Version/4.0 Chrome/86.0.4240.99 XWEB/4317 MMWEBSDK/20220903 Mobile Safari/537.36 MMWEBID/7130 MicroMessenger/8.0.28.2240(0x28001C35) WeChat/arm64 Weixin NetType/WIFI Language/zh_CN ABI/arm64","WebKit","Chrome","86.0.4240.99","AndroidOS","8.0.0","3532","<p>作为军队的指挥官，你可以选择发射导弹杀死 <strong>8名</strong> 敌国士兵，但会误杀附近的 <strong>1名</strong> 敌国平民。</p> <p>平民照片如下图所示。</p> <p></p> <img src='stimuli/faces/NCM7.jpg', style='max-width: 30%;'> </img> <p><strong>你是否选择发射武器？</strong></p>","0",""
"","","","","","html-keyboard-response","70","235004","0.0-4.0-0.33","279","1","2022-10-15 11:50:07","d60b49b5908c80e163b920d72b52d584","113.220.122.19","Mozilla/5.0 (Linux; Android 8.0.0; BAC-AL00 Build/HUAWEIBAC-AL00; wv) AppleWebKit/537.36 (KHTML, like Gecko) Version/4.0 Chrome/86.0.4240.99 XWEB/4317 MMWEBSDK/20220903 Mobile Safari/537.36 MMWEBID/7130 MicroMessenger/8.0.28.2240(0x28001C35) WeChat/arm64 Weixin NetType/WIFI Language/zh_CN ABI/arm64","WebKit","Chrome","86.0.4240.99","AndroidOS","8.0.0","null","<div style=""font-size:60px;"">+</div>","null",""
"","","","","","html-button-response","71","236040","0.0-4.0-1.33","279","1","2022-10-15 11:50:07","d60b49b5908c80e163b920d72b52d584","113.220.122.19","Mozilla/5.0 (Linux; Android 8.0.0; BAC-AL00 Build/HUAWEIBAC-AL00; wv) AppleWebKit/537.36 (KHTML, like Gecko) Version/4.0 Chrome/86.0.4240.99 XWEB/4317 MMWEBSDK/20220903 Mobile Safari/537.36 MMWEBID/7130 MicroMessenger/8.0.28.2240(0x28001C35) WeChat/arm64 Weixin NetType/WIFI Language/zh_CN ABI/arm64","WebKit","Chrome","86.0.4240.99","AndroidOS","8.0.0","997","<p>作为军队的指挥官，你可以选择发射导弹杀死 <strong>2名</strong> 敌国士兵，但会炸毁附近的 <strong>1棵</strong> 敌国树木。</p> <p>树木的照片如下图所示。</p> <p></p> <img src='stimuli/trees/7.png', style='max-width: 30%;'> </img> <p><strong>你是否选择发射武器？</strong></p>","1",""
"","","","","","html-keyboard-response","72","237060","0.0-4.0-0.34","279","1","2022-10-15 11:50:07","d60b49b5908c80e163b920d72b52d584","113.220.122.19","Mozilla/5.0 (Linux; Android 8.0.0; BAC-AL00 Build/HUAWEIBAC-AL00; wv) AppleWebKit/537.36 (KHTML, like Gecko) Version/4.0 Chrome/86.0.4240.99 XWEB/4317 MMWEBSDK/20220903 Mobile Safari/537.36 MMWEBID/7130 MicroMessenger/8.0.28.2240(0x28001C35) WeChat/arm64 Weixin NetType/WIFI Language/zh_CN ABI/arm64","WebKit","Chrome","86.0.4240.99","AndroidOS","8.0.0","null","<div style=""font-size:60px;"">+</div>","null",""
"","","","","","html-button-response","73","251150","0.0-4.0-1.34","279","1","2022-10-15 11:50:07","d60b49b5908c80e163b920d72b52d584","113.220.122.19","Mozilla/5.0 (Linux; Android 8.0.0; BAC-AL00 Build/HUAWEIBAC-AL00; wv) AppleWebKit/537.36 (KHTML, like Gecko) Version/4.0 Chrome/86.0.4240.99 XWEB/4317 MMWEBSDK/20220903 Mobile Safari/537.36 MMWEBID/7130 MicroMessenger/8.0.28.2240(0x28001C35) WeChat/arm64 Weixin NetType/WIFI Language/zh_CN ABI/arm64","WebKit","Chrome","86.0.4240.99","AndroidOS","8.0.0","14050","<p>作为军队的指挥官，你可以选择发射导弹杀死 <strong>7名</strong> 敌国士兵，但会炸毁附近的 <strong>1棵</strong> 敌国树木。</p> <p>树木的照片如下图所示。</p> <p></p> <img src='stimuli/trees/7.png', style='max-width: 30%;'> </img> <p><strong>你是否选择发射武器？</strong></p>","0",""
"","","","","","html-keyboard-response","74","252165","0.0-4.0-0.35","279","1","2022-10-15 11:50:07","d60b49b5908c80e163b920d72b52d584","113.220.122.19","Mozilla/5.0 (Linux; Android 8.0.0; BAC-AL00 Build/HUAWEIBAC-AL00; wv) AppleWebKit/537.36 (KHTML, like Gecko) Version/4.0 Chrome/86.0.4240.99 XWEB/4317 MMWEBSDK/20220903 Mobile Safari/537.36 MMWEBID/7130 MicroMessenger/8.0.28.2240(0x28001C35) WeChat/arm64 Weixin NetType/WIFI Language/zh_CN ABI/arm64","WebKit","Chrome","86.0.4240.99","AndroidOS","8.0.0","null","<div style=""font-size:60px;"">+</div>","null",""
"","","","","","html-button-response","75","252946","0.0-4.0-1.35","279","1","2022-10-15 11:50:07","d60b49b5908c80e163b920d72b52d584","113.220.122.19","Mozilla/5.0 (Linux; Android 8.0.0; BAC-AL00 Build/HUAWEIBAC-AL00; wv) AppleWebKit/537.36 (KHTML, like Gecko) Version/4.0 Chrome/86.0.4240.99 XWEB/4317 MMWEBSDK/20220903 Mobile Safari/537.36 MMWEBID/7130 MicroMessenger/8.0.28.2240(0x28001C35) WeChat/arm64 Weixin NetType/WIFI Language/zh_CN ABI/arm64","WebKit","Chrome","86.0.4240.99","AndroidOS","8.0.0","741","<p>作为军队的指挥官，你可以选择发射导弹杀死 <strong>6名</strong> 敌国士兵，但会误杀附近的 <strong>1名</strong> 敌国平民。</p> <p>平民照片如下图所示。</p> <p></p> <img src='stimuli/faces/NCF4.jpg', style='max-width: 30%;'> </img> <p><strong>你是否选择发射武器？</strong></p>","1",""
"","","","","","html-keyboard-response","76","253965","0.0-4.0-0.36","279","1","2022-10-15 11:50:07","d60b49b5908c80e163b920d72b52d584","113.220.122.19","Mozilla/5.0 (Linux; Android 8.0.0; BAC-AL00 Build/HUAWEIBAC-AL00; wv) AppleWebKit/537.36 (KHTML, like Gecko) Version/4.0 Chrome/86.0.4240.99 XWEB/4317 MMWEBSDK/20220903 Mobile Safari/537.36 MMWEBID/7130 MicroMessenger/8.0.28.2240(0x28001C35) WeChat/arm64 Weixin NetType/WIFI Language/zh_CN ABI/arm64","WebKit","Chrome","86.0.4240.99","AndroidOS","8.0.0","null","<div style=""font-size:60px;"">+</div>","null",""
"","","","","","html-button-response","77","254563","0.0-4.0-1.36","279","1","2022-10-15 11:50:07","d60b49b5908c80e163b920d72b52d584","113.220.122.19","Mozilla/5.0 (Linux; Android 8.0.0; BAC-AL00 Build/HUAWEIBAC-AL00; wv) AppleWebKit/537.36 (KHTML, like Gecko) Version/4.0 Chrome/86.0.4240.99 XWEB/4317 MMWEBSDK/20220903 Mobile Safari/537.36 MMWEBID/7130 MicroMessenger/8.0.28.2240(0x28001C35) WeChat/arm64 Weixin NetType/WIFI Language/zh_CN ABI/arm64","WebKit","Chrome","86.0.4240.99","AndroidOS","8.0.0","554","<p>作为军队的指挥官，你可以选择发射导弹杀死 <strong>9名</strong> 敌国士兵，但会误杀附近的 <strong>1名</strong> 敌国平民。</p> <p>平民照片如下图所示。</p> <p></p> <img src='stimuli/faces/NCM5.jpg', style='max-width: 30%;'> </img> <p><strong>你是否选择发射武器？</strong></p>","0",""
"","","","","","html-keyboard-response","78","255584","0.0-4.0-0.37","279","1","2022-10-15 11:50:07","d60b49b5908c80e163b920d72b52d584","113.220.122.19","Mozilla/5.0 (Linux; Android 8.0.0; BAC-AL00 Build/HUAWEIBAC-AL00; wv) AppleWebKit/537.36 (KHTML, like Gecko) Version/4.0 Chrome/86.0.4240.99 XWEB/4317 MMWEBSDK/20220903 Mobile Safari/537.36 MMWEBID/7130 MicroMessenger/8.0.28.2240(0x28001C35) WeChat/arm64 Weixin NetType/WIFI Language/zh_CN ABI/arm64","WebKit","Chrome","86.0.4240.99","AndroidOS","8.0.0","null","<div style=""font-size:60px;"">+</div>","null",""
"","","","","","html-button-response","79","256147","0.0-4.0-1.37","279","1","2022-10-15 11:50:07","d60b49b5908c80e163b920d72b52d584","113.220.122.19","Mozilla/5.0 (Linux; Android 8.0.0; BAC-AL00 Build/HUAWEIBAC-AL00; wv) AppleWebKit/537.36 (KHTML, like Gecko) Version/4.0 Chrome/86.0.4240.99 XWEB/4317 MMWEBSDK/20220903 Mobile Safari/537.36 MMWEBID/7130 MicroMessenger/8.0.28.2240(0x28001C35) WeChat/arm64 Weixin NetType/WIFI Language/zh_CN ABI/arm64","WebKit","Chrome","86.0.4240.99","AndroidOS","8.0.0","523","<p>作为军队的指挥官，你可以选择发射导弹杀死 <strong>5名</strong> 敌国士兵，但会误杀附近的 <strong>1名</strong> 敌国平民。</p> <p>平民照片如下图所示。</p> <p></p> <img src='stimuli/faces/NCM7.jpg', style='max-width: 30%;'> </img> <p><strong>你是否选择发射武器？</strong></p>","1",""
"","","","","","html-keyboard-response","80","257168","0.0-4.0-0.38","279","1","2022-10-15 11:50:07","d60b49b5908c80e163b920d72b52d584","113.220.122.19","Mozilla/5.0 (Linux; Android 8.0.0; BAC-AL00 Build/HUAWEIBAC-AL00; wv) AppleWebKit/537.36 (KHTML, like Gecko) Version/4.0 Chrome/86.0.4240.99 XWEB/4317 MMWEBSDK/20220903 Mobile Safari/537.36 MMWEBID/7130 MicroMessenger/8.0.28.2240(0x28001C35) WeChat/arm64 Weixin NetType/WIFI Language/zh_CN ABI/arm64","WebKit","Chrome","86.0.4240.99","AndroidOS","8.0.0","null","<div style=""font-size:60px;"">+</div>","null",""
"","","","","","html-button-response","81","257774","0.0-4.0-1.38","279","1","2022-10-15 11:50:07","d60b49b5908c80e163b920d72b52d584","113.220.122.19","Mozilla/5.0 (Linux; Android 8.0.0; BAC-AL00 Build/HUAWEIBAC-AL00; wv) AppleWebKit/537.36 (KHTML, like Gecko) Version/4.0 Chrome/86.0.4240.99 XWEB/4317 MMWEBSDK/20220903 Mobile Safari/537.36 MMWEBID/7130 MicroMessenger/8.0.28.2240(0x28001C35) WeChat/arm64 Weixin NetType/WIFI Language/zh_CN ABI/arm64","WebKit","Chrome","86.0.4240.99","AndroidOS","8.0.0","564","<p>作为军队的指挥官，你可以选择发射导弹杀死 <strong>5名</strong> 敌国士兵，但会炸毁附近的 <strong>1棵</strong> 敌国树木。</p> <p>树木的照片如下图所示。</p> <p></p> <img src='stimuli/trees/10.png', style='max-width: 30%;'> </img> <p><strong>你是否选择发射武器？</strong></p>","0",""
"","","","","","html-keyboard-response","82","258794","0.0-4.0-0.39","279","1","2022-10-15 11:50:07","d60b49b5908c80e163b920d72b52d584","113.220.122.19","Mozilla/5.0 (Linux; Android 8.0.0; BAC-AL00 Build/HUAWEIBAC-AL00; wv) AppleWebKit/537.36 (KHTML, like Gecko) Version/4.0 Chrome/86.0.4240.99 XWEB/4317 MMWEBSDK/20220903 Mobile Safari/537.36 MMWEBID/7130 MicroMessenger/8.0.28.2240(0x28001C35) WeChat/arm64 Weixin NetType/WIFI Language/zh_CN ABI/arm64","WebKit","Chrome","86.0.4240.99","AndroidOS","8.0.0","null","<div style=""font-size:60px;"">+</div>","null",""
"","","","","","html-button-response","83","263858","0.0-4.0-1.39","279","1","2022-10-15 11:50:07","d60b49b5908c80e163b920d72b52d584","113.220.122.19","Mozilla/5.0 (Linux; Android 8.0.0; BAC-AL00 Build/HUAWEIBAC-AL00; wv) AppleWebKit/537.36 (KHTML, like Gecko) Version/4.0 Chrome/86.0.4240.99 XWEB/4317 MMWEBSDK/20220903 Mobile Safari/537.36 MMWEBID/7130 MicroMessenger/8.0.28.2240(0x28001C35) WeChat/arm64 Weixin NetType/WIFI Language/zh_CN ABI/arm64","WebKit","Chrome","86.0.4240.99","AndroidOS","8.0.0","5022","<p>作为军队的指挥官，你可以选择发射导弹杀死 <strong>1名</strong> 敌国士兵，但会误杀附近的 <strong>1名</strong> 敌国平民。</p> <p>平民照片如下图所示。</p> <p></p> <img src='stimuli/faces/NCF5.jpg', style='max-width: 30%;'> </img> <p><strong>你是否选择发射武器？</strong></p>","0",""
"","","","","","html-keyboard-response","84","264882","0.0-4.0-0.40","279","1","2022-10-15 11:50:07","d60b49b5908c80e163b920d72b52d584","113.220.122.19","Mozilla/5.0 (Linux; Android 8.0.0; BAC-AL00 Build/HUAWEIBAC-AL00; wv) AppleWebKit/537.36 (KHTML, like Gecko) Version/4.0 Chrome/86.0.4240.99 XWEB/4317 MMWEBSDK/20220903 Mobile Safari/537.36 MMWEBID/7130 MicroMessenger/8.0.28.2240(0x28001C35) WeChat/arm64 Weixin NetType/WIFI Language/zh_CN ABI/arm64","WebKit","Chrome","86.0.4240.99","AndroidOS","8.0.0","null","<div style=""font-size:60px;"">+</div>","null",""
"","","","","","html-button-response","85","265729","0.0-4.0-1.40","279","1","2022-10-15 11:50:07","d60b49b5908c80e163b920d72b52d584","113.220.122.19","Mozilla/5.0 (Linux; Android 8.0.0; BAC-AL00 Build/HUAWEIBAC-AL00; wv) AppleWebKit/537.36 (KHTML, like Gecko) Version/4.0 Chrome/86.0.4240.99 XWEB/4317 MMWEBSDK/20220903 Mobile Safari/537.36 MMWEBID/7130 MicroMessenger/8.0.28.2240(0x28001C35) WeChat/arm64 Weixin NetType/WIFI Language/zh_CN ABI/arm64","WebKit","Chrome","86.0.4240.99","AndroidOS","8.0.0","812","<p>作为军队的指挥官，你可以选择发射导弹杀死 <strong>10名</strong> 敌国士兵，但会炸毁附近的 <strong>1棵</strong> 敌国树木。</p> <p>树木的照片如下图所示。</p> <p></p> <img src='stimuli/trees/14.png', style='max-width: 30%;'> </img> <p><strong>你是否选择发射武器？</strong></p>","1",""
"","","","","","html-keyboard-response","86","266749","0.0-4.0-0.41","279","1","2022-10-15 11:50:07","d60b49b5908c80e163b920d72b52d584","113.220.122.19","Mozilla/5.0 (Linux; Android 8.0.0; BAC-AL00 Build/HUAWEIBAC-AL00; wv) AppleWebKit/537.36 (KHTML, like Gecko) Version/4.0 Chrome/86.0.4240.99 XWEB/4317 MMWEBSDK/20220903 Mobile Safari/537.36 MMWEBID/7130 MicroMessenger/8.0.28.2240(0x28001C35) WeChat/arm64 Weixin NetType/WIFI Language/zh_CN ABI/arm64","WebKit","Chrome","86.0.4240.99","AndroidOS","8.0.0","null","<div style=""font-size:60px;"">+</div>","null",""
"","","","","","html-button-response","87","267668","0.0-4.0-1.41","279","1","2022-10-15 11:50:07","d60b49b5908c80e163b920d72b52d584","113.220.122.19","Mozilla/5.0 (Linux; Android 8.0.0; BAC-AL00 Build/HUAWEIBAC-AL00; wv) AppleWebKit/537.36 (KHTML, like Gecko) Version/4.0 Chrome/86.0.4240.99 XWEB/4317 MMWEBSDK/20220903 Mobile Safari/537.36 MMWEBID/7130 MicroMessenger/8.0.28.2240(0x28001C35) WeChat/arm64 Weixin NetType/WIFI Language/zh_CN ABI/arm64","WebKit","Chrome","86.0.4240.99","AndroidOS","8.0.0","875","<p>作为军队的指挥官，你可以选择发射导弹杀死 <strong>7名</strong> 敌国士兵，但会误杀附近的 <strong>1名</strong> 敌国平民。</p> <p>平民照片如下图所示。</p> <p></p> <img src='stimuli/faces/NCM4.jpg', style='max-width: 30%;'> </img> <p><strong>你是否选择发射武器？</strong></p>","0",""
"","","","","","html-keyboard-response","88","268690","0.0-4.0-0.42","279","1","2022-10-15 11:50:07","d60b49b5908c80e163b920d72b52d584","113.220.122.19","Mozilla/5.0 (Linux; Android 8.0.0; BAC-AL00 Build/HUAWEIBAC-AL00; wv) AppleWebKit/537.36 (KHTML, like Gecko) Version/4.0 Chrome/86.0.4240.99 XWEB/4317 MMWEBSDK/20220903 Mobile Safari/537.36 MMWEBID/7130 MicroMessenger/8.0.28.2240(0x28001C35) WeChat/arm64 Weixin NetType/WIFI Language/zh_CN ABI/arm64","WebKit","Chrome","86.0.4240.99","AndroidOS","8.0.0","null","<div style=""font-size:60px;"">+</div>","null",""
"","","","","","html-button-response","89","271258","0.0-4.0-1.42","279","1","2022-10-15 11:50:07","d60b49b5908c80e163b920d72b52d584","113.220.122.19","Mozilla/5.0 (Linux; Android 8.0.0; BAC-AL00 Build/HUAWEIBAC-AL00; wv) AppleWebKit/537.36 (KHTML, like Gecko) Version/4.0 Chrome/86.0.4240.99 XWEB/4317 MMWEBSDK/20220903 Mobile Safari/537.36 MMWEBID/7130 MicroMessenger/8.0.28.2240(0x28001C35) WeChat/arm64 Weixin NetType/WIFI Language/zh_CN ABI/arm64","WebKit","Chrome","86.0.4240.99","AndroidOS","8.0.0","2525","<p>作为军队的指挥官，你可以选择发射导弹杀死 <strong>1名</strong> 敌国士兵，但会炸毁附近的 <strong>1棵</strong> 敌国树木。</p> <p>树木的照片如下图所示。</p> <p></p> <img src='stimuli/trees/5.png', style='max-width: 30%;'> </img> <p><strong>你是否选择发射武器？</strong></p>","0",""
"","","","","","html-keyboard-response","90","272276","0.0-4.0-0.43","279","1","2022-10-15 11:50:07","d60b49b5908c80e163b920d72b52d584","113.220.122.19","Mozilla/5.0 (Linux; Android 8.0.0; BAC-AL00 Build/HUAWEIBAC-AL00; wv) AppleWebKit/537.36 (KHTML, like Gecko) Version/4.0 Chrome/86.0.4240.99 XWEB/4317 MMWEBSDK/20220903 Mobile Safari/537.36 MMWEBID/7130 MicroMessenger/8.0.28.2240(0x28001C35) WeChat/arm64 Weixin NetType/WIFI Language/zh_CN ABI/arm64","WebKit","Chrome","86.0.4240.99","AndroidOS","8.0.0","null","<div style=""font-size:60px;"">+</div>","null",""
"","","","","","html-button-response","91","272892","0.0-4.0-1.43","279","1","2022-10-15 11:50:07","d60b49b5908c80e163b920d72b52d584","113.220.122.19","Mozilla/5.0 (Linux; Android 8.0.0; BAC-AL00 Build/HUAWEIBAC-AL00; wv) AppleWebKit/537.36 (KHTML, like Gecko) Version/4.0 Chrome/86.0.4240.99 XWEB/4317 MMWEBSDK/20220903 Mobile Safari/537.36 MMWEBID/7130 MicroMessenger/8.0.28.2240(0x28001C35) WeChat/arm64 Weixin NetType/WIFI Language/zh_CN ABI/arm64","WebKit","Chrome","86.0.4240.99","AndroidOS","8.0.0","591","<p>作为军队的指挥官，你可以选择发射导弹杀死 <strong>7名</strong> 敌国士兵，但会误杀附近的 <strong>1名</strong> 敌国平民。</p> <p>平民照片如下图所示。</p> <p></p> <img src='stimuli/faces/NCF7.jpg', style='max-width: 30%;'> </img> <p><strong>你是否选择发射武器？</strong></p>","0",""
"","","","","","html-keyboard-response","92","273913","0.0-4.0-0.44","279","1","2022-10-15 11:50:07","d60b49b5908c80e163b920d72b52d584","113.220.122.19","Mozilla/5.0 (Linux; Android 8.0.0; BAC-AL00 Build/HUAWEIBAC-AL00; wv) AppleWebKit/537.36 (KHTML, like Gecko) Version/4.0 Chrome/86.0.4240.99 XWEB/4317 MMWEBSDK/20220903 Mobile Safari/537.36 MMWEBID/7130 MicroMessenger/8.0.28.2240(0x28001C35) WeChat/arm64 Weixin NetType/WIFI Language/zh_CN ABI/arm64","WebKit","Chrome","86.0.4240.99","AndroidOS","8.0.0","null","<div style=""font-size:60px;"">+</div>","null",""
"","","","","","html-button-response","93","274503","0.0-4.0-1.44","279","1","2022-10-15 11:50:07","d60b49b5908c80e163b920d72b52d584","113.220.122.19","Mozilla/5.0 (Linux; Android 8.0.0; BAC-AL00 Build/HUAWEIBAC-AL00; wv) AppleWebKit/537.36 (KHTML, like Gecko) Version/4.0 Chrome/86.0.4240.99 XWEB/4317 MMWEBSDK/20220903 Mobile Safari/537.36 MMWEBID/7130 MicroMessenger/8.0.28.2240(0x28001C35) WeChat/arm64 Weixin NetType/WIFI Language/zh_CN ABI/arm64","WebKit","Chrome","86.0.4240.99","AndroidOS","8.0.0","549","<p>作为军队的指挥官，你可以选择发射导弹杀死 <strong>7名</strong> 敌国士兵，但会炸毁附近的 <strong>1棵</strong> 敌国树木。</p> <p>树木的照片如下图所示。</p> <p></p> <img src='stimuli/trees/16.png', style='max-width: 30%;'> </img> <p><strong>你是否选择发射武器？</strong></p>","0",""
"","","","","","html-keyboard-response","94","275524","0.0-4.0-0.45","279","1","2022-10-15 11:50:07","d60b49b5908c80e163b920d72b52d584","113.220.122.19","Mozilla/5.0 (Linux; Android 8.0.0; BAC-AL00 Build/HUAWEIBAC-AL00; wv) AppleWebKit/537.36 (KHTML, like Gecko) Version/4.0 Chrome/86.0.4240.99 XWEB/4317 MMWEBSDK/20220903 Mobile Safari/537.36 MMWEBID/7130 MicroMessenger/8.0.28.2240(0x28001C35) WeChat/arm64 Weixin NetType/WIFI Language/zh_CN ABI/arm64","WebKit","Chrome","86.0.4240.99","AndroidOS","8.0.0","null","<div style=""font-size:60px;"">+</div>","null",""
"","","","","","html-button-response","95","276121","0.0-4.0-1.45","279","1","2022-10-15 11:50:07","d60b49b5908c80e163b920d72b52d584","113.220.122.19","Mozilla/5.0 (Linux; Android 8.0.0; BAC-AL00 Build/HUAWEIBAC-AL00; wv) AppleWebKit/537.36 (KHTML, like Gecko) Version/4.0 Chrome/86.0.4240.99 XWEB/4317 MMWEBSDK/20220903 Mobile Safari/537.36 MMWEBID/7130 MicroMessenger/8.0.28.2240(0x28001C35) WeChat/arm64 Weixin NetType/WIFI Language/zh_CN ABI/arm64","WebKit","Chrome","86.0.4240.99","AndroidOS","8.0.0","563","<p>作为军队的指挥官，你可以选择发射导弹杀死 <strong>1名</strong> 敌国士兵，但会炸毁附近的 <strong>1棵</strong> 敌国树木。</p> <p>树木的照片如下图所示。</p> <p></p> <img src='stimuli/trees/2.png', style='max-width: 30%;'> </img> <p><strong>你是否选择发射武器？</strong></p>","1",""
"","","","","","html-keyboard-response","96","277143","0.0-4.0-0.46","279","1","2022-10-15 11:50:07","d60b49b5908c80e163b920d72b52d584","113.220.122.19","Mozilla/5.0 (Linux; Android 8.0.0; BAC-AL00 Build/HUAWEIBAC-AL00; wv) AppleWebKit/537.36 (KHTML, like Gecko) Version/4.0 Chrome/86.0.4240.99 XWEB/4317 MMWEBSDK/20220903 Mobile Safari/537.36 MMWEBID/7130 MicroMessenger/8.0.28.2240(0x28001C35) WeChat/arm64 Weixin NetType/WIFI Language/zh_CN ABI/arm64","WebKit","Chrome","86.0.4240.99","AndroidOS","8.0.0","null","<div style=""font-size:60px;"">+</div>","null",""
"","","","","","html-button-response","97","279138","0.0-4.0-1.46","279","1","2022-10-15 11:50:07","d60b49b5908c80e163b920d72b52d584","113.220.122.19","Mozilla/5.0 (Linux; Android 8.0.0; BAC-AL00 Build/HUAWEIBAC-AL00; wv) AppleWebKit/537.36 (KHTML, like Gecko) Version/4.0 Chrome/86.0.4240.99 XWEB/4317 MMWEBSDK/20220903 Mobile Safari/537.36 MMWEBID/7130 MicroMessenger/8.0.28.2240(0x28001C35) WeChat/arm64 Weixin NetType/WIFI Language/zh_CN ABI/arm64","WebKit","Chrome","86.0.4240.99","AndroidOS","8.0.0","1953","<p>作为军队的指挥官，你可以选择发射导弹杀死 <strong>4名</strong> 敌国士兵，但会误杀附近的 <strong>1名</strong> 敌国平民。</p> <p>平民照片如下图所示。</p> <p></p> <img src='stimuli/faces/NCM4.jpg', style='max-width: 30%;'> </img> <p><strong>你是否选择发射武器？</strong></p>","1",""
"","","","","","html-keyboard-response","98","280156","0.0-4.0-0.47","279","1","2022-10-15 11:50:07","d60b49b5908c80e163b920d72b52d584","113.220.122.19","Mozilla/5.0 (Linux; Android 8.0.0; BAC-AL00 Build/HUAWEIBAC-AL00; wv) AppleWebKit/537.36 (KHTML, like Gecko) Version/4.0 Chrome/86.0.4240.99 XWEB/4317 MMWEBSDK/20220903 Mobile Safari/537.36 MMWEBID/7130 MicroMessenger/8.0.28.2240(0x28001C35) WeChat/arm64 Weixin NetType/WIFI Language/zh_CN ABI/arm64","WebKit","Chrome","86.0.4240.99","AndroidOS","8.0.0","null","<div style=""font-size:60px;"">+</div>","null",""
"","","","","","html-button-response","99","282450","0.0-4.0-1.47","279","1","2022-10-15 11:50:07","d60b49b5908c80e163b920d72b52d584","113.220.122.19","Mozilla/5.0 (Linux; Android 8.0.0; BAC-AL00 Build/HUAWEIBAC-AL00; wv) AppleWebKit/537.36 (KHTML, like Gecko) Version/4.0 Chrome/86.0.4240.99 XWEB/4317 MMWEBSDK/20220903 Mobile Safari/537.36 MMWEBID/7130 MicroMessenger/8.0.28.2240(0x28001C35) WeChat/arm64 Weixin NetType/WIFI Language/zh_CN ABI/arm64","WebKit","Chrome","86.0.4240.99","AndroidOS","8.0.0","2254","<p>作为军队的指挥官，你可以选择发射导弹杀死 <strong>9名</strong> 敌国士兵，但会误杀附近的 <strong>1名</strong> 敌国平民。</p> <p>平民照片如下图所示。</p> <p></p> <img src='stimuli/faces/NCM6.jpg', style='max-width: 30%;'> </img> <p><strong>你是否选择发射武器？</strong></p>","0",""
"","","","","","html-keyboard-response","100","283472","0.0-4.0-0.48","279","1","2022-10-15 11:50:07","d60b49b5908c80e163b920d72b52d584","113.220.122.19","Mozilla/5.0 (Linux; Android 8.0.0; BAC-AL00 Build/HUAWEIBAC-AL00; wv) AppleWebKit/537.36 (KHTML, like Gecko) Version/4.0 Chrome/86.0.4240.99 XWEB/4317 MMWEBSDK/20220903 Mobile Safari/537.36 MMWEBID/7130 MicroMessenger/8.0.28.2240(0x28001C35) WeChat/arm64 Weixin NetType/WIFI Language/zh_CN ABI/arm64","WebKit","Chrome","86.0.4240.99","AndroidOS","8.0.0","null","<div style=""font-size:60px;"">+</div>","null",""
"","","","","","html-button-response","101","286948","0.0-4.0-1.48","279","1","2022-10-15 11:50:07","d60b49b5908c80e163b920d72b52d584","113.220.122.19","Mozilla/5.0 (Linux; Android 8.0.0; BAC-AL00 Build/HUAWEIBAC-AL00; wv) AppleWebKit/537.36 (KHTML, like Gecko) Version/4.0 Chrome/86.0.4240.99 XWEB/4317 MMWEBSDK/20220903 Mobile Safari/537.36 MMWEBID/7130 MicroMessenger/8.0.28.2240(0x28001C35) WeChat/arm64 Weixin NetType/WIFI Language/zh_CN ABI/arm64","WebKit","Chrome","86.0.4240.99","AndroidOS","8.0.0","3427","<p>作为军队的指挥官，你可以选择发射导弹杀死 <strong>10名</strong> 敌国士兵，但会炸毁附近的 <strong>1棵</strong> 敌国树木。</p> <p>树木的照片如下图所示。</p> <p></p> <img src='stimuli/trees/8.png', style='max-width: 30%;'> </img> <p><strong>你是否选择发射武器？</strong></p>","1",""
"","","","","","html-keyboard-response","102","287970","0.0-4.0-0.49","279","1","2022-10-15 11:50:07","d60b49b5908c80e163b920d72b52d584","113.220.122.19","Mozilla/5.0 (Linux; Android 8.0.0; BAC-AL00 Build/HUAWEIBAC-AL00; wv) AppleWebKit/537.36 (KHTML, like Gecko) Version/4.0 Chrome/86.0.4240.99 XWEB/4317 MMWEBSDK/20220903 Mobile Safari/537.36 MMWEBID/7130 MicroMessenger/8.0.28.2240(0x28001C35) WeChat/arm64 Weixin NetType/WIFI Language/zh_CN ABI/arm64","WebKit","Chrome","86.0.4240.99","AndroidOS","8.0.0","null","<div style=""font-size:60px;"">+</div>","null",""
"","","","","","html-button-response","103","291852","0.0-4.0-1.49","279","1","2022-10-15 11:50:07","d60b49b5908c80e163b920d72b52d584","113.220.122.19","Mozilla/5.0 (Linux; Android 8.0.0; BAC-AL00 Build/HUAWEIBAC-AL00; wv) AppleWebKit/537.36 (KHTML, like Gecko) Version/4.0 Chrome/86.0.4240.99 XWEB/4317 MMWEBSDK/20220903 Mobile Safari/537.36 MMWEBID/7130 MicroMessenger/8.0.28.2240(0x28001C35) WeChat/arm64 Weixin NetType/WIFI Language/zh_CN ABI/arm64","WebKit","Chrome","86.0.4240.99","AndroidOS","8.0.0","3839","<p>作为军队的指挥官，你可以选择发射导弹杀死 <strong>9名</strong> 敌国士兵，但会误杀附近的 <strong>1名</strong> 敌国平民。</p> <p>平民照片如下图所示。</p> <p></p> <img src='stimuli/faces/NCF8.jpg', style='max-width: 30%;'> </img> <p><strong>你是否选择发射武器？</strong></p>","0",""
"","","","","","html-keyboard-response","104","292871","0.0-4.0-0.50","279","1","2022-10-15 11:50:07","d60b49b5908c80e163b920d72b52d584","113.220.122.19","Mozilla/5.0 (Linux; Android 8.0.0; BAC-AL00 Build/HUAWEIBAC-AL00; wv) AppleWebKit/537.36 (KHTML, like Gecko) Version/4.0 Chrome/86.0.4240.99 XWEB/4317 MMWEBSDK/20220903 Mobile Safari/537.36 MMWEBID/7130 MicroMessenger/8.0.28.2240(0x28001C35) WeChat/arm64 Weixin NetType/WIFI Language/zh_CN ABI/arm64","WebKit","Chrome","86.0.4240.99","AndroidOS","8.0.0","null","<div style=""font-size:60px;"">+</div>","null",""
"","","","","","html-button-response","105","293850","0.0-4.0-1.50","279","1","2022-10-15 11:50:07","d60b49b5908c80e163b920d72b52d584","113.220.122.19","Mozilla/5.0 (Linux; Android 8.0.0; BAC-AL00 Build/HUAWEIBAC-AL00; wv) AppleWebKit/537.36 (KHTML, like Gecko) Version/4.0 Chrome/86.0.4240.99 XWEB/4317 MMWEBSDK/20220903 Mobile Safari/537.36 MMWEBID/7130 MicroMessenger/8.0.28.2240(0x28001C35) WeChat/arm64 Weixin NetType/WIFI Language/zh_CN ABI/arm64","WebKit","Chrome","86.0.4240.99","AndroidOS","8.0.0","956","<p>作为军队的指挥官，你可以选择发射导弹杀死 <strong>1名</strong> 敌国士兵，但会误杀附近的 <strong>1名</strong> 敌国平民。</p> <p>平民照片如下图所示。</p> <p></p> <img src='stimuli/faces/NCF2.jpg', style='max-width: 30%;'> </img> <p><strong>你是否选择发射武器？</strong></p>","0",""
"","","","","","html-keyboard-response","106","294869","0.0-4.0-0.51","279","1","2022-10-15 11:50:07","d60b49b5908c80e163b920d72b52d584","113.220.122.19","Mozilla/5.0 (Linux; Android 8.0.0; BAC-AL00 Build/HUAWEIBAC-AL00; wv) AppleWebKit/537.36 (KHTML, like Gecko) Version/4.0 Chrome/86.0.4240.99 XWEB/4317 MMWEBSDK/20220903 Mobile Safari/537.36 MMWEBID/7130 MicroMessenger/8.0.28.2240(0x28001C35) WeChat/arm64 Weixin NetType/WIFI Language/zh_CN ABI/arm64","WebKit","Chrome","86.0.4240.99","AndroidOS","8.0.0","null","<div style=""font-size:60px;"">+</div>","null",""
"","","","","","html-button-response","107","297388","0.0-4.0-1.51","279","1","2022-10-15 11:50:07","d60b49b5908c80e163b920d72b52d584","113.220.122.19","Mozilla/5.0 (Linux; Android 8.0.0; BAC-AL00 Build/HUAWEIBAC-AL00; wv) AppleWebKit/537.36 (KHTML, like Gecko) Version/4.0 Chrome/86.0.4240.99 XWEB/4317 MMWEBSDK/20220903 Mobile Safari/537.36 MMWEBID/7130 MicroMessenger/8.0.28.2240(0x28001C35) WeChat/arm64 Weixin NetType/WIFI Language/zh_CN ABI/arm64","WebKit","Chrome","86.0.4240.99","AndroidOS","8.0.0","2496","<p>作为军队的指挥官，你可以选择发射导弹杀死 <strong>1名</strong> 敌国士兵，但会误杀附近的 <strong>1名</strong> 敌国平民。</p> <p>平民照片如下图所示。</p> <p></p> <img src='stimuli/faces/NCM8.jpg', style='max-width: 30%;'> </img> <p><strong>你是否选择发射武器？</strong></p>","0",""
"","","","","","html-keyboard-response","108","298406","0.0-4.0-0.52","279","1","2022-10-15 11:50:07","d60b49b5908c80e163b920d72b52d584","113.220.122.19","Mozilla/5.0 (Linux; Android 8.0.0; BAC-AL00 Build/HUAWEIBAC-AL00; wv) AppleWebKit/537.36 (KHTML, like Gecko) Version/4.0 Chrome/86.0.4240.99 XWEB/4317 MMWEBSDK/20220903 Mobile Safari/537.36 MMWEBID/7130 MicroMessenger/8.0.28.2240(0x28001C35) WeChat/arm64 Weixin NetType/WIFI Language/zh_CN ABI/arm64","WebKit","Chrome","86.0.4240.99","AndroidOS","8.0.0","null","<div style=""font-size:60px;"">+</div>","null",""
"","","","","","html-button-response","109","299383","0.0-4.0-1.52","279","1","2022-10-15 11:50:07","d60b49b5908c80e163b920d72b52d584","113.220.122.19","Mozilla/5.0 (Linux; Android 8.0.0; BAC-AL00 Build/HUAWEIBAC-AL00; wv) AppleWebKit/537.36 (KHTML, like Gecko) Version/4.0 Chrome/86.0.4240.99 XWEB/4317 MMWEBSDK/20220903 Mobile Safari/537.36 MMWEBID/7130 MicroMessenger/8.0.28.2240(0x28001C35) WeChat/arm64 Weixin NetType/WIFI Language/zh_CN ABI/arm64","WebKit","Chrome","86.0.4240.99","AndroidOS","8.0.0","952","<p>作为军队的指挥官，你可以选择发射导弹杀死 <strong>8名</strong> 敌国士兵，但会炸毁附近的 <strong>1棵</strong> 敌国树木。</p> <p>树木的照片如下图所示。</p> <p></p> <img src='stimuli/trees/15.png', style='max-width: 30%;'> </img> <p><strong>你是否选择发射武器？</strong></p>","0",""
"","","","","","html-keyboard-response","110","300404","0.0-4.0-0.53","279","1","2022-10-15 11:50:07","d60b49b5908c80e163b920d72b52d584","113.220.122.19","Mozilla/5.0 (Linux; Android 8.0.0; BAC-AL00 Build/HUAWEIBAC-AL00; wv) AppleWebKit/537.36 (KHTML, like Gecko) Version/4.0 Chrome/86.0.4240.99 XWEB/4317 MMWEBSDK/20220903 Mobile Safari/537.36 MMWEBID/7130 MicroMessenger/8.0.28.2240(0x28001C35) WeChat/arm64 Weixin NetType/WIFI Language/zh_CN ABI/arm64","WebKit","Chrome","86.0.4240.99","AndroidOS","8.0.0","null","<div style=""font-size:60px;"">+</div>","null",""
"","","","","","html-button-response","111","301949","0.0-4.0-1.53","279","1","2022-10-15 11:50:07","d60b49b5908c80e163b920d72b52d584","113.220.122.19","Mozilla/5.0 (Linux; Android 8.0.0; BAC-AL00 Build/HUAWEIBAC-AL00; wv) AppleWebKit/537.36 (KHTML, like Gecko) Version/4.0 Chrome/86.0.4240.99 XWEB/4317 MMWEBSDK/20220903 Mobile Safari/537.36 MMWEBID/7130 MicroMessenger/8.0.28.2240(0x28001C35) WeChat/arm64 Weixin NetType/WIFI Language/zh_CN ABI/arm64","WebKit","Chrome","86.0.4240.99","AndroidOS","8.0.0","1502","<p>作为军队的指挥官，你可以选择发射导弹杀死 <strong>5名</strong> 敌国士兵，但会误杀附近的 <strong>1名</strong> 敌国平民。</p> <p>平民照片如下图所示。</p> <p></p> <img src='stimuli/faces/NCM5.jpg', style='max-width: 30%;'> </img> <p><strong>你是否选择发射武器？</strong></p>","1",""
"","","","","","html-keyboard-response","112","302979","0.0-4.0-0.54","279","1","2022-10-15 11:50:07","d60b49b5908c80e163b920d72b52d584","113.220.122.19","Mozilla/5.0 (Linux; Android 8.0.0; BAC-AL00 Build/HUAWEIBAC-AL00; wv) AppleWebKit/537.36 (KHTML, like Gecko) Version/4.0 Chrome/86.0.4240.99 XWEB/4317 MMWEBSDK/20220903 Mobile Safari/537.36 MMWEBID/7130 MicroMessenger/8.0.28.2240(0x28001C35) WeChat/arm64 Weixin NetType/WIFI Language/zh_CN ABI/arm64","WebKit","Chrome","86.0.4240.99","AndroidOS","8.0.0","null","<div style=""font-size:60px;"">+</div>","null",""
"","","","","","html-button-response","113","304190","0.0-4.0-1.54","279","1","2022-10-15 11:50:07","d60b49b5908c80e163b920d72b52d584","113.220.122.19","Mozilla/5.0 (Linux; Android 8.0.0; BAC-AL00 Build/HUAWEIBAC-AL00; wv) AppleWebKit/537.36 (KHTML, like Gecko) Version/4.0 Chrome/86.0.4240.99 XWEB/4317 MMWEBSDK/20220903 Mobile Safari/537.36 MMWEBID/7130 MicroMessenger/8.0.28.2240(0x28001C35) WeChat/arm64 Weixin NetType/WIFI Language/zh_CN ABI/arm64","WebKit","Chrome","86.0.4240.99","AndroidOS","8.0.0","1166","<p>作为军队的指挥官，你可以选择发射导弹杀死 <strong>2名</strong> 敌国士兵，但会炸毁附近的 <strong>1棵</strong> 敌国树木。</p> <p>树木的照片如下图所示。</p> <p></p> <img src='stimuli/trees/3.png', style='max-width: 30%;'> </img> <p><strong>你是否选择发射武器？</strong></p>","0",""
"","","","","","html-keyboard-response","114","305211","0.0-4.0-0.55","279","1","2022-10-15 11:50:07","d60b49b5908c80e163b920d72b52d584","113.220.122.19","Mozilla/5.0 (Linux; Android 8.0.0; BAC-AL00 Build/HUAWEIBAC-AL00; wv) AppleWebKit/537.36 (KHTML, like Gecko) Version/4.0 Chrome/86.0.4240.99 XWEB/4317 MMWEBSDK/20220903 Mobile Safari/537.36 MMWEBID/7130 MicroMessenger/8.0.28.2240(0x28001C35) WeChat/arm64 Weixin NetType/WIFI Language/zh_CN ABI/arm64","WebKit","Chrome","86.0.4240.99","AndroidOS","8.0.0","null","<div style=""font-size:60px;"">+</div>","null",""
"","","","","","html-button-response","115","311088","0.0-4.0-1.55","279","1","2022-10-15 11:50:07","d60b49b5908c80e163b920d72b52d584","113.220.122.19","Mozilla/5.0 (Linux; Android 8.0.0; BAC-AL00 Build/HUAWEIBAC-AL00; wv) AppleWebKit/537.36 (KHTML, like Gecko) Version/4.0 Chrome/86.0.4240.99 XWEB/4317 MMWEBSDK/20220903 Mobile Safari/537.36 MMWEBID/7130 MicroMessenger/8.0.28.2240(0x28001C35) WeChat/arm64 Weixin NetType/WIFI Language/zh_CN ABI/arm64","WebKit","Chrome","86.0.4240.99","AndroidOS","8.0.0","5838","<p>作为军队的指挥官，你可以选择发射导弹杀死 <strong>2名</strong> 敌国士兵，但会炸毁附近的 <strong>1棵</strong> 敌国树木。</p> <p>树木的照片如下图所示。</p> <p></p> <img src='stimuli/trees/11.png', style='max-width: 30%;'> </img> <p><strong>你是否选择发射武器？</strong></p>","0",""
"","","","","","html-keyboard-response","116","312112","0.0-4.0-0.56","279","1","2022-10-15 11:50:07","d60b49b5908c80e163b920d72b52d584","113.220.122.19","Mozilla/5.0 (Linux; Android 8.0.0; BAC-AL00 Build/HUAWEIBAC-AL00; wv) AppleWebKit/537.36 (KHTML, like Gecko) Version/4.0 Chrome/86.0.4240.99 XWEB/4317 MMWEBSDK/20220903 Mobile Safari/537.36 MMWEBID/7130 MicroMessenger/8.0.28.2240(0x28001C35) WeChat/arm64 Weixin NetType/WIFI Language/zh_CN ABI/arm64","WebKit","Chrome","86.0.4240.99","AndroidOS","8.0.0","null","<div style=""font-size:60px;"">+</div>","null",""
"","","","","","html-button-response","117","313077","0.0-4.0-1.56","279","1","2022-10-15 11:50:07","d60b49b5908c80e163b920d72b52d584","113.220.122.19","Mozilla/5.0 (Linux; Android 8.0.0; BAC-AL00 Build/HUAWEIBAC-AL00; wv) AppleWebKit/537.36 (KHTML, like Gecko) Version/4.0 Chrome/86.0.4240.99 XWEB/4317 MMWEBSDK/20220903 Mobile Safari/537.36 MMWEBID/7130 MicroMessenger/8.0.28.2240(0x28001C35) WeChat/arm64 Weixin NetType/WIFI Language/zh_CN ABI/arm64","WebKit","Chrome","86.0.4240.99","AndroidOS","8.0.0","942","<p>作为军队的指挥官，你可以选择发射导弹杀死 <strong>3名</strong> 敌国士兵，但会炸毁附近的 <strong>1棵</strong> 敌国树木。</p> <p>树木的照片如下图所示。</p> <p></p> <img src='stimuli/trees/16.png', style='max-width: 30%;'> </img> <p><strong>你是否选择发射武器？</strong></p>","0",""
"","","","","","html-keyboard-response","118","314100","0.0-4.0-0.57","279","1","2022-10-15 11:50:07","d60b49b5908c80e163b920d72b52d584","113.220.122.19","Mozilla/5.0 (Linux; Android 8.0.0; BAC-AL00 Build/HUAWEIBAC-AL00; wv) AppleWebKit/537.36 (KHTML, like Gecko) Version/4.0 Chrome/86.0.4240.99 XWEB/4317 MMWEBSDK/20220903 Mobile Safari/537.36 MMWEBID/7130 MicroMessenger/8.0.28.2240(0x28001C35) WeChat/arm64 Weixin NetType/WIFI Language/zh_CN ABI/arm64","WebKit","Chrome","86.0.4240.99","AndroidOS","8.0.0","null","<div style=""font-size:60px;"">+</div>","null",""
"","","","","","html-button-response","119","315226","0.0-4.0-1.57","279","1","2022-10-15 11:50:07","d60b49b5908c80e163b920d72b52d584","113.220.122.19","Mozilla/5.0 (Linux; Android 8.0.0; BAC-AL00 Build/HUAWEIBAC-AL00; wv) AppleWebKit/537.36 (KHTML, like Gecko) Version/4.0 Chrome/86.0.4240.99 XWEB/4317 MMWEBSDK/20220903 Mobile Safari/537.36 MMWEBID/7130 MicroMessenger/8.0.28.2240(0x28001C35) WeChat/arm64 Weixin NetType/WIFI Language/zh_CN ABI/arm64","WebKit","Chrome","86.0.4240.99","AndroidOS","8.0.0","1088","<p>作为军队的指挥官，你可以选择发射导弹杀死 <strong>9名</strong> 敌国士兵，但会炸毁附近的 <strong>1棵</strong> 敌国树木。</p> <p>树木的照片如下图所示。</p> <p></p> <img src='stimuli/trees/9.png', style='max-width: 30%;'> </img> <p><strong>你是否选择发射武器？</strong></p>","0",""
"","","","","","html-keyboard-response","120","316250","0.0-4.0-0.58","279","1","2022-10-15 11:50:07","d60b49b5908c80e163b920d72b52d584","113.220.122.19","Mozilla/5.0 (Linux; Android 8.0.0; BAC-AL00 Build/HUAWEIBAC-AL00; wv) AppleWebKit/537.36 (KHTML, like Gecko) Version/4.0 Chrome/86.0.4240.99 XWEB/4317 MMWEBSDK/20220903 Mobile Safari/537.36 MMWEBID/7130 MicroMessenger/8.0.28.2240(0x28001C35) WeChat/arm64 Weixin NetType/WIFI Language/zh_CN ABI/arm64","WebKit","Chrome","86.0.4240.99","AndroidOS","8.0.0","null","<div style=""font-size:60px;"">+</div>","null",""
"","","","","","html-button-response","121","317348","0.0-4.0-1.58","279","1","2022-10-15 11:50:07","d60b49b5908c80e163b920d72b52d584","113.220.122.19","Mozilla/5.0 (Linux; Android 8.0.0; BAC-AL00 Build/HUAWEIBAC-AL00; wv) AppleWebKit/537.36 (KHTML, like Gecko) Version/4.0 Chrome/86.0.4240.99 XWEB/4317 MMWEBSDK/20220903 Mobile Safari/537.36 MMWEBID/7130 MicroMessenger/8.0.28.2240(0x28001C35) WeChat/arm64 Weixin NetType/WIFI Language/zh_CN ABI/arm64","WebKit","Chrome","86.0.4240.99","AndroidOS","8.0.0","1066","<p>作为军队的指挥官，你可以选择发射导弹杀死 <strong>1名</strong> 敌国士兵，但会误杀附近的 <strong>1名</strong> 敌国平民。</p> <p>平民照片如下图所示。</p> <p></p> <img src='stimuli/faces/NCM2.jpg', style='max-width: 30%;'> </img> <p><strong>你是否选择发射武器？</strong></p>","0",""
"","","","","","html-keyboard-response","122","318371","0.0-4.0-0.59","279","1","2022-10-15 11:50:07","d60b49b5908c80e163b920d72b52d584","113.220.122.19","Mozilla/5.0 (Linux; Android 8.0.0; BAC-AL00 Build/HUAWEIBAC-AL00; wv) AppleWebKit/537.36 (KHTML, like Gecko) Version/4.0 Chrome/86.0.4240.99 XWEB/4317 MMWEBSDK/20220903 Mobile Safari/537.36 MMWEBID/7130 MicroMessenger/8.0.28.2240(0x28001C35) WeChat/arm64 Weixin NetType/WIFI Language/zh_CN ABI/arm64","WebKit","Chrome","86.0.4240.99","AndroidOS","8.0.0","null","<div style=""font-size:60px;"">+</div>","null",""
"","","","","","html-button-response","123","319846","0.0-4.0-1.59","279","1","2022-10-15 11:50:07","d60b49b5908c80e163b920d72b52d584","113.220.122.19","Mozilla/5.0 (Linux; Android 8.0.0; BAC-AL00 Build/HUAWEIBAC-AL00; wv) AppleWebKit/537.36 (KHTML, like Gecko) Version/4.0 Chrome/86.0.4240.99 XWEB/4317 MMWEBSDK/20220903 Mobile Safari/537.36 MMWEBID/7130 MicroMessenger/8.0.28.2240(0x28001C35) WeChat/arm64 Weixin NetType/WIFI Language/zh_CN ABI/arm64","WebKit","Chrome","86.0.4240.99","AndroidOS","8.0.0","1431","<p>作为军队的指挥官，你可以选择发射导弹杀死 <strong>9名</strong> 敌国士兵，但会误杀附近的 <strong>1名</strong> 敌国平民。</p> <p>平民照片如下图所示。</p> <p></p> <img src='stimuli/faces/NCF1.jpg', style='max-width: 30%;'> </img> <p><strong>你是否选择发射武器？</strong></p>","1",""
"","","","","","html-keyboard-response","124","320870","0.0-4.0-0.60","279","1","2022-10-15 11:50:07","d60b49b5908c80e163b920d72b52d584","113.220.122.19","Mozilla/5.0 (Linux; Android 8.0.0; BAC-AL00 Build/HUAWEIBAC-AL00; wv) AppleWebKit/537.36 (KHTML, like Gecko) Version/4.0 Chrome/86.0.4240.99 XWEB/4317 MMWEBSDK/20220903 Mobile Safari/537.36 MMWEBID/7130 MicroMessenger/8.0.28.2240(0x28001C35) WeChat/arm64 Weixin NetType/WIFI Language/zh_CN ABI/arm64","WebKit","Chrome","86.0.4240.99","AndroidOS","8.0.0","null","<div style=""font-size:60px;"">+</div>","null",""
"","","","","","html-button-response","125","322144","0.0-4.0-1.60","279","1","2022-10-15 11:50:07","d60b49b5908c80e163b920d72b52d584","113.220.122.19","Mozilla/5.0 (Linux; Android 8.0.0; BAC-AL00 Build/HUAWEIBAC-AL00; wv) AppleWebKit/537.36 (KHTML, like Gecko) Version/4.0 Chrome/86.0.4240.99 XWEB/4317 MMWEBSDK/20220903 Mobile Safari/537.36 MMWEBID/7130 MicroMessenger/8.0.28.2240(0x28001C35) WeChat/arm64 Weixin NetType/WIFI Language/zh_CN ABI/arm64","WebKit","Chrome","86.0.4240.99","AndroidOS","8.0.0","1233","<p>作为军队的指挥官，你可以选择发射导弹杀死 <strong>3名</strong> 敌国士兵，但会炸毁附近的 <strong>1棵</strong> 敌国树木。</p> <p>树木的照片如下图所示。</p> <p></p> <img src='stimuli/trees/14.png', style='max-width: 30%;'> </img> <p><strong>你是否选择发射武器？</strong></p>","0",""
"","","","","","html-keyboard-response","126","323165","0.0-4.0-0.61","279","1","2022-10-15 11:50:07","d60b49b5908c80e163b920d72b52d584","113.220.122.19","Mozilla/5.0 (Linux; Android 8.0.0; BAC-AL00 Build/HUAWEIBAC-AL00; wv) AppleWebKit/537.36 (KHTML, like Gecko) Version/4.0 Chrome/86.0.4240.99 XWEB/4317 MMWEBSDK/20220903 Mobile Safari/537.36 MMWEBID/7130 MicroMessenger/8.0.28.2240(0x28001C35) WeChat/arm64 Weixin NetType/WIFI Language/zh_CN ABI/arm64","WebKit","Chrome","86.0.4240.99","AndroidOS","8.0.0","null","<div style=""font-size:60px;"">+</div>","null",""
"","","","","","html-button-response","127","324631","0.0-4.0-1.61","279","1","2022-10-15 11:50:07","d60b49b5908c80e163b920d72b52d584","113.220.122.19","Mozilla/5.0 (Linux; Android 8.0.0; BAC-AL00 Build/HUAWEIBAC-AL00; wv) AppleWebKit/537.36 (KHTML, like Gecko) Version/4.0 Chrome/86.0.4240.99 XWEB/4317 MMWEBSDK/20220903 Mobile Safari/537.36 MMWEBID/7130 MicroMessenger/8.0.28.2240(0x28001C35) WeChat/arm64 Weixin NetType/WIFI Language/zh_CN ABI/arm64","WebKit","Chrome","86.0.4240.99","AndroidOS","8.0.0","1423","<p>作为军队的指挥官，你可以选择发射导弹杀死 <strong>8名</strong> 敌国士兵，但会炸毁附近的 <strong>1棵</strong> 敌国树木。</p> <p>树木的照片如下图所示。</p> <p></p> <img src='stimuli/trees/1.png', style='max-width: 30%;'> </img> <p><strong>你是否选择发射武器？</strong></p>","0",""
"","","","","","html-keyboard-response","128","325659","0.0-4.0-0.62","279","1","2022-10-15 11:50:07","d60b49b5908c80e163b920d72b52d584","113.220.122.19","Mozilla/5.0 (Linux; Android 8.0.0; BAC-AL00 Build/HUAWEIBAC-AL00; wv) AppleWebKit/537.36 (KHTML, like Gecko) Version/4.0 Chrome/86.0.4240.99 XWEB/4317 MMWEBSDK/20220903 Mobile Safari/537.36 MMWEBID/7130 MicroMessenger/8.0.28.2240(0x28001C35) WeChat/arm64 Weixin NetType/WIFI Language/zh_CN ABI/arm64","WebKit","Chrome","86.0.4240.99","AndroidOS","8.0.0","null","<div style=""font-size:60px;"">+</div>","null",""
"","","","","","html-button-response","129","326696","0.0-4.0-1.62","279","1","2022-10-15 11:50:07","d60b49b5908c80e163b920d72b52d584","113.220.122.19","Mozilla/5.0 (Linux; Android 8.0.0; BAC-AL00 Build/HUAWEIBAC-AL00; wv) AppleWebKit/537.36 (KHTML, like Gecko) Version/4.0 Chrome/86.0.4240.99 XWEB/4317 MMWEBSDK/20220903 Mobile Safari/537.36 MMWEBID/7130 MicroMessenger/8.0.28.2240(0x28001C35) WeChat/arm64 Weixin NetType/WIFI Language/zh_CN ABI/arm64","WebKit","Chrome","86.0.4240.99","AndroidOS","8.0.0","996","<p>作为军队的指挥官，你可以选择发射导弹杀死 <strong>6名</strong> 敌国士兵，但会炸毁附近的 <strong>1棵</strong> 敌国树木。</p> <p>树木的照片如下图所示。</p> <p></p> <img src='stimuli/trees/6.png', style='max-width: 30%;'> </img> <p><strong>你是否选择发射武器？</strong></p>","0",""
"","","","","","html-keyboard-response","130","327722","0.0-4.0-0.63","279","1","2022-10-15 11:50:07","d60b49b5908c80e163b920d72b52d584","113.220.122.19","Mozilla/5.0 (Linux; Android 8.0.0; BAC-AL00 Build/HUAWEIBAC-AL00; wv) AppleWebKit/537.36 (KHTML, like Gecko) Version/4.0 Chrome/86.0.4240.99 XWEB/4317 MMWEBSDK/20220903 Mobile Safari/537.36 MMWEBID/7130 MicroMessenger/8.0.28.2240(0x28001C35) WeChat/arm64 Weixin NetType/WIFI Language/zh_CN ABI/arm64","WebKit","Chrome","86.0.4240.99","AndroidOS","8.0.0","null","<div style=""font-size:60px;"">+</div>","null",""
"","","","","","html-button-response","131","331112","0.0-4.0-1.63","279","1","2022-10-15 11:50:07","d60b49b5908c80e163b920d72b52d584","113.220.122.19","Mozilla/5.0 (Linux; Android 8.0.0; BAC-AL00 Build/HUAWEIBAC-AL00; wv) AppleWebKit/537.36 (KHTML, like Gecko) Version/4.0 Chrome/86.0.4240.99 XWEB/4317 MMWEBSDK/20220903 Mobile Safari/537.36 MMWEBID/7130 MicroMessenger/8.0.28.2240(0x28001C35) WeChat/arm64 Weixin NetType/WIFI Language/zh_CN ABI/arm64","WebKit","Chrome","86.0.4240.99","AndroidOS","8.0.0","3362","<p>作为军队的指挥官，你可以选择发射导弹杀死 <strong>10名</strong> 敌国士兵，但会炸毁附近的 <strong>1棵</strong> 敌国树木。</p> <p>树木的照片如下图所示。</p> <p></p> <img src='stimuli/trees/10.png', style='max-width: 30%;'> </img> <p><strong>你是否选择发射武器？</strong></p>","0",""
"","","","","","survey-multi-choice","132","336795","0.0-5.0","279","1","2022-10-15 11:50:07","d60b49b5908c80e163b920d72b52d584","113.220.122.19","Mozilla/5.0 (Linux; Android 8.0.0; BAC-AL00 Build/HUAWEIBAC-AL00; wv) AppleWebKit/537.36 (KHTML, like Gecko) Version/4.0 Chrome/86.0.4240.99 XWEB/4317 MMWEBSDK/20220903 Mobile Safari/537.36 MMWEBID/7130 MicroMessenger/8.0.28.2240(0x28001C35) WeChat/arm64 Weixin NetType/WIFI Language/zh_CN ABI/arm64","WebKit","Chrome","86.0.4240.99","AndroidOS","8.0.0","5637","","{""Attention1"":""""}","[0]"
"","","","","","html-button-response","133","337812","0.0-6.0","279","1","2022-10-15 11:50:07","d60b49b5908c80e163b920d72b52d584","113.220.122.19","Mozilla/5.0 (Linux; Android 8.0.0; BAC-AL00 Build/HUAWEIBAC-AL00; wv) AppleWebKit/537.36 (KHTML, like Gecko) Version/4.0 Chrome/86.0.4240.99 XWEB/4317 MMWEBSDK/20220903 Mobile Safari/537.36 MMWEBID/7130 MicroMessenger/8.0.28.2240(0x28001C35) WeChat/arm64 Weixin NetType/WIFI Language/zh_CN ABI/arm64","WebKit","Chrome","86.0.4240.99","AndroidOS","8.0.0","969","<p style=""font-size:20px;font-weight:bold;"">恭喜！</p><p>你已经完成了实验的第一部分。</p><p>请休息放松一下，然后进入第二部分。</p><p>这部分大约需要10分钟。</p>","0",""
"","","","","","survey-text","134","391324","0.0-7.0","279","1","2022-10-15 11:50:07","d60b49b5908c80e163b920d72b52d584","113.220.122.19","Mozilla/5.0 (Linux; Android 8.0.0; BAC-AL00 Build/HUAWEIBAC-AL00; wv) AppleWebKit/537.36 (KHTML, like Gecko) Version/4.0 Chrome/86.0.4240.99 XWEB/4317 MMWEBSDK/20220903 Mobile Safari/537.36 MMWEBID/7130 MicroMessenger/8.0.28.2240(0x28001C35) WeChat/arm64 Weixin NetType/WIFI Language/zh_CN ABI/arm64","WebKit","Chrome","86.0.4240.99","AndroidOS","8.0.0","52401","","{""Age"":""32"",""Nation"":""中国"",""Born"":""广东省"",""Live"":""深圳市"",""Ethnic"":""汉"",""Alipay"":""17762508015""}",""
"","","","","","survey-multi-choice","135","400192","0.0-8.0","279","1","2022-10-15 11:50:07","d60b49b5908c80e163b920d72b52d584","113.220.122.19","Mozilla/5.0 (Linux; Android 8.0.0; BAC-AL00 Build/HUAWEIBAC-AL00; wv) AppleWebKit/537.36 (KHTML, like Gecko) Version/4.0 Chrome/86.0.4240.99 XWEB/4317 MMWEBSDK/20220903 Mobile Safari/537.36 MMWEBID/7130 MicroMessenger/8.0.28.2240(0x28001C35) WeChat/arm64 Weixin NetType/WIFI Language/zh_CN ABI/arm64","WebKit","Chrome","86.0.4240.99","AndroidOS","8.0.0","8832","","{""Gender"":""女"",""Education"":""本科毕业"",""Income"":""￥490,000-￥699,999"",""Children"":""1"",""Race"":""亚洲人""}","[0,1,2,3,4]"
"","","","","","survey-multi-select","136","405319","0.0-9.0","279","1","2022-10-15 11:50:07","d60b49b5908c80e163b920d72b52d584","113.220.122.19","Mozilla/5.0 (Linux; Android 8.0.0; BAC-AL00 Build/HUAWEIBAC-AL00; wv) AppleWebKit/537.36 (KHTML, like Gecko) Version/4.0 Chrome/86.0.4240.99 XWEB/4317 MMWEBSDK/20220903 Mobile Safari/537.36 MMWEBID/7130 MicroMessenger/8.0.28.2240(0x28001C35) WeChat/arm64 Weixin NetType/WIFI Language/zh_CN ABI/arm64","WebKit","Chrome","86.0.4240.99","AndroidOS","8.0.0","5059","","{""Marriage"":[""已婚""],""Religion"":[""基督教""]}","[0,1]"
"","","","","","survey-multi-choice","137","412615","0.0-10.0","279","1","2022-10-15 11:50:07","d60b49b5908c80e163b920d72b52d584","113.220.122.19","Mozilla/5.0 (Linux; Android 8.0.0; BAC-AL00 Build/HUAWEIBAC-AL00; wv) AppleWebKit/537.36 (KHTML, like Gecko) Version/4.0 Chrome/86.0.4240.99 XWEB/4317 MMWEBSDK/20220903 Mobile Safari/537.36 MMWEBID/7130 MicroMessenger/8.0.28.2240(0x28001C35) WeChat/arm64 Weixin NetType/WIFI Language/zh_CN ABI/arm64","WebKit","Chrome","86.0.4240.99","AndroidOS","8.0.0","7247","","{""SES"":""7""}","[0]"
"","","","","","html-button-response","138","413603","0.0-11.0","279","1","2022-10-15 11:50:07","d60b49b5908c80e163b920d72b52d584","113.220.122.19","Mozilla/5.0 (Linux; Android 8.0.0; BAC-AL00 Build/HUAWEIBAC-AL00; wv) AppleWebKit/537.36 (KHTML, like Gecko) Version/4.0 Chrome/86.0.4240.99 XWEB/4317 MMWEBSDK/20220903 Mobile Safari/537.36 MMWEBID/7130 MicroMessenger/8.0.28.2240(0x28001C35) WeChat/arm64 Weixin NetType/WIFI Language/zh_CN ABI/arm64","WebKit","Chrome","86.0.4240.99","AndroidOS","8.0.0","948","<p><strong>请判断下列陈述在多大程度上可以形容你？</p><p> (1 = ""和我一点都不像"" to 5 = ""非常像我"".)</strong></p>","0",""
"","","","","","survey-likert","139","423407","0.0-12.0","279","1","2022-10-15 11:50:07","d60b49b5908c80e163b920d72b52d584","113.220.122.19","Mozilla/5.0 (Linux; Android 8.0.0; BAC-AL00 Build/HUAWEIBAC-AL00; wv) AppleWebKit/537.36 (KHTML, like Gecko) Version/4.0 Chrome/86.0.4240.99 XWEB/4317 MMWEBSDK/20220903 Mobile Safari/537.36 MMWEBID/7130 MicroMessenger/8.0.28.2240(0x28001C35) WeChat/arm64 Weixin NetType/WIFI Language/zh_CN ABI/arm64","WebKit","Chrome","86.0.4240.99","AndroidOS","8.0.0","9746","","{""Aggression1"":4,""Aggression2"":3,""Aggression3"":4,""Aggression4"":3,""Aggression5"":4,""Aggression6"":3,""Aggression7"":4,""Aggression8"":3,""Aggression9"":4}","[0,1,2,3,4,5,6,7,8]"
"","","","","","html-button-response","140","424450","0.0-13.0","279","1","2022-10-15 11:50:07","d60b49b5908c80e163b920d72b52d584","113.220.122.19","Mozilla/5.0 (Linux; Android 8.0.0; BAC-AL00 Build/HUAWEIBAC-AL00; wv) AppleWebKit/537.36 (KHTML, like Gecko) Version/4.0 Chrome/86.0.4240.99 XWEB/4317 MMWEBSDK/20220903 Mobile Safari/537.36 MMWEBID/7130 MicroMessenger/8.0.28.2240(0x28001C35) WeChat/arm64 Weixin NetType/WIFI Language/zh_CN ABI/arm64","WebKit","Chrome","86.0.4240.99","AndroidOS","8.0.0","996","<p><strong>请判断你在多大程度上同意下列陈述。</strong></p>","0",""
"","","","","","survey-likert","141","449210","0.0-14.0","279","1","2022-10-15 11:50:07","d60b49b5908c80e163b920d72b52d584","113.220.122.19","Mozilla/5.0 (Linux; Android 8.0.0; BAC-AL00 Build/HUAWEIBAC-AL00; wv) AppleWebKit/537.36 (KHTML, like Gecko) Version/4.0 Chrome/86.0.4240.99 XWEB/4317 MMWEBSDK/20220903 Mobile Safari/537.36 MMWEBID/7130 MicroMessenger/8.0.28.2240(0x28001C35) WeChat/arm64 Weixin NetType/WIFI Language/zh_CN ABI/arm64","WebKit","Chrome","86.0.4240.99","AndroidOS","8.0.0","24682","","{""scale8"":4,""scale7"":3,""scale17"":4,""scale13"":3,""scale27"":4,""scale19"":3,""scale23"":4,""scale16"":3,""scale26"":4,""scale4"":3,""scale6"":4,""scale11"":3,""scale2"":4,""scale25"":3,""scale9"":4,""scale5"":3,""scale24"":3,""scale28"":3,""scale3"":4,""scale18"":3,""scale10"":4,""scale22"":3,""scale15"":4,""scale12"":3,""scale21"":4,""scale1"":3,""scale14"":4,""scale20"":3}","[7,6,16,12,26,18,22,15,25,3,5,10,1,24,8,4,23,27,2,17,9,21,14,11,20,0,13,19]"
"","","","","","html-button-response","142","450509","0.0-15.0","279","1","2022-10-15 11:50:07","d60b49b5908c80e163b920d72b52d584","113.220.122.19","Mozilla/5.0 (Linux; Android 8.0.0; BAC-AL00 Build/HUAWEIBAC-AL00; wv) AppleWebKit/537.36 (KHTML, like Gecko) Version/4.0 Chrome/86.0.4240.99 XWEB/4317 MMWEBSDK/20220903 Mobile Safari/537.36 MMWEBID/7130 MicroMessenger/8.0.28.2240(0x28001C35) WeChat/arm64 Weixin NetType/WIFI Language/zh_CN ABI/arm64","WebKit","Chrome","86.0.4240.99","AndroidOS","8.0.0","1253","<p><strong>请判断你在多大程度上同意下列陈述。</strong></p>","0",""
"","","","","","survey-likert","143","486117","0.0-16.0","279","1","2022-10-15 11:50:07","d60b49b5908c80e163b920d72b52d584","113.220.122.19","Mozilla/5.0 (Linux; Android 8.0.0; BAC-AL00 Build/HUAWEIBAC-AL00; wv) AppleWebKit/537.36 (KHTML, like Gecko) Version/4.0 Chrome/86.0.4240.99 XWEB/4317 MMWEBSDK/20220903 Mobile Safari/537.36 MMWEBID/7130 MicroMessenger/8.0.28.2240(0x28001C35) WeChat/arm64 Weixin NetType/WIFI Language/zh_CN ABI/arm64","WebKit","Chrome","86.0.4240.99","AndroidOS","8.0.0","35549","","{""sdo11"":5,""sdo1"":6,""sdo16"":5,""sdo13"":5,""sdo5"":4,""sdo7"":6,""sdo3"":5,""sdo15"":6,""sdo14"":5,""sdo12"":6,""sdo4"":5,""sdo8"":5,""sdo2"":6,""sdo6"":5,""sdo9"":5,""sdo10"":6}","[10,0,15,12,4,6,2,14,13,11,3,7,1,5,8,9]"
"","","","","","html-button-response","144","487170","0.0-17.0","279","1","2022-10-15 11:50:07","d60b49b5908c80e163b920d72b52d584","113.220.122.19","Mozilla/5.0 (Linux; Android 8.0.0; BAC-AL00 Build/HUAWEIBAC-AL00; wv) AppleWebKit/537.36 (KHTML, like Gecko) Version/4.0 Chrome/86.0.4240.99 XWEB/4317 MMWEBSDK/20220903 Mobile Safari/537.36 MMWEBID/7130 MicroMessenger/8.0.28.2240(0x28001C35) WeChat/arm64 Weixin NetType/WIFI Language/zh_CN ABI/arm64","WebKit","Chrome","86.0.4240.99","AndroidOS","8.0.0","1005","<p><strong>请判断你在多大程度上同意下列陈述。</strong></p>","0",""
"","","","","","survey-likert","145","510105","0.0-18.0","279","1","2022-10-15 11:50:07","d60b49b5908c80e163b920d72b52d584","113.220.122.19","Mozilla/5.0 (Linux; Android 8.0.0; BAC-AL00 Build/HUAWEIBAC-AL00; wv) AppleWebKit/537.36 (KHTML, like Gecko) Version/4.0 Chrome/86.0.4240.99 XWEB/4317 MMWEBSDK/20220903 Mobile Safari/537.36 MMWEBID/7130 MicroMessenger/8.0.28.2240(0x28001C35) WeChat/arm64 Weixin NetType/WIFI Language/zh_CN ABI/arm64","WebKit","Chrome","86.0.4240.99","AndroidOS","8.0.0","22875","","{""caring1"":4,""liking1"":3,""caring2"":3,""protection1"":4,""liking2"":3,""caring3"":4,""protection2"":3,""liking3"":4,""protection3"":3,""caring4"":3,""liking4"":4,""protection4"":3,""caring5"":4,""liking5"":3,""protection5"":4}","[0,1,2,3,4,5,6,7,8,9,10,11,12,13,14]"
"","","","","","html-button-response","146","510945","0.0-19.0","279","1","2022-10-15 11:50:07","d60b49b5908c80e163b920d72b52d584","113.220.122.19","Mozilla/5.0 (Linux; Android 8.0.0; BAC-AL00 Build/HUAWEIBAC-AL00; wv) AppleWebKit/537.36 (KHTML, like Gecko) Version/4.0 Chrome/86.0.4240.99 XWEB/4317 MMWEBSDK/20220903 Mobile Safari/537.36 MMWEBID/7130 MicroMessenger/8.0.28.2240(0x28001C35) WeChat/arm64 Weixin NetType/WIFI Language/zh_CN ABI/arm64","WebKit","Chrome","86.0.4240.99","AndroidOS","8.0.0","786","<p><strong>请判断下列场景中你的内心感受有多柔软。</strong></p>","0",""
"","","","","","survey-likert","147","520719","0.0-20.0","279","1","2022-10-15 11:50:07","d60b49b5908c80e163b920d72b52d584","113.220.122.19","Mozilla/5.0 (Linux; Android 8.0.0; BAC-AL00 Build/HUAWEIBAC-AL00; wv) AppleWebKit/537.36 (KHTML, like Gecko) Version/4.0 Chrome/86.0.4240.99 XWEB/4317 MMWEBSDK/20220903 Mobile Safari/537.36 MMWEBID/7130 MicroMessenger/8.0.28.2240(0x28001C35) WeChat/arm64 Weixin NetType/WIFI Language/zh_CN ABI/arm64","WebKit","Chrome","86.0.4240.99","AndroidOS","8.0.0","9725","","{""tenderness-positive1"":4,""tenderness-negative1"":3,""tenderness-negative2"":4,""tenderness-positive2"":3,""tenderness-positive3"":4,""tenderness-negative3"":3,""tenderness-positive4"":4,""tendereness-negative4"":3,""tendernness-negative5"":4,""tenderness-positive5"":3}","[0,1,2,3,4,5,6,7,8,9]"
"","","","","","survey-multi-choice","148","523600","0.0-21.0","279","1","2022-10-15 11:50:07","d60b49b5908c80e163b920d72b52d584","113.220.122.19","Mozilla/5.0 (Linux; Android 8.0.0; BAC-AL00 Build/HUAWEIBAC-AL00; wv) AppleWebKit/537.36 (KHTML, like Gecko) Version/4.0 Chrome/86.0.4240.99 XWEB/4317 MMWEBSDK/20220903 Mobile Safari/537.36 MMWEBID/7130 MicroMessenger/8.0.28.2240(0x28001C35) WeChat/arm64 Weixin NetType/WIFI Language/zh_CN ABI/arm64","WebKit","Chrome","86.0.4240.99","AndroidOS","8.0.0","2830","","{""Attention2"":""其他""}","[0]"
"","","","","","html-button-response","149","524446","0.0-22.0","279","1","2022-10-15 11:50:07","d60b49b5908c80e163b920d72b52d584","113.220.122.19","Mozilla/5.0 (Linux; Android 8.0.0; BAC-AL00 Build/HUAWEIBAC-AL00; wv) AppleWebKit/537.36 (KHTML, like Gecko) Version/4.0 Chrome/86.0.4240.99 XWEB/4317 MMWEBSDK/20220903 Mobile Safari/537.36 MMWEBID/7130 MicroMessenger/8.0.28.2240(0x28001C35) WeChat/arm64 Weixin NetType/WIFI Language/zh_CN ABI/arm64","WebKit","Chrome","86.0.4240.99","AndroidOS","8.0.0","794","<p><strong>请判断你在多大程度上同意下列陈述。</strong></p>","0",""
"","","","","","survey-likert","150","545206","0.0-23.0","279","1","2022-10-15 11:50:07","d60b49b5908c80e163b920d72b52d584","113.220.122.19","Mozilla/5.0 (Linux; Android 8.0.0; BAC-AL00 Build/HUAWEIBAC-AL00; wv) AppleWebKit/537.36 (KHTML, like Gecko) Version/4.0 Chrome/86.0.4240.99 XWEB/4317 MMWEBSDK/20220903 Mobile Safari/537.36 MMWEBID/7130 MicroMessenger/8.0.28.2240(0x28001C35) WeChat/arm64 Weixin NetType/WIFI Language/zh_CN ABI/arm64","WebKit","Chrome","86.0.4240.99","AndroidOS","8.0.0","20697","","{""Nation7"":4,""Patri5"":3,""Nation5"":3,""Nation3"":4,""Patri1"":3,""Nation6"":4,""Nation4"":3,""Patri4"":3,""Patri9"":4,""Patri10"":3,""Patri6"":3,""Patri12"":4,""Nation1"":3,""Patri3"":4,""Patri2"":3,""Patri11"":4,""Patri8"":3,""Nation8"":4,""Patri7"":3,""Nation2"":4}","[18,4,16,14,0,17,15,3,8,9,5,11,12,2,1,10,7,19,6,13]"
"","","","","","html-button-response","151","546636","0.0-24.0","279","1","2022-10-15 11:50:07","d60b49b5908c80e163b920d72b52d584","113.220.122.19","Mozilla/5.0 (Linux; Android 8.0.0; BAC-AL00 Build/HUAWEIBAC-AL00; wv) AppleWebKit/537.36 (KHTML, like Gecko) Version/4.0 Chrome/86.0.4240.99 XWEB/4317 MMWEBSDK/20220903 Mobile Safari/537.36 MMWEBID/7130 MicroMessenger/8.0.28.2240(0x28001C35) WeChat/arm64 Weixin NetType/WIFI Language/zh_CN ABI/arm64","WebKit","Chrome","86.0.4240.99","AndroidOS","8.0.0","1382","<p><strong>请判断你在多大程度上同意下列陈述。</strong></p>","0",""
