"success","timeout","failed_images","failed_audio","failed_video","trial_type","trial_index","time_elapsed","internal_node_id","run_id","condition","recorded_at","source_code_version","ip","user_agent","device","browser","browser_version","platform","platform_version","rt","stimulus","response","question_order"
"true","false","[]","[]","[]","preload","0","2731","0.0-0.0","282","1","2022-10-18 02:51:25","d60b49b5908c80e163b920d72b52d584","111.205.219.160","Mozilla/5.0 (Macintosh; Intel Mac OS X 10_15_6) AppleWebKit/605.1.15 (KHTML, like Gecko) Version/15.6.1 Safari/605.1.15","Macintosh","Safari","15.6.1","OS X","10_15_6","","","",""
"true","","","","","fullscreen","1","8665","0.0-1.0","282","1","2022-10-18 02:51:25","d60b49b5908c80e163b920d72b52d584","111.205.219.160","Mozilla/5.0 (Macintosh; Intel Mac OS X 10_15_6) AppleWebKit/605.1.15 (KHTML, like Gecko) Version/15.6.1 Safari/605.1.15","Macintosh","Safari","15.6.1","OS X","10_15_6","","","",""
"","","","","","html-button-response","2","27409","0.0-2.0","282","1","2022-10-18 02:51:25","d60b49b5908c80e163b920d72b52d584","111.205.219.160","Mozilla/5.0 (Macintosh; Intel Mac OS X 10_15_6) AppleWebKit/605.1.15 (KHTML, like Gecko) Version/15.6.1 Safari/605.1.15","Macintosh","Safari","15.6.1","OS X","10_15_6","18739","<p style=""font-size:20px;font-weight:bold;"">实验知情同意书</p><p style=""text-align:left;""><strong>实验名称：</strong>社会冲突研究</p><p style=""text-align:left;""><strong>主要研究者：</strong>韩晓春副教授（北京师范大学心理学部）</p><p style=""text-align:left;""><strong>联系方式：</strong>发送邮件至xiaochun.han@bnu.edu.cn</p><p style=""text-align:left;""><strong>研究目的：</strong>研究旨在了解人类面对群体冲突时的决策方式，以及相关的心理学特质。实验调查大约需要20分钟。</p><p style=""text-align:left;""><strong>实验流程：</strong>实验包含两部分。第一部分呈现一系列群体冲突场景，请你决定如何对这些冲突进行反应，大约需要10分钟完成。第二部分包含一系列人口统计学信息收集和心理学问卷，大约需要10分钟完成。</p><p style=""text-align:left;""><strong>参加及退出规则：</strong>参加本实验完全取决于您的个人意愿。在参与过程中，您可以随时退出，并且不用承担任何后果。</p><p style=""text-align:left;""><strong>隐私：</strong>本实验完全匿名进行，不会收集您的姓名或其他能够识别您身份的信息。实验中收集的作答仅用作科学研究使用，可能会在学术期刊/书籍上发表，或者用于教学，您的数据未来可能会和其他研究者或实验室分享，但您的个人身份不会被识别。</p><p style=""text-align:left;""><strong>实验报酬：</strong>实验完成后，您将获得15元人民币报酬，以感谢您的时间和努力。调查问卷中包含几道题目用以测验您作答时的认真度。只有完成全部实验，并且正确回答认真度测验的被试才能获得实验报酬。实验报酬将通过支付宝转账发放。</p><p style=""text-align:left;font-size:20px;""><strong>如果您同意以上实验知情同意书的内容，请点击'同意并且开始实验'按钮；否则请关闭浏览器界面，退出实验。</strong></p>","0",""
"","","","","","html-button-response","3","44922","0.0-3.0","282","1","2022-10-18 02:51:25","d60b49b5908c80e163b920d72b52d584","111.205.219.160","Mozilla/5.0 (Macintosh; Intel Mac OS X 10_15_6) AppleWebKit/605.1.15 (KHTML, like Gecko) Version/15.6.1 Safari/605.1.15","Macintosh","Safari","15.6.1","OS X","10_15_6","17510","<p ><strong>实验任务一：</strong></p><p>请想象你的国家与另一个国家发生了军事冲突。</p><p>你是国家军队的指挥官，你将如何在冲突中进行决策。</p><p>具体来说，作为军队指挥官，请你决定是否发射导弹进行打击。</p><p>接下来，你会面对一系列场景，请仔细阅读每个场景，然后进行决策。</p><p>这部分实验任务大约需要10分钟。</p><p><strong>实验过程中，请集中注意力。</strong></p>","0",""
"","","","","","html-keyboard-response","4","45928","0.0-4.0-0.0","282","1","2022-10-18 02:51:25","d60b49b5908c80e163b920d72b52d584","111.205.219.160","Mozilla/5.0 (Macintosh; Intel Mac OS X 10_15_6) AppleWebKit/605.1.15 (KHTML, like Gecko) Version/15.6.1 Safari/605.1.15","Macintosh","Safari","15.6.1","OS X","10_15_6","null","<div style=""font-size:60px;"">+</div>","null",""
"","","","","","html-button-response","5","51651","0.0-4.0-1.0","282","1","2022-10-18 02:51:25","d60b49b5908c80e163b920d72b52d584","111.205.219.160","Mozilla/5.0 (Macintosh; Intel Mac OS X 10_15_6) AppleWebKit/605.1.15 (KHTML, like Gecko) Version/15.6.1 Safari/605.1.15","Macintosh","Safari","15.6.1","OS X","10_15_6","5715","<p>作为军队的指挥官，你可以选择发射导弹杀死 <strong>6名</strong> 敌国士兵，但会炸毁附近的 <strong>1棵</strong> 敌国树木。</p> <p>树木的照片如下图所示。</p> <p></p> <img src='stimuli/trees/8.png', style='max-width: 30%;'> </img> <p><strong>你是否选择发射武器？</strong></p>","0",""
"","","","","","html-keyboard-response","6","52656","0.0-4.0-0.1","282","1","2022-10-18 02:51:25","d60b49b5908c80e163b920d72b52d584","111.205.219.160","Mozilla/5.0 (Macintosh; Intel Mac OS X 10_15_6) AppleWebKit/605.1.15 (KHTML, like Gecko) Version/15.6.1 Safari/605.1.15","Macintosh","Safari","15.6.1","OS X","10_15_6","null","<div style=""font-size:60px;"">+</div>","null",""
"","","","","","html-button-response","7","56267","0.0-4.0-1.1","282","1","2022-10-18 02:51:25","d60b49b5908c80e163b920d72b52d584","111.205.219.160","Mozilla/5.0 (Macintosh; Intel Mac OS X 10_15_6) AppleWebKit/605.1.15 (KHTML, like Gecko) Version/15.6.1 Safari/605.1.15","Macintosh","Safari","15.6.1","OS X","10_15_6","3605","<p>作为军队的指挥官，你可以选择发射导弹杀死 <strong>3名</strong> 敌国士兵，但会炸毁附近的 <strong>1棵</strong> 敌国树木。</p> <p>树木的照片如下图所示。</p> <p></p> <img src='stimuli/trees/16.png', style='max-width: 30%;'> </img> <p><strong>你是否选择发射武器？</strong></p>","0",""
"","","","","","html-keyboard-response","8","57272","0.0-4.0-0.2","282","1","2022-10-18 02:51:25","d60b49b5908c80e163b920d72b52d584","111.205.219.160","Mozilla/5.0 (Macintosh; Intel Mac OS X 10_15_6) AppleWebKit/605.1.15 (KHTML, like Gecko) Version/15.6.1 Safari/605.1.15","Macintosh","Safari","15.6.1","OS X","10_15_6","null","<div style=""font-size:60px;"">+</div>","null",""
"","","","","","html-button-response","9","62397","0.0-4.0-1.2","282","1","2022-10-18 02:51:25","d60b49b5908c80e163b920d72b52d584","111.205.219.160","Mozilla/5.0 (Macintosh; Intel Mac OS X 10_15_6) AppleWebKit/605.1.15 (KHTML, like Gecko) Version/15.6.1 Safari/605.1.15","Macintosh","Safari","15.6.1","OS X","10_15_6","5119","<p>作为军队的指挥官，你可以选择发射导弹杀死 <strong>4名</strong> 敌国士兵，但会误杀附近的 <strong>1名</strong> 敌国平民。</p> <p>平民照片如下图所示。</p> <p></p> <img src='stimuli/faces/NCM1.jpg', style='max-width: 30%;'> </img> <p><strong>你是否选择发射武器？</strong></p>","1",""
"","","","","","html-keyboard-response","10","63401","0.0-4.0-0.3","282","1","2022-10-18 02:51:25","d60b49b5908c80e163b920d72b52d584","111.205.219.160","Mozilla/5.0 (Macintosh; Intel Mac OS X 10_15_6) AppleWebKit/605.1.15 (KHTML, like Gecko) Version/15.6.1 Safari/605.1.15","Macintosh","Safari","15.6.1","OS X","10_15_6","null","<div style=""font-size:60px;"">+</div>","null",""
"","","","","","html-button-response","11","67570","0.0-4.0-1.3","282","1","2022-10-18 02:51:25","d60b49b5908c80e163b920d72b52d584","111.205.219.160","Mozilla/5.0 (Macintosh; Intel Mac OS X 10_15_6) AppleWebKit/605.1.15 (KHTML, like Gecko) Version/15.6.1 Safari/605.1.15","Macintosh","Safari","15.6.1","OS X","10_15_6","4162","<p>作为军队的指挥官，你可以选择发射导弹杀死 <strong>1名</strong> 敌国士兵，但会炸毁附近的 <strong>1棵</strong> 敌国树木。</p> <p>树木的照片如下图所示。</p> <p></p> <img src='stimuli/trees/14.png', style='max-width: 30%;'> </img> <p><strong>你是否选择发射武器？</strong></p>","0",""
"","","","","","html-keyboard-response","12","68574","0.0-4.0-0.4","282","1","2022-10-18 02:51:25","d60b49b5908c80e163b920d72b52d584","111.205.219.160","Mozilla/5.0 (Macintosh; Intel Mac OS X 10_15_6) AppleWebKit/605.1.15 (KHTML, like Gecko) Version/15.6.1 Safari/605.1.15","Macintosh","Safari","15.6.1","OS X","10_15_6","null","<div style=""font-size:60px;"">+</div>","null",""
"","","","","","html-button-response","13","78972","0.0-4.0-1.4","282","1","2022-10-18 02:51:25","d60b49b5908c80e163b920d72b52d584","111.205.219.160","Mozilla/5.0 (Macintosh; Intel Mac OS X 10_15_6) AppleWebKit/605.1.15 (KHTML, like Gecko) Version/15.6.1 Safari/605.1.15","Macintosh","Safari","15.6.1","OS X","10_15_6","10390","<p>作为军队的指挥官，你可以选择发射导弹杀死 <strong>7名</strong> 敌国士兵，但会误杀附近的 <strong>1名</strong> 敌国平民。</p> <p>平民照片如下图所示。</p> <p></p> <img src='stimuli/faces/NCF6.jpg', style='max-width: 30%;'> </img> <p><strong>你是否选择发射武器？</strong></p>","1",""
"","","","","","html-keyboard-response","14","79976","0.0-4.0-0.5","282","1","2022-10-18 02:51:25","d60b49b5908c80e163b920d72b52d584","111.205.219.160","Mozilla/5.0 (Macintosh; Intel Mac OS X 10_15_6) AppleWebKit/605.1.15 (KHTML, like Gecko) Version/15.6.1 Safari/605.1.15","Macintosh","Safari","15.6.1","OS X","10_15_6","null","<div style=""font-size:60px;"">+</div>","null",""
"","","","","","html-button-response","15","82165","0.0-4.0-1.5","282","1","2022-10-18 02:51:25","d60b49b5908c80e163b920d72b52d584","111.205.219.160","Mozilla/5.0 (Macintosh; Intel Mac OS X 10_15_6) AppleWebKit/605.1.15 (KHTML, like Gecko) Version/15.6.1 Safari/605.1.15","Macintosh","Safari","15.6.1","OS X","10_15_6","2180","<p>作为军队的指挥官，你可以选择发射导弹杀死 <strong>10名</strong> 敌国士兵，但会炸毁附近的 <strong>1棵</strong> 敌国树木。</p> <p>树木的照片如下图所示。</p> <p></p> <img src='stimuli/trees/16.png', style='max-width: 30%;'> </img> <p><strong>你是否选择发射武器？</strong></p>","0",""
"","","","","","html-keyboard-response","16","83169","0.0-4.0-0.6","282","1","2022-10-18 02:51:25","d60b49b5908c80e163b920d72b52d584","111.205.219.160","Mozilla/5.0 (Macintosh; Intel Mac OS X 10_15_6) AppleWebKit/605.1.15 (KHTML, like Gecko) Version/15.6.1 Safari/605.1.15","Macintosh","Safari","15.6.1","OS X","10_15_6","null","<div style=""font-size:60px;"">+</div>","null",""
"","","","","","html-button-response","17","85025","0.0-4.0-1.6","282","1","2022-10-18 02:51:25","d60b49b5908c80e163b920d72b52d584","111.205.219.160","Mozilla/5.0 (Macintosh; Intel Mac OS X 10_15_6) AppleWebKit/605.1.15 (KHTML, like Gecko) Version/15.6.1 Safari/605.1.15","Macintosh","Safari","15.6.1","OS X","10_15_6","1848","<p>作为军队的指挥官，你可以选择发射导弹杀死 <strong>9名</strong> 敌国士兵，但会炸毁附近的 <strong>1棵</strong> 敌国树木。</p> <p>树木的照片如下图所示。</p> <p></p> <img src='stimuli/trees/2.png', style='max-width: 30%;'> </img> <p><strong>你是否选择发射武器？</strong></p>","0",""
"","","","","","html-keyboard-response","18","86030","0.0-4.0-0.7","282","1","2022-10-18 02:51:25","d60b49b5908c80e163b920d72b52d584","111.205.219.160","Mozilla/5.0 (Macintosh; Intel Mac OS X 10_15_6) AppleWebKit/605.1.15 (KHTML, like Gecko) Version/15.6.1 Safari/605.1.15","Macintosh","Safari","15.6.1","OS X","10_15_6","null","<div style=""font-size:60px;"">+</div>","null",""
"","","","","","html-button-response","19","94905","0.0-4.0-1.7","282","1","2022-10-18 02:51:25","d60b49b5908c80e163b920d72b52d584","111.205.219.160","Mozilla/5.0 (Macintosh; Intel Mac OS X 10_15_6) AppleWebKit/605.1.15 (KHTML, like Gecko) Version/15.6.1 Safari/605.1.15","Macintosh","Safari","15.6.1","OS X","10_15_6","8867","<p>作为军队的指挥官，你可以选择发射导弹杀死 <strong>2名</strong> 敌国士兵，但会炸毁附近的 <strong>1棵</strong> 敌国树木。</p> <p>树木的照片如下图所示。</p> <p></p> <img src='stimuli/trees/3.png', style='max-width: 30%;'> </img> <p><strong>你是否选择发射武器？</strong></p>","1",""
"","","","","","html-keyboard-response","20","95909","0.0-4.0-0.8","282","1","2022-10-18 02:51:25","d60b49b5908c80e163b920d72b52d584","111.205.219.160","Mozilla/5.0 (Macintosh; Intel Mac OS X 10_15_6) AppleWebKit/605.1.15 (KHTML, like Gecko) Version/15.6.1 Safari/605.1.15","Macintosh","Safari","15.6.1","OS X","10_15_6","null","<div style=""font-size:60px;"">+</div>","null",""
"","","","","","html-button-response","21","98455","0.0-4.0-1.8","282","1","2022-10-18 02:51:25","d60b49b5908c80e163b920d72b52d584","111.205.219.160","Mozilla/5.0 (Macintosh; Intel Mac OS X 10_15_6) AppleWebKit/605.1.15 (KHTML, like Gecko) Version/15.6.1 Safari/605.1.15","Macintosh","Safari","15.6.1","OS X","10_15_6","2536","<p>作为军队的指挥官，你可以选择发射导弹杀死 <strong>5名</strong> 敌国士兵，但会炸毁附近的 <strong>1棵</strong> 敌国树木。</p> <p>树木的照片如下图所示。</p> <p></p> <img src='stimuli/trees/13.png', style='max-width: 30%;'> </img> <p><strong>你是否选择发射武器？</strong></p>","0",""
"","","","","","html-keyboard-response","22","99461","0.0-4.0-0.9","282","1","2022-10-18 02:51:25","d60b49b5908c80e163b920d72b52d584","111.205.219.160","Mozilla/5.0 (Macintosh; Intel Mac OS X 10_15_6) AppleWebKit/605.1.15 (KHTML, like Gecko) Version/15.6.1 Safari/605.1.15","Macintosh","Safari","15.6.1","OS X","10_15_6","null","<div style=""font-size:60px;"">+</div>","null",""
"","","","","","html-button-response","23","102452","0.0-4.0-1.9","282","1","2022-10-18 02:51:25","d60b49b5908c80e163b920d72b52d584","111.205.219.160","Mozilla/5.0 (Macintosh; Intel Mac OS X 10_15_6) AppleWebKit/605.1.15 (KHTML, like Gecko) Version/15.6.1 Safari/605.1.15","Macintosh","Safari","15.6.1","OS X","10_15_6","2982","<p>作为军队的指挥官，你可以选择发射导弹杀死 <strong>7名</strong> 敌国士兵，但会误杀附近的 <strong>1名</strong> 敌国平民。</p> <p>平民照片如下图所示。</p> <p></p> <img src='stimuli/faces/NCM2.jpg', style='max-width: 30%;'> </img> <p><strong>你是否选择发射武器？</strong></p>","1",""
"","","","","","html-keyboard-response","24","103457","0.0-4.0-0.10","282","1","2022-10-18 02:51:25","d60b49b5908c80e163b920d72b52d584","111.205.219.160","Mozilla/5.0 (Macintosh; Intel Mac OS X 10_15_6) AppleWebKit/605.1.15 (KHTML, like Gecko) Version/15.6.1 Safari/605.1.15","Macintosh","Safari","15.6.1","OS X","10_15_6","null","<div style=""font-size:60px;"">+</div>","null",""
"","","","","","html-button-response","25","105342","0.0-4.0-1.10","282","1","2022-10-18 02:51:25","d60b49b5908c80e163b920d72b52d584","111.205.219.160","Mozilla/5.0 (Macintosh; Intel Mac OS X 10_15_6) AppleWebKit/605.1.15 (KHTML, like Gecko) Version/15.6.1 Safari/605.1.15","Macintosh","Safari","15.6.1","OS X","10_15_6","1877","<p>作为军队的指挥官，你可以选择发射导弹杀死 <strong>7名</strong> 敌国士兵，但会误杀附近的 <strong>1名</strong> 敌国平民。</p> <p>平民照片如下图所示。</p> <p></p> <img src='stimuli/faces/NCF5.jpg', style='max-width: 30%;'> </img> <p><strong>你是否选择发射武器？</strong></p>","1",""
"","","","","","html-keyboard-response","26","106347","0.0-4.0-0.11","282","1","2022-10-18 02:51:25","d60b49b5908c80e163b920d72b52d584","111.205.219.160","Mozilla/5.0 (Macintosh; Intel Mac OS X 10_15_6) AppleWebKit/605.1.15 (KHTML, like Gecko) Version/15.6.1 Safari/605.1.15","Macintosh","Safari","15.6.1","OS X","10_15_6","null","<div style=""font-size:60px;"">+</div>","null",""
"","","","","","html-button-response","27","108190","0.0-4.0-1.11","282","1","2022-10-18 02:51:25","d60b49b5908c80e163b920d72b52d584","111.205.219.160","Mozilla/5.0 (Macintosh; Intel Mac OS X 10_15_6) AppleWebKit/605.1.15 (KHTML, like Gecko) Version/15.6.1 Safari/605.1.15","Macintosh","Safari","15.6.1","OS X","10_15_6","1835","<p>作为军队的指挥官，你可以选择发射导弹杀死 <strong>5名</strong> 敌国士兵，但会炸毁附近的 <strong>1棵</strong> 敌国树木。</p> <p>树木的照片如下图所示。</p> <p></p> <img src='stimuli/trees/1.png', style='max-width: 30%;'> </img> <p><strong>你是否选择发射武器？</strong></p>","0",""
"","","","","","html-keyboard-response","28","109194","0.0-4.0-0.12","282","1","2022-10-18 02:51:25","d60b49b5908c80e163b920d72b52d584","111.205.219.160","Mozilla/5.0 (Macintosh; Intel Mac OS X 10_15_6) AppleWebKit/605.1.15 (KHTML, like Gecko) Version/15.6.1 Safari/605.1.15","Macintosh","Safari","15.6.1","OS X","10_15_6","null","<div style=""font-size:60px;"">+</div>","null",""
"","","","","","html-button-response","29","110646","0.0-4.0-1.12","282","1","2022-10-18 02:51:25","d60b49b5908c80e163b920d72b52d584","111.205.219.160","Mozilla/5.0 (Macintosh; Intel Mac OS X 10_15_6) AppleWebKit/605.1.15 (KHTML, like Gecko) Version/15.6.1 Safari/605.1.15","Macintosh","Safari","15.6.1","OS X","10_15_6","1443","<p>作为军队的指挥官，你可以选择发射导弹杀死 <strong>9名</strong> 敌国士兵，但会炸毁附近的 <strong>1棵</strong> 敌国树木。</p> <p>树木的照片如下图所示。</p> <p></p> <img src='stimuli/trees/3.png', style='max-width: 30%;'> </img> <p><strong>你是否选择发射武器？</strong></p>","0",""
"","","","","","html-keyboard-response","30","111649","0.0-4.0-0.13","282","1","2022-10-18 02:51:25","d60b49b5908c80e163b920d72b52d584","111.205.219.160","Mozilla/5.0 (Macintosh; Intel Mac OS X 10_15_6) AppleWebKit/605.1.15 (KHTML, like Gecko) Version/15.6.1 Safari/605.1.15","Macintosh","Safari","15.6.1","OS X","10_15_6","null","<div style=""font-size:60px;"">+</div>","null",""
"","","","","","html-button-response","31","112855","0.0-4.0-1.13","282","1","2022-10-18 02:51:25","d60b49b5908c80e163b920d72b52d584","111.205.219.160","Mozilla/5.0 (Macintosh; Intel Mac OS X 10_15_6) AppleWebKit/605.1.15 (KHTML, like Gecko) Version/15.6.1 Safari/605.1.15","Macintosh","Safari","15.6.1","OS X","10_15_6","1196","<p>作为军队的指挥官，你可以选择发射导弹杀死 <strong>6名</strong> 敌国士兵，但会炸毁附近的 <strong>1棵</strong> 敌国树木。</p> <p>树木的照片如下图所示。</p> <p></p> <img src='stimuli/trees/15.png', style='max-width: 30%;'> </img> <p><strong>你是否选择发射武器？</strong></p>","0",""
"","","","","","html-keyboard-response","32","113859","0.0-4.0-0.14","282","1","2022-10-18 02:51:25","d60b49b5908c80e163b920d72b52d584","111.205.219.160","Mozilla/5.0 (Macintosh; Intel Mac OS X 10_15_6) AppleWebKit/605.1.15 (KHTML, like Gecko) Version/15.6.1 Safari/605.1.15","Macintosh","Safari","15.6.1","OS X","10_15_6","null","<div style=""font-size:60px;"">+</div>","null",""
"","","","","","html-button-response","33","116039","0.0-4.0-1.14","282","1","2022-10-18 02:51:25","d60b49b5908c80e163b920d72b52d584","111.205.219.160","Mozilla/5.0 (Macintosh; Intel Mac OS X 10_15_6) AppleWebKit/605.1.15 (KHTML, like Gecko) Version/15.6.1 Safari/605.1.15","Macintosh","Safari","15.6.1","OS X","10_15_6","2170","<p>作为军队的指挥官，你可以选择发射导弹杀死 <strong>1名</strong> 敌国士兵，但会误杀附近的 <strong>1名</strong> 敌国平民。</p> <p>平民照片如下图所示。</p> <p></p> <img src='stimuli/faces/NCM7.jpg', style='max-width: 30%;'> </img> <p><strong>你是否选择发射武器？</strong></p>","1",""
"","","","","","html-keyboard-response","34","117044","0.0-4.0-0.15","282","1","2022-10-18 02:51:25","d60b49b5908c80e163b920d72b52d584","111.205.219.160","Mozilla/5.0 (Macintosh; Intel Mac OS X 10_15_6) AppleWebKit/605.1.15 (KHTML, like Gecko) Version/15.6.1 Safari/605.1.15","Macintosh","Safari","15.6.1","OS X","10_15_6","null","<div style=""font-size:60px;"">+</div>","null",""
"","","","","","html-button-response","35","118797","0.0-4.0-1.15","282","1","2022-10-18 02:51:25","d60b49b5908c80e163b920d72b52d584","111.205.219.160","Mozilla/5.0 (Macintosh; Intel Mac OS X 10_15_6) AppleWebKit/605.1.15 (KHTML, like Gecko) Version/15.6.1 Safari/605.1.15","Macintosh","Safari","15.6.1","OS X","10_15_6","1743","<p>作为军队的指挥官，你可以选择发射导弹杀死 <strong>8名</strong> 敌国士兵，但会炸毁附近的 <strong>1棵</strong> 敌国树木。</p> <p>树木的照片如下图所示。</p> <p></p> <img src='stimuli/trees/9.png', style='max-width: 30%;'> </img> <p><strong>你是否选择发射武器？</strong></p>","0",""
"","","","","","html-keyboard-response","36","119803","0.0-4.0-0.16","282","1","2022-10-18 02:51:25","d60b49b5908c80e163b920d72b52d584","111.205.219.160","Mozilla/5.0 (Macintosh; Intel Mac OS X 10_15_6) AppleWebKit/605.1.15 (KHTML, like Gecko) Version/15.6.1 Safari/605.1.15","Macintosh","Safari","15.6.1","OS X","10_15_6","null","<div style=""font-size:60px;"">+</div>","null",""
"","","","","","html-button-response","37","121741","0.0-4.0-1.16","282","1","2022-10-18 02:51:25","d60b49b5908c80e163b920d72b52d584","111.205.219.160","Mozilla/5.0 (Macintosh; Intel Mac OS X 10_15_6) AppleWebKit/605.1.15 (KHTML, like Gecko) Version/15.6.1 Safari/605.1.15","Macintosh","Safari","15.6.1","OS X","10_15_6","1928","<p>作为军队的指挥官，你可以选择发射导弹杀死 <strong>6名</strong> 敌国士兵，但会误杀附近的 <strong>1名</strong> 敌国平民。</p> <p>平民照片如下图所示。</p> <p></p> <img src='stimuli/faces/NCM6.jpg', style='max-width: 30%;'> </img> <p><strong>你是否选择发射武器？</strong></p>","1",""
"","","","","","html-keyboard-response","38","122747","0.0-4.0-0.17","282","1","2022-10-18 02:51:25","d60b49b5908c80e163b920d72b52d584","111.205.219.160","Mozilla/5.0 (Macintosh; Intel Mac OS X 10_15_6) AppleWebKit/605.1.15 (KHTML, like Gecko) Version/15.6.1 Safari/605.1.15","Macintosh","Safari","15.6.1","OS X","10_15_6","null","<div style=""font-size:60px;"">+</div>","null",""
"","","","","","html-button-response","39","125061","0.0-4.0-1.17","282","1","2022-10-18 02:51:25","d60b49b5908c80e163b920d72b52d584","111.205.219.160","Mozilla/5.0 (Macintosh; Intel Mac OS X 10_15_6) AppleWebKit/605.1.15 (KHTML, like Gecko) Version/15.6.1 Safari/605.1.15","Macintosh","Safari","15.6.1","OS X","10_15_6","2305","<p>作为军队的指挥官，你可以选择发射导弹杀死 <strong>7名</strong> 敌国士兵，但会误杀附近的 <strong>1名</strong> 敌国平民。</p> <p>平民照片如下图所示。</p> <p></p> <img src='stimuli/faces/NCF7.jpg', style='max-width: 30%;'> </img> <p><strong>你是否选择发射武器？</strong></p>","1",""
"","","","","","html-keyboard-response","40","126066","0.0-4.0-0.18","282","1","2022-10-18 02:51:25","d60b49b5908c80e163b920d72b52d584","111.205.219.160","Mozilla/5.0 (Macintosh; Intel Mac OS X 10_15_6) AppleWebKit/605.1.15 (KHTML, like Gecko) Version/15.6.1 Safari/605.1.15","Macintosh","Safari","15.6.1","OS X","10_15_6","null","<div style=""font-size:60px;"">+</div>","null",""
"","","","","","html-button-response","41","127944","0.0-4.0-1.18","282","1","2022-10-18 02:51:25","d60b49b5908c80e163b920d72b52d584","111.205.219.160","Mozilla/5.0 (Macintosh; Intel Mac OS X 10_15_6) AppleWebKit/605.1.15 (KHTML, like Gecko) Version/15.6.1 Safari/605.1.15","Macintosh","Safari","15.6.1","OS X","10_15_6","1868","<p>作为军队的指挥官，你可以选择发射导弹杀死 <strong>6名</strong> 敌国士兵，但会误杀附近的 <strong>1名</strong> 敌国平民。</p> <p>平民照片如下图所示。</p> <p></p> <img src='stimuli/faces/NCF8.jpg', style='max-width: 30%;'> </img> <p><strong>你是否选择发射武器？</strong></p>","1",""
"","","","","","html-keyboard-response","42","128949","0.0-4.0-0.19","282","1","2022-10-18 02:51:25","d60b49b5908c80e163b920d72b52d584","111.205.219.160","Mozilla/5.0 (Macintosh; Intel Mac OS X 10_15_6) AppleWebKit/605.1.15 (KHTML, like Gecko) Version/15.6.1 Safari/605.1.15","Macintosh","Safari","15.6.1","OS X","10_15_6","null","<div style=""font-size:60px;"">+</div>","null",""
"","","","","","html-button-response","43","130661","0.0-4.0-1.19","282","1","2022-10-18 02:51:25","d60b49b5908c80e163b920d72b52d584","111.205.219.160","Mozilla/5.0 (Macintosh; Intel Mac OS X 10_15_6) AppleWebKit/605.1.15 (KHTML, like Gecko) Version/15.6.1 Safari/605.1.15","Macintosh","Safari","15.6.1","OS X","10_15_6","1702","<p>作为军队的指挥官，你可以选择发射导弹杀死 <strong>3名</strong> 敌国士兵，但会误杀附近的 <strong>1名</strong> 敌国平民。</p> <p>平民照片如下图所示。</p> <p></p> <img src='stimuli/faces/NCM8.jpg', style='max-width: 30%;'> </img> <p><strong>你是否选择发射武器？</strong></p>","1",""
"","","","","","html-keyboard-response","44","131668","0.0-4.0-0.20","282","1","2022-10-18 02:51:25","d60b49b5908c80e163b920d72b52d584","111.205.219.160","Mozilla/5.0 (Macintosh; Intel Mac OS X 10_15_6) AppleWebKit/605.1.15 (KHTML, like Gecko) Version/15.6.1 Safari/605.1.15","Macintosh","Safari","15.6.1","OS X","10_15_6","null","<div style=""font-size:60px;"">+</div>","null",""
"","","","","","html-button-response","45","133325","0.0-4.0-1.20","282","1","2022-10-18 02:51:25","d60b49b5908c80e163b920d72b52d584","111.205.219.160","Mozilla/5.0 (Macintosh; Intel Mac OS X 10_15_6) AppleWebKit/605.1.15 (KHTML, like Gecko) Version/15.6.1 Safari/605.1.15","Macintosh","Safari","15.6.1","OS X","10_15_6","1648","<p>作为军队的指挥官，你可以选择发射导弹杀死 <strong>7名</strong> 敌国士兵，但会误杀附近的 <strong>1名</strong> 敌国平民。</p> <p>平民照片如下图所示。</p> <p></p> <img src='stimuli/faces/NCM4.jpg', style='max-width: 30%;'> </img> <p><strong>你是否选择发射武器？</strong></p>","1",""
"","","","","","html-keyboard-response","46","134330","0.0-4.0-0.21","282","1","2022-10-18 02:51:25","d60b49b5908c80e163b920d72b52d584","111.205.219.160","Mozilla/5.0 (Macintosh; Intel Mac OS X 10_15_6) AppleWebKit/605.1.15 (KHTML, like Gecko) Version/15.6.1 Safari/605.1.15","Macintosh","Safari","15.6.1","OS X","10_15_6","null","<div style=""font-size:60px;"">+</div>","null",""
"","","","","","html-button-response","47","136555","0.0-4.0-1.21","282","1","2022-10-18 02:51:25","d60b49b5908c80e163b920d72b52d584","111.205.219.160","Mozilla/5.0 (Macintosh; Intel Mac OS X 10_15_6) AppleWebKit/605.1.15 (KHTML, like Gecko) Version/15.6.1 Safari/605.1.15","Macintosh","Safari","15.6.1","OS X","10_15_6","2215","<p>作为军队的指挥官，你可以选择发射导弹杀死 <strong>1名</strong> 敌国士兵，但会误杀附近的 <strong>1名</strong> 敌国平民。</p> <p>平民照片如下图所示。</p> <p></p> <img src='stimuli/faces/NCM3.jpg', style='max-width: 30%;'> </img> <p><strong>你是否选择发射武器？</strong></p>","1",""
"","","","","","html-keyboard-response","48","137560","0.0-4.0-0.22","282","1","2022-10-18 02:51:25","d60b49b5908c80e163b920d72b52d584","111.205.219.160","Mozilla/5.0 (Macintosh; Intel Mac OS X 10_15_6) AppleWebKit/605.1.15 (KHTML, like Gecko) Version/15.6.1 Safari/605.1.15","Macintosh","Safari","15.6.1","OS X","10_15_6","null","<div style=""font-size:60px;"">+</div>","null",""
"","","","","","html-button-response","49","138981","0.0-4.0-1.22","282","1","2022-10-18 02:51:25","d60b49b5908c80e163b920d72b52d584","111.205.219.160","Mozilla/5.0 (Macintosh; Intel Mac OS X 10_15_6) AppleWebKit/605.1.15 (KHTML, like Gecko) Version/15.6.1 Safari/605.1.15","Macintosh","Safari","15.6.1","OS X","10_15_6","1410","<p>作为军队的指挥官，你可以选择发射导弹杀死 <strong>3名</strong> 敌国士兵，但会误杀附近的 <strong>1名</strong> 敌国平民。</p> <p>平民照片如下图所示。</p> <p></p> <img src='stimuli/faces/NCF2.jpg', style='max-width: 30%;'> </img> <p><strong>你是否选择发射武器？</strong></p>","1",""
"","","","","","html-keyboard-response","50","139986","0.0-4.0-0.23","282","1","2022-10-18 02:51:25","d60b49b5908c80e163b920d72b52d584","111.205.219.160","Mozilla/5.0 (Macintosh; Intel Mac OS X 10_15_6) AppleWebKit/605.1.15 (KHTML, like Gecko) Version/15.6.1 Safari/605.1.15","Macintosh","Safari","15.6.1","OS X","10_15_6","null","<div style=""font-size:60px;"">+</div>","null",""
"","","","","","html-button-response","51","141807","0.0-4.0-1.23","282","1","2022-10-18 02:51:25","d60b49b5908c80e163b920d72b52d584","111.205.219.160","Mozilla/5.0 (Macintosh; Intel Mac OS X 10_15_6) AppleWebKit/605.1.15 (KHTML, like Gecko) Version/15.6.1 Safari/605.1.15","Macintosh","Safari","15.6.1","OS X","10_15_6","1811","<p>作为军队的指挥官，你可以选择发射导弹杀死 <strong>1名</strong> 敌国士兵，但会误杀附近的 <strong>1名</strong> 敌国平民。</p> <p>平民照片如下图所示。</p> <p></p> <img src='stimuli/faces/NCM5.jpg', style='max-width: 30%;'> </img> <p><strong>你是否选择发射武器？</strong></p>","1",""
"","","","","","html-keyboard-response","52","142813","0.0-4.0-0.24","282","1","2022-10-18 02:51:25","d60b49b5908c80e163b920d72b52d584","111.205.219.160","Mozilla/5.0 (Macintosh; Intel Mac OS X 10_15_6) AppleWebKit/605.1.15 (KHTML, like Gecko) Version/15.6.1 Safari/605.1.15","Macintosh","Safari","15.6.1","OS X","10_15_6","null","<div style=""font-size:60px;"">+</div>","null",""
"","","","","","html-button-response","53","145237","0.0-4.0-1.24","282","1","2022-10-18 02:51:25","d60b49b5908c80e163b920d72b52d584","111.205.219.160","Mozilla/5.0 (Macintosh; Intel Mac OS X 10_15_6) AppleWebKit/605.1.15 (KHTML, like Gecko) Version/15.6.1 Safari/605.1.15","Macintosh","Safari","15.6.1","OS X","10_15_6","2414","<p>作为军队的指挥官，你可以选择发射导弹杀死 <strong>9名</strong> 敌国士兵，但会误杀附近的 <strong>1名</strong> 敌国平民。</p> <p>平民照片如下图所示。</p> <p></p> <img src='stimuli/faces/NCF4.jpg', style='max-width: 30%;'> </img> <p><strong>你是否选择发射武器？</strong></p>","1",""
"","","","","","html-keyboard-response","54","146243","0.0-4.0-0.25","282","1","2022-10-18 02:51:25","d60b49b5908c80e163b920d72b52d584","111.205.219.160","Mozilla/5.0 (Macintosh; Intel Mac OS X 10_15_6) AppleWebKit/605.1.15 (KHTML, like Gecko) Version/15.6.1 Safari/605.1.15","Macintosh","Safari","15.6.1","OS X","10_15_6","null","<div style=""font-size:60px;"">+</div>","null",""
"","","","","","html-button-response","55","147703","0.0-4.0-1.25","282","1","2022-10-18 02:51:25","d60b49b5908c80e163b920d72b52d584","111.205.219.160","Mozilla/5.0 (Macintosh; Intel Mac OS X 10_15_6) AppleWebKit/605.1.15 (KHTML, like Gecko) Version/15.6.1 Safari/605.1.15","Macintosh","Safari","15.6.1","OS X","10_15_6","1449","<p>作为军队的指挥官，你可以选择发射导弹杀死 <strong>3名</strong> 敌国士兵，但会误杀附近的 <strong>1名</strong> 敌国平民。</p> <p>平民照片如下图所示。</p> <p></p> <img src='stimuli/faces/NCM2.jpg', style='max-width: 30%;'> </img> <p><strong>你是否选择发射武器？</strong></p>","1",""
"","","","","","html-keyboard-response","56","148708","0.0-4.0-0.26","282","1","2022-10-18 02:51:25","d60b49b5908c80e163b920d72b52d584","111.205.219.160","Mozilla/5.0 (Macintosh; Intel Mac OS X 10_15_6) AppleWebKit/605.1.15 (KHTML, like Gecko) Version/15.6.1 Safari/605.1.15","Macintosh","Safari","15.6.1","OS X","10_15_6","null","<div style=""font-size:60px;"">+</div>","null",""
"","","","","","html-button-response","57","150058","0.0-4.0-1.26","282","1","2022-10-18 02:51:25","d60b49b5908c80e163b920d72b52d584","111.205.219.160","Mozilla/5.0 (Macintosh; Intel Mac OS X 10_15_6) AppleWebKit/605.1.15 (KHTML, like Gecko) Version/15.6.1 Safari/605.1.15","Macintosh","Safari","15.6.1","OS X","10_15_6","1339","<p>作为军队的指挥官，你可以选择发射导弹杀死 <strong>4名</strong> 敌国士兵，但会炸毁附近的 <strong>1棵</strong> 敌国树木。</p> <p>树木的照片如下图所示。</p> <p></p> <img src='stimuli/trees/10.png', style='max-width: 30%;'> </img> <p><strong>你是否选择发射武器？</strong></p>","0",""
"","","","","","html-keyboard-response","58","151062","0.0-4.0-0.27","282","1","2022-10-18 02:51:25","d60b49b5908c80e163b920d72b52d584","111.205.219.160","Mozilla/5.0 (Macintosh; Intel Mac OS X 10_15_6) AppleWebKit/605.1.15 (KHTML, like Gecko) Version/15.6.1 Safari/605.1.15","Macintosh","Safari","15.6.1","OS X","10_15_6","null","<div style=""font-size:60px;"">+</div>","null",""
"","","","","","html-button-response","59","152001","0.0-4.0-1.27","282","1","2022-10-18 02:51:25","d60b49b5908c80e163b920d72b52d584","111.205.219.160","Mozilla/5.0 (Macintosh; Intel Mac OS X 10_15_6) AppleWebKit/605.1.15 (KHTML, like Gecko) Version/15.6.1 Safari/605.1.15","Macintosh","Safari","15.6.1","OS X","10_15_6","927","<p>作为军队的指挥官，你可以选择发射导弹杀死 <strong>7名</strong> 敌国士兵，但会炸毁附近的 <strong>1棵</strong> 敌国树木。</p> <p>树木的照片如下图所示。</p> <p></p> <img src='stimuli/trees/5.png', style='max-width: 30%;'> </img> <p><strong>你是否选择发射武器？</strong></p>","0",""
"","","","","","html-keyboard-response","60","153006","0.0-4.0-0.28","282","1","2022-10-18 02:51:25","d60b49b5908c80e163b920d72b52d584","111.205.219.160","Mozilla/5.0 (Macintosh; Intel Mac OS X 10_15_6) AppleWebKit/605.1.15 (KHTML, like Gecko) Version/15.6.1 Safari/605.1.15","Macintosh","Safari","15.6.1","OS X","10_15_6","null","<div style=""font-size:60px;"">+</div>","null",""
"","","","","","html-button-response","61","154337","0.0-4.0-1.28","282","1","2022-10-18 02:51:25","d60b49b5908c80e163b920d72b52d584","111.205.219.160","Mozilla/5.0 (Macintosh; Intel Mac OS X 10_15_6) AppleWebKit/605.1.15 (KHTML, like Gecko) Version/15.6.1 Safari/605.1.15","Macintosh","Safari","15.6.1","OS X","10_15_6","1318","<p>作为军队的指挥官，你可以选择发射导弹杀死 <strong>1名</strong> 敌国士兵，但会误杀附近的 <strong>1名</strong> 敌国平民。</p> <p>平民照片如下图所示。</p> <p></p> <img src='stimuli/faces/NCF6.jpg', style='max-width: 30%;'> </img> <p><strong>你是否选择发射武器？</strong></p>","1",""
"","","","","","html-keyboard-response","62","155343","0.0-4.0-0.29","282","1","2022-10-18 02:51:25","d60b49b5908c80e163b920d72b52d584","111.205.219.160","Mozilla/5.0 (Macintosh; Intel Mac OS X 10_15_6) AppleWebKit/605.1.15 (KHTML, like Gecko) Version/15.6.1 Safari/605.1.15","Macintosh","Safari","15.6.1","OS X","10_15_6","null","<div style=""font-size:60px;"">+</div>","null",""
"","","","","","html-button-response","63","157176","0.0-4.0-1.29","282","1","2022-10-18 02:51:25","d60b49b5908c80e163b920d72b52d584","111.205.219.160","Mozilla/5.0 (Macintosh; Intel Mac OS X 10_15_6) AppleWebKit/605.1.15 (KHTML, like Gecko) Version/15.6.1 Safari/605.1.15","Macintosh","Safari","15.6.1","OS X","10_15_6","1822","<p>作为军队的指挥官，你可以选择发射导弹杀死 <strong>6名</strong> 敌国士兵，但会误杀附近的 <strong>1名</strong> 敌国平民。</p> <p>平民照片如下图所示。</p> <p></p> <img src='stimuli/faces/NCM8.jpg', style='max-width: 30%;'> </img> <p><strong>你是否选择发射武器？</strong></p>","1",""
"","","","","","html-keyboard-response","64","158182","0.0-4.0-0.30","282","1","2022-10-18 02:51:25","d60b49b5908c80e163b920d72b52d584","111.205.219.160","Mozilla/5.0 (Macintosh; Intel Mac OS X 10_15_6) AppleWebKit/605.1.15 (KHTML, like Gecko) Version/15.6.1 Safari/605.1.15","Macintosh","Safari","15.6.1","OS X","10_15_6","null","<div style=""font-size:60px;"">+</div>","null",""
"","","","","","html-button-response","65","159741","0.0-4.0-1.30","282","1","2022-10-18 02:51:25","d60b49b5908c80e163b920d72b52d584","111.205.219.160","Mozilla/5.0 (Macintosh; Intel Mac OS X 10_15_6) AppleWebKit/605.1.15 (KHTML, like Gecko) Version/15.6.1 Safari/605.1.15","Macintosh","Safari","15.6.1","OS X","10_15_6","1547","<p>作为军队的指挥官，你可以选择发射导弹杀死 <strong>1名</strong> 敌国士兵，但会炸毁附近的 <strong>1棵</strong> 敌国树木。</p> <p>树木的照片如下图所示。</p> <p></p> <img src='stimuli/trees/5.png', style='max-width: 30%;'> </img> <p><strong>你是否选择发射武器？</strong></p>","0",""
"","","","","","html-keyboard-response","66","160748","0.0-4.0-0.31","282","1","2022-10-18 02:51:25","d60b49b5908c80e163b920d72b52d584","111.205.219.160","Mozilla/5.0 (Macintosh; Intel Mac OS X 10_15_6) AppleWebKit/605.1.15 (KHTML, like Gecko) Version/15.6.1 Safari/605.1.15","Macintosh","Safari","15.6.1","OS X","10_15_6","null","<div style=""font-size:60px;"">+</div>","null",""
"","","","","","html-button-response","67","161856","0.0-4.0-1.31","282","1","2022-10-18 02:51:25","d60b49b5908c80e163b920d72b52d584","111.205.219.160","Mozilla/5.0 (Macintosh; Intel Mac OS X 10_15_6) AppleWebKit/605.1.15 (KHTML, like Gecko) Version/15.6.1 Safari/605.1.15","Macintosh","Safari","15.6.1","OS X","10_15_6","1096","<p>作为军队的指挥官，你可以选择发射导弹杀死 <strong>6名</strong> 敌国士兵，但会误杀附近的 <strong>1名</strong> 敌国平民。</p> <p>平民照片如下图所示。</p> <p></p> <img src='stimuli/faces/NCM3.jpg', style='max-width: 30%;'> </img> <p><strong>你是否选择发射武器？</strong></p>","1",""
"","","","","","html-keyboard-response","68","162860","0.0-4.0-0.32","282","1","2022-10-18 02:51:25","d60b49b5908c80e163b920d72b52d584","111.205.219.160","Mozilla/5.0 (Macintosh; Intel Mac OS X 10_15_6) AppleWebKit/605.1.15 (KHTML, like Gecko) Version/15.6.1 Safari/605.1.15","Macintosh","Safari","15.6.1","OS X","10_15_6","null","<div style=""font-size:60px;"">+</div>","null",""
"","","","","","html-button-response","69","165164","0.0-4.0-1.32","282","1","2022-10-18 02:51:25","d60b49b5908c80e163b920d72b52d584","111.205.219.160","Mozilla/5.0 (Macintosh; Intel Mac OS X 10_15_6) AppleWebKit/605.1.15 (KHTML, like Gecko) Version/15.6.1 Safari/605.1.15","Macintosh","Safari","15.6.1","OS X","10_15_6","2282","<p>作为军队的指挥官，你可以选择发射导弹杀死 <strong>4名</strong> 敌国士兵，但会炸毁附近的 <strong>1棵</strong> 敌国树木。</p> <p>树木的照片如下图所示。</p> <p></p> <img src='stimuli/trees/11.png', style='max-width: 30%;'> </img> <p><strong>你是否选择发射武器？</strong></p>","0",""
"","","","","","html-keyboard-response","70","166169","0.0-4.0-0.33","282","1","2022-10-18 02:51:25","d60b49b5908c80e163b920d72b52d584","111.205.219.160","Mozilla/5.0 (Macintosh; Intel Mac OS X 10_15_6) AppleWebKit/605.1.15 (KHTML, like Gecko) Version/15.6.1 Safari/605.1.15","Macintosh","Safari","15.6.1","OS X","10_15_6","null","<div style=""font-size:60px;"">+</div>","null",""
"","","","","","html-button-response","71","167030","0.0-4.0-1.33","282","1","2022-10-18 02:51:25","d60b49b5908c80e163b920d72b52d584","111.205.219.160","Mozilla/5.0 (Macintosh; Intel Mac OS X 10_15_6) AppleWebKit/605.1.15 (KHTML, like Gecko) Version/15.6.1 Safari/605.1.15","Macintosh","Safari","15.6.1","OS X","10_15_6","848","<p>作为军队的指挥官，你可以选择发射导弹杀死 <strong>5名</strong> 敌国士兵，但会炸毁附近的 <strong>1棵</strong> 敌国树木。</p> <p>树木的照片如下图所示。</p> <p></p> <img src='stimuli/trees/12.png', style='max-width: 30%;'> </img> <p><strong>你是否选择发射武器？</strong></p>","0",""
"","","","","","html-keyboard-response","72","168035","0.0-4.0-0.34","282","1","2022-10-18 02:51:25","d60b49b5908c80e163b920d72b52d584","111.205.219.160","Mozilla/5.0 (Macintosh; Intel Mac OS X 10_15_6) AppleWebKit/605.1.15 (KHTML, like Gecko) Version/15.6.1 Safari/605.1.15","Macintosh","Safari","15.6.1","OS X","10_15_6","null","<div style=""font-size:60px;"">+</div>","null",""
"","","","","","html-button-response","73","168814","0.0-4.0-1.34","282","1","2022-10-18 02:51:25","d60b49b5908c80e163b920d72b52d584","111.205.219.160","Mozilla/5.0 (Macintosh; Intel Mac OS X 10_15_6) AppleWebKit/605.1.15 (KHTML, like Gecko) Version/15.6.1 Safari/605.1.15","Macintosh","Safari","15.6.1","OS X","10_15_6","766","<p>作为军队的指挥官，你可以选择发射导弹杀死 <strong>4名</strong> 敌国士兵，但会炸毁附近的 <strong>1棵</strong> 敌国树木。</p> <p>树木的照片如下图所示。</p> <p></p> <img src='stimuli/trees/7.png', style='max-width: 30%;'> </img> <p><strong>你是否选择发射武器？</strong></p>","0",""
"","","","","","html-keyboard-response","74","169820","0.0-4.0-0.35","282","1","2022-10-18 02:51:25","d60b49b5908c80e163b920d72b52d584","111.205.219.160","Mozilla/5.0 (Macintosh; Intel Mac OS X 10_15_6) AppleWebKit/605.1.15 (KHTML, like Gecko) Version/15.6.1 Safari/605.1.15","Macintosh","Safari","15.6.1","OS X","10_15_6","null","<div style=""font-size:60px;"">+</div>","null",""
"","","","","","html-button-response","75","170520","0.0-4.0-1.35","282","1","2022-10-18 02:51:25","d60b49b5908c80e163b920d72b52d584","111.205.219.160","Mozilla/5.0 (Macintosh; Intel Mac OS X 10_15_6) AppleWebKit/605.1.15 (KHTML, like Gecko) Version/15.6.1 Safari/605.1.15","Macintosh","Safari","15.6.1","OS X","10_15_6","689","<p>作为军队的指挥官，你可以选择发射导弹杀死 <strong>8名</strong> 敌国士兵，但会炸毁附近的 <strong>1棵</strong> 敌国树木。</p> <p>树木的照片如下图所示。</p> <p></p> <img src='stimuli/trees/6.png', style='max-width: 30%;'> </img> <p><strong>你是否选择发射武器？</strong></p>","0",""
"","","","","","html-keyboard-response","76","171524","0.0-4.0-0.36","282","1","2022-10-18 02:51:25","d60b49b5908c80e163b920d72b52d584","111.205.219.160","Mozilla/5.0 (Macintosh; Intel Mac OS X 10_15_6) AppleWebKit/605.1.15 (KHTML, like Gecko) Version/15.6.1 Safari/605.1.15","Macintosh","Safari","15.6.1","OS X","10_15_6","null","<div style=""font-size:60px;"">+</div>","null",""
"","","","","","html-button-response","77","172306","0.0-4.0-1.36","282","1","2022-10-18 02:51:25","d60b49b5908c80e163b920d72b52d584","111.205.219.160","Mozilla/5.0 (Macintosh; Intel Mac OS X 10_15_6) AppleWebKit/605.1.15 (KHTML, like Gecko) Version/15.6.1 Safari/605.1.15","Macintosh","Safari","15.6.1","OS X","10_15_6","770","<p>作为军队的指挥官，你可以选择发射导弹杀死 <strong>5名</strong> 敌国士兵，但会炸毁附近的 <strong>1棵</strong> 敌国树木。</p> <p>树木的照片如下图所示。</p> <p></p> <img src='stimuli/trees/2.png', style='max-width: 30%;'> </img> <p><strong>你是否选择发射武器？</strong></p>","0",""
"","","","","","html-keyboard-response","78","173311","0.0-4.0-0.37","282","1","2022-10-18 02:51:25","d60b49b5908c80e163b920d72b52d584","111.205.219.160","Mozilla/5.0 (Macintosh; Intel Mac OS X 10_15_6) AppleWebKit/605.1.15 (KHTML, like Gecko) Version/15.6.1 Safari/605.1.15","Macintosh","Safari","15.6.1","OS X","10_15_6","null","<div style=""font-size:60px;"">+</div>","null",""
"","","","","","html-button-response","79","174262","0.0-4.0-1.37","282","1","2022-10-18 02:51:25","d60b49b5908c80e163b920d72b52d584","111.205.219.160","Mozilla/5.0 (Macintosh; Intel Mac OS X 10_15_6) AppleWebKit/605.1.15 (KHTML, like Gecko) Version/15.6.1 Safari/605.1.15","Macintosh","Safari","15.6.1","OS X","10_15_6","939","<p>作为军队的指挥官，你可以选择发射导弹杀死 <strong>1名</strong> 敌国士兵，但会炸毁附近的 <strong>1棵</strong> 敌国树木。</p> <p>树木的照片如下图所示。</p> <p></p> <img src='stimuli/trees/9.png', style='max-width: 30%;'> </img> <p><strong>你是否选择发射武器？</strong></p>","0",""
"","","","","","html-keyboard-response","80","175269","0.0-4.0-0.38","282","1","2022-10-18 02:51:25","d60b49b5908c80e163b920d72b52d584","111.205.219.160","Mozilla/5.0 (Macintosh; Intel Mac OS X 10_15_6) AppleWebKit/605.1.15 (KHTML, like Gecko) Version/15.6.1 Safari/605.1.15","Macintosh","Safari","15.6.1","OS X","10_15_6","null","<div style=""font-size:60px;"">+</div>","null",""
"","","","","","html-button-response","81","176295","0.0-4.0-1.38","282","1","2022-10-18 02:51:25","d60b49b5908c80e163b920d72b52d584","111.205.219.160","Mozilla/5.0 (Macintosh; Intel Mac OS X 10_15_6) AppleWebKit/605.1.15 (KHTML, like Gecko) Version/15.6.1 Safari/605.1.15","Macintosh","Safari","15.6.1","OS X","10_15_6","1014","<p>作为军队的指挥官，你可以选择发射导弹杀死 <strong>4名</strong> 敌国士兵，但会误杀附近的 <strong>1名</strong> 敌国平民。</p> <p>平民照片如下图所示。</p> <p></p> <img src='stimuli/faces/NCF8.jpg', style='max-width: 30%;'> </img> <p><strong>你是否选择发射武器？</strong></p>","1",""
"","","","","","html-keyboard-response","82","177302","0.0-4.0-0.39","282","1","2022-10-18 02:51:25","d60b49b5908c80e163b920d72b52d584","111.205.219.160","Mozilla/5.0 (Macintosh; Intel Mac OS X 10_15_6) AppleWebKit/605.1.15 (KHTML, like Gecko) Version/15.6.1 Safari/605.1.15","Macintosh","Safari","15.6.1","OS X","10_15_6","null","<div style=""font-size:60px;"">+</div>","null",""
"","","","","","html-button-response","83","178297","0.0-4.0-1.39","282","1","2022-10-18 02:51:25","d60b49b5908c80e163b920d72b52d584","111.205.219.160","Mozilla/5.0 (Macintosh; Intel Mac OS X 10_15_6) AppleWebKit/605.1.15 (KHTML, like Gecko) Version/15.6.1 Safari/605.1.15","Macintosh","Safari","15.6.1","OS X","10_15_6","983","<p>作为军队的指挥官，你可以选择发射导弹杀死 <strong>9名</strong> 敌国士兵，但会误杀附近的 <strong>1名</strong> 敌国平民。</p> <p>平民照片如下图所示。</p> <p></p> <img src='stimuli/faces/NCM1.jpg', style='max-width: 30%;'> </img> <p><strong>你是否选择发射武器？</strong></p>","1",""
"","","","","","html-keyboard-response","84","179303","0.0-4.0-0.40","282","1","2022-10-18 02:51:25","d60b49b5908c80e163b920d72b52d584","111.205.219.160","Mozilla/5.0 (Macintosh; Intel Mac OS X 10_15_6) AppleWebKit/605.1.15 (KHTML, like Gecko) Version/15.6.1 Safari/605.1.15","Macintosh","Safari","15.6.1","OS X","10_15_6","null","<div style=""font-size:60px;"">+</div>","null",""
"","","","","","html-button-response","85","180669","0.0-4.0-1.40","282","1","2022-10-18 02:51:25","d60b49b5908c80e163b920d72b52d584","111.205.219.160","Mozilla/5.0 (Macintosh; Intel Mac OS X 10_15_6) AppleWebKit/605.1.15 (KHTML, like Gecko) Version/15.6.1 Safari/605.1.15","Macintosh","Safari","15.6.1","OS X","10_15_6","1347","<p>作为军队的指挥官，你可以选择发射导弹杀死 <strong>2名</strong> 敌国士兵，但会炸毁附近的 <strong>1棵</strong> 敌国树木。</p> <p>树木的照片如下图所示。</p> <p></p> <img src='stimuli/trees/8.png', style='max-width: 30%;'> </img> <p><strong>你是否选择发射武器？</strong></p>","0",""
"","","","","","html-keyboard-response","86","181675","0.0-4.0-0.41","282","1","2022-10-18 02:51:25","d60b49b5908c80e163b920d72b52d584","111.205.219.160","Mozilla/5.0 (Macintosh; Intel Mac OS X 10_15_6) AppleWebKit/605.1.15 (KHTML, like Gecko) Version/15.6.1 Safari/605.1.15","Macintosh","Safari","15.6.1","OS X","10_15_6","null","<div style=""font-size:60px;"">+</div>","null",""
"","","","","","html-button-response","87","183016","0.0-4.0-1.41","282","1","2022-10-18 02:51:25","d60b49b5908c80e163b920d72b52d584","111.205.219.160","Mozilla/5.0 (Macintosh; Intel Mac OS X 10_15_6) AppleWebKit/605.1.15 (KHTML, like Gecko) Version/15.6.1 Safari/605.1.15","Macintosh","Safari","15.6.1","OS X","10_15_6","1327","<p>作为军队的指挥官，你可以选择发射导弹杀死 <strong>7名</strong> 敌国士兵，但会误杀附近的 <strong>1名</strong> 敌国平民。</p> <p>平民照片如下图所示。</p> <p></p> <img src='stimuli/faces/NCF1.jpg', style='max-width: 30%;'> </img> <p><strong>你是否选择发射武器？</strong></p>","1",""
"","","","","","html-keyboard-response","88","184022","0.0-4.0-0.42","282","1","2022-10-18 02:51:25","d60b49b5908c80e163b920d72b52d584","111.205.219.160","Mozilla/5.0 (Macintosh; Intel Mac OS X 10_15_6) AppleWebKit/605.1.15 (KHTML, like Gecko) Version/15.6.1 Safari/605.1.15","Macintosh","Safari","15.6.1","OS X","10_15_6","null","<div style=""font-size:60px;"">+</div>","null",""
"","","","","","html-button-response","89","185025","0.0-4.0-1.42","282","1","2022-10-18 02:51:25","d60b49b5908c80e163b920d72b52d584","111.205.219.160","Mozilla/5.0 (Macintosh; Intel Mac OS X 10_15_6) AppleWebKit/605.1.15 (KHTML, like Gecko) Version/15.6.1 Safari/605.1.15","Macintosh","Safari","15.6.1","OS X","10_15_6","992","<p>作为军队的指挥官，你可以选择发射导弹杀死 <strong>10名</strong> 敌国士兵，但会炸毁附近的 <strong>1棵</strong> 敌国树木。</p> <p>树木的照片如下图所示。</p> <p></p> <img src='stimuli/trees/4.png', style='max-width: 30%;'> </img> <p><strong>你是否选择发射武器？</strong></p>","0",""
"","","","","","html-keyboard-response","90","186033","0.0-4.0-0.43","282","1","2022-10-18 02:51:25","d60b49b5908c80e163b920d72b52d584","111.205.219.160","Mozilla/5.0 (Macintosh; Intel Mac OS X 10_15_6) AppleWebKit/605.1.15 (KHTML, like Gecko) Version/15.6.1 Safari/605.1.15","Macintosh","Safari","15.6.1","OS X","10_15_6","null","<div style=""font-size:60px;"">+</div>","null",""
"","","","","","html-button-response","91","186800","0.0-4.0-1.43","282","1","2022-10-18 02:51:25","d60b49b5908c80e163b920d72b52d584","111.205.219.160","Mozilla/5.0 (Macintosh; Intel Mac OS X 10_15_6) AppleWebKit/605.1.15 (KHTML, like Gecko) Version/15.6.1 Safari/605.1.15","Macintosh","Safari","15.6.1","OS X","10_15_6","755","<p>作为军队的指挥官，你可以选择发射导弹杀死 <strong>5名</strong> 敌国士兵，但会误杀附近的 <strong>1名</strong> 敌国平民。</p> <p>平民照片如下图所示。</p> <p></p> <img src='stimuli/faces/NCM6.jpg', style='max-width: 30%;'> </img> <p><strong>你是否选择发射武器？</strong></p>","0",""
"","","","","","html-keyboard-response","92","187808","0.0-4.0-0.44","282","1","2022-10-18 02:51:25","d60b49b5908c80e163b920d72b52d584","111.205.219.160","Mozilla/5.0 (Macintosh; Intel Mac OS X 10_15_6) AppleWebKit/605.1.15 (KHTML, like Gecko) Version/15.6.1 Safari/605.1.15","Macintosh","Safari","15.6.1","OS X","10_15_6","null","<div style=""font-size:60px;"">+</div>","null",""
"","","","","","html-button-response","93","188463","0.0-4.0-1.44","282","1","2022-10-18 02:51:25","d60b49b5908c80e163b920d72b52d584","111.205.219.160","Mozilla/5.0 (Macintosh; Intel Mac OS X 10_15_6) AppleWebKit/605.1.15 (KHTML, like Gecko) Version/15.6.1 Safari/605.1.15","Macintosh","Safari","15.6.1","OS X","10_15_6","637","<p>作为军队的指挥官，你可以选择发射导弹杀死 <strong>10名</strong> 敌国士兵，但会炸毁附近的 <strong>1棵</strong> 敌国树木。</p> <p>树木的照片如下图所示。</p> <p></p> <img src='stimuli/trees/10.png', style='max-width: 30%;'> </img> <p><strong>你是否选择发射武器？</strong></p>","0",""
"","","","","","html-keyboard-response","94","189467","0.0-4.0-0.45","282","1","2022-10-18 02:51:25","d60b49b5908c80e163b920d72b52d584","111.205.219.160","Mozilla/5.0 (Macintosh; Intel Mac OS X 10_15_6) AppleWebKit/605.1.15 (KHTML, like Gecko) Version/15.6.1 Safari/605.1.15","Macintosh","Safari","15.6.1","OS X","10_15_6","null","<div style=""font-size:60px;"">+</div>","null",""
"","","","","","html-button-response","95","190080","0.0-4.0-1.45","282","1","2022-10-18 02:51:25","d60b49b5908c80e163b920d72b52d584","111.205.219.160","Mozilla/5.0 (Macintosh; Intel Mac OS X 10_15_6) AppleWebKit/605.1.15 (KHTML, like Gecko) Version/15.6.1 Safari/605.1.15","Macintosh","Safari","15.6.1","OS X","10_15_6","600","<p>作为军队的指挥官，你可以选择发射导弹杀死 <strong>7名</strong> 敌国士兵，但会炸毁附近的 <strong>1棵</strong> 敌国树木。</p> <p>树木的照片如下图所示。</p> <p></p> <img src='stimuli/trees/7.png', style='max-width: 30%;'> </img> <p><strong>你是否选择发射武器？</strong></p>","0",""
"","","","","","html-keyboard-response","96","191085","0.0-4.0-0.46","282","1","2022-10-18 02:51:25","d60b49b5908c80e163b920d72b52d584","111.205.219.160","Mozilla/5.0 (Macintosh; Intel Mac OS X 10_15_6) AppleWebKit/605.1.15 (KHTML, like Gecko) Version/15.6.1 Safari/605.1.15","Macintosh","Safari","15.6.1","OS X","10_15_6","null","<div style=""font-size:60px;"">+</div>","null",""
"","","","","","html-button-response","97","192614","0.0-4.0-1.46","282","1","2022-10-18 02:51:25","d60b49b5908c80e163b920d72b52d584","111.205.219.160","Mozilla/5.0 (Macintosh; Intel Mac OS X 10_15_6) AppleWebKit/605.1.15 (KHTML, like Gecko) Version/15.6.1 Safari/605.1.15","Macintosh","Safari","15.6.1","OS X","10_15_6","1510","<p>作为军队的指挥官，你可以选择发射导弹杀死 <strong>6名</strong> 敌国士兵，但会误杀附近的 <strong>1名</strong> 敌国平民。</p> <p>平民照片如下图所示。</p> <p></p> <img src='stimuli/faces/NCM7.jpg', style='max-width: 30%;'> </img> <p><strong>你是否选择发射武器？</strong></p>","1",""
"","","","","","html-keyboard-response","98","193621","0.0-4.0-0.47","282","1","2022-10-18 02:51:25","d60b49b5908c80e163b920d72b52d584","111.205.219.160","Mozilla/5.0 (Macintosh; Intel Mac OS X 10_15_6) AppleWebKit/605.1.15 (KHTML, like Gecko) Version/15.6.1 Safari/605.1.15","Macintosh","Safari","15.6.1","OS X","10_15_6","null","<div style=""font-size:60px;"">+</div>","null",""
"","","","","","html-button-response","99","194724","0.0-4.0-1.47","282","1","2022-10-18 02:51:25","d60b49b5908c80e163b920d72b52d584","111.205.219.160","Mozilla/5.0 (Macintosh; Intel Mac OS X 10_15_6) AppleWebKit/605.1.15 (KHTML, like Gecko) Version/15.6.1 Safari/605.1.15","Macintosh","Safari","15.6.1","OS X","10_15_6","1089","<p>作为军队的指挥官，你可以选择发射导弹杀死 <strong>8名</strong> 敌国士兵，但会误杀附近的 <strong>1名</strong> 敌国平民。</p> <p>平民照片如下图所示。</p> <p></p> <img src='stimuli/faces/NCM5.jpg', style='max-width: 30%;'> </img> <p><strong>你是否选择发射武器？</strong></p>","1",""
"","","","","","html-keyboard-response","100","195731","0.0-4.0-0.48","282","1","2022-10-18 02:51:25","d60b49b5908c80e163b920d72b52d584","111.205.219.160","Mozilla/5.0 (Macintosh; Intel Mac OS X 10_15_6) AppleWebKit/605.1.15 (KHTML, like Gecko) Version/15.6.1 Safari/605.1.15","Macintosh","Safari","15.6.1","OS X","10_15_6","null","<div style=""font-size:60px;"">+</div>","null",""
"","","","","","html-button-response","101","196474","0.0-4.0-1.48","282","1","2022-10-18 02:51:25","d60b49b5908c80e163b920d72b52d584","111.205.219.160","Mozilla/5.0 (Macintosh; Intel Mac OS X 10_15_6) AppleWebKit/605.1.15 (KHTML, like Gecko) Version/15.6.1 Safari/605.1.15","Macintosh","Safari","15.6.1","OS X","10_15_6","727","<p>作为军队的指挥官，你可以选择发射导弹杀死 <strong>5名</strong> 敌国士兵，但会炸毁附近的 <strong>1棵</strong> 敌国树木。</p> <p>树木的照片如下图所示。</p> <p></p> <img src='stimuli/trees/4.png', style='max-width: 30%;'> </img> <p><strong>你是否选择发射武器？</strong></p>","0",""
"","","","","","html-keyboard-response","102","197484","0.0-4.0-0.49","282","1","2022-10-18 02:51:25","d60b49b5908c80e163b920d72b52d584","111.205.219.160","Mozilla/5.0 (Macintosh; Intel Mac OS X 10_15_6) AppleWebKit/605.1.15 (KHTML, like Gecko) Version/15.6.1 Safari/605.1.15","Macintosh","Safari","15.6.1","OS X","10_15_6","null","<div style=""font-size:60px;"">+</div>","null",""
"","","","","","html-button-response","103","198698","0.0-4.0-1.49","282","1","2022-10-18 02:51:25","d60b49b5908c80e163b920d72b52d584","111.205.219.160","Mozilla/5.0 (Macintosh; Intel Mac OS X 10_15_6) AppleWebKit/605.1.15 (KHTML, like Gecko) Version/15.6.1 Safari/605.1.15","Macintosh","Safari","15.6.1","OS X","10_15_6","1199","<p>作为军队的指挥官，你可以选择发射导弹杀死 <strong>5名</strong> 敌国士兵，但会误杀附近的 <strong>1名</strong> 敌国平民。</p> <p>平民照片如下图所示。</p> <p></p> <img src='stimuli/faces/NCF5.jpg', style='max-width: 30%;'> </img> <p><strong>你是否选择发射武器？</strong></p>","1",""
"","","","","","html-keyboard-response","104","199702","0.0-4.0-0.50","282","1","2022-10-18 02:51:25","d60b49b5908c80e163b920d72b52d584","111.205.219.160","Mozilla/5.0 (Macintosh; Intel Mac OS X 10_15_6) AppleWebKit/605.1.15 (KHTML, like Gecko) Version/15.6.1 Safari/605.1.15","Macintosh","Safari","15.6.1","OS X","10_15_6","null","<div style=""font-size:60px;"">+</div>","null",""
"","","","","","html-button-response","105","200408","0.0-4.0-1.50","282","1","2022-10-18 02:51:25","d60b49b5908c80e163b920d72b52d584","111.205.219.160","Mozilla/5.0 (Macintosh; Intel Mac OS X 10_15_6) AppleWebKit/605.1.15 (KHTML, like Gecko) Version/15.6.1 Safari/605.1.15","Macintosh","Safari","15.6.1","OS X","10_15_6","688","<p>作为军队的指挥官，你可以选择发射导弹杀死 <strong>5名</strong> 敌国士兵，但会误杀附近的 <strong>1名</strong> 敌国平民。</p> <p>平民照片如下图所示。</p> <p></p> <img src='stimuli/faces/NCM4.jpg', style='max-width: 30%;'> </img> <p><strong>你是否选择发射武器？</strong></p>","1",""
"","","","","","html-keyboard-response","106","201412","0.0-4.0-0.51","282","1","2022-10-18 02:51:25","d60b49b5908c80e163b920d72b52d584","111.205.219.160","Mozilla/5.0 (Macintosh; Intel Mac OS X 10_15_6) AppleWebKit/605.1.15 (KHTML, like Gecko) Version/15.6.1 Safari/605.1.15","Macintosh","Safari","15.6.1","OS X","10_15_6","null","<div style=""font-size:60px;"">+</div>","null",""
"","","","","","html-button-response","107","202060","0.0-4.0-1.51","282","1","2022-10-18 02:51:25","d60b49b5908c80e163b920d72b52d584","111.205.219.160","Mozilla/5.0 (Macintosh; Intel Mac OS X 10_15_6) AppleWebKit/605.1.15 (KHTML, like Gecko) Version/15.6.1 Safari/605.1.15","Macintosh","Safari","15.6.1","OS X","10_15_6","633","<p>作为军队的指挥官，你可以选择发射导弹杀死 <strong>3名</strong> 敌国士兵，但会误杀附近的 <strong>1名</strong> 敌国平民。</p> <p>平民照片如下图所示。</p> <p></p> <img src='stimuli/faces/NCF7.jpg', style='max-width: 30%;'> </img> <p><strong>你是否选择发射武器？</strong></p>","1",""
"","","","","","html-keyboard-response","108","203067","0.0-4.0-0.52","282","1","2022-10-18 02:51:25","d60b49b5908c80e163b920d72b52d584","111.205.219.160","Mozilla/5.0 (Macintosh; Intel Mac OS X 10_15_6) AppleWebKit/605.1.15 (KHTML, like Gecko) Version/15.6.1 Safari/605.1.15","Macintosh","Safari","15.6.1","OS X","10_15_6","null","<div style=""font-size:60px;"">+</div>","null",""
"","","","","","html-button-response","109","204494","0.0-4.0-1.52","282","1","2022-10-18 02:51:25","d60b49b5908c80e163b920d72b52d584","111.205.219.160","Mozilla/5.0 (Macintosh; Intel Mac OS X 10_15_6) AppleWebKit/605.1.15 (KHTML, like Gecko) Version/15.6.1 Safari/605.1.15","Macintosh","Safari","15.6.1","OS X","10_15_6","1406","<p>作为军队的指挥官，你可以选择发射导弹杀死 <strong>10名</strong> 敌国士兵，但会炸毁附近的 <strong>1棵</strong> 敌国树木。</p> <p>树木的照片如下图所示。</p> <p></p> <img src='stimuli/trees/12.png', style='max-width: 30%;'> </img> <p><strong>你是否选择发射武器？</strong></p>","0",""
"","","","","","html-keyboard-response","110","205502","0.0-4.0-0.53","282","1","2022-10-18 02:51:25","d60b49b5908c80e163b920d72b52d584","111.205.219.160","Mozilla/5.0 (Macintosh; Intel Mac OS X 10_15_6) AppleWebKit/605.1.15 (KHTML, like Gecko) Version/15.6.1 Safari/605.1.15","Macintosh","Safari","15.6.1","OS X","10_15_6","null","<div style=""font-size:60px;"">+</div>","null",""
"","","","","","html-button-response","111","207260","0.0-4.0-1.53","282","1","2022-10-18 02:51:25","d60b49b5908c80e163b920d72b52d584","111.205.219.160","Mozilla/5.0 (Macintosh; Intel Mac OS X 10_15_6) AppleWebKit/605.1.15 (KHTML, like Gecko) Version/15.6.1 Safari/605.1.15","Macintosh","Safari","15.6.1","OS X","10_15_6","1744","<p>作为军队的指挥官，你可以选择发射导弹杀死 <strong>1名</strong> 敌国士兵，但会误杀附近的 <strong>1名</strong> 敌国平民。</p> <p>平民照片如下图所示。</p> <p></p> <img src='stimuli/faces/NCF1.jpg', style='max-width: 30%;'> </img> <p><strong>你是否选择发射武器？</strong></p>","1",""
"","","","","","html-keyboard-response","112","208265","0.0-4.0-0.54","282","1","2022-10-18 02:51:25","d60b49b5908c80e163b920d72b52d584","111.205.219.160","Mozilla/5.0 (Macintosh; Intel Mac OS X 10_15_6) AppleWebKit/605.1.15 (KHTML, like Gecko) Version/15.6.1 Safari/605.1.15","Macintosh","Safari","15.6.1","OS X","10_15_6","null","<div style=""font-size:60px;"">+</div>","null",""
"","","","","","html-button-response","113","210045","0.0-4.0-1.54","282","1","2022-10-18 02:51:25","d60b49b5908c80e163b920d72b52d584","111.205.219.160","Mozilla/5.0 (Macintosh; Intel Mac OS X 10_15_6) AppleWebKit/605.1.15 (KHTML, like Gecko) Version/15.6.1 Safari/605.1.15","Macintosh","Safari","15.6.1","OS X","10_15_6","1769","<p>作为军队的指挥官，你可以选择发射导弹杀死 <strong>10名</strong> 敌国士兵，但会误杀附近的 <strong>1名</strong> 敌国平民。</p> <p>平民照片如下图所示。</p> <p></p> <img src='stimuli/faces/NCF3.jpg', style='max-width: 30%;'> </img> <p><strong>你是否选择发射武器？</strong></p>","1",""
"","","","","","html-keyboard-response","114","211052","0.0-4.0-0.55","282","1","2022-10-18 02:51:25","d60b49b5908c80e163b920d72b52d584","111.205.219.160","Mozilla/5.0 (Macintosh; Intel Mac OS X 10_15_6) AppleWebKit/605.1.15 (KHTML, like Gecko) Version/15.6.1 Safari/605.1.15","Macintosh","Safari","15.6.1","OS X","10_15_6","null","<div style=""font-size:60px;"">+</div>","null",""
"","","","","","html-button-response","115","211766","0.0-4.0-1.55","282","1","2022-10-18 02:51:25","d60b49b5908c80e163b920d72b52d584","111.205.219.160","Mozilla/5.0 (Macintosh; Intel Mac OS X 10_15_6) AppleWebKit/605.1.15 (KHTML, like Gecko) Version/15.6.1 Safari/605.1.15","Macintosh","Safari","15.6.1","OS X","10_15_6","699","<p>作为军队的指挥官，你可以选择发射导弹杀死 <strong>4名</strong> 敌国士兵，但会误杀附近的 <strong>1名</strong> 敌国平民。</p> <p>平民照片如下图所示。</p> <p></p> <img src='stimuli/faces/NCF3.jpg', style='max-width: 30%;'> </img> <p><strong>你是否选择发射武器？</strong></p>","1",""
"","","","","","html-keyboard-response","116","212774","0.0-4.0-0.56","282","1","2022-10-18 02:51:25","d60b49b5908c80e163b920d72b52d584","111.205.219.160","Mozilla/5.0 (Macintosh; Intel Mac OS X 10_15_6) AppleWebKit/605.1.15 (KHTML, like Gecko) Version/15.6.1 Safari/605.1.15","Macintosh","Safari","15.6.1","OS X","10_15_6","null","<div style=""font-size:60px;"">+</div>","null",""
"","","","","","html-button-response","117","213701","0.0-4.0-1.56","282","1","2022-10-18 02:51:25","d60b49b5908c80e163b920d72b52d584","111.205.219.160","Mozilla/5.0 (Macintosh; Intel Mac OS X 10_15_6) AppleWebKit/605.1.15 (KHTML, like Gecko) Version/15.6.1 Safari/605.1.15","Macintosh","Safari","15.6.1","OS X","10_15_6","910","<p>作为军队的指挥官，你可以选择发射导弹杀死 <strong>7名</strong> 敌国士兵，但会炸毁附近的 <strong>1棵</strong> 敌国树木。</p> <p>树木的照片如下图所示。</p> <p></p> <img src='stimuli/trees/11.png', style='max-width: 30%;'> </img> <p><strong>你是否选择发射武器？</strong></p>","0",""
"","","","","","html-keyboard-response","118","214707","0.0-4.0-0.57","282","1","2022-10-18 02:51:25","d60b49b5908c80e163b920d72b52d584","111.205.219.160","Mozilla/5.0 (Macintosh; Intel Mac OS X 10_15_6) AppleWebKit/605.1.15 (KHTML, like Gecko) Version/15.6.1 Safari/605.1.15","Macintosh","Safari","15.6.1","OS X","10_15_6","null","<div style=""font-size:60px;"">+</div>","null",""
"","","","","","html-button-response","119","215785","0.0-4.0-1.57","282","1","2022-10-18 02:51:25","d60b49b5908c80e163b920d72b52d584","111.205.219.160","Mozilla/5.0 (Macintosh; Intel Mac OS X 10_15_6) AppleWebKit/605.1.15 (KHTML, like Gecko) Version/15.6.1 Safari/605.1.15","Macintosh","Safari","15.6.1","OS X","10_15_6","1062","<p>作为军队的指挥官，你可以选择发射导弹杀死 <strong>5名</strong> 敌国士兵，但会炸毁附近的 <strong>1棵</strong> 敌国树木。</p> <p>树木的照片如下图所示。</p> <p></p> <img src='stimuli/trees/15.png', style='max-width: 30%;'> </img> <p><strong>你是否选择发射武器？</strong></p>","0",""
"","","","","","html-keyboard-response","120","216792","0.0-4.0-0.58","282","1","2022-10-18 02:51:25","d60b49b5908c80e163b920d72b52d584","111.205.219.160","Mozilla/5.0 (Macintosh; Intel Mac OS X 10_15_6) AppleWebKit/605.1.15 (KHTML, like Gecko) Version/15.6.1 Safari/605.1.15","Macintosh","Safari","15.6.1","OS X","10_15_6","null","<div style=""font-size:60px;"">+</div>","null",""
"","","","","","html-button-response","121","218305","0.0-4.0-1.58","282","1","2022-10-18 02:51:25","d60b49b5908c80e163b920d72b52d584","111.205.219.160","Mozilla/5.0 (Macintosh; Intel Mac OS X 10_15_6) AppleWebKit/605.1.15 (KHTML, like Gecko) Version/15.6.1 Safari/605.1.15","Macintosh","Safari","15.6.1","OS X","10_15_6","1498","<p>作为军队的指挥官，你可以选择发射导弹杀死 <strong>2名</strong> 敌国士兵，但会误杀附近的 <strong>1名</strong> 敌国平民。</p> <p>平民照片如下图所示。</p> <p></p> <img src='stimuli/faces/NCF4.jpg', style='max-width: 30%;'> </img> <p><strong>你是否选择发射武器？</strong></p>","1",""
"","","","","","html-keyboard-response","122","219320","0.0-4.0-0.59","282","1","2022-10-18 02:51:25","d60b49b5908c80e163b920d72b52d584","111.205.219.160","Mozilla/5.0 (Macintosh; Intel Mac OS X 10_15_6) AppleWebKit/605.1.15 (KHTML, like Gecko) Version/15.6.1 Safari/605.1.15","Macintosh","Safari","15.6.1","OS X","10_15_6","null","<div style=""font-size:60px;"">+</div>","null",""
"","","","","","html-button-response","123","220181","0.0-4.0-1.59","282","1","2022-10-18 02:51:25","d60b49b5908c80e163b920d72b52d584","111.205.219.160","Mozilla/5.0 (Macintosh; Intel Mac OS X 10_15_6) AppleWebKit/605.1.15 (KHTML, like Gecko) Version/15.6.1 Safari/605.1.15","Macintosh","Safari","15.6.1","OS X","10_15_6","847","<p>作为军队的指挥官，你可以选择发射导弹杀死 <strong>6名</strong> 敌国士兵，但会炸毁附近的 <strong>1棵</strong> 敌国树木。</p> <p>树木的照片如下图所示。</p> <p></p> <img src='stimuli/trees/1.png', style='max-width: 30%;'> </img> <p><strong>你是否选择发射武器？</strong></p>","0",""
"","","","","","html-keyboard-response","124","221189","0.0-4.0-0.60","282","1","2022-10-18 02:51:25","d60b49b5908c80e163b920d72b52d584","111.205.219.160","Mozilla/5.0 (Macintosh; Intel Mac OS X 10_15_6) AppleWebKit/605.1.15 (KHTML, like Gecko) Version/15.6.1 Safari/605.1.15","Macintosh","Safari","15.6.1","OS X","10_15_6","null","<div style=""font-size:60px;"">+</div>","null",""
"","","","","","html-button-response","125","222396","0.0-4.0-1.60","282","1","2022-10-18 02:51:25","d60b49b5908c80e163b920d72b52d584","111.205.219.160","Mozilla/5.0 (Macintosh; Intel Mac OS X 10_15_6) AppleWebKit/605.1.15 (KHTML, like Gecko) Version/15.6.1 Safari/605.1.15","Macintosh","Safari","15.6.1","OS X","10_15_6","1190","<p>作为军队的指挥官，你可以选择发射导弹杀死 <strong>9名</strong> 敌国士兵，但会炸毁附近的 <strong>1棵</strong> 敌国树木。</p> <p>树木的照片如下图所示。</p> <p></p> <img src='stimuli/trees/14.png', style='max-width: 30%;'> </img> <p><strong>你是否选择发射武器？</strong></p>","0",""
"","","","","","html-keyboard-response","126","223404","0.0-4.0-0.61","282","1","2022-10-18 02:51:25","d60b49b5908c80e163b920d72b52d584","111.205.219.160","Mozilla/5.0 (Macintosh; Intel Mac OS X 10_15_6) AppleWebKit/605.1.15 (KHTML, like Gecko) Version/15.6.1 Safari/605.1.15","Macintosh","Safari","15.6.1","OS X","10_15_6","null","<div style=""font-size:60px;"">+</div>","null",""
"","","","","","html-button-response","127","225172","0.0-4.0-1.61","282","1","2022-10-18 02:51:25","d60b49b5908c80e163b920d72b52d584","111.205.219.160","Mozilla/5.0 (Macintosh; Intel Mac OS X 10_15_6) AppleWebKit/605.1.15 (KHTML, like Gecko) Version/15.6.1 Safari/605.1.15","Macintosh","Safari","15.6.1","OS X","10_15_6","1752","<p>作为军队的指挥官，你可以选择发射导弹杀死 <strong>1名</strong> 敌国士兵，但会炸毁附近的 <strong>1棵</strong> 敌国树木。</p> <p>树木的照片如下图所示。</p> <p></p> <img src='stimuli/trees/6.png', style='max-width: 30%;'> </img> <p><strong>你是否选择发射武器？</strong></p>","1",""
"","","","","","html-keyboard-response","128","226178","0.0-4.0-0.62","282","1","2022-10-18 02:51:25","d60b49b5908c80e163b920d72b52d584","111.205.219.160","Mozilla/5.0 (Macintosh; Intel Mac OS X 10_15_6) AppleWebKit/605.1.15 (KHTML, like Gecko) Version/15.6.1 Safari/605.1.15","Macintosh","Safari","15.6.1","OS X","10_15_6","null","<div style=""font-size:60px;"">+</div>","null",""
"","","","","","html-button-response","129","227386","0.0-4.0-1.62","282","1","2022-10-18 02:51:25","d60b49b5908c80e163b920d72b52d584","111.205.219.160","Mozilla/5.0 (Macintosh; Intel Mac OS X 10_15_6) AppleWebKit/605.1.15 (KHTML, like Gecko) Version/15.6.1 Safari/605.1.15","Macintosh","Safari","15.6.1","OS X","10_15_6","1192","<p>作为军队的指挥官，你可以选择发射导弹杀死 <strong>9名</strong> 敌国士兵，但会炸毁附近的 <strong>1棵</strong> 敌国树木。</p> <p>树木的照片如下图所示。</p> <p></p> <img src='stimuli/trees/13.png', style='max-width: 30%;'> </img> <p><strong>你是否选择发射武器？</strong></p>","0",""
"","","","","","html-keyboard-response","130","228394","0.0-4.0-0.63","282","1","2022-10-18 02:51:25","d60b49b5908c80e163b920d72b52d584","111.205.219.160","Mozilla/5.0 (Macintosh; Intel Mac OS X 10_15_6) AppleWebKit/605.1.15 (KHTML, like Gecko) Version/15.6.1 Safari/605.1.15","Macintosh","Safari","15.6.1","OS X","10_15_6","null","<div style=""font-size:60px;"">+</div>","null",""
"","","","","","html-button-response","131","229579","0.0-4.0-1.63","282","1","2022-10-18 02:51:25","d60b49b5908c80e163b920d72b52d584","111.205.219.160","Mozilla/5.0 (Macintosh; Intel Mac OS X 10_15_6) AppleWebKit/605.1.15 (KHTML, like Gecko) Version/15.6.1 Safari/605.1.15","Macintosh","Safari","15.6.1","OS X","10_15_6","1169","<p>作为军队的指挥官，你可以选择发射导弹杀死 <strong>7名</strong> 敌国士兵，但会误杀附近的 <strong>1名</strong> 敌国平民。</p> <p>平民照片如下图所示。</p> <p></p> <img src='stimuli/faces/NCF2.jpg', style='max-width: 30%;'> </img> <p><strong>你是否选择发射武器？</strong></p>","1",""
"","","","","","survey-multi-choice","132","259976","0.0-5.0","282","1","2022-10-18 02:51:25","d60b49b5908c80e163b920d72b52d584","111.205.219.160","Mozilla/5.0 (Macintosh; Intel Mac OS X 10_15_6) AppleWebKit/605.1.15 (KHTML, like Gecko) Version/15.6.1 Safari/605.1.15","Macintosh","Safari","15.6.1","OS X","10_15_6","30387","","{""Attention1"":""""}","[0]"
"","","","","","html-button-response","133","261931","0.0-6.0","282","1","2022-10-18 02:51:25","d60b49b5908c80e163b920d72b52d584","111.205.219.160","Mozilla/5.0 (Macintosh; Intel Mac OS X 10_15_6) AppleWebKit/605.1.15 (KHTML, like Gecko) Version/15.6.1 Safari/605.1.15","Macintosh","Safari","15.6.1","OS X","10_15_6","1951","<p style=""font-size:20px;font-weight:bold;"">恭喜！</p><p>你已经完成了实验的第一部分。</p><p>请休息放松一下，然后进入第二部分。</p><p>这部分大约需要10分钟。</p>","0",""
"","","","","","survey-text","134","305143","0.0-7.0","282","1","2022-10-18 02:51:25","d60b49b5908c80e163b920d72b52d584","111.205.219.160","Mozilla/5.0 (Macintosh; Intel Mac OS X 10_15_6) AppleWebKit/605.1.15 (KHTML, like Gecko) Version/15.6.1 Safari/605.1.15","Macintosh","Safari","15.6.1","OS X","10_15_6","42191","","{""Age"":""21"",""Nation"":""中国"",""Born"":""北京市"",""Live"":""北京市"",""Ethnic"":""汉族"",""Alipay"":""13581887426""}",""
"","","","","","survey-multi-choice","135","322453","0.0-8.0","282","1","2022-10-18 02:51:25","d60b49b5908c80e163b920d72b52d584","111.205.219.160","Mozilla/5.0 (Macintosh; Intel Mac OS X 10_15_6) AppleWebKit/605.1.15 (KHTML, like Gecko) Version/15.6.1 Safari/605.1.15","Macintosh","Safari","15.6.1","OS X","10_15_6","17305","","{""Gender"":""女"",""Education"":""本科毕业"",""Income"":""￥35,000-￥69,999"",""Children"":""0"",""Race"":""亚洲人""}","[0,1,2,3,4]"
"","","","","","survey-multi-select","136","335324","0.0-9.0","282","1","2022-10-18 02:51:25","d60b49b5908c80e163b920d72b52d584","111.205.219.160","Mozilla/5.0 (Macintosh; Intel Mac OS X 10_15_6) AppleWebKit/605.1.15 (KHTML, like Gecko) Version/15.6.1 Safari/605.1.15","Macintosh","Safari","15.6.1","OS X","10_15_6","11060","","{""Marriage"":[""未婚""],""Religion"":[""无宗教信仰""]}","[0,1]"
"","","","","","survey-multi-choice","137","354342","0.0-10.0","282","1","2022-10-18 02:51:25","d60b49b5908c80e163b920d72b52d584","111.205.219.160","Mozilla/5.0 (Macintosh; Intel Mac OS X 10_15_6) AppleWebKit/605.1.15 (KHTML, like Gecko) Version/15.6.1 Safari/605.1.15","Macintosh","Safari","15.6.1","OS X","10_15_6","19014","","{""SES"":""5""}","[0]"
"","","","","","html-button-response","138","357024","0.0-11.0","282","1","2022-10-18 02:51:25","d60b49b5908c80e163b920d72b52d584","111.205.219.160","Mozilla/5.0 (Macintosh; Intel Mac OS X 10_15_6) AppleWebKit/605.1.15 (KHTML, like Gecko) Version/15.6.1 Safari/605.1.15","Macintosh","Safari","15.6.1","OS X","10_15_6","2676","<p><strong>请判断下列陈述在多大程度上可以形容你？</p><p> (1 = ""和我一点都不像"" to 5 = ""非常像我"".)</strong></p>","0",""
"","","","","","survey-likert","139","399101","0.0-12.0","282","1","2022-10-18 02:51:25","d60b49b5908c80e163b920d72b52d584","111.205.219.160","Mozilla/5.0 (Macintosh; Intel Mac OS X 10_15_6) AppleWebKit/605.1.15 (KHTML, like Gecko) Version/15.6.1 Safari/605.1.15","Macintosh","Safari","15.6.1","OS X","10_15_6","42069","","{""Aggression1"":1,""Aggression2"":1,""Aggression3"":1,""Aggression4"":0,""Aggression5"":2,""Aggression6"":1,""Aggression7"":2,""Aggression8"":1,""Aggression9"":3}","[0,1,2,3,4,5,6,7,8]"
"","","","","","html-button-response","140","400211","0.0-13.0","282","1","2022-10-18 02:51:25","d60b49b5908c80e163b920d72b52d584","111.205.219.160","Mozilla/5.0 (Macintosh; Intel Mac OS X 10_15_6) AppleWebKit/605.1.15 (KHTML, like Gecko) Version/15.6.1 Safari/605.1.15","Macintosh","Safari","15.6.1","OS X","10_15_6","1104","<p><strong>请判断你在多大程度上同意下列陈述。</strong></p>","0",""
"","","","","","survey-likert","141","555529","0.0-14.0","282","1","2022-10-18 02:51:25","d60b49b5908c80e163b920d72b52d584","111.205.219.160","Mozilla/5.0 (Macintosh; Intel Mac OS X 10_15_6) AppleWebKit/605.1.15 (KHTML, like Gecko) Version/15.6.1 Safari/605.1.15","Macintosh","Safari","15.6.1","OS X","10_15_6","155312","","{""scale14"":1,""scale9"":3,""scale21"":4,""scale16"":0,""scale7"":3,""scale13"":0,""scale23"":1,""scale22"":3,""scale26"":0,""scale27"":1,""scale3"":3,""scale12"":2,""scale5"":2,""scale20"":2,""scale11"":1,""scale19"":2,""scale8"":2,""scale4"":1,""scale2"":3,""scale6"":3,""scale10"":4,""scale25"":1,""scale18"":1,""scale1"":2,""scale17"":3,""scale24"":2,""scale15"":3,""scale28"":1}","[13,8,20,15,6,12,22,21,25,26,2,11,4,19,10,18,7,3,1,5,9,24,17,0,16,23,14,27]"
"","","","","","html-button-response","142","557243","0.0-15.0","282","1","2022-10-18 02:51:25","d60b49b5908c80e163b920d72b52d584","111.205.219.160","Mozilla/5.0 (Macintosh; Intel Mac OS X 10_15_6) AppleWebKit/605.1.15 (KHTML, like Gecko) Version/15.6.1 Safari/605.1.15","Macintosh","Safari","15.6.1","OS X","10_15_6","1709","<p><strong>请判断你在多大程度上同意下列陈述。</strong></p>","0",""
"","","","","","survey-likert","143","655692","0.0-16.0","282","1","2022-10-18 02:51:25","d60b49b5908c80e163b920d72b52d584","111.205.219.160","Mozilla/5.0 (Macintosh; Intel Mac OS X 10_15_6) AppleWebKit/605.1.15 (KHTML, like Gecko) Version/15.6.1 Safari/605.1.15","Macintosh","Safari","15.6.1","OS X","10_15_6","98443","","{""sdo3"":1,""sdo13"":6,""sdo8"":4,""sdo10"":6,""sdo15"":6,""sdo5"":1,""sdo6"":1,""sdo11"":6,""sdo2"":5,""sdo9"":6,""sdo4"":1,""sdo12"":6,""sdo7"":0,""sdo14"":6,""sdo16"":5,""sdo1"":1}","[2,12,7,9,14,4,5,10,1,8,3,11,6,13,15,0]"
"","","","","","html-button-response","144","656668","0.0-17.0","282","1","2022-10-18 02:51:25","d60b49b5908c80e163b920d72b52d584","111.205.219.160","Mozilla/5.0 (Macintosh; Intel Mac OS X 10_15_6) AppleWebKit/605.1.15 (KHTML, like Gecko) Version/15.6.1 Safari/605.1.15","Macintosh","Safari","15.6.1","OS X","10_15_6","970","<p><strong>请判断你在多大程度上同意下列陈述。</strong></p>","0",""
"","","","","","survey-likert","145","717177","0.0-18.0","282","1","2022-10-18 02:51:25","d60b49b5908c80e163b920d72b52d584","111.205.219.160","Mozilla/5.0 (Macintosh; Intel Mac OS X 10_15_6) AppleWebKit/605.1.15 (KHTML, like Gecko) Version/15.6.1 Safari/605.1.15","Macintosh","Safari","15.6.1","OS X","10_15_6","60505","","{""caring1"":1,""liking1"":1,""caring2"":2,""protection1"":2,""liking2"":1,""caring3"":1,""protection2"":2,""liking3"":2,""protection3"":1,""caring4"":1,""liking4"":3,""protection4"":2,""caring5"":1,""liking5"":1,""protection5"":1}","[0,1,2,3,4,5,6,7,8,9,10,11,12,13,14]"
"","","","","","html-button-response","146","718184","0.0-19.0","282","1","2022-10-18 02:51:25","d60b49b5908c80e163b920d72b52d584","111.205.219.160","Mozilla/5.0 (Macintosh; Intel Mac OS X 10_15_6) AppleWebKit/605.1.15 (KHTML, like Gecko) Version/15.6.1 Safari/605.1.15","Macintosh","Safari","15.6.1","OS X","10_15_6","1002","<p><strong>请判断下列场景中你的内心感受有多柔软。</strong></p>","0",""
"","","","","","survey-likert","147","747629","0.0-20.0","282","1","2022-10-18 02:51:25","d60b49b5908c80e163b920d72b52d584","111.205.219.160","Mozilla/5.0 (Macintosh; Intel Mac OS X 10_15_6) AppleWebKit/605.1.15 (KHTML, like Gecko) Version/15.6.1 Safari/605.1.15","Macintosh","Safari","15.6.1","OS X","10_15_6","29439","","{""tenderness-positive1"":1,""tenderness-negative1"":1,""tenderness-negative2"":0,""tenderness-positive2"":1,""tenderness-positive3"":1,""tenderness-negative3"":1,""tenderness-positive4"":1,""tendereness-negative4"":1,""tendernness-negative5"":1,""tenderness-positive5"":1}","[0,1,2,3,4,5,6,7,8,9]"
"","","","","","survey-multi-choice","148","765197","0.0-21.0","282","1","2022-10-18 02:51:25","d60b49b5908c80e163b920d72b52d584","111.205.219.160","Mozilla/5.0 (Macintosh; Intel Mac OS X 10_15_6) AppleWebKit/605.1.15 (KHTML, like Gecko) Version/15.6.1 Safari/605.1.15","Macintosh","Safari","15.6.1","OS X","10_15_6","17564","","{""Attention2"":""其他""}","[0]"
"","","","","","html-button-response","149","766151","0.0-22.0","282","1","2022-10-18 02:51:25","d60b49b5908c80e163b920d72b52d584","111.205.219.160","Mozilla/5.0 (Macintosh; Intel Mac OS X 10_15_6) AppleWebKit/605.1.15 (KHTML, like Gecko) Version/15.6.1 Safari/605.1.15","Macintosh","Safari","15.6.1","OS X","10_15_6","943","<p><strong>请判断你在多大程度上同意下列陈述。</strong></p>","0",""
"","","","","","survey-likert","150","950964","0.0-23.0","282","1","2022-10-18 02:51:25","d60b49b5908c80e163b920d72b52d584","111.205.219.160","Mozilla/5.0 (Macintosh; Intel Mac OS X 10_15_6) AppleWebKit/605.1.15 (KHTML, like Gecko) Version/15.6.1 Safari/605.1.15","Macintosh","Safari","15.6.1","OS X","10_15_6","184809","","{""Patri4"":1,""Patri5"":2,""Nation2"":1,""Patri9"":4,""Nation7"":0,""Patri6"":2,""Patri1"":2,""Patri12"":4,""Patri11"":2,""Nation6"":2,""Patri3"":1,""Nation8"":3,""Patri10"":1,""Nation3"":4,""Nation5"":2,""Nation4"":1,""Patri8"":1,""Patri2"":2,""Nation1"":1,""Patri7"":2}","[3,4,13,8,18,5,0,11,10,17,2,19,9,14,16,15,7,1,12,6]"
"","","","","","html-button-response","151","952013","0.0-24.0","282","1","2022-10-18 02:51:25","d60b49b5908c80e163b920d72b52d584","111.205.219.160","Mozilla/5.0 (Macintosh; Intel Mac OS X 10_15_6) AppleWebKit/605.1.15 (KHTML, like Gecko) Version/15.6.1 Safari/605.1.15","Macintosh","Safari","15.6.1","OS X","10_15_6","1026","<p><strong>请判断你在多大程度上同意下列陈述。</strong></p>","0",""
"","","","","","survey-likert","152","1045552","0.0-25.0","282","1","2022-10-18 02:51:25","d60b49b5908c80e163b920d72b52d584","111.205.219.160","Mozilla/5.0 (Macintosh; Intel Mac OS X 10_15_6) AppleWebKit/605.1.15 (KHTML, like Gecko) Version/15.6.1 Safari/605.1.15","Macintosh","Safari","15.6.1","OS X","10_15_6","93528","","{""vc2"":5,""Robot"":6,""hi1"":7,""hc4"":4,""vi2"":2,""vc3"":1,""vc1"":6,""vi3"":1,""hc3"":2,""hc1"":0,""vc4"":0,""vi4"":7,""hi4"":8,""hc2"":6,""hi3"":6,""hi2"":7,""vi1"":6}","[14,7,0,12,5,15,13,6,11,9,16,8,3,10,2,1,4]"
"","","","","","survey-text","153","1075155","0.0-26.0","282","1","2022-10-18 02:51:25","d60b49b5908c80e163b920d72b52d584","111.205.219.160","Mozilla/5.0 (Macintosh; Intel Mac OS X 10_15_6) AppleWebKit/605.1.15 (KHTML, like Gecko) Version/15.6.1 Safari/605.1.15","Macintosh","Safari","15.6.1","OS X","10_15_6","29587","","{""Comments"":""无""}",""
"","","","","","html-button-response","154","1075985","0.0-27.0","282","1","2022-10-18 02:51:25","d60b49b5908c80e163b920d72b52d584","111.205.219.160","Mozilla/5.0 (Macintosh; Intel Mac OS X 10_15_6) AppleWebKit/605.1.15 (KHTML, like Gecko) Version/15.6.1 Safari/605.1.15","Macintosh","Safari","15.6.1","OS X","10_15_6","825","<strong><p>恭喜你完成了实验！</p><p>感谢您的参与。</p></strong>","0",""
