"success","timeout","failed_images","failed_audio","failed_video","trial_type","trial_index","time_elapsed","internal_node_id","run_id","condition","recorded_at","source_code_version","ip","user_agent","device","browser","browser_version","platform","platform_version","rt","stimulus","response","question_order"
"true","false","[]","[]","[]","preload","0","3244","0.0-0.0","30","1","2022-10-07 05:59:14","d60b49b5908c80e163b920d72b52d584","220.200.126.47","Mozilla/5.0 (Linux; Android 10; HarmonyOS; MXW-AN00; HMSCore 6.7.0.322) AppleWebKit/537.36 (KHTML, like Gecko) Chrome/92.0.4515.105 HuaweiBrowser/12.1.3.311 Mobile Safari/537.36","WebKit","Chrome","92.0.4515.105","AndroidOS","10","","","",""
"true","","","","","fullscreen","1","7595","0.0-1.0","30","1","2022-10-07 05:59:14","d60b49b5908c80e163b920d72b52d584","220.200.126.47","Mozilla/5.0 (Linux; Android 10; HarmonyOS; MXW-AN00; HMSCore 6.7.0.322) AppleWebKit/537.36 (KHTML, like Gecko) Chrome/92.0.4515.105 HuaweiBrowser/12.1.3.311 Mobile Safari/537.36","WebKit","Chrome","92.0.4515.105","AndroidOS","10","","","",""
"","","","","","html-button-response","2","40364","0.0-2.0","30","1","2022-10-07 05:59:14","d60b49b5908c80e163b920d72b52d584","220.200.126.47","Mozilla/5.0 (Linux; Android 10; HarmonyOS; MXW-AN00; HMSCore 6.7.0.322) AppleWebKit/537.36 (KHTML, like Gecko) Chrome/92.0.4515.105 HuaweiBrowser/12.1.3.311 Mobile Safari/537.36","WebKit","Chrome","92.0.4515.105","AndroidOS","10","32763","<p style=""font-size:20px;font-weight:bold;"">实验知情同意书</p><p style=""text-align:left;""><strong>实验名称：</strong>社会冲突研究</p><p style=""text-align:left;""><strong>主要研究者：</strong>韩晓春副教授（北京师范大学心理学部）</p><p style=""text-align:left;""><strong>联系方式：</strong>发送邮件至xiaochun.han@bnu.edu.cn</p><p style=""text-align:left;""><strong>研究目的：</strong>研究旨在了解人类面对群体冲突时的决策方式，以及相关的心理学特质。实验调查大约需要20分钟。</p><p style=""text-align:left;""><strong>实验流程：</strong>实验包含两部分。第一部分呈现一系列群体冲突场景，请你决定如何对这些冲突进行反应，大约需要10分钟完成。第二部分包含一系列人口统计学信息收集和心理学问卷，大约需要10分钟完成。</p><p style=""text-align:left;""><strong>参加及退出规则：</strong>参加本实验完全取决于您的个人意愿。在参与过程中，您可以随时退出，并且不用承担任何后果。</p><p style=""text-align:left;""><strong>隐私：</strong>本实验完全匿名进行，不会收集您的姓名或其他能够识别您身份的信息。实验中收集的作答仅用作科学研究使用，可能会在学术期刊/书籍上发表，或者用于教学，您的数据未来可能会和其他研究者或实验室分享，但您的个人身份不会被识别。</p><p style=""text-align:left;""><strong>实验报酬：</strong>实验完成后，您将获得15元人民币报酬，以感谢您的时间和努力。调查问卷中包含几道题目用以测验您作答时的认真度。只有完成全部实验，并且正确回答认真度测验的被试才能获得实验报酬。实验报酬将通过支付宝转账发放。</p><p style=""text-align:left;font-size:20px;""><strong>如果您同意以上实验知情同意书的内容，请点击'同意并且开始实验'按钮；否则请关闭浏览器界面，退出实验。</strong></p>","0",""
"","","","","","html-button-response","3","80882","0.0-3.0","30","1","2022-10-07 05:59:14","d60b49b5908c80e163b920d72b52d584","220.200.126.47","Mozilla/5.0 (Linux; Android 10; HarmonyOS; MXW-AN00; HMSCore 6.7.0.322) AppleWebKit/537.36 (KHTML, like Gecko) Chrome/92.0.4515.105 HuaweiBrowser/12.1.3.311 Mobile Safari/537.36","WebKit","Chrome","92.0.4515.105","AndroidOS","10","40513","<p ><strong>实验任务一：</strong></p><p>请想象你的国家与另一个国家发生了军事冲突。</p><p>你是国家军队的指挥官，你将如何在冲突中进行决策。</p><p>具体来说，作为军队指挥官，请你决定是否发射导弹进行打击。</p><p>接下来，你会面对一系列场景，请仔细阅读每个场景，然后进行决策。</p><p>这部分实验任务大约需要10分钟。</p><p><strong>实验过程中，请集中注意力。</strong></p>","0",""
"","","","","","html-keyboard-response","4","81888","0.0-4.0-0.0","30","1","2022-10-07 05:59:14","d60b49b5908c80e163b920d72b52d584","220.200.126.47","Mozilla/5.0 (Linux; Android 10; HarmonyOS; MXW-AN00; HMSCore 6.7.0.322) AppleWebKit/537.36 (KHTML, like Gecko) Chrome/92.0.4515.105 HuaweiBrowser/12.1.3.311 Mobile Safari/537.36","WebKit","Chrome","92.0.4515.105","AndroidOS","10","null","<div style=""font-size:60px;"">+</div>","null",""
"","","","","","html-button-response","5","109448","0.0-4.0-1.0","30","1","2022-10-07 05:59:14","d60b49b5908c80e163b920d72b52d584","220.200.126.47","Mozilla/5.0 (Linux; Android 10; HarmonyOS; MXW-AN00; HMSCore 6.7.0.322) AppleWebKit/537.36 (KHTML, like Gecko) Chrome/92.0.4515.105 HuaweiBrowser/12.1.3.311 Mobile Safari/537.36","WebKit","Chrome","92.0.4515.105","AndroidOS","10","27546","<p>作为军队的指挥官，你可以选择发射导弹杀死 <strong>8名</strong> 敌国士兵，但会炸毁附近的 <strong>1棵</strong> 敌国树木。</p> <p>树木的照片如下图所示。</p> <p></p> <img src='stimuli/trees/9.png', style='max-width: 30%;'> </img> <p><strong>你是否选择发射武器？</strong></p>","0",""
"","","","","","html-keyboard-response","6","110453","0.0-4.0-0.1","30","1","2022-10-07 05:59:14","d60b49b5908c80e163b920d72b52d584","220.200.126.47","Mozilla/5.0 (Linux; Android 10; HarmonyOS; MXW-AN00; HMSCore 6.7.0.322) AppleWebKit/537.36 (KHTML, like Gecko) Chrome/92.0.4515.105 HuaweiBrowser/12.1.3.311 Mobile Safari/537.36","WebKit","Chrome","92.0.4515.105","AndroidOS","10","null","<div style=""font-size:60px;"">+</div>","null",""
"","","","","","html-button-response","7","122443","0.0-4.0-1.1","30","1","2022-10-07 05:59:14","d60b49b5908c80e163b920d72b52d584","220.200.126.47","Mozilla/5.0 (Linux; Android 10; HarmonyOS; MXW-AN00; HMSCore 6.7.0.322) AppleWebKit/537.36 (KHTML, like Gecko) Chrome/92.0.4515.105 HuaweiBrowser/12.1.3.311 Mobile Safari/537.36","WebKit","Chrome","92.0.4515.105","AndroidOS","10","11974","<p>作为军队的指挥官，你可以选择发射导弹杀死 <strong>8名</strong> 敌国士兵，但会误杀附近的 <strong>1名</strong> 敌国平民。</p> <p>平民照片如下图所示。</p> <p></p> <img src='stimuli/faces/NCF5.jpg', style='max-width: 30%;'> </img> <p><strong>你是否选择发射武器？</strong></p>","0",""
"","","","","","html-keyboard-response","8","123446","0.0-4.0-0.2","30","1","2022-10-07 05:59:14","d60b49b5908c80e163b920d72b52d584","220.200.126.47","Mozilla/5.0 (Linux; Android 10; HarmonyOS; MXW-AN00; HMSCore 6.7.0.322) AppleWebKit/537.36 (KHTML, like Gecko) Chrome/92.0.4515.105 HuaweiBrowser/12.1.3.311 Mobile Safari/537.36","WebKit","Chrome","92.0.4515.105","AndroidOS","10","null","<div style=""font-size:60px;"">+</div>","null",""
"","","","","","html-button-response","9","129331","0.0-4.0-1.2","30","1","2022-10-07 05:59:14","d60b49b5908c80e163b920d72b52d584","220.200.126.47","Mozilla/5.0 (Linux; Android 10; HarmonyOS; MXW-AN00; HMSCore 6.7.0.322) AppleWebKit/537.36 (KHTML, like Gecko) Chrome/92.0.4515.105 HuaweiBrowser/12.1.3.311 Mobile Safari/537.36","WebKit","Chrome","92.0.4515.105","AndroidOS","10","5873","<p>作为军队的指挥官，你可以选择发射导弹杀死 <strong>6名</strong> 敌国士兵，但会误杀附近的 <strong>1名</strong> 敌国平民。</p> <p>平民照片如下图所示。</p> <p></p> <img src='stimuli/faces/NCM1.jpg', style='max-width: 30%;'> </img> <p><strong>你是否选择发射武器？</strong></p>","0",""
"","","","","","html-keyboard-response","10","130334","0.0-4.0-0.3","30","1","2022-10-07 05:59:14","d60b49b5908c80e163b920d72b52d584","220.200.126.47","Mozilla/5.0 (Linux; Android 10; HarmonyOS; MXW-AN00; HMSCore 6.7.0.322) AppleWebKit/537.36 (KHTML, like Gecko) Chrome/92.0.4515.105 HuaweiBrowser/12.1.3.311 Mobile Safari/537.36","WebKit","Chrome","92.0.4515.105","AndroidOS","10","null","<div style=""font-size:60px;"">+</div>","null",""
"","","","","","html-button-response","11","135589","0.0-4.0-1.3","30","1","2022-10-07 05:59:14","d60b49b5908c80e163b920d72b52d584","220.200.126.47","Mozilla/5.0 (Linux; Android 10; HarmonyOS; MXW-AN00; HMSCore 6.7.0.322) AppleWebKit/537.36 (KHTML, like Gecko) Chrome/92.0.4515.105 HuaweiBrowser/12.1.3.311 Mobile Safari/537.36","WebKit","Chrome","92.0.4515.105","AndroidOS","10","5248","<p>作为军队的指挥官，你可以选择发射导弹杀死 <strong>8名</strong> 敌国士兵，但会误杀附近的 <strong>1名</strong> 敌国平民。</p> <p>平民照片如下图所示。</p> <p></p> <img src='stimuli/faces/NCM2.jpg', style='max-width: 30%;'> </img> <p><strong>你是否选择发射武器？</strong></p>","0",""
"","","","","","html-keyboard-response","12","136595","0.0-4.0-0.4","30","1","2022-10-07 05:59:14","d60b49b5908c80e163b920d72b52d584","220.200.126.47","Mozilla/5.0 (Linux; Android 10; HarmonyOS; MXW-AN00; HMSCore 6.7.0.322) AppleWebKit/537.36 (KHTML, like Gecko) Chrome/92.0.4515.105 HuaweiBrowser/12.1.3.311 Mobile Safari/537.36","WebKit","Chrome","92.0.4515.105","AndroidOS","10","null","<div style=""font-size:60px;"">+</div>","null",""
"","","","","","html-button-response","13","140685","0.0-4.0-1.4","30","1","2022-10-07 05:59:14","d60b49b5908c80e163b920d72b52d584","220.200.126.47","Mozilla/5.0 (Linux; Android 10; HarmonyOS; MXW-AN00; HMSCore 6.7.0.322) AppleWebKit/537.36 (KHTML, like Gecko) Chrome/92.0.4515.105 HuaweiBrowser/12.1.3.311 Mobile Safari/537.36","WebKit","Chrome","92.0.4515.105","AndroidOS","10","4074","<p>作为军队的指挥官，你可以选择发射导弹杀死 <strong>4名</strong> 敌国士兵，但会炸毁附近的 <strong>1棵</strong> 敌国树木。</p> <p>树木的照片如下图所示。</p> <p></p> <img src='stimuli/trees/10.png', style='max-width: 30%;'> </img> <p><strong>你是否选择发射武器？</strong></p>","0",""
"","","","","","html-keyboard-response","14","141691","0.0-4.0-0.5","30","1","2022-10-07 05:59:14","d60b49b5908c80e163b920d72b52d584","220.200.126.47","Mozilla/5.0 (Linux; Android 10; HarmonyOS; MXW-AN00; HMSCore 6.7.0.322) AppleWebKit/537.36 (KHTML, like Gecko) Chrome/92.0.4515.105 HuaweiBrowser/12.1.3.311 Mobile Safari/537.36","WebKit","Chrome","92.0.4515.105","AndroidOS","10","null","<div style=""font-size:60px;"">+</div>","null",""
"","","","","","html-button-response","15","144206","0.0-4.0-1.5","30","1","2022-10-07 05:59:14","d60b49b5908c80e163b920d72b52d584","220.200.126.47","Mozilla/5.0 (Linux; Android 10; HarmonyOS; MXW-AN00; HMSCore 6.7.0.322) AppleWebKit/537.36 (KHTML, like Gecko) Chrome/92.0.4515.105 HuaweiBrowser/12.1.3.311 Mobile Safari/537.36","WebKit","Chrome","92.0.4515.105","AndroidOS","10","2506","<p>作为军队的指挥官，你可以选择发射导弹杀死 <strong>7名</strong> 敌国士兵，但会炸毁附近的 <strong>1棵</strong> 敌国树木。</p> <p>树木的照片如下图所示。</p> <p></p> <img src='stimuli/trees/6.png', style='max-width: 30%;'> </img> <p><strong>你是否选择发射武器？</strong></p>","0",""
"","","","","","html-keyboard-response","16","145224","0.0-4.0-0.6","30","1","2022-10-07 05:59:14","d60b49b5908c80e163b920d72b52d584","220.200.126.47","Mozilla/5.0 (Linux; Android 10; HarmonyOS; MXW-AN00; HMSCore 6.7.0.322) AppleWebKit/537.36 (KHTML, like Gecko) Chrome/92.0.4515.105 HuaweiBrowser/12.1.3.311 Mobile Safari/537.36","WebKit","Chrome","92.0.4515.105","AndroidOS","10","null","<div style=""font-size:60px;"">+</div>","null",""
"","","","","","html-button-response","17","147102","0.0-4.0-1.6","30","1","2022-10-07 05:59:14","d60b49b5908c80e163b920d72b52d584","220.200.126.47","Mozilla/5.0 (Linux; Android 10; HarmonyOS; MXW-AN00; HMSCore 6.7.0.322) AppleWebKit/537.36 (KHTML, like Gecko) Chrome/92.0.4515.105 HuaweiBrowser/12.1.3.311 Mobile Safari/537.36","WebKit","Chrome","92.0.4515.105","AndroidOS","10","1865","<p>作为军队的指挥官，你可以选择发射导弹杀死 <strong>5名</strong> 敌国士兵，但会炸毁附近的 <strong>1棵</strong> 敌国树木。</p> <p>树木的照片如下图所示。</p> <p></p> <img src='stimuli/trees/14.png', style='max-width: 30%;'> </img> <p><strong>你是否选择发射武器？</strong></p>","0",""
"","","","","","html-keyboard-response","18","148105","0.0-4.0-0.7","30","1","2022-10-07 05:59:14","d60b49b5908c80e163b920d72b52d584","220.200.126.47","Mozilla/5.0 (Linux; Android 10; HarmonyOS; MXW-AN00; HMSCore 6.7.0.322) AppleWebKit/537.36 (KHTML, like Gecko) Chrome/92.0.4515.105 HuaweiBrowser/12.1.3.311 Mobile Safari/537.36","WebKit","Chrome","92.0.4515.105","AndroidOS","10","null","<div style=""font-size:60px;"">+</div>","null",""
"","","","","","html-button-response","19","151169","0.0-4.0-1.7","30","1","2022-10-07 05:59:14","d60b49b5908c80e163b920d72b52d584","220.200.126.47","Mozilla/5.0 (Linux; Android 10; HarmonyOS; MXW-AN00; HMSCore 6.7.0.322) AppleWebKit/537.36 (KHTML, like Gecko) Chrome/92.0.4515.105 HuaweiBrowser/12.1.3.311 Mobile Safari/537.36","WebKit","Chrome","92.0.4515.105","AndroidOS","10","3058","<p>作为军队的指挥官，你可以选择发射导弹杀死 <strong>10名</strong> 敌国士兵，但会误杀附近的 <strong>1名</strong> 敌国平民。</p> <p>平民照片如下图所示。</p> <p></p> <img src='stimuli/faces/NCM3.jpg', style='max-width: 30%;'> </img> <p><strong>你是否选择发射武器？</strong></p>","0",""
"","","","","","html-keyboard-response","20","152176","0.0-4.0-0.8","30","1","2022-10-07 05:59:14","d60b49b5908c80e163b920d72b52d584","220.200.126.47","Mozilla/5.0 (Linux; Android 10; HarmonyOS; MXW-AN00; HMSCore 6.7.0.322) AppleWebKit/537.36 (KHTML, like Gecko) Chrome/92.0.4515.105 HuaweiBrowser/12.1.3.311 Mobile Safari/537.36","WebKit","Chrome","92.0.4515.105","AndroidOS","10","null","<div style=""font-size:60px;"">+</div>","null",""
"","","","","","html-button-response","21","154109","0.0-4.0-1.8","30","1","2022-10-07 05:59:14","d60b49b5908c80e163b920d72b52d584","220.200.126.47","Mozilla/5.0 (Linux; Android 10; HarmonyOS; MXW-AN00; HMSCore 6.7.0.322) AppleWebKit/537.36 (KHTML, like Gecko) Chrome/92.0.4515.105 HuaweiBrowser/12.1.3.311 Mobile Safari/537.36","WebKit","Chrome","92.0.4515.105","AndroidOS","10","1924","<p>作为军队的指挥官，你可以选择发射导弹杀死 <strong>9名</strong> 敌国士兵，但会炸毁附近的 <strong>1棵</strong> 敌国树木。</p> <p>树木的照片如下图所示。</p> <p></p> <img src='stimuli/trees/12.png', style='max-width: 30%;'> </img> <p><strong>你是否选择发射武器？</strong></p>","0",""
"","","","","","html-keyboard-response","22","155115","0.0-4.0-0.9","30","1","2022-10-07 05:59:14","d60b49b5908c80e163b920d72b52d584","220.200.126.47","Mozilla/5.0 (Linux; Android 10; HarmonyOS; MXW-AN00; HMSCore 6.7.0.322) AppleWebKit/537.36 (KHTML, like Gecko) Chrome/92.0.4515.105 HuaweiBrowser/12.1.3.311 Mobile Safari/537.36","WebKit","Chrome","92.0.4515.105","AndroidOS","10","null","<div style=""font-size:60px;"">+</div>","null",""
"","","","","","html-button-response","23","158552","0.0-4.0-1.9","30","1","2022-10-07 05:59:14","d60b49b5908c80e163b920d72b52d584","220.200.126.47","Mozilla/5.0 (Linux; Android 10; HarmonyOS; MXW-AN00; HMSCore 6.7.0.322) AppleWebKit/537.36 (KHTML, like Gecko) Chrome/92.0.4515.105 HuaweiBrowser/12.1.3.311 Mobile Safari/537.36","WebKit","Chrome","92.0.4515.105","AndroidOS","10","3427","<p>作为军队的指挥官，你可以选择发射导弹杀死 <strong>5名</strong> 敌国士兵，但会炸毁附近的 <strong>1棵</strong> 敌国树木。</p> <p>树木的照片如下图所示。</p> <p></p> <img src='stimuli/trees/2.png', style='max-width: 30%;'> </img> <p><strong>你是否选择发射武器？</strong></p>","0",""
"","","","","","html-keyboard-response","24","159559","0.0-4.0-0.10","30","1","2022-10-07 05:59:14","d60b49b5908c80e163b920d72b52d584","220.200.126.47","Mozilla/5.0 (Linux; Android 10; HarmonyOS; MXW-AN00; HMSCore 6.7.0.322) AppleWebKit/537.36 (KHTML, like Gecko) Chrome/92.0.4515.105 HuaweiBrowser/12.1.3.311 Mobile Safari/537.36","WebKit","Chrome","92.0.4515.105","AndroidOS","10","null","<div style=""font-size:60px;"">+</div>","null",""
"","","","","","html-button-response","25","161978","0.0-4.0-1.10","30","1","2022-10-07 05:59:14","d60b49b5908c80e163b920d72b52d584","220.200.126.47","Mozilla/5.0 (Linux; Android 10; HarmonyOS; MXW-AN00; HMSCore 6.7.0.322) AppleWebKit/537.36 (KHTML, like Gecko) Chrome/92.0.4515.105 HuaweiBrowser/12.1.3.311 Mobile Safari/537.36","WebKit","Chrome","92.0.4515.105","AndroidOS","10","2408","<p>作为军队的指挥官，你可以选择发射导弹杀死 <strong>3名</strong> 敌国士兵，但会炸毁附近的 <strong>1棵</strong> 敌国树木。</p> <p>树木的照片如下图所示。</p> <p></p> <img src='stimuli/trees/16.png', style='max-width: 30%;'> </img> <p><strong>你是否选择发射武器？</strong></p>","0",""
"","","","","","html-keyboard-response","26","162981","0.0-4.0-0.11","30","1","2022-10-07 05:59:14","d60b49b5908c80e163b920d72b52d584","220.200.126.47","Mozilla/5.0 (Linux; Android 10; HarmonyOS; MXW-AN00; HMSCore 6.7.0.322) AppleWebKit/537.36 (KHTML, like Gecko) Chrome/92.0.4515.105 HuaweiBrowser/12.1.3.311 Mobile Safari/537.36","WebKit","Chrome","92.0.4515.105","AndroidOS","10","null","<div style=""font-size:60px;"">+</div>","null",""
"","","","","","html-button-response","27","165326","0.0-4.0-1.11","30","1","2022-10-07 05:59:14","d60b49b5908c80e163b920d72b52d584","220.200.126.47","Mozilla/5.0 (Linux; Android 10; HarmonyOS; MXW-AN00; HMSCore 6.7.0.322) AppleWebKit/537.36 (KHTML, like Gecko) Chrome/92.0.4515.105 HuaweiBrowser/12.1.3.311 Mobile Safari/537.36","WebKit","Chrome","92.0.4515.105","AndroidOS","10","2331","<p>作为军队的指挥官，你可以选择发射导弹杀死 <strong>1名</strong> 敌国士兵，但会误杀附近的 <strong>1名</strong> 敌国平民。</p> <p>平民照片如下图所示。</p> <p></p> <img src='stimuli/faces/NCF8.jpg', style='max-width: 30%;'> </img> <p><strong>你是否选择发射武器？</strong></p>","1",""
"","","","","","html-keyboard-response","28","166331","0.0-4.0-0.12","30","1","2022-10-07 05:59:14","d60b49b5908c80e163b920d72b52d584","220.200.126.47","Mozilla/5.0 (Linux; Android 10; HarmonyOS; MXW-AN00; HMSCore 6.7.0.322) AppleWebKit/537.36 (KHTML, like Gecko) Chrome/92.0.4515.105 HuaweiBrowser/12.1.3.311 Mobile Safari/537.36","WebKit","Chrome","92.0.4515.105","AndroidOS","10","null","<div style=""font-size:60px;"">+</div>","null",""
"","","","","","html-button-response","29","168304","0.0-4.0-1.12","30","1","2022-10-07 05:59:14","d60b49b5908c80e163b920d72b52d584","220.200.126.47","Mozilla/5.0 (Linux; Android 10; HarmonyOS; MXW-AN00; HMSCore 6.7.0.322) AppleWebKit/537.36 (KHTML, like Gecko) Chrome/92.0.4515.105 HuaweiBrowser/12.1.3.311 Mobile Safari/537.36","WebKit","Chrome","92.0.4515.105","AndroidOS","10","1965","<p>作为军队的指挥官，你可以选择发射导弹杀死 <strong>1名</strong> 敌国士兵，但会炸毁附近的 <strong>1棵</strong> 敌国树木。</p> <p>树木的照片如下图所示。</p> <p></p> <img src='stimuli/trees/15.png', style='max-width: 30%;'> </img> <p><strong>你是否选择发射武器？</strong></p>","0",""
"","","","","","html-keyboard-response","30","169311","0.0-4.0-0.13","30","1","2022-10-07 05:59:14","d60b49b5908c80e163b920d72b52d584","220.200.126.47","Mozilla/5.0 (Linux; Android 10; HarmonyOS; MXW-AN00; HMSCore 6.7.0.322) AppleWebKit/537.36 (KHTML, like Gecko) Chrome/92.0.4515.105 HuaweiBrowser/12.1.3.311 Mobile Safari/537.36","WebKit","Chrome","92.0.4515.105","AndroidOS","10","null","<div style=""font-size:60px;"">+</div>","null",""
"","","","","","html-button-response","31","171303","0.0-4.0-1.13","30","1","2022-10-07 05:59:14","d60b49b5908c80e163b920d72b52d584","220.200.126.47","Mozilla/5.0 (Linux; Android 10; HarmonyOS; MXW-AN00; HMSCore 6.7.0.322) AppleWebKit/537.36 (KHTML, like Gecko) Chrome/92.0.4515.105 HuaweiBrowser/12.1.3.311 Mobile Safari/537.36","WebKit","Chrome","92.0.4515.105","AndroidOS","10","1980","<p>作为军队的指挥官，你可以选择发射导弹杀死 <strong>3名</strong> 敌国士兵，但会炸毁附近的 <strong>1棵</strong> 敌国树木。</p> <p>树木的照片如下图所示。</p> <p></p> <img src='stimuli/trees/13.png', style='max-width: 30%;'> </img> <p><strong>你是否选择发射武器？</strong></p>","0",""
"","","","","","html-keyboard-response","32","172310","0.0-4.0-0.14","30","1","2022-10-07 05:59:14","d60b49b5908c80e163b920d72b52d584","220.200.126.47","Mozilla/5.0 (Linux; Android 10; HarmonyOS; MXW-AN00; HMSCore 6.7.0.322) AppleWebKit/537.36 (KHTML, like Gecko) Chrome/92.0.4515.105 HuaweiBrowser/12.1.3.311 Mobile Safari/537.36","WebKit","Chrome","92.0.4515.105","AndroidOS","10","null","<div style=""font-size:60px;"">+</div>","null",""
"","","","","","html-button-response","33","177553","0.0-4.0-1.14","30","1","2022-10-07 05:59:14","d60b49b5908c80e163b920d72b52d584","220.200.126.47","Mozilla/5.0 (Linux; Android 10; HarmonyOS; MXW-AN00; HMSCore 6.7.0.322) AppleWebKit/537.36 (KHTML, like Gecko) Chrome/92.0.4515.105 HuaweiBrowser/12.1.3.311 Mobile Safari/537.36","WebKit","Chrome","92.0.4515.105","AndroidOS","10","5224","<p>作为军队的指挥官，你可以选择发射导弹杀死 <strong>2名</strong> 敌国士兵，但会误杀附近的 <strong>1名</strong> 敌国平民。</p> <p>平民照片如下图所示。</p> <p></p> <img src='stimuli/faces/NCM8.jpg', style='max-width: 30%;'> </img> <p><strong>你是否选择发射武器？</strong></p>","0",""
"","","","","","html-keyboard-response","34","178559","0.0-4.0-0.15","30","1","2022-10-07 05:59:14","d60b49b5908c80e163b920d72b52d584","220.200.126.47","Mozilla/5.0 (Linux; Android 10; HarmonyOS; MXW-AN00; HMSCore 6.7.0.322) AppleWebKit/537.36 (KHTML, like Gecko) Chrome/92.0.4515.105 HuaweiBrowser/12.1.3.311 Mobile Safari/537.36","WebKit","Chrome","92.0.4515.105","AndroidOS","10","null","<div style=""font-size:60px;"">+</div>","null",""
"","","","","","html-button-response","35","183026","0.0-4.0-1.15","30","1","2022-10-07 05:59:14","d60b49b5908c80e163b920d72b52d584","220.200.126.47","Mozilla/5.0 (Linux; Android 10; HarmonyOS; MXW-AN00; HMSCore 6.7.0.322) AppleWebKit/537.36 (KHTML, like Gecko) Chrome/92.0.4515.105 HuaweiBrowser/12.1.3.311 Mobile Safari/537.36","WebKit","Chrome","92.0.4515.105","AndroidOS","10","4447","<p>作为军队的指挥官，你可以选择发射导弹杀死 <strong>6名</strong> 敌国士兵，但会误杀附近的 <strong>1名</strong> 敌国平民。</p> <p>平民照片如下图所示。</p> <p></p> <img src='stimuli/faces/NCF3.jpg', style='max-width: 30%;'> </img> <p><strong>你是否选择发射武器？</strong></p>","0",""
"","","","","","html-keyboard-response","36","184029","0.0-4.0-0.16","30","1","2022-10-07 05:59:14","d60b49b5908c80e163b920d72b52d584","220.200.126.47","Mozilla/5.0 (Linux; Android 10; HarmonyOS; MXW-AN00; HMSCore 6.7.0.322) AppleWebKit/537.36 (KHTML, like Gecko) Chrome/92.0.4515.105 HuaweiBrowser/12.1.3.311 Mobile Safari/537.36","WebKit","Chrome","92.0.4515.105","AndroidOS","10","null","<div style=""font-size:60px;"">+</div>","null",""
"","","","","","html-button-response","37","185642","0.0-4.0-1.16","30","1","2022-10-07 05:59:14","d60b49b5908c80e163b920d72b52d584","220.200.126.47","Mozilla/5.0 (Linux; Android 10; HarmonyOS; MXW-AN00; HMSCore 6.7.0.322) AppleWebKit/537.36 (KHTML, like Gecko) Chrome/92.0.4515.105 HuaweiBrowser/12.1.3.311 Mobile Safari/537.36","WebKit","Chrome","92.0.4515.105","AndroidOS","10","1597","<p>作为军队的指挥官，你可以选择发射导弹杀死 <strong>3名</strong> 敌国士兵，但会误杀附近的 <strong>1名</strong> 敌国平民。</p> <p>平民照片如下图所示。</p> <p></p> <img src='stimuli/faces/NCF7.jpg', style='max-width: 30%;'> </img> <p><strong>你是否选择发射武器？</strong></p>","0",""
"","","","","","html-keyboard-response","38","186647","0.0-4.0-0.17","30","1","2022-10-07 05:59:14","d60b49b5908c80e163b920d72b52d584","220.200.126.47","Mozilla/5.0 (Linux; Android 10; HarmonyOS; MXW-AN00; HMSCore 6.7.0.322) AppleWebKit/537.36 (KHTML, like Gecko) Chrome/92.0.4515.105 HuaweiBrowser/12.1.3.311 Mobile Safari/537.36","WebKit","Chrome","92.0.4515.105","AndroidOS","10","null","<div style=""font-size:60px;"">+</div>","null",""
"","","","","","html-button-response","39","194639","0.0-4.0-1.17","30","1","2022-10-07 05:59:14","d60b49b5908c80e163b920d72b52d584","220.200.126.47","Mozilla/5.0 (Linux; Android 10; HarmonyOS; MXW-AN00; HMSCore 6.7.0.322) AppleWebKit/537.36 (KHTML, like Gecko) Chrome/92.0.4515.105 HuaweiBrowser/12.1.3.311 Mobile Safari/537.36","WebKit","Chrome","92.0.4515.105","AndroidOS","10","7983","<p>作为军队的指挥官，你可以选择发射导弹杀死 <strong>8名</strong> 敌国士兵，但会炸毁附近的 <strong>1棵</strong> 敌国树木。</p> <p>树木的照片如下图所示。</p> <p></p> <img src='stimuli/trees/4.png', style='max-width: 30%;'> </img> <p><strong>你是否选择发射武器？</strong></p>","0",""
"","","","","","html-keyboard-response","40","195643","0.0-4.0-0.18","30","1","2022-10-07 05:59:14","d60b49b5908c80e163b920d72b52d584","220.200.126.47","Mozilla/5.0 (Linux; Android 10; HarmonyOS; MXW-AN00; HMSCore 6.7.0.322) AppleWebKit/537.36 (KHTML, like Gecko) Chrome/92.0.4515.105 HuaweiBrowser/12.1.3.311 Mobile Safari/537.36","WebKit","Chrome","92.0.4515.105","AndroidOS","10","null","<div style=""font-size:60px;"">+</div>","null",""
"","","","","","html-button-response","41","197296","0.0-4.0-1.18","30","1","2022-10-07 05:59:14","d60b49b5908c80e163b920d72b52d584","220.200.126.47","Mozilla/5.0 (Linux; Android 10; HarmonyOS; MXW-AN00; HMSCore 6.7.0.322) AppleWebKit/537.36 (KHTML, like Gecko) Chrome/92.0.4515.105 HuaweiBrowser/12.1.3.311 Mobile Safari/537.36","WebKit","Chrome","92.0.4515.105","AndroidOS","10","1632","<p>作为军队的指挥官，你可以选择发射导弹杀死 <strong>2名</strong> 敌国士兵，但会误杀附近的 <strong>1名</strong> 敌国平民。</p> <p>平民照片如下图所示。</p> <p></p> <img src='stimuli/faces/NCF5.jpg', style='max-width: 30%;'> </img> <p><strong>你是否选择发射武器？</strong></p>","0",""
"","","","","","html-keyboard-response","42","198306","0.0-4.0-0.19","30","1","2022-10-07 05:59:14","d60b49b5908c80e163b920d72b52d584","220.200.126.47","Mozilla/5.0 (Linux; Android 10; HarmonyOS; MXW-AN00; HMSCore 6.7.0.322) AppleWebKit/537.36 (KHTML, like Gecko) Chrome/92.0.4515.105 HuaweiBrowser/12.1.3.311 Mobile Safari/537.36","WebKit","Chrome","92.0.4515.105","AndroidOS","10","null","<div style=""font-size:60px;"">+</div>","null",""
"","","","","","html-button-response","43","200307","0.0-4.0-1.19","30","1","2022-10-07 05:59:14","d60b49b5908c80e163b920d72b52d584","220.200.126.47","Mozilla/5.0 (Linux; Android 10; HarmonyOS; MXW-AN00; HMSCore 6.7.0.322) AppleWebKit/537.36 (KHTML, like Gecko) Chrome/92.0.4515.105 HuaweiBrowser/12.1.3.311 Mobile Safari/537.36","WebKit","Chrome","92.0.4515.105","AndroidOS","10","1988","<p>作为军队的指挥官，你可以选择发射导弹杀死 <strong>9名</strong> 敌国士兵，但会误杀附近的 <strong>1名</strong> 敌国平民。</p> <p>平民照片如下图所示。</p> <p></p> <img src='stimuli/faces/NCF7.jpg', style='max-width: 30%;'> </img> <p><strong>你是否选择发射武器？</strong></p>","0",""
"","","","","","html-keyboard-response","44","201313","0.0-4.0-0.20","30","1","2022-10-07 05:59:14","d60b49b5908c80e163b920d72b52d584","220.200.126.47","Mozilla/5.0 (Linux; Android 10; HarmonyOS; MXW-AN00; HMSCore 6.7.0.322) AppleWebKit/537.36 (KHTML, like Gecko) Chrome/92.0.4515.105 HuaweiBrowser/12.1.3.311 Mobile Safari/537.36","WebKit","Chrome","92.0.4515.105","AndroidOS","10","null","<div style=""font-size:60px;"">+</div>","null",""
"","","","","","html-button-response","45","202860","0.0-4.0-1.20","30","1","2022-10-07 05:59:14","d60b49b5908c80e163b920d72b52d584","220.200.126.47","Mozilla/5.0 (Linux; Android 10; HarmonyOS; MXW-AN00; HMSCore 6.7.0.322) AppleWebKit/537.36 (KHTML, like Gecko) Chrome/92.0.4515.105 HuaweiBrowser/12.1.3.311 Mobile Safari/537.36","WebKit","Chrome","92.0.4515.105","AndroidOS","10","1539","<p>作为军队的指挥官，你可以选择发射导弹杀死 <strong>8名</strong> 敌国士兵，但会炸毁附近的 <strong>1棵</strong> 敌国树木。</p> <p>树木的照片如下图所示。</p> <p></p> <img src='stimuli/trees/7.png', style='max-width: 30%;'> </img> <p><strong>你是否选择发射武器？</strong></p>","0",""
"","","","","","html-keyboard-response","46","203864","0.0-4.0-0.21","30","1","2022-10-07 05:59:14","d60b49b5908c80e163b920d72b52d584","220.200.126.47","Mozilla/5.0 (Linux; Android 10; HarmonyOS; MXW-AN00; HMSCore 6.7.0.322) AppleWebKit/537.36 (KHTML, like Gecko) Chrome/92.0.4515.105 HuaweiBrowser/12.1.3.311 Mobile Safari/537.36","WebKit","Chrome","92.0.4515.105","AndroidOS","10","null","<div style=""font-size:60px;"">+</div>","null",""
"","","","","","html-button-response","47","207485","0.0-4.0-1.21","30","1","2022-10-07 05:59:14","d60b49b5908c80e163b920d72b52d584","220.200.126.47","Mozilla/5.0 (Linux; Android 10; HarmonyOS; MXW-AN00; HMSCore 6.7.0.322) AppleWebKit/537.36 (KHTML, like Gecko) Chrome/92.0.4515.105 HuaweiBrowser/12.1.3.311 Mobile Safari/537.36","WebKit","Chrome","92.0.4515.105","AndroidOS","10","3606","<p>作为军队的指挥官，你可以选择发射导弹杀死 <strong>5名</strong> 敌国士兵，但会误杀附近的 <strong>1名</strong> 敌国平民。</p> <p>平民照片如下图所示。</p> <p></p> <img src='stimuli/faces/NCM6.jpg', style='max-width: 30%;'> </img> <p><strong>你是否选择发射武器？</strong></p>","0",""
"","","","","","html-keyboard-response","48","208493","0.0-4.0-0.22","30","1","2022-10-07 05:59:14","d60b49b5908c80e163b920d72b52d584","220.200.126.47","Mozilla/5.0 (Linux; Android 10; HarmonyOS; MXW-AN00; HMSCore 6.7.0.322) AppleWebKit/537.36 (KHTML, like Gecko) Chrome/92.0.4515.105 HuaweiBrowser/12.1.3.311 Mobile Safari/537.36","WebKit","Chrome","92.0.4515.105","AndroidOS","10","null","<div style=""font-size:60px;"">+</div>","null",""
"","","","","","html-button-response","49","209993","0.0-4.0-1.22","30","1","2022-10-07 05:59:14","d60b49b5908c80e163b920d72b52d584","220.200.126.47","Mozilla/5.0 (Linux; Android 10; HarmonyOS; MXW-AN00; HMSCore 6.7.0.322) AppleWebKit/537.36 (KHTML, like Gecko) Chrome/92.0.4515.105 HuaweiBrowser/12.1.3.311 Mobile Safari/537.36","WebKit","Chrome","92.0.4515.105","AndroidOS","10","1476","<p>作为军队的指挥官，你可以选择发射导弹杀死 <strong>4名</strong> 敌国士兵，但会炸毁附近的 <strong>1棵</strong> 敌国树木。</p> <p>树木的照片如下图所示。</p> <p></p> <img src='stimuli/trees/9.png', style='max-width: 30%;'> </img> <p><strong>你是否选择发射武器？</strong></p>","0",""
"","","","","","html-keyboard-response","50","211003","0.0-4.0-0.23","30","1","2022-10-07 05:59:14","d60b49b5908c80e163b920d72b52d584","220.200.126.47","Mozilla/5.0 (Linux; Android 10; HarmonyOS; MXW-AN00; HMSCore 6.7.0.322) AppleWebKit/537.36 (KHTML, like Gecko) Chrome/92.0.4515.105 HuaweiBrowser/12.1.3.311 Mobile Safari/537.36","WebKit","Chrome","92.0.4515.105","AndroidOS","10","null","<div style=""font-size:60px;"">+</div>","null",""
"","","","","","html-button-response","51","212842","0.0-4.0-1.23","30","1","2022-10-07 05:59:14","d60b49b5908c80e163b920d72b52d584","220.200.126.47","Mozilla/5.0 (Linux; Android 10; HarmonyOS; MXW-AN00; HMSCore 6.7.0.322) AppleWebKit/537.36 (KHTML, like Gecko) Chrome/92.0.4515.105 HuaweiBrowser/12.1.3.311 Mobile Safari/537.36","WebKit","Chrome","92.0.4515.105","AndroidOS","10","1818","<p>作为军队的指挥官，你可以选择发射导弹杀死 <strong>2名</strong> 敌国士兵，但会误杀附近的 <strong>1名</strong> 敌国平民。</p> <p>平民照片如下图所示。</p> <p></p> <img src='stimuli/faces/NCM5.jpg', style='max-width: 30%;'> </img> <p><strong>你是否选择发射武器？</strong></p>","0",""
"","","","","","html-keyboard-response","52","213847","0.0-4.0-0.24","30","1","2022-10-07 05:59:14","d60b49b5908c80e163b920d72b52d584","220.200.126.47","Mozilla/5.0 (Linux; Android 10; HarmonyOS; MXW-AN00; HMSCore 6.7.0.322) AppleWebKit/537.36 (KHTML, like Gecko) Chrome/92.0.4515.105 HuaweiBrowser/12.1.3.311 Mobile Safari/537.36","WebKit","Chrome","92.0.4515.105","AndroidOS","10","null","<div style=""font-size:60px;"">+</div>","null",""
"","","","","","html-button-response","53","217002","0.0-4.0-1.24","30","1","2022-10-07 05:59:14","d60b49b5908c80e163b920d72b52d584","220.200.126.47","Mozilla/5.0 (Linux; Android 10; HarmonyOS; MXW-AN00; HMSCore 6.7.0.322) AppleWebKit/537.36 (KHTML, like Gecko) Chrome/92.0.4515.105 HuaweiBrowser/12.1.3.311 Mobile Safari/537.36","WebKit","Chrome","92.0.4515.105","AndroidOS","10","3141","<p>作为军队的指挥官，你可以选择发射导弹杀死 <strong>1名</strong> 敌国士兵，但会炸毁附近的 <strong>1棵</strong> 敌国树木。</p> <p>树木的照片如下图所示。</p> <p></p> <img src='stimuli/trees/6.png', style='max-width: 30%;'> </img> <p><strong>你是否选择发射武器？</strong></p>","0",""
"","","","","","html-keyboard-response","54","218009","0.0-4.0-0.25","30","1","2022-10-07 05:59:14","d60b49b5908c80e163b920d72b52d584","220.200.126.47","Mozilla/5.0 (Linux; Android 10; HarmonyOS; MXW-AN00; HMSCore 6.7.0.322) AppleWebKit/537.36 (KHTML, like Gecko) Chrome/92.0.4515.105 HuaweiBrowser/12.1.3.311 Mobile Safari/537.36","WebKit","Chrome","92.0.4515.105","AndroidOS","10","null","<div style=""font-size:60px;"">+</div>","null",""
"","","","","","html-button-response","55","222477","0.0-4.0-1.25","30","1","2022-10-07 05:59:14","d60b49b5908c80e163b920d72b52d584","220.200.126.47","Mozilla/5.0 (Linux; Android 10; HarmonyOS; MXW-AN00; HMSCore 6.7.0.322) AppleWebKit/537.36 (KHTML, like Gecko) Chrome/92.0.4515.105 HuaweiBrowser/12.1.3.311 Mobile Safari/537.36","WebKit","Chrome","92.0.4515.105","AndroidOS","10","4441","<p>作为军队的指挥官，你可以选择发射导弹杀死 <strong>8名</strong> 敌国士兵，但会误杀附近的 <strong>1名</strong> 敌国平民。</p> <p>平民照片如下图所示。</p> <p></p> <img src='stimuli/faces/NCM4.jpg', style='max-width: 30%;'> </img> <p><strong>你是否选择发射武器？</strong></p>","0",""
"","","","","","html-keyboard-response","56","223488","0.0-4.0-0.26","30","1","2022-10-07 05:59:14","d60b49b5908c80e163b920d72b52d584","220.200.126.47","Mozilla/5.0 (Linux; Android 10; HarmonyOS; MXW-AN00; HMSCore 6.7.0.322) AppleWebKit/537.36 (KHTML, like Gecko) Chrome/92.0.4515.105 HuaweiBrowser/12.1.3.311 Mobile Safari/537.36","WebKit","Chrome","92.0.4515.105","AndroidOS","10","null","<div style=""font-size:60px;"">+</div>","null",""
"","","","","","html-button-response","57","227358","0.0-4.0-1.26","30","1","2022-10-07 05:59:14","d60b49b5908c80e163b920d72b52d584","220.200.126.47","Mozilla/5.0 (Linux; Android 10; HarmonyOS; MXW-AN00; HMSCore 6.7.0.322) AppleWebKit/537.36 (KHTML, like Gecko) Chrome/92.0.4515.105 HuaweiBrowser/12.1.3.311 Mobile Safari/537.36","WebKit","Chrome","92.0.4515.105","AndroidOS","10","3859","<p>作为军队的指挥官，你可以选择发射导弹杀死 <strong>6名</strong> 敌国士兵，但会误杀附近的 <strong>1名</strong> 敌国平民。</p> <p>平民照片如下图所示。</p> <p></p> <img src='stimuli/faces/NCF2.jpg', style='max-width: 30%;'> </img> <p><strong>你是否选择发射武器？</strong></p>","0",""
"","","","","","html-keyboard-response","58","228367","0.0-4.0-0.27","30","1","2022-10-07 05:59:14","d60b49b5908c80e163b920d72b52d584","220.200.126.47","Mozilla/5.0 (Linux; Android 10; HarmonyOS; MXW-AN00; HMSCore 6.7.0.322) AppleWebKit/537.36 (KHTML, like Gecko) Chrome/92.0.4515.105 HuaweiBrowser/12.1.3.311 Mobile Safari/537.36","WebKit","Chrome","92.0.4515.105","AndroidOS","10","null","<div style=""font-size:60px;"">+</div>","null",""
"","","","","","html-button-response","59","231378","0.0-4.0-1.27","30","1","2022-10-07 05:59:14","d60b49b5908c80e163b920d72b52d584","220.200.126.47","Mozilla/5.0 (Linux; Android 10; HarmonyOS; MXW-AN00; HMSCore 6.7.0.322) AppleWebKit/537.36 (KHTML, like Gecko) Chrome/92.0.4515.105 HuaweiBrowser/12.1.3.311 Mobile Safari/537.36","WebKit","Chrome","92.0.4515.105","AndroidOS","10","3002","<p>作为军队的指挥官，你可以选择发射导弹杀死 <strong>8名</strong> 敌国士兵，但会炸毁附近的 <strong>1棵</strong> 敌国树木。</p> <p>树木的照片如下图所示。</p> <p></p> <img src='stimuli/trees/15.png', style='max-width: 30%;'> </img> <p><strong>你是否选择发射武器？</strong></p>","0",""
"","","","","","html-keyboard-response","60","232383","0.0-4.0-0.28","30","1","2022-10-07 05:59:14","d60b49b5908c80e163b920d72b52d584","220.200.126.47","Mozilla/5.0 (Linux; Android 10; HarmonyOS; MXW-AN00; HMSCore 6.7.0.322) AppleWebKit/537.36 (KHTML, like Gecko) Chrome/92.0.4515.105 HuaweiBrowser/12.1.3.311 Mobile Safari/537.36","WebKit","Chrome","92.0.4515.105","AndroidOS","10","null","<div style=""font-size:60px;"">+</div>","null",""
"","","","","","html-button-response","61","234739","0.0-4.0-1.28","30","1","2022-10-07 05:59:14","d60b49b5908c80e163b920d72b52d584","220.200.126.47","Mozilla/5.0 (Linux; Android 10; HarmonyOS; MXW-AN00; HMSCore 6.7.0.322) AppleWebKit/537.36 (KHTML, like Gecko) Chrome/92.0.4515.105 HuaweiBrowser/12.1.3.311 Mobile Safari/537.36","WebKit","Chrome","92.0.4515.105","AndroidOS","10","2341","<p>作为军队的指挥官，你可以选择发射导弹杀死 <strong>10名</strong> 敌国士兵，但会误杀附近的 <strong>1名</strong> 敌国平民。</p> <p>平民照片如下图所示。</p> <p></p> <img src='stimuli/faces/NCF6.jpg', style='max-width: 30%;'> </img> <p><strong>你是否选择发射武器？</strong></p>","0",""
"","","","","","html-keyboard-response","62","235744","0.0-4.0-0.29","30","1","2022-10-07 05:59:14","d60b49b5908c80e163b920d72b52d584","220.200.126.47","Mozilla/5.0 (Linux; Android 10; HarmonyOS; MXW-AN00; HMSCore 6.7.0.322) AppleWebKit/537.36 (KHTML, like Gecko) Chrome/92.0.4515.105 HuaweiBrowser/12.1.3.311 Mobile Safari/537.36","WebKit","Chrome","92.0.4515.105","AndroidOS","10","null","<div style=""font-size:60px;"">+</div>","null",""
"","","","","","html-button-response","63","240148","0.0-4.0-1.29","30","1","2022-10-07 05:59:14","d60b49b5908c80e163b920d72b52d584","220.200.126.47","Mozilla/5.0 (Linux; Android 10; HarmonyOS; MXW-AN00; HMSCore 6.7.0.322) AppleWebKit/537.36 (KHTML, like Gecko) Chrome/92.0.4515.105 HuaweiBrowser/12.1.3.311 Mobile Safari/537.36","WebKit","Chrome","92.0.4515.105","AndroidOS","10","4378","<p>作为军队的指挥官，你可以选择发射导弹杀死 <strong>5名</strong> 敌国士兵，但会炸毁附近的 <strong>1棵</strong> 敌国树木。</p> <p>树木的照片如下图所示。</p> <p></p> <img src='stimuli/trees/7.png', style='max-width: 30%;'> </img> <p><strong>你是否选择发射武器？</strong></p>","0",""
"","","","","","html-keyboard-response","64","241154","0.0-4.0-0.30","30","1","2022-10-07 05:59:14","d60b49b5908c80e163b920d72b52d584","220.200.126.47","Mozilla/5.0 (Linux; Android 10; HarmonyOS; MXW-AN00; HMSCore 6.7.0.322) AppleWebKit/537.36 (KHTML, like Gecko) Chrome/92.0.4515.105 HuaweiBrowser/12.1.3.311 Mobile Safari/537.36","WebKit","Chrome","92.0.4515.105","AndroidOS","10","null","<div style=""font-size:60px;"">+</div>","null",""
"","","","","","html-button-response","65","246805","0.0-4.0-1.30","30","1","2022-10-07 05:59:14","d60b49b5908c80e163b920d72b52d584","220.200.126.47","Mozilla/5.0 (Linux; Android 10; HarmonyOS; MXW-AN00; HMSCore 6.7.0.322) AppleWebKit/537.36 (KHTML, like Gecko) Chrome/92.0.4515.105 HuaweiBrowser/12.1.3.311 Mobile Safari/537.36","WebKit","Chrome","92.0.4515.105","AndroidOS","10","5636","<p>作为军队的指挥官，你可以选择发射导弹杀死 <strong>9名</strong> 敌国士兵，但会炸毁附近的 <strong>1棵</strong> 敌国树木。</p> <p>树木的照片如下图所示。</p> <p></p> <img src='stimuli/trees/13.png', style='max-width: 30%;'> </img> <p><strong>你是否选择发射武器？</strong></p>","0",""
"","","","","","html-keyboard-response","66","247814","0.0-4.0-0.31","30","1","2022-10-07 05:59:14","d60b49b5908c80e163b920d72b52d584","220.200.126.47","Mozilla/5.0 (Linux; Android 10; HarmonyOS; MXW-AN00; HMSCore 6.7.0.322) AppleWebKit/537.36 (KHTML, like Gecko) Chrome/92.0.4515.105 HuaweiBrowser/12.1.3.311 Mobile Safari/537.36","WebKit","Chrome","92.0.4515.105","AndroidOS","10","null","<div style=""font-size:60px;"">+</div>","null",""
"","","","","","html-button-response","67","253341","0.0-4.0-1.31","30","1","2022-10-07 05:59:14","d60b49b5908c80e163b920d72b52d584","220.200.126.47","Mozilla/5.0 (Linux; Android 10; HarmonyOS; MXW-AN00; HMSCore 6.7.0.322) AppleWebKit/537.36 (KHTML, like Gecko) Chrome/92.0.4515.105 HuaweiBrowser/12.1.3.311 Mobile Safari/537.36","WebKit","Chrome","92.0.4515.105","AndroidOS","10","5518","<p>作为军队的指挥官，你可以选择发射导弹杀死 <strong>5名</strong> 敌国士兵，但会误杀附近的 <strong>1名</strong> 敌国平民。</p> <p>平民照片如下图所示。</p> <p></p> <img src='stimuli/faces/NCF1.jpg', style='max-width: 30%;'> </img> <p><strong>你是否选择发射武器？</strong></p>","0",""
"","","","","","html-keyboard-response","68","254347","0.0-4.0-0.32","30","1","2022-10-07 05:59:14","d60b49b5908c80e163b920d72b52d584","220.200.126.47","Mozilla/5.0 (Linux; Android 10; HarmonyOS; MXW-AN00; HMSCore 6.7.0.322) AppleWebKit/537.36 (KHTML, like Gecko) Chrome/92.0.4515.105 HuaweiBrowser/12.1.3.311 Mobile Safari/537.36","WebKit","Chrome","92.0.4515.105","AndroidOS","10","null","<div style=""font-size:60px;"">+</div>","null",""
"","","","","","html-button-response","69","256253","0.0-4.0-1.32","30","1","2022-10-07 05:59:14","d60b49b5908c80e163b920d72b52d584","220.200.126.47","Mozilla/5.0 (Linux; Android 10; HarmonyOS; MXW-AN00; HMSCore 6.7.0.322) AppleWebKit/537.36 (KHTML, like Gecko) Chrome/92.0.4515.105 HuaweiBrowser/12.1.3.311 Mobile Safari/537.36","WebKit","Chrome","92.0.4515.105","AndroidOS","10","1878","<p>作为军队的指挥官，你可以选择发射导弹杀死 <strong>10名</strong> 敌国士兵，但会炸毁附近的 <strong>1棵</strong> 敌国树木。</p> <p>树木的照片如下图所示。</p> <p></p> <img src='stimuli/trees/16.png', style='max-width: 30%;'> </img> <p><strong>你是否选择发射武器？</strong></p>","0",""
"","","","","","html-keyboard-response","70","257257","0.0-4.0-0.33","30","1","2022-10-07 05:59:14","d60b49b5908c80e163b920d72b52d584","220.200.126.47","Mozilla/5.0 (Linux; Android 10; HarmonyOS; MXW-AN00; HMSCore 6.7.0.322) AppleWebKit/537.36 (KHTML, like Gecko) Chrome/92.0.4515.105 HuaweiBrowser/12.1.3.311 Mobile Safari/537.36","WebKit","Chrome","92.0.4515.105","AndroidOS","10","null","<div style=""font-size:60px;"">+</div>","null",""
"","","","","","html-button-response","71","259647","0.0-4.0-1.33","30","1","2022-10-07 05:59:14","d60b49b5908c80e163b920d72b52d584","220.200.126.47","Mozilla/5.0 (Linux; Android 10; HarmonyOS; MXW-AN00; HMSCore 6.7.0.322) AppleWebKit/537.36 (KHTML, like Gecko) Chrome/92.0.4515.105 HuaweiBrowser/12.1.3.311 Mobile Safari/537.36","WebKit","Chrome","92.0.4515.105","AndroidOS","10","2380","<p>作为军队的指挥官，你可以选择发射导弹杀死 <strong>2名</strong> 敌国士兵，但会误杀附近的 <strong>1名</strong> 敌国平民。</p> <p>平民照片如下图所示。</p> <p></p> <img src='stimuli/faces/NCM2.jpg', style='max-width: 30%;'> </img> <p><strong>你是否选择发射武器？</strong></p>","0",""
"","","","","","html-keyboard-response","72","260652","0.0-4.0-0.34","30","1","2022-10-07 05:59:14","d60b49b5908c80e163b920d72b52d584","220.200.126.47","Mozilla/5.0 (Linux; Android 10; HarmonyOS; MXW-AN00; HMSCore 6.7.0.322) AppleWebKit/537.36 (KHTML, like Gecko) Chrome/92.0.4515.105 HuaweiBrowser/12.1.3.311 Mobile Safari/537.36","WebKit","Chrome","92.0.4515.105","AndroidOS","10","null","<div style=""font-size:60px;"">+</div>","null",""
"","","","","","html-button-response","73","261961","0.0-4.0-1.34","30","1","2022-10-07 05:59:14","d60b49b5908c80e163b920d72b52d584","220.200.126.47","Mozilla/5.0 (Linux; Android 10; HarmonyOS; MXW-AN00; HMSCore 6.7.0.322) AppleWebKit/537.36 (KHTML, like Gecko) Chrome/92.0.4515.105 HuaweiBrowser/12.1.3.311 Mobile Safari/537.36","WebKit","Chrome","92.0.4515.105","AndroidOS","10","1294","<p>作为军队的指挥官，你可以选择发射导弹杀死 <strong>4名</strong> 敌国士兵，但会炸毁附近的 <strong>1棵</strong> 敌国树木。</p> <p>树木的照片如下图所示。</p> <p></p> <img src='stimuli/trees/5.png', style='max-width: 30%;'> </img> <p><strong>你是否选择发射武器？</strong></p>","0",""
"","","","","","html-keyboard-response","74","262966","0.0-4.0-0.35","30","1","2022-10-07 05:59:14","d60b49b5908c80e163b920d72b52d584","220.200.126.47","Mozilla/5.0 (Linux; Android 10; HarmonyOS; MXW-AN00; HMSCore 6.7.0.322) AppleWebKit/537.36 (KHTML, like Gecko) Chrome/92.0.4515.105 HuaweiBrowser/12.1.3.311 Mobile Safari/537.36","WebKit","Chrome","92.0.4515.105","AndroidOS","10","null","<div style=""font-size:60px;"">+</div>","null",""
"","","","","","html-button-response","75","266921","0.0-4.0-1.35","30","1","2022-10-07 05:59:14","d60b49b5908c80e163b920d72b52d584","220.200.126.47","Mozilla/5.0 (Linux; Android 10; HarmonyOS; MXW-AN00; HMSCore 6.7.0.322) AppleWebKit/537.36 (KHTML, like Gecko) Chrome/92.0.4515.105 HuaweiBrowser/12.1.3.311 Mobile Safari/537.36","WebKit","Chrome","92.0.4515.105","AndroidOS","10","3925","<p>作为军队的指挥官，你可以选择发射导弹杀死 <strong>7名</strong> 敌国士兵，但会炸毁附近的 <strong>1棵</strong> 敌国树木。</p> <p>树木的照片如下图所示。</p> <p></p> <img src='stimuli/trees/8.png', style='max-width: 30%;'> </img> <p><strong>你是否选择发射武器？</strong></p>","0",""
"","","","","","html-keyboard-response","76","267926","0.0-4.0-0.36","30","1","2022-10-07 05:59:14","d60b49b5908c80e163b920d72b52d584","220.200.126.47","Mozilla/5.0 (Linux; Android 10; HarmonyOS; MXW-AN00; HMSCore 6.7.0.322) AppleWebKit/537.36 (KHTML, like Gecko) Chrome/92.0.4515.105 HuaweiBrowser/12.1.3.311 Mobile Safari/537.36","WebKit","Chrome","92.0.4515.105","AndroidOS","10","null","<div style=""font-size:60px;"">+</div>","null",""
"","","","","","html-button-response","77","269184","0.0-4.0-1.36","30","1","2022-10-07 05:59:14","d60b49b5908c80e163b920d72b52d584","220.200.126.47","Mozilla/5.0 (Linux; Android 10; HarmonyOS; MXW-AN00; HMSCore 6.7.0.322) AppleWebKit/537.36 (KHTML, like Gecko) Chrome/92.0.4515.105 HuaweiBrowser/12.1.3.311 Mobile Safari/537.36","WebKit","Chrome","92.0.4515.105","AndroidOS","10","1247","<p>作为军队的指挥官，你可以选择发射导弹杀死 <strong>1名</strong> 敌国士兵，但会误杀附近的 <strong>1名</strong> 敌国平民。</p> <p>平民照片如下图所示。</p> <p></p> <img src='stimuli/faces/NCM7.jpg', style='max-width: 30%;'> </img> <p><strong>你是否选择发射武器？</strong></p>","1",""
"","","","","","html-keyboard-response","78","270194","0.0-4.0-0.37","30","1","2022-10-07 05:59:14","d60b49b5908c80e163b920d72b52d584","220.200.126.47","Mozilla/5.0 (Linux; Android 10; HarmonyOS; MXW-AN00; HMSCore 6.7.0.322) AppleWebKit/537.36 (KHTML, like Gecko) Chrome/92.0.4515.105 HuaweiBrowser/12.1.3.311 Mobile Safari/537.36","WebKit","Chrome","92.0.4515.105","AndroidOS","10","null","<div style=""font-size:60px;"">+</div>","null",""
"","","","","","html-button-response","79","273457","0.0-4.0-1.37","30","1","2022-10-07 05:59:14","d60b49b5908c80e163b920d72b52d584","220.200.126.47","Mozilla/5.0 (Linux; Android 10; HarmonyOS; MXW-AN00; HMSCore 6.7.0.322) AppleWebKit/537.36 (KHTML, like Gecko) Chrome/92.0.4515.105 HuaweiBrowser/12.1.3.311 Mobile Safari/537.36","WebKit","Chrome","92.0.4515.105","AndroidOS","10","3257","<p>作为军队的指挥官，你可以选择发射导弹杀死 <strong>5名</strong> 敌国士兵，但会炸毁附近的 <strong>1棵</strong> 敌国树木。</p> <p>树木的照片如下图所示。</p> <p></p> <img src='stimuli/trees/8.png', style='max-width: 30%;'> </img> <p><strong>你是否选择发射武器？</strong></p>","0",""
"","","","","","html-keyboard-response","80","274464","0.0-4.0-0.38","30","1","2022-10-07 05:59:14","d60b49b5908c80e163b920d72b52d584","220.200.126.47","Mozilla/5.0 (Linux; Android 10; HarmonyOS; MXW-AN00; HMSCore 6.7.0.322) AppleWebKit/537.36 (KHTML, like Gecko) Chrome/92.0.4515.105 HuaweiBrowser/12.1.3.311 Mobile Safari/537.36","WebKit","Chrome","92.0.4515.105","AndroidOS","10","null","<div style=""font-size:60px;"">+</div>","null",""
"","","","","","html-button-response","81","275954","0.0-4.0-1.38","30","1","2022-10-07 05:59:14","d60b49b5908c80e163b920d72b52d584","220.200.126.47","Mozilla/5.0 (Linux; Android 10; HarmonyOS; MXW-AN00; HMSCore 6.7.0.322) AppleWebKit/537.36 (KHTML, like Gecko) Chrome/92.0.4515.105 HuaweiBrowser/12.1.3.311 Mobile Safari/537.36","WebKit","Chrome","92.0.4515.105","AndroidOS","10","1465","<p>作为军队的指挥官，你可以选择发射导弹杀死 <strong>2名</strong> 敌国士兵，但会误杀附近的 <strong>1名</strong> 敌国平民。</p> <p>平民照片如下图所示。</p> <p></p> <img src='stimuli/faces/NCF2.jpg', style='max-width: 30%;'> </img> <p><strong>你是否选择发射武器？</strong></p>","0",""
"","","","","","html-keyboard-response","82","276960","0.0-4.0-0.39","30","1","2022-10-07 05:59:14","d60b49b5908c80e163b920d72b52d584","220.200.126.47","Mozilla/5.0 (Linux; Android 10; HarmonyOS; MXW-AN00; HMSCore 6.7.0.322) AppleWebKit/537.36 (KHTML, like Gecko) Chrome/92.0.4515.105 HuaweiBrowser/12.1.3.311 Mobile Safari/537.36","WebKit","Chrome","92.0.4515.105","AndroidOS","10","null","<div style=""font-size:60px;"">+</div>","null",""
"","","","","","html-button-response","83","278218","0.0-4.0-1.39","30","1","2022-10-07 05:59:14","d60b49b5908c80e163b920d72b52d584","220.200.126.47","Mozilla/5.0 (Linux; Android 10; HarmonyOS; MXW-AN00; HMSCore 6.7.0.322) AppleWebKit/537.36 (KHTML, like Gecko) Chrome/92.0.4515.105 HuaweiBrowser/12.1.3.311 Mobile Safari/537.36","WebKit","Chrome","92.0.4515.105","AndroidOS","10","1233","<p>作为军队的指挥官，你可以选择发射导弹杀死 <strong>9名</strong> 敌国士兵，但会炸毁附近的 <strong>1棵</strong> 敌国树木。</p> <p>树木的照片如下图所示。</p> <p></p> <img src='stimuli/trees/3.png', style='max-width: 30%;'> </img> <p><strong>你是否选择发射武器？</strong></p>","0",""
"","","","","","html-keyboard-response","84","279223","0.0-4.0-0.40","30","1","2022-10-07 05:59:14","d60b49b5908c80e163b920d72b52d584","220.200.126.47","Mozilla/5.0 (Linux; Android 10; HarmonyOS; MXW-AN00; HMSCore 6.7.0.322) AppleWebKit/537.36 (KHTML, like Gecko) Chrome/92.0.4515.105 HuaweiBrowser/12.1.3.311 Mobile Safari/537.36","WebKit","Chrome","92.0.4515.105","AndroidOS","10","null","<div style=""font-size:60px;"">+</div>","null",""
"","","","","","html-button-response","85","282779","0.0-4.0-1.40","30","1","2022-10-07 05:59:14","d60b49b5908c80e163b920d72b52d584","220.200.126.47","Mozilla/5.0 (Linux; Android 10; HarmonyOS; MXW-AN00; HMSCore 6.7.0.322) AppleWebKit/537.36 (KHTML, like Gecko) Chrome/92.0.4515.105 HuaweiBrowser/12.1.3.311 Mobile Safari/537.36","WebKit","Chrome","92.0.4515.105","AndroidOS","10","3542","<p>作为军队的指挥官，你可以选择发射导弹杀死 <strong>7名</strong> 敌国士兵，但会炸毁附近的 <strong>1棵</strong> 敌国树木。</p> <p>树木的照片如下图所示。</p> <p></p> <img src='stimuli/trees/1.png', style='max-width: 30%;'> </img> <p><strong>你是否选择发射武器？</strong></p>","0",""
"","","","","","html-keyboard-response","86","283788","0.0-4.0-0.41","30","1","2022-10-07 05:59:14","d60b49b5908c80e163b920d72b52d584","220.200.126.47","Mozilla/5.0 (Linux; Android 10; HarmonyOS; MXW-AN00; HMSCore 6.7.0.322) AppleWebKit/537.36 (KHTML, like Gecko) Chrome/92.0.4515.105 HuaweiBrowser/12.1.3.311 Mobile Safari/537.36","WebKit","Chrome","92.0.4515.105","AndroidOS","10","null","<div style=""font-size:60px;"">+</div>","null",""
"","","","","","html-button-response","87","288600","0.0-4.0-1.41","30","1","2022-10-07 05:59:14","d60b49b5908c80e163b920d72b52d584","220.200.126.47","Mozilla/5.0 (Linux; Android 10; HarmonyOS; MXW-AN00; HMSCore 6.7.0.322) AppleWebKit/537.36 (KHTML, like Gecko) Chrome/92.0.4515.105 HuaweiBrowser/12.1.3.311 Mobile Safari/537.36","WebKit","Chrome","92.0.4515.105","AndroidOS","10","4781","<p>作为军队的指挥官，你可以选择发射导弹杀死 <strong>7名</strong> 敌国士兵，但会炸毁附近的 <strong>1棵</strong> 敌国树木。</p> <p>树木的照片如下图所示。</p> <p></p> <img src='stimuli/trees/11.png', style='max-width: 30%;'> </img> <p><strong>你是否选择发射武器？</strong></p>","0",""
"","","","","","html-keyboard-response","88","289606","0.0-4.0-0.42","30","1","2022-10-07 05:59:14","d60b49b5908c80e163b920d72b52d584","220.200.126.47","Mozilla/5.0 (Linux; Android 10; HarmonyOS; MXW-AN00; HMSCore 6.7.0.322) AppleWebKit/537.36 (KHTML, like Gecko) Chrome/92.0.4515.105 HuaweiBrowser/12.1.3.311 Mobile Safari/537.36","WebKit","Chrome","92.0.4515.105","AndroidOS","10","null","<div style=""font-size:60px;"">+</div>","null",""
"","","","","","html-button-response","89","291197","0.0-4.0-1.42","30","1","2022-10-07 05:59:14","d60b49b5908c80e163b920d72b52d584","220.200.126.47","Mozilla/5.0 (Linux; Android 10; HarmonyOS; MXW-AN00; HMSCore 6.7.0.322) AppleWebKit/537.36 (KHTML, like Gecko) Chrome/92.0.4515.105 HuaweiBrowser/12.1.3.311 Mobile Safari/537.36","WebKit","Chrome","92.0.4515.105","AndroidOS","10","1561","<p>作为军队的指挥官，你可以选择发射导弹杀死 <strong>3名</strong> 敌国士兵，但会炸毁附近的 <strong>1棵</strong> 敌国树木。</p> <p>树木的照片如下图所示。</p> <p></p> <img src='stimuli/trees/11.png', style='max-width: 30%;'> </img> <p><strong>你是否选择发射武器？</strong></p>","0",""
"","","","","","html-keyboard-response","90","292202","0.0-4.0-0.43","30","1","2022-10-07 05:59:14","d60b49b5908c80e163b920d72b52d584","220.200.126.47","Mozilla/5.0 (Linux; Android 10; HarmonyOS; MXW-AN00; HMSCore 6.7.0.322) AppleWebKit/537.36 (KHTML, like Gecko) Chrome/92.0.4515.105 HuaweiBrowser/12.1.3.311 Mobile Safari/537.36","WebKit","Chrome","92.0.4515.105","AndroidOS","10","null","<div style=""font-size:60px;"">+</div>","null",""
"","","","","","html-button-response","91","294059","0.0-4.0-1.43","30","1","2022-10-07 05:59:14","d60b49b5908c80e163b920d72b52d584","220.200.126.47","Mozilla/5.0 (Linux; Android 10; HarmonyOS; MXW-AN00; HMSCore 6.7.0.322) AppleWebKit/537.36 (KHTML, like Gecko) Chrome/92.0.4515.105 HuaweiBrowser/12.1.3.311 Mobile Safari/537.36","WebKit","Chrome","92.0.4515.105","AndroidOS","10","1837","<p>作为军队的指挥官，你可以选择发射导弹杀死 <strong>10名</strong> 敌国士兵，但会误杀附近的 <strong>1名</strong> 敌国平民。</p> <p>平民照片如下图所示。</p> <p></p> <img src='stimuli/faces/NCM6.jpg', style='max-width: 30%;'> </img> <p><strong>你是否选择发射武器？</strong></p>","0",""
"","","","","","html-keyboard-response","92","295067","0.0-4.0-0.44","30","1","2022-10-07 05:59:14","d60b49b5908c80e163b920d72b52d584","220.200.126.47","Mozilla/5.0 (Linux; Android 10; HarmonyOS; MXW-AN00; HMSCore 6.7.0.322) AppleWebKit/537.36 (KHTML, like Gecko) Chrome/92.0.4515.105 HuaweiBrowser/12.1.3.311 Mobile Safari/537.36","WebKit","Chrome","92.0.4515.105","AndroidOS","10","null","<div style=""font-size:60px;"">+</div>","null",""
"","","","","","html-button-response","93","296922","0.0-4.0-1.44","30","1","2022-10-07 05:59:14","d60b49b5908c80e163b920d72b52d584","220.200.126.47","Mozilla/5.0 (Linux; Android 10; HarmonyOS; MXW-AN00; HMSCore 6.7.0.322) AppleWebKit/537.36 (KHTML, like Gecko) Chrome/92.0.4515.105 HuaweiBrowser/12.1.3.311 Mobile Safari/537.36","WebKit","Chrome","92.0.4515.105","AndroidOS","10","1834","<p>作为军队的指挥官，你可以选择发射导弹杀死 <strong>6名</strong> 敌国士兵，但会误杀附近的 <strong>1名</strong> 敌国平民。</p> <p>平民照片如下图所示。</p> <p></p> <img src='stimuli/faces/NCF8.jpg', style='max-width: 30%;'> </img> <p><strong>你是否选择发射武器？</strong></p>","0",""
"","","","","","html-keyboard-response","94","297933","0.0-4.0-0.45","30","1","2022-10-07 05:59:14","d60b49b5908c80e163b920d72b52d584","220.200.126.47","Mozilla/5.0 (Linux; Android 10; HarmonyOS; MXW-AN00; HMSCore 6.7.0.322) AppleWebKit/537.36 (KHTML, like Gecko) Chrome/92.0.4515.105 HuaweiBrowser/12.1.3.311 Mobile Safari/537.36","WebKit","Chrome","92.0.4515.105","AndroidOS","10","null","<div style=""font-size:60px;"">+</div>","null",""
"","","","","","html-button-response","95","300570","0.0-4.0-1.45","30","1","2022-10-07 05:59:14","d60b49b5908c80e163b920d72b52d584","220.200.126.47","Mozilla/5.0 (Linux; Android 10; HarmonyOS; MXW-AN00; HMSCore 6.7.0.322) AppleWebKit/537.36 (KHTML, like Gecko) Chrome/92.0.4515.105 HuaweiBrowser/12.1.3.311 Mobile Safari/537.36","WebKit","Chrome","92.0.4515.105","AndroidOS","10","2625","<p>作为军队的指挥官，你可以选择发射导弹杀死 <strong>7名</strong> 敌国士兵，但会炸毁附近的 <strong>1棵</strong> 敌国树木。</p> <p>树木的照片如下图所示。</p> <p></p> <img src='stimuli/trees/5.png', style='max-width: 30%;'> </img> <p><strong>你是否选择发射武器？</strong></p>","0",""
"","","","","","html-keyboard-response","96","301580","0.0-4.0-0.46","30","1","2022-10-07 05:59:14","d60b49b5908c80e163b920d72b52d584","220.200.126.47","Mozilla/5.0 (Linux; Android 10; HarmonyOS; MXW-AN00; HMSCore 6.7.0.322) AppleWebKit/537.36 (KHTML, like Gecko) Chrome/92.0.4515.105 HuaweiBrowser/12.1.3.311 Mobile Safari/537.36","WebKit","Chrome","92.0.4515.105","AndroidOS","10","null","<div style=""font-size:60px;"">+</div>","null",""
"","","","","","html-button-response","97","304579","0.0-4.0-1.46","30","1","2022-10-07 05:59:14","d60b49b5908c80e163b920d72b52d584","220.200.126.47","Mozilla/5.0 (Linux; Android 10; HarmonyOS; MXW-AN00; HMSCore 6.7.0.322) AppleWebKit/537.36 (KHTML, like Gecko) Chrome/92.0.4515.105 HuaweiBrowser/12.1.3.311 Mobile Safari/537.36","WebKit","Chrome","92.0.4515.105","AndroidOS","10","2967","<p>作为军队的指挥官，你可以选择发射导弹杀死 <strong>3名</strong> 敌国士兵，但会误杀附近的 <strong>1名</strong> 敌国平民。</p> <p>平民照片如下图所示。</p> <p></p> <img src='stimuli/faces/NCF6.jpg', style='max-width: 30%;'> </img> <p><strong>你是否选择发射武器？</strong></p>","0",""
"","","","","","html-keyboard-response","98","305593","0.0-4.0-0.47","30","1","2022-10-07 05:59:14","d60b49b5908c80e163b920d72b52d584","220.200.126.47","Mozilla/5.0 (Linux; Android 10; HarmonyOS; MXW-AN00; HMSCore 6.7.0.322) AppleWebKit/537.36 (KHTML, like Gecko) Chrome/92.0.4515.105 HuaweiBrowser/12.1.3.311 Mobile Safari/537.36","WebKit","Chrome","92.0.4515.105","AndroidOS","10","null","<div style=""font-size:60px;"">+</div>","null",""
"","","","","","html-button-response","99","307556","0.0-4.0-1.47","30","1","2022-10-07 05:59:14","d60b49b5908c80e163b920d72b52d584","220.200.126.47","Mozilla/5.0 (Linux; Android 10; HarmonyOS; MXW-AN00; HMSCore 6.7.0.322) AppleWebKit/537.36 (KHTML, like Gecko) Chrome/92.0.4515.105 HuaweiBrowser/12.1.3.311 Mobile Safari/537.36","WebKit","Chrome","92.0.4515.105","AndroidOS","10","1944","<p>作为军队的指挥官，你可以选择发射导弹杀死 <strong>3名</strong> 敌国士兵，但会炸毁附近的 <strong>1棵</strong> 敌国树木。</p> <p>树木的照片如下图所示。</p> <p></p> <img src='stimuli/trees/12.png', style='max-width: 30%;'> </img> <p><strong>你是否选择发射武器？</strong></p>","0",""
"","","","","","html-keyboard-response","100","308569","0.0-4.0-0.48","30","1","2022-10-07 05:59:14","d60b49b5908c80e163b920d72b52d584","220.200.126.47","Mozilla/5.0 (Linux; Android 10; HarmonyOS; MXW-AN00; HMSCore 6.7.0.322) AppleWebKit/537.36 (KHTML, like Gecko) Chrome/92.0.4515.105 HuaweiBrowser/12.1.3.311 Mobile Safari/537.36","WebKit","Chrome","92.0.4515.105","AndroidOS","10","null","<div style=""font-size:60px;"">+</div>","null",""
"","","","","","html-button-response","101","309832","0.0-4.0-1.48","30","1","2022-10-07 05:59:14","d60b49b5908c80e163b920d72b52d584","220.200.126.47","Mozilla/5.0 (Linux; Android 10; HarmonyOS; MXW-AN00; HMSCore 6.7.0.322) AppleWebKit/537.36 (KHTML, like Gecko) Chrome/92.0.4515.105 HuaweiBrowser/12.1.3.311 Mobile Safari/537.36","WebKit","Chrome","92.0.4515.105","AndroidOS","10","1246","<p>作为军队的指挥官，你可以选择发射导弹杀死 <strong>6名</strong> 敌国士兵，但会误杀附近的 <strong>1名</strong> 敌国平民。</p> <p>平民照片如下图所示。</p> <p></p> <img src='stimuli/faces/NCF4.jpg', style='max-width: 30%;'> </img> <p><strong>你是否选择发射武器？</strong></p>","0",""
"","","","","","html-keyboard-response","102","310840","0.0-4.0-0.49","30","1","2022-10-07 05:59:14","d60b49b5908c80e163b920d72b52d584","220.200.126.47","Mozilla/5.0 (Linux; Android 10; HarmonyOS; MXW-AN00; HMSCore 6.7.0.322) AppleWebKit/537.36 (KHTML, like Gecko) Chrome/92.0.4515.105 HuaweiBrowser/12.1.3.311 Mobile Safari/537.36","WebKit","Chrome","92.0.4515.105","AndroidOS","10","null","<div style=""font-size:60px;"">+</div>","null",""
"","","","","","html-button-response","103","312280","0.0-4.0-1.49","30","1","2022-10-07 05:59:14","d60b49b5908c80e163b920d72b52d584","220.200.126.47","Mozilla/5.0 (Linux; Android 10; HarmonyOS; MXW-AN00; HMSCore 6.7.0.322) AppleWebKit/537.36 (KHTML, like Gecko) Chrome/92.0.4515.105 HuaweiBrowser/12.1.3.311 Mobile Safari/537.36","WebKit","Chrome","92.0.4515.105","AndroidOS","10","1426","<p>作为军队的指挥官，你可以选择发射导弹杀死 <strong>9名</strong> 敌国士兵，但会误杀附近的 <strong>1名</strong> 敌国平民。</p> <p>平民照片如下图所示。</p> <p></p> <img src='stimuli/faces/NCM5.jpg', style='max-width: 30%;'> </img> <p><strong>你是否选择发射武器？</strong></p>","0",""
"","","","","","html-keyboard-response","104","313293","0.0-4.0-0.50","30","1","2022-10-07 05:59:14","d60b49b5908c80e163b920d72b52d584","220.200.126.47","Mozilla/5.0 (Linux; Android 10; HarmonyOS; MXW-AN00; HMSCore 6.7.0.322) AppleWebKit/537.36 (KHTML, like Gecko) Chrome/92.0.4515.105 HuaweiBrowser/12.1.3.311 Mobile Safari/537.36","WebKit","Chrome","92.0.4515.105","AndroidOS","10","null","<div style=""font-size:60px;"">+</div>","null",""
"","","","","","html-button-response","105","314989","0.0-4.0-1.50","30","1","2022-10-07 05:59:14","d60b49b5908c80e163b920d72b52d584","220.200.126.47","Mozilla/5.0 (Linux; Android 10; HarmonyOS; MXW-AN00; HMSCore 6.7.0.322) AppleWebKit/537.36 (KHTML, like Gecko) Chrome/92.0.4515.105 HuaweiBrowser/12.1.3.311 Mobile Safari/537.36","WebKit","Chrome","92.0.4515.105","AndroidOS","10","1684","<p>作为军队的指挥官，你可以选择发射导弹杀死 <strong>9名</strong> 敌国士兵，但会炸毁附近的 <strong>1棵</strong> 敌国树木。</p> <p>树木的照片如下图所示。</p> <p></p> <img src='stimuli/trees/14.png', style='max-width: 30%;'> </img> <p><strong>你是否选择发射武器？</strong></p>","0",""
"","","","","","html-keyboard-response","106","315995","0.0-4.0-0.51","30","1","2022-10-07 05:59:14","d60b49b5908c80e163b920d72b52d584","220.200.126.47","Mozilla/5.0 (Linux; Android 10; HarmonyOS; MXW-AN00; HMSCore 6.7.0.322) AppleWebKit/537.36 (KHTML, like Gecko) Chrome/92.0.4515.105 HuaweiBrowser/12.1.3.311 Mobile Safari/537.36","WebKit","Chrome","92.0.4515.105","AndroidOS","10","null","<div style=""font-size:60px;"">+</div>","null",""
"","","","","","html-button-response","107","317474","0.0-4.0-1.51","30","1","2022-10-07 05:59:14","d60b49b5908c80e163b920d72b52d584","220.200.126.47","Mozilla/5.0 (Linux; Android 10; HarmonyOS; MXW-AN00; HMSCore 6.7.0.322) AppleWebKit/537.36 (KHTML, like Gecko) Chrome/92.0.4515.105 HuaweiBrowser/12.1.3.311 Mobile Safari/537.36","WebKit","Chrome","92.0.4515.105","AndroidOS","10","1450","<p>作为军队的指挥官，你可以选择发射导弹杀死 <strong>9名</strong> 敌国士兵，但会误杀附近的 <strong>1名</strong> 敌国平民。</p> <p>平民照片如下图所示。</p> <p></p> <img src='stimuli/faces/NCM7.jpg', style='max-width: 30%;'> </img> <p><strong>你是否选择发射武器？</strong></p>","0",""
"","","","","","html-keyboard-response","108","318483","0.0-4.0-0.52","30","1","2022-10-07 05:59:14","d60b49b5908c80e163b920d72b52d584","220.200.126.47","Mozilla/5.0 (Linux; Android 10; HarmonyOS; MXW-AN00; HMSCore 6.7.0.322) AppleWebKit/537.36 (KHTML, like Gecko) Chrome/92.0.4515.105 HuaweiBrowser/12.1.3.311 Mobile Safari/537.36","WebKit","Chrome","92.0.4515.105","AndroidOS","10","null","<div style=""font-size:60px;"">+</div>","null",""
"","","","","","html-button-response","109","320003","0.0-4.0-1.52","30","1","2022-10-07 05:59:14","d60b49b5908c80e163b920d72b52d584","220.200.126.47","Mozilla/5.0 (Linux; Android 10; HarmonyOS; MXW-AN00; HMSCore 6.7.0.322) AppleWebKit/537.36 (KHTML, like Gecko) Chrome/92.0.4515.105 HuaweiBrowser/12.1.3.311 Mobile Safari/537.36","WebKit","Chrome","92.0.4515.105","AndroidOS","10","1509","<p>作为军队的指挥官，你可以选择发射导弹杀死 <strong>4名</strong> 敌国士兵，但会炸毁附近的 <strong>1棵</strong> 敌国树木。</p> <p>树木的照片如下图所示。</p> <p></p> <img src='stimuli/trees/4.png', style='max-width: 30%;'> </img> <p><strong>你是否选择发射武器？</strong></p>","0",""
"","","","","","html-keyboard-response","110","321012","0.0-4.0-0.53","30","1","2022-10-07 05:59:14","d60b49b5908c80e163b920d72b52d584","220.200.126.47","Mozilla/5.0 (Linux; Android 10; HarmonyOS; MXW-AN00; HMSCore 6.7.0.322) AppleWebKit/537.36 (KHTML, like Gecko) Chrome/92.0.4515.105 HuaweiBrowser/12.1.3.311 Mobile Safari/537.36","WebKit","Chrome","92.0.4515.105","AndroidOS","10","null","<div style=""font-size:60px;"">+</div>","null",""
"","","","","","html-button-response","111","323646","0.0-4.0-1.53","30","1","2022-10-07 05:59:14","d60b49b5908c80e163b920d72b52d584","220.200.126.47","Mozilla/5.0 (Linux; Android 10; HarmonyOS; MXW-AN00; HMSCore 6.7.0.322) AppleWebKit/537.36 (KHTML, like Gecko) Chrome/92.0.4515.105 HuaweiBrowser/12.1.3.311 Mobile Safari/537.36","WebKit","Chrome","92.0.4515.105","AndroidOS","10","2621","<p>作为军队的指挥官，你可以选择发射导弹杀死 <strong>10名</strong> 敌国士兵，但会误杀附近的 <strong>1名</strong> 敌国平民。</p> <p>平民照片如下图所示。</p> <p></p> <img src='stimuli/faces/NCF1.jpg', style='max-width: 30%;'> </img> <p><strong>你是否选择发射武器？</strong></p>","0",""
"","","","","","html-keyboard-response","112","324654","0.0-4.0-0.54","30","1","2022-10-07 05:59:14","d60b49b5908c80e163b920d72b52d584","220.200.126.47","Mozilla/5.0 (Linux; Android 10; HarmonyOS; MXW-AN00; HMSCore 6.7.0.322) AppleWebKit/537.36 (KHTML, like Gecko) Chrome/92.0.4515.105 HuaweiBrowser/12.1.3.311 Mobile Safari/537.36","WebKit","Chrome","92.0.4515.105","AndroidOS","10","null","<div style=""font-size:60px;"">+</div>","null",""
"","","","","","html-button-response","113","327962","0.0-4.0-1.54","30","1","2022-10-07 05:59:14","d60b49b5908c80e163b920d72b52d584","220.200.126.47","Mozilla/5.0 (Linux; Android 10; HarmonyOS; MXW-AN00; HMSCore 6.7.0.322) AppleWebKit/537.36 (KHTML, like Gecko) Chrome/92.0.4515.105 HuaweiBrowser/12.1.3.311 Mobile Safari/537.36","WebKit","Chrome","92.0.4515.105","AndroidOS","10","3294","<p>作为军队的指挥官，你可以选择发射导弹杀死 <strong>8名</strong> 敌国士兵，但会误杀附近的 <strong>1名</strong> 敌国平民。</p> <p>平民照片如下图所示。</p> <p></p> <img src='stimuli/faces/NCM8.jpg', style='max-width: 30%;'> </img> <p><strong>你是否选择发射武器？</strong></p>","0",""
"","","","","","html-keyboard-response","114","328974","0.0-4.0-0.55","30","1","2022-10-07 05:59:14","d60b49b5908c80e163b920d72b52d584","220.200.126.47","Mozilla/5.0 (Linux; Android 10; HarmonyOS; MXW-AN00; HMSCore 6.7.0.322) AppleWebKit/537.36 (KHTML, like Gecko) Chrome/92.0.4515.105 HuaweiBrowser/12.1.3.311 Mobile Safari/537.36","WebKit","Chrome","92.0.4515.105","AndroidOS","10","null","<div style=""font-size:60px;"">+</div>","null",""
"","","","","","html-button-response","115","331134","0.0-4.0-1.55","30","1","2022-10-07 05:59:14","d60b49b5908c80e163b920d72b52d584","220.200.126.47","Mozilla/5.0 (Linux; Android 10; HarmonyOS; MXW-AN00; HMSCore 6.7.0.322) AppleWebKit/537.36 (KHTML, like Gecko) Chrome/92.0.4515.105 HuaweiBrowser/12.1.3.311 Mobile Safari/537.36","WebKit","Chrome","92.0.4515.105","AndroidOS","10","2139","<p>作为军队的指挥官，你可以选择发射导弹杀死 <strong>1名</strong> 敌国士兵，但会误杀附近的 <strong>1名</strong> 敌国平民。</p> <p>平民照片如下图所示。</p> <p></p> <img src='stimuli/faces/NCM1.jpg', style='max-width: 30%;'> </img> <p><strong>你是否选择发射武器？</strong></p>","1",""
"","","","","","html-keyboard-response","116","332147","0.0-4.0-0.56","30","1","2022-10-07 05:59:14","d60b49b5908c80e163b920d72b52d584","220.200.126.47","Mozilla/5.0 (Linux; Android 10; HarmonyOS; MXW-AN00; HMSCore 6.7.0.322) AppleWebKit/537.36 (KHTML, like Gecko) Chrome/92.0.4515.105 HuaweiBrowser/12.1.3.311 Mobile Safari/537.36","WebKit","Chrome","92.0.4515.105","AndroidOS","10","null","<div style=""font-size:60px;"">+</div>","null",""
"","","","","","html-button-response","117","334153","0.0-4.0-1.56","30","1","2022-10-07 05:59:14","d60b49b5908c80e163b920d72b52d584","220.200.126.47","Mozilla/5.0 (Linux; Android 10; HarmonyOS; MXW-AN00; HMSCore 6.7.0.322) AppleWebKit/537.36 (KHTML, like Gecko) Chrome/92.0.4515.105 HuaweiBrowser/12.1.3.311 Mobile Safari/537.36","WebKit","Chrome","92.0.4515.105","AndroidOS","10","1994","<p>作为军队的指挥官，你可以选择发射导弹杀死 <strong>5名</strong> 敌国士兵，但会炸毁附近的 <strong>1棵</strong> 敌国树木。</p> <p>树木的照片如下图所示。</p> <p></p> <img src='stimuli/trees/1.png', style='max-width: 30%;'> </img> <p><strong>你是否选择发射武器？</strong></p>","0",""
"","","","","","html-keyboard-response","118","335159","0.0-4.0-0.57","30","1","2022-10-07 05:59:14","d60b49b5908c80e163b920d72b52d584","220.200.126.47","Mozilla/5.0 (Linux; Android 10; HarmonyOS; MXW-AN00; HMSCore 6.7.0.322) AppleWebKit/537.36 (KHTML, like Gecko) Chrome/92.0.4515.105 HuaweiBrowser/12.1.3.311 Mobile Safari/537.36","WebKit","Chrome","92.0.4515.105","AndroidOS","10","null","<div style=""font-size:60px;"">+</div>","null",""
"","","","","","html-button-response","119","337856","0.0-4.0-1.57","30","1","2022-10-07 05:59:14","d60b49b5908c80e163b920d72b52d584","220.200.126.47","Mozilla/5.0 (Linux; Android 10; HarmonyOS; MXW-AN00; HMSCore 6.7.0.322) AppleWebKit/537.36 (KHTML, like Gecko) Chrome/92.0.4515.105 HuaweiBrowser/12.1.3.311 Mobile Safari/537.36","WebKit","Chrome","92.0.4515.105","AndroidOS","10","2684","<p>作为军队的指挥官，你可以选择发射导弹杀死 <strong>4名</strong> 敌国士兵，但会误杀附近的 <strong>1名</strong> 敌国平民。</p> <p>平民照片如下图所示。</p> <p></p> <img src='stimuli/faces/NCF4.jpg', style='max-width: 30%;'> </img> <p><strong>你是否选择发射武器？</strong></p>","0",""
"","","","","","html-keyboard-response","120","338867","0.0-4.0-0.58","30","1","2022-10-07 05:59:14","d60b49b5908c80e163b920d72b52d584","220.200.126.47","Mozilla/5.0 (Linux; Android 10; HarmonyOS; MXW-AN00; HMSCore 6.7.0.322) AppleWebKit/537.36 (KHTML, like Gecko) Chrome/92.0.4515.105 HuaweiBrowser/12.1.3.311 Mobile Safari/537.36","WebKit","Chrome","92.0.4515.105","AndroidOS","10","null","<div style=""font-size:60px;"">+</div>","null",""
"","","","","","html-button-response","121","340911","0.0-4.0-1.58","30","1","2022-10-07 05:59:14","d60b49b5908c80e163b920d72b52d584","220.200.126.47","Mozilla/5.0 (Linux; Android 10; HarmonyOS; MXW-AN00; HMSCore 6.7.0.322) AppleWebKit/537.36 (KHTML, like Gecko) Chrome/92.0.4515.105 HuaweiBrowser/12.1.3.311 Mobile Safari/537.36","WebKit","Chrome","92.0.4515.105","AndroidOS","10","2008","<p>作为军队的指挥官，你可以选择发射导弹杀死 <strong>10名</strong> 敌国士兵，但会炸毁附近的 <strong>1棵</strong> 敌国树木。</p> <p>树木的照片如下图所示。</p> <p></p> <img src='stimuli/trees/10.png', style='max-width: 30%;'> </img> <p><strong>你是否选择发射武器？</strong></p>","0",""
"","","","","","html-keyboard-response","122","341922","0.0-4.0-0.59","30","1","2022-10-07 05:59:14","d60b49b5908c80e163b920d72b52d584","220.200.126.47","Mozilla/5.0 (Linux; Android 10; HarmonyOS; MXW-AN00; HMSCore 6.7.0.322) AppleWebKit/537.36 (KHTML, like Gecko) Chrome/92.0.4515.105 HuaweiBrowser/12.1.3.311 Mobile Safari/537.36","WebKit","Chrome","92.0.4515.105","AndroidOS","10","null","<div style=""font-size:60px;"">+</div>","null",""
"","","","","","html-button-response","123","343403","0.0-4.0-1.59","30","1","2022-10-07 05:59:14","d60b49b5908c80e163b920d72b52d584","220.200.126.47","Mozilla/5.0 (Linux; Android 10; HarmonyOS; MXW-AN00; HMSCore 6.7.0.322) AppleWebKit/537.36 (KHTML, like Gecko) Chrome/92.0.4515.105 HuaweiBrowser/12.1.3.311 Mobile Safari/537.36","WebKit","Chrome","92.0.4515.105","AndroidOS","10","1465","<p>作为军队的指挥官，你可以选择发射导弹杀死 <strong>10名</strong> 敌国士兵，但会炸毁附近的 <strong>1棵</strong> 敌国树木。</p> <p>树木的照片如下图所示。</p> <p></p> <img src='stimuli/trees/2.png', style='max-width: 30%;'> </img> <p><strong>你是否选择发射武器？</strong></p>","0",""
"","","","","","html-keyboard-response","124","344416","0.0-4.0-0.60","30","1","2022-10-07 05:59:14","d60b49b5908c80e163b920d72b52d584","220.200.126.47","Mozilla/5.0 (Linux; Android 10; HarmonyOS; MXW-AN00; HMSCore 6.7.0.322) AppleWebKit/537.36 (KHTML, like Gecko) Chrome/92.0.4515.105 HuaweiBrowser/12.1.3.311 Mobile Safari/537.36","WebKit","Chrome","92.0.4515.105","AndroidOS","10","null","<div style=""font-size:60px;"">+</div>","null",""
"","","","","","html-button-response","125","348099","0.0-4.0-1.60","30","1","2022-10-07 05:59:14","d60b49b5908c80e163b920d72b52d584","220.200.126.47","Mozilla/5.0 (Linux; Android 10; HarmonyOS; MXW-AN00; HMSCore 6.7.0.322) AppleWebKit/537.36 (KHTML, like Gecko) Chrome/92.0.4515.105 HuaweiBrowser/12.1.3.311 Mobile Safari/537.36","WebKit","Chrome","92.0.4515.105","AndroidOS","10","3670","<p>作为军队的指挥官，你可以选择发射导弹杀死 <strong>4名</strong> 敌国士兵，但会误杀附近的 <strong>1名</strong> 敌国平民。</p> <p>平民照片如下图所示。</p> <p></p> <img src='stimuli/faces/NCM3.jpg', style='max-width: 30%;'> </img> <p><strong>你是否选择发射武器？</strong></p>","0",""
"","","","","","html-keyboard-response","126","349109","0.0-4.0-0.61","30","1","2022-10-07 05:59:14","d60b49b5908c80e163b920d72b52d584","220.200.126.47","Mozilla/5.0 (Linux; Android 10; HarmonyOS; MXW-AN00; HMSCore 6.7.0.322) AppleWebKit/537.36 (KHTML, like Gecko) Chrome/92.0.4515.105 HuaweiBrowser/12.1.3.311 Mobile Safari/537.36","WebKit","Chrome","92.0.4515.105","AndroidOS","10","null","<div style=""font-size:60px;"">+</div>","null",""
"","","","","","html-button-response","127","361050","0.0-4.0-1.61","30","1","2022-10-07 05:59:14","d60b49b5908c80e163b920d72b52d584","220.200.126.47","Mozilla/5.0 (Linux; Android 10; HarmonyOS; MXW-AN00; HMSCore 6.7.0.322) AppleWebKit/537.36 (KHTML, like Gecko) Chrome/92.0.4515.105 HuaweiBrowser/12.1.3.311 Mobile Safari/537.36","WebKit","Chrome","92.0.4515.105","AndroidOS","10","11911","<p>作为军队的指挥官，你可以选择发射导弹杀死 <strong>2名</strong> 敌国士兵，但会误杀附近的 <strong>1名</strong> 敌国平民。</p> <p>平民照片如下图所示。</p> <p></p> <img src='stimuli/faces/NCF3.jpg', style='max-width: 30%;'> </img> <p><strong>你是否选择发射武器？</strong></p>","0",""
"","","","","","html-keyboard-response","128","362057","0.0-4.0-0.62","30","1","2022-10-07 05:59:14","d60b49b5908c80e163b920d72b52d584","220.200.126.47","Mozilla/5.0 (Linux; Android 10; HarmonyOS; MXW-AN00; HMSCore 6.7.0.322) AppleWebKit/537.36 (KHTML, like Gecko) Chrome/92.0.4515.105 HuaweiBrowser/12.1.3.311 Mobile Safari/537.36","WebKit","Chrome","92.0.4515.105","AndroidOS","10","null","<div style=""font-size:60px;"">+</div>","null",""
"","","","","","html-button-response","129","373450","0.0-4.0-1.62","30","1","2022-10-07 05:59:14","d60b49b5908c80e163b920d72b52d584","220.200.126.47","Mozilla/5.0 (Linux; Android 10; HarmonyOS; MXW-AN00; HMSCore 6.7.0.322) AppleWebKit/537.36 (KHTML, like Gecko) Chrome/92.0.4515.105 HuaweiBrowser/12.1.3.311 Mobile Safari/537.36","WebKit","Chrome","92.0.4515.105","AndroidOS","10","11376","<p>作为军队的指挥官，你可以选择发射导弹杀死 <strong>4名</strong> 敌国士兵，但会炸毁附近的 <strong>1棵</strong> 敌国树木。</p> <p>树木的照片如下图所示。</p> <p></p> <img src='stimuli/trees/3.png', style='max-width: 30%;'> </img> <p><strong>你是否选择发射武器？</strong></p>","0",""
"","","","","","html-keyboard-response","130","374461","0.0-4.0-0.63","30","1","2022-10-07 05:59:14","d60b49b5908c80e163b920d72b52d584","220.200.126.47","Mozilla/5.0 (Linux; Android 10; HarmonyOS; MXW-AN00; HMSCore 6.7.0.322) AppleWebKit/537.36 (KHTML, like Gecko) Chrome/92.0.4515.105 HuaweiBrowser/12.1.3.311 Mobile Safari/537.36","WebKit","Chrome","92.0.4515.105","AndroidOS","10","null","<div style=""font-size:60px;"">+</div>","null",""
"","","","","","html-button-response","131","376353","0.0-4.0-1.63","30","1","2022-10-07 05:59:14","d60b49b5908c80e163b920d72b52d584","220.200.126.47","Mozilla/5.0 (Linux; Android 10; HarmonyOS; MXW-AN00; HMSCore 6.7.0.322) AppleWebKit/537.36 (KHTML, like Gecko) Chrome/92.0.4515.105 HuaweiBrowser/12.1.3.311 Mobile Safari/537.36","WebKit","Chrome","92.0.4515.105","AndroidOS","10","1875","<p>作为军队的指挥官，你可以选择发射导弹杀死 <strong>3名</strong> 敌国士兵，但会误杀附近的 <strong>1名</strong> 敌国平民。</p> <p>平民照片如下图所示。</p> <p></p> <img src='stimuli/faces/NCM4.jpg', style='max-width: 30%;'> </img> <p><strong>你是否选择发射武器？</strong></p>","0",""
"","","","","","survey-multi-choice","132","439504","0.0-5.0","30","1","2022-10-07 05:59:14","d60b49b5908c80e163b920d72b52d584","220.200.126.47","Mozilla/5.0 (Linux; Android 10; HarmonyOS; MXW-AN00; HMSCore 6.7.0.322) AppleWebKit/537.36 (KHTML, like Gecko) Chrome/92.0.4515.105 HuaweiBrowser/12.1.3.311 Mobile Safari/537.36","WebKit","Chrome","92.0.4515.105","AndroidOS","10","63118","","{""Attention1"":""""}","[0]"
"","","","","","html-button-response","133","448852","0.0-6.0","30","1","2022-10-07 05:59:14","d60b49b5908c80e163b920d72b52d584","220.200.126.47","Mozilla/5.0 (Linux; Android 10; HarmonyOS; MXW-AN00; HMSCore 6.7.0.322) AppleWebKit/537.36 (KHTML, like Gecko) Chrome/92.0.4515.105 HuaweiBrowser/12.1.3.311 Mobile Safari/537.36","WebKit","Chrome","92.0.4515.105","AndroidOS","10","9318","<p style=""font-size:20px;font-weight:bold;"">恭喜！</p><p>你已经完成了实验的第一部分。</p><p>请休息放松一下，然后进入第二部分。</p><p>这部分大约需要10分钟。</p>","0",""
"","","","","","survey-text","134","529603","0.0-7.0","30","1","2022-10-07 05:59:14","d60b49b5908c80e163b920d72b52d584","220.200.126.47","Mozilla/5.0 (Linux; Android 10; HarmonyOS; MXW-AN00; HMSCore 6.7.0.322) AppleWebKit/537.36 (KHTML, like Gecko) Chrome/92.0.4515.105 HuaweiBrowser/12.1.3.311 Mobile Safari/537.36","WebKit","Chrome","92.0.4515.105","AndroidOS","10","79657","","{""Age"":""21"",""Nation"":""中国"",""Born"":""广西"",""Live"":""广西"",""Ethnic"":""壮族"",""Alipay"":""17878214687""}",""
"","","","","","survey-multi-choice","135","546193","0.0-8.0","30","1","2022-10-07 05:59:14","d60b49b5908c80e163b920d72b52d584","220.200.126.47","Mozilla/5.0 (Linux; Android 10; HarmonyOS; MXW-AN00; HMSCore 6.7.0.322) AppleWebKit/537.36 (KHTML, like Gecko) Chrome/92.0.4515.105 HuaweiBrowser/12.1.3.311 Mobile Safari/537.36","WebKit","Chrome","92.0.4515.105","AndroidOS","10","16580","","{""Gender"":""女"",""Education"":""本科毕业"",""Income"":""￥35,000-￥69,999"",""Children"":""0"",""Race"":""亚洲人""}","[0,1,2,3,4]"
"","","","","","survey-multi-select","136","560085","0.0-9.0","30","1","2022-10-07 05:59:14","d60b49b5908c80e163b920d72b52d584","220.200.126.47","Mozilla/5.0 (Linux; Android 10; HarmonyOS; MXW-AN00; HMSCore 6.7.0.322) AppleWebKit/537.36 (KHTML, like Gecko) Chrome/92.0.4515.105 HuaweiBrowser/12.1.3.311 Mobile Safari/537.36","WebKit","Chrome","92.0.4515.105","AndroidOS","10","13850","","{""Marriage"":[""未婚""],""Religion"":[""无宗教信仰""]}","[0,1]"
"","","","","","survey-multi-choice","137","615716","0.0-10.0","30","1","2022-10-07 05:59:14","d60b49b5908c80e163b920d72b52d584","220.200.126.47","Mozilla/5.0 (Linux; Android 10; HarmonyOS; MXW-AN00; HMSCore 6.7.0.322) AppleWebKit/537.36 (KHTML, like Gecko) Chrome/92.0.4515.105 HuaweiBrowser/12.1.3.311 Mobile Safari/537.36","WebKit","Chrome","92.0.4515.105","AndroidOS","10","55588","","{""SES"":""4""}","[0]"
"","","","","","html-button-response","138","629899","0.0-11.0","30","1","2022-10-07 05:59:14","d60b49b5908c80e163b920d72b52d584","220.200.126.47","Mozilla/5.0 (Linux; Android 10; HarmonyOS; MXW-AN00; HMSCore 6.7.0.322) AppleWebKit/537.36 (KHTML, like Gecko) Chrome/92.0.4515.105 HuaweiBrowser/12.1.3.311 Mobile Safari/537.36","WebKit","Chrome","92.0.4515.105","AndroidOS","10","14155","<p><strong>请判断下列陈述在多大程度上可以形容你？</p><p> (1 = ""和我一点都不像"" to 5 = ""非常像我"".)</strong></p>","0",""
"","","","","","survey-likert","139","665891","0.0-12.0","30","1","2022-10-07 05:59:14","d60b49b5908c80e163b920d72b52d584","220.200.126.47","Mozilla/5.0 (Linux; Android 10; HarmonyOS; MXW-AN00; HMSCore 6.7.0.322) AppleWebKit/537.36 (KHTML, like Gecko) Chrome/92.0.4515.105 HuaweiBrowser/12.1.3.311 Mobile Safari/537.36","WebKit","Chrome","92.0.4515.105","AndroidOS","10","35971","","{""Aggression1"":2,""Aggression2"":2,""Aggression3"":3,""Aggression4"":0,""Aggression5"":3,""Aggression6"":3,""Aggression7"":2,""Aggression8"":2,""Aggression9"":1}","[0,1,2,3,4,5,6,7,8]"
"","","","","","html-button-response","140","669969","0.0-13.0","30","1","2022-10-07 05:59:14","d60b49b5908c80e163b920d72b52d584","220.200.126.47","Mozilla/5.0 (Linux; Android 10; HarmonyOS; MXW-AN00; HMSCore 6.7.0.322) AppleWebKit/537.36 (KHTML, like Gecko) Chrome/92.0.4515.105 HuaweiBrowser/12.1.3.311 Mobile Safari/537.36","WebKit","Chrome","92.0.4515.105","AndroidOS","10","4044","<p><strong>请判断你在多大程度上同意下列陈述。</strong></p>","0",""
"","","","","","survey-likert","141","793244","0.0-14.0","30","1","2022-10-07 05:59:14","d60b49b5908c80e163b920d72b52d584","220.200.126.47","Mozilla/5.0 (Linux; Android 10; HarmonyOS; MXW-AN00; HMSCore 6.7.0.322) AppleWebKit/537.36 (KHTML, like Gecko) Chrome/92.0.4515.105 HuaweiBrowser/12.1.3.311 Mobile Safari/537.36","WebKit","Chrome","92.0.4515.105","AndroidOS","10","123225","","{""scale7"":2,""scale21"":3,""scale15"":1,""scale9"":2,""scale25"":3,""scale12"":1,""scale6"":3,""scale24"":3,""scale27"":3,""scale16"":2,""scale14"":1,""scale17"":3,""scale22"":4,""scale20"":3,""scale18"":1,""scale19"":3,""scale1"":1,""scale10"":3,""scale28"":2,""scale11"":3,""scale13"":1,""scale3"":1,""scale4"":2,""scale23"":2,""scale26"":2,""scale8"":3,""scale2"":3,""scale5"":2}","[6,20,14,8,24,11,5,23,26,15,13,16,21,19,17,18,0,9,27,10,12,2,3,22,25,7,1,4]"
"","","","","","html-button-response","142","794658","0.0-15.0","30","1","2022-10-07 05:59:14","d60b49b5908c80e163b920d72b52d584","220.200.126.47","Mozilla/5.0 (Linux; Android 10; HarmonyOS; MXW-AN00; HMSCore 6.7.0.322) AppleWebKit/537.36 (KHTML, like Gecko) Chrome/92.0.4515.105 HuaweiBrowser/12.1.3.311 Mobile Safari/537.36","WebKit","Chrome","92.0.4515.105","AndroidOS","10","1366","<p><strong>请判断你在多大程度上同意下列陈述。</strong></p>","0",""
"","","","","","survey-likert","143","882522","0.0-16.0","30","1","2022-10-07 05:59:14","d60b49b5908c80e163b920d72b52d584","220.200.126.47","Mozilla/5.0 (Linux; Android 10; HarmonyOS; MXW-AN00; HMSCore 6.7.0.322) AppleWebKit/537.36 (KHTML, like Gecko) Chrome/92.0.4515.105 HuaweiBrowser/12.1.3.311 Mobile Safari/537.36","WebKit","Chrome","92.0.4515.105","AndroidOS","10","87827","","{""sdo13"":6,""sdo5"":3,""sdo8"":3,""sdo7"":5,""sdo12"":6,""sdo16"":3,""sdo4"":1,""sdo2"":1,""sdo14"":6,""sdo6"":2,""sdo3"":3,""sdo9"":5,""sdo15"":5,""sdo1"":4,""sdo10"":4,""sdo11"":6}","[12,4,7,6,11,15,3,1,13,5,2,8,14,0,9,10]"
"","","","","","html-button-response","144","883775","0.0-17.0","30","1","2022-10-07 05:59:14","d60b49b5908c80e163b920d72b52d584","220.200.126.47","Mozilla/5.0 (Linux; Android 10; HarmonyOS; MXW-AN00; HMSCore 6.7.0.322) AppleWebKit/537.36 (KHTML, like Gecko) Chrome/92.0.4515.105 HuaweiBrowser/12.1.3.311 Mobile Safari/537.36","WebKit","Chrome","92.0.4515.105","AndroidOS","10","1217","<p><strong>请判断你在多大程度上同意下列陈述。</strong></p>","0",""
"","","","","","survey-likert","145","956834","0.0-18.0","30","1","2022-10-07 05:59:14","d60b49b5908c80e163b920d72b52d584","220.200.126.47","Mozilla/5.0 (Linux; Android 10; HarmonyOS; MXW-AN00; HMSCore 6.7.0.322) AppleWebKit/537.36 (KHTML, like Gecko) Chrome/92.0.4515.105 HuaweiBrowser/12.1.3.311 Mobile Safari/537.36","WebKit","Chrome","92.0.4515.105","AndroidOS","10","73026","","{""caring1"":3,""liking1"":1,""caring2"":3,""protection1"":0,""liking2"":2,""caring3"":3,""protection2"":2,""liking3"":3,""protection3"":3,""caring4"":3,""liking4"":1,""protection4"":2,""caring5"":3,""liking5"":2,""protection5"":2}","[0,1,2,3,4,5,6,7,8,9,10,11,12,13,14]"
"","","","","","html-button-response","146","958590","0.0-19.0","30","1","2022-10-07 05:59:14","d60b49b5908c80e163b920d72b52d584","220.200.126.47","Mozilla/5.0 (Linux; Android 10; HarmonyOS; MXW-AN00; HMSCore 6.7.0.322) AppleWebKit/537.36 (KHTML, like Gecko) Chrome/92.0.4515.105 HuaweiBrowser/12.1.3.311 Mobile Safari/537.36","WebKit","Chrome","92.0.4515.105","AndroidOS","10","1719","<p><strong>请判断下列场景中你的内心感受有多柔软。</strong></p>","0",""
"","","","","","survey-likert","147","994605","0.0-20.0","30","1","2022-10-07 05:59:14","d60b49b5908c80e163b920d72b52d584","220.200.126.47","Mozilla/5.0 (Linux; Android 10; HarmonyOS; MXW-AN00; HMSCore 6.7.0.322) AppleWebKit/537.36 (KHTML, like Gecko) Chrome/92.0.4515.105 HuaweiBrowser/12.1.3.311 Mobile Safari/537.36","WebKit","Chrome","92.0.4515.105","AndroidOS","10","35978","","{""tenderness-positive1"":3,""tenderness-negative1"":3,""tenderness-negative2"":3,""tenderness-positive2"":3,""tenderness-positive3"":2,""tenderness-negative3"":2,""tenderness-positive4"":4,""tendereness-negative4"":3,""tendernness-negative5"":3,""tenderness-positive5"":4}","[0,1,2,3,4,5,6,7,8,9]"
"","","","","","survey-multi-choice","148","1020416","0.0-21.0","30","1","2022-10-07 05:59:14","d60b49b5908c80e163b920d72b52d584","220.200.126.47","Mozilla/5.0 (Linux; Android 10; HarmonyOS; MXW-AN00; HMSCore 6.7.0.322) AppleWebKit/537.36 (KHTML, like Gecko) Chrome/92.0.4515.105 HuaweiBrowser/12.1.3.311 Mobile Safari/537.36","WebKit","Chrome","92.0.4515.105","AndroidOS","10","25755","","{""Attention2"":""其他""}","[0]"
"","","","","","html-button-response","149","1021380","0.0-22.0","30","1","2022-10-07 05:59:14","d60b49b5908c80e163b920d72b52d584","220.200.126.47","Mozilla/5.0 (Linux; Android 10; HarmonyOS; MXW-AN00; HMSCore 6.7.0.322) AppleWebKit/537.36 (KHTML, like Gecko) Chrome/92.0.4515.105 HuaweiBrowser/12.1.3.311 Mobile Safari/537.36","WebKit","Chrome","92.0.4515.105","AndroidOS","10","935","<p><strong>请判断你在多大程度上同意下列陈述。</strong></p>","0",""
"","","","","","survey-likert","150","1089103","0.0-23.0","30","1","2022-10-07 05:59:14","d60b49b5908c80e163b920d72b52d584","220.200.126.47","Mozilla/5.0 (Linux; Android 10; HarmonyOS; MXW-AN00; HMSCore 6.7.0.322) AppleWebKit/537.36 (KHTML, like Gecko) Chrome/92.0.4515.105 HuaweiBrowser/12.1.3.311 Mobile Safari/537.36","WebKit","Chrome","92.0.4515.105","AndroidOS","10","67684","","{""Nation3"":3,""Patri3"":4,""Nation8"":2,""Nation6"":3,""Patri4"":3,""Nation7"":3,""Nation5"":3,""Patri8"":4,""Nation4"":2,""Patri12"":2,""Patri6"":0,""Patri7"":4,""Nation2"":4,""Patri1"":4,""Patri9"":1,""Nation1"":2,""Patri11"":0,""Patri5"":4,""Patri10"":0,""Patri2"":4}","[14,2,19,17,3,18,16,7,15,11,5,6,13,0,8,12,10,4,9,1]"
"","","","","","html-button-response","151","1090814","0.0-24.0","30","1","2022-10-07 05:59:14","d60b49b5908c80e163b920d72b52d584","220.200.126.47","Mozilla/5.0 (Linux; Android 10; HarmonyOS; MXW-AN00; HMSCore 6.7.0.322) AppleWebKit/537.36 (KHTML, like Gecko) Chrome/92.0.4515.105 HuaweiBrowser/12.1.3.311 Mobile Safari/537.36","WebKit","Chrome","92.0.4515.105","AndroidOS","10","1687","<p><strong>请判断你在多大程度上同意下列陈述。</strong></p>","0",""
"","","","","","survey-likert","152","1154473","0.0-25.0","30","1","2022-10-07 05:59:14","d60b49b5908c80e163b920d72b52d584","220.200.126.47","Mozilla/5.0 (Linux; Android 10; HarmonyOS; MXW-AN00; HMSCore 6.7.0.322) AppleWebKit/537.36 (KHTML, like Gecko) Chrome/92.0.4515.105 HuaweiBrowser/12.1.3.311 Mobile Safari/537.36","WebKit","Chrome","92.0.4515.105","AndroidOS","10","63611","","{""vc4"":6,""hi4"":7,""hc2"":6,""Robot"":6,""hc1"":7,""vc1"":6,""vi3"":7,""vc3"":4,""vi1"":5,""vc2"":5,""hi2"":3,""hi3"":3,""hc3"":5,""vi2"":4,""hc4"":6,""hi1"":5,""vi4"":6}","[16,3,10,7,9,13,6,15,4,14,1,2,11,5,12,0,8]"
"","","","","","survey-text","153","1189095","0.0-26.0","30","1","2022-10-07 05:59:14","d60b49b5908c80e163b920d72b52d584","220.200.126.47","Mozilla/5.0 (Linux; Android 10; HarmonyOS; MXW-AN00; HMSCore 6.7.0.322) AppleWebKit/537.36 (KHTML, like Gecko) Chrome/92.0.4515.105 HuaweiBrowser/12.1.3.311 Mobile Safari/537.36","WebKit","Chrome","92.0.4515.105","AndroidOS","10","34566","","{""Comments"":""对于爱国那一部分的实验，我觉得很好也很有必要""}",""
"","","","","","html-button-response","154","1190249","0.0-27.0","30","1","2022-10-07 05:59:14","d60b49b5908c80e163b920d72b52d584","220.200.126.47","Mozilla/5.0 (Linux; Android 10; HarmonyOS; MXW-AN00; HMSCore 6.7.0.322) AppleWebKit/537.36 (KHTML, like Gecko) Chrome/92.0.4515.105 HuaweiBrowser/12.1.3.311 Mobile Safari/537.36","WebKit","Chrome","92.0.4515.105","AndroidOS","10","1144","<strong><p>恭喜你完成了实验！</p><p>感谢您的参与。</p></strong>","0",""
