"success","timeout","failed_images","failed_audio","failed_video","trial_type","trial_index","time_elapsed","internal_node_id","run_id","condition","recorded_at","source_code_version","ip","user_agent","device","browser","browser_version","platform","platform_version","rt","stimulus","response","question_order"
"true","false","[]","[]","[]","preload","0","1997","0.0-0.0","32","1","2022-10-07 06:00:49","d60b49b5908c80e163b920d72b52d584","119.39.133.164","Mozilla/5.0 (Linux; Android 12; V2055A Build/SP1A.210812.003; wv) AppleWebKit/537.36 (KHTML, like Gecko) Version/4.0 Chrome/86.0.4240.99 XWEB/4317 MMWEBSDK/20220903 Mobile Safari/537.36 MMWEBID/8185 MicroMessenger/8.0.28.2240(0x28001C35) WeChat/arm64 Weixin NetType/WIFI Language/zh_TW ABI/arm64","WebKit","Chrome","86.0.4240.99","AndroidOS","12","","","",""
"true","","","","","fullscreen","1","10758","0.0-1.0","32","1","2022-10-07 06:00:49","d60b49b5908c80e163b920d72b52d584","119.39.133.164","Mozilla/5.0 (Linux; Android 12; V2055A Build/SP1A.210812.003; wv) AppleWebKit/537.36 (KHTML, like Gecko) Version/4.0 Chrome/86.0.4240.99 XWEB/4317 MMWEBSDK/20220903 Mobile Safari/537.36 MMWEBID/8185 MicroMessenger/8.0.28.2240(0x28001C35) WeChat/arm64 Weixin NetType/WIFI Language/zh_TW ABI/arm64","WebKit","Chrome","86.0.4240.99","AndroidOS","12","","","",""
"","","","","","html-button-response","2","45013","0.0-2.0","32","1","2022-10-07 06:00:49","d60b49b5908c80e163b920d72b52d584","119.39.133.164","Mozilla/5.0 (Linux; Android 12; V2055A Build/SP1A.210812.003; wv) AppleWebKit/537.36 (KHTML, like Gecko) Version/4.0 Chrome/86.0.4240.99 XWEB/4317 MMWEBSDK/20220903 Mobile Safari/537.36 MMWEBID/8185 MicroMessenger/8.0.28.2240(0x28001C35) WeChat/arm64 Weixin NetType/WIFI Language/zh_TW ABI/arm64","WebKit","Chrome","86.0.4240.99","AndroidOS","12","34247","<p style=""font-size:20px;font-weight:bold;"">实验知情同意书</p><p style=""text-align:left;""><strong>实验名称：</strong>社会冲突研究</p><p style=""text-align:left;""><strong>主要研究者：</strong>韩晓春副教授（北京师范大学心理学部）</p><p style=""text-align:left;""><strong>联系方式：</strong>发送邮件至xiaochun.han@bnu.edu.cn</p><p style=""text-align:left;""><strong>研究目的：</strong>研究旨在了解人类面对群体冲突时的决策方式，以及相关的心理学特质。实验调查大约需要20分钟。</p><p style=""text-align:left;""><strong>实验流程：</strong>实验包含两部分。第一部分呈现一系列群体冲突场景，请你决定如何对这些冲突进行反应，大约需要10分钟完成。第二部分包含一系列人口统计学信息收集和心理学问卷，大约需要10分钟完成。</p><p style=""text-align:left;""><strong>参加及退出规则：</strong>参加本实验完全取决于您的个人意愿。在参与过程中，您可以随时退出，并且不用承担任何后果。</p><p style=""text-align:left;""><strong>隐私：</strong>本实验完全匿名进行，不会收集您的姓名或其他能够识别您身份的信息。实验中收集的作答仅用作科学研究使用，可能会在学术期刊/书籍上发表，或者用于教学，您的数据未来可能会和其他研究者或实验室分享，但您的个人身份不会被识别。</p><p style=""text-align:left;""><strong>实验报酬：</strong>实验完成后，您将获得15元人民币报酬，以感谢您的时间和努力。调查问卷中包含几道题目用以测验您作答时的认真度。只有完成全部实验，并且正确回答认真度测验的被试才能获得实验报酬。实验报酬将通过支付宝转账发放。</p><p style=""text-align:left;font-size:20px;""><strong>如果您同意以上实验知情同意书的内容，请点击'同意并且开始实验'按钮；否则请关闭浏览器界面，退出实验。</strong></p>","0",""
"","","","","","html-button-response","3","46839","0.0-3.0","32","1","2022-10-07 06:00:49","d60b49b5908c80e163b920d72b52d584","119.39.133.164","Mozilla/5.0 (Linux; Android 12; V2055A Build/SP1A.210812.003; wv) AppleWebKit/537.36 (KHTML, like Gecko) Version/4.0 Chrome/86.0.4240.99 XWEB/4317 MMWEBSDK/20220903 Mobile Safari/537.36 MMWEBID/8185 MicroMessenger/8.0.28.2240(0x28001C35) WeChat/arm64 Weixin NetType/WIFI Language/zh_TW ABI/arm64","WebKit","Chrome","86.0.4240.99","AndroidOS","12","1818","<p ><strong>实验任务一：</strong></p><p>请想象你的国家与另一个国家发生了军事冲突。</p><p>你是国家军队的指挥官，你将如何在冲突中进行决策。</p><p>具体来说，作为军队指挥官，请你决定是否发射导弹进行打击。</p><p>接下来，你会面对一系列场景，请仔细阅读每个场景，然后进行决策。</p><p>这部分实验任务大约需要10分钟。</p><p><strong>实验过程中，请集中注意力。</strong></p>","0",""
"","","","","","html-keyboard-response","4","47848","0.0-4.0-0.0","32","1","2022-10-07 06:00:49","d60b49b5908c80e163b920d72b52d584","119.39.133.164","Mozilla/5.0 (Linux; Android 12; V2055A Build/SP1A.210812.003; wv) AppleWebKit/537.36 (KHTML, like Gecko) Version/4.0 Chrome/86.0.4240.99 XWEB/4317 MMWEBSDK/20220903 Mobile Safari/537.36 MMWEBID/8185 MicroMessenger/8.0.28.2240(0x28001C35) WeChat/arm64 Weixin NetType/WIFI Language/zh_TW ABI/arm64","WebKit","Chrome","86.0.4240.99","AndroidOS","12","null","<div style=""font-size:60px;"">+</div>","null",""
"","","","","","html-button-response","5","64201","0.0-4.0-1.0","32","1","2022-10-07 06:00:49","d60b49b5908c80e163b920d72b52d584","119.39.133.164","Mozilla/5.0 (Linux; Android 12; V2055A Build/SP1A.210812.003; wv) AppleWebKit/537.36 (KHTML, like Gecko) Version/4.0 Chrome/86.0.4240.99 XWEB/4317 MMWEBSDK/20220903 Mobile Safari/537.36 MMWEBID/8185 MicroMessenger/8.0.28.2240(0x28001C35) WeChat/arm64 Weixin NetType/WIFI Language/zh_TW ABI/arm64","WebKit","Chrome","86.0.4240.99","AndroidOS","12","16340","<p>作为军队的指挥官，你可以选择发射导弹杀死 <strong>3名</strong> 敌国士兵，但会炸毁附近的 <strong>1棵</strong> 敌国树木。</p> <p>树木的照片如下图所示。</p> <p></p> <img src='stimuli/trees/9.png', style='max-width: 30%;'> </img> <p><strong>你是否选择发射武器？</strong></p>","0",""
"","","","","","html-keyboard-response","6","65206","0.0-4.0-0.1","32","1","2022-10-07 06:00:49","d60b49b5908c80e163b920d72b52d584","119.39.133.164","Mozilla/5.0 (Linux; Android 12; V2055A Build/SP1A.210812.003; wv) AppleWebKit/537.36 (KHTML, like Gecko) Version/4.0 Chrome/86.0.4240.99 XWEB/4317 MMWEBSDK/20220903 Mobile Safari/537.36 MMWEBID/8185 MicroMessenger/8.0.28.2240(0x28001C35) WeChat/arm64 Weixin NetType/WIFI Language/zh_TW ABI/arm64","WebKit","Chrome","86.0.4240.99","AndroidOS","12","null","<div style=""font-size:60px;"">+</div>","null",""
"","","","","","html-button-response","7","72691","0.0-4.0-1.1","32","1","2022-10-07 06:00:49","d60b49b5908c80e163b920d72b52d584","119.39.133.164","Mozilla/5.0 (Linux; Android 12; V2055A Build/SP1A.210812.003; wv) AppleWebKit/537.36 (KHTML, like Gecko) Version/4.0 Chrome/86.0.4240.99 XWEB/4317 MMWEBSDK/20220903 Mobile Safari/537.36 MMWEBID/8185 MicroMessenger/8.0.28.2240(0x28001C35) WeChat/arm64 Weixin NetType/WIFI Language/zh_TW ABI/arm64","WebKit","Chrome","86.0.4240.99","AndroidOS","12","7474","<p>作为军队的指挥官，你可以选择发射导弹杀死 <strong>7名</strong> 敌国士兵，但会误杀附近的 <strong>1名</strong> 敌国平民。</p> <p>平民照片如下图所示。</p> <p></p> <img src='stimuli/faces/NCM5.jpg', style='max-width: 30%;'> </img> <p><strong>你是否选择发射武器？</strong></p>","0",""
"","","","","","html-keyboard-response","8","73695","0.0-4.0-0.2","32","1","2022-10-07 06:00:49","d60b49b5908c80e163b920d72b52d584","119.39.133.164","Mozilla/5.0 (Linux; Android 12; V2055A Build/SP1A.210812.003; wv) AppleWebKit/537.36 (KHTML, like Gecko) Version/4.0 Chrome/86.0.4240.99 XWEB/4317 MMWEBSDK/20220903 Mobile Safari/537.36 MMWEBID/8185 MicroMessenger/8.0.28.2240(0x28001C35) WeChat/arm64 Weixin NetType/WIFI Language/zh_TW ABI/arm64","WebKit","Chrome","86.0.4240.99","AndroidOS","12","null","<div style=""font-size:60px;"">+</div>","null",""
"","","","","","html-button-response","9","75891","0.0-4.0-1.2","32","1","2022-10-07 06:00:49","d60b49b5908c80e163b920d72b52d584","119.39.133.164","Mozilla/5.0 (Linux; Android 12; V2055A Build/SP1A.210812.003; wv) AppleWebKit/537.36 (KHTML, like Gecko) Version/4.0 Chrome/86.0.4240.99 XWEB/4317 MMWEBSDK/20220903 Mobile Safari/537.36 MMWEBID/8185 MicroMessenger/8.0.28.2240(0x28001C35) WeChat/arm64 Weixin NetType/WIFI Language/zh_TW ABI/arm64","WebKit","Chrome","86.0.4240.99","AndroidOS","12","2181","<p>作为军队的指挥官，你可以选择发射导弹杀死 <strong>9名</strong> 敌国士兵，但会误杀附近的 <strong>1名</strong> 敌国平民。</p> <p>平民照片如下图所示。</p> <p></p> <img src='stimuli/faces/NCF2.jpg', style='max-width: 30%;'> </img> <p><strong>你是否选择发射武器？</strong></p>","0",""
"","","","","","html-keyboard-response","10","76900","0.0-4.0-0.3","32","1","2022-10-07 06:00:49","d60b49b5908c80e163b920d72b52d584","119.39.133.164","Mozilla/5.0 (Linux; Android 12; V2055A Build/SP1A.210812.003; wv) AppleWebKit/537.36 (KHTML, like Gecko) Version/4.0 Chrome/86.0.4240.99 XWEB/4317 MMWEBSDK/20220903 Mobile Safari/537.36 MMWEBID/8185 MicroMessenger/8.0.28.2240(0x28001C35) WeChat/arm64 Weixin NetType/WIFI Language/zh_TW ABI/arm64","WebKit","Chrome","86.0.4240.99","AndroidOS","12","null","<div style=""font-size:60px;"">+</div>","null",""
"","","","","","html-button-response","11","78112","0.0-4.0-1.3","32","1","2022-10-07 06:00:49","d60b49b5908c80e163b920d72b52d584","119.39.133.164","Mozilla/5.0 (Linux; Android 12; V2055A Build/SP1A.210812.003; wv) AppleWebKit/537.36 (KHTML, like Gecko) Version/4.0 Chrome/86.0.4240.99 XWEB/4317 MMWEBSDK/20220903 Mobile Safari/537.36 MMWEBID/8185 MicroMessenger/8.0.28.2240(0x28001C35) WeChat/arm64 Weixin NetType/WIFI Language/zh_TW ABI/arm64","WebKit","Chrome","86.0.4240.99","AndroidOS","12","1200","<p>作为军队的指挥官，你可以选择发射导弹杀死 <strong>1名</strong> 敌国士兵，但会误杀附近的 <strong>1名</strong> 敌国平民。</p> <p>平民照片如下图所示。</p> <p></p> <img src='stimuli/faces/NCM6.jpg', style='max-width: 30%;'> </img> <p><strong>你是否选择发射武器？</strong></p>","0",""
"","","","","","html-keyboard-response","12","79118","0.0-4.0-0.4","32","1","2022-10-07 06:00:49","d60b49b5908c80e163b920d72b52d584","119.39.133.164","Mozilla/5.0 (Linux; Android 12; V2055A Build/SP1A.210812.003; wv) AppleWebKit/537.36 (KHTML, like Gecko) Version/4.0 Chrome/86.0.4240.99 XWEB/4317 MMWEBSDK/20220903 Mobile Safari/537.36 MMWEBID/8185 MicroMessenger/8.0.28.2240(0x28001C35) WeChat/arm64 Weixin NetType/WIFI Language/zh_TW ABI/arm64","WebKit","Chrome","86.0.4240.99","AndroidOS","12","null","<div style=""font-size:60px;"">+</div>","null",""
"","","","","","html-button-response","13","80175","0.0-4.0-1.4","32","1","2022-10-07 06:00:49","d60b49b5908c80e163b920d72b52d584","119.39.133.164","Mozilla/5.0 (Linux; Android 12; V2055A Build/SP1A.210812.003; wv) AppleWebKit/537.36 (KHTML, like Gecko) Version/4.0 Chrome/86.0.4240.99 XWEB/4317 MMWEBSDK/20220903 Mobile Safari/537.36 MMWEBID/8185 MicroMessenger/8.0.28.2240(0x28001C35) WeChat/arm64 Weixin NetType/WIFI Language/zh_TW ABI/arm64","WebKit","Chrome","86.0.4240.99","AndroidOS","12","1044","<p>作为军队的指挥官，你可以选择发射导弹杀死 <strong>6名</strong> 敌国士兵，但会误杀附近的 <strong>1名</strong> 敌国平民。</p> <p>平民照片如下图所示。</p> <p></p> <img src='stimuli/faces/NCF3.jpg', style='max-width: 30%;'> </img> <p><strong>你是否选择发射武器？</strong></p>","0",""
"","","","","","html-keyboard-response","14","81180","0.0-4.0-0.5","32","1","2022-10-07 06:00:49","d60b49b5908c80e163b920d72b52d584","119.39.133.164","Mozilla/5.0 (Linux; Android 12; V2055A Build/SP1A.210812.003; wv) AppleWebKit/537.36 (KHTML, like Gecko) Version/4.0 Chrome/86.0.4240.99 XWEB/4317 MMWEBSDK/20220903 Mobile Safari/537.36 MMWEBID/8185 MicroMessenger/8.0.28.2240(0x28001C35) WeChat/arm64 Weixin NetType/WIFI Language/zh_TW ABI/arm64","WebKit","Chrome","86.0.4240.99","AndroidOS","12","null","<div style=""font-size:60px;"">+</div>","null",""
"","","","","","html-button-response","15","84260","0.0-4.0-1.5","32","1","2022-10-07 06:00:49","d60b49b5908c80e163b920d72b52d584","119.39.133.164","Mozilla/5.0 (Linux; Android 12; V2055A Build/SP1A.210812.003; wv) AppleWebKit/537.36 (KHTML, like Gecko) Version/4.0 Chrome/86.0.4240.99 XWEB/4317 MMWEBSDK/20220903 Mobile Safari/537.36 MMWEBID/8185 MicroMessenger/8.0.28.2240(0x28001C35) WeChat/arm64 Weixin NetType/WIFI Language/zh_TW ABI/arm64","WebKit","Chrome","86.0.4240.99","AndroidOS","12","3071","<p>作为军队的指挥官，你可以选择发射导弹杀死 <strong>10名</strong> 敌国士兵，但会炸毁附近的 <strong>1棵</strong> 敌国树木。</p> <p>树木的照片如下图所示。</p> <p></p> <img src='stimuli/trees/4.png', style='max-width: 30%;'> </img> <p><strong>你是否选择发射武器？</strong></p>","0",""
"","","","","","html-keyboard-response","16","85264","0.0-4.0-0.6","32","1","2022-10-07 06:00:49","d60b49b5908c80e163b920d72b52d584","119.39.133.164","Mozilla/5.0 (Linux; Android 12; V2055A Build/SP1A.210812.003; wv) AppleWebKit/537.36 (KHTML, like Gecko) Version/4.0 Chrome/86.0.4240.99 XWEB/4317 MMWEBSDK/20220903 Mobile Safari/537.36 MMWEBID/8185 MicroMessenger/8.0.28.2240(0x28001C35) WeChat/arm64 Weixin NetType/WIFI Language/zh_TW ABI/arm64","WebKit","Chrome","86.0.4240.99","AndroidOS","12","null","<div style=""font-size:60px;"">+</div>","null",""
"","","","","","html-button-response","17","86332","0.0-4.0-1.6","32","1","2022-10-07 06:00:49","d60b49b5908c80e163b920d72b52d584","119.39.133.164","Mozilla/5.0 (Linux; Android 12; V2055A Build/SP1A.210812.003; wv) AppleWebKit/537.36 (KHTML, like Gecko) Version/4.0 Chrome/86.0.4240.99 XWEB/4317 MMWEBSDK/20220903 Mobile Safari/537.36 MMWEBID/8185 MicroMessenger/8.0.28.2240(0x28001C35) WeChat/arm64 Weixin NetType/WIFI Language/zh_TW ABI/arm64","WebKit","Chrome","86.0.4240.99","AndroidOS","12","1053","<p>作为军队的指挥官，你可以选择发射导弹杀死 <strong>10名</strong> 敌国士兵，但会炸毁附近的 <strong>1棵</strong> 敌国树木。</p> <p>树木的照片如下图所示。</p> <p></p> <img src='stimuli/trees/8.png', style='max-width: 30%;'> </img> <p><strong>你是否选择发射武器？</strong></p>","0",""
"","","","","","html-keyboard-response","18","87336","0.0-4.0-0.7","32","1","2022-10-07 06:00:49","d60b49b5908c80e163b920d72b52d584","119.39.133.164","Mozilla/5.0 (Linux; Android 12; V2055A Build/SP1A.210812.003; wv) AppleWebKit/537.36 (KHTML, like Gecko) Version/4.0 Chrome/86.0.4240.99 XWEB/4317 MMWEBSDK/20220903 Mobile Safari/537.36 MMWEBID/8185 MicroMessenger/8.0.28.2240(0x28001C35) WeChat/arm64 Weixin NetType/WIFI Language/zh_TW ABI/arm64","WebKit","Chrome","86.0.4240.99","AndroidOS","12","null","<div style=""font-size:60px;"">+</div>","null",""
"","","","","","html-button-response","19","88163","0.0-4.0-1.7","32","1","2022-10-07 06:00:49","d60b49b5908c80e163b920d72b52d584","119.39.133.164","Mozilla/5.0 (Linux; Android 12; V2055A Build/SP1A.210812.003; wv) AppleWebKit/537.36 (KHTML, like Gecko) Version/4.0 Chrome/86.0.4240.99 XWEB/4317 MMWEBSDK/20220903 Mobile Safari/537.36 MMWEBID/8185 MicroMessenger/8.0.28.2240(0x28001C35) WeChat/arm64 Weixin NetType/WIFI Language/zh_TW ABI/arm64","WebKit","Chrome","86.0.4240.99","AndroidOS","12","813","<p>作为军队的指挥官，你可以选择发射导弹杀死 <strong>4名</strong> 敌国士兵，但会误杀附近的 <strong>1名</strong> 敌国平民。</p> <p>平民照片如下图所示。</p> <p></p> <img src='stimuli/faces/NCM3.jpg', style='max-width: 30%;'> </img> <p><strong>你是否选择发射武器？</strong></p>","0",""
"","","","","","html-keyboard-response","20","89173","0.0-4.0-0.8","32","1","2022-10-07 06:00:49","d60b49b5908c80e163b920d72b52d584","119.39.133.164","Mozilla/5.0 (Linux; Android 12; V2055A Build/SP1A.210812.003; wv) AppleWebKit/537.36 (KHTML, like Gecko) Version/4.0 Chrome/86.0.4240.99 XWEB/4317 MMWEBSDK/20220903 Mobile Safari/537.36 MMWEBID/8185 MicroMessenger/8.0.28.2240(0x28001C35) WeChat/arm64 Weixin NetType/WIFI Language/zh_TW ABI/arm64","WebKit","Chrome","86.0.4240.99","AndroidOS","12","null","<div style=""font-size:60px;"">+</div>","null",""
"","","","","","html-button-response","21","92558","0.0-4.0-1.8","32","1","2022-10-07 06:00:49","d60b49b5908c80e163b920d72b52d584","119.39.133.164","Mozilla/5.0 (Linux; Android 12; V2055A Build/SP1A.210812.003; wv) AppleWebKit/537.36 (KHTML, like Gecko) Version/4.0 Chrome/86.0.4240.99 XWEB/4317 MMWEBSDK/20220903 Mobile Safari/537.36 MMWEBID/8185 MicroMessenger/8.0.28.2240(0x28001C35) WeChat/arm64 Weixin NetType/WIFI Language/zh_TW ABI/arm64","WebKit","Chrome","86.0.4240.99","AndroidOS","12","3371","<p>作为军队的指挥官，你可以选择发射导弹杀死 <strong>5名</strong> 敌国士兵，但会炸毁附近的 <strong>1棵</strong> 敌国树木。</p> <p>树木的照片如下图所示。</p> <p></p> <img src='stimuli/trees/3.png', style='max-width: 30%;'> </img> <p><strong>你是否选择发射武器？</strong></p>","0",""
"","","","","","html-keyboard-response","22","93561","0.0-4.0-0.9","32","1","2022-10-07 06:00:49","d60b49b5908c80e163b920d72b52d584","119.39.133.164","Mozilla/5.0 (Linux; Android 12; V2055A Build/SP1A.210812.003; wv) AppleWebKit/537.36 (KHTML, like Gecko) Version/4.0 Chrome/86.0.4240.99 XWEB/4317 MMWEBSDK/20220903 Mobile Safari/537.36 MMWEBID/8185 MicroMessenger/8.0.28.2240(0x28001C35) WeChat/arm64 Weixin NetType/WIFI Language/zh_TW ABI/arm64","WebKit","Chrome","86.0.4240.99","AndroidOS","12","null","<div style=""font-size:60px;"">+</div>","null",""
"","","","","","html-button-response","23","94545","0.0-4.0-1.9","32","1","2022-10-07 06:00:49","d60b49b5908c80e163b920d72b52d584","119.39.133.164","Mozilla/5.0 (Linux; Android 12; V2055A Build/SP1A.210812.003; wv) AppleWebKit/537.36 (KHTML, like Gecko) Version/4.0 Chrome/86.0.4240.99 XWEB/4317 MMWEBSDK/20220903 Mobile Safari/537.36 MMWEBID/8185 MicroMessenger/8.0.28.2240(0x28001C35) WeChat/arm64 Weixin NetType/WIFI Language/zh_TW ABI/arm64","WebKit","Chrome","86.0.4240.99","AndroidOS","12","973","<p>作为军队的指挥官，你可以选择发射导弹杀死 <strong>7名</strong> 敌国士兵，但会误杀附近的 <strong>1名</strong> 敌国平民。</p> <p>平民照片如下图所示。</p> <p></p> <img src='stimuli/faces/NCM8.jpg', style='max-width: 30%;'> </img> <p><strong>你是否选择发射武器？</strong></p>","0",""
"","","","","","html-keyboard-response","24","95554","0.0-4.0-0.10","32","1","2022-10-07 06:00:49","d60b49b5908c80e163b920d72b52d584","119.39.133.164","Mozilla/5.0 (Linux; Android 12; V2055A Build/SP1A.210812.003; wv) AppleWebKit/537.36 (KHTML, like Gecko) Version/4.0 Chrome/86.0.4240.99 XWEB/4317 MMWEBSDK/20220903 Mobile Safari/537.36 MMWEBID/8185 MicroMessenger/8.0.28.2240(0x28001C35) WeChat/arm64 Weixin NetType/WIFI Language/zh_TW ABI/arm64","WebKit","Chrome","86.0.4240.99","AndroidOS","12","null","<div style=""font-size:60px;"">+</div>","null",""
"","","","","","html-button-response","25","96552","0.0-4.0-1.10","32","1","2022-10-07 06:00:49","d60b49b5908c80e163b920d72b52d584","119.39.133.164","Mozilla/5.0 (Linux; Android 12; V2055A Build/SP1A.210812.003; wv) AppleWebKit/537.36 (KHTML, like Gecko) Version/4.0 Chrome/86.0.4240.99 XWEB/4317 MMWEBSDK/20220903 Mobile Safari/537.36 MMWEBID/8185 MicroMessenger/8.0.28.2240(0x28001C35) WeChat/arm64 Weixin NetType/WIFI Language/zh_TW ABI/arm64","WebKit","Chrome","86.0.4240.99","AndroidOS","12","987","<p>作为军队的指挥官，你可以选择发射导弹杀死 <strong>3名</strong> 敌国士兵，但会炸毁附近的 <strong>1棵</strong> 敌国树木。</p> <p>树木的照片如下图所示。</p> <p></p> <img src='stimuli/trees/11.png', style='max-width: 30%;'> </img> <p><strong>你是否选择发射武器？</strong></p>","0",""
"","","","","","html-keyboard-response","26","97561","0.0-4.0-0.11","32","1","2022-10-07 06:00:49","d60b49b5908c80e163b920d72b52d584","119.39.133.164","Mozilla/5.0 (Linux; Android 12; V2055A Build/SP1A.210812.003; wv) AppleWebKit/537.36 (KHTML, like Gecko) Version/4.0 Chrome/86.0.4240.99 XWEB/4317 MMWEBSDK/20220903 Mobile Safari/537.36 MMWEBID/8185 MicroMessenger/8.0.28.2240(0x28001C35) WeChat/arm64 Weixin NetType/WIFI Language/zh_TW ABI/arm64","WebKit","Chrome","86.0.4240.99","AndroidOS","12","null","<div style=""font-size:60px;"">+</div>","null",""
"","","","","","html-button-response","27","100422","0.0-4.0-1.11","32","1","2022-10-07 06:00:49","d60b49b5908c80e163b920d72b52d584","119.39.133.164","Mozilla/5.0 (Linux; Android 12; V2055A Build/SP1A.210812.003; wv) AppleWebKit/537.36 (KHTML, like Gecko) Version/4.0 Chrome/86.0.4240.99 XWEB/4317 MMWEBSDK/20220903 Mobile Safari/537.36 MMWEBID/8185 MicroMessenger/8.0.28.2240(0x28001C35) WeChat/arm64 Weixin NetType/WIFI Language/zh_TW ABI/arm64","WebKit","Chrome","86.0.4240.99","AndroidOS","12","2847","<p>作为军队的指挥官，你可以选择发射导弹杀死 <strong>1名</strong> 敌国士兵，但会炸毁附近的 <strong>1棵</strong> 敌国树木。</p> <p>树木的照片如下图所示。</p> <p></p> <img src='stimuli/trees/14.png', style='max-width: 30%;'> </img> <p><strong>你是否选择发射武器？</strong></p>","0",""
"","","","","","html-keyboard-response","28","101426","0.0-4.0-0.12","32","1","2022-10-07 06:00:49","d60b49b5908c80e163b920d72b52d584","119.39.133.164","Mozilla/5.0 (Linux; Android 12; V2055A Build/SP1A.210812.003; wv) AppleWebKit/537.36 (KHTML, like Gecko) Version/4.0 Chrome/86.0.4240.99 XWEB/4317 MMWEBSDK/20220903 Mobile Safari/537.36 MMWEBID/8185 MicroMessenger/8.0.28.2240(0x28001C35) WeChat/arm64 Weixin NetType/WIFI Language/zh_TW ABI/arm64","WebKit","Chrome","86.0.4240.99","AndroidOS","12","null","<div style=""font-size:60px;"">+</div>","null",""
"","","","","","html-button-response","29","104941","0.0-4.0-1.12","32","1","2022-10-07 06:00:49","d60b49b5908c80e163b920d72b52d584","119.39.133.164","Mozilla/5.0 (Linux; Android 12; V2055A Build/SP1A.210812.003; wv) AppleWebKit/537.36 (KHTML, like Gecko) Version/4.0 Chrome/86.0.4240.99 XWEB/4317 MMWEBSDK/20220903 Mobile Safari/537.36 MMWEBID/8185 MicroMessenger/8.0.28.2240(0x28001C35) WeChat/arm64 Weixin NetType/WIFI Language/zh_TW ABI/arm64","WebKit","Chrome","86.0.4240.99","AndroidOS","12","3499","<p>作为军队的指挥官，你可以选择发射导弹杀死 <strong>2名</strong> 敌国士兵，但会误杀附近的 <strong>1名</strong> 敌国平民。</p> <p>平民照片如下图所示。</p> <p></p> <img src='stimuli/faces/NCF4.jpg', style='max-width: 30%;'> </img> <p><strong>你是否选择发射武器？</strong></p>","1",""
"","","","","","html-keyboard-response","30","105952","0.0-4.0-0.13","32","1","2022-10-07 06:00:49","d60b49b5908c80e163b920d72b52d584","119.39.133.164","Mozilla/5.0 (Linux; Android 12; V2055A Build/SP1A.210812.003; wv) AppleWebKit/537.36 (KHTML, like Gecko) Version/4.0 Chrome/86.0.4240.99 XWEB/4317 MMWEBSDK/20220903 Mobile Safari/537.36 MMWEBID/8185 MicroMessenger/8.0.28.2240(0x28001C35) WeChat/arm64 Weixin NetType/WIFI Language/zh_TW ABI/arm64","WebKit","Chrome","86.0.4240.99","AndroidOS","12","null","<div style=""font-size:60px;"">+</div>","null",""
"","","","","","html-button-response","31","107174","0.0-4.0-1.13","32","1","2022-10-07 06:00:49","d60b49b5908c80e163b920d72b52d584","119.39.133.164","Mozilla/5.0 (Linux; Android 12; V2055A Build/SP1A.210812.003; wv) AppleWebKit/537.36 (KHTML, like Gecko) Version/4.0 Chrome/86.0.4240.99 XWEB/4317 MMWEBSDK/20220903 Mobile Safari/537.36 MMWEBID/8185 MicroMessenger/8.0.28.2240(0x28001C35) WeChat/arm64 Weixin NetType/WIFI Language/zh_TW ABI/arm64","WebKit","Chrome","86.0.4240.99","AndroidOS","12","1214","<p>作为军队的指挥官，你可以选择发射导弹杀死 <strong>8名</strong> 敌国士兵，但会误杀附近的 <strong>1名</strong> 敌国平民。</p> <p>平民照片如下图所示。</p> <p></p> <img src='stimuli/faces/NCF5.jpg', style='max-width: 30%;'> </img> <p><strong>你是否选择发射武器？</strong></p>","0",""
"","","","","","html-keyboard-response","32","108184","0.0-4.0-0.14","32","1","2022-10-07 06:00:49","d60b49b5908c80e163b920d72b52d584","119.39.133.164","Mozilla/5.0 (Linux; Android 12; V2055A Build/SP1A.210812.003; wv) AppleWebKit/537.36 (KHTML, like Gecko) Version/4.0 Chrome/86.0.4240.99 XWEB/4317 MMWEBSDK/20220903 Mobile Safari/537.36 MMWEBID/8185 MicroMessenger/8.0.28.2240(0x28001C35) WeChat/arm64 Weixin NetType/WIFI Language/zh_TW ABI/arm64","WebKit","Chrome","86.0.4240.99","AndroidOS","12","null","<div style=""font-size:60px;"">+</div>","null",""
"","","","","","html-button-response","33","109629","0.0-4.0-1.14","32","1","2022-10-07 06:00:49","d60b49b5908c80e163b920d72b52d584","119.39.133.164","Mozilla/5.0 (Linux; Android 12; V2055A Build/SP1A.210812.003; wv) AppleWebKit/537.36 (KHTML, like Gecko) Version/4.0 Chrome/86.0.4240.99 XWEB/4317 MMWEBSDK/20220903 Mobile Safari/537.36 MMWEBID/8185 MicroMessenger/8.0.28.2240(0x28001C35) WeChat/arm64 Weixin NetType/WIFI Language/zh_TW ABI/arm64","WebKit","Chrome","86.0.4240.99","AndroidOS","12","1426","<p>作为军队的指挥官，你可以选择发射导弹杀死 <strong>1名</strong> 敌国士兵，但会误杀附近的 <strong>1名</strong> 敌国平民。</p> <p>平民照片如下图所示。</p> <p></p> <img src='stimuli/faces/NCF5.jpg', style='max-width: 30%;'> </img> <p><strong>你是否选择发射武器？</strong></p>","1",""
"","","","","","html-keyboard-response","34","110637","0.0-4.0-0.15","32","1","2022-10-07 06:00:49","d60b49b5908c80e163b920d72b52d584","119.39.133.164","Mozilla/5.0 (Linux; Android 12; V2055A Build/SP1A.210812.003; wv) AppleWebKit/537.36 (KHTML, like Gecko) Version/4.0 Chrome/86.0.4240.99 XWEB/4317 MMWEBSDK/20220903 Mobile Safari/537.36 MMWEBID/8185 MicroMessenger/8.0.28.2240(0x28001C35) WeChat/arm64 Weixin NetType/WIFI Language/zh_TW ABI/arm64","WebKit","Chrome","86.0.4240.99","AndroidOS","12","null","<div style=""font-size:60px;"">+</div>","null",""
"","","","","","html-button-response","35","111899","0.0-4.0-1.15","32","1","2022-10-07 06:00:49","d60b49b5908c80e163b920d72b52d584","119.39.133.164","Mozilla/5.0 (Linux; Android 12; V2055A Build/SP1A.210812.003; wv) AppleWebKit/537.36 (KHTML, like Gecko) Version/4.0 Chrome/86.0.4240.99 XWEB/4317 MMWEBSDK/20220903 Mobile Safari/537.36 MMWEBID/8185 MicroMessenger/8.0.28.2240(0x28001C35) WeChat/arm64 Weixin NetType/WIFI Language/zh_TW ABI/arm64","WebKit","Chrome","86.0.4240.99","AndroidOS","12","1249","<p>作为军队的指挥官，你可以选择发射导弹杀死 <strong>2名</strong> 敌国士兵，但会误杀附近的 <strong>1名</strong> 敌国平民。</p> <p>平民照片如下图所示。</p> <p></p> <img src='stimuli/faces/NCF3.jpg', style='max-width: 30%;'> </img> <p><strong>你是否选择发射武器？</strong></p>","1",""
"","","","","","html-keyboard-response","36","112911","0.0-4.0-0.16","32","1","2022-10-07 06:00:49","d60b49b5908c80e163b920d72b52d584","119.39.133.164","Mozilla/5.0 (Linux; Android 12; V2055A Build/SP1A.210812.003; wv) AppleWebKit/537.36 (KHTML, like Gecko) Version/4.0 Chrome/86.0.4240.99 XWEB/4317 MMWEBSDK/20220903 Mobile Safari/537.36 MMWEBID/8185 MicroMessenger/8.0.28.2240(0x28001C35) WeChat/arm64 Weixin NetType/WIFI Language/zh_TW ABI/arm64","WebKit","Chrome","86.0.4240.99","AndroidOS","12","null","<div style=""font-size:60px;"">+</div>","null",""
"","","","","","html-button-response","37","114285","0.0-4.0-1.16","32","1","2022-10-07 06:00:49","d60b49b5908c80e163b920d72b52d584","119.39.133.164","Mozilla/5.0 (Linux; Android 12; V2055A Build/SP1A.210812.003; wv) AppleWebKit/537.36 (KHTML, like Gecko) Version/4.0 Chrome/86.0.4240.99 XWEB/4317 MMWEBSDK/20220903 Mobile Safari/537.36 MMWEBID/8185 MicroMessenger/8.0.28.2240(0x28001C35) WeChat/arm64 Weixin NetType/WIFI Language/zh_TW ABI/arm64","WebKit","Chrome","86.0.4240.99","AndroidOS","12","1358","<p>作为军队的指挥官，你可以选择发射导弹杀死 <strong>3名</strong> 敌国士兵，但会误杀附近的 <strong>1名</strong> 敌国平民。</p> <p>平民照片如下图所示。</p> <p></p> <img src='stimuli/faces/NCM5.jpg', style='max-width: 30%;'> </img> <p><strong>你是否选择发射武器？</strong></p>","1",""
"","","","","","html-keyboard-response","38","115294","0.0-4.0-0.17","32","1","2022-10-07 06:00:49","d60b49b5908c80e163b920d72b52d584","119.39.133.164","Mozilla/5.0 (Linux; Android 12; V2055A Build/SP1A.210812.003; wv) AppleWebKit/537.36 (KHTML, like Gecko) Version/4.0 Chrome/86.0.4240.99 XWEB/4317 MMWEBSDK/20220903 Mobile Safari/537.36 MMWEBID/8185 MicroMessenger/8.0.28.2240(0x28001C35) WeChat/arm64 Weixin NetType/WIFI Language/zh_TW ABI/arm64","WebKit","Chrome","86.0.4240.99","AndroidOS","12","null","<div style=""font-size:60px;"">+</div>","null",""
"","","","","","html-button-response","39","117058","0.0-4.0-1.17","32","1","2022-10-07 06:00:49","d60b49b5908c80e163b920d72b52d584","119.39.133.164","Mozilla/5.0 (Linux; Android 12; V2055A Build/SP1A.210812.003; wv) AppleWebKit/537.36 (KHTML, like Gecko) Version/4.0 Chrome/86.0.4240.99 XWEB/4317 MMWEBSDK/20220903 Mobile Safari/537.36 MMWEBID/8185 MicroMessenger/8.0.28.2240(0x28001C35) WeChat/arm64 Weixin NetType/WIFI Language/zh_TW ABI/arm64","WebKit","Chrome","86.0.4240.99","AndroidOS","12","1749","<p>作为军队的指挥官，你可以选择发射导弹杀死 <strong>5名</strong> 敌国士兵，但会误杀附近的 <strong>1名</strong> 敌国平民。</p> <p>平民照片如下图所示。</p> <p></p> <img src='stimuli/faces/NCM4.jpg', style='max-width: 30%;'> </img> <p><strong>你是否选择发射武器？</strong></p>","0",""
"","","","","","html-keyboard-response","40","118064","0.0-4.0-0.18","32","1","2022-10-07 06:00:49","d60b49b5908c80e163b920d72b52d584","119.39.133.164","Mozilla/5.0 (Linux; Android 12; V2055A Build/SP1A.210812.003; wv) AppleWebKit/537.36 (KHTML, like Gecko) Version/4.0 Chrome/86.0.4240.99 XWEB/4317 MMWEBSDK/20220903 Mobile Safari/537.36 MMWEBID/8185 MicroMessenger/8.0.28.2240(0x28001C35) WeChat/arm64 Weixin NetType/WIFI Language/zh_TW ABI/arm64","WebKit","Chrome","86.0.4240.99","AndroidOS","12","null","<div style=""font-size:60px;"">+</div>","null",""
"","","","","","html-button-response","41","119986","0.0-4.0-1.18","32","1","2022-10-07 06:00:49","d60b49b5908c80e163b920d72b52d584","119.39.133.164","Mozilla/5.0 (Linux; Android 12; V2055A Build/SP1A.210812.003; wv) AppleWebKit/537.36 (KHTML, like Gecko) Version/4.0 Chrome/86.0.4240.99 XWEB/4317 MMWEBSDK/20220903 Mobile Safari/537.36 MMWEBID/8185 MicroMessenger/8.0.28.2240(0x28001C35) WeChat/arm64 Weixin NetType/WIFI Language/zh_TW ABI/arm64","WebKit","Chrome","86.0.4240.99","AndroidOS","12","1904","<p>作为军队的指挥官，你可以选择发射导弹杀死 <strong>9名</strong> 敌国士兵，但会误杀附近的 <strong>1名</strong> 敌国平民。</p> <p>平民照片如下图所示。</p> <p></p> <img src='stimuli/faces/NCF1.jpg', style='max-width: 30%;'> </img> <p><strong>你是否选择发射武器？</strong></p>","0",""
"","","","","","html-keyboard-response","42","120997","0.0-4.0-0.19","32","1","2022-10-07 06:00:49","d60b49b5908c80e163b920d72b52d584","119.39.133.164","Mozilla/5.0 (Linux; Android 12; V2055A Build/SP1A.210812.003; wv) AppleWebKit/537.36 (KHTML, like Gecko) Version/4.0 Chrome/86.0.4240.99 XWEB/4317 MMWEBSDK/20220903 Mobile Safari/537.36 MMWEBID/8185 MicroMessenger/8.0.28.2240(0x28001C35) WeChat/arm64 Weixin NetType/WIFI Language/zh_TW ABI/arm64","WebKit","Chrome","86.0.4240.99","AndroidOS","12","null","<div style=""font-size:60px;"">+</div>","null",""
"","","","","","html-button-response","43","122954","0.0-4.0-1.19","32","1","2022-10-07 06:00:49","d60b49b5908c80e163b920d72b52d584","119.39.133.164","Mozilla/5.0 (Linux; Android 12; V2055A Build/SP1A.210812.003; wv) AppleWebKit/537.36 (KHTML, like Gecko) Version/4.0 Chrome/86.0.4240.99 XWEB/4317 MMWEBSDK/20220903 Mobile Safari/537.36 MMWEBID/8185 MicroMessenger/8.0.28.2240(0x28001C35) WeChat/arm64 Weixin NetType/WIFI Language/zh_TW ABI/arm64","WebKit","Chrome","86.0.4240.99","AndroidOS","12","1942","<p>作为军队的指挥官，你可以选择发射导弹杀死 <strong>2名</strong> 敌国士兵，但会炸毁附近的 <strong>1棵</strong> 敌国树木。</p> <p>树木的照片如下图所示。</p> <p></p> <img src='stimuli/trees/13.png', style='max-width: 30%;'> </img> <p><strong>你是否选择发射武器？</strong></p>","1",""
"","","","","","html-keyboard-response","44","123963","0.0-4.0-0.20","32","1","2022-10-07 06:00:49","d60b49b5908c80e163b920d72b52d584","119.39.133.164","Mozilla/5.0 (Linux; Android 12; V2055A Build/SP1A.210812.003; wv) AppleWebKit/537.36 (KHTML, like Gecko) Version/4.0 Chrome/86.0.4240.99 XWEB/4317 MMWEBSDK/20220903 Mobile Safari/537.36 MMWEBID/8185 MicroMessenger/8.0.28.2240(0x28001C35) WeChat/arm64 Weixin NetType/WIFI Language/zh_TW ABI/arm64","WebKit","Chrome","86.0.4240.99","AndroidOS","12","null","<div style=""font-size:60px;"">+</div>","null",""
"","","","","","html-button-response","45","125683","0.0-4.0-1.20","32","1","2022-10-07 06:00:49","d60b49b5908c80e163b920d72b52d584","119.39.133.164","Mozilla/5.0 (Linux; Android 12; V2055A Build/SP1A.210812.003; wv) AppleWebKit/537.36 (KHTML, like Gecko) Version/4.0 Chrome/86.0.4240.99 XWEB/4317 MMWEBSDK/20220903 Mobile Safari/537.36 MMWEBID/8185 MicroMessenger/8.0.28.2240(0x28001C35) WeChat/arm64 Weixin NetType/WIFI Language/zh_TW ABI/arm64","WebKit","Chrome","86.0.4240.99","AndroidOS","12","1714","<p>作为军队的指挥官，你可以选择发射导弹杀死 <strong>9名</strong> 敌国士兵，但会炸毁附近的 <strong>1棵</strong> 敌国树木。</p> <p>树木的照片如下图所示。</p> <p></p> <img src='stimuli/trees/12.png', style='max-width: 30%;'> </img> <p><strong>你是否选择发射武器？</strong></p>","0",""
"","","","","","html-keyboard-response","46","126694","0.0-4.0-0.21","32","1","2022-10-07 06:00:49","d60b49b5908c80e163b920d72b52d584","119.39.133.164","Mozilla/5.0 (Linux; Android 12; V2055A Build/SP1A.210812.003; wv) AppleWebKit/537.36 (KHTML, like Gecko) Version/4.0 Chrome/86.0.4240.99 XWEB/4317 MMWEBSDK/20220903 Mobile Safari/537.36 MMWEBID/8185 MicroMessenger/8.0.28.2240(0x28001C35) WeChat/arm64 Weixin NetType/WIFI Language/zh_TW ABI/arm64","WebKit","Chrome","86.0.4240.99","AndroidOS","12","null","<div style=""font-size:60px;"">+</div>","null",""
"","","","","","html-button-response","47","130273","0.0-4.0-1.21","32","1","2022-10-07 06:00:49","d60b49b5908c80e163b920d72b52d584","119.39.133.164","Mozilla/5.0 (Linux; Android 12; V2055A Build/SP1A.210812.003; wv) AppleWebKit/537.36 (KHTML, like Gecko) Version/4.0 Chrome/86.0.4240.99 XWEB/4317 MMWEBSDK/20220903 Mobile Safari/537.36 MMWEBID/8185 MicroMessenger/8.0.28.2240(0x28001C35) WeChat/arm64 Weixin NetType/WIFI Language/zh_TW ABI/arm64","WebKit","Chrome","86.0.4240.99","AndroidOS","12","3563","<p>作为军队的指挥官，你可以选择发射导弹杀死 <strong>1名</strong> 敌国士兵，但会误杀附近的 <strong>1名</strong> 敌国平民。</p> <p>平民照片如下图所示。</p> <p></p> <img src='stimuli/faces/NCM7.jpg', style='max-width: 30%;'> </img> <p><strong>你是否选择发射武器？</strong></p>","1",""
"","","","","","html-keyboard-response","48","131278","0.0-4.0-0.22","32","1","2022-10-07 06:00:49","d60b49b5908c80e163b920d72b52d584","119.39.133.164","Mozilla/5.0 (Linux; Android 12; V2055A Build/SP1A.210812.003; wv) AppleWebKit/537.36 (KHTML, like Gecko) Version/4.0 Chrome/86.0.4240.99 XWEB/4317 MMWEBSDK/20220903 Mobile Safari/537.36 MMWEBID/8185 MicroMessenger/8.0.28.2240(0x28001C35) WeChat/arm64 Weixin NetType/WIFI Language/zh_TW ABI/arm64","WebKit","Chrome","86.0.4240.99","AndroidOS","12","null","<div style=""font-size:60px;"">+</div>","null",""
"","","","","","html-button-response","49","133882","0.0-4.0-1.22","32","1","2022-10-07 06:00:49","d60b49b5908c80e163b920d72b52d584","119.39.133.164","Mozilla/5.0 (Linux; Android 12; V2055A Build/SP1A.210812.003; wv) AppleWebKit/537.36 (KHTML, like Gecko) Version/4.0 Chrome/86.0.4240.99 XWEB/4317 MMWEBSDK/20220903 Mobile Safari/537.36 MMWEBID/8185 MicroMessenger/8.0.28.2240(0x28001C35) WeChat/arm64 Weixin NetType/WIFI Language/zh_TW ABI/arm64","WebKit","Chrome","86.0.4240.99","AndroidOS","12","2596","<p>作为军队的指挥官，你可以选择发射导弹杀死 <strong>3名</strong> 敌国士兵，但会误杀附近的 <strong>1名</strong> 敌国平民。</p> <p>平民照片如下图所示。</p> <p></p> <img src='stimuli/faces/NCM8.jpg', style='max-width: 30%;'> </img> <p><strong>你是否选择发射武器？</strong></p>","1",""
"","","","","","html-keyboard-response","50","134887","0.0-4.0-0.23","32","1","2022-10-07 06:00:49","d60b49b5908c80e163b920d72b52d584","119.39.133.164","Mozilla/5.0 (Linux; Android 12; V2055A Build/SP1A.210812.003; wv) AppleWebKit/537.36 (KHTML, like Gecko) Version/4.0 Chrome/86.0.4240.99 XWEB/4317 MMWEBSDK/20220903 Mobile Safari/537.36 MMWEBID/8185 MicroMessenger/8.0.28.2240(0x28001C35) WeChat/arm64 Weixin NetType/WIFI Language/zh_TW ABI/arm64","WebKit","Chrome","86.0.4240.99","AndroidOS","12","null","<div style=""font-size:60px;"">+</div>","null",""
"","","","","","html-button-response","51","139268","0.0-4.0-1.23","32","1","2022-10-07 06:00:49","d60b49b5908c80e163b920d72b52d584","119.39.133.164","Mozilla/5.0 (Linux; Android 12; V2055A Build/SP1A.210812.003; wv) AppleWebKit/537.36 (KHTML, like Gecko) Version/4.0 Chrome/86.0.4240.99 XWEB/4317 MMWEBSDK/20220903 Mobile Safari/537.36 MMWEBID/8185 MicroMessenger/8.0.28.2240(0x28001C35) WeChat/arm64 Weixin NetType/WIFI Language/zh_TW ABI/arm64","WebKit","Chrome","86.0.4240.99","AndroidOS","12","4363","<p>作为军队的指挥官，你可以选择发射导弹杀死 <strong>2名</strong> 敌国士兵，但会炸毁附近的 <strong>1棵</strong> 敌国树木。</p> <p>树木的照片如下图所示。</p> <p></p> <img src='stimuli/trees/16.png', style='max-width: 30%;'> </img> <p><strong>你是否选择发射武器？</strong></p>","1",""
"","","","","","html-keyboard-response","52","140274","0.0-4.0-0.24","32","1","2022-10-07 06:00:49","d60b49b5908c80e163b920d72b52d584","119.39.133.164","Mozilla/5.0 (Linux; Android 12; V2055A Build/SP1A.210812.003; wv) AppleWebKit/537.36 (KHTML, like Gecko) Version/4.0 Chrome/86.0.4240.99 XWEB/4317 MMWEBSDK/20220903 Mobile Safari/537.36 MMWEBID/8185 MicroMessenger/8.0.28.2240(0x28001C35) WeChat/arm64 Weixin NetType/WIFI Language/zh_TW ABI/arm64","WebKit","Chrome","86.0.4240.99","AndroidOS","12","null","<div style=""font-size:60px;"">+</div>","null",""
"","","","","","html-button-response","53","141760","0.0-4.0-1.24","32","1","2022-10-07 06:00:49","d60b49b5908c80e163b920d72b52d584","119.39.133.164","Mozilla/5.0 (Linux; Android 12; V2055A Build/SP1A.210812.003; wv) AppleWebKit/537.36 (KHTML, like Gecko) Version/4.0 Chrome/86.0.4240.99 XWEB/4317 MMWEBSDK/20220903 Mobile Safari/537.36 MMWEBID/8185 MicroMessenger/8.0.28.2240(0x28001C35) WeChat/arm64 Weixin NetType/WIFI Language/zh_TW ABI/arm64","WebKit","Chrome","86.0.4240.99","AndroidOS","12","1469","<p>作为军队的指挥官，你可以选择发射导弹杀死 <strong>9名</strong> 敌国士兵，但会误杀附近的 <strong>1名</strong> 敌国平民。</p> <p>平民照片如下图所示。</p> <p></p> <img src='stimuli/faces/NCM7.jpg', style='max-width: 30%;'> </img> <p><strong>你是否选择发射武器？</strong></p>","0",""
"","","","","","html-keyboard-response","54","142767","0.0-4.0-0.25","32","1","2022-10-07 06:00:49","d60b49b5908c80e163b920d72b52d584","119.39.133.164","Mozilla/5.0 (Linux; Android 12; V2055A Build/SP1A.210812.003; wv) AppleWebKit/537.36 (KHTML, like Gecko) Version/4.0 Chrome/86.0.4240.99 XWEB/4317 MMWEBSDK/20220903 Mobile Safari/537.36 MMWEBID/8185 MicroMessenger/8.0.28.2240(0x28001C35) WeChat/arm64 Weixin NetType/WIFI Language/zh_TW ABI/arm64","WebKit","Chrome","86.0.4240.99","AndroidOS","12","null","<div style=""font-size:60px;"">+</div>","null",""
"","","","","","html-button-response","55","145219","0.0-4.0-1.25","32","1","2022-10-07 06:00:49","d60b49b5908c80e163b920d72b52d584","119.39.133.164","Mozilla/5.0 (Linux; Android 12; V2055A Build/SP1A.210812.003; wv) AppleWebKit/537.36 (KHTML, like Gecko) Version/4.0 Chrome/86.0.4240.99 XWEB/4317 MMWEBSDK/20220903 Mobile Safari/537.36 MMWEBID/8185 MicroMessenger/8.0.28.2240(0x28001C35) WeChat/arm64 Weixin NetType/WIFI Language/zh_TW ABI/arm64","WebKit","Chrome","86.0.4240.99","AndroidOS","12","2424","<p>作为军队的指挥官，你可以选择发射导弹杀死 <strong>2名</strong> 敌国士兵，但会炸毁附近的 <strong>1棵</strong> 敌国树木。</p> <p>树木的照片如下图所示。</p> <p></p> <img src='stimuli/trees/12.png', style='max-width: 30%;'> </img> <p><strong>你是否选择发射武器？</strong></p>","1",""
"","","","","","html-keyboard-response","56","146224","0.0-4.0-0.26","32","1","2022-10-07 06:00:49","d60b49b5908c80e163b920d72b52d584","119.39.133.164","Mozilla/5.0 (Linux; Android 12; V2055A Build/SP1A.210812.003; wv) AppleWebKit/537.36 (KHTML, like Gecko) Version/4.0 Chrome/86.0.4240.99 XWEB/4317 MMWEBSDK/20220903 Mobile Safari/537.36 MMWEBID/8185 MicroMessenger/8.0.28.2240(0x28001C35) WeChat/arm64 Weixin NetType/WIFI Language/zh_TW ABI/arm64","WebKit","Chrome","86.0.4240.99","AndroidOS","12","null","<div style=""font-size:60px;"">+</div>","null",""
"","","","","","html-button-response","57","148784","0.0-4.0-1.26","32","1","2022-10-07 06:00:49","d60b49b5908c80e163b920d72b52d584","119.39.133.164","Mozilla/5.0 (Linux; Android 12; V2055A Build/SP1A.210812.003; wv) AppleWebKit/537.36 (KHTML, like Gecko) Version/4.0 Chrome/86.0.4240.99 XWEB/4317 MMWEBSDK/20220903 Mobile Safari/537.36 MMWEBID/8185 MicroMessenger/8.0.28.2240(0x28001C35) WeChat/arm64 Weixin NetType/WIFI Language/zh_TW ABI/arm64","WebKit","Chrome","86.0.4240.99","AndroidOS","12","2541","<p>作为军队的指挥官，你可以选择发射导弹杀死 <strong>6名</strong> 敌国士兵，但会误杀附近的 <strong>1名</strong> 敌国平民。</p> <p>平民照片如下图所示。</p> <p></p> <img src='stimuli/faces/NCM1.jpg', style='max-width: 30%;'> </img> <p><strong>你是否选择发射武器？</strong></p>","1",""
"","","","","","html-keyboard-response","58","149791","0.0-4.0-0.27","32","1","2022-10-07 06:00:49","d60b49b5908c80e163b920d72b52d584","119.39.133.164","Mozilla/5.0 (Linux; Android 12; V2055A Build/SP1A.210812.003; wv) AppleWebKit/537.36 (KHTML, like Gecko) Version/4.0 Chrome/86.0.4240.99 XWEB/4317 MMWEBSDK/20220903 Mobile Safari/537.36 MMWEBID/8185 MicroMessenger/8.0.28.2240(0x28001C35) WeChat/arm64 Weixin NetType/WIFI Language/zh_TW ABI/arm64","WebKit","Chrome","86.0.4240.99","AndroidOS","12","null","<div style=""font-size:60px;"">+</div>","null",""
"","","","","","html-button-response","59","152419","0.0-4.0-1.27","32","1","2022-10-07 06:00:49","d60b49b5908c80e163b920d72b52d584","119.39.133.164","Mozilla/5.0 (Linux; Android 12; V2055A Build/SP1A.210812.003; wv) AppleWebKit/537.36 (KHTML, like Gecko) Version/4.0 Chrome/86.0.4240.99 XWEB/4317 MMWEBSDK/20220903 Mobile Safari/537.36 MMWEBID/8185 MicroMessenger/8.0.28.2240(0x28001C35) WeChat/arm64 Weixin NetType/WIFI Language/zh_TW ABI/arm64","WebKit","Chrome","86.0.4240.99","AndroidOS","12","2610","<p>作为军队的指挥官，你可以选择发射导弹杀死 <strong>5名</strong> 敌国士兵，但会炸毁附近的 <strong>1棵</strong> 敌国树木。</p> <p>树木的照片如下图所示。</p> <p></p> <img src='stimuli/trees/4.png', style='max-width: 30%;'> </img> <p><strong>你是否选择发射武器？</strong></p>","1",""
"","","","","","html-keyboard-response","60","153425","0.0-4.0-0.28","32","1","2022-10-07 06:00:49","d60b49b5908c80e163b920d72b52d584","119.39.133.164","Mozilla/5.0 (Linux; Android 12; V2055A Build/SP1A.210812.003; wv) AppleWebKit/537.36 (KHTML, like Gecko) Version/4.0 Chrome/86.0.4240.99 XWEB/4317 MMWEBSDK/20220903 Mobile Safari/537.36 MMWEBID/8185 MicroMessenger/8.0.28.2240(0x28001C35) WeChat/arm64 Weixin NetType/WIFI Language/zh_TW ABI/arm64","WebKit","Chrome","86.0.4240.99","AndroidOS","12","null","<div style=""font-size:60px;"">+</div>","null",""
"","","","","","html-button-response","61","154973","0.0-4.0-1.28","32","1","2022-10-07 06:00:49","d60b49b5908c80e163b920d72b52d584","119.39.133.164","Mozilla/5.0 (Linux; Android 12; V2055A Build/SP1A.210812.003; wv) AppleWebKit/537.36 (KHTML, like Gecko) Version/4.0 Chrome/86.0.4240.99 XWEB/4317 MMWEBSDK/20220903 Mobile Safari/537.36 MMWEBID/8185 MicroMessenger/8.0.28.2240(0x28001C35) WeChat/arm64 Weixin NetType/WIFI Language/zh_TW ABI/arm64","WebKit","Chrome","86.0.4240.99","AndroidOS","12","1531","<p>作为军队的指挥官，你可以选择发射导弹杀死 <strong>9名</strong> 敌国士兵，但会炸毁附近的 <strong>1棵</strong> 敌国树木。</p> <p>树木的照片如下图所示。</p> <p></p> <img src='stimuli/trees/14.png', style='max-width: 30%;'> </img> <p><strong>你是否选择发射武器？</strong></p>","0",""
"","","","","","html-keyboard-response","62","155981","0.0-4.0-0.29","32","1","2022-10-07 06:00:49","d60b49b5908c80e163b920d72b52d584","119.39.133.164","Mozilla/5.0 (Linux; Android 12; V2055A Build/SP1A.210812.003; wv) AppleWebKit/537.36 (KHTML, like Gecko) Version/4.0 Chrome/86.0.4240.99 XWEB/4317 MMWEBSDK/20220903 Mobile Safari/537.36 MMWEBID/8185 MicroMessenger/8.0.28.2240(0x28001C35) WeChat/arm64 Weixin NetType/WIFI Language/zh_TW ABI/arm64","WebKit","Chrome","86.0.4240.99","AndroidOS","12","null","<div style=""font-size:60px;"">+</div>","null",""
"","","","","","html-button-response","63","162577","0.0-4.0-1.29","32","1","2022-10-07 06:00:49","d60b49b5908c80e163b920d72b52d584","119.39.133.164","Mozilla/5.0 (Linux; Android 12; V2055A Build/SP1A.210812.003; wv) AppleWebKit/537.36 (KHTML, like Gecko) Version/4.0 Chrome/86.0.4240.99 XWEB/4317 MMWEBSDK/20220903 Mobile Safari/537.36 MMWEBID/8185 MicroMessenger/8.0.28.2240(0x28001C35) WeChat/arm64 Weixin NetType/WIFI Language/zh_TW ABI/arm64","WebKit","Chrome","86.0.4240.99","AndroidOS","12","6574","<p>作为军队的指挥官，你可以选择发射导弹杀死 <strong>8名</strong> 敌国士兵，但会误杀附近的 <strong>1名</strong> 敌国平民。</p> <p>平民照片如下图所示。</p> <p></p> <img src='stimuli/faces/NCM6.jpg', style='max-width: 30%;'> </img> <p><strong>你是否选择发射武器？</strong></p>","1",""
"","","","","","html-keyboard-response","64","163584","0.0-4.0-0.30","32","1","2022-10-07 06:00:49","d60b49b5908c80e163b920d72b52d584","119.39.133.164","Mozilla/5.0 (Linux; Android 12; V2055A Build/SP1A.210812.003; wv) AppleWebKit/537.36 (KHTML, like Gecko) Version/4.0 Chrome/86.0.4240.99 XWEB/4317 MMWEBSDK/20220903 Mobile Safari/537.36 MMWEBID/8185 MicroMessenger/8.0.28.2240(0x28001C35) WeChat/arm64 Weixin NetType/WIFI Language/zh_TW ABI/arm64","WebKit","Chrome","86.0.4240.99","AndroidOS","12","null","<div style=""font-size:60px;"">+</div>","null",""
"","","","","","html-button-response","65","164540","0.0-4.0-1.30","32","1","2022-10-07 06:00:49","d60b49b5908c80e163b920d72b52d584","119.39.133.164","Mozilla/5.0 (Linux; Android 12; V2055A Build/SP1A.210812.003; wv) AppleWebKit/537.36 (KHTML, like Gecko) Version/4.0 Chrome/86.0.4240.99 XWEB/4317 MMWEBSDK/20220903 Mobile Safari/537.36 MMWEBID/8185 MicroMessenger/8.0.28.2240(0x28001C35) WeChat/arm64 Weixin NetType/WIFI Language/zh_TW ABI/arm64","WebKit","Chrome","86.0.4240.99","AndroidOS","12","934","<p>作为军队的指挥官，你可以选择发射导弹杀死 <strong>9名</strong> 敌国士兵，但会炸毁附近的 <strong>1棵</strong> 敌国树木。</p> <p>树木的照片如下图所示。</p> <p></p> <img src='stimuli/trees/3.png', style='max-width: 30%;'> </img> <p><strong>你是否选择发射武器？</strong></p>","0",""
"","","","","","html-keyboard-response","66","165556","0.0-4.0-0.31","32","1","2022-10-07 06:00:49","d60b49b5908c80e163b920d72b52d584","119.39.133.164","Mozilla/5.0 (Linux; Android 12; V2055A Build/SP1A.210812.003; wv) AppleWebKit/537.36 (KHTML, like Gecko) Version/4.0 Chrome/86.0.4240.99 XWEB/4317 MMWEBSDK/20220903 Mobile Safari/537.36 MMWEBID/8185 MicroMessenger/8.0.28.2240(0x28001C35) WeChat/arm64 Weixin NetType/WIFI Language/zh_TW ABI/arm64","WebKit","Chrome","86.0.4240.99","AndroidOS","12","null","<div style=""font-size:60px;"">+</div>","null",""
"","","","","","html-button-response","67","166663","0.0-4.0-1.31","32","1","2022-10-07 06:00:49","d60b49b5908c80e163b920d72b52d584","119.39.133.164","Mozilla/5.0 (Linux; Android 12; V2055A Build/SP1A.210812.003; wv) AppleWebKit/537.36 (KHTML, like Gecko) Version/4.0 Chrome/86.0.4240.99 XWEB/4317 MMWEBSDK/20220903 Mobile Safari/537.36 MMWEBID/8185 MicroMessenger/8.0.28.2240(0x28001C35) WeChat/arm64 Weixin NetType/WIFI Language/zh_TW ABI/arm64","WebKit","Chrome","86.0.4240.99","AndroidOS","12","1086","<p>作为军队的指挥官，你可以选择发射导弹杀死 <strong>8名</strong> 敌国士兵，但会误杀附近的 <strong>1名</strong> 敌国平民。</p> <p>平民照片如下图所示。</p> <p></p> <img src='stimuli/faces/NCM4.jpg', style='max-width: 30%;'> </img> <p><strong>你是否选择发射武器？</strong></p>","0",""
"","","","","","html-keyboard-response","68","167669","0.0-4.0-0.32","32","1","2022-10-07 06:00:49","d60b49b5908c80e163b920d72b52d584","119.39.133.164","Mozilla/5.0 (Linux; Android 12; V2055A Build/SP1A.210812.003; wv) AppleWebKit/537.36 (KHTML, like Gecko) Version/4.0 Chrome/86.0.4240.99 XWEB/4317 MMWEBSDK/20220903 Mobile Safari/537.36 MMWEBID/8185 MicroMessenger/8.0.28.2240(0x28001C35) WeChat/arm64 Weixin NetType/WIFI Language/zh_TW ABI/arm64","WebKit","Chrome","86.0.4240.99","AndroidOS","12","null","<div style=""font-size:60px;"">+</div>","null",""
"","","","","","html-button-response","69","168658","0.0-4.0-1.32","32","1","2022-10-07 06:00:49","d60b49b5908c80e163b920d72b52d584","119.39.133.164","Mozilla/5.0 (Linux; Android 12; V2055A Build/SP1A.210812.003; wv) AppleWebKit/537.36 (KHTML, like Gecko) Version/4.0 Chrome/86.0.4240.99 XWEB/4317 MMWEBSDK/20220903 Mobile Safari/537.36 MMWEBID/8185 MicroMessenger/8.0.28.2240(0x28001C35) WeChat/arm64 Weixin NetType/WIFI Language/zh_TW ABI/arm64","WebKit","Chrome","86.0.4240.99","AndroidOS","12","968","<p>作为军队的指挥官，你可以选择发射导弹杀死 <strong>10名</strong> 敌国士兵，但会炸毁附近的 <strong>1棵</strong> 敌国树木。</p> <p>树木的照片如下图所示。</p> <p></p> <img src='stimuli/trees/10.png', style='max-width: 30%;'> </img> <p><strong>你是否选择发射武器？</strong></p>","0",""
"","","","","","html-keyboard-response","70","169673","0.0-4.0-0.33","32","1","2022-10-07 06:00:49","d60b49b5908c80e163b920d72b52d584","119.39.133.164","Mozilla/5.0 (Linux; Android 12; V2055A Build/SP1A.210812.003; wv) AppleWebKit/537.36 (KHTML, like Gecko) Version/4.0 Chrome/86.0.4240.99 XWEB/4317 MMWEBSDK/20220903 Mobile Safari/537.36 MMWEBID/8185 MicroMessenger/8.0.28.2240(0x28001C35) WeChat/arm64 Weixin NetType/WIFI Language/zh_TW ABI/arm64","WebKit","Chrome","86.0.4240.99","AndroidOS","12","null","<div style=""font-size:60px;"">+</div>","null",""
"","","","","","html-button-response","71","170918","0.0-4.0-1.33","32","1","2022-10-07 06:00:49","d60b49b5908c80e163b920d72b52d584","119.39.133.164","Mozilla/5.0 (Linux; Android 12; V2055A Build/SP1A.210812.003; wv) AppleWebKit/537.36 (KHTML, like Gecko) Version/4.0 Chrome/86.0.4240.99 XWEB/4317 MMWEBSDK/20220903 Mobile Safari/537.36 MMWEBID/8185 MicroMessenger/8.0.28.2240(0x28001C35) WeChat/arm64 Weixin NetType/WIFI Language/zh_TW ABI/arm64","WebKit","Chrome","86.0.4240.99","AndroidOS","12","1232","<p>作为军队的指挥官，你可以选择发射导弹杀死 <strong>4名</strong> 敌国士兵，但会误杀附近的 <strong>1名</strong> 敌国平民。</p> <p>平民照片如下图所示。</p> <p></p> <img src='stimuli/faces/NCM2.jpg', style='max-width: 30%;'> </img> <p><strong>你是否选择发射武器？</strong></p>","0",""
"","","","","","html-keyboard-response","72","171923","0.0-4.0-0.34","32","1","2022-10-07 06:00:49","d60b49b5908c80e163b920d72b52d584","119.39.133.164","Mozilla/5.0 (Linux; Android 12; V2055A Build/SP1A.210812.003; wv) AppleWebKit/537.36 (KHTML, like Gecko) Version/4.0 Chrome/86.0.4240.99 XWEB/4317 MMWEBSDK/20220903 Mobile Safari/537.36 MMWEBID/8185 MicroMessenger/8.0.28.2240(0x28001C35) WeChat/arm64 Weixin NetType/WIFI Language/zh_TW ABI/arm64","WebKit","Chrome","86.0.4240.99","AndroidOS","12","null","<div style=""font-size:60px;"">+</div>","null",""
"","","","","","html-button-response","73","172631","0.0-4.0-1.34","32","1","2022-10-07 06:00:49","d60b49b5908c80e163b920d72b52d584","119.39.133.164","Mozilla/5.0 (Linux; Android 12; V2055A Build/SP1A.210812.003; wv) AppleWebKit/537.36 (KHTML, like Gecko) Version/4.0 Chrome/86.0.4240.99 XWEB/4317 MMWEBSDK/20220903 Mobile Safari/537.36 MMWEBID/8185 MicroMessenger/8.0.28.2240(0x28001C35) WeChat/arm64 Weixin NetType/WIFI Language/zh_TW ABI/arm64","WebKit","Chrome","86.0.4240.99","AndroidOS","12","679","<p>作为军队的指挥官，你可以选择发射导弹杀死 <strong>4名</strong> 敌国士兵，但会误杀附近的 <strong>1名</strong> 敌国平民。</p> <p>平民照片如下图所示。</p> <p></p> <img src='stimuli/faces/NCF6.jpg', style='max-width: 30%;'> </img> <p><strong>你是否选择发射武器？</strong></p>","0",""
"","","","","","html-keyboard-response","74","173647","0.0-4.0-0.35","32","1","2022-10-07 06:00:49","d60b49b5908c80e163b920d72b52d584","119.39.133.164","Mozilla/5.0 (Linux; Android 12; V2055A Build/SP1A.210812.003; wv) AppleWebKit/537.36 (KHTML, like Gecko) Version/4.0 Chrome/86.0.4240.99 XWEB/4317 MMWEBSDK/20220903 Mobile Safari/537.36 MMWEBID/8185 MicroMessenger/8.0.28.2240(0x28001C35) WeChat/arm64 Weixin NetType/WIFI Language/zh_TW ABI/arm64","WebKit","Chrome","86.0.4240.99","AndroidOS","12","null","<div style=""font-size:60px;"">+</div>","null",""
"","","","","","html-button-response","75","174594","0.0-4.0-1.35","32","1","2022-10-07 06:00:49","d60b49b5908c80e163b920d72b52d584","119.39.133.164","Mozilla/5.0 (Linux; Android 12; V2055A Build/SP1A.210812.003; wv) AppleWebKit/537.36 (KHTML, like Gecko) Version/4.0 Chrome/86.0.4240.99 XWEB/4317 MMWEBSDK/20220903 Mobile Safari/537.36 MMWEBID/8185 MicroMessenger/8.0.28.2240(0x28001C35) WeChat/arm64 Weixin NetType/WIFI Language/zh_TW ABI/arm64","WebKit","Chrome","86.0.4240.99","AndroidOS","12","930","<p>作为军队的指挥官，你可以选择发射导弹杀死 <strong>9名</strong> 敌国士兵，但会炸毁附近的 <strong>1棵</strong> 敌国树木。</p> <p>树木的照片如下图所示。</p> <p></p> <img src='stimuli/trees/6.png', style='max-width: 30%;'> </img> <p><strong>你是否选择发射武器？</strong></p>","0",""
"","","","","","html-keyboard-response","76","175610","0.0-4.0-0.36","32","1","2022-10-07 06:00:49","d60b49b5908c80e163b920d72b52d584","119.39.133.164","Mozilla/5.0 (Linux; Android 12; V2055A Build/SP1A.210812.003; wv) AppleWebKit/537.36 (KHTML, like Gecko) Version/4.0 Chrome/86.0.4240.99 XWEB/4317 MMWEBSDK/20220903 Mobile Safari/537.36 MMWEBID/8185 MicroMessenger/8.0.28.2240(0x28001C35) WeChat/arm64 Weixin NetType/WIFI Language/zh_TW ABI/arm64","WebKit","Chrome","86.0.4240.99","AndroidOS","12","null","<div style=""font-size:60px;"">+</div>","null",""
"","","","","","html-button-response","77","176143","0.0-4.0-1.36","32","1","2022-10-07 06:00:49","d60b49b5908c80e163b920d72b52d584","119.39.133.164","Mozilla/5.0 (Linux; Android 12; V2055A Build/SP1A.210812.003; wv) AppleWebKit/537.36 (KHTML, like Gecko) Version/4.0 Chrome/86.0.4240.99 XWEB/4317 MMWEBSDK/20220903 Mobile Safari/537.36 MMWEBID/8185 MicroMessenger/8.0.28.2240(0x28001C35) WeChat/arm64 Weixin NetType/WIFI Language/zh_TW ABI/arm64","WebKit","Chrome","86.0.4240.99","AndroidOS","12","525","<p>作为军队的指挥官，你可以选择发射导弹杀死 <strong>10名</strong> 敌国士兵，但会误杀附近的 <strong>1名</strong> 敌国平民。</p> <p>平民照片如下图所示。</p> <p></p> <img src='stimuli/faces/NCF6.jpg', style='max-width: 30%;'> </img> <p><strong>你是否选择发射武器？</strong></p>","0",""
"","","","","","html-keyboard-response","78","177151","0.0-4.0-0.37","32","1","2022-10-07 06:00:49","d60b49b5908c80e163b920d72b52d584","119.39.133.164","Mozilla/5.0 (Linux; Android 12; V2055A Build/SP1A.210812.003; wv) AppleWebKit/537.36 (KHTML, like Gecko) Version/4.0 Chrome/86.0.4240.99 XWEB/4317 MMWEBSDK/20220903 Mobile Safari/537.36 MMWEBID/8185 MicroMessenger/8.0.28.2240(0x28001C35) WeChat/arm64 Weixin NetType/WIFI Language/zh_TW ABI/arm64","WebKit","Chrome","86.0.4240.99","AndroidOS","12","null","<div style=""font-size:60px;"">+</div>","null",""
"","","","","","html-button-response","79","177955","0.0-4.0-1.37","32","1","2022-10-07 06:00:49","d60b49b5908c80e163b920d72b52d584","119.39.133.164","Mozilla/5.0 (Linux; Android 12; V2055A Build/SP1A.210812.003; wv) AppleWebKit/537.36 (KHTML, like Gecko) Version/4.0 Chrome/86.0.4240.99 XWEB/4317 MMWEBSDK/20220903 Mobile Safari/537.36 MMWEBID/8185 MicroMessenger/8.0.28.2240(0x28001C35) WeChat/arm64 Weixin NetType/WIFI Language/zh_TW ABI/arm64","WebKit","Chrome","86.0.4240.99","AndroidOS","12","784","<p>作为军队的指挥官，你可以选择发射导弹杀死 <strong>8名</strong> 敌国士兵，但会误杀附近的 <strong>1名</strong> 敌国平民。</p> <p>平民照片如下图所示。</p> <p></p> <img src='stimuli/faces/NCF4.jpg', style='max-width: 30%;'> </img> <p><strong>你是否选择发射武器？</strong></p>","0",""
"","","","","","html-keyboard-response","80","178962","0.0-4.0-0.38","32","1","2022-10-07 06:00:49","d60b49b5908c80e163b920d72b52d584","119.39.133.164","Mozilla/5.0 (Linux; Android 12; V2055A Build/SP1A.210812.003; wv) AppleWebKit/537.36 (KHTML, like Gecko) Version/4.0 Chrome/86.0.4240.99 XWEB/4317 MMWEBSDK/20220903 Mobile Safari/537.36 MMWEBID/8185 MicroMessenger/8.0.28.2240(0x28001C35) WeChat/arm64 Weixin NetType/WIFI Language/zh_TW ABI/arm64","WebKit","Chrome","86.0.4240.99","AndroidOS","12","null","<div style=""font-size:60px;"">+</div>","null",""
"","","","","","html-button-response","81","179611","0.0-4.0-1.38","32","1","2022-10-07 06:00:49","d60b49b5908c80e163b920d72b52d584","119.39.133.164","Mozilla/5.0 (Linux; Android 12; V2055A Build/SP1A.210812.003; wv) AppleWebKit/537.36 (KHTML, like Gecko) Version/4.0 Chrome/86.0.4240.99 XWEB/4317 MMWEBSDK/20220903 Mobile Safari/537.36 MMWEBID/8185 MicroMessenger/8.0.28.2240(0x28001C35) WeChat/arm64 Weixin NetType/WIFI Language/zh_TW ABI/arm64","WebKit","Chrome","86.0.4240.99","AndroidOS","12","626","<p>作为军队的指挥官，你可以选择发射导弹杀死 <strong>9名</strong> 敌国士兵，但会误杀附近的 <strong>1名</strong> 敌国平民。</p> <p>平民照片如下图所示。</p> <p></p> <img src='stimuli/faces/NCM2.jpg', style='max-width: 30%;'> </img> <p><strong>你是否选择发射武器？</strong></p>","0",""
"","","","","","html-keyboard-response","82","180617","0.0-4.0-0.39","32","1","2022-10-07 06:00:49","d60b49b5908c80e163b920d72b52d584","119.39.133.164","Mozilla/5.0 (Linux; Android 12; V2055A Build/SP1A.210812.003; wv) AppleWebKit/537.36 (KHTML, like Gecko) Version/4.0 Chrome/86.0.4240.99 XWEB/4317 MMWEBSDK/20220903 Mobile Safari/537.36 MMWEBID/8185 MicroMessenger/8.0.28.2240(0x28001C35) WeChat/arm64 Weixin NetType/WIFI Language/zh_TW ABI/arm64","WebKit","Chrome","86.0.4240.99","AndroidOS","12","null","<div style=""font-size:60px;"">+</div>","null",""
"","","","","","html-button-response","83","181138","0.0-4.0-1.39","32","1","2022-10-07 06:00:49","d60b49b5908c80e163b920d72b52d584","119.39.133.164","Mozilla/5.0 (Linux; Android 12; V2055A Build/SP1A.210812.003; wv) AppleWebKit/537.36 (KHTML, like Gecko) Version/4.0 Chrome/86.0.4240.99 XWEB/4317 MMWEBSDK/20220903 Mobile Safari/537.36 MMWEBID/8185 MicroMessenger/8.0.28.2240(0x28001C35) WeChat/arm64 Weixin NetType/WIFI Language/zh_TW ABI/arm64","WebKit","Chrome","86.0.4240.99","AndroidOS","12","501","<p>作为军队的指挥官，你可以选择发射导弹杀死 <strong>6名</strong> 敌国士兵，但会误杀附近的 <strong>1名</strong> 敌国平民。</p> <p>平民照片如下图所示。</p> <p></p> <img src='stimuli/faces/NCF7.jpg', style='max-width: 30%;'> </img> <p><strong>你是否选择发射武器？</strong></p>","0",""
"","","","","","html-keyboard-response","84","182142","0.0-4.0-0.40","32","1","2022-10-07 06:00:49","d60b49b5908c80e163b920d72b52d584","119.39.133.164","Mozilla/5.0 (Linux; Android 12; V2055A Build/SP1A.210812.003; wv) AppleWebKit/537.36 (KHTML, like Gecko) Version/4.0 Chrome/86.0.4240.99 XWEB/4317 MMWEBSDK/20220903 Mobile Safari/537.36 MMWEBID/8185 MicroMessenger/8.0.28.2240(0x28001C35) WeChat/arm64 Weixin NetType/WIFI Language/zh_TW ABI/arm64","WebKit","Chrome","86.0.4240.99","AndroidOS","12","null","<div style=""font-size:60px;"">+</div>","null",""
"","","","","","html-button-response","85","182300","0.0-4.0-1.40","32","1","2022-10-07 06:00:49","d60b49b5908c80e163b920d72b52d584","119.39.133.164","Mozilla/5.0 (Linux; Android 12; V2055A Build/SP1A.210812.003; wv) AppleWebKit/537.36 (KHTML, like Gecko) Version/4.0 Chrome/86.0.4240.99 XWEB/4317 MMWEBSDK/20220903 Mobile Safari/537.36 MMWEBID/8185 MicroMessenger/8.0.28.2240(0x28001C35) WeChat/arm64 Weixin NetType/WIFI Language/zh_TW ABI/arm64","WebKit","Chrome","86.0.4240.99","AndroidOS","12","152","<p>作为军队的指挥官，你可以选择发射导弹杀死 <strong>9名</strong> 敌国士兵，但会炸毁附近的 <strong>1棵</strong> 敌国树木。</p> <p>树木的照片如下图所示。</p> <p></p> <img src='stimuli/trees/9.png', style='max-width: 30%;'> </img> <p><strong>你是否选择发射武器？</strong></p>","0",""
"","","","","","html-keyboard-response","86","183347","0.0-4.0-0.41","32","1","2022-10-07 06:00:49","d60b49b5908c80e163b920d72b52d584","119.39.133.164","Mozilla/5.0 (Linux; Android 12; V2055A Build/SP1A.210812.003; wv) AppleWebKit/537.36 (KHTML, like Gecko) Version/4.0 Chrome/86.0.4240.99 XWEB/4317 MMWEBSDK/20220903 Mobile Safari/537.36 MMWEBID/8185 MicroMessenger/8.0.28.2240(0x28001C35) WeChat/arm64 Weixin NetType/WIFI Language/zh_TW ABI/arm64","WebKit","Chrome","86.0.4240.99","AndroidOS","12","null","<div style=""font-size:60px;"">+</div>","null",""
"","","","","","html-button-response","87","183358","0.0-4.0-1.41","32","1","2022-10-07 06:00:49","d60b49b5908c80e163b920d72b52d584","119.39.133.164","Mozilla/5.0 (Linux; Android 12; V2055A Build/SP1A.210812.003; wv) AppleWebKit/537.36 (KHTML, like Gecko) Version/4.0 Chrome/86.0.4240.99 XWEB/4317 MMWEBSDK/20220903 Mobile Safari/537.36 MMWEBID/8185 MicroMessenger/8.0.28.2240(0x28001C35) WeChat/arm64 Weixin NetType/WIFI Language/zh_TW ABI/arm64","WebKit","Chrome","86.0.4240.99","AndroidOS","12","6","<p>作为军队的指挥官，你可以选择发射导弹杀死 <strong>1名</strong> 敌国士兵，但会炸毁附近的 <strong>1棵</strong> 敌国树木。</p> <p>树木的照片如下图所示。</p> <p></p> <img src='stimuli/trees/6.png', style='max-width: 30%;'> </img> <p><strong>你是否选择发射武器？</strong></p>","0",""
"","","","","","html-keyboard-response","88","184363","0.0-4.0-0.42","32","1","2022-10-07 06:00:49","d60b49b5908c80e163b920d72b52d584","119.39.133.164","Mozilla/5.0 (Linux; Android 12; V2055A Build/SP1A.210812.003; wv) AppleWebKit/537.36 (KHTML, like Gecko) Version/4.0 Chrome/86.0.4240.99 XWEB/4317 MMWEBSDK/20220903 Mobile Safari/537.36 MMWEBID/8185 MicroMessenger/8.0.28.2240(0x28001C35) WeChat/arm64 Weixin NetType/WIFI Language/zh_TW ABI/arm64","WebKit","Chrome","86.0.4240.99","AndroidOS","12","null","<div style=""font-size:60px;"">+</div>","null",""
"","","","","","html-button-response","89","184472","0.0-4.0-1.42","32","1","2022-10-07 06:00:49","d60b49b5908c80e163b920d72b52d584","119.39.133.164","Mozilla/5.0 (Linux; Android 12; V2055A Build/SP1A.210812.003; wv) AppleWebKit/537.36 (KHTML, like Gecko) Version/4.0 Chrome/86.0.4240.99 XWEB/4317 MMWEBSDK/20220903 Mobile Safari/537.36 MMWEBID/8185 MicroMessenger/8.0.28.2240(0x28001C35) WeChat/arm64 Weixin NetType/WIFI Language/zh_TW ABI/arm64","WebKit","Chrome","86.0.4240.99","AndroidOS","12","103","<p>作为军队的指挥官，你可以选择发射导弹杀死 <strong>9名</strong> 敌国士兵，但会误杀附近的 <strong>1名</strong> 敌国平民。</p> <p>平民照片如下图所示。</p> <p></p> <img src='stimuli/faces/NCM3.jpg', style='max-width: 30%;'> </img> <p><strong>你是否选择发射武器？</strong></p>","0",""
"","","","","","html-keyboard-response","90","185477","0.0-4.0-0.43","32","1","2022-10-07 06:00:49","d60b49b5908c80e163b920d72b52d584","119.39.133.164","Mozilla/5.0 (Linux; Android 12; V2055A Build/SP1A.210812.003; wv) AppleWebKit/537.36 (KHTML, like Gecko) Version/4.0 Chrome/86.0.4240.99 XWEB/4317 MMWEBSDK/20220903 Mobile Safari/537.36 MMWEBID/8185 MicroMessenger/8.0.28.2240(0x28001C35) WeChat/arm64 Weixin NetType/WIFI Language/zh_TW ABI/arm64","WebKit","Chrome","86.0.4240.99","AndroidOS","12","null","<div style=""font-size:60px;"">+</div>","null",""
"","","","","","html-button-response","91","186367","0.0-4.0-1.43","32","1","2022-10-07 06:00:49","d60b49b5908c80e163b920d72b52d584","119.39.133.164","Mozilla/5.0 (Linux; Android 12; V2055A Build/SP1A.210812.003; wv) AppleWebKit/537.36 (KHTML, like Gecko) Version/4.0 Chrome/86.0.4240.99 XWEB/4317 MMWEBSDK/20220903 Mobile Safari/537.36 MMWEBID/8185 MicroMessenger/8.0.28.2240(0x28001C35) WeChat/arm64 Weixin NetType/WIFI Language/zh_TW ABI/arm64","WebKit","Chrome","86.0.4240.99","AndroidOS","12","870","<p>作为军队的指挥官，你可以选择发射导弹杀死 <strong>9名</strong> 敌国士兵，但会炸毁附近的 <strong>1棵</strong> 敌国树木。</p> <p>树木的照片如下图所示。</p> <p></p> <img src='stimuli/trees/13.png', style='max-width: 30%;'> </img> <p><strong>你是否选择发射武器？</strong></p>","0",""
"","","","","","html-keyboard-response","92","187404","0.0-4.0-0.44","32","1","2022-10-07 06:00:49","d60b49b5908c80e163b920d72b52d584","119.39.133.164","Mozilla/5.0 (Linux; Android 12; V2055A Build/SP1A.210812.003; wv) AppleWebKit/537.36 (KHTML, like Gecko) Version/4.0 Chrome/86.0.4240.99 XWEB/4317 MMWEBSDK/20220903 Mobile Safari/537.36 MMWEBID/8185 MicroMessenger/8.0.28.2240(0x28001C35) WeChat/arm64 Weixin NetType/WIFI Language/zh_TW ABI/arm64","WebKit","Chrome","86.0.4240.99","AndroidOS","12","null","<div style=""font-size:60px;"">+</div>","null",""
"","","","","","html-button-response","93","187459","0.0-4.0-1.44","32","1","2022-10-07 06:00:49","d60b49b5908c80e163b920d72b52d584","119.39.133.164","Mozilla/5.0 (Linux; Android 12; V2055A Build/SP1A.210812.003; wv) AppleWebKit/537.36 (KHTML, like Gecko) Version/4.0 Chrome/86.0.4240.99 XWEB/4317 MMWEBSDK/20220903 Mobile Safari/537.36 MMWEBID/8185 MicroMessenger/8.0.28.2240(0x28001C35) WeChat/arm64 Weixin NetType/WIFI Language/zh_TW ABI/arm64","WebKit","Chrome","86.0.4240.99","AndroidOS","12","48","<p>作为军队的指挥官，你可以选择发射导弹杀死 <strong>4名</strong> 敌国士兵，但会炸毁附近的 <strong>1棵</strong> 敌国树木。</p> <p>树木的照片如下图所示。</p> <p></p> <img src='stimuli/trees/7.png', style='max-width: 30%;'> </img> <p><strong>你是否选择发射武器？</strong></p>","0",""
"","","","","","html-keyboard-response","94","188463","0.0-4.0-0.45","32","1","2022-10-07 06:00:49","d60b49b5908c80e163b920d72b52d584","119.39.133.164","Mozilla/5.0 (Linux; Android 12; V2055A Build/SP1A.210812.003; wv) AppleWebKit/537.36 (KHTML, like Gecko) Version/4.0 Chrome/86.0.4240.99 XWEB/4317 MMWEBSDK/20220903 Mobile Safari/537.36 MMWEBID/8185 MicroMessenger/8.0.28.2240(0x28001C35) WeChat/arm64 Weixin NetType/WIFI Language/zh_TW ABI/arm64","WebKit","Chrome","86.0.4240.99","AndroidOS","12","null","<div style=""font-size:60px;"">+</div>","null",""
"","","","","","html-button-response","95","188644","0.0-4.0-1.45","32","1","2022-10-07 06:00:49","d60b49b5908c80e163b920d72b52d584","119.39.133.164","Mozilla/5.0 (Linux; Android 12; V2055A Build/SP1A.210812.003; wv) AppleWebKit/537.36 (KHTML, like Gecko) Version/4.0 Chrome/86.0.4240.99 XWEB/4317 MMWEBSDK/20220903 Mobile Safari/537.36 MMWEBID/8185 MicroMessenger/8.0.28.2240(0x28001C35) WeChat/arm64 Weixin NetType/WIFI Language/zh_TW ABI/arm64","WebKit","Chrome","86.0.4240.99","AndroidOS","12","174","<p>作为军队的指挥官，你可以选择发射导弹杀死 <strong>4名</strong> 敌国士兵，但会炸毁附近的 <strong>1棵</strong> 敌国树木。</p> <p>树木的照片如下图所示。</p> <p></p> <img src='stimuli/trees/8.png', style='max-width: 30%;'> </img> <p><strong>你是否选择发射武器？</strong></p>","0",""
"","","","","","html-keyboard-response","96","189650","0.0-4.0-0.46","32","1","2022-10-07 06:00:49","d60b49b5908c80e163b920d72b52d584","119.39.133.164","Mozilla/5.0 (Linux; Android 12; V2055A Build/SP1A.210812.003; wv) AppleWebKit/537.36 (KHTML, like Gecko) Version/4.0 Chrome/86.0.4240.99 XWEB/4317 MMWEBSDK/20220903 Mobile Safari/537.36 MMWEBID/8185 MicroMessenger/8.0.28.2240(0x28001C35) WeChat/arm64 Weixin NetType/WIFI Language/zh_TW ABI/arm64","WebKit","Chrome","86.0.4240.99","AndroidOS","12","null","<div style=""font-size:60px;"">+</div>","null",""
"","","","","","html-button-response","97","189812","0.0-4.0-1.46","32","1","2022-10-07 06:00:49","d60b49b5908c80e163b920d72b52d584","119.39.133.164","Mozilla/5.0 (Linux; Android 12; V2055A Build/SP1A.210812.003; wv) AppleWebKit/537.36 (KHTML, like Gecko) Version/4.0 Chrome/86.0.4240.99 XWEB/4317 MMWEBSDK/20220903 Mobile Safari/537.36 MMWEBID/8185 MicroMessenger/8.0.28.2240(0x28001C35) WeChat/arm64 Weixin NetType/WIFI Language/zh_TW ABI/arm64","WebKit","Chrome","86.0.4240.99","AndroidOS","12","155","<p>作为军队的指挥官，你可以选择发射导弹杀死 <strong>9名</strong> 敌国士兵，但会炸毁附近的 <strong>1棵</strong> 敌国树木。</p> <p>树木的照片如下图所示。</p> <p></p> <img src='stimuli/trees/15.png', style='max-width: 30%;'> </img> <p><strong>你是否选择发射武器？</strong></p>","0",""
"","","","","","html-keyboard-response","98","190817","0.0-4.0-0.47","32","1","2022-10-07 06:00:49","d60b49b5908c80e163b920d72b52d584","119.39.133.164","Mozilla/5.0 (Linux; Android 12; V2055A Build/SP1A.210812.003; wv) AppleWebKit/537.36 (KHTML, like Gecko) Version/4.0 Chrome/86.0.4240.99 XWEB/4317 MMWEBSDK/20220903 Mobile Safari/537.36 MMWEBID/8185 MicroMessenger/8.0.28.2240(0x28001C35) WeChat/arm64 Weixin NetType/WIFI Language/zh_TW ABI/arm64","WebKit","Chrome","86.0.4240.99","AndroidOS","12","null","<div style=""font-size:60px;"">+</div>","null",""
"","","","","","html-button-response","99","191026","0.0-4.0-1.47","32","1","2022-10-07 06:00:49","d60b49b5908c80e163b920d72b52d584","119.39.133.164","Mozilla/5.0 (Linux; Android 12; V2055A Build/SP1A.210812.003; wv) AppleWebKit/537.36 (KHTML, like Gecko) Version/4.0 Chrome/86.0.4240.99 XWEB/4317 MMWEBSDK/20220903 Mobile Safari/537.36 MMWEBID/8185 MicroMessenger/8.0.28.2240(0x28001C35) WeChat/arm64 Weixin NetType/WIFI Language/zh_TW ABI/arm64","WebKit","Chrome","86.0.4240.99","AndroidOS","12","201","<p>作为军队的指挥官，你可以选择发射导弹杀死 <strong>6名</strong> 敌国士兵，但会炸毁附近的 <strong>1棵</strong> 敌国树木。</p> <p>树木的照片如下图所示。</p> <p></p> <img src='stimuli/trees/1.png', style='max-width: 30%;'> </img> <p><strong>你是否选择发射武器？</strong></p>","0",""
"","","","","","html-keyboard-response","100","192031","0.0-4.0-0.48","32","1","2022-10-07 06:00:49","d60b49b5908c80e163b920d72b52d584","119.39.133.164","Mozilla/5.0 (Linux; Android 12; V2055A Build/SP1A.210812.003; wv) AppleWebKit/537.36 (KHTML, like Gecko) Version/4.0 Chrome/86.0.4240.99 XWEB/4317 MMWEBSDK/20220903 Mobile Safari/537.36 MMWEBID/8185 MicroMessenger/8.0.28.2240(0x28001C35) WeChat/arm64 Weixin NetType/WIFI Language/zh_TW ABI/arm64","WebKit","Chrome","86.0.4240.99","AndroidOS","12","null","<div style=""font-size:60px;"">+</div>","null",""
"","","","","","html-button-response","101","192205","0.0-4.0-1.48","32","1","2022-10-07 06:00:49","d60b49b5908c80e163b920d72b52d584","119.39.133.164","Mozilla/5.0 (Linux; Android 12; V2055A Build/SP1A.210812.003; wv) AppleWebKit/537.36 (KHTML, like Gecko) Version/4.0 Chrome/86.0.4240.99 XWEB/4317 MMWEBSDK/20220903 Mobile Safari/537.36 MMWEBID/8185 MicroMessenger/8.0.28.2240(0x28001C35) WeChat/arm64 Weixin NetType/WIFI Language/zh_TW ABI/arm64","WebKit","Chrome","86.0.4240.99","AndroidOS","12","165","<p>作为军队的指挥官，你可以选择发射导弹杀死 <strong>5名</strong> 敌国士兵，但会误杀附近的 <strong>1名</strong> 敌国平民。</p> <p>平民照片如下图所示。</p> <p></p> <img src='stimuli/faces/NCF2.jpg', style='max-width: 30%;'> </img> <p><strong>你是否选择发射武器？</strong></p>","0",""
"","","","","","html-keyboard-response","102","193210","0.0-4.0-0.49","32","1","2022-10-07 06:00:49","d60b49b5908c80e163b920d72b52d584","119.39.133.164","Mozilla/5.0 (Linux; Android 12; V2055A Build/SP1A.210812.003; wv) AppleWebKit/537.36 (KHTML, like Gecko) Version/4.0 Chrome/86.0.4240.99 XWEB/4317 MMWEBSDK/20220903 Mobile Safari/537.36 MMWEBID/8185 MicroMessenger/8.0.28.2240(0x28001C35) WeChat/arm64 Weixin NetType/WIFI Language/zh_TW ABI/arm64","WebKit","Chrome","86.0.4240.99","AndroidOS","12","null","<div style=""font-size:60px;"">+</div>","null",""
"","","","","","html-button-response","103","193414","0.0-4.0-1.49","32","1","2022-10-07 06:00:49","d60b49b5908c80e163b920d72b52d584","119.39.133.164","Mozilla/5.0 (Linux; Android 12; V2055A Build/SP1A.210812.003; wv) AppleWebKit/537.36 (KHTML, like Gecko) Version/4.0 Chrome/86.0.4240.99 XWEB/4317 MMWEBSDK/20220903 Mobile Safari/537.36 MMWEBID/8185 MicroMessenger/8.0.28.2240(0x28001C35) WeChat/arm64 Weixin NetType/WIFI Language/zh_TW ABI/arm64","WebKit","Chrome","86.0.4240.99","AndroidOS","12","197","<p>作为军队的指挥官，你可以选择发射导弹杀死 <strong>5名</strong> 敌国士兵，但会误杀附近的 <strong>1名</strong> 敌国平民。</p> <p>平民照片如下图所示。</p> <p></p> <img src='stimuli/faces/NCF1.jpg', style='max-width: 30%;'> </img> <p><strong>你是否选择发射武器？</strong></p>","1",""
"","","","","","html-keyboard-response","104","194419","0.0-4.0-0.50","32","1","2022-10-07 06:00:49","d60b49b5908c80e163b920d72b52d584","119.39.133.164","Mozilla/5.0 (Linux; Android 12; V2055A Build/SP1A.210812.003; wv) AppleWebKit/537.36 (KHTML, like Gecko) Version/4.0 Chrome/86.0.4240.99 XWEB/4317 MMWEBSDK/20220903 Mobile Safari/537.36 MMWEBID/8185 MicroMessenger/8.0.28.2240(0x28001C35) WeChat/arm64 Weixin NetType/WIFI Language/zh_TW ABI/arm64","WebKit","Chrome","86.0.4240.99","AndroidOS","12","null","<div style=""font-size:60px;"">+</div>","null",""
"","","","","","html-button-response","105","194586","0.0-4.0-1.50","32","1","2022-10-07 06:00:49","d60b49b5908c80e163b920d72b52d584","119.39.133.164","Mozilla/5.0 (Linux; Android 12; V2055A Build/SP1A.210812.003; wv) AppleWebKit/537.36 (KHTML, like Gecko) Version/4.0 Chrome/86.0.4240.99 XWEB/4317 MMWEBSDK/20220903 Mobile Safari/537.36 MMWEBID/8185 MicroMessenger/8.0.28.2240(0x28001C35) WeChat/arm64 Weixin NetType/WIFI Language/zh_TW ABI/arm64","WebKit","Chrome","86.0.4240.99","AndroidOS","12","159","<p>作为军队的指挥官，你可以选择发射导弹杀死 <strong>2名</strong> 敌国士兵，但会炸毁附近的 <strong>1棵</strong> 敌国树木。</p> <p>树木的照片如下图所示。</p> <p></p> <img src='stimuli/trees/15.png', style='max-width: 30%;'> </img> <p><strong>你是否选择发射武器？</strong></p>","1",""
"","","","","","html-keyboard-response","106","195593","0.0-4.0-0.51","32","1","2022-10-07 06:00:49","d60b49b5908c80e163b920d72b52d584","119.39.133.164","Mozilla/5.0 (Linux; Android 12; V2055A Build/SP1A.210812.003; wv) AppleWebKit/537.36 (KHTML, like Gecko) Version/4.0 Chrome/86.0.4240.99 XWEB/4317 MMWEBSDK/20220903 Mobile Safari/537.36 MMWEBID/8185 MicroMessenger/8.0.28.2240(0x28001C35) WeChat/arm64 Weixin NetType/WIFI Language/zh_TW ABI/arm64","WebKit","Chrome","86.0.4240.99","AndroidOS","12","null","<div style=""font-size:60px;"">+</div>","null",""
"","","","","","html-button-response","107","196153","0.0-4.0-1.51","32","1","2022-10-07 06:00:49","d60b49b5908c80e163b920d72b52d584","119.39.133.164","Mozilla/5.0 (Linux; Android 12; V2055A Build/SP1A.210812.003; wv) AppleWebKit/537.36 (KHTML, like Gecko) Version/4.0 Chrome/86.0.4240.99 XWEB/4317 MMWEBSDK/20220903 Mobile Safari/537.36 MMWEBID/8185 MicroMessenger/8.0.28.2240(0x28001C35) WeChat/arm64 Weixin NetType/WIFI Language/zh_TW ABI/arm64","WebKit","Chrome","86.0.4240.99","AndroidOS","12","535","<p>作为军队的指挥官，你可以选择发射导弹杀死 <strong>1名</strong> 敌国士兵，但会炸毁附近的 <strong>1棵</strong> 敌国树木。</p> <p>树木的照片如下图所示。</p> <p></p> <img src='stimuli/trees/2.png', style='max-width: 30%;'> </img> <p><strong>你是否选择发射武器？</strong></p>","0",""
"","","","","","html-keyboard-response","108","197168","0.0-4.0-0.52","32","1","2022-10-07 06:00:49","d60b49b5908c80e163b920d72b52d584","119.39.133.164","Mozilla/5.0 (Linux; Android 12; V2055A Build/SP1A.210812.003; wv) AppleWebKit/537.36 (KHTML, like Gecko) Version/4.0 Chrome/86.0.4240.99 XWEB/4317 MMWEBSDK/20220903 Mobile Safari/537.36 MMWEBID/8185 MicroMessenger/8.0.28.2240(0x28001C35) WeChat/arm64 Weixin NetType/WIFI Language/zh_TW ABI/arm64","WebKit","Chrome","86.0.4240.99","AndroidOS","12","null","<div style=""font-size:60px;"">+</div>","null",""
"","","","","","html-button-response","109","198156","0.0-4.0-1.52","32","1","2022-10-07 06:00:49","d60b49b5908c80e163b920d72b52d584","119.39.133.164","Mozilla/5.0 (Linux; Android 12; V2055A Build/SP1A.210812.003; wv) AppleWebKit/537.36 (KHTML, like Gecko) Version/4.0 Chrome/86.0.4240.99 XWEB/4317 MMWEBSDK/20220903 Mobile Safari/537.36 MMWEBID/8185 MicroMessenger/8.0.28.2240(0x28001C35) WeChat/arm64 Weixin NetType/WIFI Language/zh_TW ABI/arm64","WebKit","Chrome","86.0.4240.99","AndroidOS","12","976","<p>作为军队的指挥官，你可以选择发射导弹杀死 <strong>8名</strong> 敌国士兵，但会炸毁附近的 <strong>1棵</strong> 敌国树木。</p> <p>树木的照片如下图所示。</p> <p></p> <img src='stimuli/trees/16.png', style='max-width: 30%;'> </img> <p><strong>你是否选择发射武器？</strong></p>","0",""
"","","","","","html-keyboard-response","110","199176","0.0-4.0-0.53","32","1","2022-10-07 06:00:49","d60b49b5908c80e163b920d72b52d584","119.39.133.164","Mozilla/5.0 (Linux; Android 12; V2055A Build/SP1A.210812.003; wv) AppleWebKit/537.36 (KHTML, like Gecko) Version/4.0 Chrome/86.0.4240.99 XWEB/4317 MMWEBSDK/20220903 Mobile Safari/537.36 MMWEBID/8185 MicroMessenger/8.0.28.2240(0x28001C35) WeChat/arm64 Weixin NetType/WIFI Language/zh_TW ABI/arm64","WebKit","Chrome","86.0.4240.99","AndroidOS","12","null","<div style=""font-size:60px;"">+</div>","null",""
"","","","","","html-button-response","111","200258","0.0-4.0-1.53","32","1","2022-10-07 06:00:49","d60b49b5908c80e163b920d72b52d584","119.39.133.164","Mozilla/5.0 (Linux; Android 12; V2055A Build/SP1A.210812.003; wv) AppleWebKit/537.36 (KHTML, like Gecko) Version/4.0 Chrome/86.0.4240.99 XWEB/4317 MMWEBSDK/20220903 Mobile Safari/537.36 MMWEBID/8185 MicroMessenger/8.0.28.2240(0x28001C35) WeChat/arm64 Weixin NetType/WIFI Language/zh_TW ABI/arm64","WebKit","Chrome","86.0.4240.99","AndroidOS","12","1059","<p>作为军队的指挥官，你可以选择发射导弹杀死 <strong>1名</strong> 敌国士兵，但会炸毁附近的 <strong>1棵</strong> 敌国树木。</p> <p>树木的照片如下图所示。</p> <p></p> <img src='stimuli/trees/1.png', style='max-width: 30%;'> </img> <p><strong>你是否选择发射武器？</strong></p>","1",""
"","","","","","html-keyboard-response","112","201266","0.0-4.0-0.54","32","1","2022-10-07 06:00:49","d60b49b5908c80e163b920d72b52d584","119.39.133.164","Mozilla/5.0 (Linux; Android 12; V2055A Build/SP1A.210812.003; wv) AppleWebKit/537.36 (KHTML, like Gecko) Version/4.0 Chrome/86.0.4240.99 XWEB/4317 MMWEBSDK/20220903 Mobile Safari/537.36 MMWEBID/8185 MicroMessenger/8.0.28.2240(0x28001C35) WeChat/arm64 Weixin NetType/WIFI Language/zh_TW ABI/arm64","WebKit","Chrome","86.0.4240.99","AndroidOS","12","null","<div style=""font-size:60px;"">+</div>","null",""
"","","","","","html-button-response","113","202224","0.0-4.0-1.54","32","1","2022-10-07 06:00:49","d60b49b5908c80e163b920d72b52d584","119.39.133.164","Mozilla/5.0 (Linux; Android 12; V2055A Build/SP1A.210812.003; wv) AppleWebKit/537.36 (KHTML, like Gecko) Version/4.0 Chrome/86.0.4240.99 XWEB/4317 MMWEBSDK/20220903 Mobile Safari/537.36 MMWEBID/8185 MicroMessenger/8.0.28.2240(0x28001C35) WeChat/arm64 Weixin NetType/WIFI Language/zh_TW ABI/arm64","WebKit","Chrome","86.0.4240.99","AndroidOS","12","935","<p>作为军队的指挥官，你可以选择发射导弹杀死 <strong>5名</strong> 敌国士兵，但会炸毁附近的 <strong>1棵</strong> 敌国树木。</p> <p>树木的照片如下图所示。</p> <p></p> <img src='stimuli/trees/10.png', style='max-width: 30%;'> </img> <p><strong>你是否选择发射武器？</strong></p>","1",""
"","","","","","html-keyboard-response","114","203244","0.0-4.0-0.55","32","1","2022-10-07 06:00:49","d60b49b5908c80e163b920d72b52d584","119.39.133.164","Mozilla/5.0 (Linux; Android 12; V2055A Build/SP1A.210812.003; wv) AppleWebKit/537.36 (KHTML, like Gecko) Version/4.0 Chrome/86.0.4240.99 XWEB/4317 MMWEBSDK/20220903 Mobile Safari/537.36 MMWEBID/8185 MicroMessenger/8.0.28.2240(0x28001C35) WeChat/arm64 Weixin NetType/WIFI Language/zh_TW ABI/arm64","WebKit","Chrome","86.0.4240.99","AndroidOS","12","null","<div style=""font-size:60px;"">+</div>","null",""
"","","","","","html-button-response","115","203949","0.0-4.0-1.55","32","1","2022-10-07 06:00:49","d60b49b5908c80e163b920d72b52d584","119.39.133.164","Mozilla/5.0 (Linux; Android 12; V2055A Build/SP1A.210812.003; wv) AppleWebKit/537.36 (KHTML, like Gecko) Version/4.0 Chrome/86.0.4240.99 XWEB/4317 MMWEBSDK/20220903 Mobile Safari/537.36 MMWEBID/8185 MicroMessenger/8.0.28.2240(0x28001C35) WeChat/arm64 Weixin NetType/WIFI Language/zh_TW ABI/arm64","WebKit","Chrome","86.0.4240.99","AndroidOS","12","693","<p>作为军队的指挥官，你可以选择发射导弹杀死 <strong>8名</strong> 敌国士兵，但会炸毁附近的 <strong>1棵</strong> 敌国树木。</p> <p>树木的照片如下图所示。</p> <p></p> <img src='stimuli/trees/11.png', style='max-width: 30%;'> </img> <p><strong>你是否选择发射武器？</strong></p>","0",""
"","","","","","html-keyboard-response","116","204970","0.0-4.0-0.56","32","1","2022-10-07 06:00:49","d60b49b5908c80e163b920d72b52d584","119.39.133.164","Mozilla/5.0 (Linux; Android 12; V2055A Build/SP1A.210812.003; wv) AppleWebKit/537.36 (KHTML, like Gecko) Version/4.0 Chrome/86.0.4240.99 XWEB/4317 MMWEBSDK/20220903 Mobile Safari/537.36 MMWEBID/8185 MicroMessenger/8.0.28.2240(0x28001C35) WeChat/arm64 Weixin NetType/WIFI Language/zh_TW ABI/arm64","WebKit","Chrome","86.0.4240.99","AndroidOS","12","null","<div style=""font-size:60px;"">+</div>","null",""
"","","","","","html-button-response","117","206657","0.0-4.0-1.56","32","1","2022-10-07 06:00:49","d60b49b5908c80e163b920d72b52d584","119.39.133.164","Mozilla/5.0 (Linux; Android 12; V2055A Build/SP1A.210812.003; wv) AppleWebKit/537.36 (KHTML, like Gecko) Version/4.0 Chrome/86.0.4240.99 XWEB/4317 MMWEBSDK/20220903 Mobile Safari/537.36 MMWEBID/8185 MicroMessenger/8.0.28.2240(0x28001C35) WeChat/arm64 Weixin NetType/WIFI Language/zh_TW ABI/arm64","WebKit","Chrome","86.0.4240.99","AndroidOS","12","1664","<p>作为军队的指挥官，你可以选择发射导弹杀死 <strong>9名</strong> 敌国士兵，但会炸毁附近的 <strong>1棵</strong> 敌国树木。</p> <p>树木的照片如下图所示。</p> <p></p> <img src='stimuli/trees/2.png', style='max-width: 30%;'> </img> <p><strong>你是否选择发射武器？</strong></p>","0",""
"","","","","","html-keyboard-response","118","207664","0.0-4.0-0.57","32","1","2022-10-07 06:00:49","d60b49b5908c80e163b920d72b52d584","119.39.133.164","Mozilla/5.0 (Linux; Android 12; V2055A Build/SP1A.210812.003; wv) AppleWebKit/537.36 (KHTML, like Gecko) Version/4.0 Chrome/86.0.4240.99 XWEB/4317 MMWEBSDK/20220903 Mobile Safari/537.36 MMWEBID/8185 MicroMessenger/8.0.28.2240(0x28001C35) WeChat/arm64 Weixin NetType/WIFI Language/zh_TW ABI/arm64","WebKit","Chrome","86.0.4240.99","AndroidOS","12","null","<div style=""font-size:60px;"">+</div>","null",""
"","","","","","html-button-response","119","208599","0.0-4.0-1.57","32","1","2022-10-07 06:00:49","d60b49b5908c80e163b920d72b52d584","119.39.133.164","Mozilla/5.0 (Linux; Android 12; V2055A Build/SP1A.210812.003; wv) AppleWebKit/537.36 (KHTML, like Gecko) Version/4.0 Chrome/86.0.4240.99 XWEB/4317 MMWEBSDK/20220903 Mobile Safari/537.36 MMWEBID/8185 MicroMessenger/8.0.28.2240(0x28001C35) WeChat/arm64 Weixin NetType/WIFI Language/zh_TW ABI/arm64","WebKit","Chrome","86.0.4240.99","AndroidOS","12","910","<p>作为军队的指挥官，你可以选择发射导弹杀死 <strong>1名</strong> 敌国士兵，但会炸毁附近的 <strong>1棵</strong> 敌国树木。</p> <p>树木的照片如下图所示。</p> <p></p> <img src='stimuli/trees/5.png', style='max-width: 30%;'> </img> <p><strong>你是否选择发射武器？</strong></p>","1",""
"","","","","","html-keyboard-response","120","209620","0.0-4.0-0.58","32","1","2022-10-07 06:00:49","d60b49b5908c80e163b920d72b52d584","119.39.133.164","Mozilla/5.0 (Linux; Android 12; V2055A Build/SP1A.210812.003; wv) AppleWebKit/537.36 (KHTML, like Gecko) Version/4.0 Chrome/86.0.4240.99 XWEB/4317 MMWEBSDK/20220903 Mobile Safari/537.36 MMWEBID/8185 MicroMessenger/8.0.28.2240(0x28001C35) WeChat/arm64 Weixin NetType/WIFI Language/zh_TW ABI/arm64","WebKit","Chrome","86.0.4240.99","AndroidOS","12","null","<div style=""font-size:60px;"">+</div>","null",""
"","","","","","html-button-response","121","210708","0.0-4.0-1.58","32","1","2022-10-07 06:00:49","d60b49b5908c80e163b920d72b52d584","119.39.133.164","Mozilla/5.0 (Linux; Android 12; V2055A Build/SP1A.210812.003; wv) AppleWebKit/537.36 (KHTML, like Gecko) Version/4.0 Chrome/86.0.4240.99 XWEB/4317 MMWEBSDK/20220903 Mobile Safari/537.36 MMWEBID/8185 MicroMessenger/8.0.28.2240(0x28001C35) WeChat/arm64 Weixin NetType/WIFI Language/zh_TW ABI/arm64","WebKit","Chrome","86.0.4240.99","AndroidOS","12","1077","<p>作为军队的指挥官，你可以选择发射导弹杀死 <strong>1名</strong> 敌国士兵，但会误杀附近的 <strong>1名</strong> 敌国平民。</p> <p>平民照片如下图所示。</p> <p></p> <img src='stimuli/faces/NCM1.jpg', style='max-width: 30%;'> </img> <p><strong>你是否选择发射武器？</strong></p>","1",""
"","","","","","html-keyboard-response","122","211715","0.0-4.0-0.59","32","1","2022-10-07 06:00:49","d60b49b5908c80e163b920d72b52d584","119.39.133.164","Mozilla/5.0 (Linux; Android 12; V2055A Build/SP1A.210812.003; wv) AppleWebKit/537.36 (KHTML, like Gecko) Version/4.0 Chrome/86.0.4240.99 XWEB/4317 MMWEBSDK/20220903 Mobile Safari/537.36 MMWEBID/8185 MicroMessenger/8.0.28.2240(0x28001C35) WeChat/arm64 Weixin NetType/WIFI Language/zh_TW ABI/arm64","WebKit","Chrome","86.0.4240.99","AndroidOS","12","null","<div style=""font-size:60px;"">+</div>","null",""
"","","","","","html-button-response","123","213258","0.0-4.0-1.59","32","1","2022-10-07 06:00:49","d60b49b5908c80e163b920d72b52d584","119.39.133.164","Mozilla/5.0 (Linux; Android 12; V2055A Build/SP1A.210812.003; wv) AppleWebKit/537.36 (KHTML, like Gecko) Version/4.0 Chrome/86.0.4240.99 XWEB/4317 MMWEBSDK/20220903 Mobile Safari/537.36 MMWEBID/8185 MicroMessenger/8.0.28.2240(0x28001C35) WeChat/arm64 Weixin NetType/WIFI Language/zh_TW ABI/arm64","WebKit","Chrome","86.0.4240.99","AndroidOS","12","1512","<p>作为军队的指挥官，你可以选择发射导弹杀死 <strong>8名</strong> 敌国士兵，但会误杀附近的 <strong>1名</strong> 敌国平民。</p> <p>平民照片如下图所示。</p> <p></p> <img src='stimuli/faces/NCF8.jpg', style='max-width: 30%;'> </img> <p><strong>你是否选择发射武器？</strong></p>","0",""
"","","","","","html-keyboard-response","124","214281","0.0-4.0-0.60","32","1","2022-10-07 06:00:49","d60b49b5908c80e163b920d72b52d584","119.39.133.164","Mozilla/5.0 (Linux; Android 12; V2055A Build/SP1A.210812.003; wv) AppleWebKit/537.36 (KHTML, like Gecko) Version/4.0 Chrome/86.0.4240.99 XWEB/4317 MMWEBSDK/20220903 Mobile Safari/537.36 MMWEBID/8185 MicroMessenger/8.0.28.2240(0x28001C35) WeChat/arm64 Weixin NetType/WIFI Language/zh_TW ABI/arm64","WebKit","Chrome","86.0.4240.99","AndroidOS","12","null","<div style=""font-size:60px;"">+</div>","null",""
"","","","","","html-button-response","125","215314","0.0-4.0-1.60","32","1","2022-10-07 06:00:49","d60b49b5908c80e163b920d72b52d584","119.39.133.164","Mozilla/5.0 (Linux; Android 12; V2055A Build/SP1A.210812.003; wv) AppleWebKit/537.36 (KHTML, like Gecko) Version/4.0 Chrome/86.0.4240.99 XWEB/4317 MMWEBSDK/20220903 Mobile Safari/537.36 MMWEBID/8185 MicroMessenger/8.0.28.2240(0x28001C35) WeChat/arm64 Weixin NetType/WIFI Language/zh_TW ABI/arm64","WebKit","Chrome","86.0.4240.99","AndroidOS","12","1005","<p>作为军队的指挥官，你可以选择发射导弹杀死 <strong>10名</strong> 敌国士兵，但会炸毁附近的 <strong>1棵</strong> 敌国树木。</p> <p>树木的照片如下图所示。</p> <p></p> <img src='stimuli/trees/7.png', style='max-width: 30%;'> </img> <p><strong>你是否选择发射武器？</strong></p>","0",""
"","","","","","html-keyboard-response","126","216335","0.0-4.0-0.61","32","1","2022-10-07 06:00:49","d60b49b5908c80e163b920d72b52d584","119.39.133.164","Mozilla/5.0 (Linux; Android 12; V2055A Build/SP1A.210812.003; wv) AppleWebKit/537.36 (KHTML, like Gecko) Version/4.0 Chrome/86.0.4240.99 XWEB/4317 MMWEBSDK/20220903 Mobile Safari/537.36 MMWEBID/8185 MicroMessenger/8.0.28.2240(0x28001C35) WeChat/arm64 Weixin NetType/WIFI Language/zh_TW ABI/arm64","WebKit","Chrome","86.0.4240.99","AndroidOS","12","null","<div style=""font-size:60px;"">+</div>","null",""
"","","","","","html-button-response","127","216951","0.0-4.0-1.61","32","1","2022-10-07 06:00:49","d60b49b5908c80e163b920d72b52d584","119.39.133.164","Mozilla/5.0 (Linux; Android 12; V2055A Build/SP1A.210812.003; wv) AppleWebKit/537.36 (KHTML, like Gecko) Version/4.0 Chrome/86.0.4240.99 XWEB/4317 MMWEBSDK/20220903 Mobile Safari/537.36 MMWEBID/8185 MicroMessenger/8.0.28.2240(0x28001C35) WeChat/arm64 Weixin NetType/WIFI Language/zh_TW ABI/arm64","WebKit","Chrome","86.0.4240.99","AndroidOS","12","591","<p>作为军队的指挥官，你可以选择发射导弹杀死 <strong>10名</strong> 敌国士兵，但会炸毁附近的 <strong>1棵</strong> 敌国树木。</p> <p>树木的照片如下图所示。</p> <p></p> <img src='stimuli/trees/5.png', style='max-width: 30%;'> </img> <p><strong>你是否选择发射武器？</strong></p>","0",""
"","","","","","html-keyboard-response","128","217970","0.0-4.0-0.62","32","1","2022-10-07 06:00:49","d60b49b5908c80e163b920d72b52d584","119.39.133.164","Mozilla/5.0 (Linux; Android 12; V2055A Build/SP1A.210812.003; wv) AppleWebKit/537.36 (KHTML, like Gecko) Version/4.0 Chrome/86.0.4240.99 XWEB/4317 MMWEBSDK/20220903 Mobile Safari/537.36 MMWEBID/8185 MicroMessenger/8.0.28.2240(0x28001C35) WeChat/arm64 Weixin NetType/WIFI Language/zh_TW ABI/arm64","WebKit","Chrome","86.0.4240.99","AndroidOS","12","null","<div style=""font-size:60px;"">+</div>","null",""
"","","","","","html-button-response","129","218476","0.0-4.0-1.62","32","1","2022-10-07 06:00:49","d60b49b5908c80e163b920d72b52d584","119.39.133.164","Mozilla/5.0 (Linux; Android 12; V2055A Build/SP1A.210812.003; wv) AppleWebKit/537.36 (KHTML, like Gecko) Version/4.0 Chrome/86.0.4240.99 XWEB/4317 MMWEBSDK/20220903 Mobile Safari/537.36 MMWEBID/8185 MicroMessenger/8.0.28.2240(0x28001C35) WeChat/arm64 Weixin NetType/WIFI Language/zh_TW ABI/arm64","WebKit","Chrome","86.0.4240.99","AndroidOS","12","482","<p>作为军队的指挥官，你可以选择发射导弹杀死 <strong>1名</strong> 敌国士兵，但会误杀附近的 <strong>1名</strong> 敌国平民。</p> <p>平民照片如下图所示。</p> <p></p> <img src='stimuli/faces/NCF7.jpg', style='max-width: 30%;'> </img> <p><strong>你是否选择发射武器？</strong></p>","0",""
"","","","","","html-keyboard-response","130","219482","0.0-4.0-0.63","32","1","2022-10-07 06:00:49","d60b49b5908c80e163b920d72b52d584","119.39.133.164","Mozilla/5.0 (Linux; Android 12; V2055A Build/SP1A.210812.003; wv) AppleWebKit/537.36 (KHTML, like Gecko) Version/4.0 Chrome/86.0.4240.99 XWEB/4317 MMWEBSDK/20220903 Mobile Safari/537.36 MMWEBID/8185 MicroMessenger/8.0.28.2240(0x28001C35) WeChat/arm64 Weixin NetType/WIFI Language/zh_TW ABI/arm64","WebKit","Chrome","86.0.4240.99","AndroidOS","12","null","<div style=""font-size:60px;"">+</div>","null",""
"","","","","","html-button-response","131","219934","0.0-4.0-1.63","32","1","2022-10-07 06:00:49","d60b49b5908c80e163b920d72b52d584","119.39.133.164","Mozilla/5.0 (Linux; Android 12; V2055A Build/SP1A.210812.003; wv) AppleWebKit/537.36 (KHTML, like Gecko) Version/4.0 Chrome/86.0.4240.99 XWEB/4317 MMWEBSDK/20220903 Mobile Safari/537.36 MMWEBID/8185 MicroMessenger/8.0.28.2240(0x28001C35) WeChat/arm64 Weixin NetType/WIFI Language/zh_TW ABI/arm64","WebKit","Chrome","86.0.4240.99","AndroidOS","12","440","<p>作为军队的指挥官，你可以选择发射导弹杀死 <strong>1名</strong> 敌国士兵，但会误杀附近的 <strong>1名</strong> 敌国平民。</p> <p>平民照片如下图所示。</p> <p></p> <img src='stimuli/faces/NCF8.jpg', style='max-width: 30%;'> </img> <p><strong>你是否选择发射武器？</strong></p>","0",""
"","","","","","survey-multi-choice","132","249913","0.0-5.0","32","1","2022-10-07 06:00:49","d60b49b5908c80e163b920d72b52d584","119.39.133.164","Mozilla/5.0 (Linux; Android 12; V2055A Build/SP1A.210812.003; wv) AppleWebKit/537.36 (KHTML, like Gecko) Version/4.0 Chrome/86.0.4240.99 XWEB/4317 MMWEBSDK/20220903 Mobile Safari/537.36 MMWEBID/8185 MicroMessenger/8.0.28.2240(0x28001C35) WeChat/arm64 Weixin NetType/WIFI Language/zh_TW ABI/arm64","WebKit","Chrome","86.0.4240.99","AndroidOS","12","29967","","{""Attention1"":""""}","[0]"
"","","","","","html-button-response","133","254952","0.0-6.0","32","1","2022-10-07 06:00:49","d60b49b5908c80e163b920d72b52d584","119.39.133.164","Mozilla/5.0 (Linux; Android 12; V2055A Build/SP1A.210812.003; wv) AppleWebKit/537.36 (KHTML, like Gecko) Version/4.0 Chrome/86.0.4240.99 XWEB/4317 MMWEBSDK/20220903 Mobile Safari/537.36 MMWEBID/8185 MicroMessenger/8.0.28.2240(0x28001C35) WeChat/arm64 Weixin NetType/WIFI Language/zh_TW ABI/arm64","WebKit","Chrome","86.0.4240.99","AndroidOS","12","5025","<p style=""font-size:20px;font-weight:bold;"">恭喜！</p><p>你已经完成了实验的第一部分。</p><p>请休息放松一下，然后进入第二部分。</p><p>这部分大约需要10分钟。</p>","0",""
"","","","","","survey-text","134","283584","0.0-7.0","32","1","2022-10-07 06:00:49","d60b49b5908c80e163b920d72b52d584","119.39.133.164","Mozilla/5.0 (Linux; Android 12; V2055A Build/SP1A.210812.003; wv) AppleWebKit/537.36 (KHTML, like Gecko) Version/4.0 Chrome/86.0.4240.99 XWEB/4317 MMWEBSDK/20220903 Mobile Safari/537.36 MMWEBID/8185 MicroMessenger/8.0.28.2240(0x28001C35) WeChat/arm64 Weixin NetType/WIFI Language/zh_TW ABI/arm64","WebKit","Chrome","86.0.4240.99","AndroidOS","12","27592","","{""Age"":""22"",""Nation"":""中国"",""Born"":""北京市"",""Live"":""北京"",""Ethnic"":""汉"",""Alipay"":""18598843594""}",""
"","","","","","survey-multi-choice","135","298452","0.0-8.0","32","1","2022-10-07 06:00:49","d60b49b5908c80e163b920d72b52d584","119.39.133.164","Mozilla/5.0 (Linux; Android 12; V2055A Build/SP1A.210812.003; wv) AppleWebKit/537.36 (KHTML, like Gecko) Version/4.0 Chrome/86.0.4240.99 XWEB/4317 MMWEBSDK/20220903 Mobile Safari/537.36 MMWEBID/8185 MicroMessenger/8.0.28.2240(0x28001C35) WeChat/arm64 Weixin NetType/WIFI Language/zh_TW ABI/arm64","WebKit","Chrome","86.0.4240.99","AndroidOS","12","14839","","{""Gender"":""男"",""Education"":""本科毕业"",""Income"":""￥35,000-￥69,999"",""Children"":""0"",""Race"":""亚洲人""}","[0,1,2,3,4]"
"","","","","","survey-multi-select","136","307517","0.0-9.0","32","1","2022-10-07 06:00:49","d60b49b5908c80e163b920d72b52d584","119.39.133.164","Mozilla/5.0 (Linux; Android 12; V2055A Build/SP1A.210812.003; wv) AppleWebKit/537.36 (KHTML, like Gecko) Version/4.0 Chrome/86.0.4240.99 XWEB/4317 MMWEBSDK/20220903 Mobile Safari/537.36 MMWEBID/8185 MicroMessenger/8.0.28.2240(0x28001C35) WeChat/arm64 Weixin NetType/WIFI Language/zh_TW ABI/arm64","WebKit","Chrome","86.0.4240.99","AndroidOS","12","9033","","{""Marriage"":[""未婚""],""Religion"":[""无宗教信仰""]}","[0,1]"
"","","","","","survey-multi-choice","137","320007","0.0-10.0","32","1","2022-10-07 06:00:49","d60b49b5908c80e163b920d72b52d584","119.39.133.164","Mozilla/5.0 (Linux; Android 12; V2055A Build/SP1A.210812.003; wv) AppleWebKit/537.36 (KHTML, like Gecko) Version/4.0 Chrome/86.0.4240.99 XWEB/4317 MMWEBSDK/20220903 Mobile Safari/537.36 MMWEBID/8185 MicroMessenger/8.0.28.2240(0x28001C35) WeChat/arm64 Weixin NetType/WIFI Language/zh_TW ABI/arm64","WebKit","Chrome","86.0.4240.99","AndroidOS","12","12459","","{""SES"":""4""}","[0]"
"","","","","","html-button-response","138","324209","0.0-11.0","32","1","2022-10-07 06:00:49","d60b49b5908c80e163b920d72b52d584","119.39.133.164","Mozilla/5.0 (Linux; Android 12; V2055A Build/SP1A.210812.003; wv) AppleWebKit/537.36 (KHTML, like Gecko) Version/4.0 Chrome/86.0.4240.99 XWEB/4317 MMWEBSDK/20220903 Mobile Safari/537.36 MMWEBID/8185 MicroMessenger/8.0.28.2240(0x28001C35) WeChat/arm64 Weixin NetType/WIFI Language/zh_TW ABI/arm64","WebKit","Chrome","86.0.4240.99","AndroidOS","12","4166","<p><strong>请判断下列陈述在多大程度上可以形容你？</p><p> (1 = ""和我一点都不像"" to 5 = ""非常像我"".)</strong></p>","0",""
"","","","","","survey-likert","139","354415","0.0-12.0","32","1","2022-10-07 06:00:49","d60b49b5908c80e163b920d72b52d584","119.39.133.164","Mozilla/5.0 (Linux; Android 12; V2055A Build/SP1A.210812.003; wv) AppleWebKit/537.36 (KHTML, like Gecko) Version/4.0 Chrome/86.0.4240.99 XWEB/4317 MMWEBSDK/20220903 Mobile Safari/537.36 MMWEBID/8185 MicroMessenger/8.0.28.2240(0x28001C35) WeChat/arm64 Weixin NetType/WIFI Language/zh_TW ABI/arm64","WebKit","Chrome","86.0.4240.99","AndroidOS","12","30165","","{""Aggression1"":0,""Aggression2"":0,""Aggression3"":4,""Aggression4"":0,""Aggression5"":4,""Aggression6"":4,""Aggression7"":4,""Aggression8"":1,""Aggression9"":3}","[0,1,2,3,4,5,6,7,8]"
"","","","","","html-button-response","140","355724","0.0-13.0","32","1","2022-10-07 06:00:49","d60b49b5908c80e163b920d72b52d584","119.39.133.164","Mozilla/5.0 (Linux; Android 12; V2055A Build/SP1A.210812.003; wv) AppleWebKit/537.36 (KHTML, like Gecko) Version/4.0 Chrome/86.0.4240.99 XWEB/4317 MMWEBSDK/20220903 Mobile Safari/537.36 MMWEBID/8185 MicroMessenger/8.0.28.2240(0x28001C35) WeChat/arm64 Weixin NetType/WIFI Language/zh_TW ABI/arm64","WebKit","Chrome","86.0.4240.99","AndroidOS","12","1295","<p><strong>请判断你在多大程度上同意下列陈述。</strong></p>","0",""
"","","","","","survey-likert","141","382531","0.0-14.0","32","1","2022-10-07 06:00:49","d60b49b5908c80e163b920d72b52d584","119.39.133.164","Mozilla/5.0 (Linux; Android 12; V2055A Build/SP1A.210812.003; wv) AppleWebKit/537.36 (KHTML, like Gecko) Version/4.0 Chrome/86.0.4240.99 XWEB/4317 MMWEBSDK/20220903 Mobile Safari/537.36 MMWEBID/8185 MicroMessenger/8.0.28.2240(0x28001C35) WeChat/arm64 Weixin NetType/WIFI Language/zh_TW ABI/arm64","WebKit","Chrome","86.0.4240.99","AndroidOS","12","26768","","{""scale17"":3,""scale1"":2,""scale16"":3,""scale12"":2,""scale3"":3,""scale9"":1,""scale21"":3,""scale7"":3,""scale8"":3,""scale20"":2,""scale4"":3,""scale27"":3,""scale18"":1,""scale13"":3,""scale28"":3,""scale26"":2,""scale11"":3,""scale6"":3,""scale22"":2,""scale23"":3,""scale15"":2,""scale24"":2,""scale2"":2,""scale5"":1,""scale10"":2,""scale19"":1,""scale25"":2,""scale14"":1}","[16,0,15,11,2,8,20,6,7,19,3,26,17,12,27,25,10,5,21,22,14,23,1,4,9,18,24,13]"
"","","","","","html-button-response","142","383620","0.0-15.0","32","1","2022-10-07 06:00:49","d60b49b5908c80e163b920d72b52d584","119.39.133.164","Mozilla/5.0 (Linux; Android 12; V2055A Build/SP1A.210812.003; wv) AppleWebKit/537.36 (KHTML, like Gecko) Version/4.0 Chrome/86.0.4240.99 XWEB/4317 MMWEBSDK/20220903 Mobile Safari/537.36 MMWEBID/8185 MicroMessenger/8.0.28.2240(0x28001C35) WeChat/arm64 Weixin NetType/WIFI Language/zh_TW ABI/arm64","WebKit","Chrome","86.0.4240.99","AndroidOS","12","1076","<p><strong>请判断你在多大程度上同意下列陈述。</strong></p>","0",""
"","","","","","survey-likert","143","396506","0.0-16.0","32","1","2022-10-07 06:00:49","d60b49b5908c80e163b920d72b52d584","119.39.133.164","Mozilla/5.0 (Linux; Android 12; V2055A Build/SP1A.210812.003; wv) AppleWebKit/537.36 (KHTML, like Gecko) Version/4.0 Chrome/86.0.4240.99 XWEB/4317 MMWEBSDK/20220903 Mobile Safari/537.36 MMWEBID/8185 MicroMessenger/8.0.28.2240(0x28001C35) WeChat/arm64 Weixin NetType/WIFI Language/zh_TW ABI/arm64","WebKit","Chrome","86.0.4240.99","AndroidOS","12","12851","","{""sdo8"":5,""sdo3"":4,""sdo16"":4,""sdo6"":3,""sdo10"":4,""sdo9"":4,""sdo1"":2,""sdo15"":4,""sdo4"":4,""sdo5"":2,""sdo2"":4,""sdo12"":4,""sdo13"":2,""sdo11"":4,""sdo7"":3,""sdo14"":5}","[7,2,15,5,9,8,0,14,3,4,1,11,12,10,6,13]"
"","","","","","html-button-response","144","397655","0.0-17.0","32","1","2022-10-07 06:00:49","d60b49b5908c80e163b920d72b52d584","119.39.133.164","Mozilla/5.0 (Linux; Android 12; V2055A Build/SP1A.210812.003; wv) AppleWebKit/537.36 (KHTML, like Gecko) Version/4.0 Chrome/86.0.4240.99 XWEB/4317 MMWEBSDK/20220903 Mobile Safari/537.36 MMWEBID/8185 MicroMessenger/8.0.28.2240(0x28001C35) WeChat/arm64 Weixin NetType/WIFI Language/zh_TW ABI/arm64","WebKit","Chrome","86.0.4240.99","AndroidOS","12","1136","<p><strong>请判断你在多大程度上同意下列陈述。</strong></p>","0",""
"","","","","","survey-likert","145","408186","0.0-18.0","32","1","2022-10-07 06:00:49","d60b49b5908c80e163b920d72b52d584","119.39.133.164","Mozilla/5.0 (Linux; Android 12; V2055A Build/SP1A.210812.003; wv) AppleWebKit/537.36 (KHTML, like Gecko) Version/4.0 Chrome/86.0.4240.99 XWEB/4317 MMWEBSDK/20220903 Mobile Safari/537.36 MMWEBID/8185 MicroMessenger/8.0.28.2240(0x28001C35) WeChat/arm64 Weixin NetType/WIFI Language/zh_TW ABI/arm64","WebKit","Chrome","86.0.4240.99","AndroidOS","12","10507","","{""caring1"":3,""liking1"":3,""caring2"":2,""protection1"":3,""liking2"":3,""caring3"":2,""protection2"":3,""liking3"":2,""protection3"":3,""caring4"":1,""liking4"":3,""protection4"":1,""caring5"":3,""liking5"":3,""protection5"":3}","[0,1,2,3,4,5,6,7,8,9,10,11,12,13,14]"
"","","","","","html-button-response","146","409115","0.0-19.0","32","1","2022-10-07 06:00:49","d60b49b5908c80e163b920d72b52d584","119.39.133.164","Mozilla/5.0 (Linux; Android 12; V2055A Build/SP1A.210812.003; wv) AppleWebKit/537.36 (KHTML, like Gecko) Version/4.0 Chrome/86.0.4240.99 XWEB/4317 MMWEBSDK/20220903 Mobile Safari/537.36 MMWEBID/8185 MicroMessenger/8.0.28.2240(0x28001C35) WeChat/arm64 Weixin NetType/WIFI Language/zh_TW ABI/arm64","WebKit","Chrome","86.0.4240.99","AndroidOS","12","913","<p><strong>请判断下列场景中你的内心感受有多柔软。</strong></p>","0",""
"","","","","","survey-likert","147","416089","0.0-20.0","32","1","2022-10-07 06:00:49","d60b49b5908c80e163b920d72b52d584","119.39.133.164","Mozilla/5.0 (Linux; Android 12; V2055A Build/SP1A.210812.003; wv) AppleWebKit/537.36 (KHTML, like Gecko) Version/4.0 Chrome/86.0.4240.99 XWEB/4317 MMWEBSDK/20220903 Mobile Safari/537.36 MMWEBID/8185 MicroMessenger/8.0.28.2240(0x28001C35) WeChat/arm64 Weixin NetType/WIFI Language/zh_TW ABI/arm64","WebKit","Chrome","86.0.4240.99","AndroidOS","12","6940","","{""tenderness-positive1"":3,""tenderness-negative1"":2,""tenderness-negative2"":3,""tenderness-positive2"":2,""tenderness-positive3"":3,""tenderness-negative3"":2,""tenderness-positive4"":3,""tendereness-negative4"":2,""tendernness-negative5"":4,""tenderness-positive5"":3}","[0,1,2,3,4,5,6,7,8,9]"
"","","","","","survey-multi-choice","148","419517","0.0-21.0","32","1","2022-10-07 06:00:49","d60b49b5908c80e163b920d72b52d584","119.39.133.164","Mozilla/5.0 (Linux; Android 12; V2055A Build/SP1A.210812.003; wv) AppleWebKit/537.36 (KHTML, like Gecko) Version/4.0 Chrome/86.0.4240.99 XWEB/4317 MMWEBSDK/20220903 Mobile Safari/537.36 MMWEBID/8185 MicroMessenger/8.0.28.2240(0x28001C35) WeChat/arm64 Weixin NetType/WIFI Language/zh_TW ABI/arm64","WebKit","Chrome","86.0.4240.99","AndroidOS","12","3414","","{""Attention2"":""从来没有""}","[0]"
"","","","","","html-button-response","149","420421","0.0-22.0","32","1","2022-10-07 06:00:49","d60b49b5908c80e163b920d72b52d584","119.39.133.164","Mozilla/5.0 (Linux; Android 12; V2055A Build/SP1A.210812.003; wv) AppleWebKit/537.36 (KHTML, like Gecko) Version/4.0 Chrome/86.0.4240.99 XWEB/4317 MMWEBSDK/20220903 Mobile Safari/537.36 MMWEBID/8185 MicroMessenger/8.0.28.2240(0x28001C35) WeChat/arm64 Weixin NetType/WIFI Language/zh_TW ABI/arm64","WebKit","Chrome","86.0.4240.99","AndroidOS","12","888","<p><strong>请判断你在多大程度上同意下列陈述。</strong></p>","0",""
"","","","","","survey-likert","150","435604","0.0-23.0","32","1","2022-10-07 06:00:49","d60b49b5908c80e163b920d72b52d584","119.39.133.164","Mozilla/5.0 (Linux; Android 12; V2055A Build/SP1A.210812.003; wv) AppleWebKit/537.36 (KHTML, like Gecko) Version/4.0 Chrome/86.0.4240.99 XWEB/4317 MMWEBSDK/20220903 Mobile Safari/537.36 MMWEBID/8185 MicroMessenger/8.0.28.2240(0x28001C35) WeChat/arm64 Weixin NetType/WIFI Language/zh_TW ABI/arm64","WebKit","Chrome","86.0.4240.99","AndroidOS","12","15127","","{""Nation6"":3,""Patri9"":3,""Patri3"":3,""Patri2"":1,""Patri11"":3,""Patri12"":3,""Patri5"":3,""Nation2"":1,""Patri1"":3,""Nation7"":2,""Patri6"":3,""Patri7"":3,""Nation1"":2,""Nation5"":3,""Nation4"":3,""Patri10"":2,""Patri4"":3,""Nation8"":3,""Patri8"":2,""Nation3"":3}","[17,8,2,1,10,11,4,13,0,18,5,6,12,16,15,9,3,19,7,14]"
"","","","","","html-button-response","151","436530","0.0-24.0","32","1","2022-10-07 06:00:49","d60b49b5908c80e163b920d72b52d584","119.39.133.164","Mozilla/5.0 (Linux; Android 12; V2055A Build/SP1A.210812.003; wv) AppleWebKit/537.36 (KHTML, like Gecko) Version/4.0 Chrome/86.0.4240.99 XWEB/4317 MMWEBSDK/20220903 Mobile Safari/537.36 MMWEBID/8185 MicroMessenger/8.0.28.2240(0x28001C35) WeChat/arm64 Weixin NetType/WIFI Language/zh_TW ABI/arm64","WebKit","Chrome","86.0.4240.99","AndroidOS","12","913","<p><strong>请判断你在多大程度上同意下列陈述。</strong></p>","0",""
"","","","","","survey-likert","152","468806","0.0-25.0","32","1","2022-10-07 06:00:49","d60b49b5908c80e163b920d72b52d584","119.39.133.164","Mozilla/5.0 (Linux; Android 12; V2055A Build/SP1A.210812.003; wv) AppleWebKit/537.36 (KHTML, like Gecko) Version/4.0 Chrome/86.0.4240.99 XWEB/4317 MMWEBSDK/20220903 Mobile Safari/537.36 MMWEBID/8185 MicroMessenger/8.0.28.2240(0x28001C35) WeChat/arm64 Weixin NetType/WIFI Language/zh_TW ABI/arm64","WebKit","Chrome","86.0.4240.99","AndroidOS","12","32215","","{""vi4"":7,""vc4"":8,""hc3"":8,""hi3"":8,""hi2"":6,""Robot"":6,""vc2"":6,""vi1"":6,""vi3"":3,""hc1"":7,""hc2"":6,""hi4"":0,""vc1"":2,""vc3"":6,""vi2"":2,""hc4"":6,""hi1"":6}","[8,16,11,2,1,7,14,4,6,9,10,3,13,15,5,12,0]"
