"success","timeout","failed_images","failed_audio","failed_video","trial_type","trial_index","time_elapsed","internal_node_id","run_id","condition","recorded_at","source_code_version","ip","user_agent","device","browser","browser_version","platform","platform_version","rt","stimulus","response","question_order"
"true","false","[]","[]","[]","preload","0","3679","0.0-0.0","4","1","2022-10-06 07:30:39","ab77af23db77f379346475f7099b4f97","219.142.99.14","Mozilla/5.0 (Linux; Android 10; AQM-AL00 Build/HUAWEIAQM-AL00; wv) AppleWebKit/537.36 (KHTML, like Gecko) Version/4.0 Chrome/97.0.4692.98 Mobile Safari/537.36 T7/13.19 BDOS/1.0 (HarmonyOS 2.2.0) SP-engine/2.57.0 baiduboxapp/13.19.0.12 (Baidu; P1 10) NABar/1.0","WebKit","Chrome","97.0.4692.98","AndroidOS","10","","","",""
"true","","","","","fullscreen","1","9178","0.0-1.0","4","1","2022-10-06 07:30:39","ab77af23db77f379346475f7099b4f97","219.142.99.14","Mozilla/5.0 (Linux; Android 10; AQM-AL00 Build/HUAWEIAQM-AL00; wv) AppleWebKit/537.36 (KHTML, like Gecko) Version/4.0 Chrome/97.0.4692.98 Mobile Safari/537.36 T7/13.19 BDOS/1.0 (HarmonyOS 2.2.0) SP-engine/2.57.0 baiduboxapp/13.19.0.12 (Baidu; P1 10) NABar/1.0","WebKit","Chrome","97.0.4692.98","AndroidOS","10","","","",""
"","","","","","html-button-response","2","31656","0.0-2.0","4","1","2022-10-06 07:30:39","ab77af23db77f379346475f7099b4f97","219.142.99.14","Mozilla/5.0 (Linux; Android 10; AQM-AL00 Build/HUAWEIAQM-AL00; wv) AppleWebKit/537.36 (KHTML, like Gecko) Version/4.0 Chrome/97.0.4692.98 Mobile Safari/537.36 T7/13.19 BDOS/1.0 (HarmonyOS 2.2.0) SP-engine/2.57.0 baiduboxapp/13.19.0.12 (Baidu; P1 10) NABar/1.0","WebKit","Chrome","97.0.4692.98","AndroidOS","10","22470","<p style=""font-size:20px;font-weight:bold;"">实验知情同意书</p><p style=""text-align:left;""><strong>实验名称：</strong>社会冲突研究</p><p style=""text-align:left;""><strong>主要研究者：</strong>韩晓春副教授（北京师范大学心理学部）</p><p style=""text-align:left;""><strong>联系方式：</strong>发送邮件至xiaochun.han@bnu.edu.cn</p><p style=""text-align:left;""><strong>研究目的：</strong>研究旨在了解人类面对群体冲突时的决策方式，以及相关的心理学特质。实验调查大约需要20分钟。</p><p style=""text-align:left;""><strong>实验流程：</strong>实验包含两部分。第一部分呈现一系列群体冲突场景，请你决定如何对这些冲突进行反应，大约需要10分钟完成。第二部分包含一系列人口统计学信息收集和心理学问卷，大约需要10分钟完成。</p><p style=""text-align:left;""><strong>参加及退出规则：</strong>参加本实验完全取决于您的个人意愿。在参与过程中，您可以随时退出，并且不用承担任何后果。</p><p style=""text-align:left;""><strong>隐私：</strong>本实验完全匿名进行，不会收集您的姓名或其他能够识别您身份的信息。实验中收集的作答仅用作科学研究使用，可能会在学术期刊/书籍上发表，或者用于教学，您的数据未来可能会和其他研究者或实验室分享，但您的个人身份不会被识别。</p><p style=""text-align:left;""><strong>实验报酬：</strong>实验完成后，您将获得15元人民币报酬，以感谢您的时间和努力。调查问卷中包含几道题目用以测验您作答时的认真度。只有完成全部实验，并且正确回答认真度测验的被试才能获得实验报酬。实验报酬将通过支付宝转账发放。</p><p style=""text-align:left;font-size:20px;""><strong>如果您同意以上实验知情同意书的内容，请点击'同意并且开始实验'按钮；否则请关闭浏览器界面，退出实验。</strong></p>","0",""
"","","","","","html-button-response","3","42710","0.0-3.0","4","1","2022-10-06 07:30:39","ab77af23db77f379346475f7099b4f97","219.142.99.14","Mozilla/5.0 (Linux; Android 10; AQM-AL00 Build/HUAWEIAQM-AL00; wv) AppleWebKit/537.36 (KHTML, like Gecko) Version/4.0 Chrome/97.0.4692.98 Mobile Safari/537.36 T7/13.19 BDOS/1.0 (HarmonyOS 2.2.0) SP-engine/2.57.0 baiduboxapp/13.19.0.12 (Baidu; P1 10) NABar/1.0","WebKit","Chrome","97.0.4692.98","AndroidOS","10","11042","<p ><strong>实验任务一：</strong></p><p>请想象你的国家与另一个国家发生了军事冲突。</p><p>你是国家军队的指挥官，你将如何在冲突中进行决策。</p><p>具体来说，作为军队指挥官，请你决定是否发射导弹进行打击。</p><p>接下来，你会面对一系列场景，请仔细阅读每个场景，然后进行决策。</p><p>这部分实验任务大约需要10分钟。</p><p><strong>实验过程中，请集中注意力。</strong></p>","0",""
"","","","","","html-keyboard-response","4","43719","0.0-4.0-0.0","4","1","2022-10-06 07:30:39","ab77af23db77f379346475f7099b4f97","219.142.99.14","Mozilla/5.0 (Linux; Android 10; AQM-AL00 Build/HUAWEIAQM-AL00; wv) AppleWebKit/537.36 (KHTML, like Gecko) Version/4.0 Chrome/97.0.4692.98 Mobile Safari/537.36 T7/13.19 BDOS/1.0 (HarmonyOS 2.2.0) SP-engine/2.57.0 baiduboxapp/13.19.0.12 (Baidu; P1 10) NABar/1.0","WebKit","Chrome","97.0.4692.98","AndroidOS","10","null","<div style=""font-size:60px;"">+</div>","null",""
"","","","","","html-button-response","5","49445","0.0-4.0-1.0","4","1","2022-10-06 07:30:39","ab77af23db77f379346475f7099b4f97","219.142.99.14","Mozilla/5.0 (Linux; Android 10; AQM-AL00 Build/HUAWEIAQM-AL00; wv) AppleWebKit/537.36 (KHTML, like Gecko) Version/4.0 Chrome/97.0.4692.98 Mobile Safari/537.36 T7/13.19 BDOS/1.0 (HarmonyOS 2.2.0) SP-engine/2.57.0 baiduboxapp/13.19.0.12 (Baidu; P1 10) NABar/1.0","WebKit","Chrome","97.0.4692.98","AndroidOS","10","5707","<p>作为军队的指挥官，你可以选择发射导弹杀死 <strong>1名</strong> 敌国士兵，但会炸毁附近的 <strong>1棵</strong> 敌国树木。</p> <p>树木的照片如下图所示。</p> <p></p> <img src='stimuli/trees/10.png', style='max-width: 30%;'> </img> <p><strong>你是否选择发射武器？</strong></p>","1",""
"","","","","","html-keyboard-response","6","50450","0.0-4.0-0.1","4","1","2022-10-06 07:30:39","ab77af23db77f379346475f7099b4f97","219.142.99.14","Mozilla/5.0 (Linux; Android 10; AQM-AL00 Build/HUAWEIAQM-AL00; wv) AppleWebKit/537.36 (KHTML, like Gecko) Version/4.0 Chrome/97.0.4692.98 Mobile Safari/537.36 T7/13.19 BDOS/1.0 (HarmonyOS 2.2.0) SP-engine/2.57.0 baiduboxapp/13.19.0.12 (Baidu; P1 10) NABar/1.0","WebKit","Chrome","97.0.4692.98","AndroidOS","10","null","<div style=""font-size:60px;"">+</div>","null",""
"","","","","","html-button-response","7","58476","0.0-4.0-1.1","4","1","2022-10-06 07:30:39","ab77af23db77f379346475f7099b4f97","219.142.99.14","Mozilla/5.0 (Linux; Android 10; AQM-AL00 Build/HUAWEIAQM-AL00; wv) AppleWebKit/537.36 (KHTML, like Gecko) Version/4.0 Chrome/97.0.4692.98 Mobile Safari/537.36 T7/13.19 BDOS/1.0 (HarmonyOS 2.2.0) SP-engine/2.57.0 baiduboxapp/13.19.0.12 (Baidu; P1 10) NABar/1.0","WebKit","Chrome","97.0.4692.98","AndroidOS","10","8020","<p>作为军队的指挥官，你可以选择发射导弹杀死 <strong>10名</strong> 敌国士兵，但会误杀附近的 <strong>1名</strong> 敌国平民。</p> <p>平民照片如下图所示。</p> <p></p> <img src='stimuli/faces/NCF2.jpg', style='max-width: 30%;'> </img> <p><strong>你是否选择发射武器？</strong></p>","0",""
"","","","","","html-keyboard-response","8","59490","0.0-4.0-0.2","4","1","2022-10-06 07:30:39","ab77af23db77f379346475f7099b4f97","219.142.99.14","Mozilla/5.0 (Linux; Android 10; AQM-AL00 Build/HUAWEIAQM-AL00; wv) AppleWebKit/537.36 (KHTML, like Gecko) Version/4.0 Chrome/97.0.4692.98 Mobile Safari/537.36 T7/13.19 BDOS/1.0 (HarmonyOS 2.2.0) SP-engine/2.57.0 baiduboxapp/13.19.0.12 (Baidu; P1 10) NABar/1.0","WebKit","Chrome","97.0.4692.98","AndroidOS","10","null","<div style=""font-size:60px;"">+</div>","null",""
"","","","","","html-button-response","9","63129","0.0-4.0-1.2","4","1","2022-10-06 07:30:39","ab77af23db77f379346475f7099b4f97","219.142.99.14","Mozilla/5.0 (Linux; Android 10; AQM-AL00 Build/HUAWEIAQM-AL00; wv) AppleWebKit/537.36 (KHTML, like Gecko) Version/4.0 Chrome/97.0.4692.98 Mobile Safari/537.36 T7/13.19 BDOS/1.0 (HarmonyOS 2.2.0) SP-engine/2.57.0 baiduboxapp/13.19.0.12 (Baidu; P1 10) NABar/1.0","WebKit","Chrome","97.0.4692.98","AndroidOS","10","3632","<p>作为军队的指挥官，你可以选择发射导弹杀死 <strong>4名</strong> 敌国士兵，但会误杀附近的 <strong>1名</strong> 敌国平民。</p> <p>平民照片如下图所示。</p> <p></p> <img src='stimuli/faces/NCF1.jpg', style='max-width: 30%;'> </img> <p><strong>你是否选择发射武器？</strong></p>","1",""
"","","","","","html-keyboard-response","10","64134","0.0-4.0-0.3","4","1","2022-10-06 07:30:39","ab77af23db77f379346475f7099b4f97","219.142.99.14","Mozilla/5.0 (Linux; Android 10; AQM-AL00 Build/HUAWEIAQM-AL00; wv) AppleWebKit/537.36 (KHTML, like Gecko) Version/4.0 Chrome/97.0.4692.98 Mobile Safari/537.36 T7/13.19 BDOS/1.0 (HarmonyOS 2.2.0) SP-engine/2.57.0 baiduboxapp/13.19.0.12 (Baidu; P1 10) NABar/1.0","WebKit","Chrome","97.0.4692.98","AndroidOS","10","null","<div style=""font-size:60px;"">+</div>","null",""
"","","","","","html-button-response","11","71470","0.0-4.0-1.3","4","1","2022-10-06 07:30:39","ab77af23db77f379346475f7099b4f97","219.142.99.14","Mozilla/5.0 (Linux; Android 10; AQM-AL00 Build/HUAWEIAQM-AL00; wv) AppleWebKit/537.36 (KHTML, like Gecko) Version/4.0 Chrome/97.0.4692.98 Mobile Safari/537.36 T7/13.19 BDOS/1.0 (HarmonyOS 2.2.0) SP-engine/2.57.0 baiduboxapp/13.19.0.12 (Baidu; P1 10) NABar/1.0","WebKit","Chrome","97.0.4692.98","AndroidOS","10","7324","<p>作为军队的指挥官，你可以选择发射导弹杀死 <strong>6名</strong> 敌国士兵，但会误杀附近的 <strong>1名</strong> 敌国平民。</p> <p>平民照片如下图所示。</p> <p></p> <img src='stimuli/faces/NCF7.jpg', style='max-width: 30%;'> </img> <p><strong>你是否选择发射武器？</strong></p>","0",""
"","","","","","html-keyboard-response","12","72478","0.0-4.0-0.4","4","1","2022-10-06 07:30:39","ab77af23db77f379346475f7099b4f97","219.142.99.14","Mozilla/5.0 (Linux; Android 10; AQM-AL00 Build/HUAWEIAQM-AL00; wv) AppleWebKit/537.36 (KHTML, like Gecko) Version/4.0 Chrome/97.0.4692.98 Mobile Safari/537.36 T7/13.19 BDOS/1.0 (HarmonyOS 2.2.0) SP-engine/2.57.0 baiduboxapp/13.19.0.12 (Baidu; P1 10) NABar/1.0","WebKit","Chrome","97.0.4692.98","AndroidOS","10","null","<div style=""font-size:60px;"">+</div>","null",""
"","","","","","html-button-response","13","74899","0.0-4.0-1.4","4","1","2022-10-06 07:30:39","ab77af23db77f379346475f7099b4f97","219.142.99.14","Mozilla/5.0 (Linux; Android 10; AQM-AL00 Build/HUAWEIAQM-AL00; wv) AppleWebKit/537.36 (KHTML, like Gecko) Version/4.0 Chrome/97.0.4692.98 Mobile Safari/537.36 T7/13.19 BDOS/1.0 (HarmonyOS 2.2.0) SP-engine/2.57.0 baiduboxapp/13.19.0.12 (Baidu; P1 10) NABar/1.0","WebKit","Chrome","97.0.4692.98","AndroidOS","10","2408","<p>作为军队的指挥官，你可以选择发射导弹杀死 <strong>1名</strong> 敌国士兵，但会误杀附近的 <strong>1名</strong> 敌国平民。</p> <p>平民照片如下图所示。</p> <p></p> <img src='stimuli/faces/NCF5.jpg', style='max-width: 30%;'> </img> <p><strong>你是否选择发射武器？</strong></p>","1",""
"","","","","","html-keyboard-response","14","75908","0.0-4.0-0.5","4","1","2022-10-06 07:30:39","ab77af23db77f379346475f7099b4f97","219.142.99.14","Mozilla/5.0 (Linux; Android 10; AQM-AL00 Build/HUAWEIAQM-AL00; wv) AppleWebKit/537.36 (KHTML, like Gecko) Version/4.0 Chrome/97.0.4692.98 Mobile Safari/537.36 T7/13.19 BDOS/1.0 (HarmonyOS 2.2.0) SP-engine/2.57.0 baiduboxapp/13.19.0.12 (Baidu; P1 10) NABar/1.0","WebKit","Chrome","97.0.4692.98","AndroidOS","10","null","<div style=""font-size:60px;"">+</div>","null",""
"","","","","","html-button-response","15","78242","0.0-4.0-1.5","4","1","2022-10-06 07:30:39","ab77af23db77f379346475f7099b4f97","219.142.99.14","Mozilla/5.0 (Linux; Android 10; AQM-AL00 Build/HUAWEIAQM-AL00; wv) AppleWebKit/537.36 (KHTML, like Gecko) Version/4.0 Chrome/97.0.4692.98 Mobile Safari/537.36 T7/13.19 BDOS/1.0 (HarmonyOS 2.2.0) SP-engine/2.57.0 baiduboxapp/13.19.0.12 (Baidu; P1 10) NABar/1.0","WebKit","Chrome","97.0.4692.98","AndroidOS","10","2314","<p>作为军队的指挥官，你可以选择发射导弹杀死 <strong>10名</strong> 敌国士兵，但会误杀附近的 <strong>1名</strong> 敌国平民。</p> <p>平民照片如下图所示。</p> <p></p> <img src='stimuli/faces/NCM5.jpg', style='max-width: 30%;'> </img> <p><strong>你是否选择发射武器？</strong></p>","0",""
"","","","","","html-keyboard-response","16","79250","0.0-4.0-0.6","4","1","2022-10-06 07:30:39","ab77af23db77f379346475f7099b4f97","219.142.99.14","Mozilla/5.0 (Linux; Android 10; AQM-AL00 Build/HUAWEIAQM-AL00; wv) AppleWebKit/537.36 (KHTML, like Gecko) Version/4.0 Chrome/97.0.4692.98 Mobile Safari/537.36 T7/13.19 BDOS/1.0 (HarmonyOS 2.2.0) SP-engine/2.57.0 baiduboxapp/13.19.0.12 (Baidu; P1 10) NABar/1.0","WebKit","Chrome","97.0.4692.98","AndroidOS","10","null","<div style=""font-size:60px;"">+</div>","null",""
"","","","","","html-button-response","17","81513","0.0-4.0-1.6","4","1","2022-10-06 07:30:39","ab77af23db77f379346475f7099b4f97","219.142.99.14","Mozilla/5.0 (Linux; Android 10; AQM-AL00 Build/HUAWEIAQM-AL00; wv) AppleWebKit/537.36 (KHTML, like Gecko) Version/4.0 Chrome/97.0.4692.98 Mobile Safari/537.36 T7/13.19 BDOS/1.0 (HarmonyOS 2.2.0) SP-engine/2.57.0 baiduboxapp/13.19.0.12 (Baidu; P1 10) NABar/1.0","WebKit","Chrome","97.0.4692.98","AndroidOS","10","2252","<p>作为军队的指挥官，你可以选择发射导弹杀死 <strong>10名</strong> 敌国士兵，但会炸毁附近的 <strong>1棵</strong> 敌国树木。</p> <p>树木的照片如下图所示。</p> <p></p> <img src='stimuli/trees/5.png', style='max-width: 30%;'> </img> <p><strong>你是否选择发射武器？</strong></p>","1",""
"","","","","","html-keyboard-response","18","82522","0.0-4.0-0.7","4","1","2022-10-06 07:30:39","ab77af23db77f379346475f7099b4f97","219.142.99.14","Mozilla/5.0 (Linux; Android 10; AQM-AL00 Build/HUAWEIAQM-AL00; wv) AppleWebKit/537.36 (KHTML, like Gecko) Version/4.0 Chrome/97.0.4692.98 Mobile Safari/537.36 T7/13.19 BDOS/1.0 (HarmonyOS 2.2.0) SP-engine/2.57.0 baiduboxapp/13.19.0.12 (Baidu; P1 10) NABar/1.0","WebKit","Chrome","97.0.4692.98","AndroidOS","10","null","<div style=""font-size:60px;"">+</div>","null",""
"","","","","","html-button-response","19","84488","0.0-4.0-1.7","4","1","2022-10-06 07:30:39","ab77af23db77f379346475f7099b4f97","219.142.99.14","Mozilla/5.0 (Linux; Android 10; AQM-AL00 Build/HUAWEIAQM-AL00; wv) AppleWebKit/537.36 (KHTML, like Gecko) Version/4.0 Chrome/97.0.4692.98 Mobile Safari/537.36 T7/13.19 BDOS/1.0 (HarmonyOS 2.2.0) SP-engine/2.57.0 baiduboxapp/13.19.0.12 (Baidu; P1 10) NABar/1.0","WebKit","Chrome","97.0.4692.98","AndroidOS","10","1955","<p>作为军队的指挥官，你可以选择发射导弹杀死 <strong>1名</strong> 敌国士兵，但会误杀附近的 <strong>1名</strong> 敌国平民。</p> <p>平民照片如下图所示。</p> <p></p> <img src='stimuli/faces/NCM1.jpg', style='max-width: 30%;'> </img> <p><strong>你是否选择发射武器？</strong></p>","0",""
"","","","","","html-keyboard-response","20","85495","0.0-4.0-0.8","4","1","2022-10-06 07:30:39","ab77af23db77f379346475f7099b4f97","219.142.99.14","Mozilla/5.0 (Linux; Android 10; AQM-AL00 Build/HUAWEIAQM-AL00; wv) AppleWebKit/537.36 (KHTML, like Gecko) Version/4.0 Chrome/97.0.4692.98 Mobile Safari/537.36 T7/13.19 BDOS/1.0 (HarmonyOS 2.2.0) SP-engine/2.57.0 baiduboxapp/13.19.0.12 (Baidu; P1 10) NABar/1.0","WebKit","Chrome","97.0.4692.98","AndroidOS","10","null","<div style=""font-size:60px;"">+</div>","null",""
"","","","","","html-button-response","21","88910","0.0-4.0-1.8","4","1","2022-10-06 07:30:39","ab77af23db77f379346475f7099b4f97","219.142.99.14","Mozilla/5.0 (Linux; Android 10; AQM-AL00 Build/HUAWEIAQM-AL00; wv) AppleWebKit/537.36 (KHTML, like Gecko) Version/4.0 Chrome/97.0.4692.98 Mobile Safari/537.36 T7/13.19 BDOS/1.0 (HarmonyOS 2.2.0) SP-engine/2.57.0 baiduboxapp/13.19.0.12 (Baidu; P1 10) NABar/1.0","WebKit","Chrome","97.0.4692.98","AndroidOS","10","3403","<p>作为军队的指挥官，你可以选择发射导弹杀死 <strong>3名</strong> 敌国士兵，但会炸毁附近的 <strong>1棵</strong> 敌国树木。</p> <p>树木的照片如下图所示。</p> <p></p> <img src='stimuli/trees/1.png', style='max-width: 30%;'> </img> <p><strong>你是否选择发射武器？</strong></p>","1",""
"","","","","","html-keyboard-response","22","89919","0.0-4.0-0.9","4","1","2022-10-06 07:30:39","ab77af23db77f379346475f7099b4f97","219.142.99.14","Mozilla/5.0 (Linux; Android 10; AQM-AL00 Build/HUAWEIAQM-AL00; wv) AppleWebKit/537.36 (KHTML, like Gecko) Version/4.0 Chrome/97.0.4692.98 Mobile Safari/537.36 T7/13.19 BDOS/1.0 (HarmonyOS 2.2.0) SP-engine/2.57.0 baiduboxapp/13.19.0.12 (Baidu; P1 10) NABar/1.0","WebKit","Chrome","97.0.4692.98","AndroidOS","10","null","<div style=""font-size:60px;"">+</div>","null",""
"","","","","","html-button-response","23","91857","0.0-4.0-1.9","4","1","2022-10-06 07:30:39","ab77af23db77f379346475f7099b4f97","219.142.99.14","Mozilla/5.0 (Linux; Android 10; AQM-AL00 Build/HUAWEIAQM-AL00; wv) AppleWebKit/537.36 (KHTML, like Gecko) Version/4.0 Chrome/97.0.4692.98 Mobile Safari/537.36 T7/13.19 BDOS/1.0 (HarmonyOS 2.2.0) SP-engine/2.57.0 baiduboxapp/13.19.0.12 (Baidu; P1 10) NABar/1.0","WebKit","Chrome","97.0.4692.98","AndroidOS","10","1925","<p>作为军队的指挥官，你可以选择发射导弹杀死 <strong>7名</strong> 敌国士兵，但会炸毁附近的 <strong>1棵</strong> 敌国树木。</p> <p>树木的照片如下图所示。</p> <p></p> <img src='stimuli/trees/8.png', style='max-width: 30%;'> </img> <p><strong>你是否选择发射武器？</strong></p>","1",""
"","","","","","html-keyboard-response","24","92867","0.0-4.0-0.10","4","1","2022-10-06 07:30:39","ab77af23db77f379346475f7099b4f97","219.142.99.14","Mozilla/5.0 (Linux; Android 10; AQM-AL00 Build/HUAWEIAQM-AL00; wv) AppleWebKit/537.36 (KHTML, like Gecko) Version/4.0 Chrome/97.0.4692.98 Mobile Safari/537.36 T7/13.19 BDOS/1.0 (HarmonyOS 2.2.0) SP-engine/2.57.0 baiduboxapp/13.19.0.12 (Baidu; P1 10) NABar/1.0","WebKit","Chrome","97.0.4692.98","AndroidOS","10","null","<div style=""font-size:60px;"">+</div>","null",""
"","","","","","html-button-response","25","95917","0.0-4.0-1.10","4","1","2022-10-06 07:30:39","ab77af23db77f379346475f7099b4f97","219.142.99.14","Mozilla/5.0 (Linux; Android 10; AQM-AL00 Build/HUAWEIAQM-AL00; wv) AppleWebKit/537.36 (KHTML, like Gecko) Version/4.0 Chrome/97.0.4692.98 Mobile Safari/537.36 T7/13.19 BDOS/1.0 (HarmonyOS 2.2.0) SP-engine/2.57.0 baiduboxapp/13.19.0.12 (Baidu; P1 10) NABar/1.0","WebKit","Chrome","97.0.4692.98","AndroidOS","10","3038","<p>作为军队的指挥官，你可以选择发射导弹杀死 <strong>3名</strong> 敌国士兵，但会误杀附近的 <strong>1名</strong> 敌国平民。</p> <p>平民照片如下图所示。</p> <p></p> <img src='stimuli/faces/NCF8.jpg', style='max-width: 30%;'> </img> <p><strong>你是否选择发射武器？</strong></p>","1",""
"","","","","","html-keyboard-response","26","96926","0.0-4.0-0.11","4","1","2022-10-06 07:30:39","ab77af23db77f379346475f7099b4f97","219.142.99.14","Mozilla/5.0 (Linux; Android 10; AQM-AL00 Build/HUAWEIAQM-AL00; wv) AppleWebKit/537.36 (KHTML, like Gecko) Version/4.0 Chrome/97.0.4692.98 Mobile Safari/537.36 T7/13.19 BDOS/1.0 (HarmonyOS 2.2.0) SP-engine/2.57.0 baiduboxapp/13.19.0.12 (Baidu; P1 10) NABar/1.0","WebKit","Chrome","97.0.4692.98","AndroidOS","10","null","<div style=""font-size:60px;"">+</div>","null",""
"","","","","","html-button-response","27","98886","0.0-4.0-1.11","4","1","2022-10-06 07:30:39","ab77af23db77f379346475f7099b4f97","219.142.99.14","Mozilla/5.0 (Linux; Android 10; AQM-AL00 Build/HUAWEIAQM-AL00; wv) AppleWebKit/537.36 (KHTML, like Gecko) Version/4.0 Chrome/97.0.4692.98 Mobile Safari/537.36 T7/13.19 BDOS/1.0 (HarmonyOS 2.2.0) SP-engine/2.57.0 baiduboxapp/13.19.0.12 (Baidu; P1 10) NABar/1.0","WebKit","Chrome","97.0.4692.98","AndroidOS","10","1945","<p>作为军队的指挥官，你可以选择发射导弹杀死 <strong>7名</strong> 敌国士兵，但会炸毁附近的 <strong>1棵</strong> 敌国树木。</p> <p>树木的照片如下图所示。</p> <p></p> <img src='stimuli/trees/4.png', style='max-width: 30%;'> </img> <p><strong>你是否选择发射武器？</strong></p>","1",""
"","","","","","html-keyboard-response","28","99895","0.0-4.0-0.12","4","1","2022-10-06 07:30:39","ab77af23db77f379346475f7099b4f97","219.142.99.14","Mozilla/5.0 (Linux; Android 10; AQM-AL00 Build/HUAWEIAQM-AL00; wv) AppleWebKit/537.36 (KHTML, like Gecko) Version/4.0 Chrome/97.0.4692.98 Mobile Safari/537.36 T7/13.19 BDOS/1.0 (HarmonyOS 2.2.0) SP-engine/2.57.0 baiduboxapp/13.19.0.12 (Baidu; P1 10) NABar/1.0","WebKit","Chrome","97.0.4692.98","AndroidOS","10","null","<div style=""font-size:60px;"">+</div>","null",""
"","","","","","html-button-response","29","102178","0.0-4.0-1.12","4","1","2022-10-06 07:30:39","ab77af23db77f379346475f7099b4f97","219.142.99.14","Mozilla/5.0 (Linux; Android 10; AQM-AL00 Build/HUAWEIAQM-AL00; wv) AppleWebKit/537.36 (KHTML, like Gecko) Version/4.0 Chrome/97.0.4692.98 Mobile Safari/537.36 T7/13.19 BDOS/1.0 (HarmonyOS 2.2.0) SP-engine/2.57.0 baiduboxapp/13.19.0.12 (Baidu; P1 10) NABar/1.0","WebKit","Chrome","97.0.4692.98","AndroidOS","10","2269","<p>作为军队的指挥官，你可以选择发射导弹杀死 <strong>2名</strong> 敌国士兵，但会误杀附近的 <strong>1名</strong> 敌国平民。</p> <p>平民照片如下图所示。</p> <p></p> <img src='stimuli/faces/NCF6.jpg', style='max-width: 30%;'> </img> <p><strong>你是否选择发射武器？</strong></p>","1",""
"","","","","","html-keyboard-response","30","103190","0.0-4.0-0.13","4","1","2022-10-06 07:30:39","ab77af23db77f379346475f7099b4f97","219.142.99.14","Mozilla/5.0 (Linux; Android 10; AQM-AL00 Build/HUAWEIAQM-AL00; wv) AppleWebKit/537.36 (KHTML, like Gecko) Version/4.0 Chrome/97.0.4692.98 Mobile Safari/537.36 T7/13.19 BDOS/1.0 (HarmonyOS 2.2.0) SP-engine/2.57.0 baiduboxapp/13.19.0.12 (Baidu; P1 10) NABar/1.0","WebKit","Chrome","97.0.4692.98","AndroidOS","10","null","<div style=""font-size:60px;"">+</div>","null",""
"","","","","","html-button-response","31","106380","0.0-4.0-1.13","4","1","2022-10-06 07:30:39","ab77af23db77f379346475f7099b4f97","219.142.99.14","Mozilla/5.0 (Linux; Android 10; AQM-AL00 Build/HUAWEIAQM-AL00; wv) AppleWebKit/537.36 (KHTML, like Gecko) Version/4.0 Chrome/97.0.4692.98 Mobile Safari/537.36 T7/13.19 BDOS/1.0 (HarmonyOS 2.2.0) SP-engine/2.57.0 baiduboxapp/13.19.0.12 (Baidu; P1 10) NABar/1.0","WebKit","Chrome","97.0.4692.98","AndroidOS","10","3178","<p>作为军队的指挥官，你可以选择发射导弹杀死 <strong>9名</strong> 敌国士兵，但会炸毁附近的 <strong>1棵</strong> 敌国树木。</p> <p>树木的照片如下图所示。</p> <p></p> <img src='stimuli/trees/12.png', style='max-width: 30%;'> </img> <p><strong>你是否选择发射武器？</strong></p>","1",""
"","","","","","html-keyboard-response","32","107389","0.0-4.0-0.14","4","1","2022-10-06 07:30:39","ab77af23db77f379346475f7099b4f97","219.142.99.14","Mozilla/5.0 (Linux; Android 10; AQM-AL00 Build/HUAWEIAQM-AL00; wv) AppleWebKit/537.36 (KHTML, like Gecko) Version/4.0 Chrome/97.0.4692.98 Mobile Safari/537.36 T7/13.19 BDOS/1.0 (HarmonyOS 2.2.0) SP-engine/2.57.0 baiduboxapp/13.19.0.12 (Baidu; P1 10) NABar/1.0","WebKit","Chrome","97.0.4692.98","AndroidOS","10","null","<div style=""font-size:60px;"">+</div>","null",""
"","","","","","html-button-response","33","111098","0.0-4.0-1.14","4","1","2022-10-06 07:30:39","ab77af23db77f379346475f7099b4f97","219.142.99.14","Mozilla/5.0 (Linux; Android 10; AQM-AL00 Build/HUAWEIAQM-AL00; wv) AppleWebKit/537.36 (KHTML, like Gecko) Version/4.0 Chrome/97.0.4692.98 Mobile Safari/537.36 T7/13.19 BDOS/1.0 (HarmonyOS 2.2.0) SP-engine/2.57.0 baiduboxapp/13.19.0.12 (Baidu; P1 10) NABar/1.0","WebKit","Chrome","97.0.4692.98","AndroidOS","10","3693","<p>作为军队的指挥官，你可以选择发射导弹杀死 <strong>10名</strong> 敌国士兵，但会炸毁附近的 <strong>1棵</strong> 敌国树木。</p> <p>树木的照片如下图所示。</p> <p></p> <img src='stimuli/trees/14.png', style='max-width: 30%;'> </img> <p><strong>你是否选择发射武器？</strong></p>","0",""
"","","","","","html-keyboard-response","34","112109","0.0-4.0-0.15","4","1","2022-10-06 07:30:39","ab77af23db77f379346475f7099b4f97","219.142.99.14","Mozilla/5.0 (Linux; Android 10; AQM-AL00 Build/HUAWEIAQM-AL00; wv) AppleWebKit/537.36 (KHTML, like Gecko) Version/4.0 Chrome/97.0.4692.98 Mobile Safari/537.36 T7/13.19 BDOS/1.0 (HarmonyOS 2.2.0) SP-engine/2.57.0 baiduboxapp/13.19.0.12 (Baidu; P1 10) NABar/1.0","WebKit","Chrome","97.0.4692.98","AndroidOS","10","null","<div style=""font-size:60px;"">+</div>","null",""
"","","","","","html-button-response","35","113773","0.0-4.0-1.15","4","1","2022-10-06 07:30:39","ab77af23db77f379346475f7099b4f97","219.142.99.14","Mozilla/5.0 (Linux; Android 10; AQM-AL00 Build/HUAWEIAQM-AL00; wv) AppleWebKit/537.36 (KHTML, like Gecko) Version/4.0 Chrome/97.0.4692.98 Mobile Safari/537.36 T7/13.19 BDOS/1.0 (HarmonyOS 2.2.0) SP-engine/2.57.0 baiduboxapp/13.19.0.12 (Baidu; P1 10) NABar/1.0","WebKit","Chrome","97.0.4692.98","AndroidOS","10","1651","<p>作为军队的指挥官，你可以选择发射导弹杀死 <strong>1名</strong> 敌国士兵，但会炸毁附近的 <strong>1棵</strong> 敌国树木。</p> <p>树木的照片如下图所示。</p> <p></p> <img src='stimuli/trees/6.png', style='max-width: 30%;'> </img> <p><strong>你是否选择发射武器？</strong></p>","1",""
"","","","","","html-keyboard-response","36","114782","0.0-4.0-0.16","4","1","2022-10-06 07:30:39","ab77af23db77f379346475f7099b4f97","219.142.99.14","Mozilla/5.0 (Linux; Android 10; AQM-AL00 Build/HUAWEIAQM-AL00; wv) AppleWebKit/537.36 (KHTML, like Gecko) Version/4.0 Chrome/97.0.4692.98 Mobile Safari/537.36 T7/13.19 BDOS/1.0 (HarmonyOS 2.2.0) SP-engine/2.57.0 baiduboxapp/13.19.0.12 (Baidu; P1 10) NABar/1.0","WebKit","Chrome","97.0.4692.98","AndroidOS","10","null","<div style=""font-size:60px;"">+</div>","null",""
"","","","","","html-button-response","37","116421","0.0-4.0-1.16","4","1","2022-10-06 07:30:39","ab77af23db77f379346475f7099b4f97","219.142.99.14","Mozilla/5.0 (Linux; Android 10; AQM-AL00 Build/HUAWEIAQM-AL00; wv) AppleWebKit/537.36 (KHTML, like Gecko) Version/4.0 Chrome/97.0.4692.98 Mobile Safari/537.36 T7/13.19 BDOS/1.0 (HarmonyOS 2.2.0) SP-engine/2.57.0 baiduboxapp/13.19.0.12 (Baidu; P1 10) NABar/1.0","WebKit","Chrome","97.0.4692.98","AndroidOS","10","1626","<p>作为军队的指挥官，你可以选择发射导弹杀死 <strong>6名</strong> 敌国士兵，但会误杀附近的 <strong>1名</strong> 敌国平民。</p> <p>平民照片如下图所示。</p> <p></p> <img src='stimuli/faces/NCM2.jpg', style='max-width: 30%;'> </img> <p><strong>你是否选择发射武器？</strong></p>","0",""
"","","","","","html-keyboard-response","38","117429","0.0-4.0-0.17","4","1","2022-10-06 07:30:39","ab77af23db77f379346475f7099b4f97","219.142.99.14","Mozilla/5.0 (Linux; Android 10; AQM-AL00 Build/HUAWEIAQM-AL00; wv) AppleWebKit/537.36 (KHTML, like Gecko) Version/4.0 Chrome/97.0.4692.98 Mobile Safari/537.36 T7/13.19 BDOS/1.0 (HarmonyOS 2.2.0) SP-engine/2.57.0 baiduboxapp/13.19.0.12 (Baidu; P1 10) NABar/1.0","WebKit","Chrome","97.0.4692.98","AndroidOS","10","null","<div style=""font-size:60px;"">+</div>","null",""
"","","","","","html-button-response","39","119230","0.0-4.0-1.17","4","1","2022-10-06 07:30:39","ab77af23db77f379346475f7099b4f97","219.142.99.14","Mozilla/5.0 (Linux; Android 10; AQM-AL00 Build/HUAWEIAQM-AL00; wv) AppleWebKit/537.36 (KHTML, like Gecko) Version/4.0 Chrome/97.0.4692.98 Mobile Safari/537.36 T7/13.19 BDOS/1.0 (HarmonyOS 2.2.0) SP-engine/2.57.0 baiduboxapp/13.19.0.12 (Baidu; P1 10) NABar/1.0","WebKit","Chrome","97.0.4692.98","AndroidOS","10","1786","<p>作为军队的指挥官，你可以选择发射导弹杀死 <strong>2名</strong> 敌国士兵，但会误杀附近的 <strong>1名</strong> 敌国平民。</p> <p>平民照片如下图所示。</p> <p></p> <img src='stimuli/faces/NCF3.jpg', style='max-width: 30%;'> </img> <p><strong>你是否选择发射武器？</strong></p>","1",""
"","","","","","html-keyboard-response","40","120241","0.0-4.0-0.18","4","1","2022-10-06 07:30:39","ab77af23db77f379346475f7099b4f97","219.142.99.14","Mozilla/5.0 (Linux; Android 10; AQM-AL00 Build/HUAWEIAQM-AL00; wv) AppleWebKit/537.36 (KHTML, like Gecko) Version/4.0 Chrome/97.0.4692.98 Mobile Safari/537.36 T7/13.19 BDOS/1.0 (HarmonyOS 2.2.0) SP-engine/2.57.0 baiduboxapp/13.19.0.12 (Baidu; P1 10) NABar/1.0","WebKit","Chrome","97.0.4692.98","AndroidOS","10","null","<div style=""font-size:60px;"">+</div>","null",""
"","","","","","html-button-response","41","125207","0.0-4.0-1.18","4","1","2022-10-06 07:30:39","ab77af23db77f379346475f7099b4f97","219.142.99.14","Mozilla/5.0 (Linux; Android 10; AQM-AL00 Build/HUAWEIAQM-AL00; wv) AppleWebKit/537.36 (KHTML, like Gecko) Version/4.0 Chrome/97.0.4692.98 Mobile Safari/537.36 T7/13.19 BDOS/1.0 (HarmonyOS 2.2.0) SP-engine/2.57.0 baiduboxapp/13.19.0.12 (Baidu; P1 10) NABar/1.0","WebKit","Chrome","97.0.4692.98","AndroidOS","10","4950","<p>作为军队的指挥官，你可以选择发射导弹杀死 <strong>1名</strong> 敌国士兵，但会炸毁附近的 <strong>1棵</strong> 敌国树木。</p> <p>树木的照片如下图所示。</p> <p></p> <img src='stimuli/trees/9.png', style='max-width: 30%;'> </img> <p><strong>你是否选择发射武器？</strong></p>","1",""
"","","","","","html-keyboard-response","42","126220","0.0-4.0-0.19","4","1","2022-10-06 07:30:39","ab77af23db77f379346475f7099b4f97","219.142.99.14","Mozilla/5.0 (Linux; Android 10; AQM-AL00 Build/HUAWEIAQM-AL00; wv) AppleWebKit/537.36 (KHTML, like Gecko) Version/4.0 Chrome/97.0.4692.98 Mobile Safari/537.36 T7/13.19 BDOS/1.0 (HarmonyOS 2.2.0) SP-engine/2.57.0 baiduboxapp/13.19.0.12 (Baidu; P1 10) NABar/1.0","WebKit","Chrome","97.0.4692.98","AndroidOS","10","null","<div style=""font-size:60px;"">+</div>","null",""
"","","","","","html-button-response","43","128078","0.0-4.0-1.19","4","1","2022-10-06 07:30:39","ab77af23db77f379346475f7099b4f97","219.142.99.14","Mozilla/5.0 (Linux; Android 10; AQM-AL00 Build/HUAWEIAQM-AL00; wv) AppleWebKit/537.36 (KHTML, like Gecko) Version/4.0 Chrome/97.0.4692.98 Mobile Safari/537.36 T7/13.19 BDOS/1.0 (HarmonyOS 2.2.0) SP-engine/2.57.0 baiduboxapp/13.19.0.12 (Baidu; P1 10) NABar/1.0","WebKit","Chrome","97.0.4692.98","AndroidOS","10","1842","<p>作为军队的指挥官，你可以选择发射导弹杀死 <strong>8名</strong> 敌国士兵，但会炸毁附近的 <strong>1棵</strong> 敌国树木。</p> <p>树木的照片如下图所示。</p> <p></p> <img src='stimuli/trees/6.png', style='max-width: 30%;'> </img> <p><strong>你是否选择发射武器？</strong></p>","0",""
"","","","","","html-keyboard-response","44","129089","0.0-4.0-0.20","4","1","2022-10-06 07:30:39","ab77af23db77f379346475f7099b4f97","219.142.99.14","Mozilla/5.0 (Linux; Android 10; AQM-AL00 Build/HUAWEIAQM-AL00; wv) AppleWebKit/537.36 (KHTML, like Gecko) Version/4.0 Chrome/97.0.4692.98 Mobile Safari/537.36 T7/13.19 BDOS/1.0 (HarmonyOS 2.2.0) SP-engine/2.57.0 baiduboxapp/13.19.0.12 (Baidu; P1 10) NABar/1.0","WebKit","Chrome","97.0.4692.98","AndroidOS","10","null","<div style=""font-size:60px;"">+</div>","null",""
"","","","","","html-button-response","45","130982","0.0-4.0-1.20","4","1","2022-10-06 07:30:39","ab77af23db77f379346475f7099b4f97","219.142.99.14","Mozilla/5.0 (Linux; Android 10; AQM-AL00 Build/HUAWEIAQM-AL00; wv) AppleWebKit/537.36 (KHTML, like Gecko) Version/4.0 Chrome/97.0.4692.98 Mobile Safari/537.36 T7/13.19 BDOS/1.0 (HarmonyOS 2.2.0) SP-engine/2.57.0 baiduboxapp/13.19.0.12 (Baidu; P1 10) NABar/1.0","WebKit","Chrome","97.0.4692.98","AndroidOS","10","1877","<p>作为军队的指挥官，你可以选择发射导弹杀死 <strong>5名</strong> 敌国士兵，但会误杀附近的 <strong>1名</strong> 敌国平民。</p> <p>平民照片如下图所示。</p> <p></p> <img src='stimuli/faces/NCM4.jpg', style='max-width: 30%;'> </img> <p><strong>你是否选择发射武器？</strong></p>","1",""
"","","","","","html-keyboard-response","46","131993","0.0-4.0-0.21","4","1","2022-10-06 07:30:39","ab77af23db77f379346475f7099b4f97","219.142.99.14","Mozilla/5.0 (Linux; Android 10; AQM-AL00 Build/HUAWEIAQM-AL00; wv) AppleWebKit/537.36 (KHTML, like Gecko) Version/4.0 Chrome/97.0.4692.98 Mobile Safari/537.36 T7/13.19 BDOS/1.0 (HarmonyOS 2.2.0) SP-engine/2.57.0 baiduboxapp/13.19.0.12 (Baidu; P1 10) NABar/1.0","WebKit","Chrome","97.0.4692.98","AndroidOS","10","null","<div style=""font-size:60px;"">+</div>","null",""
"","","","","","html-button-response","47","133479","0.0-4.0-1.21","4","1","2022-10-06 07:30:39","ab77af23db77f379346475f7099b4f97","219.142.99.14","Mozilla/5.0 (Linux; Android 10; AQM-AL00 Build/HUAWEIAQM-AL00; wv) AppleWebKit/537.36 (KHTML, like Gecko) Version/4.0 Chrome/97.0.4692.98 Mobile Safari/537.36 T7/13.19 BDOS/1.0 (HarmonyOS 2.2.0) SP-engine/2.57.0 baiduboxapp/13.19.0.12 (Baidu; P1 10) NABar/1.0","WebKit","Chrome","97.0.4692.98","AndroidOS","10","1469","<p>作为军队的指挥官，你可以选择发射导弹杀死 <strong>7名</strong> 敌国士兵，但会炸毁附近的 <strong>1棵</strong> 敌国树木。</p> <p>树木的照片如下图所示。</p> <p></p> <img src='stimuli/trees/16.png', style='max-width: 30%;'> </img> <p><strong>你是否选择发射武器？</strong></p>","1",""
"","","","","","html-keyboard-response","48","134493","0.0-4.0-0.22","4","1","2022-10-06 07:30:39","ab77af23db77f379346475f7099b4f97","219.142.99.14","Mozilla/5.0 (Linux; Android 10; AQM-AL00 Build/HUAWEIAQM-AL00; wv) AppleWebKit/537.36 (KHTML, like Gecko) Version/4.0 Chrome/97.0.4692.98 Mobile Safari/537.36 T7/13.19 BDOS/1.0 (HarmonyOS 2.2.0) SP-engine/2.57.0 baiduboxapp/13.19.0.12 (Baidu; P1 10) NABar/1.0","WebKit","Chrome","97.0.4692.98","AndroidOS","10","null","<div style=""font-size:60px;"">+</div>","null",""
"","","","","","html-button-response","49","137160","0.0-4.0-1.22","4","1","2022-10-06 07:30:39","ab77af23db77f379346475f7099b4f97","219.142.99.14","Mozilla/5.0 (Linux; Android 10; AQM-AL00 Build/HUAWEIAQM-AL00; wv) AppleWebKit/537.36 (KHTML, like Gecko) Version/4.0 Chrome/97.0.4692.98 Mobile Safari/537.36 T7/13.19 BDOS/1.0 (HarmonyOS 2.2.0) SP-engine/2.57.0 baiduboxapp/13.19.0.12 (Baidu; P1 10) NABar/1.0","WebKit","Chrome","97.0.4692.98","AndroidOS","10","2651","<p>作为军队的指挥官，你可以选择发射导弹杀死 <strong>9名</strong> 敌国士兵，但会误杀附近的 <strong>1名</strong> 敌国平民。</p> <p>平民照片如下图所示。</p> <p></p> <img src='stimuli/faces/NCM6.jpg', style='max-width: 30%;'> </img> <p><strong>你是否选择发射武器？</strong></p>","1",""
"","","","","","html-keyboard-response","50","138174","0.0-4.0-0.23","4","1","2022-10-06 07:30:39","ab77af23db77f379346475f7099b4f97","219.142.99.14","Mozilla/5.0 (Linux; Android 10; AQM-AL00 Build/HUAWEIAQM-AL00; wv) AppleWebKit/537.36 (KHTML, like Gecko) Version/4.0 Chrome/97.0.4692.98 Mobile Safari/537.36 T7/13.19 BDOS/1.0 (HarmonyOS 2.2.0) SP-engine/2.57.0 baiduboxapp/13.19.0.12 (Baidu; P1 10) NABar/1.0","WebKit","Chrome","97.0.4692.98","AndroidOS","10","null","<div style=""font-size:60px;"">+</div>","null",""
"","","","","","html-button-response","51","142066","0.0-4.0-1.23","4","1","2022-10-06 07:30:39","ab77af23db77f379346475f7099b4f97","219.142.99.14","Mozilla/5.0 (Linux; Android 10; AQM-AL00 Build/HUAWEIAQM-AL00; wv) AppleWebKit/537.36 (KHTML, like Gecko) Version/4.0 Chrome/97.0.4692.98 Mobile Safari/537.36 T7/13.19 BDOS/1.0 (HarmonyOS 2.2.0) SP-engine/2.57.0 baiduboxapp/13.19.0.12 (Baidu; P1 10) NABar/1.0","WebKit","Chrome","97.0.4692.98","AndroidOS","10","3880","<p>作为军队的指挥官，你可以选择发射导弹杀死 <strong>3名</strong> 敌国士兵，但会炸毁附近的 <strong>1棵</strong> 敌国树木。</p> <p>树木的照片如下图所示。</p> <p></p> <img src='stimuli/trees/11.png', style='max-width: 30%;'> </img> <p><strong>你是否选择发射武器？</strong></p>","0",""
"","","","","","html-keyboard-response","52","143076","0.0-4.0-0.24","4","1","2022-10-06 07:30:39","ab77af23db77f379346475f7099b4f97","219.142.99.14","Mozilla/5.0 (Linux; Android 10; AQM-AL00 Build/HUAWEIAQM-AL00; wv) AppleWebKit/537.36 (KHTML, like Gecko) Version/4.0 Chrome/97.0.4692.98 Mobile Safari/537.36 T7/13.19 BDOS/1.0 (HarmonyOS 2.2.0) SP-engine/2.57.0 baiduboxapp/13.19.0.12 (Baidu; P1 10) NABar/1.0","WebKit","Chrome","97.0.4692.98","AndroidOS","10","null","<div style=""font-size:60px;"">+</div>","null",""
"","","","","","html-button-response","53","144656","0.0-4.0-1.24","4","1","2022-10-06 07:30:39","ab77af23db77f379346475f7099b4f97","219.142.99.14","Mozilla/5.0 (Linux; Android 10; AQM-AL00 Build/HUAWEIAQM-AL00; wv) AppleWebKit/537.36 (KHTML, like Gecko) Version/4.0 Chrome/97.0.4692.98 Mobile Safari/537.36 T7/13.19 BDOS/1.0 (HarmonyOS 2.2.0) SP-engine/2.57.0 baiduboxapp/13.19.0.12 (Baidu; P1 10) NABar/1.0","WebKit","Chrome","97.0.4692.98","AndroidOS","10","1566","<p>作为军队的指挥官，你可以选择发射导弹杀死 <strong>9名</strong> 敌国士兵，但会误杀附近的 <strong>1名</strong> 敌国平民。</p> <p>平民照片如下图所示。</p> <p></p> <img src='stimuli/faces/NCM4.jpg', style='max-width: 30%;'> </img> <p><strong>你是否选择发射武器？</strong></p>","1",""
"","","","","","html-keyboard-response","54","145677","0.0-4.0-0.25","4","1","2022-10-06 07:30:39","ab77af23db77f379346475f7099b4f97","219.142.99.14","Mozilla/5.0 (Linux; Android 10; AQM-AL00 Build/HUAWEIAQM-AL00; wv) AppleWebKit/537.36 (KHTML, like Gecko) Version/4.0 Chrome/97.0.4692.98 Mobile Safari/537.36 T7/13.19 BDOS/1.0 (HarmonyOS 2.2.0) SP-engine/2.57.0 baiduboxapp/13.19.0.12 (Baidu; P1 10) NABar/1.0","WebKit","Chrome","97.0.4692.98","AndroidOS","10","null","<div style=""font-size:60px;"">+</div>","null",""
"","","","","","html-button-response","55","147251","0.0-4.0-1.25","4","1","2022-10-06 07:30:39","ab77af23db77f379346475f7099b4f97","219.142.99.14","Mozilla/5.0 (Linux; Android 10; AQM-AL00 Build/HUAWEIAQM-AL00; wv) AppleWebKit/537.36 (KHTML, like Gecko) Version/4.0 Chrome/97.0.4692.98 Mobile Safari/537.36 T7/13.19 BDOS/1.0 (HarmonyOS 2.2.0) SP-engine/2.57.0 baiduboxapp/13.19.0.12 (Baidu; P1 10) NABar/1.0","WebKit","Chrome","97.0.4692.98","AndroidOS","10","1559","<p>作为军队的指挥官，你可以选择发射导弹杀死 <strong>5名</strong> 敌国士兵，但会误杀附近的 <strong>1名</strong> 敌国平民。</p> <p>平民照片如下图所示。</p> <p></p> <img src='stimuli/faces/NCF7.jpg', style='max-width: 30%;'> </img> <p><strong>你是否选择发射武器？</strong></p>","0",""
"","","","","","html-keyboard-response","56","148264","0.0-4.0-0.26","4","1","2022-10-06 07:30:39","ab77af23db77f379346475f7099b4f97","219.142.99.14","Mozilla/5.0 (Linux; Android 10; AQM-AL00 Build/HUAWEIAQM-AL00; wv) AppleWebKit/537.36 (KHTML, like Gecko) Version/4.0 Chrome/97.0.4692.98 Mobile Safari/537.36 T7/13.19 BDOS/1.0 (HarmonyOS 2.2.0) SP-engine/2.57.0 baiduboxapp/13.19.0.12 (Baidu; P1 10) NABar/1.0","WebKit","Chrome","97.0.4692.98","AndroidOS","10","null","<div style=""font-size:60px;"">+</div>","null",""
"","","","","","html-button-response","57","149482","0.0-4.0-1.26","4","1","2022-10-06 07:30:39","ab77af23db77f379346475f7099b4f97","219.142.99.14","Mozilla/5.0 (Linux; Android 10; AQM-AL00 Build/HUAWEIAQM-AL00; wv) AppleWebKit/537.36 (KHTML, like Gecko) Version/4.0 Chrome/97.0.4692.98 Mobile Safari/537.36 T7/13.19 BDOS/1.0 (HarmonyOS 2.2.0) SP-engine/2.57.0 baiduboxapp/13.19.0.12 (Baidu; P1 10) NABar/1.0","WebKit","Chrome","97.0.4692.98","AndroidOS","10","1201","<p>作为军队的指挥官，你可以选择发射导弹杀死 <strong>3名</strong> 敌国士兵，但会炸毁附近的 <strong>1棵</strong> 敌国树木。</p> <p>树木的照片如下图所示。</p> <p></p> <img src='stimuli/trees/7.png', style='max-width: 30%;'> </img> <p><strong>你是否选择发射武器？</strong></p>","1",""
"","","","","","html-keyboard-response","58","150496","0.0-4.0-0.27","4","1","2022-10-06 07:30:39","ab77af23db77f379346475f7099b4f97","219.142.99.14","Mozilla/5.0 (Linux; Android 10; AQM-AL00 Build/HUAWEIAQM-AL00; wv) AppleWebKit/537.36 (KHTML, like Gecko) Version/4.0 Chrome/97.0.4692.98 Mobile Safari/537.36 T7/13.19 BDOS/1.0 (HarmonyOS 2.2.0) SP-engine/2.57.0 baiduboxapp/13.19.0.12 (Baidu; P1 10) NABar/1.0","WebKit","Chrome","97.0.4692.98","AndroidOS","10","null","<div style=""font-size:60px;"">+</div>","null",""
"","","","","","html-button-response","59","151939","0.0-4.0-1.27","4","1","2022-10-06 07:30:39","ab77af23db77f379346475f7099b4f97","219.142.99.14","Mozilla/5.0 (Linux; Android 10; AQM-AL00 Build/HUAWEIAQM-AL00; wv) AppleWebKit/537.36 (KHTML, like Gecko) Version/4.0 Chrome/97.0.4692.98 Mobile Safari/537.36 T7/13.19 BDOS/1.0 (HarmonyOS 2.2.0) SP-engine/2.57.0 baiduboxapp/13.19.0.12 (Baidu; P1 10) NABar/1.0","WebKit","Chrome","97.0.4692.98","AndroidOS","10","1427","<p>作为军队的指挥官，你可以选择发射导弹杀死 <strong>2名</strong> 敌国士兵，但会误杀附近的 <strong>1名</strong> 敌国平民。</p> <p>平民照片如下图所示。</p> <p></p> <img src='stimuli/faces/NCM6.jpg', style='max-width: 30%;'> </img> <p><strong>你是否选择发射武器？</strong></p>","0",""
"","","","","","html-keyboard-response","60","152954","0.0-4.0-0.28","4","1","2022-10-06 07:30:39","ab77af23db77f379346475f7099b4f97","219.142.99.14","Mozilla/5.0 (Linux; Android 10; AQM-AL00 Build/HUAWEIAQM-AL00; wv) AppleWebKit/537.36 (KHTML, like Gecko) Version/4.0 Chrome/97.0.4692.98 Mobile Safari/537.36 T7/13.19 BDOS/1.0 (HarmonyOS 2.2.0) SP-engine/2.57.0 baiduboxapp/13.19.0.12 (Baidu; P1 10) NABar/1.0","WebKit","Chrome","97.0.4692.98","AndroidOS","10","null","<div style=""font-size:60px;"">+</div>","null",""
"","","","","","html-button-response","61","154634","0.0-4.0-1.28","4","1","2022-10-06 07:30:39","ab77af23db77f379346475f7099b4f97","219.142.99.14","Mozilla/5.0 (Linux; Android 10; AQM-AL00 Build/HUAWEIAQM-AL00; wv) AppleWebKit/537.36 (KHTML, like Gecko) Version/4.0 Chrome/97.0.4692.98 Mobile Safari/537.36 T7/13.19 BDOS/1.0 (HarmonyOS 2.2.0) SP-engine/2.57.0 baiduboxapp/13.19.0.12 (Baidu; P1 10) NABar/1.0","WebKit","Chrome","97.0.4692.98","AndroidOS","10","1664","<p>作为军队的指挥官，你可以选择发射导弹杀死 <strong>1名</strong> 敌国士兵，但会误杀附近的 <strong>1名</strong> 敌国平民。</p> <p>平民照片如下图所示。</p> <p></p> <img src='stimuli/faces/NCM8.jpg', style='max-width: 30%;'> </img> <p><strong>你是否选择发射武器？</strong></p>","1",""
"","","","","","html-keyboard-response","62","155649","0.0-4.0-0.29","4","1","2022-10-06 07:30:39","ab77af23db77f379346475f7099b4f97","219.142.99.14","Mozilla/5.0 (Linux; Android 10; AQM-AL00 Build/HUAWEIAQM-AL00; wv) AppleWebKit/537.36 (KHTML, like Gecko) Version/4.0 Chrome/97.0.4692.98 Mobile Safari/537.36 T7/13.19 BDOS/1.0 (HarmonyOS 2.2.0) SP-engine/2.57.0 baiduboxapp/13.19.0.12 (Baidu; P1 10) NABar/1.0","WebKit","Chrome","97.0.4692.98","AndroidOS","10","null","<div style=""font-size:60px;"">+</div>","null",""
"","","","","","html-button-response","63","157156","0.0-4.0-1.29","4","1","2022-10-06 07:30:39","ab77af23db77f379346475f7099b4f97","219.142.99.14","Mozilla/5.0 (Linux; Android 10; AQM-AL00 Build/HUAWEIAQM-AL00; wv) AppleWebKit/537.36 (KHTML, like Gecko) Version/4.0 Chrome/97.0.4692.98 Mobile Safari/537.36 T7/13.19 BDOS/1.0 (HarmonyOS 2.2.0) SP-engine/2.57.0 baiduboxapp/13.19.0.12 (Baidu; P1 10) NABar/1.0","WebKit","Chrome","97.0.4692.98","AndroidOS","10","1491","<p>作为军队的指挥官，你可以选择发射导弹杀死 <strong>4名</strong> 敌国士兵，但会炸毁附近的 <strong>1棵</strong> 敌国树木。</p> <p>树木的照片如下图所示。</p> <p></p> <img src='stimuli/trees/13.png', style='max-width: 30%;'> </img> <p><strong>你是否选择发射武器？</strong></p>","1",""
"","","","","","html-keyboard-response","64","158172","0.0-4.0-0.30","4","1","2022-10-06 07:30:39","ab77af23db77f379346475f7099b4f97","219.142.99.14","Mozilla/5.0 (Linux; Android 10; AQM-AL00 Build/HUAWEIAQM-AL00; wv) AppleWebKit/537.36 (KHTML, like Gecko) Version/4.0 Chrome/97.0.4692.98 Mobile Safari/537.36 T7/13.19 BDOS/1.0 (HarmonyOS 2.2.0) SP-engine/2.57.0 baiduboxapp/13.19.0.12 (Baidu; P1 10) NABar/1.0","WebKit","Chrome","97.0.4692.98","AndroidOS","10","null","<div style=""font-size:60px;"">+</div>","null",""
"","","","","","html-button-response","65","159455","0.0-4.0-1.30","4","1","2022-10-06 07:30:39","ab77af23db77f379346475f7099b4f97","219.142.99.14","Mozilla/5.0 (Linux; Android 10; AQM-AL00 Build/HUAWEIAQM-AL00; wv) AppleWebKit/537.36 (KHTML, like Gecko) Version/4.0 Chrome/97.0.4692.98 Mobile Safari/537.36 T7/13.19 BDOS/1.0 (HarmonyOS 2.2.0) SP-engine/2.57.0 baiduboxapp/13.19.0.12 (Baidu; P1 10) NABar/1.0","WebKit","Chrome","97.0.4692.98","AndroidOS","10","1266","<p>作为军队的指挥官，你可以选择发射导弹杀死 <strong>3名</strong> 敌国士兵，但会误杀附近的 <strong>1名</strong> 敌国平民。</p> <p>平民照片如下图所示。</p> <p></p> <img src='stimuli/faces/NCM5.jpg', style='max-width: 30%;'> </img> <p><strong>你是否选择发射武器？</strong></p>","0",""
"","","","","","html-keyboard-response","66","160469","0.0-4.0-0.31","4","1","2022-10-06 07:30:39","ab77af23db77f379346475f7099b4f97","219.142.99.14","Mozilla/5.0 (Linux; Android 10; AQM-AL00 Build/HUAWEIAQM-AL00; wv) AppleWebKit/537.36 (KHTML, like Gecko) Version/4.0 Chrome/97.0.4692.98 Mobile Safari/537.36 T7/13.19 BDOS/1.0 (HarmonyOS 2.2.0) SP-engine/2.57.0 baiduboxapp/13.19.0.12 (Baidu; P1 10) NABar/1.0","WebKit","Chrome","97.0.4692.98","AndroidOS","10","null","<div style=""font-size:60px;"">+</div>","null",""
"","","","","","html-button-response","67","161811","0.0-4.0-1.31","4","1","2022-10-06 07:30:39","ab77af23db77f379346475f7099b4f97","219.142.99.14","Mozilla/5.0 (Linux; Android 10; AQM-AL00 Build/HUAWEIAQM-AL00; wv) AppleWebKit/537.36 (KHTML, like Gecko) Version/4.0 Chrome/97.0.4692.98 Mobile Safari/537.36 T7/13.19 BDOS/1.0 (HarmonyOS 2.2.0) SP-engine/2.57.0 baiduboxapp/13.19.0.12 (Baidu; P1 10) NABar/1.0","WebKit","Chrome","97.0.4692.98","AndroidOS","10","1325","<p>作为军队的指挥官，你可以选择发射导弹杀死 <strong>9名</strong> 敌国士兵，但会误杀附近的 <strong>1名</strong> 敌国平民。</p> <p>平民照片如下图所示。</p> <p></p> <img src='stimuli/faces/NCF4.jpg', style='max-width: 30%;'> </img> <p><strong>你是否选择发射武器？</strong></p>","1",""
"","","","","","html-keyboard-response","68","162826","0.0-4.0-0.32","4","1","2022-10-06 07:30:39","ab77af23db77f379346475f7099b4f97","219.142.99.14","Mozilla/5.0 (Linux; Android 10; AQM-AL00 Build/HUAWEIAQM-AL00; wv) AppleWebKit/537.36 (KHTML, like Gecko) Version/4.0 Chrome/97.0.4692.98 Mobile Safari/537.36 T7/13.19 BDOS/1.0 (HarmonyOS 2.2.0) SP-engine/2.57.0 baiduboxapp/13.19.0.12 (Baidu; P1 10) NABar/1.0","WebKit","Chrome","97.0.4692.98","AndroidOS","10","null","<div style=""font-size:60px;"">+</div>","null",""
"","","","","","html-button-response","69","168924","0.0-4.0-1.32","4","1","2022-10-06 07:30:39","ab77af23db77f379346475f7099b4f97","219.142.99.14","Mozilla/5.0 (Linux; Android 10; AQM-AL00 Build/HUAWEIAQM-AL00; wv) AppleWebKit/537.36 (KHTML, like Gecko) Version/4.0 Chrome/97.0.4692.98 Mobile Safari/537.36 T7/13.19 BDOS/1.0 (HarmonyOS 2.2.0) SP-engine/2.57.0 baiduboxapp/13.19.0.12 (Baidu; P1 10) NABar/1.0","WebKit","Chrome","97.0.4692.98","AndroidOS","10","6080","<p>作为军队的指挥官，你可以选择发射导弹杀死 <strong>7名</strong> 敌国士兵，但会炸毁附近的 <strong>1棵</strong> 敌国树木。</p> <p>树木的照片如下图所示。</p> <p></p> <img src='stimuli/trees/2.png', style='max-width: 30%;'> </img> <p><strong>你是否选择发射武器？</strong></p>","0",""
"","","","","","html-keyboard-response","70","169933","0.0-4.0-0.33","4","1","2022-10-06 07:30:39","ab77af23db77f379346475f7099b4f97","219.142.99.14","Mozilla/5.0 (Linux; Android 10; AQM-AL00 Build/HUAWEIAQM-AL00; wv) AppleWebKit/537.36 (KHTML, like Gecko) Version/4.0 Chrome/97.0.4692.98 Mobile Safari/537.36 T7/13.19 BDOS/1.0 (HarmonyOS 2.2.0) SP-engine/2.57.0 baiduboxapp/13.19.0.12 (Baidu; P1 10) NABar/1.0","WebKit","Chrome","97.0.4692.98","AndroidOS","10","null","<div style=""font-size:60px;"">+</div>","null",""
"","","","","","html-button-response","71","171548","0.0-4.0-1.33","4","1","2022-10-06 07:30:39","ab77af23db77f379346475f7099b4f97","219.142.99.14","Mozilla/5.0 (Linux; Android 10; AQM-AL00 Build/HUAWEIAQM-AL00; wv) AppleWebKit/537.36 (KHTML, like Gecko) Version/4.0 Chrome/97.0.4692.98 Mobile Safari/537.36 T7/13.19 BDOS/1.0 (HarmonyOS 2.2.0) SP-engine/2.57.0 baiduboxapp/13.19.0.12 (Baidu; P1 10) NABar/1.0","WebKit","Chrome","97.0.4692.98","AndroidOS","10","1606","<p>作为军队的指挥官，你可以选择发射导弹杀死 <strong>1名</strong> 敌国士兵，但会误杀附近的 <strong>1名</strong> 敌国平民。</p> <p>平民照片如下图所示。</p> <p></p> <img src='stimuli/faces/NCM7.jpg', style='max-width: 30%;'> </img> <p><strong>你是否选择发射武器？</strong></p>","1",""
"","","","","","html-keyboard-response","72","172560","0.0-4.0-0.34","4","1","2022-10-06 07:30:39","ab77af23db77f379346475f7099b4f97","219.142.99.14","Mozilla/5.0 (Linux; Android 10; AQM-AL00 Build/HUAWEIAQM-AL00; wv) AppleWebKit/537.36 (KHTML, like Gecko) Version/4.0 Chrome/97.0.4692.98 Mobile Safari/537.36 T7/13.19 BDOS/1.0 (HarmonyOS 2.2.0) SP-engine/2.57.0 baiduboxapp/13.19.0.12 (Baidu; P1 10) NABar/1.0","WebKit","Chrome","97.0.4692.98","AndroidOS","10","null","<div style=""font-size:60px;"">+</div>","null",""
"","","","","","html-button-response","73","174330","0.0-4.0-1.34","4","1","2022-10-06 07:30:39","ab77af23db77f379346475f7099b4f97","219.142.99.14","Mozilla/5.0 (Linux; Android 10; AQM-AL00 Build/HUAWEIAQM-AL00; wv) AppleWebKit/537.36 (KHTML, like Gecko) Version/4.0 Chrome/97.0.4692.98 Mobile Safari/537.36 T7/13.19 BDOS/1.0 (HarmonyOS 2.2.0) SP-engine/2.57.0 baiduboxapp/13.19.0.12 (Baidu; P1 10) NABar/1.0","WebKit","Chrome","97.0.4692.98","AndroidOS","10","1761","<p>作为军队的指挥官，你可以选择发射导弹杀死 <strong>7名</strong> 敌国士兵，但会误杀附近的 <strong>1名</strong> 敌国平民。</p> <p>平民照片如下图所示。</p> <p></p> <img src='stimuli/faces/NCF8.jpg', style='max-width: 30%;'> </img> <p><strong>你是否选择发射武器？</strong></p>","0",""
"","","","","","html-keyboard-response","74","175346","0.0-4.0-0.35","4","1","2022-10-06 07:30:39","ab77af23db77f379346475f7099b4f97","219.142.99.14","Mozilla/5.0 (Linux; Android 10; AQM-AL00 Build/HUAWEIAQM-AL00; wv) AppleWebKit/537.36 (KHTML, like Gecko) Version/4.0 Chrome/97.0.4692.98 Mobile Safari/537.36 T7/13.19 BDOS/1.0 (HarmonyOS 2.2.0) SP-engine/2.57.0 baiduboxapp/13.19.0.12 (Baidu; P1 10) NABar/1.0","WebKit","Chrome","97.0.4692.98","AndroidOS","10","null","<div style=""font-size:60px;"">+</div>","null",""
"","","","","","html-button-response","75","176518","0.0-4.0-1.35","4","1","2022-10-06 07:30:39","ab77af23db77f379346475f7099b4f97","219.142.99.14","Mozilla/5.0 (Linux; Android 10; AQM-AL00 Build/HUAWEIAQM-AL00; wv) AppleWebKit/537.36 (KHTML, like Gecko) Version/4.0 Chrome/97.0.4692.98 Mobile Safari/537.36 T7/13.19 BDOS/1.0 (HarmonyOS 2.2.0) SP-engine/2.57.0 baiduboxapp/13.19.0.12 (Baidu; P1 10) NABar/1.0","WebKit","Chrome","97.0.4692.98","AndroidOS","10","1153","<p>作为军队的指挥官，你可以选择发射导弹杀死 <strong>6名</strong> 敌国士兵，但会误杀附近的 <strong>1名</strong> 敌国平民。</p> <p>平民照片如下图所示。</p> <p></p> <img src='stimuli/faces/NCM3.jpg', style='max-width: 30%;'> </img> <p><strong>你是否选择发射武器？</strong></p>","1",""
"","","","","","html-keyboard-response","76","177529","0.0-4.0-0.36","4","1","2022-10-06 07:30:39","ab77af23db77f379346475f7099b4f97","219.142.99.14","Mozilla/5.0 (Linux; Android 10; AQM-AL00 Build/HUAWEIAQM-AL00; wv) AppleWebKit/537.36 (KHTML, like Gecko) Version/4.0 Chrome/97.0.4692.98 Mobile Safari/537.36 T7/13.19 BDOS/1.0 (HarmonyOS 2.2.0) SP-engine/2.57.0 baiduboxapp/13.19.0.12 (Baidu; P1 10) NABar/1.0","WebKit","Chrome","97.0.4692.98","AndroidOS","10","null","<div style=""font-size:60px;"">+</div>","null",""
"","","","","","html-button-response","77","178679","0.0-4.0-1.36","4","1","2022-10-06 07:30:39","ab77af23db77f379346475f7099b4f97","219.142.99.14","Mozilla/5.0 (Linux; Android 10; AQM-AL00 Build/HUAWEIAQM-AL00; wv) AppleWebKit/537.36 (KHTML, like Gecko) Version/4.0 Chrome/97.0.4692.98 Mobile Safari/537.36 T7/13.19 BDOS/1.0 (HarmonyOS 2.2.0) SP-engine/2.57.0 baiduboxapp/13.19.0.12 (Baidu; P1 10) NABar/1.0","WebKit","Chrome","97.0.4692.98","AndroidOS","10","1132","<p>作为军队的指挥官，你可以选择发射导弹杀死 <strong>5名</strong> 敌国士兵，但会炸毁附近的 <strong>1棵</strong> 敌国树木。</p> <p>树木的照片如下图所示。</p> <p></p> <img src='stimuli/trees/16.png', style='max-width: 30%;'> </img> <p><strong>你是否选择发射武器？</strong></p>","0",""
"","","","","","html-keyboard-response","78","179695","0.0-4.0-0.37","4","1","2022-10-06 07:30:39","ab77af23db77f379346475f7099b4f97","219.142.99.14","Mozilla/5.0 (Linux; Android 10; AQM-AL00 Build/HUAWEIAQM-AL00; wv) AppleWebKit/537.36 (KHTML, like Gecko) Version/4.0 Chrome/97.0.4692.98 Mobile Safari/537.36 T7/13.19 BDOS/1.0 (HarmonyOS 2.2.0) SP-engine/2.57.0 baiduboxapp/13.19.0.12 (Baidu; P1 10) NABar/1.0","WebKit","Chrome","97.0.4692.98","AndroidOS","10","null","<div style=""font-size:60px;"">+</div>","null",""
"","","","","","html-button-response","79","180893","0.0-4.0-1.37","4","1","2022-10-06 07:30:39","ab77af23db77f379346475f7099b4f97","219.142.99.14","Mozilla/5.0 (Linux; Android 10; AQM-AL00 Build/HUAWEIAQM-AL00; wv) AppleWebKit/537.36 (KHTML, like Gecko) Version/4.0 Chrome/97.0.4692.98 Mobile Safari/537.36 T7/13.19 BDOS/1.0 (HarmonyOS 2.2.0) SP-engine/2.57.0 baiduboxapp/13.19.0.12 (Baidu; P1 10) NABar/1.0","WebKit","Chrome","97.0.4692.98","AndroidOS","10","1189","<p>作为军队的指挥官，你可以选择发射导弹杀死 <strong>1名</strong> 敌国士兵，但会炸毁附近的 <strong>1棵</strong> 敌国树木。</p> <p>树木的照片如下图所示。</p> <p></p> <img src='stimuli/trees/2.png', style='max-width: 30%;'> </img> <p><strong>你是否选择发射武器？</strong></p>","1",""
"","","","","","html-keyboard-response","80","181909","0.0-4.0-0.38","4","1","2022-10-06 07:30:39","ab77af23db77f379346475f7099b4f97","219.142.99.14","Mozilla/5.0 (Linux; Android 10; AQM-AL00 Build/HUAWEIAQM-AL00; wv) AppleWebKit/537.36 (KHTML, like Gecko) Version/4.0 Chrome/97.0.4692.98 Mobile Safari/537.36 T7/13.19 BDOS/1.0 (HarmonyOS 2.2.0) SP-engine/2.57.0 baiduboxapp/13.19.0.12 (Baidu; P1 10) NABar/1.0","WebKit","Chrome","97.0.4692.98","AndroidOS","10","null","<div style=""font-size:60px;"">+</div>","null",""
"","","","","","html-button-response","81","183091","0.0-4.0-1.38","4","1","2022-10-06 07:30:39","ab77af23db77f379346475f7099b4f97","219.142.99.14","Mozilla/5.0 (Linux; Android 10; AQM-AL00 Build/HUAWEIAQM-AL00; wv) AppleWebKit/537.36 (KHTML, like Gecko) Version/4.0 Chrome/97.0.4692.98 Mobile Safari/537.36 T7/13.19 BDOS/1.0 (HarmonyOS 2.2.0) SP-engine/2.57.0 baiduboxapp/13.19.0.12 (Baidu; P1 10) NABar/1.0","WebKit","Chrome","97.0.4692.98","AndroidOS","10","1164","<p>作为军队的指挥官，你可以选择发射导弹杀死 <strong>9名</strong> 敌国士兵，但会炸毁附近的 <strong>1棵</strong> 敌国树木。</p> <p>树木的照片如下图所示。</p> <p></p> <img src='stimuli/trees/9.png', style='max-width: 30%;'> </img> <p><strong>你是否选择发射武器？</strong></p>","0",""
"","","","","","html-keyboard-response","82","184107","0.0-4.0-0.39","4","1","2022-10-06 07:30:39","ab77af23db77f379346475f7099b4f97","219.142.99.14","Mozilla/5.0 (Linux; Android 10; AQM-AL00 Build/HUAWEIAQM-AL00; wv) AppleWebKit/537.36 (KHTML, like Gecko) Version/4.0 Chrome/97.0.4692.98 Mobile Safari/537.36 T7/13.19 BDOS/1.0 (HarmonyOS 2.2.0) SP-engine/2.57.0 baiduboxapp/13.19.0.12 (Baidu; P1 10) NABar/1.0","WebKit","Chrome","97.0.4692.98","AndroidOS","10","null","<div style=""font-size:60px;"">+</div>","null",""
"","","","","","html-button-response","83","186967","0.0-4.0-1.39","4","1","2022-10-06 07:30:39","ab77af23db77f379346475f7099b4f97","219.142.99.14","Mozilla/5.0 (Linux; Android 10; AQM-AL00 Build/HUAWEIAQM-AL00; wv) AppleWebKit/537.36 (KHTML, like Gecko) Version/4.0 Chrome/97.0.4692.98 Mobile Safari/537.36 T7/13.19 BDOS/1.0 (HarmonyOS 2.2.0) SP-engine/2.57.0 baiduboxapp/13.19.0.12 (Baidu; P1 10) NABar/1.0","WebKit","Chrome","97.0.4692.98","AndroidOS","10","2842","<p>作为军队的指挥官，你可以选择发射导弹杀死 <strong>2名</strong> 敌国士兵，但会炸毁附近的 <strong>1棵</strong> 敌国树木。</p> <p>树木的照片如下图所示。</p> <p></p> <img src='stimuli/trees/8.png', style='max-width: 30%;'> </img> <p><strong>你是否选择发射武器？</strong></p>","1",""
"","","","","","html-keyboard-response","84","187980","0.0-4.0-0.40","4","1","2022-10-06 07:30:39","ab77af23db77f379346475f7099b4f97","219.142.99.14","Mozilla/5.0 (Linux; Android 10; AQM-AL00 Build/HUAWEIAQM-AL00; wv) AppleWebKit/537.36 (KHTML, like Gecko) Version/4.0 Chrome/97.0.4692.98 Mobile Safari/537.36 T7/13.19 BDOS/1.0 (HarmonyOS 2.2.0) SP-engine/2.57.0 baiduboxapp/13.19.0.12 (Baidu; P1 10) NABar/1.0","WebKit","Chrome","97.0.4692.98","AndroidOS","10","null","<div style=""font-size:60px;"">+</div>","null",""
"","","","","","html-button-response","85","189372","0.0-4.0-1.40","4","1","2022-10-06 07:30:39","ab77af23db77f379346475f7099b4f97","219.142.99.14","Mozilla/5.0 (Linux; Android 10; AQM-AL00 Build/HUAWEIAQM-AL00; wv) AppleWebKit/537.36 (KHTML, like Gecko) Version/4.0 Chrome/97.0.4692.98 Mobile Safari/537.36 T7/13.19 BDOS/1.0 (HarmonyOS 2.2.0) SP-engine/2.57.0 baiduboxapp/13.19.0.12 (Baidu; P1 10) NABar/1.0","WebKit","Chrome","97.0.4692.98","AndroidOS","10","1374","<p>作为军队的指挥官，你可以选择发射导弹杀死 <strong>4名</strong> 敌国士兵，但会误杀附近的 <strong>1名</strong> 敌国平民。</p> <p>平民照片如下图所示。</p> <p></p> <img src='stimuli/faces/NCF2.jpg', style='max-width: 30%;'> </img> <p><strong>你是否选择发射武器？</strong></p>","0",""
"","","","","","html-keyboard-response","86","190387","0.0-4.0-0.41","4","1","2022-10-06 07:30:39","ab77af23db77f379346475f7099b4f97","219.142.99.14","Mozilla/5.0 (Linux; Android 10; AQM-AL00 Build/HUAWEIAQM-AL00; wv) AppleWebKit/537.36 (KHTML, like Gecko) Version/4.0 Chrome/97.0.4692.98 Mobile Safari/537.36 T7/13.19 BDOS/1.0 (HarmonyOS 2.2.0) SP-engine/2.57.0 baiduboxapp/13.19.0.12 (Baidu; P1 10) NABar/1.0","WebKit","Chrome","97.0.4692.98","AndroidOS","10","null","<div style=""font-size:60px;"">+</div>","null",""
"","","","","","html-button-response","87","191598","0.0-4.0-1.41","4","1","2022-10-06 07:30:39","ab77af23db77f379346475f7099b4f97","219.142.99.14","Mozilla/5.0 (Linux; Android 10; AQM-AL00 Build/HUAWEIAQM-AL00; wv) AppleWebKit/537.36 (KHTML, like Gecko) Version/4.0 Chrome/97.0.4692.98 Mobile Safari/537.36 T7/13.19 BDOS/1.0 (HarmonyOS 2.2.0) SP-engine/2.57.0 baiduboxapp/13.19.0.12 (Baidu; P1 10) NABar/1.0","WebKit","Chrome","97.0.4692.98","AndroidOS","10","1191","<p>作为军队的指挥官，你可以选择发射导弹杀死 <strong>10名</strong> 敌国士兵，但会炸毁附近的 <strong>1棵</strong> 敌国树木。</p> <p>树木的照片如下图所示。</p> <p></p> <img src='stimuli/trees/11.png', style='max-width: 30%;'> </img> <p><strong>你是否选择发射武器？</strong></p>","1",""
"","","","","","html-keyboard-response","88","192615","0.0-4.0-0.42","4","1","2022-10-06 07:30:39","ab77af23db77f379346475f7099b4f97","219.142.99.14","Mozilla/5.0 (Linux; Android 10; AQM-AL00 Build/HUAWEIAQM-AL00; wv) AppleWebKit/537.36 (KHTML, like Gecko) Version/4.0 Chrome/97.0.4692.98 Mobile Safari/537.36 T7/13.19 BDOS/1.0 (HarmonyOS 2.2.0) SP-engine/2.57.0 baiduboxapp/13.19.0.12 (Baidu; P1 10) NABar/1.0","WebKit","Chrome","97.0.4692.98","AndroidOS","10","null","<div style=""font-size:60px;"">+</div>","null",""
"","","","","","html-button-response","89","194099","0.0-4.0-1.42","4","1","2022-10-06 07:30:39","ab77af23db77f379346475f7099b4f97","219.142.99.14","Mozilla/5.0 (Linux; Android 10; AQM-AL00 Build/HUAWEIAQM-AL00; wv) AppleWebKit/537.36 (KHTML, like Gecko) Version/4.0 Chrome/97.0.4692.98 Mobile Safari/537.36 T7/13.19 BDOS/1.0 (HarmonyOS 2.2.0) SP-engine/2.57.0 baiduboxapp/13.19.0.12 (Baidu; P1 10) NABar/1.0","WebKit","Chrome","97.0.4692.98","AndroidOS","10","1463","<p>作为军队的指挥官，你可以选择发射导弹杀死 <strong>4名</strong> 敌国士兵，但会炸毁附近的 <strong>1棵</strong> 敌国树木。</p> <p>树木的照片如下图所示。</p> <p></p> <img src='stimuli/trees/5.png', style='max-width: 30%;'> </img> <p><strong>你是否选择发射武器？</strong></p>","0",""
"","","","","","html-keyboard-response","90","195121","0.0-4.0-0.43","4","1","2022-10-06 07:30:39","ab77af23db77f379346475f7099b4f97","219.142.99.14","Mozilla/5.0 (Linux; Android 10; AQM-AL00 Build/HUAWEIAQM-AL00; wv) AppleWebKit/537.36 (KHTML, like Gecko) Version/4.0 Chrome/97.0.4692.98 Mobile Safari/537.36 T7/13.19 BDOS/1.0 (HarmonyOS 2.2.0) SP-engine/2.57.0 baiduboxapp/13.19.0.12 (Baidu; P1 10) NABar/1.0","WebKit","Chrome","97.0.4692.98","AndroidOS","10","null","<div style=""font-size:60px;"">+</div>","null",""
"","","","","","html-button-response","91","196686","0.0-4.0-1.43","4","1","2022-10-06 07:30:39","ab77af23db77f379346475f7099b4f97","219.142.99.14","Mozilla/5.0 (Linux; Android 10; AQM-AL00 Build/HUAWEIAQM-AL00; wv) AppleWebKit/537.36 (KHTML, like Gecko) Version/4.0 Chrome/97.0.4692.98 Mobile Safari/537.36 T7/13.19 BDOS/1.0 (HarmonyOS 2.2.0) SP-engine/2.57.0 baiduboxapp/13.19.0.12 (Baidu; P1 10) NABar/1.0","WebKit","Chrome","97.0.4692.98","AndroidOS","10","1545","<p>作为军队的指挥官，你可以选择发射导弹杀死 <strong>7名</strong> 敌国士兵，但会误杀附近的 <strong>1名</strong> 敌国平民。</p> <p>平民照片如下图所示。</p> <p></p> <img src='stimuli/faces/NCF1.jpg', style='max-width: 30%;'> </img> <p><strong>你是否选择发射武器？</strong></p>","1",""
"","","","","","html-keyboard-response","92","197704","0.0-4.0-0.44","4","1","2022-10-06 07:30:39","ab77af23db77f379346475f7099b4f97","219.142.99.14","Mozilla/5.0 (Linux; Android 10; AQM-AL00 Build/HUAWEIAQM-AL00; wv) AppleWebKit/537.36 (KHTML, like Gecko) Version/4.0 Chrome/97.0.4692.98 Mobile Safari/537.36 T7/13.19 BDOS/1.0 (HarmonyOS 2.2.0) SP-engine/2.57.0 baiduboxapp/13.19.0.12 (Baidu; P1 10) NABar/1.0","WebKit","Chrome","97.0.4692.98","AndroidOS","10","null","<div style=""font-size:60px;"">+</div>","null",""
"","","","","","html-button-response","93","198901","0.0-4.0-1.44","4","1","2022-10-06 07:30:39","ab77af23db77f379346475f7099b4f97","219.142.99.14","Mozilla/5.0 (Linux; Android 10; AQM-AL00 Build/HUAWEIAQM-AL00; wv) AppleWebKit/537.36 (KHTML, like Gecko) Version/4.0 Chrome/97.0.4692.98 Mobile Safari/537.36 T7/13.19 BDOS/1.0 (HarmonyOS 2.2.0) SP-engine/2.57.0 baiduboxapp/13.19.0.12 (Baidu; P1 10) NABar/1.0","WebKit","Chrome","97.0.4692.98","AndroidOS","10","1176","<p>作为军队的指挥官，你可以选择发射导弹杀死 <strong>1名</strong> 敌国士兵，但会误杀附近的 <strong>1名</strong> 敌国平民。</p> <p>平民照片如下图所示。</p> <p></p> <img src='stimuli/faces/NCM2.jpg', style='max-width: 30%;'> </img> <p><strong>你是否选择发射武器？</strong></p>","0",""
"","","","","","html-keyboard-response","94","199919","0.0-4.0-0.45","4","1","2022-10-06 07:30:39","ab77af23db77f379346475f7099b4f97","219.142.99.14","Mozilla/5.0 (Linux; Android 10; AQM-AL00 Build/HUAWEIAQM-AL00; wv) AppleWebKit/537.36 (KHTML, like Gecko) Version/4.0 Chrome/97.0.4692.98 Mobile Safari/537.36 T7/13.19 BDOS/1.0 (HarmonyOS 2.2.0) SP-engine/2.57.0 baiduboxapp/13.19.0.12 (Baidu; P1 10) NABar/1.0","WebKit","Chrome","97.0.4692.98","AndroidOS","10","null","<div style=""font-size:60px;"">+</div>","null",""
"","","","","","html-button-response","95","201142","0.0-4.0-1.45","4","1","2022-10-06 07:30:39","ab77af23db77f379346475f7099b4f97","219.142.99.14","Mozilla/5.0 (Linux; Android 10; AQM-AL00 Build/HUAWEIAQM-AL00; wv) AppleWebKit/537.36 (KHTML, like Gecko) Version/4.0 Chrome/97.0.4692.98 Mobile Safari/537.36 T7/13.19 BDOS/1.0 (HarmonyOS 2.2.0) SP-engine/2.57.0 baiduboxapp/13.19.0.12 (Baidu; P1 10) NABar/1.0","WebKit","Chrome","97.0.4692.98","AndroidOS","10","1204","<p>作为军队的指挥官，你可以选择发射导弹杀死 <strong>2名</strong> 敌国士兵，但会炸毁附近的 <strong>1棵</strong> 敌国树木。</p> <p>树木的照片如下图所示。</p> <p></p> <img src='stimuli/trees/3.png', style='max-width: 30%;'> </img> <p><strong>你是否选择发射武器？</strong></p>","1",""
"","","","","","html-keyboard-response","96","202163","0.0-4.0-0.46","4","1","2022-10-06 07:30:39","ab77af23db77f379346475f7099b4f97","219.142.99.14","Mozilla/5.0 (Linux; Android 10; AQM-AL00 Build/HUAWEIAQM-AL00; wv) AppleWebKit/537.36 (KHTML, like Gecko) Version/4.0 Chrome/97.0.4692.98 Mobile Safari/537.36 T7/13.19 BDOS/1.0 (HarmonyOS 2.2.0) SP-engine/2.57.0 baiduboxapp/13.19.0.12 (Baidu; P1 10) NABar/1.0","WebKit","Chrome","97.0.4692.98","AndroidOS","10","null","<div style=""font-size:60px;"">+</div>","null",""
"","","","","","html-button-response","97","203125","0.0-4.0-1.46","4","1","2022-10-06 07:30:39","ab77af23db77f379346475f7099b4f97","219.142.99.14","Mozilla/5.0 (Linux; Android 10; AQM-AL00 Build/HUAWEIAQM-AL00; wv) AppleWebKit/537.36 (KHTML, like Gecko) Version/4.0 Chrome/97.0.4692.98 Mobile Safari/537.36 T7/13.19 BDOS/1.0 (HarmonyOS 2.2.0) SP-engine/2.57.0 baiduboxapp/13.19.0.12 (Baidu; P1 10) NABar/1.0","WebKit","Chrome","97.0.4692.98","AndroidOS","10","941","<p>作为军队的指挥官，你可以选择发射导弹杀死 <strong>9名</strong> 敌国士兵，但会误杀附近的 <strong>1名</strong> 敌国平民。</p> <p>平民照片如下图所示。</p> <p></p> <img src='stimuli/faces/NCM1.jpg', style='max-width: 30%;'> </img> <p><strong>你是否选择发射武器？</strong></p>","1",""
"","","","","","html-keyboard-response","98","204140","0.0-4.0-0.47","4","1","2022-10-06 07:30:39","ab77af23db77f379346475f7099b4f97","219.142.99.14","Mozilla/5.0 (Linux; Android 10; AQM-AL00 Build/HUAWEIAQM-AL00; wv) AppleWebKit/537.36 (KHTML, like Gecko) Version/4.0 Chrome/97.0.4692.98 Mobile Safari/537.36 T7/13.19 BDOS/1.0 (HarmonyOS 2.2.0) SP-engine/2.57.0 baiduboxapp/13.19.0.12 (Baidu; P1 10) NABar/1.0","WebKit","Chrome","97.0.4692.98","AndroidOS","10","null","<div style=""font-size:60px;"">+</div>","null",""
"","","","","","html-button-response","99","204980","0.0-4.0-1.47","4","1","2022-10-06 07:30:39","ab77af23db77f379346475f7099b4f97","219.142.99.14","Mozilla/5.0 (Linux; Android 10; AQM-AL00 Build/HUAWEIAQM-AL00; wv) AppleWebKit/537.36 (KHTML, like Gecko) Version/4.0 Chrome/97.0.4692.98 Mobile Safari/537.36 T7/13.19 BDOS/1.0 (HarmonyOS 2.2.0) SP-engine/2.57.0 baiduboxapp/13.19.0.12 (Baidu; P1 10) NABar/1.0","WebKit","Chrome","97.0.4692.98","AndroidOS","10","820","<p>作为军队的指挥官，你可以选择发射导弹杀死 <strong>6名</strong> 敌国士兵，但会炸毁附近的 <strong>1棵</strong> 敌国树木。</p> <p>树木的照片如下图所示。</p> <p></p> <img src='stimuli/trees/7.png', style='max-width: 30%;'> </img> <p><strong>你是否选择发射武器？</strong></p>","1",""
"","","","","","html-keyboard-response","100","205994","0.0-4.0-0.48","4","1","2022-10-06 07:30:39","ab77af23db77f379346475f7099b4f97","219.142.99.14","Mozilla/5.0 (Linux; Android 10; AQM-AL00 Build/HUAWEIAQM-AL00; wv) AppleWebKit/537.36 (KHTML, like Gecko) Version/4.0 Chrome/97.0.4692.98 Mobile Safari/537.36 T7/13.19 BDOS/1.0 (HarmonyOS 2.2.0) SP-engine/2.57.0 baiduboxapp/13.19.0.12 (Baidu; P1 10) NABar/1.0","WebKit","Chrome","97.0.4692.98","AndroidOS","10","null","<div style=""font-size:60px;"">+</div>","null",""
"","","","","","html-button-response","101","209640","0.0-4.0-1.48","4","1","2022-10-06 07:30:39","ab77af23db77f379346475f7099b4f97","219.142.99.14","Mozilla/5.0 (Linux; Android 10; AQM-AL00 Build/HUAWEIAQM-AL00; wv) AppleWebKit/537.36 (KHTML, like Gecko) Version/4.0 Chrome/97.0.4692.98 Mobile Safari/537.36 T7/13.19 BDOS/1.0 (HarmonyOS 2.2.0) SP-engine/2.57.0 baiduboxapp/13.19.0.12 (Baidu; P1 10) NABar/1.0","WebKit","Chrome","97.0.4692.98","AndroidOS","10","3627","<p>作为军队的指挥官，你可以选择发射导弹杀死 <strong>2名</strong> 敌国士兵，但会炸毁附近的 <strong>1棵</strong> 敌国树木。</p> <p>树木的照片如下图所示。</p> <p></p> <img src='stimuli/trees/15.png', style='max-width: 30%;'> </img> <p><strong>你是否选择发射武器？</strong></p>","1",""
"","","","","","html-keyboard-response","102","210659","0.0-4.0-0.49","4","1","2022-10-06 07:30:39","ab77af23db77f379346475f7099b4f97","219.142.99.14","Mozilla/5.0 (Linux; Android 10; AQM-AL00 Build/HUAWEIAQM-AL00; wv) AppleWebKit/537.36 (KHTML, like Gecko) Version/4.0 Chrome/97.0.4692.98 Mobile Safari/537.36 T7/13.19 BDOS/1.0 (HarmonyOS 2.2.0) SP-engine/2.57.0 baiduboxapp/13.19.0.12 (Baidu; P1 10) NABar/1.0","WebKit","Chrome","97.0.4692.98","AndroidOS","10","null","<div style=""font-size:60px;"">+</div>","null",""
"","","","","","html-button-response","103","212389","0.0-4.0-1.49","4","1","2022-10-06 07:30:39","ab77af23db77f379346475f7099b4f97","219.142.99.14","Mozilla/5.0 (Linux; Android 10; AQM-AL00 Build/HUAWEIAQM-AL00; wv) AppleWebKit/537.36 (KHTML, like Gecko) Version/4.0 Chrome/97.0.4692.98 Mobile Safari/537.36 T7/13.19 BDOS/1.0 (HarmonyOS 2.2.0) SP-engine/2.57.0 baiduboxapp/13.19.0.12 (Baidu; P1 10) NABar/1.0","WebKit","Chrome","97.0.4692.98","AndroidOS","10","1708","<p>作为军队的指挥官，你可以选择发射导弹杀死 <strong>7名</strong> 敌国士兵，但会误杀附近的 <strong>1名</strong> 敌国平民。</p> <p>平民照片如下图所示。</p> <p></p> <img src='stimuli/faces/NCF5.jpg', style='max-width: 30%;'> </img> <p><strong>你是否选择发射武器？</strong></p>","1",""
"","","","","","html-keyboard-response","104","213408","0.0-4.0-0.50","4","1","2022-10-06 07:30:39","ab77af23db77f379346475f7099b4f97","219.142.99.14","Mozilla/5.0 (Linux; Android 10; AQM-AL00 Build/HUAWEIAQM-AL00; wv) AppleWebKit/537.36 (KHTML, like Gecko) Version/4.0 Chrome/97.0.4692.98 Mobile Safari/537.36 T7/13.19 BDOS/1.0 (HarmonyOS 2.2.0) SP-engine/2.57.0 baiduboxapp/13.19.0.12 (Baidu; P1 10) NABar/1.0","WebKit","Chrome","97.0.4692.98","AndroidOS","10","null","<div style=""font-size:60px;"">+</div>","null",""
"","","","","","html-button-response","105","214478","0.0-4.0-1.50","4","1","2022-10-06 07:30:39","ab77af23db77f379346475f7099b4f97","219.142.99.14","Mozilla/5.0 (Linux; Android 10; AQM-AL00 Build/HUAWEIAQM-AL00; wv) AppleWebKit/537.36 (KHTML, like Gecko) Version/4.0 Chrome/97.0.4692.98 Mobile Safari/537.36 T7/13.19 BDOS/1.0 (HarmonyOS 2.2.0) SP-engine/2.57.0 baiduboxapp/13.19.0.12 (Baidu; P1 10) NABar/1.0","WebKit","Chrome","97.0.4692.98","AndroidOS","10","1051","<p>作为军队的指挥官，你可以选择发射导弹杀死 <strong>8名</strong> 敌国士兵，但会炸毁附近的 <strong>1棵</strong> 敌国树木。</p> <p>树木的照片如下图所示。</p> <p></p> <img src='stimuli/trees/13.png', style='max-width: 30%;'> </img> <p><strong>你是否选择发射武器？</strong></p>","0",""
"","","","","","html-keyboard-response","106","215495","0.0-4.0-0.51","4","1","2022-10-06 07:30:39","ab77af23db77f379346475f7099b4f97","219.142.99.14","Mozilla/5.0 (Linux; Android 10; AQM-AL00 Build/HUAWEIAQM-AL00; wv) AppleWebKit/537.36 (KHTML, like Gecko) Version/4.0 Chrome/97.0.4692.98 Mobile Safari/537.36 T7/13.19 BDOS/1.0 (HarmonyOS 2.2.0) SP-engine/2.57.0 baiduboxapp/13.19.0.12 (Baidu; P1 10) NABar/1.0","WebKit","Chrome","97.0.4692.98","AndroidOS","10","null","<div style=""font-size:60px;"">+</div>","null",""
"","","","","","html-button-response","107","216561","0.0-4.0-1.51","4","1","2022-10-06 07:30:39","ab77af23db77f379346475f7099b4f97","219.142.99.14","Mozilla/5.0 (Linux; Android 10; AQM-AL00 Build/HUAWEIAQM-AL00; wv) AppleWebKit/537.36 (KHTML, like Gecko) Version/4.0 Chrome/97.0.4692.98 Mobile Safari/537.36 T7/13.19 BDOS/1.0 (HarmonyOS 2.2.0) SP-engine/2.57.0 baiduboxapp/13.19.0.12 (Baidu; P1 10) NABar/1.0","WebKit","Chrome","97.0.4692.98","AndroidOS","10","1043","<p>作为军队的指挥官，你可以选择发射导弹杀死 <strong>1名</strong> 敌国士兵，但会炸毁附近的 <strong>1棵</strong> 敌国树木。</p> <p>树木的照片如下图所示。</p> <p></p> <img src='stimuli/trees/14.png', style='max-width: 30%;'> </img> <p><strong>你是否选择发射武器？</strong></p>","1",""
"","","","","","html-keyboard-response","108","217581","0.0-4.0-0.52","4","1","2022-10-06 07:30:39","ab77af23db77f379346475f7099b4f97","219.142.99.14","Mozilla/5.0 (Linux; Android 10; AQM-AL00 Build/HUAWEIAQM-AL00; wv) AppleWebKit/537.36 (KHTML, like Gecko) Version/4.0 Chrome/97.0.4692.98 Mobile Safari/537.36 T7/13.19 BDOS/1.0 (HarmonyOS 2.2.0) SP-engine/2.57.0 baiduboxapp/13.19.0.12 (Baidu; P1 10) NABar/1.0","WebKit","Chrome","97.0.4692.98","AndroidOS","10","null","<div style=""font-size:60px;"">+</div>","null",""
"","","","","","html-button-response","109","219873","0.0-4.0-1.52","4","1","2022-10-06 07:30:39","ab77af23db77f379346475f7099b4f97","219.142.99.14","Mozilla/5.0 (Linux; Android 10; AQM-AL00 Build/HUAWEIAQM-AL00; wv) AppleWebKit/537.36 (KHTML, like Gecko) Version/4.0 Chrome/97.0.4692.98 Mobile Safari/537.36 T7/13.19 BDOS/1.0 (HarmonyOS 2.2.0) SP-engine/2.57.0 baiduboxapp/13.19.0.12 (Baidu; P1 10) NABar/1.0","WebKit","Chrome","97.0.4692.98","AndroidOS","10","2271","<p>作为军队的指挥官，你可以选择发射导弹杀死 <strong>3名</strong> 敌国士兵，但会炸毁附近的 <strong>1棵</strong> 敌国树木。</p> <p>树木的照片如下图所示。</p> <p></p> <img src='stimuli/trees/12.png', style='max-width: 30%;'> </img> <p><strong>你是否选择发射武器？</strong></p>","1",""
"","","","","","html-keyboard-response","110","220885","0.0-4.0-0.53","4","1","2022-10-06 07:30:39","ab77af23db77f379346475f7099b4f97","219.142.99.14","Mozilla/5.0 (Linux; Android 10; AQM-AL00 Build/HUAWEIAQM-AL00; wv) AppleWebKit/537.36 (KHTML, like Gecko) Version/4.0 Chrome/97.0.4692.98 Mobile Safari/537.36 T7/13.19 BDOS/1.0 (HarmonyOS 2.2.0) SP-engine/2.57.0 baiduboxapp/13.19.0.12 (Baidu; P1 10) NABar/1.0","WebKit","Chrome","97.0.4692.98","AndroidOS","10","null","<div style=""font-size:60px;"">+</div>","null",""
"","","","","","html-button-response","111","221899","0.0-4.0-1.53","4","1","2022-10-06 07:30:39","ab77af23db77f379346475f7099b4f97","219.142.99.14","Mozilla/5.0 (Linux; Android 10; AQM-AL00 Build/HUAWEIAQM-AL00; wv) AppleWebKit/537.36 (KHTML, like Gecko) Version/4.0 Chrome/97.0.4692.98 Mobile Safari/537.36 T7/13.19 BDOS/1.0 (HarmonyOS 2.2.0) SP-engine/2.57.0 baiduboxapp/13.19.0.12 (Baidu; P1 10) NABar/1.0","WebKit","Chrome","97.0.4692.98","AndroidOS","10","991","<p>作为军队的指挥官，你可以选择发射导弹杀死 <strong>10名</strong> 敌国士兵，但会炸毁附近的 <strong>1棵</strong> 敌国树木。</p> <p>树木的照片如下图所示。</p> <p></p> <img src='stimuli/trees/10.png', style='max-width: 30%;'> </img> <p><strong>你是否选择发射武器？</strong></p>","0",""
"","","","","","html-keyboard-response","112","222920","0.0-4.0-0.54","4","1","2022-10-06 07:30:39","ab77af23db77f379346475f7099b4f97","219.142.99.14","Mozilla/5.0 (Linux; Android 10; AQM-AL00 Build/HUAWEIAQM-AL00; wv) AppleWebKit/537.36 (KHTML, like Gecko) Version/4.0 Chrome/97.0.4692.98 Mobile Safari/537.36 T7/13.19 BDOS/1.0 (HarmonyOS 2.2.0) SP-engine/2.57.0 baiduboxapp/13.19.0.12 (Baidu; P1 10) NABar/1.0","WebKit","Chrome","97.0.4692.98","AndroidOS","10","null","<div style=""font-size:60px;"">+</div>","null",""
"","","","","","html-button-response","113","223897","0.0-4.0-1.54","4","1","2022-10-06 07:30:39","ab77af23db77f379346475f7099b4f97","219.142.99.14","Mozilla/5.0 (Linux; Android 10; AQM-AL00 Build/HUAWEIAQM-AL00; wv) AppleWebKit/537.36 (KHTML, like Gecko) Version/4.0 Chrome/97.0.4692.98 Mobile Safari/537.36 T7/13.19 BDOS/1.0 (HarmonyOS 2.2.0) SP-engine/2.57.0 baiduboxapp/13.19.0.12 (Baidu; P1 10) NABar/1.0","WebKit","Chrome","97.0.4692.98","AndroidOS","10","961","<p>作为军队的指挥官，你可以选择发射导弹杀死 <strong>8名</strong> 敌国士兵，但会误杀附近的 <strong>1名</strong> 敌国平民。</p> <p>平民照片如下图所示。</p> <p></p> <img src='stimuli/faces/NCF3.jpg', style='max-width: 30%;'> </img> <p><strong>你是否选择发射武器？</strong></p>","1",""
"","","","","","html-keyboard-response","114","224918","0.0-4.0-0.55","4","1","2022-10-06 07:30:39","ab77af23db77f379346475f7099b4f97","219.142.99.14","Mozilla/5.0 (Linux; Android 10; AQM-AL00 Build/HUAWEIAQM-AL00; wv) AppleWebKit/537.36 (KHTML, like Gecko) Version/4.0 Chrome/97.0.4692.98 Mobile Safari/537.36 T7/13.19 BDOS/1.0 (HarmonyOS 2.2.0) SP-engine/2.57.0 baiduboxapp/13.19.0.12 (Baidu; P1 10) NABar/1.0","WebKit","Chrome","97.0.4692.98","AndroidOS","10","null","<div style=""font-size:60px;"">+</div>","null",""
"","","","","","html-button-response","115","225906","0.0-4.0-1.55","4","1","2022-10-06 07:30:39","ab77af23db77f379346475f7099b4f97","219.142.99.14","Mozilla/5.0 (Linux; Android 10; AQM-AL00 Build/HUAWEIAQM-AL00; wv) AppleWebKit/537.36 (KHTML, like Gecko) Version/4.0 Chrome/97.0.4692.98 Mobile Safari/537.36 T7/13.19 BDOS/1.0 (HarmonyOS 2.2.0) SP-engine/2.57.0 baiduboxapp/13.19.0.12 (Baidu; P1 10) NABar/1.0","WebKit","Chrome","97.0.4692.98","AndroidOS","10","967","<p>作为军队的指挥官，你可以选择发射导弹杀死 <strong>5名</strong> 敌国士兵，但会误杀附近的 <strong>1名</strong> 敌国平民。</p> <p>平民照片如下图所示。</p> <p></p> <img src='stimuli/faces/NCF4.jpg', style='max-width: 30%;'> </img> <p><strong>你是否选择发射武器？</strong></p>","0",""
"","","","","","html-keyboard-response","116","226924","0.0-4.0-0.56","4","1","2022-10-06 07:30:39","ab77af23db77f379346475f7099b4f97","219.142.99.14","Mozilla/5.0 (Linux; Android 10; AQM-AL00 Build/HUAWEIAQM-AL00; wv) AppleWebKit/537.36 (KHTML, like Gecko) Version/4.0 Chrome/97.0.4692.98 Mobile Safari/537.36 T7/13.19 BDOS/1.0 (HarmonyOS 2.2.0) SP-engine/2.57.0 baiduboxapp/13.19.0.12 (Baidu; P1 10) NABar/1.0","WebKit","Chrome","97.0.4692.98","AndroidOS","10","null","<div style=""font-size:60px;"">+</div>","null",""
"","","","","","html-button-response","117","227696","0.0-4.0-1.56","4","1","2022-10-06 07:30:39","ab77af23db77f379346475f7099b4f97","219.142.99.14","Mozilla/5.0 (Linux; Android 10; AQM-AL00 Build/HUAWEIAQM-AL00; wv) AppleWebKit/537.36 (KHTML, like Gecko) Version/4.0 Chrome/97.0.4692.98 Mobile Safari/537.36 T7/13.19 BDOS/1.0 (HarmonyOS 2.2.0) SP-engine/2.57.0 baiduboxapp/13.19.0.12 (Baidu; P1 10) NABar/1.0","WebKit","Chrome","97.0.4692.98","AndroidOS","10","750","<p>作为军队的指挥官，你可以选择发射导弹杀死 <strong>6名</strong> 敌国士兵，但会误杀附近的 <strong>1名</strong> 敌国平民。</p> <p>平民照片如下图所示。</p> <p></p> <img src='stimuli/faces/NCF6.jpg', style='max-width: 30%;'> </img> <p><strong>你是否选择发射武器？</strong></p>","1",""
"","","","","","html-keyboard-response","118","228713","0.0-4.0-0.57","4","1","2022-10-06 07:30:39","ab77af23db77f379346475f7099b4f97","219.142.99.14","Mozilla/5.0 (Linux; Android 10; AQM-AL00 Build/HUAWEIAQM-AL00; wv) AppleWebKit/537.36 (KHTML, like Gecko) Version/4.0 Chrome/97.0.4692.98 Mobile Safari/537.36 T7/13.19 BDOS/1.0 (HarmonyOS 2.2.0) SP-engine/2.57.0 baiduboxapp/13.19.0.12 (Baidu; P1 10) NABar/1.0","WebKit","Chrome","97.0.4692.98","AndroidOS","10","null","<div style=""font-size:60px;"">+</div>","null",""
"","","","","","html-button-response","119","229619","0.0-4.0-1.57","4","1","2022-10-06 07:30:39","ab77af23db77f379346475f7099b4f97","219.142.99.14","Mozilla/5.0 (Linux; Android 10; AQM-AL00 Build/HUAWEIAQM-AL00; wv) AppleWebKit/537.36 (KHTML, like Gecko) Version/4.0 Chrome/97.0.4692.98 Mobile Safari/537.36 T7/13.19 BDOS/1.0 (HarmonyOS 2.2.0) SP-engine/2.57.0 baiduboxapp/13.19.0.12 (Baidu; P1 10) NABar/1.0","WebKit","Chrome","97.0.4692.98","AndroidOS","10","884","<p>作为军队的指挥官，你可以选择发射导弹杀死 <strong>6名</strong> 敌国士兵，但会误杀附近的 <strong>1名</strong> 敌国平民。</p> <p>平民照片如下图所示。</p> <p></p> <img src='stimuli/faces/NCM8.jpg', style='max-width: 30%;'> </img> <p><strong>你是否选择发射武器？</strong></p>","0",""
"","","","","","html-keyboard-response","120","230650","0.0-4.0-0.58","4","1","2022-10-06 07:30:39","ab77af23db77f379346475f7099b4f97","219.142.99.14","Mozilla/5.0 (Linux; Android 10; AQM-AL00 Build/HUAWEIAQM-AL00; wv) AppleWebKit/537.36 (KHTML, like Gecko) Version/4.0 Chrome/97.0.4692.98 Mobile Safari/537.36 T7/13.19 BDOS/1.0 (HarmonyOS 2.2.0) SP-engine/2.57.0 baiduboxapp/13.19.0.12 (Baidu; P1 10) NABar/1.0","WebKit","Chrome","97.0.4692.98","AndroidOS","10","null","<div style=""font-size:60px;"">+</div>","null",""
"","","","","","html-button-response","121","231670","0.0-4.0-1.58","4","1","2022-10-06 07:30:39","ab77af23db77f379346475f7099b4f97","219.142.99.14","Mozilla/5.0 (Linux; Android 10; AQM-AL00 Build/HUAWEIAQM-AL00; wv) AppleWebKit/537.36 (KHTML, like Gecko) Version/4.0 Chrome/97.0.4692.98 Mobile Safari/537.36 T7/13.19 BDOS/1.0 (HarmonyOS 2.2.0) SP-engine/2.57.0 baiduboxapp/13.19.0.12 (Baidu; P1 10) NABar/1.0","WebKit","Chrome","97.0.4692.98","AndroidOS","10","999","<p>作为军队的指挥官，你可以选择发射导弹杀死 <strong>9名</strong> 敌国士兵，但会炸毁附近的 <strong>1棵</strong> 敌国树木。</p> <p>树木的照片如下图所示。</p> <p></p> <img src='stimuli/trees/15.png', style='max-width: 30%;'> </img> <p><strong>你是否选择发射武器？</strong></p>","1",""
"","","","","","html-keyboard-response","122","232689","0.0-4.0-0.59","4","1","2022-10-06 07:30:39","ab77af23db77f379346475f7099b4f97","219.142.99.14","Mozilla/5.0 (Linux; Android 10; AQM-AL00 Build/HUAWEIAQM-AL00; wv) AppleWebKit/537.36 (KHTML, like Gecko) Version/4.0 Chrome/97.0.4692.98 Mobile Safari/537.36 T7/13.19 BDOS/1.0 (HarmonyOS 2.2.0) SP-engine/2.57.0 baiduboxapp/13.19.0.12 (Baidu; P1 10) NABar/1.0","WebKit","Chrome","97.0.4692.98","AndroidOS","10","null","<div style=""font-size:60px;"">+</div>","null",""
"","","","","","html-button-response","123","235386","0.0-4.0-1.59","4","1","2022-10-06 07:30:39","ab77af23db77f379346475f7099b4f97","219.142.99.14","Mozilla/5.0 (Linux; Android 10; AQM-AL00 Build/HUAWEIAQM-AL00; wv) AppleWebKit/537.36 (KHTML, like Gecko) Version/4.0 Chrome/97.0.4692.98 Mobile Safari/537.36 T7/13.19 BDOS/1.0 (HarmonyOS 2.2.0) SP-engine/2.57.0 baiduboxapp/13.19.0.12 (Baidu; P1 10) NABar/1.0","WebKit","Chrome","97.0.4692.98","AndroidOS","10","2679","<p>作为军队的指挥官，你可以选择发射导弹杀死 <strong>7名</strong> 敌国士兵，但会炸毁附近的 <strong>1棵</strong> 敌国树木。</p> <p>树木的照片如下图所示。</p> <p></p> <img src='stimuli/trees/1.png', style='max-width: 30%;'> </img> <p><strong>你是否选择发射武器？</strong></p>","1",""
"","","","","","html-keyboard-response","124","236399","0.0-4.0-0.60","4","1","2022-10-06 07:30:39","ab77af23db77f379346475f7099b4f97","219.142.99.14","Mozilla/5.0 (Linux; Android 10; AQM-AL00 Build/HUAWEIAQM-AL00; wv) AppleWebKit/537.36 (KHTML, like Gecko) Version/4.0 Chrome/97.0.4692.98 Mobile Safari/537.36 T7/13.19 BDOS/1.0 (HarmonyOS 2.2.0) SP-engine/2.57.0 baiduboxapp/13.19.0.12 (Baidu; P1 10) NABar/1.0","WebKit","Chrome","97.0.4692.98","AndroidOS","10","null","<div style=""font-size:60px;"">+</div>","null",""
"","","","","","html-button-response","125","238666","0.0-4.0-1.60","4","1","2022-10-06 07:30:39","ab77af23db77f379346475f7099b4f97","219.142.99.14","Mozilla/5.0 (Linux; Android 10; AQM-AL00 Build/HUAWEIAQM-AL00; wv) AppleWebKit/537.36 (KHTML, like Gecko) Version/4.0 Chrome/97.0.4692.98 Mobile Safari/537.36 T7/13.19 BDOS/1.0 (HarmonyOS 2.2.0) SP-engine/2.57.0 baiduboxapp/13.19.0.12 (Baidu; P1 10) NABar/1.0","WebKit","Chrome","97.0.4692.98","AndroidOS","10","2248","<p>作为军队的指挥官，你可以选择发射导弹杀死 <strong>8名</strong> 敌国士兵，但会炸毁附近的 <strong>1棵</strong> 敌国树木。</p> <p>树木的照片如下图所示。</p> <p></p> <img src='stimuli/trees/3.png', style='max-width: 30%;'> </img> <p><strong>你是否选择发射武器？</strong></p>","0",""
"","","","","","html-keyboard-response","126","239688","0.0-4.0-0.61","4","1","2022-10-06 07:30:39","ab77af23db77f379346475f7099b4f97","219.142.99.14","Mozilla/5.0 (Linux; Android 10; AQM-AL00 Build/HUAWEIAQM-AL00; wv) AppleWebKit/537.36 (KHTML, like Gecko) Version/4.0 Chrome/97.0.4692.98 Mobile Safari/537.36 T7/13.19 BDOS/1.0 (HarmonyOS 2.2.0) SP-engine/2.57.0 baiduboxapp/13.19.0.12 (Baidu; P1 10) NABar/1.0","WebKit","Chrome","97.0.4692.98","AndroidOS","10","null","<div style=""font-size:60px;"">+</div>","null",""
"","","","","","html-button-response","127","240716","0.0-4.0-1.61","4","1","2022-10-06 07:30:39","ab77af23db77f379346475f7099b4f97","219.142.99.14","Mozilla/5.0 (Linux; Android 10; AQM-AL00 Build/HUAWEIAQM-AL00; wv) AppleWebKit/537.36 (KHTML, like Gecko) Version/4.0 Chrome/97.0.4692.98 Mobile Safari/537.36 T7/13.19 BDOS/1.0 (HarmonyOS 2.2.0) SP-engine/2.57.0 baiduboxapp/13.19.0.12 (Baidu; P1 10) NABar/1.0","WebKit","Chrome","97.0.4692.98","AndroidOS","10","1006","<p>作为军队的指挥官，你可以选择发射导弹杀死 <strong>3名</strong> 敌国士兵，但会误杀附近的 <strong>1名</strong> 敌国平民。</p> <p>平民照片如下图所示。</p> <p></p> <img src='stimuli/faces/NCM3.jpg', style='max-width: 30%;'> </img> <p><strong>你是否选择发射武器？</strong></p>","1",""
"","","","","","html-keyboard-response","128","241734","0.0-4.0-0.62","4","1","2022-10-06 07:30:39","ab77af23db77f379346475f7099b4f97","219.142.99.14","Mozilla/5.0 (Linux; Android 10; AQM-AL00 Build/HUAWEIAQM-AL00; wv) AppleWebKit/537.36 (KHTML, like Gecko) Version/4.0 Chrome/97.0.4692.98 Mobile Safari/537.36 T7/13.19 BDOS/1.0 (HarmonyOS 2.2.0) SP-engine/2.57.0 baiduboxapp/13.19.0.12 (Baidu; P1 10) NABar/1.0","WebKit","Chrome","97.0.4692.98","AndroidOS","10","null","<div style=""font-size:60px;"">+</div>","null",""
"","","","","","html-button-response","129","242629","0.0-4.0-1.62","4","1","2022-10-06 07:30:39","ab77af23db77f379346475f7099b4f97","219.142.99.14","Mozilla/5.0 (Linux; Android 10; AQM-AL00 Build/HUAWEIAQM-AL00; wv) AppleWebKit/537.36 (KHTML, like Gecko) Version/4.0 Chrome/97.0.4692.98 Mobile Safari/537.36 T7/13.19 BDOS/1.0 (HarmonyOS 2.2.0) SP-engine/2.57.0 baiduboxapp/13.19.0.12 (Baidu; P1 10) NABar/1.0","WebKit","Chrome","97.0.4692.98","AndroidOS","10","872","<p>作为军队的指挥官，你可以选择发射导弹杀死 <strong>4名</strong> 敌国士兵，但会炸毁附近的 <strong>1棵</strong> 敌国树木。</p> <p>树木的照片如下图所示。</p> <p></p> <img src='stimuli/trees/4.png', style='max-width: 30%;'> </img> <p><strong>你是否选择发射武器？</strong></p>","1",""
"","","","","","html-keyboard-response","130","243650","0.0-4.0-0.63","4","1","2022-10-06 07:30:39","ab77af23db77f379346475f7099b4f97","219.142.99.14","Mozilla/5.0 (Linux; Android 10; AQM-AL00 Build/HUAWEIAQM-AL00; wv) AppleWebKit/537.36 (KHTML, like Gecko) Version/4.0 Chrome/97.0.4692.98 Mobile Safari/537.36 T7/13.19 BDOS/1.0 (HarmonyOS 2.2.0) SP-engine/2.57.0 baiduboxapp/13.19.0.12 (Baidu; P1 10) NABar/1.0","WebKit","Chrome","97.0.4692.98","AndroidOS","10","null","<div style=""font-size:60px;"">+</div>","null",""
"","","","","","html-button-response","131","245095","0.0-4.0-1.63","4","1","2022-10-06 07:30:39","ab77af23db77f379346475f7099b4f97","219.142.99.14","Mozilla/5.0 (Linux; Android 10; AQM-AL00 Build/HUAWEIAQM-AL00; wv) AppleWebKit/537.36 (KHTML, like Gecko) Version/4.0 Chrome/97.0.4692.98 Mobile Safari/537.36 T7/13.19 BDOS/1.0 (HarmonyOS 2.2.0) SP-engine/2.57.0 baiduboxapp/13.19.0.12 (Baidu; P1 10) NABar/1.0","WebKit","Chrome","97.0.4692.98","AndroidOS","10","1420","<p>作为军队的指挥官，你可以选择发射导弹杀死 <strong>10名</strong> 敌国士兵，但会误杀附近的 <strong>1名</strong> 敌国平民。</p> <p>平民照片如下图所示。</p> <p></p> <img src='stimuli/faces/NCM7.jpg', style='max-width: 30%;'> </img> <p><strong>你是否选择发射武器？</strong></p>","0",""
"","","","","","survey-multi-choice","132","252850","0.0-5.0","4","1","2022-10-06 07:30:39","ab77af23db77f379346475f7099b4f97","219.142.99.14","Mozilla/5.0 (Linux; Android 10; AQM-AL00 Build/HUAWEIAQM-AL00; wv) AppleWebKit/537.36 (KHTML, like Gecko) Version/4.0 Chrome/97.0.4692.98 Mobile Safari/537.36 T7/13.19 BDOS/1.0 (HarmonyOS 2.2.0) SP-engine/2.57.0 baiduboxapp/13.19.0.12 (Baidu; P1 10) NABar/1.0","WebKit","Chrome","97.0.4692.98","AndroidOS","10","7722","","{""Attention1"":""6""}","[0]"
"","","","","","html-button-response","133","255570","0.0-6.0","4","1","2022-10-06 07:30:39","ab77af23db77f379346475f7099b4f97","219.142.99.14","Mozilla/5.0 (Linux; Android 10; AQM-AL00 Build/HUAWEIAQM-AL00; wv) AppleWebKit/537.36 (KHTML, like Gecko) Version/4.0 Chrome/97.0.4692.98 Mobile Safari/537.36 T7/13.19 BDOS/1.0 (HarmonyOS 2.2.0) SP-engine/2.57.0 baiduboxapp/13.19.0.12 (Baidu; P1 10) NABar/1.0","WebKit","Chrome","97.0.4692.98","AndroidOS","10","2688","<p style=""font-size:20px;font-weight:bold;"">恭喜！</p><p>你已经完成了实验的第一部分。</p><p>请休息放松一下，然后进入第二部分。</p><p>这部分大约需要10分钟。</p>","0",""
"","","","","","survey-text","134","289764","0.0-7.0","4","1","2022-10-06 07:30:39","ab77af23db77f379346475f7099b4f97","219.142.99.14","Mozilla/5.0 (Linux; Android 10; AQM-AL00 Build/HUAWEIAQM-AL00; wv) AppleWebKit/537.36 (KHTML, like Gecko) Version/4.0 Chrome/97.0.4692.98 Mobile Safari/537.36 T7/13.19 BDOS/1.0 (HarmonyOS 2.2.0) SP-engine/2.57.0 baiduboxapp/13.19.0.12 (Baidu; P1 10) NABar/1.0","WebKit","Chrome","97.0.4692.98","AndroidOS","10","33139","","{""Age"":""19"",""Nation"":""中国"",""Born"":""北京"",""Live"":""北京"",""Ethnic"":""汉"",""Alipay"":""13683667302""}",""
"","","","","","survey-multi-choice","135","318406","0.0-8.0","4","1","2022-10-06 07:30:39","ab77af23db77f379346475f7099b4f97","219.142.99.14","Mozilla/5.0 (Linux; Android 10; AQM-AL00 Build/HUAWEIAQM-AL00; wv) AppleWebKit/537.36 (KHTML, like Gecko) Version/4.0 Chrome/97.0.4692.98 Mobile Safari/537.36 T7/13.19 BDOS/1.0 (HarmonyOS 2.2.0) SP-engine/2.57.0 baiduboxapp/13.19.0.12 (Baidu; P1 10) NABar/1.0","WebKit","Chrome","97.0.4692.98","AndroidOS","10","28619","","{""Gender"":""男"",""Education"":""高中毕业"",""Income"":""￥35,000-￥69,999"",""Children"":""1"",""Race"":""亚洲人""}","[0,1,2,3,4]"
"","","","","","survey-multi-select","136","337537","0.0-9.0","4","1","2022-10-06 07:30:39","ab77af23db77f379346475f7099b4f97","219.142.99.14","Mozilla/5.0 (Linux; Android 10; AQM-AL00 Build/HUAWEIAQM-AL00; wv) AppleWebKit/537.36 (KHTML, like Gecko) Version/4.0 Chrome/97.0.4692.98 Mobile Safari/537.36 T7/13.19 BDOS/1.0 (HarmonyOS 2.2.0) SP-engine/2.57.0 baiduboxapp/13.19.0.12 (Baidu; P1 10) NABar/1.0","WebKit","Chrome","97.0.4692.98","AndroidOS","10","19065","","{""Marriage"":[""寡居"",""未婚""],""Religion"":[""精神性""]}","[0,1]"
"","","","","","survey-multi-choice","137","343493","0.0-10.0","4","1","2022-10-06 07:30:39","ab77af23db77f379346475f7099b4f97","219.142.99.14","Mozilla/5.0 (Linux; Android 10; AQM-AL00 Build/HUAWEIAQM-AL00; wv) AppleWebKit/537.36 (KHTML, like Gecko) Version/4.0 Chrome/97.0.4692.98 Mobile Safari/537.36 T7/13.19 BDOS/1.0 (HarmonyOS 2.2.0) SP-engine/2.57.0 baiduboxapp/13.19.0.12 (Baidu; P1 10) NABar/1.0","WebKit","Chrome","97.0.4692.98","AndroidOS","10","5937","","{""SES"":""8""}","[0]"
"","","","","","html-button-response","138","348408","0.0-11.0","4","1","2022-10-06 07:30:39","ab77af23db77f379346475f7099b4f97","219.142.99.14","Mozilla/5.0 (Linux; Android 10; AQM-AL00 Build/HUAWEIAQM-AL00; wv) AppleWebKit/537.36 (KHTML, like Gecko) Version/4.0 Chrome/97.0.4692.98 Mobile Safari/537.36 T7/13.19 BDOS/1.0 (HarmonyOS 2.2.0) SP-engine/2.57.0 baiduboxapp/13.19.0.12 (Baidu; P1 10) NABar/1.0","WebKit","Chrome","97.0.4692.98","AndroidOS","10","4884","<p><strong>请判断下列陈述在多大程度上可以形容你？</p><p> (1 = ""和我一点都不像"" to 5 = ""非常像我"".)</strong></p>","0",""
"","","","","","survey-likert","139","361830","0.0-12.0","4","1","2022-10-06 07:30:39","ab77af23db77f379346475f7099b4f97","219.142.99.14","Mozilla/5.0 (Linux; Android 10; AQM-AL00 Build/HUAWEIAQM-AL00; wv) AppleWebKit/537.36 (KHTML, like Gecko) Version/4.0 Chrome/97.0.4692.98 Mobile Safari/537.36 T7/13.19 BDOS/1.0 (HarmonyOS 2.2.0) SP-engine/2.57.0 baiduboxapp/13.19.0.12 (Baidu; P1 10) NABar/1.0","WebKit","Chrome","97.0.4692.98","AndroidOS","10","13391","","{""Aggression1"":3,""Aggression2"":2,""Aggression3"":3,""Aggression4"":1,""Aggression5"":4,""Aggression6"":2,""Aggression7"":1,""Aggression8"":3,""Aggression9"":3}","[0,1,2,3,4,5,6,7,8]"
"","","","","","html-button-response","140","364642","0.0-13.0","4","1","2022-10-06 07:30:39","ab77af23db77f379346475f7099b4f97","219.142.99.14","Mozilla/5.0 (Linux; Android 10; AQM-AL00 Build/HUAWEIAQM-AL00; wv) AppleWebKit/537.36 (KHTML, like Gecko) Version/4.0 Chrome/97.0.4692.98 Mobile Safari/537.36 T7/13.19 BDOS/1.0 (HarmonyOS 2.2.0) SP-engine/2.57.0 baiduboxapp/13.19.0.12 (Baidu; P1 10) NABar/1.0","WebKit","Chrome","97.0.4692.98","AndroidOS","10","2783","<p><strong>请判断你在多大程度上同意下列陈述。</strong></p>","0",""
"","","","","","survey-likert","141","398739","0.0-14.0","4","1","2022-10-06 07:30:39","ab77af23db77f379346475f7099b4f97","219.142.99.14","Mozilla/5.0 (Linux; Android 10; AQM-AL00 Build/HUAWEIAQM-AL00; wv) AppleWebKit/537.36 (KHTML, like Gecko) Version/4.0 Chrome/97.0.4692.98 Mobile Safari/537.36 T7/13.19 BDOS/1.0 (HarmonyOS 2.2.0) SP-engine/2.57.0 baiduboxapp/13.19.0.12 (Baidu; P1 10) NABar/1.0","WebKit","Chrome","97.0.4692.98","AndroidOS","10","34042","","{""scale5"":3,""scale4"":1,""scale11"":3,""scale14"":1,""scale25"":3,""scale27"":2,""scale24"":3,""scale10"":4,""scale28"":3,""scale8"":1,""scale3"":3,""scale21"":1,""scale9"":3,""scale6"":1,""scale19"":3,""scale18"":1,""scale26"":3,""scale13"":2,""scale2"":3,""scale22"":3,""scale16"":1,""scale17"":3,""scale23"":2,""scale12"":3,""scale1"":3,""scale7"":2,""scale15"":3,""scale20"":3}","[4,3,10,13,24,26,23,9,27,7,2,20,8,5,18,17,25,12,1,21,15,16,22,11,0,6,14,19]"
"","","","","","html-button-response","142","400263","0.0-15.0","4","1","2022-10-06 07:30:39","ab77af23db77f379346475f7099b4f97","219.142.99.14","Mozilla/5.0 (Linux; Android 10; AQM-AL00 Build/HUAWEIAQM-AL00; wv) AppleWebKit/537.36 (KHTML, like Gecko) Version/4.0 Chrome/97.0.4692.98 Mobile Safari/537.36 T7/13.19 BDOS/1.0 (HarmonyOS 2.2.0) SP-engine/2.57.0 baiduboxapp/13.19.0.12 (Baidu; P1 10) NABar/1.0","WebKit","Chrome","97.0.4692.98","AndroidOS","10","1493","<p><strong>请判断你在多大程度上同意下列陈述。</strong></p>","0",""
"","","","","","survey-likert","143","425603","0.0-16.0","4","1","2022-10-06 07:30:39","ab77af23db77f379346475f7099b4f97","219.142.99.14","Mozilla/5.0 (Linux; Android 10; AQM-AL00 Build/HUAWEIAQM-AL00; wv) AppleWebKit/537.36 (KHTML, like Gecko) Version/4.0 Chrome/97.0.4692.98 Mobile Safari/537.36 T7/13.19 BDOS/1.0 (HarmonyOS 2.2.0) SP-engine/2.57.0 baiduboxapp/13.19.0.12 (Baidu; P1 10) NABar/1.0","WebKit","Chrome","97.0.4692.98","AndroidOS","10","25299","","{""sdo16"":3,""sdo15"":5,""sdo13"":3,""sdo10"":0,""sdo5"":4,""sdo9"":3,""sdo1"":4,""sdo14"":0,""sdo3"":5,""sdo11"":5,""sdo7"":3,""sdo6"":4,""sdo4"":0,""sdo2"":4,""sdo8"":4,""sdo12"":0}","[15,14,12,9,4,8,0,13,2,10,6,5,3,1,7,11]"
"","","","","","html-button-response","144","426544","0.0-17.0","4","1","2022-10-06 07:30:39","ab77af23db77f379346475f7099b4f97","219.142.99.14","Mozilla/5.0 (Linux; Android 10; AQM-AL00 Build/HUAWEIAQM-AL00; wv) AppleWebKit/537.36 (KHTML, like Gecko) Version/4.0 Chrome/97.0.4692.98 Mobile Safari/537.36 T7/13.19 BDOS/1.0 (HarmonyOS 2.2.0) SP-engine/2.57.0 baiduboxapp/13.19.0.12 (Baidu; P1 10) NABar/1.0","WebKit","Chrome","97.0.4692.98","AndroidOS","10","910","<p><strong>请判断你在多大程度上同意下列陈述。</strong></p>","0",""
"","","","","","survey-likert","145","448387","0.0-18.0","4","1","2022-10-06 07:30:39","ab77af23db77f379346475f7099b4f97","219.142.99.14","Mozilla/5.0 (Linux; Android 10; AQM-AL00 Build/HUAWEIAQM-AL00; wv) AppleWebKit/537.36 (KHTML, like Gecko) Version/4.0 Chrome/97.0.4692.98 Mobile Safari/537.36 T7/13.19 BDOS/1.0 (HarmonyOS 2.2.0) SP-engine/2.57.0 baiduboxapp/13.19.0.12 (Baidu; P1 10) NABar/1.0","WebKit","Chrome","97.0.4692.98","AndroidOS","10","21806","","{""caring1"":4,""liking1"":0,""caring2"":3,""protection1"":1,""liking2"":3,""caring3"":3,""protection2"":2,""liking3"":4,""protection3"":1,""caring4"":3,""liking4"":1,""protection4"":3,""caring5"":2,""liking5"":2,""protection5"":3}","[0,1,2,3,4,5,6,7,8,9,10,11,12,13,14]"
"","","","","","html-button-response","146","452403","0.0-19.0","4","1","2022-10-06 07:30:39","ab77af23db77f379346475f7099b4f97","219.142.99.14","Mozilla/5.0 (Linux; Android 10; AQM-AL00 Build/HUAWEIAQM-AL00; wv) AppleWebKit/537.36 (KHTML, like Gecko) Version/4.0 Chrome/97.0.4692.98 Mobile Safari/537.36 T7/13.19 BDOS/1.0 (HarmonyOS 2.2.0) SP-engine/2.57.0 baiduboxapp/13.19.0.12 (Baidu; P1 10) NABar/1.0","WebKit","Chrome","97.0.4692.98","AndroidOS","10","3986","<p><strong>请判断下列场景中你的内心感受有多柔软。</strong></p>","0",""
"","","","","","survey-likert","147","466768","0.0-20.0","4","1","2022-10-06 07:30:39","ab77af23db77f379346475f7099b4f97","219.142.99.14","Mozilla/5.0 (Linux; Android 10; AQM-AL00 Build/HUAWEIAQM-AL00; wv) AppleWebKit/537.36 (KHTML, like Gecko) Version/4.0 Chrome/97.0.4692.98 Mobile Safari/537.36 T7/13.19 BDOS/1.0 (HarmonyOS 2.2.0) SP-engine/2.57.0 baiduboxapp/13.19.0.12 (Baidu; P1 10) NABar/1.0","WebKit","Chrome","97.0.4692.98","AndroidOS","10","14340","","{""tenderness-positive1"":3,""tenderness-negative1"":1,""tenderness-negative2"":3,""tenderness-positive2"":2,""tenderness-positive3"":0,""tenderness-negative3"":3,""tenderness-positive4"":3,""tendereness-negative4"":3,""tendernness-negative5"":2,""tenderness-positive5"":3}","[0,1,2,3,4,5,6,7,8,9]"
"","","","","","survey-multi-choice","148","474264","0.0-21.0","4","1","2022-10-06 07:30:39","ab77af23db77f379346475f7099b4f97","219.142.99.14","Mozilla/5.0 (Linux; Android 10; AQM-AL00 Build/HUAWEIAQM-AL00; wv) AppleWebKit/537.36 (KHTML, like Gecko) Version/4.0 Chrome/97.0.4692.98 Mobile Safari/537.36 T7/13.19 BDOS/1.0 (HarmonyOS 2.2.0) SP-engine/2.57.0 baiduboxapp/13.19.0.12 (Baidu; P1 10) NABar/1.0","WebKit","Chrome","97.0.4692.98","AndroidOS","10","7463","","{""Attention2"":""每年""}","[0]"
"","","","","","html-button-response","149","477981","0.0-22.0","4","1","2022-10-06 07:30:39","ab77af23db77f379346475f7099b4f97","219.142.99.14","Mozilla/5.0 (Linux; Android 10; AQM-AL00 Build/HUAWEIAQM-AL00; wv) AppleWebKit/537.36 (KHTML, like Gecko) Version/4.0 Chrome/97.0.4692.98 Mobile Safari/537.36 T7/13.19 BDOS/1.0 (HarmonyOS 2.2.0) SP-engine/2.57.0 baiduboxapp/13.19.0.12 (Baidu; P1 10) NABar/1.0","WebKit","Chrome","97.0.4692.98","AndroidOS","10","3679","<p><strong>请判断你在多大程度上同意下列陈述。</strong></p>","0",""
"","","","","","survey-likert","150","511885","0.0-23.0","4","1","2022-10-06 07:30:39","ab77af23db77f379346475f7099b4f97","219.142.99.14","Mozilla/5.0 (Linux; Android 10; AQM-AL00 Build/HUAWEIAQM-AL00; wv) AppleWebKit/537.36 (KHTML, like Gecko) Version/4.0 Chrome/97.0.4692.98 Mobile Safari/537.36 T7/13.19 BDOS/1.0 (HarmonyOS 2.2.0) SP-engine/2.57.0 baiduboxapp/13.19.0.12 (Baidu; P1 10) NABar/1.0","WebKit","Chrome","97.0.4692.98","AndroidOS","10","33863","","{""Nation6"":3,""Patri11"":0,""Patri6"":3,""Nation1"":3,""Nation8"":2,""Patri8"":3,""Patri12"":0,""Nation5"":4,""Nation7"":3,""Patri10"":3,""Nation2"":1,""Nation3"":3,""Patri1"":1,""Patri7"":2,""Patri3"":2,""Patri4"":1,""Patri9"":3,""Nation4"":1,""Patri5"":2,""Patri2"":1}","[17,10,5,12,19,7,11,16,18,9,13,14,0,6,2,3,8,15,4,1]"
"","","","","","html-button-response","151","513247","0.0-24.0","4","1","2022-10-06 07:30:39","ab77af23db77f379346475f7099b4f97","219.142.99.14","Mozilla/5.0 (Linux; Android 10; AQM-AL00 Build/HUAWEIAQM-AL00; wv) AppleWebKit/537.36 (KHTML, like Gecko) Version/4.0 Chrome/97.0.4692.98 Mobile Safari/537.36 T7/13.19 BDOS/1.0 (HarmonyOS 2.2.0) SP-engine/2.57.0 baiduboxapp/13.19.0.12 (Baidu; P1 10) NABar/1.0","WebKit","Chrome","97.0.4692.98","AndroidOS","10","1331","<p><strong>请判断你在多大程度上同意下列陈述。</strong></p>","0",""
"","","","","","survey-likert","152","536504","0.0-25.0","4","1","2022-10-06 07:30:39","ab77af23db77f379346475f7099b4f97","219.142.99.14","Mozilla/5.0 (Linux; Android 10; AQM-AL00 Build/HUAWEIAQM-AL00; wv) AppleWebKit/537.36 (KHTML, like Gecko) Version/4.0 Chrome/97.0.4692.98 Mobile Safari/537.36 T7/13.19 BDOS/1.0 (HarmonyOS 2.2.0) SP-engine/2.57.0 baiduboxapp/13.19.0.12 (Baidu; P1 10) NABar/1.0","WebKit","Chrome","97.0.4692.98","AndroidOS","10","23217","","{""vc1"":5,""vi1"":1,""hi4"":5,""vc2"":6,""vi2"":4,""vi3"":8,""hc2"":0,""Robot"":6,""vi4"":6,""vc4"":0,""hi1"":6,""vc3"":5,""hc1"":8,""hi3"":1,""hi2"":4,""hc3"":7,""hc4"":2}","[13,4,3,14,5,6,10,7,8,16,0,15,9,2,1,11,12]"
"","","","","","survey-text","153","541622","0.0-26.0","4","1","2022-10-06 07:30:39","ab77af23db77f379346475f7099b4f97","219.142.99.14","Mozilla/5.0 (Linux; Android 10; AQM-AL00 Build/HUAWEIAQM-AL00; wv) AppleWebKit/537.36 (KHTML, like Gecko) Version/4.0 Chrome/97.0.4692.98 Mobile Safari/537.36 T7/13.19 BDOS/1.0 (HarmonyOS 2.2.0) SP-engine/2.57.0 baiduboxapp/13.19.0.12 (Baidu; P1 10) NABar/1.0","WebKit","Chrome","97.0.4692.98","AndroidOS","10","5070","","{""Comments"":""无""}",""
"","","","","","html-button-response","154","544835","0.0-27.0","4","1","2022-10-06 07:30:39","ab77af23db77f379346475f7099b4f97","219.142.99.14","Mozilla/5.0 (Linux; Android 10; AQM-AL00 Build/HUAWEIAQM-AL00; wv) AppleWebKit/537.36 (KHTML, like Gecko) Version/4.0 Chrome/97.0.4692.98 Mobile Safari/537.36 T7/13.19 BDOS/1.0 (HarmonyOS 2.2.0) SP-engine/2.57.0 baiduboxapp/13.19.0.12 (Baidu; P1 10) NABar/1.0","WebKit","Chrome","97.0.4692.98","AndroidOS","10","3188","<strong><p>恭喜你完成了实验！</p><p>感谢您的参与。</p></strong>","0",""
