"success","timeout","failed_images","failed_audio","failed_video","trial_type","trial_index","time_elapsed","internal_node_id","run_id","condition","recorded_at","source_code_version","ip","user_agent","device","browser","browser_version","platform","platform_version","rt","stimulus","response","question_order"
"true","false","[]","[]","[]","preload","0","3439","0.0-0.0","44","1","2022-10-07 06:12:28","d60b49b5908c80e163b920d72b52d584","219.142.99.6","Mozilla/5.0 (Windows NT 10.0; Win64; x64) AppleWebKit/537.36 (KHTML, like Gecko) Chrome/105.0.0.0 Safari/537.36 Edg/105.0.1343.50","WebKit","Edge","105.0.1343.50","Windows","10.0","","","",""
"true","","","","","fullscreen","1","7706","0.0-1.0","44","1","2022-10-07 06:12:28","d60b49b5908c80e163b920d72b52d584","219.142.99.6","Mozilla/5.0 (Windows NT 10.0; Win64; x64) AppleWebKit/537.36 (KHTML, like Gecko) Chrome/105.0.0.0 Safari/537.36 Edg/105.0.1343.50","WebKit","Edge","105.0.1343.50","Windows","10.0","","","",""
"","","","","","html-button-response","2","19154","0.0-2.0","44","1","2022-10-07 06:12:28","d60b49b5908c80e163b920d72b52d584","219.142.99.6","Mozilla/5.0 (Windows NT 10.0; Win64; x64) AppleWebKit/537.36 (KHTML, like Gecko) Chrome/105.0.0.0 Safari/537.36 Edg/105.0.1343.50","WebKit","Edge","105.0.1343.50","Windows","10.0","11446","<p style=""font-size:20px;font-weight:bold;"">实验知情同意书</p><p style=""text-align:left;""><strong>实验名称：</strong>社会冲突研究</p><p style=""text-align:left;""><strong>主要研究者：</strong>韩晓春副教授（北京师范大学心理学部）</p><p style=""text-align:left;""><strong>联系方式：</strong>发送邮件至xiaochun.han@bnu.edu.cn</p><p style=""text-align:left;""><strong>研究目的：</strong>研究旨在了解人类面对群体冲突时的决策方式，以及相关的心理学特质。实验调查大约需要20分钟。</p><p style=""text-align:left;""><strong>实验流程：</strong>实验包含两部分。第一部分呈现一系列群体冲突场景，请你决定如何对这些冲突进行反应，大约需要10分钟完成。第二部分包含一系列人口统计学信息收集和心理学问卷，大约需要10分钟完成。</p><p style=""text-align:left;""><strong>参加及退出规则：</strong>参加本实验完全取决于您的个人意愿。在参与过程中，您可以随时退出，并且不用承担任何后果。</p><p style=""text-align:left;""><strong>隐私：</strong>本实验完全匿名进行，不会收集您的姓名或其他能够识别您身份的信息。实验中收集的作答仅用作科学研究使用，可能会在学术期刊/书籍上发表，或者用于教学，您的数据未来可能会和其他研究者或实验室分享，但您的个人身份不会被识别。</p><p style=""text-align:left;""><strong>实验报酬：</strong>实验完成后，您将获得15元人民币报酬，以感谢您的时间和努力。调查问卷中包含几道题目用以测验您作答时的认真度。只有完成全部实验，并且正确回答认真度测验的被试才能获得实验报酬。实验报酬将通过支付宝转账发放。</p><p style=""text-align:left;font-size:20px;""><strong>如果您同意以上实验知情同意书的内容，请点击'同意并且开始实验'按钮；否则请关闭浏览器界面，退出实验。</strong></p>","0",""
"","","","","","html-button-response","3","23706","0.0-3.0","44","1","2022-10-07 06:12:28","d60b49b5908c80e163b920d72b52d584","219.142.99.6","Mozilla/5.0 (Windows NT 10.0; Win64; x64) AppleWebKit/537.36 (KHTML, like Gecko) Chrome/105.0.0.0 Safari/537.36 Edg/105.0.1343.50","WebKit","Edge","105.0.1343.50","Windows","10.0","4550","<p ><strong>实验任务一：</strong></p><p>请想象你的国家与另一个国家发生了军事冲突。</p><p>你是国家军队的指挥官，你将如何在冲突中进行决策。</p><p>具体来说，作为军队指挥官，请你决定是否发射导弹进行打击。</p><p>接下来，你会面对一系列场景，请仔细阅读每个场景，然后进行决策。</p><p>这部分实验任务大约需要10分钟。</p><p><strong>实验过程中，请集中注意力。</strong></p>","0",""
"","","","","","html-keyboard-response","4","24719","0.0-4.0-0.0","44","1","2022-10-07 06:12:28","d60b49b5908c80e163b920d72b52d584","219.142.99.6","Mozilla/5.0 (Windows NT 10.0; Win64; x64) AppleWebKit/537.36 (KHTML, like Gecko) Chrome/105.0.0.0 Safari/537.36 Edg/105.0.1343.50","WebKit","Edge","105.0.1343.50","Windows","10.0","null","<div style=""font-size:60px;"">+</div>","null",""
"","","","","","html-button-response","5","38073","0.0-4.0-1.0","44","1","2022-10-07 06:12:28","d60b49b5908c80e163b920d72b52d584","219.142.99.6","Mozilla/5.0 (Windows NT 10.0; Win64; x64) AppleWebKit/537.36 (KHTML, like Gecko) Chrome/105.0.0.0 Safari/537.36 Edg/105.0.1343.50","WebKit","Edge","105.0.1343.50","Windows","10.0","13353","<p>作为军队的指挥官，你可以选择发射导弹杀死 <strong>6名</strong> 敌国士兵，但会误杀附近的 <strong>1名</strong> 敌国平民。</p> <p>平民照片如下图所示。</p> <p></p> <img src='stimuli/faces/NCM8.jpg', style='max-width: 30%;'> </img> <p><strong>你是否选择发射武器？</strong></p>","0",""
"","","","","","html-keyboard-response","6","39088","0.0-4.0-0.1","44","1","2022-10-07 06:12:28","d60b49b5908c80e163b920d72b52d584","219.142.99.6","Mozilla/5.0 (Windows NT 10.0; Win64; x64) AppleWebKit/537.36 (KHTML, like Gecko) Chrome/105.0.0.0 Safari/537.36 Edg/105.0.1343.50","WebKit","Edge","105.0.1343.50","Windows","10.0","null","<div style=""font-size:60px;"">+</div>","null",""
"","","","","","html-button-response","7","41754","0.0-4.0-1.1","44","1","2022-10-07 06:12:28","d60b49b5908c80e163b920d72b52d584","219.142.99.6","Mozilla/5.0 (Windows NT 10.0; Win64; x64) AppleWebKit/537.36 (KHTML, like Gecko) Chrome/105.0.0.0 Safari/537.36 Edg/105.0.1343.50","WebKit","Edge","105.0.1343.50","Windows","10.0","2664","<p>作为军队的指挥官，你可以选择发射导弹杀死 <strong>6名</strong> 敌国士兵，但会炸毁附近的 <strong>1棵</strong> 敌国树木。</p> <p>树木的照片如下图所示。</p> <p></p> <img src='stimuli/trees/7.png', style='max-width: 30%;'> </img> <p><strong>你是否选择发射武器？</strong></p>","0",""
"","","","","","html-keyboard-response","8","42761","0.0-4.0-0.2","44","1","2022-10-07 06:12:28","d60b49b5908c80e163b920d72b52d584","219.142.99.6","Mozilla/5.0 (Windows NT 10.0; Win64; x64) AppleWebKit/537.36 (KHTML, like Gecko) Chrome/105.0.0.0 Safari/537.36 Edg/105.0.1343.50","WebKit","Edge","105.0.1343.50","Windows","10.0","null","<div style=""font-size:60px;"">+</div>","null",""
"","","","","","html-button-response","9","48417","0.0-4.0-1.2","44","1","2022-10-07 06:12:28","d60b49b5908c80e163b920d72b52d584","219.142.99.6","Mozilla/5.0 (Windows NT 10.0; Win64; x64) AppleWebKit/537.36 (KHTML, like Gecko) Chrome/105.0.0.0 Safari/537.36 Edg/105.0.1343.50","WebKit","Edge","105.0.1343.50","Windows","10.0","5654","<p>作为军队的指挥官，你可以选择发射导弹杀死 <strong>1名</strong> 敌国士兵，但会误杀附近的 <strong>1名</strong> 敌国平民。</p> <p>平民照片如下图所示。</p> <p></p> <img src='stimuli/faces/NCF4.jpg', style='max-width: 30%;'> </img> <p><strong>你是否选择发射武器？</strong></p>","1",""
"","","","","","html-keyboard-response","10","49419","0.0-4.0-0.3","44","1","2022-10-07 06:12:28","d60b49b5908c80e163b920d72b52d584","219.142.99.6","Mozilla/5.0 (Windows NT 10.0; Win64; x64) AppleWebKit/537.36 (KHTML, like Gecko) Chrome/105.0.0.0 Safari/537.36 Edg/105.0.1343.50","WebKit","Edge","105.0.1343.50","Windows","10.0","null","<div style=""font-size:60px;"">+</div>","null",""
"","","","","","html-button-response","11","55625","0.0-4.0-1.3","44","1","2022-10-07 06:12:28","d60b49b5908c80e163b920d72b52d584","219.142.99.6","Mozilla/5.0 (Windows NT 10.0; Win64; x64) AppleWebKit/537.36 (KHTML, like Gecko) Chrome/105.0.0.0 Safari/537.36 Edg/105.0.1343.50","WebKit","Edge","105.0.1343.50","Windows","10.0","6204","<p>作为军队的指挥官，你可以选择发射导弹杀死 <strong>9名</strong> 敌国士兵，但会炸毁附近的 <strong>1棵</strong> 敌国树木。</p> <p>树木的照片如下图所示。</p> <p></p> <img src='stimuli/trees/15.png', style='max-width: 30%;'> </img> <p><strong>你是否选择发射武器？</strong></p>","0",""
"","","","","","html-keyboard-response","12","56634","0.0-4.0-0.4","44","1","2022-10-07 06:12:28","d60b49b5908c80e163b920d72b52d584","219.142.99.6","Mozilla/5.0 (Windows NT 10.0; Win64; x64) AppleWebKit/537.36 (KHTML, like Gecko) Chrome/105.0.0.0 Safari/537.36 Edg/105.0.1343.50","WebKit","Edge","105.0.1343.50","Windows","10.0","null","<div style=""font-size:60px;"">+</div>","null",""
"","","","","","html-button-response","13","60073","0.0-4.0-1.4","44","1","2022-10-07 06:12:28","d60b49b5908c80e163b920d72b52d584","219.142.99.6","Mozilla/5.0 (Windows NT 10.0; Win64; x64) AppleWebKit/537.36 (KHTML, like Gecko) Chrome/105.0.0.0 Safari/537.36 Edg/105.0.1343.50","WebKit","Edge","105.0.1343.50","Windows","10.0","3437","<p>作为军队的指挥官，你可以选择发射导弹杀死 <strong>10名</strong> 敌国士兵，但会误杀附近的 <strong>1名</strong> 敌国平民。</p> <p>平民照片如下图所示。</p> <p></p> <img src='stimuli/faces/NCF3.jpg', style='max-width: 30%;'> </img> <p><strong>你是否选择发射武器？</strong></p>","0",""
"","","","","","html-keyboard-response","14","61083","0.0-4.0-0.5","44","1","2022-10-07 06:12:28","d60b49b5908c80e163b920d72b52d584","219.142.99.6","Mozilla/5.0 (Windows NT 10.0; Win64; x64) AppleWebKit/537.36 (KHTML, like Gecko) Chrome/105.0.0.0 Safari/537.36 Edg/105.0.1343.50","WebKit","Edge","105.0.1343.50","Windows","10.0","null","<div style=""font-size:60px;"">+</div>","null",""
"","","","","","html-button-response","15","63745","0.0-4.0-1.5","44","1","2022-10-07 06:12:28","d60b49b5908c80e163b920d72b52d584","219.142.99.6","Mozilla/5.0 (Windows NT 10.0; Win64; x64) AppleWebKit/537.36 (KHTML, like Gecko) Chrome/105.0.0.0 Safari/537.36 Edg/105.0.1343.50","WebKit","Edge","105.0.1343.50","Windows","10.0","2661","<p>作为军队的指挥官，你可以选择发射导弹杀死 <strong>5名</strong> 敌国士兵，但会误杀附近的 <strong>1名</strong> 敌国平民。</p> <p>平民照片如下图所示。</p> <p></p> <img src='stimuli/faces/NCF2.jpg', style='max-width: 30%;'> </img> <p><strong>你是否选择发射武器？</strong></p>","0",""
"","","","","","html-keyboard-response","16","64747","0.0-4.0-0.6","44","1","2022-10-07 06:12:28","d60b49b5908c80e163b920d72b52d584","219.142.99.6","Mozilla/5.0 (Windows NT 10.0; Win64; x64) AppleWebKit/537.36 (KHTML, like Gecko) Chrome/105.0.0.0 Safari/537.36 Edg/105.0.1343.50","WebKit","Edge","105.0.1343.50","Windows","10.0","null","<div style=""font-size:60px;"">+</div>","null",""
"","","","","","html-button-response","17","67569","0.0-4.0-1.6","44","1","2022-10-07 06:12:28","d60b49b5908c80e163b920d72b52d584","219.142.99.6","Mozilla/5.0 (Windows NT 10.0; Win64; x64) AppleWebKit/537.36 (KHTML, like Gecko) Chrome/105.0.0.0 Safari/537.36 Edg/105.0.1343.50","WebKit","Edge","105.0.1343.50","Windows","10.0","2821","<p>作为军队的指挥官，你可以选择发射导弹杀死 <strong>4名</strong> 敌国士兵，但会炸毁附近的 <strong>1棵</strong> 敌国树木。</p> <p>树木的照片如下图所示。</p> <p></p> <img src='stimuli/trees/11.png', style='max-width: 30%;'> </img> <p><strong>你是否选择发射武器？</strong></p>","0",""
"","","","","","html-keyboard-response","18","68572","0.0-4.0-0.7","44","1","2022-10-07 06:12:28","d60b49b5908c80e163b920d72b52d584","219.142.99.6","Mozilla/5.0 (Windows NT 10.0; Win64; x64) AppleWebKit/537.36 (KHTML, like Gecko) Chrome/105.0.0.0 Safari/537.36 Edg/105.0.1343.50","WebKit","Edge","105.0.1343.50","Windows","10.0","null","<div style=""font-size:60px;"">+</div>","null",""
"","","","","","html-button-response","19","71938","0.0-4.0-1.7","44","1","2022-10-07 06:12:28","d60b49b5908c80e163b920d72b52d584","219.142.99.6","Mozilla/5.0 (Windows NT 10.0; Win64; x64) AppleWebKit/537.36 (KHTML, like Gecko) Chrome/105.0.0.0 Safari/537.36 Edg/105.0.1343.50","WebKit","Edge","105.0.1343.50","Windows","10.0","3361","<p>作为军队的指挥官，你可以选择发射导弹杀死 <strong>8名</strong> 敌国士兵，但会误杀附近的 <strong>1名</strong> 敌国平民。</p> <p>平民照片如下图所示。</p> <p></p> <img src='stimuli/faces/NCM2.jpg', style='max-width: 30%;'> </img> <p><strong>你是否选择发射武器？</strong></p>","0",""
"","","","","","html-keyboard-response","20","72942","0.0-4.0-0.8","44","1","2022-10-07 06:12:28","d60b49b5908c80e163b920d72b52d584","219.142.99.6","Mozilla/5.0 (Windows NT 10.0; Win64; x64) AppleWebKit/537.36 (KHTML, like Gecko) Chrome/105.0.0.0 Safari/537.36 Edg/105.0.1343.50","WebKit","Edge","105.0.1343.50","Windows","10.0","null","<div style=""font-size:60px;"">+</div>","null",""
"","","","","","html-button-response","21","75145","0.0-4.0-1.8","44","1","2022-10-07 06:12:28","d60b49b5908c80e163b920d72b52d584","219.142.99.6","Mozilla/5.0 (Windows NT 10.0; Win64; x64) AppleWebKit/537.36 (KHTML, like Gecko) Chrome/105.0.0.0 Safari/537.36 Edg/105.0.1343.50","WebKit","Edge","105.0.1343.50","Windows","10.0","2200","<p>作为军队的指挥官，你可以选择发射导弹杀死 <strong>10名</strong> 敌国士兵，但会炸毁附近的 <strong>1棵</strong> 敌国树木。</p> <p>树木的照片如下图所示。</p> <p></p> <img src='stimuli/trees/5.png', style='max-width: 30%;'> </img> <p><strong>你是否选择发射武器？</strong></p>","0",""
"","","","","","html-keyboard-response","22","76163","0.0-4.0-0.9","44","1","2022-10-07 06:12:28","d60b49b5908c80e163b920d72b52d584","219.142.99.6","Mozilla/5.0 (Windows NT 10.0; Win64; x64) AppleWebKit/537.36 (KHTML, like Gecko) Chrome/105.0.0.0 Safari/537.36 Edg/105.0.1343.50","WebKit","Edge","105.0.1343.50","Windows","10.0","null","<div style=""font-size:60px;"">+</div>","null",""
"","","","","","html-button-response","23","78785","0.0-4.0-1.9","44","1","2022-10-07 06:12:28","d60b49b5908c80e163b920d72b52d584","219.142.99.6","Mozilla/5.0 (Windows NT 10.0; Win64; x64) AppleWebKit/537.36 (KHTML, like Gecko) Chrome/105.0.0.0 Safari/537.36 Edg/105.0.1343.50","WebKit","Edge","105.0.1343.50","Windows","10.0","2618","<p>作为军队的指挥官，你可以选择发射导弹杀死 <strong>1名</strong> 敌国士兵，但会误杀附近的 <strong>1名</strong> 敌国平民。</p> <p>平民照片如下图所示。</p> <p></p> <img src='stimuli/faces/NCM5.jpg', style='max-width: 30%;'> </img> <p><strong>你是否选择发射武器？</strong></p>","1",""
"","","","","","html-keyboard-response","24","79796","0.0-4.0-0.10","44","1","2022-10-07 06:12:28","d60b49b5908c80e163b920d72b52d584","219.142.99.6","Mozilla/5.0 (Windows NT 10.0; Win64; x64) AppleWebKit/537.36 (KHTML, like Gecko) Chrome/105.0.0.0 Safari/537.36 Edg/105.0.1343.50","WebKit","Edge","105.0.1343.50","Windows","10.0","null","<div style=""font-size:60px;"">+</div>","null",""
"","","","","","html-button-response","25","81169","0.0-4.0-1.10","44","1","2022-10-07 06:12:28","d60b49b5908c80e163b920d72b52d584","219.142.99.6","Mozilla/5.0 (Windows NT 10.0; Win64; x64) AppleWebKit/537.36 (KHTML, like Gecko) Chrome/105.0.0.0 Safari/537.36 Edg/105.0.1343.50","WebKit","Edge","105.0.1343.50","Windows","10.0","1371","<p>作为军队的指挥官，你可以选择发射导弹杀死 <strong>10名</strong> 敌国士兵，但会误杀附近的 <strong>1名</strong> 敌国平民。</p> <p>平民照片如下图所示。</p> <p></p> <img src='stimuli/faces/NCF2.jpg', style='max-width: 30%;'> </img> <p><strong>你是否选择发射武器？</strong></p>","0",""
"","","","","","html-keyboard-response","26","82172","0.0-4.0-0.11","44","1","2022-10-07 06:12:28","d60b49b5908c80e163b920d72b52d584","219.142.99.6","Mozilla/5.0 (Windows NT 10.0; Win64; x64) AppleWebKit/537.36 (KHTML, like Gecko) Chrome/105.0.0.0 Safari/537.36 Edg/105.0.1343.50","WebKit","Edge","105.0.1343.50","Windows","10.0","null","<div style=""font-size:60px;"">+</div>","null",""
"","","","","","html-button-response","27","84633","0.0-4.0-1.11","44","1","2022-10-07 06:12:28","d60b49b5908c80e163b920d72b52d584","219.142.99.6","Mozilla/5.0 (Windows NT 10.0; Win64; x64) AppleWebKit/537.36 (KHTML, like Gecko) Chrome/105.0.0.0 Safari/537.36 Edg/105.0.1343.50","WebKit","Edge","105.0.1343.50","Windows","10.0","2459","<p>作为军队的指挥官，你可以选择发射导弹杀死 <strong>2名</strong> 敌国士兵，但会误杀附近的 <strong>1名</strong> 敌国平民。</p> <p>平民照片如下图所示。</p> <p></p> <img src='stimuli/faces/NCF1.jpg', style='max-width: 30%;'> </img> <p><strong>你是否选择发射武器？</strong></p>","1",""
"","","","","","html-keyboard-response","28","85636","0.0-4.0-0.12","44","1","2022-10-07 06:12:28","d60b49b5908c80e163b920d72b52d584","219.142.99.6","Mozilla/5.0 (Windows NT 10.0; Win64; x64) AppleWebKit/537.36 (KHTML, like Gecko) Chrome/105.0.0.0 Safari/537.36 Edg/105.0.1343.50","WebKit","Edge","105.0.1343.50","Windows","10.0","null","<div style=""font-size:60px;"">+</div>","null",""
"","","","","","html-button-response","29","88281","0.0-4.0-1.12","44","1","2022-10-07 06:12:28","d60b49b5908c80e163b920d72b52d584","219.142.99.6","Mozilla/5.0 (Windows NT 10.0; Win64; x64) AppleWebKit/537.36 (KHTML, like Gecko) Chrome/105.0.0.0 Safari/537.36 Edg/105.0.1343.50","WebKit","Edge","105.0.1343.50","Windows","10.0","2642","<p>作为军队的指挥官，你可以选择发射导弹杀死 <strong>7名</strong> 敌国士兵，但会误杀附近的 <strong>1名</strong> 敌国平民。</p> <p>平民照片如下图所示。</p> <p></p> <img src='stimuli/faces/NCF4.jpg', style='max-width: 30%;'> </img> <p><strong>你是否选择发射武器？</strong></p>","0",""
"","","","","","html-keyboard-response","30","89292","0.0-4.0-0.13","44","1","2022-10-07 06:12:28","d60b49b5908c80e163b920d72b52d584","219.142.99.6","Mozilla/5.0 (Windows NT 10.0; Win64; x64) AppleWebKit/537.36 (KHTML, like Gecko) Chrome/105.0.0.0 Safari/537.36 Edg/105.0.1343.50","WebKit","Edge","105.0.1343.50","Windows","10.0","null","<div style=""font-size:60px;"">+</div>","null",""
"","","","","","html-button-response","31","92145","0.0-4.0-1.13","44","1","2022-10-07 06:12:28","d60b49b5908c80e163b920d72b52d584","219.142.99.6","Mozilla/5.0 (Windows NT 10.0; Win64; x64) AppleWebKit/537.36 (KHTML, like Gecko) Chrome/105.0.0.0 Safari/537.36 Edg/105.0.1343.50","WebKit","Edge","105.0.1343.50","Windows","10.0","2849","<p>作为军队的指挥官，你可以选择发射导弹杀死 <strong>4名</strong> 敌国士兵，但会误杀附近的 <strong>1名</strong> 敌国平民。</p> <p>平民照片如下图所示。</p> <p></p> <img src='stimuli/faces/NCF6.jpg', style='max-width: 30%;'> </img> <p><strong>你是否选择发射武器？</strong></p>","0",""
"","","","","","html-keyboard-response","32","93150","0.0-4.0-0.14","44","1","2022-10-07 06:12:28","d60b49b5908c80e163b920d72b52d584","219.142.99.6","Mozilla/5.0 (Windows NT 10.0; Win64; x64) AppleWebKit/537.36 (KHTML, like Gecko) Chrome/105.0.0.0 Safari/537.36 Edg/105.0.1343.50","WebKit","Edge","105.0.1343.50","Windows","10.0","null","<div style=""font-size:60px;"">+</div>","null",""
"","","","","","html-button-response","33","95401","0.0-4.0-1.14","44","1","2022-10-07 06:12:28","d60b49b5908c80e163b920d72b52d584","219.142.99.6","Mozilla/5.0 (Windows NT 10.0; Win64; x64) AppleWebKit/537.36 (KHTML, like Gecko) Chrome/105.0.0.0 Safari/537.36 Edg/105.0.1343.50","WebKit","Edge","105.0.1343.50","Windows","10.0","2249","<p>作为军队的指挥官，你可以选择发射导弹杀死 <strong>9名</strong> 敌国士兵，但会炸毁附近的 <strong>1棵</strong> 敌国树木。</p> <p>树木的照片如下图所示。</p> <p></p> <img src='stimuli/trees/16.png', style='max-width: 30%;'> </img> <p><strong>你是否选择发射武器？</strong></p>","0",""
"","","","","","html-keyboard-response","34","96403","0.0-4.0-0.15","44","1","2022-10-07 06:12:28","d60b49b5908c80e163b920d72b52d584","219.142.99.6","Mozilla/5.0 (Windows NT 10.0; Win64; x64) AppleWebKit/537.36 (KHTML, like Gecko) Chrome/105.0.0.0 Safari/537.36 Edg/105.0.1343.50","WebKit","Edge","105.0.1343.50","Windows","10.0","null","<div style=""font-size:60px;"">+</div>","null",""
"","","","","","html-button-response","35","98641","0.0-4.0-1.15","44","1","2022-10-07 06:12:28","d60b49b5908c80e163b920d72b52d584","219.142.99.6","Mozilla/5.0 (Windows NT 10.0; Win64; x64) AppleWebKit/537.36 (KHTML, like Gecko) Chrome/105.0.0.0 Safari/537.36 Edg/105.0.1343.50","WebKit","Edge","105.0.1343.50","Windows","10.0","2237","<p>作为军队的指挥官，你可以选择发射导弹杀死 <strong>5名</strong> 敌国士兵，但会炸毁附近的 <strong>1棵</strong> 敌国树木。</p> <p>树木的照片如下图所示。</p> <p></p> <img src='stimuli/trees/3.png', style='max-width: 30%;'> </img> <p><strong>你是否选择发射武器？</strong></p>","0",""
"","","","","","html-keyboard-response","36","99655","0.0-4.0-0.16","44","1","2022-10-07 06:12:28","d60b49b5908c80e163b920d72b52d584","219.142.99.6","Mozilla/5.0 (Windows NT 10.0; Win64; x64) AppleWebKit/537.36 (KHTML, like Gecko) Chrome/105.0.0.0 Safari/537.36 Edg/105.0.1343.50","WebKit","Edge","105.0.1343.50","Windows","10.0","null","<div style=""font-size:60px;"">+</div>","null",""
"","","","","","html-button-response","37","194985","0.0-4.0-1.16","44","1","2022-10-07 06:12:28","d60b49b5908c80e163b920d72b52d584","219.142.99.6","Mozilla/5.0 (Windows NT 10.0; Win64; x64) AppleWebKit/537.36 (KHTML, like Gecko) Chrome/105.0.0.0 Safari/537.36 Edg/105.0.1343.50","WebKit","Edge","105.0.1343.50","Windows","10.0","95328","<p>作为军队的指挥官，你可以选择发射导弹杀死 <strong>7名</strong> 敌国士兵，但会误杀附近的 <strong>1名</strong> 敌国平民。</p> <p>平民照片如下图所示。</p> <p></p> <img src='stimuli/faces/NCF8.jpg', style='max-width: 30%;'> </img> <p><strong>你是否选择发射武器？</strong></p>","0",""
"","","","","","html-keyboard-response","38","195998","0.0-4.0-0.17","44","1","2022-10-07 06:12:28","d60b49b5908c80e163b920d72b52d584","219.142.99.6","Mozilla/5.0 (Windows NT 10.0; Win64; x64) AppleWebKit/537.36 (KHTML, like Gecko) Chrome/105.0.0.0 Safari/537.36 Edg/105.0.1343.50","WebKit","Edge","105.0.1343.50","Windows","10.0","null","<div style=""font-size:60px;"">+</div>","null",""
"","","","","","html-button-response","39","197361","0.0-4.0-1.17","44","1","2022-10-07 06:12:28","d60b49b5908c80e163b920d72b52d584","219.142.99.6","Mozilla/5.0 (Windows NT 10.0; Win64; x64) AppleWebKit/537.36 (KHTML, like Gecko) Chrome/105.0.0.0 Safari/537.36 Edg/105.0.1343.50","WebKit","Edge","105.0.1343.50","Windows","10.0","1358","<p>作为军队的指挥官，你可以选择发射导弹杀死 <strong>7名</strong> 敌国士兵，但会误杀附近的 <strong>1名</strong> 敌国平民。</p> <p>平民照片如下图所示。</p> <p></p> <img src='stimuli/faces/NCM1.jpg', style='max-width: 30%;'> </img> <p><strong>你是否选择发射武器？</strong></p>","0",""
"","","","","","html-keyboard-response","40","198364","0.0-4.0-0.18","44","1","2022-10-07 06:12:28","d60b49b5908c80e163b920d72b52d584","219.142.99.6","Mozilla/5.0 (Windows NT 10.0; Win64; x64) AppleWebKit/537.36 (KHTML, like Gecko) Chrome/105.0.0.0 Safari/537.36 Edg/105.0.1343.50","WebKit","Edge","105.0.1343.50","Windows","10.0","null","<div style=""font-size:60px;"">+</div>","null",""
"","","","","","html-button-response","41","199537","0.0-4.0-1.18","44","1","2022-10-07 06:12:28","d60b49b5908c80e163b920d72b52d584","219.142.99.6","Mozilla/5.0 (Windows NT 10.0; Win64; x64) AppleWebKit/537.36 (KHTML, like Gecko) Chrome/105.0.0.0 Safari/537.36 Edg/105.0.1343.50","WebKit","Edge","105.0.1343.50","Windows","10.0","1171","<p>作为军队的指挥官，你可以选择发射导弹杀死 <strong>4名</strong> 敌国士兵，但会误杀附近的 <strong>1名</strong> 敌国平民。</p> <p>平民照片如下图所示。</p> <p></p> <img src='stimuli/faces/NCF7.jpg', style='max-width: 30%;'> </img> <p><strong>你是否选择发射武器？</strong></p>","0",""
"","","","","","html-keyboard-response","42","200540","0.0-4.0-0.19","44","1","2022-10-07 06:12:28","d60b49b5908c80e163b920d72b52d584","219.142.99.6","Mozilla/5.0 (Windows NT 10.0; Win64; x64) AppleWebKit/537.36 (KHTML, like Gecko) Chrome/105.0.0.0 Safari/537.36 Edg/105.0.1343.50","WebKit","Edge","105.0.1343.50","Windows","10.0","null","<div style=""font-size:60px;"">+</div>","null",""
"","","","","","html-button-response","43","202601","0.0-4.0-1.19","44","1","2022-10-07 06:12:28","d60b49b5908c80e163b920d72b52d584","219.142.99.6","Mozilla/5.0 (Windows NT 10.0; Win64; x64) AppleWebKit/537.36 (KHTML, like Gecko) Chrome/105.0.0.0 Safari/537.36 Edg/105.0.1343.50","WebKit","Edge","105.0.1343.50","Windows","10.0","2057","<p>作为军队的指挥官，你可以选择发射导弹杀死 <strong>8名</strong> 敌国士兵，但会炸毁附近的 <strong>1棵</strong> 敌国树木。</p> <p>树木的照片如下图所示。</p> <p></p> <img src='stimuli/trees/12.png', style='max-width: 30%;'> </img> <p><strong>你是否选择发射武器？</strong></p>","0",""
"","","","","","html-keyboard-response","44","203608","0.0-4.0-0.20","44","1","2022-10-07 06:12:28","d60b49b5908c80e163b920d72b52d584","219.142.99.6","Mozilla/5.0 (Windows NT 10.0; Win64; x64) AppleWebKit/537.36 (KHTML, like Gecko) Chrome/105.0.0.0 Safari/537.36 Edg/105.0.1343.50","WebKit","Edge","105.0.1343.50","Windows","10.0","null","<div style=""font-size:60px;"">+</div>","null",""
"","","","","","html-button-response","45","204897","0.0-4.0-1.20","44","1","2022-10-07 06:12:28","d60b49b5908c80e163b920d72b52d584","219.142.99.6","Mozilla/5.0 (Windows NT 10.0; Win64; x64) AppleWebKit/537.36 (KHTML, like Gecko) Chrome/105.0.0.0 Safari/537.36 Edg/105.0.1343.50","WebKit","Edge","105.0.1343.50","Windows","10.0","1287","<p>作为军队的指挥官，你可以选择发射导弹杀死 <strong>2名</strong> 敌国士兵，但会误杀附近的 <strong>1名</strong> 敌国平民。</p> <p>平民照片如下图所示。</p> <p></p> <img src='stimuli/faces/NCM6.jpg', style='max-width: 30%;'> </img> <p><strong>你是否选择发射武器？</strong></p>","1",""
"","","","","","html-keyboard-response","46","205911","0.0-4.0-0.21","44","1","2022-10-07 06:12:28","d60b49b5908c80e163b920d72b52d584","219.142.99.6","Mozilla/5.0 (Windows NT 10.0; Win64; x64) AppleWebKit/537.36 (KHTML, like Gecko) Chrome/105.0.0.0 Safari/537.36 Edg/105.0.1343.50","WebKit","Edge","105.0.1343.50","Windows","10.0","null","<div style=""font-size:60px;"">+</div>","null",""
"","","","","","html-button-response","47","207921","0.0-4.0-1.21","44","1","2022-10-07 06:12:28","d60b49b5908c80e163b920d72b52d584","219.142.99.6","Mozilla/5.0 (Windows NT 10.0; Win64; x64) AppleWebKit/537.36 (KHTML, like Gecko) Chrome/105.0.0.0 Safari/537.36 Edg/105.0.1343.50","WebKit","Edge","105.0.1343.50","Windows","10.0","2008","<p>作为军队的指挥官，你可以选择发射导弹杀死 <strong>3名</strong> 敌国士兵，但会误杀附近的 <strong>1名</strong> 敌国平民。</p> <p>平民照片如下图所示。</p> <p></p> <img src='stimuli/faces/NCM3.jpg', style='max-width: 30%;'> </img> <p><strong>你是否选择发射武器？</strong></p>","1",""
"","","","","","html-keyboard-response","48","208923","0.0-4.0-0.22","44","1","2022-10-07 06:12:28","d60b49b5908c80e163b920d72b52d584","219.142.99.6","Mozilla/5.0 (Windows NT 10.0; Win64; x64) AppleWebKit/537.36 (KHTML, like Gecko) Chrome/105.0.0.0 Safari/537.36 Edg/105.0.1343.50","WebKit","Edge","105.0.1343.50","Windows","10.0","null","<div style=""font-size:60px;"">+</div>","null",""
"","","","","","html-button-response","49","210265","0.0-4.0-1.22","44","1","2022-10-07 06:12:28","d60b49b5908c80e163b920d72b52d584","219.142.99.6","Mozilla/5.0 (Windows NT 10.0; Win64; x64) AppleWebKit/537.36 (KHTML, like Gecko) Chrome/105.0.0.0 Safari/537.36 Edg/105.0.1343.50","WebKit","Edge","105.0.1343.50","Windows","10.0","1341","<p>作为军队的指挥官，你可以选择发射导弹杀死 <strong>9名</strong> 敌国士兵，但会误杀附近的 <strong>1名</strong> 敌国平民。</p> <p>平民照片如下图所示。</p> <p></p> <img src='stimuli/faces/NCF1.jpg', style='max-width: 30%;'> </img> <p><strong>你是否选择发射武器？</strong></p>","0",""
"","","","","","html-keyboard-response","50","211267","0.0-4.0-0.23","44","1","2022-10-07 06:12:28","d60b49b5908c80e163b920d72b52d584","219.142.99.6","Mozilla/5.0 (Windows NT 10.0; Win64; x64) AppleWebKit/537.36 (KHTML, like Gecko) Chrome/105.0.0.0 Safari/537.36 Edg/105.0.1343.50","WebKit","Edge","105.0.1343.50","Windows","10.0","null","<div style=""font-size:60px;"">+</div>","null",""
"","","","","","html-button-response","51","212993","0.0-4.0-1.23","44","1","2022-10-07 06:12:28","d60b49b5908c80e163b920d72b52d584","219.142.99.6","Mozilla/5.0 (Windows NT 10.0; Win64; x64) AppleWebKit/537.36 (KHTML, like Gecko) Chrome/105.0.0.0 Safari/537.36 Edg/105.0.1343.50","WebKit","Edge","105.0.1343.50","Windows","10.0","1725","<p>作为军队的指挥官，你可以选择发射导弹杀死 <strong>2名</strong> 敌国士兵，但会误杀附近的 <strong>1名</strong> 敌国平民。</p> <p>平民照片如下图所示。</p> <p></p> <img src='stimuli/faces/NCF8.jpg', style='max-width: 30%;'> </img> <p><strong>你是否选择发射武器？</strong></p>","1",""
"","","","","","html-keyboard-response","52","213994","0.0-4.0-0.24","44","1","2022-10-07 06:12:28","d60b49b5908c80e163b920d72b52d584","219.142.99.6","Mozilla/5.0 (Windows NT 10.0; Win64; x64) AppleWebKit/537.36 (KHTML, like Gecko) Chrome/105.0.0.0 Safari/537.36 Edg/105.0.1343.50","WebKit","Edge","105.0.1343.50","Windows","10.0","null","<div style=""font-size:60px;"">+</div>","null",""
"","","","","","html-button-response","53","272633","0.0-4.0-1.24","44","1","2022-10-07 06:12:28","d60b49b5908c80e163b920d72b52d584","219.142.99.6","Mozilla/5.0 (Windows NT 10.0; Win64; x64) AppleWebKit/537.36 (KHTML, like Gecko) Chrome/105.0.0.0 Safari/537.36 Edg/105.0.1343.50","WebKit","Edge","105.0.1343.50","Windows","10.0","58636","<p>作为军队的指挥官，你可以选择发射导弹杀死 <strong>10名</strong> 敌国士兵，但会炸毁附近的 <strong>1棵</strong> 敌国树木。</p> <p>树木的照片如下图所示。</p> <p></p> <img src='stimuli/trees/13.png', style='max-width: 30%;'> </img> <p><strong>你是否选择发射武器？</strong></p>","0",""
"","","","","","html-keyboard-response","54","273636","0.0-4.0-0.25","44","1","2022-10-07 06:12:28","d60b49b5908c80e163b920d72b52d584","219.142.99.6","Mozilla/5.0 (Windows NT 10.0; Win64; x64) AppleWebKit/537.36 (KHTML, like Gecko) Chrome/105.0.0.0 Safari/537.36 Edg/105.0.1343.50","WebKit","Edge","105.0.1343.50","Windows","10.0","null","<div style=""font-size:60px;"">+</div>","null",""
"","","","","","html-button-response","55","275081","0.0-4.0-1.25","44","1","2022-10-07 06:12:28","d60b49b5908c80e163b920d72b52d584","219.142.99.6","Mozilla/5.0 (Windows NT 10.0; Win64; x64) AppleWebKit/537.36 (KHTML, like Gecko) Chrome/105.0.0.0 Safari/537.36 Edg/105.0.1343.50","WebKit","Edge","105.0.1343.50","Windows","10.0","1443","<p>作为军队的指挥官，你可以选择发射导弹杀死 <strong>4名</strong> 敌国士兵，但会误杀附近的 <strong>1名</strong> 敌国平民。</p> <p>平民照片如下图所示。</p> <p></p> <img src='stimuli/faces/NCM4.jpg', style='max-width: 30%;'> </img> <p><strong>你是否选择发射武器？</strong></p>","0",""
"","","","","","html-keyboard-response","56","276083","0.0-4.0-0.26","44","1","2022-10-07 06:12:28","d60b49b5908c80e163b920d72b52d584","219.142.99.6","Mozilla/5.0 (Windows NT 10.0; Win64; x64) AppleWebKit/537.36 (KHTML, like Gecko) Chrome/105.0.0.0 Safari/537.36 Edg/105.0.1343.50","WebKit","Edge","105.0.1343.50","Windows","10.0","null","<div style=""font-size:60px;"">+</div>","null",""
"","","","","","html-button-response","57","277345","0.0-4.0-1.26","44","1","2022-10-07 06:12:28","d60b49b5908c80e163b920d72b52d584","219.142.99.6","Mozilla/5.0 (Windows NT 10.0; Win64; x64) AppleWebKit/537.36 (KHTML, like Gecko) Chrome/105.0.0.0 Safari/537.36 Edg/105.0.1343.50","WebKit","Edge","105.0.1343.50","Windows","10.0","1256","<p>作为军队的指挥官，你可以选择发射导弹杀死 <strong>4名</strong> 敌国士兵，但会误杀附近的 <strong>1名</strong> 敌国平民。</p> <p>平民照片如下图所示。</p> <p></p> <img src='stimuli/faces/NCM2.jpg', style='max-width: 30%;'> </img> <p><strong>你是否选择发射武器？</strong></p>","0",""
"","","","","","html-keyboard-response","58","278347","0.0-4.0-0.27","44","1","2022-10-07 06:12:28","d60b49b5908c80e163b920d72b52d584","219.142.99.6","Mozilla/5.0 (Windows NT 10.0; Win64; x64) AppleWebKit/537.36 (KHTML, like Gecko) Chrome/105.0.0.0 Safari/537.36 Edg/105.0.1343.50","WebKit","Edge","105.0.1343.50","Windows","10.0","null","<div style=""font-size:60px;"">+</div>","null",""
"","","","","","html-button-response","59","280025","0.0-4.0-1.27","44","1","2022-10-07 06:12:28","d60b49b5908c80e163b920d72b52d584","219.142.99.6","Mozilla/5.0 (Windows NT 10.0; Win64; x64) AppleWebKit/537.36 (KHTML, like Gecko) Chrome/105.0.0.0 Safari/537.36 Edg/105.0.1343.50","WebKit","Edge","105.0.1343.50","Windows","10.0","1673","<p>作为军队的指挥官，你可以选择发射导弹杀死 <strong>1名</strong> 敌国士兵，但会炸毁附近的 <strong>1棵</strong> 敌国树木。</p> <p>树木的照片如下图所示。</p> <p></p> <img src='stimuli/trees/7.png', style='max-width: 30%;'> </img> <p><strong>你是否选择发射武器？</strong></p>","1",""
"","","","","","html-keyboard-response","60","281027","0.0-4.0-0.28","44","1","2022-10-07 06:12:28","d60b49b5908c80e163b920d72b52d584","219.142.99.6","Mozilla/5.0 (Windows NT 10.0; Win64; x64) AppleWebKit/537.36 (KHTML, like Gecko) Chrome/105.0.0.0 Safari/537.36 Edg/105.0.1343.50","WebKit","Edge","105.0.1343.50","Windows","10.0","null","<div style=""font-size:60px;"">+</div>","null",""
"","","","","","html-button-response","61","282497","0.0-4.0-1.28","44","1","2022-10-07 06:12:28","d60b49b5908c80e163b920d72b52d584","219.142.99.6","Mozilla/5.0 (Windows NT 10.0; Win64; x64) AppleWebKit/537.36 (KHTML, like Gecko) Chrome/105.0.0.0 Safari/537.36 Edg/105.0.1343.50","WebKit","Edge","105.0.1343.50","Windows","10.0","1463","<p>作为军队的指挥官，你可以选择发射导弹杀死 <strong>7名</strong> 敌国士兵，但会炸毁附近的 <strong>1棵</strong> 敌国树木。</p> <p>树木的照片如下图所示。</p> <p></p> <img src='stimuli/trees/10.png', style='max-width: 30%;'> </img> <p><strong>你是否选择发射武器？</strong></p>","0",""
"","","","","","html-keyboard-response","62","283499","0.0-4.0-0.29","44","1","2022-10-07 06:12:28","d60b49b5908c80e163b920d72b52d584","219.142.99.6","Mozilla/5.0 (Windows NT 10.0; Win64; x64) AppleWebKit/537.36 (KHTML, like Gecko) Chrome/105.0.0.0 Safari/537.36 Edg/105.0.1343.50","WebKit","Edge","105.0.1343.50","Windows","10.0","null","<div style=""font-size:60px;"">+</div>","null",""
"","","","","","html-button-response","63","286945","0.0-4.0-1.29","44","1","2022-10-07 06:12:28","d60b49b5908c80e163b920d72b52d584","219.142.99.6","Mozilla/5.0 (Windows NT 10.0; Win64; x64) AppleWebKit/537.36 (KHTML, like Gecko) Chrome/105.0.0.0 Safari/537.36 Edg/105.0.1343.50","WebKit","Edge","105.0.1343.50","Windows","10.0","3440","<p>作为军队的指挥官，你可以选择发射导弹杀死 <strong>5名</strong> 敌国士兵，但会炸毁附近的 <strong>1棵</strong> 敌国树木。</p> <p>树木的照片如下图所示。</p> <p></p> <img src='stimuli/trees/14.png', style='max-width: 30%;'> </img> <p><strong>你是否选择发射武器？</strong></p>","0",""
"","","","","","html-keyboard-response","64","287948","0.0-4.0-0.30","44","1","2022-10-07 06:12:28","d60b49b5908c80e163b920d72b52d584","219.142.99.6","Mozilla/5.0 (Windows NT 10.0; Win64; x64) AppleWebKit/537.36 (KHTML, like Gecko) Chrome/105.0.0.0 Safari/537.36 Edg/105.0.1343.50","WebKit","Edge","105.0.1343.50","Windows","10.0","null","<div style=""font-size:60px;"">+</div>","null",""
"","","","","","html-button-response","65","290705","0.0-4.0-1.30","44","1","2022-10-07 06:12:28","d60b49b5908c80e163b920d72b52d584","219.142.99.6","Mozilla/5.0 (Windows NT 10.0; Win64; x64) AppleWebKit/537.36 (KHTML, like Gecko) Chrome/105.0.0.0 Safari/537.36 Edg/105.0.1343.50","WebKit","Edge","105.0.1343.50","Windows","10.0","2751","<p>作为军队的指挥官，你可以选择发射导弹杀死 <strong>4名</strong> 敌国士兵，但会误杀附近的 <strong>1名</strong> 敌国平民。</p> <p>平民照片如下图所示。</p> <p></p> <img src='stimuli/faces/NCM1.jpg', style='max-width: 30%;'> </img> <p><strong>你是否选择发射武器？</strong></p>","1",""
"","","","","","html-keyboard-response","66","291722","0.0-4.0-0.31","44","1","2022-10-07 06:12:28","d60b49b5908c80e163b920d72b52d584","219.142.99.6","Mozilla/5.0 (Windows NT 10.0; Win64; x64) AppleWebKit/537.36 (KHTML, like Gecko) Chrome/105.0.0.0 Safari/537.36 Edg/105.0.1343.50","WebKit","Edge","105.0.1343.50","Windows","10.0","null","<div style=""font-size:60px;"">+</div>","null",""
"","","","","","html-button-response","67","293353","0.0-4.0-1.31","44","1","2022-10-07 06:12:28","d60b49b5908c80e163b920d72b52d584","219.142.99.6","Mozilla/5.0 (Windows NT 10.0; Win64; x64) AppleWebKit/537.36 (KHTML, like Gecko) Chrome/105.0.0.0 Safari/537.36 Edg/105.0.1343.50","WebKit","Edge","105.0.1343.50","Windows","10.0","1627","<p>作为军队的指挥官，你可以选择发射导弹杀死 <strong>9名</strong> 敌国士兵，但会炸毁附近的 <strong>1棵</strong> 敌国树木。</p> <p>树木的照片如下图所示。</p> <p></p> <img src='stimuli/trees/3.png', style='max-width: 30%;'> </img> <p><strong>你是否选择发射武器？</strong></p>","0",""
"","","","","","html-keyboard-response","68","294356","0.0-4.0-0.32","44","1","2022-10-07 06:12:28","d60b49b5908c80e163b920d72b52d584","219.142.99.6","Mozilla/5.0 (Windows NT 10.0; Win64; x64) AppleWebKit/537.36 (KHTML, like Gecko) Chrome/105.0.0.0 Safari/537.36 Edg/105.0.1343.50","WebKit","Edge","105.0.1343.50","Windows","10.0","null","<div style=""font-size:60px;"">+</div>","null",""
"","","","","","html-button-response","69","295769","0.0-4.0-1.32","44","1","2022-10-07 06:12:28","d60b49b5908c80e163b920d72b52d584","219.142.99.6","Mozilla/5.0 (Windows NT 10.0; Win64; x64) AppleWebKit/537.36 (KHTML, like Gecko) Chrome/105.0.0.0 Safari/537.36 Edg/105.0.1343.50","WebKit","Edge","105.0.1343.50","Windows","10.0","1407","<p>作为军队的指挥官，你可以选择发射导弹杀死 <strong>7名</strong> 敌国士兵，但会误杀附近的 <strong>1名</strong> 敌国平民。</p> <p>平民照片如下图所示。</p> <p></p> <img src='stimuli/faces/NCM5.jpg', style='max-width: 30%;'> </img> <p><strong>你是否选择发射武器？</strong></p>","0",""
"","","","","","html-keyboard-response","70","296771","0.0-4.0-0.33","44","1","2022-10-07 06:12:28","d60b49b5908c80e163b920d72b52d584","219.142.99.6","Mozilla/5.0 (Windows NT 10.0; Win64; x64) AppleWebKit/537.36 (KHTML, like Gecko) Chrome/105.0.0.0 Safari/537.36 Edg/105.0.1343.50","WebKit","Edge","105.0.1343.50","Windows","10.0","null","<div style=""font-size:60px;"">+</div>","null",""
"","","","","","html-button-response","71","298169","0.0-4.0-1.33","44","1","2022-10-07 06:12:28","d60b49b5908c80e163b920d72b52d584","219.142.99.6","Mozilla/5.0 (Windows NT 10.0; Win64; x64) AppleWebKit/537.36 (KHTML, like Gecko) Chrome/105.0.0.0 Safari/537.36 Edg/105.0.1343.50","WebKit","Edge","105.0.1343.50","Windows","10.0","1394","<p>作为军队的指挥官，你可以选择发射导弹杀死 <strong>8名</strong> 敌国士兵，但会误杀附近的 <strong>1名</strong> 敌国平民。</p> <p>平民照片如下图所示。</p> <p></p> <img src='stimuli/faces/NCF7.jpg', style='max-width: 30%;'> </img> <p><strong>你是否选择发射武器？</strong></p>","0",""
"","","","","","html-keyboard-response","72","299176","0.0-4.0-0.34","44","1","2022-10-07 06:12:28","d60b49b5908c80e163b920d72b52d584","219.142.99.6","Mozilla/5.0 (Windows NT 10.0; Win64; x64) AppleWebKit/537.36 (KHTML, like Gecko) Chrome/105.0.0.0 Safari/537.36 Edg/105.0.1343.50","WebKit","Edge","105.0.1343.50","Windows","10.0","null","<div style=""font-size:60px;"">+</div>","null",""
"","","","","","html-button-response","73","300513","0.0-4.0-1.34","44","1","2022-10-07 06:12:28","d60b49b5908c80e163b920d72b52d584","219.142.99.6","Mozilla/5.0 (Windows NT 10.0; Win64; x64) AppleWebKit/537.36 (KHTML, like Gecko) Chrome/105.0.0.0 Safari/537.36 Edg/105.0.1343.50","WebKit","Edge","105.0.1343.50","Windows","10.0","1333","<p>作为军队的指挥官，你可以选择发射导弹杀死 <strong>10名</strong> 敌国士兵，但会误杀附近的 <strong>1名</strong> 敌国平民。</p> <p>平民照片如下图所示。</p> <p></p> <img src='stimuli/faces/NCF6.jpg', style='max-width: 30%;'> </img> <p><strong>你是否选择发射武器？</strong></p>","0",""
"","","","","","html-keyboard-response","74","301516","0.0-4.0-0.35","44","1","2022-10-07 06:12:28","d60b49b5908c80e163b920d72b52d584","219.142.99.6","Mozilla/5.0 (Windows NT 10.0; Win64; x64) AppleWebKit/537.36 (KHTML, like Gecko) Chrome/105.0.0.0 Safari/537.36 Edg/105.0.1343.50","WebKit","Edge","105.0.1343.50","Windows","10.0","null","<div style=""font-size:60px;"">+</div>","null",""
"","","","","","html-button-response","75","302721","0.0-4.0-1.35","44","1","2022-10-07 06:12:28","d60b49b5908c80e163b920d72b52d584","219.142.99.6","Mozilla/5.0 (Windows NT 10.0; Win64; x64) AppleWebKit/537.36 (KHTML, like Gecko) Chrome/105.0.0.0 Safari/537.36 Edg/105.0.1343.50","WebKit","Edge","105.0.1343.50","Windows","10.0","1203","<p>作为军队的指挥官，你可以选择发射导弹杀死 <strong>7名</strong> 敌国士兵，但会误杀附近的 <strong>1名</strong> 敌国平民。</p> <p>平民照片如下图所示。</p> <p></p> <img src='stimuli/faces/NCM7.jpg', style='max-width: 30%;'> </img> <p><strong>你是否选择发射武器？</strong></p>","0",""
"","","","","","html-keyboard-response","76","303732","0.0-4.0-0.36","44","1","2022-10-07 06:12:28","d60b49b5908c80e163b920d72b52d584","219.142.99.6","Mozilla/5.0 (Windows NT 10.0; Win64; x64) AppleWebKit/537.36 (KHTML, like Gecko) Chrome/105.0.0.0 Safari/537.36 Edg/105.0.1343.50","WebKit","Edge","105.0.1343.50","Windows","10.0","null","<div style=""font-size:60px;"">+</div>","null",""
"","","","","","html-button-response","77","305217","0.0-4.0-1.36","44","1","2022-10-07 06:12:28","d60b49b5908c80e163b920d72b52d584","219.142.99.6","Mozilla/5.0 (Windows NT 10.0; Win64; x64) AppleWebKit/537.36 (KHTML, like Gecko) Chrome/105.0.0.0 Safari/537.36 Edg/105.0.1343.50","WebKit","Edge","105.0.1343.50","Windows","10.0","1482","<p>作为军队的指挥官，你可以选择发射导弹杀死 <strong>10名</strong> 敌国士兵，但会炸毁附近的 <strong>1棵</strong> 敌国树木。</p> <p>树木的照片如下图所示。</p> <p></p> <img src='stimuli/trees/11.png', style='max-width: 30%;'> </img> <p><strong>你是否选择发射武器？</strong></p>","0",""
"","","","","","html-keyboard-response","78","306221","0.0-4.0-0.37","44","1","2022-10-07 06:12:28","d60b49b5908c80e163b920d72b52d584","219.142.99.6","Mozilla/5.0 (Windows NT 10.0; Win64; x64) AppleWebKit/537.36 (KHTML, like Gecko) Chrome/105.0.0.0 Safari/537.36 Edg/105.0.1343.50","WebKit","Edge","105.0.1343.50","Windows","10.0","null","<div style=""font-size:60px;"">+</div>","null",""
"","","","","","html-button-response","79","307809","0.0-4.0-1.37","44","1","2022-10-07 06:12:28","d60b49b5908c80e163b920d72b52d584","219.142.99.6","Mozilla/5.0 (Windows NT 10.0; Win64; x64) AppleWebKit/537.36 (KHTML, like Gecko) Chrome/105.0.0.0 Safari/537.36 Edg/105.0.1343.50","WebKit","Edge","105.0.1343.50","Windows","10.0","1584","<p>作为军队的指挥官，你可以选择发射导弹杀死 <strong>6名</strong> 敌国士兵，但会误杀附近的 <strong>1名</strong> 敌国平民。</p> <p>平民照片如下图所示。</p> <p></p> <img src='stimuli/faces/NCM3.jpg', style='max-width: 30%;'> </img> <p><strong>你是否选择发射武器？</strong></p>","0",""
"","","","","","html-keyboard-response","80","308812","0.0-4.0-0.38","44","1","2022-10-07 06:12:28","d60b49b5908c80e163b920d72b52d584","219.142.99.6","Mozilla/5.0 (Windows NT 10.0; Win64; x64) AppleWebKit/537.36 (KHTML, like Gecko) Chrome/105.0.0.0 Safari/537.36 Edg/105.0.1343.50","WebKit","Edge","105.0.1343.50","Windows","10.0","null","<div style=""font-size:60px;"">+</div>","null",""
"","","","","","html-button-response","81","310313","0.0-4.0-1.38","44","1","2022-10-07 06:12:28","d60b49b5908c80e163b920d72b52d584","219.142.99.6","Mozilla/5.0 (Windows NT 10.0; Win64; x64) AppleWebKit/537.36 (KHTML, like Gecko) Chrome/105.0.0.0 Safari/537.36 Edg/105.0.1343.50","WebKit","Edge","105.0.1343.50","Windows","10.0","1495","<p>作为军队的指挥官，你可以选择发射导弹杀死 <strong>9名</strong> 敌国士兵，但会炸毁附近的 <strong>1棵</strong> 敌国树木。</p> <p>树木的照片如下图所示。</p> <p></p> <img src='stimuli/trees/2.png', style='max-width: 30%;'> </img> <p><strong>你是否选择发射武器？</strong></p>","0",""
"","","","","","html-keyboard-response","82","311323","0.0-4.0-0.39","44","1","2022-10-07 06:12:28","d60b49b5908c80e163b920d72b52d584","219.142.99.6","Mozilla/5.0 (Windows NT 10.0; Win64; x64) AppleWebKit/537.36 (KHTML, like Gecko) Chrome/105.0.0.0 Safari/537.36 Edg/105.0.1343.50","WebKit","Edge","105.0.1343.50","Windows","10.0","null","<div style=""font-size:60px;"">+</div>","null",""
"","","","","","html-button-response","83","381936","0.0-4.0-1.39","44","1","2022-10-07 06:12:28","d60b49b5908c80e163b920d72b52d584","219.142.99.6","Mozilla/5.0 (Windows NT 10.0; Win64; x64) AppleWebKit/537.36 (KHTML, like Gecko) Chrome/105.0.0.0 Safari/537.36 Edg/105.0.1343.50","WebKit","Edge","105.0.1343.50","Windows","10.0","70607","<p>作为军队的指挥官，你可以选择发射导弹杀死 <strong>5名</strong> 敌国士兵，但会炸毁附近的 <strong>1棵</strong> 敌国树木。</p> <p>树木的照片如下图所示。</p> <p></p> <img src='stimuli/trees/13.png', style='max-width: 30%;'> </img> <p><strong>你是否选择发射武器？</strong></p>","0",""
"","","","","","html-keyboard-response","84","382939","0.0-4.0-0.40","44","1","2022-10-07 06:12:28","d60b49b5908c80e163b920d72b52d584","219.142.99.6","Mozilla/5.0 (Windows NT 10.0; Win64; x64) AppleWebKit/537.36 (KHTML, like Gecko) Chrome/105.0.0.0 Safari/537.36 Edg/105.0.1343.50","WebKit","Edge","105.0.1343.50","Windows","10.0","null","<div style=""font-size:60px;"">+</div>","null",""
"","","","","","html-button-response","85","384384","0.0-4.0-1.40","44","1","2022-10-07 06:12:28","d60b49b5908c80e163b920d72b52d584","219.142.99.6","Mozilla/5.0 (Windows NT 10.0; Win64; x64) AppleWebKit/537.36 (KHTML, like Gecko) Chrome/105.0.0.0 Safari/537.36 Edg/105.0.1343.50","WebKit","Edge","105.0.1343.50","Windows","10.0","1438","<p>作为军队的指挥官，你可以选择发射导弹杀死 <strong>7名</strong> 敌国士兵，但会误杀附近的 <strong>1名</strong> 敌国平民。</p> <p>平民照片如下图所示。</p> <p></p> <img src='stimuli/faces/NCM4.jpg', style='max-width: 30%;'> </img> <p><strong>你是否选择发射武器？</strong></p>","0",""
"","","","","","html-keyboard-response","86","385390","0.0-4.0-0.41","44","1","2022-10-07 06:12:28","d60b49b5908c80e163b920d72b52d584","219.142.99.6","Mozilla/5.0 (Windows NT 10.0; Win64; x64) AppleWebKit/537.36 (KHTML, like Gecko) Chrome/105.0.0.0 Safari/537.36 Edg/105.0.1343.50","WebKit","Edge","105.0.1343.50","Windows","10.0","null","<div style=""font-size:60px;"">+</div>","null",""
"","","","","","html-button-response","87","386776","0.0-4.0-1.41","44","1","2022-10-07 06:12:28","d60b49b5908c80e163b920d72b52d584","219.142.99.6","Mozilla/5.0 (Windows NT 10.0; Win64; x64) AppleWebKit/537.36 (KHTML, like Gecko) Chrome/105.0.0.0 Safari/537.36 Edg/105.0.1343.50","WebKit","Edge","105.0.1343.50","Windows","10.0","1379","<p>作为军队的指挥官，你可以选择发射导弹杀死 <strong>8名</strong> 敌国士兵，但会误杀附近的 <strong>1名</strong> 敌国平民。</p> <p>平民照片如下图所示。</p> <p></p> <img src='stimuli/faces/NCF5.jpg', style='max-width: 30%;'> </img> <p><strong>你是否选择发射武器？</strong></p>","0",""
"","","","","","html-keyboard-response","88","387783","0.0-4.0-0.42","44","1","2022-10-07 06:12:28","d60b49b5908c80e163b920d72b52d584","219.142.99.6","Mozilla/5.0 (Windows NT 10.0; Win64; x64) AppleWebKit/537.36 (KHTML, like Gecko) Chrome/105.0.0.0 Safari/537.36 Edg/105.0.1343.50","WebKit","Edge","105.0.1343.50","Windows","10.0","null","<div style=""font-size:60px;"">+</div>","null",""
"","","","","","html-button-response","89","388704","0.0-4.0-1.42","44","1","2022-10-07 06:12:28","d60b49b5908c80e163b920d72b52d584","219.142.99.6","Mozilla/5.0 (Windows NT 10.0; Win64; x64) AppleWebKit/537.36 (KHTML, like Gecko) Chrome/105.0.0.0 Safari/537.36 Edg/105.0.1343.50","WebKit","Edge","105.0.1343.50","Windows","10.0","919","<p>作为军队的指挥官，你可以选择发射导弹杀死 <strong>5名</strong> 敌国士兵，但会炸毁附近的 <strong>1棵</strong> 敌国树木。</p> <p>树木的照片如下图所示。</p> <p></p> <img src='stimuli/trees/1.png', style='max-width: 30%;'> </img> <p><strong>你是否选择发射武器？</strong></p>","0",""
"","","","","","html-keyboard-response","90","389708","0.0-4.0-0.43","44","1","2022-10-07 06:12:28","d60b49b5908c80e163b920d72b52d584","219.142.99.6","Mozilla/5.0 (Windows NT 10.0; Win64; x64) AppleWebKit/537.36 (KHTML, like Gecko) Chrome/105.0.0.0 Safari/537.36 Edg/105.0.1343.50","WebKit","Edge","105.0.1343.50","Windows","10.0","null","<div style=""font-size:60px;"">+</div>","null",""
"","","","","","html-button-response","91","391184","0.0-4.0-1.43","44","1","2022-10-07 06:12:28","d60b49b5908c80e163b920d72b52d584","219.142.99.6","Mozilla/5.0 (Windows NT 10.0; Win64; x64) AppleWebKit/537.36 (KHTML, like Gecko) Chrome/105.0.0.0 Safari/537.36 Edg/105.0.1343.50","WebKit","Edge","105.0.1343.50","Windows","10.0","1474","<p>作为军队的指挥官，你可以选择发射导弹杀死 <strong>2名</strong> 敌国士兵，但会炸毁附近的 <strong>1棵</strong> 敌国树木。</p> <p>树木的照片如下图所示。</p> <p></p> <img src='stimuli/trees/12.png', style='max-width: 30%;'> </img> <p><strong>你是否选择发射武器？</strong></p>","0",""
"","","","","","html-keyboard-response","92","392187","0.0-4.0-0.44","44","1","2022-10-07 06:12:28","d60b49b5908c80e163b920d72b52d584","219.142.99.6","Mozilla/5.0 (Windows NT 10.0; Win64; x64) AppleWebKit/537.36 (KHTML, like Gecko) Chrome/105.0.0.0 Safari/537.36 Edg/105.0.1343.50","WebKit","Edge","105.0.1343.50","Windows","10.0","null","<div style=""font-size:60px;"">+</div>","null",""
"","","","","","html-button-response","93","393320","0.0-4.0-1.44","44","1","2022-10-07 06:12:28","d60b49b5908c80e163b920d72b52d584","219.142.99.6","Mozilla/5.0 (Windows NT 10.0; Win64; x64) AppleWebKit/537.36 (KHTML, like Gecko) Chrome/105.0.0.0 Safari/537.36 Edg/105.0.1343.50","WebKit","Edge","105.0.1343.50","Windows","10.0","1125","<p>作为军队的指挥官，你可以选择发射导弹杀死 <strong>9名</strong> 敌国士兵，但会炸毁附近的 <strong>1棵</strong> 敌国树木。</p> <p>树木的照片如下图所示。</p> <p></p> <img src='stimuli/trees/6.png', style='max-width: 30%;'> </img> <p><strong>你是否选择发射武器？</strong></p>","0",""
"","","","","","html-keyboard-response","94","394323","0.0-4.0-0.45","44","1","2022-10-07 06:12:28","d60b49b5908c80e163b920d72b52d584","219.142.99.6","Mozilla/5.0 (Windows NT 10.0; Win64; x64) AppleWebKit/537.36 (KHTML, like Gecko) Chrome/105.0.0.0 Safari/537.36 Edg/105.0.1343.50","WebKit","Edge","105.0.1343.50","Windows","10.0","null","<div style=""font-size:60px;"">+</div>","null",""
"","","","","","html-button-response","95","395944","0.0-4.0-1.45","44","1","2022-10-07 06:12:28","d60b49b5908c80e163b920d72b52d584","219.142.99.6","Mozilla/5.0 (Windows NT 10.0; Win64; x64) AppleWebKit/537.36 (KHTML, like Gecko) Chrome/105.0.0.0 Safari/537.36 Edg/105.0.1343.50","WebKit","Edge","105.0.1343.50","Windows","10.0","1615","<p>作为军队的指挥官，你可以选择发射导弹杀死 <strong>9名</strong> 敌国士兵，但会炸毁附近的 <strong>1棵</strong> 敌国树木。</p> <p>树木的照片如下图所示。</p> <p></p> <img src='stimuli/trees/4.png', style='max-width: 30%;'> </img> <p><strong>你是否选择发射武器？</strong></p>","0",""
"","","","","","html-keyboard-response","96","396947","0.0-4.0-0.46","44","1","2022-10-07 06:12:28","d60b49b5908c80e163b920d72b52d584","219.142.99.6","Mozilla/5.0 (Windows NT 10.0; Win64; x64) AppleWebKit/537.36 (KHTML, like Gecko) Chrome/105.0.0.0 Safari/537.36 Edg/105.0.1343.50","WebKit","Edge","105.0.1343.50","Windows","10.0","null","<div style=""font-size:60px;"">+</div>","null",""
"","","","","","html-button-response","97","489936","0.0-4.0-1.46","44","1","2022-10-07 06:12:28","d60b49b5908c80e163b920d72b52d584","219.142.99.6","Mozilla/5.0 (Windows NT 10.0; Win64; x64) AppleWebKit/537.36 (KHTML, like Gecko) Chrome/105.0.0.0 Safari/537.36 Edg/105.0.1343.50","WebKit","Edge","105.0.1343.50","Windows","10.0","92986","<p>作为军队的指挥官，你可以选择发射导弹杀死 <strong>5名</strong> 敌国士兵，但会误杀附近的 <strong>1名</strong> 敌国平民。</p> <p>平民照片如下图所示。</p> <p></p> <img src='stimuli/faces/NCM8.jpg', style='max-width: 30%;'> </img> <p><strong>你是否选择发射武器？</strong></p>","0",""
"","","","","","html-keyboard-response","98","490942","0.0-4.0-0.47","44","1","2022-10-07 06:12:28","d60b49b5908c80e163b920d72b52d584","219.142.99.6","Mozilla/5.0 (Windows NT 10.0; Win64; x64) AppleWebKit/537.36 (KHTML, like Gecko) Chrome/105.0.0.0 Safari/537.36 Edg/105.0.1343.50","WebKit","Edge","105.0.1343.50","Windows","10.0","null","<div style=""font-size:60px;"">+</div>","null",""
"","","","","","html-button-response","99","491808","0.0-4.0-1.47","44","1","2022-10-07 06:12:28","d60b49b5908c80e163b920d72b52d584","219.142.99.6","Mozilla/5.0 (Windows NT 10.0; Win64; x64) AppleWebKit/537.36 (KHTML, like Gecko) Chrome/105.0.0.0 Safari/537.36 Edg/105.0.1343.50","WebKit","Edge","105.0.1343.50","Windows","10.0","858","<p>作为军队的指挥官，你可以选择发射导弹杀死 <strong>4名</strong> 敌国士兵，但会炸毁附近的 <strong>1棵</strong> 敌国树木。</p> <p>树木的照片如下图所示。</p> <p></p> <img src='stimuli/trees/4.png', style='max-width: 30%;'> </img> <p><strong>你是否选择发射武器？</strong></p>","0",""
"","","","","","html-keyboard-response","100","492823","0.0-4.0-0.48","44","1","2022-10-07 06:12:28","d60b49b5908c80e163b920d72b52d584","219.142.99.6","Mozilla/5.0 (Windows NT 10.0; Win64; x64) AppleWebKit/537.36 (KHTML, like Gecko) Chrome/105.0.0.0 Safari/537.36 Edg/105.0.1343.50","WebKit","Edge","105.0.1343.50","Windows","10.0","null","<div style=""font-size:60px;"">+</div>","null",""
"","","","","","html-button-response","101","494168","0.0-4.0-1.48","44","1","2022-10-07 06:12:28","d60b49b5908c80e163b920d72b52d584","219.142.99.6","Mozilla/5.0 (Windows NT 10.0; Win64; x64) AppleWebKit/537.36 (KHTML, like Gecko) Chrome/105.0.0.0 Safari/537.36 Edg/105.0.1343.50","WebKit","Edge","105.0.1343.50","Windows","10.0","1338","<p>作为军队的指挥官，你可以选择发射导弹杀死 <strong>6名</strong> 敌国士兵，但会炸毁附近的 <strong>1棵</strong> 敌国树木。</p> <p>树木的照片如下图所示。</p> <p></p> <img src='stimuli/trees/14.png', style='max-width: 30%;'> </img> <p><strong>你是否选择发射武器？</strong></p>","0",""
"","","","","","html-keyboard-response","102","495176","0.0-4.0-0.49","44","1","2022-10-07 06:12:28","d60b49b5908c80e163b920d72b52d584","219.142.99.6","Mozilla/5.0 (Windows NT 10.0; Win64; x64) AppleWebKit/537.36 (KHTML, like Gecko) Chrome/105.0.0.0 Safari/537.36 Edg/105.0.1343.50","WebKit","Edge","105.0.1343.50","Windows","10.0","null","<div style=""font-size:60px;"">+</div>","null",""
"","","","","","html-button-response","103","497056","0.0-4.0-1.49","44","1","2022-10-07 06:12:28","d60b49b5908c80e163b920d72b52d584","219.142.99.6","Mozilla/5.0 (Windows NT 10.0; Win64; x64) AppleWebKit/537.36 (KHTML, like Gecko) Chrome/105.0.0.0 Safari/537.36 Edg/105.0.1343.50","WebKit","Edge","105.0.1343.50","Windows","10.0","1873","<p>作为军队的指挥官，你可以选择发射导弹杀死 <strong>1名</strong> 敌国士兵，但会炸毁附近的 <strong>1棵</strong> 敌国树木。</p> <p>树木的照片如下图所示。</p> <p></p> <img src='stimuli/trees/2.png', style='max-width: 30%;'> </img> <p><strong>你是否选择发射武器？</strong></p>","0",""
"","","","","","html-keyboard-response","104","498059","0.0-4.0-0.50","44","1","2022-10-07 06:12:28","d60b49b5908c80e163b920d72b52d584","219.142.99.6","Mozilla/5.0 (Windows NT 10.0; Win64; x64) AppleWebKit/537.36 (KHTML, like Gecko) Chrome/105.0.0.0 Safari/537.36 Edg/105.0.1343.50","WebKit","Edge","105.0.1343.50","Windows","10.0","null","<div style=""font-size:60px;"">+</div>","null",""
"","","","","","html-button-response","105","499832","0.0-4.0-1.50","44","1","2022-10-07 06:12:28","d60b49b5908c80e163b920d72b52d584","219.142.99.6","Mozilla/5.0 (Windows NT 10.0; Win64; x64) AppleWebKit/537.36 (KHTML, like Gecko) Chrome/105.0.0.0 Safari/537.36 Edg/105.0.1343.50","WebKit","Edge","105.0.1343.50","Windows","10.0","1766","<p>作为军队的指挥官，你可以选择发射导弹杀死 <strong>9名</strong> 敌国士兵，但会炸毁附近的 <strong>1棵</strong> 敌国树木。</p> <p>树木的照片如下图所示。</p> <p></p> <img src='stimuli/trees/9.png', style='max-width: 30%;'> </img> <p><strong>你是否选择发射武器？</strong></p>","0",""
"","","","","","html-keyboard-response","106","500850","0.0-4.0-0.51","44","1","2022-10-07 06:12:28","d60b49b5908c80e163b920d72b52d584","219.142.99.6","Mozilla/5.0 (Windows NT 10.0; Win64; x64) AppleWebKit/537.36 (KHTML, like Gecko) Chrome/105.0.0.0 Safari/537.36 Edg/105.0.1343.50","WebKit","Edge","105.0.1343.50","Windows","10.0","null","<div style=""font-size:60px;"">+</div>","null",""
"","","","","","html-button-response","107","723048","0.0-4.0-1.51","44","1","2022-10-07 06:12:28","d60b49b5908c80e163b920d72b52d584","219.142.99.6","Mozilla/5.0 (Windows NT 10.0; Win64; x64) AppleWebKit/537.36 (KHTML, like Gecko) Chrome/105.0.0.0 Safari/537.36 Edg/105.0.1343.50","WebKit","Edge","105.0.1343.50","Windows","10.0","222190","<p>作为军队的指挥官，你可以选择发射导弹杀死 <strong>9名</strong> 敌国士兵，但会炸毁附近的 <strong>1棵</strong> 敌国树木。</p> <p>树木的照片如下图所示。</p> <p></p> <img src='stimuli/trees/1.png', style='max-width: 30%;'> </img> <p><strong>你是否选择发射武器？</strong></p>","0",""
"","","","","","html-keyboard-response","108","724065","0.0-4.0-0.52","44","1","2022-10-07 06:12:28","d60b49b5908c80e163b920d72b52d584","219.142.99.6","Mozilla/5.0 (Windows NT 10.0; Win64; x64) AppleWebKit/537.36 (KHTML, like Gecko) Chrome/105.0.0.0 Safari/537.36 Edg/105.0.1343.50","WebKit","Edge","105.0.1343.50","Windows","10.0","null","<div style=""font-size:60px;"">+</div>","null",""
"","","","","","html-button-response","109","817760","0.0-4.0-1.52","44","1","2022-10-07 06:12:28","d60b49b5908c80e163b920d72b52d584","219.142.99.6","Mozilla/5.0 (Windows NT 10.0; Win64; x64) AppleWebKit/537.36 (KHTML, like Gecko) Chrome/105.0.0.0 Safari/537.36 Edg/105.0.1343.50","WebKit","Edge","105.0.1343.50","Windows","10.0","93686","<p>作为军队的指挥官，你可以选择发射导弹杀死 <strong>8名</strong> 敌国士兵，但会误杀附近的 <strong>1名</strong> 敌国平民。</p> <p>平民照片如下图所示。</p> <p></p> <img src='stimuli/faces/NCM6.jpg', style='max-width: 30%;'> </img> <p><strong>你是否选择发射武器？</strong></p>","0",""
"","","","","","html-keyboard-response","110","818763","0.0-4.0-0.53","44","1","2022-10-07 06:12:28","d60b49b5908c80e163b920d72b52d584","219.142.99.6","Mozilla/5.0 (Windows NT 10.0; Win64; x64) AppleWebKit/537.36 (KHTML, like Gecko) Chrome/105.0.0.0 Safari/537.36 Edg/105.0.1343.50","WebKit","Edge","105.0.1343.50","Windows","10.0","null","<div style=""font-size:60px;"">+</div>","null",""
"","","","","","html-button-response","111","819856","0.0-4.0-1.53","44","1","2022-10-07 06:12:28","d60b49b5908c80e163b920d72b52d584","219.142.99.6","Mozilla/5.0 (Windows NT 10.0; Win64; x64) AppleWebKit/537.36 (KHTML, like Gecko) Chrome/105.0.0.0 Safari/537.36 Edg/105.0.1343.50","WebKit","Edge","105.0.1343.50","Windows","10.0","1087","<p>作为军队的指挥官，你可以选择发射导弹杀死 <strong>2名</strong> 敌国士兵，但会炸毁附近的 <strong>1棵</strong> 敌国树木。</p> <p>树木的照片如下图所示。</p> <p></p> <img src='stimuli/trees/8.png', style='max-width: 30%;'> </img> <p><strong>你是否选择发射武器？</strong></p>","0",""
"","","","","","html-keyboard-response","112","820865","0.0-4.0-0.54","44","1","2022-10-07 06:12:28","d60b49b5908c80e163b920d72b52d584","219.142.99.6","Mozilla/5.0 (Windows NT 10.0; Win64; x64) AppleWebKit/537.36 (KHTML, like Gecko) Chrome/105.0.0.0 Safari/537.36 Edg/105.0.1343.50","WebKit","Edge","105.0.1343.50","Windows","10.0","null","<div style=""font-size:60px;"">+</div>","null",""
"","","","","","html-button-response","113","822008","0.0-4.0-1.54","44","1","2022-10-07 06:12:28","d60b49b5908c80e163b920d72b52d584","219.142.99.6","Mozilla/5.0 (Windows NT 10.0; Win64; x64) AppleWebKit/537.36 (KHTML, like Gecko) Chrome/105.0.0.0 Safari/537.36 Edg/105.0.1343.50","WebKit","Edge","105.0.1343.50","Windows","10.0","1136","<p>作为军队的指挥官，你可以选择发射导弹杀死 <strong>3名</strong> 敌国士兵，但会炸毁附近的 <strong>1棵</strong> 敌国树木。</p> <p>树木的照片如下图所示。</p> <p></p> <img src='stimuli/trees/6.png', style='max-width: 30%;'> </img> <p><strong>你是否选择发射武器？</strong></p>","0",""
"","","","","","html-keyboard-response","114","823015","0.0-4.0-0.55","44","1","2022-10-07 06:12:28","d60b49b5908c80e163b920d72b52d584","219.142.99.6","Mozilla/5.0 (Windows NT 10.0; Win64; x64) AppleWebKit/537.36 (KHTML, like Gecko) Chrome/105.0.0.0 Safari/537.36 Edg/105.0.1343.50","WebKit","Edge","105.0.1343.50","Windows","10.0","null","<div style=""font-size:60px;"">+</div>","null",""
"","","","","","html-button-response","115","823991","0.0-4.0-1.55","44","1","2022-10-07 06:12:28","d60b49b5908c80e163b920d72b52d584","219.142.99.6","Mozilla/5.0 (Windows NT 10.0; Win64; x64) AppleWebKit/537.36 (KHTML, like Gecko) Chrome/105.0.0.0 Safari/537.36 Edg/105.0.1343.50","WebKit","Edge","105.0.1343.50","Windows","10.0","969","<p>作为军队的指挥官，你可以选择发射导弹杀死 <strong>5名</strong> 敌国士兵，但会误杀附近的 <strong>1名</strong> 敌国平民。</p> <p>平民照片如下图所示。</p> <p></p> <img src='stimuli/faces/NCF3.jpg', style='max-width: 30%;'> </img> <p><strong>你是否选择发射武器？</strong></p>","0",""
"","","","","","html-keyboard-response","116","824996","0.0-4.0-0.56","44","1","2022-10-07 06:12:28","d60b49b5908c80e163b920d72b52d584","219.142.99.6","Mozilla/5.0 (Windows NT 10.0; Win64; x64) AppleWebKit/537.36 (KHTML, like Gecko) Chrome/105.0.0.0 Safari/537.36 Edg/105.0.1343.50","WebKit","Edge","105.0.1343.50","Windows","10.0","null","<div style=""font-size:60px;"">+</div>","null",""
"","","","","","html-button-response","117","826440","0.0-4.0-1.56","44","1","2022-10-07 06:12:28","d60b49b5908c80e163b920d72b52d584","219.142.99.6","Mozilla/5.0 (Windows NT 10.0; Win64; x64) AppleWebKit/537.36 (KHTML, like Gecko) Chrome/105.0.0.0 Safari/537.36 Edg/105.0.1343.50","WebKit","Edge","105.0.1343.50","Windows","10.0","1437","<p>作为军队的指挥官，你可以选择发射导弹杀死 <strong>5名</strong> 敌国士兵，但会误杀附近的 <strong>1名</strong> 敌国平民。</p> <p>平民照片如下图所示。</p> <p></p> <img src='stimuli/faces/NCM7.jpg', style='max-width: 30%;'> </img> <p><strong>你是否选择发射武器？</strong></p>","0",""
"","","","","","html-keyboard-response","118","827455","0.0-4.0-0.57","44","1","2022-10-07 06:12:28","d60b49b5908c80e163b920d72b52d584","219.142.99.6","Mozilla/5.0 (Windows NT 10.0; Win64; x64) AppleWebKit/537.36 (KHTML, like Gecko) Chrome/105.0.0.0 Safari/537.36 Edg/105.0.1343.50","WebKit","Edge","105.0.1343.50","Windows","10.0","null","<div style=""font-size:60px;"">+</div>","null",""
"","","","","","html-button-response","119","828831","0.0-4.0-1.57","44","1","2022-10-07 06:12:28","d60b49b5908c80e163b920d72b52d584","219.142.99.6","Mozilla/5.0 (Windows NT 10.0; Win64; x64) AppleWebKit/537.36 (KHTML, like Gecko) Chrome/105.0.0.0 Safari/537.36 Edg/105.0.1343.50","WebKit","Edge","105.0.1343.50","Windows","10.0","1369","<p>作为军队的指挥官，你可以选择发射导弹杀死 <strong>4名</strong> 敌国士兵，但会炸毁附近的 <strong>1棵</strong> 敌国树木。</p> <p>树木的照片如下图所示。</p> <p></p> <img src='stimuli/trees/16.png', style='max-width: 30%;'> </img> <p><strong>你是否选择发射武器？</strong></p>","0",""
"","","","","","html-keyboard-response","120","829840","0.0-4.0-0.58","44","1","2022-10-07 06:12:28","d60b49b5908c80e163b920d72b52d584","219.142.99.6","Mozilla/5.0 (Windows NT 10.0; Win64; x64) AppleWebKit/537.36 (KHTML, like Gecko) Chrome/105.0.0.0 Safari/537.36 Edg/105.0.1343.50","WebKit","Edge","105.0.1343.50","Windows","10.0","null","<div style=""font-size:60px;"">+</div>","null",""
"","","","","","html-button-response","121","830967","0.0-4.0-1.58","44","1","2022-10-07 06:12:28","d60b49b5908c80e163b920d72b52d584","219.142.99.6","Mozilla/5.0 (Windows NT 10.0; Win64; x64) AppleWebKit/537.36 (KHTML, like Gecko) Chrome/105.0.0.0 Safari/537.36 Edg/105.0.1343.50","WebKit","Edge","105.0.1343.50","Windows","10.0","1119","<p>作为军队的指挥官，你可以选择发射导弹杀死 <strong>9名</strong> 敌国士兵，但会炸毁附近的 <strong>1棵</strong> 敌国树木。</p> <p>树木的照片如下图所示。</p> <p></p> <img src='stimuli/trees/8.png', style='max-width: 30%;'> </img> <p><strong>你是否选择发射武器？</strong></p>","0",""
"","","","","","html-keyboard-response","122","831979","0.0-4.0-0.59","44","1","2022-10-07 06:12:28","d60b49b5908c80e163b920d72b52d584","219.142.99.6","Mozilla/5.0 (Windows NT 10.0; Win64; x64) AppleWebKit/537.36 (KHTML, like Gecko) Chrome/105.0.0.0 Safari/537.36 Edg/105.0.1343.50","WebKit","Edge","105.0.1343.50","Windows","10.0","null","<div style=""font-size:60px;"">+</div>","null",""
"","","","","","html-button-response","123","1069160","0.0-4.0-1.59","44","1","2022-10-07 06:12:28","d60b49b5908c80e163b920d72b52d584","219.142.99.6","Mozilla/5.0 (Windows NT 10.0; Win64; x64) AppleWebKit/537.36 (KHTML, like Gecko) Chrome/105.0.0.0 Safari/537.36 Edg/105.0.1343.50","WebKit","Edge","105.0.1343.50","Windows","10.0","237172","<p>作为军队的指挥官，你可以选择发射导弹杀死 <strong>2名</strong> 敌国士兵，但会炸毁附近的 <strong>1棵</strong> 敌国树木。</p> <p>树木的照片如下图所示。</p> <p></p> <img src='stimuli/trees/9.png', style='max-width: 30%;'> </img> <p><strong>你是否选择发射武器？</strong></p>","0",""
"","","","","","html-keyboard-response","124","1070163","0.0-4.0-0.60","44","1","2022-10-07 06:12:28","d60b49b5908c80e163b920d72b52d584","219.142.99.6","Mozilla/5.0 (Windows NT 10.0; Win64; x64) AppleWebKit/537.36 (KHTML, like Gecko) Chrome/105.0.0.0 Safari/537.36 Edg/105.0.1343.50","WebKit","Edge","105.0.1343.50","Windows","10.0","null","<div style=""font-size:60px;"">+</div>","null",""
"","","","","","html-button-response","125","1071327","0.0-4.0-1.60","44","1","2022-10-07 06:12:28","d60b49b5908c80e163b920d72b52d584","219.142.99.6","Mozilla/5.0 (Windows NT 10.0; Win64; x64) AppleWebKit/537.36 (KHTML, like Gecko) Chrome/105.0.0.0 Safari/537.36 Edg/105.0.1343.50","WebKit","Edge","105.0.1343.50","Windows","10.0","1156","<p>作为军队的指挥官，你可以选择发射导弹杀死 <strong>3名</strong> 敌国士兵，但会炸毁附近的 <strong>1棵</strong> 敌国树木。</p> <p>树木的照片如下图所示。</p> <p></p> <img src='stimuli/trees/5.png', style='max-width: 30%;'> </img> <p><strong>你是否选择发射武器？</strong></p>","0",""
"","","","","","html-keyboard-response","126","1072331","0.0-4.0-0.61","44","1","2022-10-07 06:12:28","d60b49b5908c80e163b920d72b52d584","219.142.99.6","Mozilla/5.0 (Windows NT 10.0; Win64; x64) AppleWebKit/537.36 (KHTML, like Gecko) Chrome/105.0.0.0 Safari/537.36 Edg/105.0.1343.50","WebKit","Edge","105.0.1343.50","Windows","10.0","null","<div style=""font-size:60px;"">+</div>","null",""
"","","","","","html-button-response","127","1073936","0.0-4.0-1.61","44","1","2022-10-07 06:12:28","d60b49b5908c80e163b920d72b52d584","219.142.99.6","Mozilla/5.0 (Windows NT 10.0; Win64; x64) AppleWebKit/537.36 (KHTML, like Gecko) Chrome/105.0.0.0 Safari/537.36 Edg/105.0.1343.50","WebKit","Edge","105.0.1343.50","Windows","10.0","1595","<p>作为军队的指挥官，你可以选择发射导弹杀死 <strong>2名</strong> 敌国士兵，但会误杀附近的 <strong>1名</strong> 敌国平民。</p> <p>平民照片如下图所示。</p> <p></p> <img src='stimuli/faces/NCF5.jpg', style='max-width: 30%;'> </img> <p><strong>你是否选择发射武器？</strong></p>","1",""
"","","","","","html-keyboard-response","128","1074946","0.0-4.0-0.62","44","1","2022-10-07 06:12:28","d60b49b5908c80e163b920d72b52d584","219.142.99.6","Mozilla/5.0 (Windows NT 10.0; Win64; x64) AppleWebKit/537.36 (KHTML, like Gecko) Chrome/105.0.0.0 Safari/537.36 Edg/105.0.1343.50","WebKit","Edge","105.0.1343.50","Windows","10.0","null","<div style=""font-size:60px;"">+</div>","null",""
"","","","","","html-button-response","129","1075935","0.0-4.0-1.62","44","1","2022-10-07 06:12:28","d60b49b5908c80e163b920d72b52d584","219.142.99.6","Mozilla/5.0 (Windows NT 10.0; Win64; x64) AppleWebKit/537.36 (KHTML, like Gecko) Chrome/105.0.0.0 Safari/537.36 Edg/105.0.1343.50","WebKit","Edge","105.0.1343.50","Windows","10.0","981","<p>作为军队的指挥官，你可以选择发射导弹杀死 <strong>5名</strong> 敌国士兵，但会炸毁附近的 <strong>1棵</strong> 敌国树木。</p> <p>树木的照片如下图所示。</p> <p></p> <img src='stimuli/trees/10.png', style='max-width: 30%;'> </img> <p><strong>你是否选择发射武器？</strong></p>","0",""
"","","","","","html-keyboard-response","130","1076939","0.0-4.0-0.63","44","1","2022-10-07 06:12:28","d60b49b5908c80e163b920d72b52d584","219.142.99.6","Mozilla/5.0 (Windows NT 10.0; Win64; x64) AppleWebKit/537.36 (KHTML, like Gecko) Chrome/105.0.0.0 Safari/537.36 Edg/105.0.1343.50","WebKit","Edge","105.0.1343.50","Windows","10.0","null","<div style=""font-size:60px;"">+</div>","null",""
"","","","","","html-button-response","131","1448863","0.0-4.0-1.63","44","1","2022-10-07 06:12:28","d60b49b5908c80e163b920d72b52d584","219.142.99.6","Mozilla/5.0 (Windows NT 10.0; Win64; x64) AppleWebKit/537.36 (KHTML, like Gecko) Chrome/105.0.0.0 Safari/537.36 Edg/105.0.1343.50","WebKit","Edge","105.0.1343.50","Windows","10.0","371915","<p>作为军队的指挥官，你可以选择发射导弹杀死 <strong>4名</strong> 敌国士兵，但会炸毁附近的 <strong>1棵</strong> 敌国树木。</p> <p>树木的照片如下图所示。</p> <p></p> <img src='stimuli/trees/15.png', style='max-width: 30%;'> </img> <p><strong>你是否选择发射武器？</strong></p>","0",""
"","","","","","survey-multi-choice","132","1505863","0.0-5.0","44","1","2022-10-07 06:12:28","d60b49b5908c80e163b920d72b52d584","219.142.99.6","Mozilla/5.0 (Windows NT 10.0; Win64; x64) AppleWebKit/537.36 (KHTML, like Gecko) Chrome/105.0.0.0 Safari/537.36 Edg/105.0.1343.50","WebKit","Edge","105.0.1343.50","Windows","10.0","56996","","{""Attention1"":""""}","[0]"
"","","","","","html-button-response","133","1914470","0.0-6.0","44","1","2022-10-07 06:12:28","d60b49b5908c80e163b920d72b52d584","219.142.99.6","Mozilla/5.0 (Windows NT 10.0; Win64; x64) AppleWebKit/537.36 (KHTML, like Gecko) Chrome/105.0.0.0 Safari/537.36 Edg/105.0.1343.50","WebKit","Edge","105.0.1343.50","Windows","10.0","408601","<p style=""font-size:20px;font-weight:bold;"">恭喜！</p><p>你已经完成了实验的第一部分。</p><p>请休息放松一下，然后进入第二部分。</p><p>这部分大约需要10分钟。</p>","0",""
"","","","","","survey-text","134","1944414","0.0-7.0","44","1","2022-10-07 06:12:28","d60b49b5908c80e163b920d72b52d584","219.142.99.6","Mozilla/5.0 (Windows NT 10.0; Win64; x64) AppleWebKit/537.36 (KHTML, like Gecko) Chrome/105.0.0.0 Safari/537.36 Edg/105.0.1343.50","WebKit","Edge","105.0.1343.50","Windows","10.0","28911","","{""Age"":""24"",""Nation"":""中国"",""Born"":""天津市"",""Live"":""天津市"",""Ethnic"":""汉族"",""Alipay"":""15022686993""}",""
"","","","","","survey-multi-choice","135","1968350","0.0-8.0","44","1","2022-10-07 06:12:28","d60b49b5908c80e163b920d72b52d584","219.142.99.6","Mozilla/5.0 (Windows NT 10.0; Win64; x64) AppleWebKit/537.36 (KHTML, like Gecko) Chrome/105.0.0.0 Safari/537.36 Edg/105.0.1343.50","WebKit","Edge","105.0.1343.50","Windows","10.0","23932","","{""Gender"":""男"",""Education"":""硕士研究生毕业"",""Income"":""￥70,000-￥139,999"",""Children"":""1"",""Race"":""亚洲人""}","[0,1,2,3,4]"
"","","","","","survey-multi-select","136","1983393","0.0-9.0","44","1","2022-10-07 06:12:28","d60b49b5908c80e163b920d72b52d584","219.142.99.6","Mozilla/5.0 (Windows NT 10.0; Win64; x64) AppleWebKit/537.36 (KHTML, like Gecko) Chrome/105.0.0.0 Safari/537.36 Edg/105.0.1343.50","WebKit","Edge","105.0.1343.50","Windows","10.0","15009","","{""Marriage"":[""未婚""],""Religion"":[""无神论者""]}","[0,1]"
"","","","","","survey-multi-choice","137","1992918","0.0-10.0","44","1","2022-10-07 06:12:28","d60b49b5908c80e163b920d72b52d584","219.142.99.6","Mozilla/5.0 (Windows NT 10.0; Win64; x64) AppleWebKit/537.36 (KHTML, like Gecko) Chrome/105.0.0.0 Safari/537.36 Edg/105.0.1343.50","WebKit","Edge","105.0.1343.50","Windows","10.0","9519","","{""SES"":""6""}","[0]"
"","","","","","html-button-response","138","1996302","0.0-11.0","44","1","2022-10-07 06:12:28","d60b49b5908c80e163b920d72b52d584","219.142.99.6","Mozilla/5.0 (Windows NT 10.0; Win64; x64) AppleWebKit/537.36 (KHTML, like Gecko) Chrome/105.0.0.0 Safari/537.36 Edg/105.0.1343.50","WebKit","Edge","105.0.1343.50","Windows","10.0","3262","<p><strong>请判断下列陈述在多大程度上可以形容你？</p><p> (1 = ""和我一点都不像"" to 5 = ""非常像我"".)</strong></p>","0",""
"","","","","","survey-likert","139","2029350","0.0-12.0","44","1","2022-10-07 06:12:28","d60b49b5908c80e163b920d72b52d584","219.142.99.6","Mozilla/5.0 (Windows NT 10.0; Win64; x64) AppleWebKit/537.36 (KHTML, like Gecko) Chrome/105.0.0.0 Safari/537.36 Edg/105.0.1343.50","WebKit","Edge","105.0.1343.50","Windows","10.0","33045","","{""Aggression1"":3,""Aggression2"":1,""Aggression3"":4,""Aggression4"":2,""Aggression5"":3,""Aggression6"":3,""Aggression7"":0,""Aggression8"":1,""Aggression9"":1}","[0,1,2,3,4,5,6,7,8]"
"","","","","","html-button-response","140","2030448","0.0-13.0","44","1","2022-10-07 06:12:28","d60b49b5908c80e163b920d72b52d584","219.142.99.6","Mozilla/5.0 (Windows NT 10.0; Win64; x64) AppleWebKit/537.36 (KHTML, like Gecko) Chrome/105.0.0.0 Safari/537.36 Edg/105.0.1343.50","WebKit","Edge","105.0.1343.50","Windows","10.0","1093","<p><strong>请判断你在多大程度上同意下列陈述。</strong></p>","0",""
"","","","","","survey-likert","141","2116512","0.0-14.0","44","1","2022-10-07 06:12:28","d60b49b5908c80e163b920d72b52d584","219.142.99.6","Mozilla/5.0 (Windows NT 10.0; Win64; x64) AppleWebKit/537.36 (KHTML, like Gecko) Chrome/105.0.0.0 Safari/537.36 Edg/105.0.1343.50","WebKit","Edge","105.0.1343.50","Windows","10.0","86059","","{""scale12"":1,""scale16"":3,""scale11"":2,""scale21"":4,""scale4"":3,""scale14"":3,""scale23"":2,""scale1"":1,""scale27"":1,""scale13"":3,""scale22"":1,""scale18"":3,""scale24"":1,""scale6"":1,""scale9"":1,""scale17"":1,""scale5"":3,""scale26"":3,""scale28"":2,""scale2"":1,""scale8"":2,""scale10"":1,""scale19"":3,""scale7"":1,""scale15"":3,""scale20"":1,""scale25"":1,""scale3"":3}","[11,15,10,20,3,13,22,0,26,12,21,17,23,5,8,16,4,25,27,1,7,9,18,6,14,19,24,2]"
"","","","","","html-button-response","142","2117694","0.0-15.0","44","1","2022-10-07 06:12:28","d60b49b5908c80e163b920d72b52d584","219.142.99.6","Mozilla/5.0 (Windows NT 10.0; Win64; x64) AppleWebKit/537.36 (KHTML, like Gecko) Chrome/105.0.0.0 Safari/537.36 Edg/105.0.1343.50","WebKit","Edge","105.0.1343.50","Windows","10.0","1073","<p><strong>请判断你在多大程度上同意下列陈述。</strong></p>","0",""
"","","","","","survey-likert","143","2188598","0.0-16.0","44","1","2022-10-07 06:12:28","d60b49b5908c80e163b920d72b52d584","219.142.99.6","Mozilla/5.0 (Windows NT 10.0; Win64; x64) AppleWebKit/537.36 (KHTML, like Gecko) Chrome/105.0.0.0 Safari/537.36 Edg/105.0.1343.50","WebKit","Edge","105.0.1343.50","Windows","10.0","70902","","{""sdo11"":1,""sdo12"":3,""sdo1"":5,""sdo10"":4,""sdo8"":5,""sdo13"":2,""sdo5"":5,""sdo14"":2,""sdo4"":6,""sdo9"":1,""sdo6"":6,""sdo7"":3,""sdo16"":2,""sdo3"":5,""sdo15"":4,""sdo2"":1}","[10,11,0,9,7,12,4,13,3,8,5,6,15,2,14,1]"
"","","","","","html-button-response","144","2189565","0.0-17.0","44","1","2022-10-07 06:12:28","d60b49b5908c80e163b920d72b52d584","219.142.99.6","Mozilla/5.0 (Windows NT 10.0; Win64; x64) AppleWebKit/537.36 (KHTML, like Gecko) Chrome/105.0.0.0 Safari/537.36 Edg/105.0.1343.50","WebKit","Edge","105.0.1343.50","Windows","10.0","961","<p><strong>请判断你在多大程度上同意下列陈述。</strong></p>","0",""
"","","","","","survey-likert","145","2235286","0.0-18.0","44","1","2022-10-07 06:12:28","d60b49b5908c80e163b920d72b52d584","219.142.99.6","Mozilla/5.0 (Windows NT 10.0; Win64; x64) AppleWebKit/537.36 (KHTML, like Gecko) Chrome/105.0.0.0 Safari/537.36 Edg/105.0.1343.50","WebKit","Edge","105.0.1343.50","Windows","10.0","45717","","{""caring1"":0,""liking1"":3,""caring2"":2,""protection1"":2,""liking2"":3,""caring3"":1,""protection2"":1,""liking3"":3,""protection3"":1,""caring4"":2,""liking4"":3,""protection4"":2,""caring5"":1,""liking5"":3,""protection5"":2}","[0,1,2,3,4,5,6,7,8,9,10,11,12,13,14]"
"","","","","","html-button-response","146","2236213","0.0-19.0","44","1","2022-10-07 06:12:28","d60b49b5908c80e163b920d72b52d584","219.142.99.6","Mozilla/5.0 (Windows NT 10.0; Win64; x64) AppleWebKit/537.36 (KHTML, like Gecko) Chrome/105.0.0.0 Safari/537.36 Edg/105.0.1343.50","WebKit","Edge","105.0.1343.50","Windows","10.0","921","<p><strong>请判断下列场景中你的内心感受有多柔软。</strong></p>","0",""
"","","","","","survey-likert","147","2259222","0.0-20.0","44","1","2022-10-07 06:12:28","d60b49b5908c80e163b920d72b52d584","219.142.99.6","Mozilla/5.0 (Windows NT 10.0; Win64; x64) AppleWebKit/537.36 (KHTML, like Gecko) Chrome/105.0.0.0 Safari/537.36 Edg/105.0.1343.50","WebKit","Edge","105.0.1343.50","Windows","10.0","23005","","{""tenderness-positive1"":1,""tenderness-negative1"":1,""tenderness-negative2"":0,""tenderness-positive2"":2,""tenderness-positive3"":1,""tenderness-negative3"":1,""tenderness-positive4"":1,""tendereness-negative4"":1,""tendernness-negative5"":2,""tenderness-positive5"":2}","[0,1,2,3,4,5,6,7,8,9]"
"","","","","","survey-multi-choice","148","2267038","0.0-21.0","44","1","2022-10-07 06:12:28","d60b49b5908c80e163b920d72b52d584","219.142.99.6","Mozilla/5.0 (Windows NT 10.0; Win64; x64) AppleWebKit/537.36 (KHTML, like Gecko) Chrome/105.0.0.0 Safari/537.36 Edg/105.0.1343.50","WebKit","Edge","105.0.1343.50","Windows","10.0","7810","","{""Attention2"":""其他""}","[0]"
"","","","","","html-button-response","149","2268197","0.0-22.0","44","1","2022-10-07 06:12:28","d60b49b5908c80e163b920d72b52d584","219.142.99.6","Mozilla/5.0 (Windows NT 10.0; Win64; x64) AppleWebKit/537.36 (KHTML, like Gecko) Chrome/105.0.0.0 Safari/537.36 Edg/105.0.1343.50","WebKit","Edge","105.0.1343.50","Windows","10.0","1154","<p><strong>请判断你在多大程度上同意下列陈述。</strong></p>","0",""
"","","","","","survey-likert","150","2338815","0.0-23.0","44","1","2022-10-07 06:12:28","d60b49b5908c80e163b920d72b52d584","219.142.99.6","Mozilla/5.0 (Windows NT 10.0; Win64; x64) AppleWebKit/537.36 (KHTML, like Gecko) Chrome/105.0.0.0 Safari/537.36 Edg/105.0.1343.50","WebKit","Edge","105.0.1343.50","Windows","10.0","70613","","{""Patri10"":0,""Patri4"":3,""Patri7"":3,""Nation4"":3,""Patri3"":3,""Patri9"":2,""Nation5"":1,""Nation1"":0,""Patri6"":1,""Nation7"":3,""Patri5"":3,""Patri8"":3,""Nation8"":1,""Nation6"":1,""Patri2"":3,""Patri1"":3,""Patri11"":1,""Nation3"":3,""Patri12"":0,""Nation2"":3}","[9,3,6,15,2,8,16,12,5,18,4,7,19,17,1,0,10,14,11,13]"
"","","","","","html-button-response","151","2339925","0.0-24.0","44","1","2022-10-07 06:12:28","d60b49b5908c80e163b920d72b52d584","219.142.99.6","Mozilla/5.0 (Windows NT 10.0; Win64; x64) AppleWebKit/537.36 (KHTML, like Gecko) Chrome/105.0.0.0 Safari/537.36 Edg/105.0.1343.50","WebKit","Edge","105.0.1343.50","Windows","10.0","1105","<p><strong>请判断你在多大程度上同意下列陈述。</strong></p>","0",""
"","","","","","survey-likert","152","2512743","0.0-25.0","44","1","2022-10-07 06:12:28","d60b49b5908c80e163b920d72b52d584","219.142.99.6","Mozilla/5.0 (Windows NT 10.0; Win64; x64) AppleWebKit/537.36 (KHTML, like Gecko) Chrome/105.0.0.0 Safari/537.36 Edg/105.0.1343.50","WebKit","Edge","105.0.1343.50","Windows","10.0","172813","","{""vc4"":6,""vc1"":6,""vc3"":7,""Robot"":6,""hc4"":6,""vi1"":7,""vi3"":8,""vi4"":5,""hi4"":7,""hc3"":3,""hc2"":6,""hc1"":6,""hi2"":6,""hi3"":7,""vc2"":8,""hi1"":7,""vi2"":8}","[16,13,15,7,12,4,6,8,3,11,10,9,1,2,14,0,5]"
"","","","","","survey-text","153","2810661","0.0-26.0","44","1","2022-10-07 06:12:28","d60b49b5908c80e163b920d72b52d584","219.142.99.6","Mozilla/5.0 (Windows NT 10.0; Win64; x64) AppleWebKit/537.36 (KHTML, like Gecko) Chrome/105.0.0.0 Safari/537.36 Edg/105.0.1343.50","WebKit","Edge","105.0.1343.50","Windows","10.0","297760","","{""Comments"":""涉及一些社会学和法哲学的定义，比如平等和公平，权利和权力等，我认为有时候使用的词汇不太符合题中的语境。比如实际想表达公平，但是却用了“平等”一词，此二词实际上所表达的意义是截然不同的。感谢考量采纳。""}",""
"","","","","","html-button-response","154","2811564","0.0-27.0","44","1","2022-10-07 06:12:28","d60b49b5908c80e163b920d72b52d584","219.142.99.6","Mozilla/5.0 (Windows NT 10.0; Win64; x64) AppleWebKit/537.36 (KHTML, like Gecko) Chrome/105.0.0.0 Safari/537.36 Edg/105.0.1343.50","WebKit","Edge","105.0.1343.50","Windows","10.0","900","<strong><p>恭喜你完成了实验！</p><p>感谢您的参与。</p></strong>","0",""
