"success","timeout","failed_images","failed_audio","failed_video","trial_type","trial_index","time_elapsed","internal_node_id","run_id","condition","recorded_at","source_code_version","ip","user_agent","device","browser","browser_version","platform","platform_version","rt","stimulus","response","question_order"
"true","false","[]","[]","[]","preload","0","4007","0.0-0.0","46","1","2022-10-07 06:12:52","d60b49b5908c80e163b920d72b52d584","36.17.170.78","Xiaomi_M2001G7AC_TD-LTE/V1 Linux/4.19.81 Android/10 Release/30.12.2019 Browser/AppleWebKit537.36 Mobile Safari/537.36 System/Android 10 XiaoMi/MiuiBrowser/11.3.10 swan-mibrowser","Xiaomi","Safari","537.36","AndroidOS","10","","","",""
"true","","","","","fullscreen","1","7262","0.0-1.0","46","1","2022-10-07 06:12:52","d60b49b5908c80e163b920d72b52d584","36.17.170.78","Xiaomi_M2001G7AC_TD-LTE/V1 Linux/4.19.81 Android/10 Release/30.12.2019 Browser/AppleWebKit537.36 Mobile Safari/537.36 System/Android 10 XiaoMi/MiuiBrowser/11.3.10 swan-mibrowser","Xiaomi","Safari","537.36","AndroidOS","10","","","",""
"","","","","","html-button-response","2","18599","0.0-2.0","46","1","2022-10-07 06:12:52","d60b49b5908c80e163b920d72b52d584","36.17.170.78","Xiaomi_M2001G7AC_TD-LTE/V1 Linux/4.19.81 Android/10 Release/30.12.2019 Browser/AppleWebKit537.36 Mobile Safari/537.36 System/Android 10 XiaoMi/MiuiBrowser/11.3.10 swan-mibrowser","Xiaomi","Safari","537.36","AndroidOS","10","11328","<p style=""font-size:20px;font-weight:bold;"">实验知情同意书</p><p style=""text-align:left;""><strong>实验名称：</strong>社会冲突研究</p><p style=""text-align:left;""><strong>主要研究者：</strong>韩晓春副教授（北京师范大学心理学部）</p><p style=""text-align:left;""><strong>联系方式：</strong>发送邮件至xiaochun.han@bnu.edu.cn</p><p style=""text-align:left;""><strong>研究目的：</strong>研究旨在了解人类面对群体冲突时的决策方式，以及相关的心理学特质。实验调查大约需要20分钟。</p><p style=""text-align:left;""><strong>实验流程：</strong>实验包含两部分。第一部分呈现一系列群体冲突场景，请你决定如何对这些冲突进行反应，大约需要10分钟完成。第二部分包含一系列人口统计学信息收集和心理学问卷，大约需要10分钟完成。</p><p style=""text-align:left;""><strong>参加及退出规则：</strong>参加本实验完全取决于您的个人意愿。在参与过程中，您可以随时退出，并且不用承担任何后果。</p><p style=""text-align:left;""><strong>隐私：</strong>本实验完全匿名进行，不会收集您的姓名或其他能够识别您身份的信息。实验中收集的作答仅用作科学研究使用，可能会在学术期刊/书籍上发表，或者用于教学，您的数据未来可能会和其他研究者或实验室分享，但您的个人身份不会被识别。</p><p style=""text-align:left;""><strong>实验报酬：</strong>实验完成后，您将获得15元人民币报酬，以感谢您的时间和努力。调查问卷中包含几道题目用以测验您作答时的认真度。只有完成全部实验，并且正确回答认真度测验的被试才能获得实验报酬。实验报酬将通过支付宝转账发放。</p><p style=""text-align:left;font-size:20px;""><strong>如果您同意以上实验知情同意书的内容，请点击'同意并且开始实验'按钮；否则请关闭浏览器界面，退出实验。</strong></p>","0",""
"","","","","","html-button-response","3","34481","0.0-3.0","46","1","2022-10-07 06:12:52","d60b49b5908c80e163b920d72b52d584","36.17.170.78","Xiaomi_M2001G7AC_TD-LTE/V1 Linux/4.19.81 Android/10 Release/30.12.2019 Browser/AppleWebKit537.36 Mobile Safari/537.36 System/Android 10 XiaoMi/MiuiBrowser/11.3.10 swan-mibrowser","Xiaomi","Safari","537.36","AndroidOS","10","15875","<p ><strong>实验任务一：</strong></p><p>请想象你的国家与另一个国家发生了军事冲突。</p><p>你是国家军队的指挥官，你将如何在冲突中进行决策。</p><p>具体来说，作为军队指挥官，请你决定是否发射导弹进行打击。</p><p>接下来，你会面对一系列场景，请仔细阅读每个场景，然后进行决策。</p><p>这部分实验任务大约需要10分钟。</p><p><strong>实验过程中，请集中注意力。</strong></p>","0",""
"","","","","","html-keyboard-response","4","35490","0.0-4.0-0.0","46","1","2022-10-07 06:12:52","d60b49b5908c80e163b920d72b52d584","36.17.170.78","Xiaomi_M2001G7AC_TD-LTE/V1 Linux/4.19.81 Android/10 Release/30.12.2019 Browser/AppleWebKit537.36 Mobile Safari/537.36 System/Android 10 XiaoMi/MiuiBrowser/11.3.10 swan-mibrowser","Xiaomi","Safari","537.36","AndroidOS","10","null","<div style=""font-size:60px;"">+</div>","null",""
"","","","","","html-button-response","5","46433","0.0-4.0-1.0","46","1","2022-10-07 06:12:52","d60b49b5908c80e163b920d72b52d584","36.17.170.78","Xiaomi_M2001G7AC_TD-LTE/V1 Linux/4.19.81 Android/10 Release/30.12.2019 Browser/AppleWebKit537.36 Mobile Safari/537.36 System/Android 10 XiaoMi/MiuiBrowser/11.3.10 swan-mibrowser","Xiaomi","Safari","537.36","AndroidOS","10","10919","<p>作为军队的指挥官，你可以选择发射导弹杀死 <strong>4名</strong> 敌国士兵，但会误杀附近的 <strong>1名</strong> 敌国平民。</p> <p>平民照片如下图所示。</p> <p></p> <img src='stimuli/faces/NCF1.jpg', style='max-width: 30%;'> </img> <p><strong>你是否选择发射武器？</strong></p>","0",""
"","","","","","html-keyboard-response","6","47447","0.0-4.0-0.1","46","1","2022-10-07 06:12:52","d60b49b5908c80e163b920d72b52d584","36.17.170.78","Xiaomi_M2001G7AC_TD-LTE/V1 Linux/4.19.81 Android/10 Release/30.12.2019 Browser/AppleWebKit537.36 Mobile Safari/537.36 System/Android 10 XiaoMi/MiuiBrowser/11.3.10 swan-mibrowser","Xiaomi","Safari","537.36","AndroidOS","10","null","<div style=""font-size:60px;"">+</div>","null",""
"","","","","","html-button-response","7","52103","0.0-4.0-1.1","46","1","2022-10-07 06:12:52","d60b49b5908c80e163b920d72b52d584","36.17.170.78","Xiaomi_M2001G7AC_TD-LTE/V1 Linux/4.19.81 Android/10 Release/30.12.2019 Browser/AppleWebKit537.36 Mobile Safari/537.36 System/Android 10 XiaoMi/MiuiBrowser/11.3.10 swan-mibrowser","Xiaomi","Safari","537.36","AndroidOS","10","4644","<p>作为军队的指挥官，你可以选择发射导弹杀死 <strong>3名</strong> 敌国士兵，但会炸毁附近的 <strong>1棵</strong> 敌国树木。</p> <p>树木的照片如下图所示。</p> <p></p> <img src='stimuli/trees/12.png', style='max-width: 30%;'> </img> <p><strong>你是否选择发射武器？</strong></p>","0",""
"","","","","","html-keyboard-response","8","53114","0.0-4.0-0.2","46","1","2022-10-07 06:12:52","d60b49b5908c80e163b920d72b52d584","36.17.170.78","Xiaomi_M2001G7AC_TD-LTE/V1 Linux/4.19.81 Android/10 Release/30.12.2019 Browser/AppleWebKit537.36 Mobile Safari/537.36 System/Android 10 XiaoMi/MiuiBrowser/11.3.10 swan-mibrowser","Xiaomi","Safari","537.36","AndroidOS","10","null","<div style=""font-size:60px;"">+</div>","null",""
"","","","","","html-button-response","9","61217","0.0-4.0-1.2","46","1","2022-10-07 06:12:52","d60b49b5908c80e163b920d72b52d584","36.17.170.78","Xiaomi_M2001G7AC_TD-LTE/V1 Linux/4.19.81 Android/10 Release/30.12.2019 Browser/AppleWebKit537.36 Mobile Safari/537.36 System/Android 10 XiaoMi/MiuiBrowser/11.3.10 swan-mibrowser","Xiaomi","Safari","537.36","AndroidOS","10","8080","<p>作为军队的指挥官，你可以选择发射导弹杀死 <strong>1名</strong> 敌国士兵，但会误杀附近的 <strong>1名</strong> 敌国平民。</p> <p>平民照片如下图所示。</p> <p></p> <img src='stimuli/faces/NCM4.jpg', style='max-width: 30%;'> </img> <p><strong>你是否选择发射武器？</strong></p>","0",""
"","","","","","html-keyboard-response","10","62228","0.0-4.0-0.3","46","1","2022-10-07 06:12:52","d60b49b5908c80e163b920d72b52d584","36.17.170.78","Xiaomi_M2001G7AC_TD-LTE/V1 Linux/4.19.81 Android/10 Release/30.12.2019 Browser/AppleWebKit537.36 Mobile Safari/537.36 System/Android 10 XiaoMi/MiuiBrowser/11.3.10 swan-mibrowser","Xiaomi","Safari","537.36","AndroidOS","10","null","<div style=""font-size:60px;"">+</div>","null",""
"","","","","","html-button-response","11","67890","0.0-4.0-1.3","46","1","2022-10-07 06:12:52","d60b49b5908c80e163b920d72b52d584","36.17.170.78","Xiaomi_M2001G7AC_TD-LTE/V1 Linux/4.19.81 Android/10 Release/30.12.2019 Browser/AppleWebKit537.36 Mobile Safari/537.36 System/Android 10 XiaoMi/MiuiBrowser/11.3.10 swan-mibrowser","Xiaomi","Safari","537.36","AndroidOS","10","5639","<p>作为军队的指挥官，你可以选择发射导弹杀死 <strong>1名</strong> 敌国士兵，但会炸毁附近的 <strong>1棵</strong> 敌国树木。</p> <p>树木的照片如下图所示。</p> <p></p> <img src='stimuli/trees/6.png', style='max-width: 30%;'> </img> <p><strong>你是否选择发射武器？</strong></p>","0",""
"","","","","","html-keyboard-response","12","68900","0.0-4.0-0.4","46","1","2022-10-07 06:12:52","d60b49b5908c80e163b920d72b52d584","36.17.170.78","Xiaomi_M2001G7AC_TD-LTE/V1 Linux/4.19.81 Android/10 Release/30.12.2019 Browser/AppleWebKit537.36 Mobile Safari/537.36 System/Android 10 XiaoMi/MiuiBrowser/11.3.10 swan-mibrowser","Xiaomi","Safari","537.36","AndroidOS","10","null","<div style=""font-size:60px;"">+</div>","null",""
"","","","","","html-button-response","13","73063","0.0-4.0-1.4","46","1","2022-10-07 06:12:52","d60b49b5908c80e163b920d72b52d584","36.17.170.78","Xiaomi_M2001G7AC_TD-LTE/V1 Linux/4.19.81 Android/10 Release/30.12.2019 Browser/AppleWebKit537.36 Mobile Safari/537.36 System/Android 10 XiaoMi/MiuiBrowser/11.3.10 swan-mibrowser","Xiaomi","Safari","537.36","AndroidOS","10","4136","<p>作为军队的指挥官，你可以选择发射导弹杀死 <strong>6名</strong> 敌国士兵，但会炸毁附近的 <strong>1棵</strong> 敌国树木。</p> <p>树木的照片如下图所示。</p> <p></p> <img src='stimuli/trees/15.png', style='max-width: 30%;'> </img> <p><strong>你是否选择发射武器？</strong></p>","0",""
"","","","","","html-keyboard-response","14","74078","0.0-4.0-0.5","46","1","2022-10-07 06:12:52","d60b49b5908c80e163b920d72b52d584","36.17.170.78","Xiaomi_M2001G7AC_TD-LTE/V1 Linux/4.19.81 Android/10 Release/30.12.2019 Browser/AppleWebKit537.36 Mobile Safari/537.36 System/Android 10 XiaoMi/MiuiBrowser/11.3.10 swan-mibrowser","Xiaomi","Safari","537.36","AndroidOS","10","null","<div style=""font-size:60px;"">+</div>","null",""
"","","","","","html-button-response","15","77383","0.0-4.0-1.5","46","1","2022-10-07 06:12:52","d60b49b5908c80e163b920d72b52d584","36.17.170.78","Xiaomi_M2001G7AC_TD-LTE/V1 Linux/4.19.81 Android/10 Release/30.12.2019 Browser/AppleWebKit537.36 Mobile Safari/537.36 System/Android 10 XiaoMi/MiuiBrowser/11.3.10 swan-mibrowser","Xiaomi","Safari","537.36","AndroidOS","10","3277","<p>作为军队的指挥官，你可以选择发射导弹杀死 <strong>5名</strong> 敌国士兵，但会误杀附近的 <strong>1名</strong> 敌国平民。</p> <p>平民照片如下图所示。</p> <p></p> <img src='stimuli/faces/NCF4.jpg', style='max-width: 30%;'> </img> <p><strong>你是否选择发射武器？</strong></p>","0",""
"","","","","","html-keyboard-response","16","78403","0.0-4.0-0.6","46","1","2022-10-07 06:12:52","d60b49b5908c80e163b920d72b52d584","36.17.170.78","Xiaomi_M2001G7AC_TD-LTE/V1 Linux/4.19.81 Android/10 Release/30.12.2019 Browser/AppleWebKit537.36 Mobile Safari/537.36 System/Android 10 XiaoMi/MiuiBrowser/11.3.10 swan-mibrowser","Xiaomi","Safari","537.36","AndroidOS","10","null","<div style=""font-size:60px;"">+</div>","null",""
"","","","","","html-button-response","17","81192","0.0-4.0-1.6","46","1","2022-10-07 06:12:52","d60b49b5908c80e163b920d72b52d584","36.17.170.78","Xiaomi_M2001G7AC_TD-LTE/V1 Linux/4.19.81 Android/10 Release/30.12.2019 Browser/AppleWebKit537.36 Mobile Safari/537.36 System/Android 10 XiaoMi/MiuiBrowser/11.3.10 swan-mibrowser","Xiaomi","Safari","537.36","AndroidOS","10","2778","<p>作为军队的指挥官，你可以选择发射导弹杀死 <strong>8名</strong> 敌国士兵，但会炸毁附近的 <strong>1棵</strong> 敌国树木。</p> <p>树木的照片如下图所示。</p> <p></p> <img src='stimuli/trees/1.png', style='max-width: 30%;'> </img> <p><strong>你是否选择发射武器？</strong></p>","0",""
"","","","","","html-keyboard-response","18","82205","0.0-4.0-0.7","46","1","2022-10-07 06:12:52","d60b49b5908c80e163b920d72b52d584","36.17.170.78","Xiaomi_M2001G7AC_TD-LTE/V1 Linux/4.19.81 Android/10 Release/30.12.2019 Browser/AppleWebKit537.36 Mobile Safari/537.36 System/Android 10 XiaoMi/MiuiBrowser/11.3.10 swan-mibrowser","Xiaomi","Safari","537.36","AndroidOS","10","null","<div style=""font-size:60px;"">+</div>","null",""
"","","","","","html-button-response","19","84300","0.0-4.0-1.7","46","1","2022-10-07 06:12:52","d60b49b5908c80e163b920d72b52d584","36.17.170.78","Xiaomi_M2001G7AC_TD-LTE/V1 Linux/4.19.81 Android/10 Release/30.12.2019 Browser/AppleWebKit537.36 Mobile Safari/537.36 System/Android 10 XiaoMi/MiuiBrowser/11.3.10 swan-mibrowser","Xiaomi","Safari","537.36","AndroidOS","10","2067","<p>作为军队的指挥官，你可以选择发射导弹杀死 <strong>10名</strong> 敌国士兵，但会误杀附近的 <strong>1名</strong> 敌国平民。</p> <p>平民照片如下图所示。</p> <p></p> <img src='stimuli/faces/NCF1.jpg', style='max-width: 30%;'> </img> <p><strong>你是否选择发射武器？</strong></p>","0",""
"","","","","","html-keyboard-response","20","85312","0.0-4.0-0.8","46","1","2022-10-07 06:12:52","d60b49b5908c80e163b920d72b52d584","36.17.170.78","Xiaomi_M2001G7AC_TD-LTE/V1 Linux/4.19.81 Android/10 Release/30.12.2019 Browser/AppleWebKit537.36 Mobile Safari/537.36 System/Android 10 XiaoMi/MiuiBrowser/11.3.10 swan-mibrowser","Xiaomi","Safari","537.36","AndroidOS","10","null","<div style=""font-size:60px;"">+</div>","null",""
"","","","","","html-button-response","21","87911","0.0-4.0-1.8","46","1","2022-10-07 06:12:52","d60b49b5908c80e163b920d72b52d584","36.17.170.78","Xiaomi_M2001G7AC_TD-LTE/V1 Linux/4.19.81 Android/10 Release/30.12.2019 Browser/AppleWebKit537.36 Mobile Safari/537.36 System/Android 10 XiaoMi/MiuiBrowser/11.3.10 swan-mibrowser","Xiaomi","Safari","537.36","AndroidOS","10","2570","<p>作为军队的指挥官，你可以选择发射导弹杀死 <strong>2名</strong> 敌国士兵，但会误杀附近的 <strong>1名</strong> 敌国平民。</p> <p>平民照片如下图所示。</p> <p></p> <img src='stimuli/faces/NCF3.jpg', style='max-width: 30%;'> </img> <p><strong>你是否选择发射武器？</strong></p>","0",""
"","","","","","html-keyboard-response","22","88923","0.0-4.0-0.9","46","1","2022-10-07 06:12:52","d60b49b5908c80e163b920d72b52d584","36.17.170.78","Xiaomi_M2001G7AC_TD-LTE/V1 Linux/4.19.81 Android/10 Release/30.12.2019 Browser/AppleWebKit537.36 Mobile Safari/537.36 System/Android 10 XiaoMi/MiuiBrowser/11.3.10 swan-mibrowser","Xiaomi","Safari","537.36","AndroidOS","10","null","<div style=""font-size:60px;"">+</div>","null",""
"","","","","","html-button-response","23","92015","0.0-4.0-1.9","46","1","2022-10-07 06:12:52","d60b49b5908c80e163b920d72b52d584","36.17.170.78","Xiaomi_M2001G7AC_TD-LTE/V1 Linux/4.19.81 Android/10 Release/30.12.2019 Browser/AppleWebKit537.36 Mobile Safari/537.36 System/Android 10 XiaoMi/MiuiBrowser/11.3.10 swan-mibrowser","Xiaomi","Safari","537.36","AndroidOS","10","3076","<p>作为军队的指挥官，你可以选择发射导弹杀死 <strong>1名</strong> 敌国士兵，但会误杀附近的 <strong>1名</strong> 敌国平民。</p> <p>平民照片如下图所示。</p> <p></p> <img src='stimuli/faces/NCF5.jpg', style='max-width: 30%;'> </img> <p><strong>你是否选择发射武器？</strong></p>","0",""
"","","","","","html-keyboard-response","24","93022","0.0-4.0-0.10","46","1","2022-10-07 06:12:52","d60b49b5908c80e163b920d72b52d584","36.17.170.78","Xiaomi_M2001G7AC_TD-LTE/V1 Linux/4.19.81 Android/10 Release/30.12.2019 Browser/AppleWebKit537.36 Mobile Safari/537.36 System/Android 10 XiaoMi/MiuiBrowser/11.3.10 swan-mibrowser","Xiaomi","Safari","537.36","AndroidOS","10","null","<div style=""font-size:60px;"">+</div>","null",""
"","","","","","html-button-response","25","95133","0.0-4.0-1.10","46","1","2022-10-07 06:12:52","d60b49b5908c80e163b920d72b52d584","36.17.170.78","Xiaomi_M2001G7AC_TD-LTE/V1 Linux/4.19.81 Android/10 Release/30.12.2019 Browser/AppleWebKit537.36 Mobile Safari/537.36 System/Android 10 XiaoMi/MiuiBrowser/11.3.10 swan-mibrowser","Xiaomi","Safari","537.36","AndroidOS","10","2087","<p>作为军队的指挥官，你可以选择发射导弹杀死 <strong>10名</strong> 敌国士兵，但会炸毁附近的 <strong>1棵</strong> 敌国树木。</p> <p>树木的照片如下图所示。</p> <p></p> <img src='stimuli/trees/14.png', style='max-width: 30%;'> </img> <p><strong>你是否选择发射武器？</strong></p>","0",""
"","","","","","html-keyboard-response","26","96149","0.0-4.0-0.11","46","1","2022-10-07 06:12:52","d60b49b5908c80e163b920d72b52d584","36.17.170.78","Xiaomi_M2001G7AC_TD-LTE/V1 Linux/4.19.81 Android/10 Release/30.12.2019 Browser/AppleWebKit537.36 Mobile Safari/537.36 System/Android 10 XiaoMi/MiuiBrowser/11.3.10 swan-mibrowser","Xiaomi","Safari","537.36","AndroidOS","10","null","<div style=""font-size:60px;"">+</div>","null",""
"","","","","","html-button-response","27","97874","0.0-4.0-1.11","46","1","2022-10-07 06:12:52","d60b49b5908c80e163b920d72b52d584","36.17.170.78","Xiaomi_M2001G7AC_TD-LTE/V1 Linux/4.19.81 Android/10 Release/30.12.2019 Browser/AppleWebKit537.36 Mobile Safari/537.36 System/Android 10 XiaoMi/MiuiBrowser/11.3.10 swan-mibrowser","Xiaomi","Safari","537.36","AndroidOS","10","1701","<p>作为军队的指挥官，你可以选择发射导弹杀死 <strong>3名</strong> 敌国士兵，但会炸毁附近的 <strong>1棵</strong> 敌国树木。</p> <p>树木的照片如下图所示。</p> <p></p> <img src='stimuli/trees/11.png', style='max-width: 30%;'> </img> <p><strong>你是否选择发射武器？</strong></p>","0",""
"","","","","","html-keyboard-response","28","98886","0.0-4.0-0.12","46","1","2022-10-07 06:12:52","d60b49b5908c80e163b920d72b52d584","36.17.170.78","Xiaomi_M2001G7AC_TD-LTE/V1 Linux/4.19.81 Android/10 Release/30.12.2019 Browser/AppleWebKit537.36 Mobile Safari/537.36 System/Android 10 XiaoMi/MiuiBrowser/11.3.10 swan-mibrowser","Xiaomi","Safari","537.36","AndroidOS","10","null","<div style=""font-size:60px;"">+</div>","null",""
"","","","","","html-button-response","29","100622","0.0-4.0-1.12","46","1","2022-10-07 06:12:52","d60b49b5908c80e163b920d72b52d584","36.17.170.78","Xiaomi_M2001G7AC_TD-LTE/V1 Linux/4.19.81 Android/10 Release/30.12.2019 Browser/AppleWebKit537.36 Mobile Safari/537.36 System/Android 10 XiaoMi/MiuiBrowser/11.3.10 swan-mibrowser","Xiaomi","Safari","537.36","AndroidOS","10","1714","<p>作为军队的指挥官，你可以选择发射导弹杀死 <strong>2名</strong> 敌国士兵，但会误杀附近的 <strong>1名</strong> 敌国平民。</p> <p>平民照片如下图所示。</p> <p></p> <img src='stimuli/faces/NCM2.jpg', style='max-width: 30%;'> </img> <p><strong>你是否选择发射武器？</strong></p>","0",""
"","","","","","html-keyboard-response","30","101637","0.0-4.0-0.13","46","1","2022-10-07 06:12:52","d60b49b5908c80e163b920d72b52d584","36.17.170.78","Xiaomi_M2001G7AC_TD-LTE/V1 Linux/4.19.81 Android/10 Release/30.12.2019 Browser/AppleWebKit537.36 Mobile Safari/537.36 System/Android 10 XiaoMi/MiuiBrowser/11.3.10 swan-mibrowser","Xiaomi","Safari","537.36","AndroidOS","10","null","<div style=""font-size:60px;"">+</div>","null",""
"","","","","","html-button-response","31","103186","0.0-4.0-1.13","46","1","2022-10-07 06:12:52","d60b49b5908c80e163b920d72b52d584","36.17.170.78","Xiaomi_M2001G7AC_TD-LTE/V1 Linux/4.19.81 Android/10 Release/30.12.2019 Browser/AppleWebKit537.36 Mobile Safari/537.36 System/Android 10 XiaoMi/MiuiBrowser/11.3.10 swan-mibrowser","Xiaomi","Safari","537.36","AndroidOS","10","1523","<p>作为军队的指挥官，你可以选择发射导弹杀死 <strong>4名</strong> 敌国士兵，但会误杀附近的 <strong>1名</strong> 敌国平民。</p> <p>平民照片如下图所示。</p> <p></p> <img src='stimuli/faces/NCM6.jpg', style='max-width: 30%;'> </img> <p><strong>你是否选择发射武器？</strong></p>","0",""
"","","","","","html-keyboard-response","32","104198","0.0-4.0-0.14","46","1","2022-10-07 06:12:52","d60b49b5908c80e163b920d72b52d584","36.17.170.78","Xiaomi_M2001G7AC_TD-LTE/V1 Linux/4.19.81 Android/10 Release/30.12.2019 Browser/AppleWebKit537.36 Mobile Safari/537.36 System/Android 10 XiaoMi/MiuiBrowser/11.3.10 swan-mibrowser","Xiaomi","Safari","537.36","AndroidOS","10","null","<div style=""font-size:60px;"">+</div>","null",""
"","","","","","html-button-response","33","108532","0.0-4.0-1.14","46","1","2022-10-07 06:12:52","d60b49b5908c80e163b920d72b52d584","36.17.170.78","Xiaomi_M2001G7AC_TD-LTE/V1 Linux/4.19.81 Android/10 Release/30.12.2019 Browser/AppleWebKit537.36 Mobile Safari/537.36 System/Android 10 XiaoMi/MiuiBrowser/11.3.10 swan-mibrowser","Xiaomi","Safari","537.36","AndroidOS","10","4310","<p>作为军队的指挥官，你可以选择发射导弹杀死 <strong>6名</strong> 敌国士兵，但会误杀附近的 <strong>1名</strong> 敌国平民。</p> <p>平民照片如下图所示。</p> <p></p> <img src='stimuli/faces/NCM7.jpg', style='max-width: 30%;'> </img> <p><strong>你是否选择发射武器？</strong></p>","0",""
"","","","","","html-keyboard-response","34","109547","0.0-4.0-0.15","46","1","2022-10-07 06:12:52","d60b49b5908c80e163b920d72b52d584","36.17.170.78","Xiaomi_M2001G7AC_TD-LTE/V1 Linux/4.19.81 Android/10 Release/30.12.2019 Browser/AppleWebKit537.36 Mobile Safari/537.36 System/Android 10 XiaoMi/MiuiBrowser/11.3.10 swan-mibrowser","Xiaomi","Safari","537.36","AndroidOS","10","null","<div style=""font-size:60px;"">+</div>","null",""
"","","","","","html-button-response","35","111064","0.0-4.0-1.15","46","1","2022-10-07 06:12:52","d60b49b5908c80e163b920d72b52d584","36.17.170.78","Xiaomi_M2001G7AC_TD-LTE/V1 Linux/4.19.81 Android/10 Release/30.12.2019 Browser/AppleWebKit537.36 Mobile Safari/537.36 System/Android 10 XiaoMi/MiuiBrowser/11.3.10 swan-mibrowser","Xiaomi","Safari","537.36","AndroidOS","10","1491","<p>作为军队的指挥官，你可以选择发射导弹杀死 <strong>9名</strong> 敌国士兵，但会误杀附近的 <strong>1名</strong> 敌国平民。</p> <p>平民照片如下图所示。</p> <p></p> <img src='stimuli/faces/NCF3.jpg', style='max-width: 30%;'> </img> <p><strong>你是否选择发射武器？</strong></p>","0",""
"","","","","","html-keyboard-response","36","112081","0.0-4.0-0.16","46","1","2022-10-07 06:12:52","d60b49b5908c80e163b920d72b52d584","36.17.170.78","Xiaomi_M2001G7AC_TD-LTE/V1 Linux/4.19.81 Android/10 Release/30.12.2019 Browser/AppleWebKit537.36 Mobile Safari/537.36 System/Android 10 XiaoMi/MiuiBrowser/11.3.10 swan-mibrowser","Xiaomi","Safari","537.36","AndroidOS","10","null","<div style=""font-size:60px;"">+</div>","null",""
"","","","","","html-button-response","37","113516","0.0-4.0-1.16","46","1","2022-10-07 06:12:52","d60b49b5908c80e163b920d72b52d584","36.17.170.78","Xiaomi_M2001G7AC_TD-LTE/V1 Linux/4.19.81 Android/10 Release/30.12.2019 Browser/AppleWebKit537.36 Mobile Safari/537.36 System/Android 10 XiaoMi/MiuiBrowser/11.3.10 swan-mibrowser","Xiaomi","Safari","537.36","AndroidOS","10","1410","<p>作为军队的指挥官，你可以选择发射导弹杀死 <strong>4名</strong> 敌国士兵，但会炸毁附近的 <strong>1棵</strong> 敌国树木。</p> <p>树木的照片如下图所示。</p> <p></p> <img src='stimuli/trees/16.png', style='max-width: 30%;'> </img> <p><strong>你是否选择发射武器？</strong></p>","0",""
"","","","","","html-keyboard-response","38","114533","0.0-4.0-0.17","46","1","2022-10-07 06:12:52","d60b49b5908c80e163b920d72b52d584","36.17.170.78","Xiaomi_M2001G7AC_TD-LTE/V1 Linux/4.19.81 Android/10 Release/30.12.2019 Browser/AppleWebKit537.36 Mobile Safari/537.36 System/Android 10 XiaoMi/MiuiBrowser/11.3.10 swan-mibrowser","Xiaomi","Safari","537.36","AndroidOS","10","null","<div style=""font-size:60px;"">+</div>","null",""
"","","","","","html-button-response","39","116178","0.0-4.0-1.17","46","1","2022-10-07 06:12:52","d60b49b5908c80e163b920d72b52d584","36.17.170.78","Xiaomi_M2001G7AC_TD-LTE/V1 Linux/4.19.81 Android/10 Release/30.12.2019 Browser/AppleWebKit537.36 Mobile Safari/537.36 System/Android 10 XiaoMi/MiuiBrowser/11.3.10 swan-mibrowser","Xiaomi","Safari","537.36","AndroidOS","10","1618","<p>作为军队的指挥官，你可以选择发射导弹杀死 <strong>10名</strong> 敌国士兵，但会误杀附近的 <strong>1名</strong> 敌国平民。</p> <p>平民照片如下图所示。</p> <p></p> <img src='stimuli/faces/NCF4.jpg', style='max-width: 30%;'> </img> <p><strong>你是否选择发射武器？</strong></p>","0",""
"","","","","","html-keyboard-response","40","117192","0.0-4.0-0.18","46","1","2022-10-07 06:12:52","d60b49b5908c80e163b920d72b52d584","36.17.170.78","Xiaomi_M2001G7AC_TD-LTE/V1 Linux/4.19.81 Android/10 Release/30.12.2019 Browser/AppleWebKit537.36 Mobile Safari/537.36 System/Android 10 XiaoMi/MiuiBrowser/11.3.10 swan-mibrowser","Xiaomi","Safari","537.36","AndroidOS","10","null","<div style=""font-size:60px;"">+</div>","null",""
"","","","","","html-button-response","41","118534","0.0-4.0-1.18","46","1","2022-10-07 06:12:52","d60b49b5908c80e163b920d72b52d584","36.17.170.78","Xiaomi_M2001G7AC_TD-LTE/V1 Linux/4.19.81 Android/10 Release/30.12.2019 Browser/AppleWebKit537.36 Mobile Safari/537.36 System/Android 10 XiaoMi/MiuiBrowser/11.3.10 swan-mibrowser","Xiaomi","Safari","537.36","AndroidOS","10","1316","<p>作为军队的指挥官，你可以选择发射导弹杀死 <strong>8名</strong> 敌国士兵，但会炸毁附近的 <strong>1棵</strong> 敌国树木。</p> <p>树木的照片如下图所示。</p> <p></p> <img src='stimuli/trees/11.png', style='max-width: 30%;'> </img> <p><strong>你是否选择发射武器？</strong></p>","0",""
"","","","","","html-keyboard-response","42","119549","0.0-4.0-0.19","46","1","2022-10-07 06:12:52","d60b49b5908c80e163b920d72b52d584","36.17.170.78","Xiaomi_M2001G7AC_TD-LTE/V1 Linux/4.19.81 Android/10 Release/30.12.2019 Browser/AppleWebKit537.36 Mobile Safari/537.36 System/Android 10 XiaoMi/MiuiBrowser/11.3.10 swan-mibrowser","Xiaomi","Safari","537.36","AndroidOS","10","null","<div style=""font-size:60px;"">+</div>","null",""
"","","","","","html-button-response","43","120926","0.0-4.0-1.19","46","1","2022-10-07 06:12:52","d60b49b5908c80e163b920d72b52d584","36.17.170.78","Xiaomi_M2001G7AC_TD-LTE/V1 Linux/4.19.81 Android/10 Release/30.12.2019 Browser/AppleWebKit537.36 Mobile Safari/537.36 System/Android 10 XiaoMi/MiuiBrowser/11.3.10 swan-mibrowser","Xiaomi","Safari","537.36","AndroidOS","10","1352","<p>作为军队的指挥官，你可以选择发射导弹杀死 <strong>8名</strong> 敌国士兵，但会炸毁附近的 <strong>1棵</strong> 敌国树木。</p> <p>树木的照片如下图所示。</p> <p></p> <img src='stimuli/trees/10.png', style='max-width: 30%;'> </img> <p><strong>你是否选择发射武器？</strong></p>","0",""
"","","","","","html-keyboard-response","44","121945","0.0-4.0-0.20","46","1","2022-10-07 06:12:52","d60b49b5908c80e163b920d72b52d584","36.17.170.78","Xiaomi_M2001G7AC_TD-LTE/V1 Linux/4.19.81 Android/10 Release/30.12.2019 Browser/AppleWebKit537.36 Mobile Safari/537.36 System/Android 10 XiaoMi/MiuiBrowser/11.3.10 swan-mibrowser","Xiaomi","Safari","537.36","AndroidOS","10","null","<div style=""font-size:60px;"">+</div>","null",""
"","","","","","html-button-response","45","124670","0.0-4.0-1.20","46","1","2022-10-07 06:12:52","d60b49b5908c80e163b920d72b52d584","36.17.170.78","Xiaomi_M2001G7AC_TD-LTE/V1 Linux/4.19.81 Android/10 Release/30.12.2019 Browser/AppleWebKit537.36 Mobile Safari/537.36 System/Android 10 XiaoMi/MiuiBrowser/11.3.10 swan-mibrowser","Xiaomi","Safari","537.36","AndroidOS","10","2698","<p>作为军队的指挥官，你可以选择发射导弹杀死 <strong>1名</strong> 敌国士兵，但会炸毁附近的 <strong>1棵</strong> 敌国树木。</p> <p>树木的照片如下图所示。</p> <p></p> <img src='stimuli/trees/10.png', style='max-width: 30%;'> </img> <p><strong>你是否选择发射武器？</strong></p>","0",""
"","","","","","html-keyboard-response","46","125685","0.0-4.0-0.21","46","1","2022-10-07 06:12:52","d60b49b5908c80e163b920d72b52d584","36.17.170.78","Xiaomi_M2001G7AC_TD-LTE/V1 Linux/4.19.81 Android/10 Release/30.12.2019 Browser/AppleWebKit537.36 Mobile Safari/537.36 System/Android 10 XiaoMi/MiuiBrowser/11.3.10 swan-mibrowser","Xiaomi","Safari","537.36","AndroidOS","10","null","<div style=""font-size:60px;"">+</div>","null",""
"","","","","","html-button-response","47","128179","0.0-4.0-1.21","46","1","2022-10-07 06:12:52","d60b49b5908c80e163b920d72b52d584","36.17.170.78","Xiaomi_M2001G7AC_TD-LTE/V1 Linux/4.19.81 Android/10 Release/30.12.2019 Browser/AppleWebKit537.36 Mobile Safari/537.36 System/Android 10 XiaoMi/MiuiBrowser/11.3.10 swan-mibrowser","Xiaomi","Safari","537.36","AndroidOS","10","2462","<p>作为军队的指挥官，你可以选择发射导弹杀死 <strong>1名</strong> 敌国士兵，但会炸毁附近的 <strong>1棵</strong> 敌国树木。</p> <p>树木的照片如下图所示。</p> <p></p> <img src='stimuli/trees/5.png', style='max-width: 30%;'> </img> <p><strong>你是否选择发射武器？</strong></p>","0",""
"","","","","","html-keyboard-response","48","129196","0.0-4.0-0.22","46","1","2022-10-07 06:12:52","d60b49b5908c80e163b920d72b52d584","36.17.170.78","Xiaomi_M2001G7AC_TD-LTE/V1 Linux/4.19.81 Android/10 Release/30.12.2019 Browser/AppleWebKit537.36 Mobile Safari/537.36 System/Android 10 XiaoMi/MiuiBrowser/11.3.10 swan-mibrowser","Xiaomi","Safari","537.36","AndroidOS","10","null","<div style=""font-size:60px;"">+</div>","null",""
"","","","","","html-button-response","49","130568","0.0-4.0-1.22","46","1","2022-10-07 06:12:52","d60b49b5908c80e163b920d72b52d584","36.17.170.78","Xiaomi_M2001G7AC_TD-LTE/V1 Linux/4.19.81 Android/10 Release/30.12.2019 Browser/AppleWebKit537.36 Mobile Safari/537.36 System/Android 10 XiaoMi/MiuiBrowser/11.3.10 swan-mibrowser","Xiaomi","Safari","537.36","AndroidOS","10","1342","<p>作为军队的指挥官，你可以选择发射导弹杀死 <strong>3名</strong> 敌国士兵，但会炸毁附近的 <strong>1棵</strong> 敌国树木。</p> <p>树木的照片如下图所示。</p> <p></p> <img src='stimuli/trees/7.png', style='max-width: 30%;'> </img> <p><strong>你是否选择发射武器？</strong></p>","0",""
"","","","","","html-keyboard-response","50","131586","0.0-4.0-0.23","46","1","2022-10-07 06:12:52","d60b49b5908c80e163b920d72b52d584","36.17.170.78","Xiaomi_M2001G7AC_TD-LTE/V1 Linux/4.19.81 Android/10 Release/30.12.2019 Browser/AppleWebKit537.36 Mobile Safari/537.36 System/Android 10 XiaoMi/MiuiBrowser/11.3.10 swan-mibrowser","Xiaomi","Safari","537.36","AndroidOS","10","null","<div style=""font-size:60px;"">+</div>","null",""
"","","","","","html-button-response","51","132958","0.0-4.0-1.23","46","1","2022-10-07 06:12:52","d60b49b5908c80e163b920d72b52d584","36.17.170.78","Xiaomi_M2001G7AC_TD-LTE/V1 Linux/4.19.81 Android/10 Release/30.12.2019 Browser/AppleWebKit537.36 Mobile Safari/537.36 System/Android 10 XiaoMi/MiuiBrowser/11.3.10 swan-mibrowser","Xiaomi","Safari","537.36","AndroidOS","10","1342","<p>作为军队的指挥官，你可以选择发射导弹杀死 <strong>1名</strong> 敌国士兵，但会炸毁附近的 <strong>1棵</strong> 敌国树木。</p> <p>树木的照片如下图所示。</p> <p></p> <img src='stimuli/trees/4.png', style='max-width: 30%;'> </img> <p><strong>你是否选择发射武器？</strong></p>","0",""
"","","","","","html-keyboard-response","52","133973","0.0-4.0-0.24","46","1","2022-10-07 06:12:52","d60b49b5908c80e163b920d72b52d584","36.17.170.78","Xiaomi_M2001G7AC_TD-LTE/V1 Linux/4.19.81 Android/10 Release/30.12.2019 Browser/AppleWebKit537.36 Mobile Safari/537.36 System/Android 10 XiaoMi/MiuiBrowser/11.3.10 swan-mibrowser","Xiaomi","Safari","537.36","AndroidOS","10","null","<div style=""font-size:60px;"">+</div>","null",""
"","","","","","html-button-response","53","136047","0.0-4.0-1.24","46","1","2022-10-07 06:12:52","d60b49b5908c80e163b920d72b52d584","36.17.170.78","Xiaomi_M2001G7AC_TD-LTE/V1 Linux/4.19.81 Android/10 Release/30.12.2019 Browser/AppleWebKit537.36 Mobile Safari/537.36 System/Android 10 XiaoMi/MiuiBrowser/11.3.10 swan-mibrowser","Xiaomi","Safari","537.36","AndroidOS","10","2044","<p>作为军队的指挥官，你可以选择发射导弹杀死 <strong>4名</strong> 敌国士兵，但会炸毁附近的 <strong>1棵</strong> 敌国树木。</p> <p>树木的照片如下图所示。</p> <p></p> <img src='stimuli/trees/3.png', style='max-width: 30%;'> </img> <p><strong>你是否选择发射武器？</strong></p>","0",""
"","","","","","html-keyboard-response","54","137063","0.0-4.0-0.25","46","1","2022-10-07 06:12:52","d60b49b5908c80e163b920d72b52d584","36.17.170.78","Xiaomi_M2001G7AC_TD-LTE/V1 Linux/4.19.81 Android/10 Release/30.12.2019 Browser/AppleWebKit537.36 Mobile Safari/537.36 System/Android 10 XiaoMi/MiuiBrowser/11.3.10 swan-mibrowser","Xiaomi","Safari","537.36","AndroidOS","10","null","<div style=""font-size:60px;"">+</div>","null",""
"","","","","","html-button-response","55","138422","0.0-4.0-1.25","46","1","2022-10-07 06:12:52","d60b49b5908c80e163b920d72b52d584","36.17.170.78","Xiaomi_M2001G7AC_TD-LTE/V1 Linux/4.19.81 Android/10 Release/30.12.2019 Browser/AppleWebKit537.36 Mobile Safari/537.36 System/Android 10 XiaoMi/MiuiBrowser/11.3.10 swan-mibrowser","Xiaomi","Safari","537.36","AndroidOS","10","1317","<p>作为军队的指挥官，你可以选择发射导弹杀死 <strong>9名</strong> 敌国士兵，但会炸毁附近的 <strong>1棵</strong> 敌国树木。</p> <p>树木的照片如下图所示。</p> <p></p> <img src='stimuli/trees/3.png', style='max-width: 30%;'> </img> <p><strong>你是否选择发射武器？</strong></p>","0",""
"","","","","","html-keyboard-response","56","139438","0.0-4.0-0.26","46","1","2022-10-07 06:12:52","d60b49b5908c80e163b920d72b52d584","36.17.170.78","Xiaomi_M2001G7AC_TD-LTE/V1 Linux/4.19.81 Android/10 Release/30.12.2019 Browser/AppleWebKit537.36 Mobile Safari/537.36 System/Android 10 XiaoMi/MiuiBrowser/11.3.10 swan-mibrowser","Xiaomi","Safari","537.36","AndroidOS","10","null","<div style=""font-size:60px;"">+</div>","null",""
"","","","","","html-button-response","57","140759","0.0-4.0-1.26","46","1","2022-10-07 06:12:52","d60b49b5908c80e163b920d72b52d584","36.17.170.78","Xiaomi_M2001G7AC_TD-LTE/V1 Linux/4.19.81 Android/10 Release/30.12.2019 Browser/AppleWebKit537.36 Mobile Safari/537.36 System/Android 10 XiaoMi/MiuiBrowser/11.3.10 swan-mibrowser","Xiaomi","Safari","537.36","AndroidOS","10","1299","<p>作为军队的指挥官，你可以选择发射导弹杀死 <strong>7名</strong> 敌国士兵，但会炸毁附近的 <strong>1棵</strong> 敌国树木。</p> <p>树木的照片如下图所示。</p> <p></p> <img src='stimuli/trees/7.png', style='max-width: 30%;'> </img> <p><strong>你是否选择发射武器？</strong></p>","0",""
"","","","","","html-keyboard-response","58","141774","0.0-4.0-0.27","46","1","2022-10-07 06:12:52","d60b49b5908c80e163b920d72b52d584","36.17.170.78","Xiaomi_M2001G7AC_TD-LTE/V1 Linux/4.19.81 Android/10 Release/30.12.2019 Browser/AppleWebKit537.36 Mobile Safari/537.36 System/Android 10 XiaoMi/MiuiBrowser/11.3.10 swan-mibrowser","Xiaomi","Safari","537.36","AndroidOS","10","null","<div style=""font-size:60px;"">+</div>","null",""
"","","","","","html-button-response","59","143491","0.0-4.0-1.27","46","1","2022-10-07 06:12:52","d60b49b5908c80e163b920d72b52d584","36.17.170.78","Xiaomi_M2001G7AC_TD-LTE/V1 Linux/4.19.81 Android/10 Release/30.12.2019 Browser/AppleWebKit537.36 Mobile Safari/537.36 System/Android 10 XiaoMi/MiuiBrowser/11.3.10 swan-mibrowser","Xiaomi","Safari","537.36","AndroidOS","10","1681","<p>作为军队的指挥官，你可以选择发射导弹杀死 <strong>1名</strong> 敌国士兵，但会误杀附近的 <strong>1名</strong> 敌国平民。</p> <p>平民照片如下图所示。</p> <p></p> <img src='stimuli/faces/NCM3.jpg', style='max-width: 30%;'> </img> <p><strong>你是否选择发射武器？</strong></p>","0",""
"","","","","","html-keyboard-response","60","144510","0.0-4.0-0.28","46","1","2022-10-07 06:12:52","d60b49b5908c80e163b920d72b52d584","36.17.170.78","Xiaomi_M2001G7AC_TD-LTE/V1 Linux/4.19.81 Android/10 Release/30.12.2019 Browser/AppleWebKit537.36 Mobile Safari/537.36 System/Android 10 XiaoMi/MiuiBrowser/11.3.10 swan-mibrowser","Xiaomi","Safari","537.36","AndroidOS","10","null","<div style=""font-size:60px;"">+</div>","null",""
"","","","","","html-button-response","61","145964","0.0-4.0-1.28","46","1","2022-10-07 06:12:52","d60b49b5908c80e163b920d72b52d584","36.17.170.78","Xiaomi_M2001G7AC_TD-LTE/V1 Linux/4.19.81 Android/10 Release/30.12.2019 Browser/AppleWebKit537.36 Mobile Safari/537.36 System/Android 10 XiaoMi/MiuiBrowser/11.3.10 swan-mibrowser","Xiaomi","Safari","537.36","AndroidOS","10","1422","<p>作为军队的指挥官，你可以选择发射导弹杀死 <strong>9名</strong> 敌国士兵，但会炸毁附近的 <strong>1棵</strong> 敌国树木。</p> <p>树木的照片如下图所示。</p> <p></p> <img src='stimuli/trees/12.png', style='max-width: 30%;'> </img> <p><strong>你是否选择发射武器？</strong></p>","0",""
"","","","","","html-keyboard-response","62","146979","0.0-4.0-0.29","46","1","2022-10-07 06:12:52","d60b49b5908c80e163b920d72b52d584","36.17.170.78","Xiaomi_M2001G7AC_TD-LTE/V1 Linux/4.19.81 Android/10 Release/30.12.2019 Browser/AppleWebKit537.36 Mobile Safari/537.36 System/Android 10 XiaoMi/MiuiBrowser/11.3.10 swan-mibrowser","Xiaomi","Safari","537.36","AndroidOS","10","null","<div style=""font-size:60px;"">+</div>","null",""
"","","","","","html-button-response","63","148398","0.0-4.0-1.29","46","1","2022-10-07 06:12:52","d60b49b5908c80e163b920d72b52d584","36.17.170.78","Xiaomi_M2001G7AC_TD-LTE/V1 Linux/4.19.81 Android/10 Release/30.12.2019 Browser/AppleWebKit537.36 Mobile Safari/537.36 System/Android 10 XiaoMi/MiuiBrowser/11.3.10 swan-mibrowser","Xiaomi","Safari","537.36","AndroidOS","10","1388","<p>作为军队的指挥官，你可以选择发射导弹杀死 <strong>7名</strong> 敌国士兵，但会炸毁附近的 <strong>1棵</strong> 敌国树木。</p> <p>树木的照片如下图所示。</p> <p></p> <img src='stimuli/trees/9.png', style='max-width: 30%;'> </img> <p><strong>你是否选择发射武器？</strong></p>","0",""
"","","","","","html-keyboard-response","64","149417","0.0-4.0-0.30","46","1","2022-10-07 06:12:52","d60b49b5908c80e163b920d72b52d584","36.17.170.78","Xiaomi_M2001G7AC_TD-LTE/V1 Linux/4.19.81 Android/10 Release/30.12.2019 Browser/AppleWebKit537.36 Mobile Safari/537.36 System/Android 10 XiaoMi/MiuiBrowser/11.3.10 swan-mibrowser","Xiaomi","Safari","537.36","AndroidOS","10","null","<div style=""font-size:60px;"">+</div>","null",""
"","","","","","html-button-response","65","150824","0.0-4.0-1.30","46","1","2022-10-07 06:12:52","d60b49b5908c80e163b920d72b52d584","36.17.170.78","Xiaomi_M2001G7AC_TD-LTE/V1 Linux/4.19.81 Android/10 Release/30.12.2019 Browser/AppleWebKit537.36 Mobile Safari/537.36 System/Android 10 XiaoMi/MiuiBrowser/11.3.10 swan-mibrowser","Xiaomi","Safari","537.36","AndroidOS","10","1378","<p>作为军队的指挥官，你可以选择发射导弹杀死 <strong>1名</strong> 敌国士兵，但会误杀附近的 <strong>1名</strong> 敌国平民。</p> <p>平民照片如下图所示。</p> <p></p> <img src='stimuli/faces/NCM5.jpg', style='max-width: 30%;'> </img> <p><strong>你是否选择发射武器？</strong></p>","0",""
"","","","","","html-keyboard-response","66","151840","0.0-4.0-0.31","46","1","2022-10-07 06:12:52","d60b49b5908c80e163b920d72b52d584","36.17.170.78","Xiaomi_M2001G7AC_TD-LTE/V1 Linux/4.19.81 Android/10 Release/30.12.2019 Browser/AppleWebKit537.36 Mobile Safari/537.36 System/Android 10 XiaoMi/MiuiBrowser/11.3.10 swan-mibrowser","Xiaomi","Safari","537.36","AndroidOS","10","null","<div style=""font-size:60px;"">+</div>","null",""
"","","","","","html-button-response","67","153084","0.0-4.0-1.31","46","1","2022-10-07 06:12:52","d60b49b5908c80e163b920d72b52d584","36.17.170.78","Xiaomi_M2001G7AC_TD-LTE/V1 Linux/4.19.81 Android/10 Release/30.12.2019 Browser/AppleWebKit537.36 Mobile Safari/537.36 System/Android 10 XiaoMi/MiuiBrowser/11.3.10 swan-mibrowser","Xiaomi","Safari","537.36","AndroidOS","10","1207","<p>作为军队的指挥官，你可以选择发射导弹杀死 <strong>10名</strong> 敌国士兵，但会误杀附近的 <strong>1名</strong> 敌国平民。</p> <p>平民照片如下图所示。</p> <p></p> <img src='stimuli/faces/NCM5.jpg', style='max-width: 30%;'> </img> <p><strong>你是否选择发射武器？</strong></p>","0",""
"","","","","","html-keyboard-response","68","154099","0.0-4.0-0.32","46","1","2022-10-07 06:12:52","d60b49b5908c80e163b920d72b52d584","36.17.170.78","Xiaomi_M2001G7AC_TD-LTE/V1 Linux/4.19.81 Android/10 Release/30.12.2019 Browser/AppleWebKit537.36 Mobile Safari/537.36 System/Android 10 XiaoMi/MiuiBrowser/11.3.10 swan-mibrowser","Xiaomi","Safari","537.36","AndroidOS","10","null","<div style=""font-size:60px;"">+</div>","null",""
"","","","","","html-button-response","69","155618","0.0-4.0-1.32","46","1","2022-10-07 06:12:52","d60b49b5908c80e163b920d72b52d584","36.17.170.78","Xiaomi_M2001G7AC_TD-LTE/V1 Linux/4.19.81 Android/10 Release/30.12.2019 Browser/AppleWebKit537.36 Mobile Safari/537.36 System/Android 10 XiaoMi/MiuiBrowser/11.3.10 swan-mibrowser","Xiaomi","Safari","537.36","AndroidOS","10","1488","<p>作为军队的指挥官，你可以选择发射导弹杀死 <strong>2名</strong> 敌国士兵，但会炸毁附近的 <strong>1棵</strong> 敌国树木。</p> <p>树木的照片如下图所示。</p> <p></p> <img src='stimuli/trees/8.png', style='max-width: 30%;'> </img> <p><strong>你是否选择发射武器？</strong></p>","0",""
"","","","","","html-keyboard-response","70","156638","0.0-4.0-0.33","46","1","2022-10-07 06:12:52","d60b49b5908c80e163b920d72b52d584","36.17.170.78","Xiaomi_M2001G7AC_TD-LTE/V1 Linux/4.19.81 Android/10 Release/30.12.2019 Browser/AppleWebKit537.36 Mobile Safari/537.36 System/Android 10 XiaoMi/MiuiBrowser/11.3.10 swan-mibrowser","Xiaomi","Safari","537.36","AndroidOS","10","null","<div style=""font-size:60px;"">+</div>","null",""
"","","","","","html-button-response","71","157882","0.0-4.0-1.33","46","1","2022-10-07 06:12:52","d60b49b5908c80e163b920d72b52d584","36.17.170.78","Xiaomi_M2001G7AC_TD-LTE/V1 Linux/4.19.81 Android/10 Release/30.12.2019 Browser/AppleWebKit537.36 Mobile Safari/537.36 System/Android 10 XiaoMi/MiuiBrowser/11.3.10 swan-mibrowser","Xiaomi","Safari","537.36","AndroidOS","10","1209","<p>作为军队的指挥官，你可以选择发射导弹杀死 <strong>9名</strong> 敌国士兵，但会误杀附近的 <strong>1名</strong> 敌国平民。</p> <p>平民照片如下图所示。</p> <p></p> <img src='stimuli/faces/NCF8.jpg', style='max-width: 30%;'> </img> <p><strong>你是否选择发射武器？</strong></p>","0",""
"","","","","","html-keyboard-response","72","158892","0.0-4.0-0.34","46","1","2022-10-07 06:12:52","d60b49b5908c80e163b920d72b52d584","36.17.170.78","Xiaomi_M2001G7AC_TD-LTE/V1 Linux/4.19.81 Android/10 Release/30.12.2019 Browser/AppleWebKit537.36 Mobile Safari/537.36 System/Android 10 XiaoMi/MiuiBrowser/11.3.10 swan-mibrowser","Xiaomi","Safari","537.36","AndroidOS","10","null","<div style=""font-size:60px;"">+</div>","null",""
"","","","","","html-button-response","73","160270","0.0-4.0-1.34","46","1","2022-10-07 06:12:52","d60b49b5908c80e163b920d72b52d584","36.17.170.78","Xiaomi_M2001G7AC_TD-LTE/V1 Linux/4.19.81 Android/10 Release/30.12.2019 Browser/AppleWebKit537.36 Mobile Safari/537.36 System/Android 10 XiaoMi/MiuiBrowser/11.3.10 swan-mibrowser","Xiaomi","Safari","537.36","AndroidOS","10","1347","<p>作为军队的指挥官，你可以选择发射导弹杀死 <strong>4名</strong> 敌国士兵，但会炸毁附近的 <strong>1棵</strong> 敌国树木。</p> <p>树木的照片如下图所示。</p> <p></p> <img src='stimuli/trees/13.png', style='max-width: 30%;'> </img> <p><strong>你是否选择发射武器？</strong></p>","0",""
"","","","","","html-keyboard-response","74","161281","0.0-4.0-0.35","46","1","2022-10-07 06:12:52","d60b49b5908c80e163b920d72b52d584","36.17.170.78","Xiaomi_M2001G7AC_TD-LTE/V1 Linux/4.19.81 Android/10 Release/30.12.2019 Browser/AppleWebKit537.36 Mobile Safari/537.36 System/Android 10 XiaoMi/MiuiBrowser/11.3.10 swan-mibrowser","Xiaomi","Safari","537.36","AndroidOS","10","null","<div style=""font-size:60px;"">+</div>","null",""
"","","","","","html-button-response","75","162616","0.0-4.0-1.35","46","1","2022-10-07 06:12:52","d60b49b5908c80e163b920d72b52d584","36.17.170.78","Xiaomi_M2001G7AC_TD-LTE/V1 Linux/4.19.81 Android/10 Release/30.12.2019 Browser/AppleWebKit537.36 Mobile Safari/537.36 System/Android 10 XiaoMi/MiuiBrowser/11.3.10 swan-mibrowser","Xiaomi","Safari","537.36","AndroidOS","10","1301","<p>作为军队的指挥官，你可以选择发射导弹杀死 <strong>7名</strong> 敌国士兵，但会误杀附近的 <strong>1名</strong> 敌国平民。</p> <p>平民照片如下图所示。</p> <p></p> <img src='stimuli/faces/NCF5.jpg', style='max-width: 30%;'> </img> <p><strong>你是否选择发射武器？</strong></p>","0",""
"","","","","","html-keyboard-response","76","163631","0.0-4.0-0.36","46","1","2022-10-07 06:12:52","d60b49b5908c80e163b920d72b52d584","36.17.170.78","Xiaomi_M2001G7AC_TD-LTE/V1 Linux/4.19.81 Android/10 Release/30.12.2019 Browser/AppleWebKit537.36 Mobile Safari/537.36 System/Android 10 XiaoMi/MiuiBrowser/11.3.10 swan-mibrowser","Xiaomi","Safari","537.36","AndroidOS","10","null","<div style=""font-size:60px;"">+</div>","null",""
"","","","","","html-button-response","77","164852","0.0-4.0-1.36","46","1","2022-10-07 06:12:52","d60b49b5908c80e163b920d72b52d584","36.17.170.78","Xiaomi_M2001G7AC_TD-LTE/V1 Linux/4.19.81 Android/10 Release/30.12.2019 Browser/AppleWebKit537.36 Mobile Safari/537.36 System/Android 10 XiaoMi/MiuiBrowser/11.3.10 swan-mibrowser","Xiaomi","Safari","537.36","AndroidOS","10","1191","<p>作为军队的指挥官，你可以选择发射导弹杀死 <strong>5名</strong> 敌国士兵，但会炸毁附近的 <strong>1棵</strong> 敌国树木。</p> <p>树木的照片如下图所示。</p> <p></p> <img src='stimuli/trees/9.png', style='max-width: 30%;'> </img> <p><strong>你是否选择发射武器？</strong></p>","0",""
"","","","","","html-keyboard-response","78","165874","0.0-4.0-0.37","46","1","2022-10-07 06:12:52","d60b49b5908c80e163b920d72b52d584","36.17.170.78","Xiaomi_M2001G7AC_TD-LTE/V1 Linux/4.19.81 Android/10 Release/30.12.2019 Browser/AppleWebKit537.36 Mobile Safari/537.36 System/Android 10 XiaoMi/MiuiBrowser/11.3.10 swan-mibrowser","Xiaomi","Safari","537.36","AndroidOS","10","null","<div style=""font-size:60px;"">+</div>","null",""
"","","","","","html-button-response","79","167340","0.0-4.0-1.37","46","1","2022-10-07 06:12:52","d60b49b5908c80e163b920d72b52d584","36.17.170.78","Xiaomi_M2001G7AC_TD-LTE/V1 Linux/4.19.81 Android/10 Release/30.12.2019 Browser/AppleWebKit537.36 Mobile Safari/537.36 System/Android 10 XiaoMi/MiuiBrowser/11.3.10 swan-mibrowser","Xiaomi","Safari","537.36","AndroidOS","10","1427","<p>作为军队的指挥官，你可以选择发射导弹杀死 <strong>9名</strong> 敌国士兵，但会炸毁附近的 <strong>1棵</strong> 敌国树木。</p> <p>树木的照片如下图所示。</p> <p></p> <img src='stimuli/trees/2.png', style='max-width: 30%;'> </img> <p><strong>你是否选择发射武器？</strong></p>","0",""
"","","","","","html-keyboard-response","80","168361","0.0-4.0-0.38","46","1","2022-10-07 06:12:52","d60b49b5908c80e163b920d72b52d584","36.17.170.78","Xiaomi_M2001G7AC_TD-LTE/V1 Linux/4.19.81 Android/10 Release/30.12.2019 Browser/AppleWebKit537.36 Mobile Safari/537.36 System/Android 10 XiaoMi/MiuiBrowser/11.3.10 swan-mibrowser","Xiaomi","Safari","537.36","AndroidOS","10","null","<div style=""font-size:60px;"">+</div>","null",""
"","","","","","html-button-response","81","181933","0.0-4.0-1.38","46","1","2022-10-07 06:12:52","d60b49b5908c80e163b920d72b52d584","36.17.170.78","Xiaomi_M2001G7AC_TD-LTE/V1 Linux/4.19.81 Android/10 Release/30.12.2019 Browser/AppleWebKit537.36 Mobile Safari/537.36 System/Android 10 XiaoMi/MiuiBrowser/11.3.10 swan-mibrowser","Xiaomi","Safari","537.36","AndroidOS","10","13535","<p>作为军队的指挥官，你可以选择发射导弹杀死 <strong>6名</strong> 敌国士兵，但会误杀附近的 <strong>1名</strong> 敌国平民。</p> <p>平民照片如下图所示。</p> <p></p> <img src='stimuli/faces/NCM6.jpg', style='max-width: 30%;'> </img> <p><strong>你是否选择发射武器？</strong></p>","0",""
"","","","","","html-keyboard-response","82","182951","0.0-4.0-0.39","46","1","2022-10-07 06:12:52","d60b49b5908c80e163b920d72b52d584","36.17.170.78","Xiaomi_M2001G7AC_TD-LTE/V1 Linux/4.19.81 Android/10 Release/30.12.2019 Browser/AppleWebKit537.36 Mobile Safari/537.36 System/Android 10 XiaoMi/MiuiBrowser/11.3.10 swan-mibrowser","Xiaomi","Safari","537.36","AndroidOS","10","null","<div style=""font-size:60px;"">+</div>","null",""
"","","","","","html-button-response","83","184186","0.0-4.0-1.39","46","1","2022-10-07 06:12:52","d60b49b5908c80e163b920d72b52d584","36.17.170.78","Xiaomi_M2001G7AC_TD-LTE/V1 Linux/4.19.81 Android/10 Release/30.12.2019 Browser/AppleWebKit537.36 Mobile Safari/537.36 System/Android 10 XiaoMi/MiuiBrowser/11.3.10 swan-mibrowser","Xiaomi","Safari","537.36","AndroidOS","10","1196","<p>作为军队的指挥官，你可以选择发射导弹杀死 <strong>7名</strong> 敌国士兵，但会误杀附近的 <strong>1名</strong> 敌国平民。</p> <p>平民照片如下图所示。</p> <p></p> <img src='stimuli/faces/NCF7.jpg', style='max-width: 30%;'> </img> <p><strong>你是否选择发射武器？</strong></p>","0",""
"","","","","","html-keyboard-response","84","185204","0.0-4.0-0.40","46","1","2022-10-07 06:12:52","d60b49b5908c80e163b920d72b52d584","36.17.170.78","Xiaomi_M2001G7AC_TD-LTE/V1 Linux/4.19.81 Android/10 Release/30.12.2019 Browser/AppleWebKit537.36 Mobile Safari/537.36 System/Android 10 XiaoMi/MiuiBrowser/11.3.10 swan-mibrowser","Xiaomi","Safari","537.36","AndroidOS","10","null","<div style=""font-size:60px;"">+</div>","null",""
"","","","","","html-button-response","85","186671","0.0-4.0-1.40","46","1","2022-10-07 06:12:52","d60b49b5908c80e163b920d72b52d584","36.17.170.78","Xiaomi_M2001G7AC_TD-LTE/V1 Linux/4.19.81 Android/10 Release/30.12.2019 Browser/AppleWebKit537.36 Mobile Safari/537.36 System/Android 10 XiaoMi/MiuiBrowser/11.3.10 swan-mibrowser","Xiaomi","Safari","537.36","AndroidOS","10","1432","<p>作为军队的指挥官，你可以选择发射导弹杀死 <strong>1名</strong> 敌国士兵，但会误杀附近的 <strong>1名</strong> 敌国平民。</p> <p>平民照片如下图所示。</p> <p></p> <img src='stimuli/faces/NCF8.jpg', style='max-width: 30%;'> </img> <p><strong>你是否选择发射武器？</strong></p>","0",""
"","","","","","html-keyboard-response","86","187690","0.0-4.0-0.41","46","1","2022-10-07 06:12:52","d60b49b5908c80e163b920d72b52d584","36.17.170.78","Xiaomi_M2001G7AC_TD-LTE/V1 Linux/4.19.81 Android/10 Release/30.12.2019 Browser/AppleWebKit537.36 Mobile Safari/537.36 System/Android 10 XiaoMi/MiuiBrowser/11.3.10 swan-mibrowser","Xiaomi","Safari","537.36","AndroidOS","10","null","<div style=""font-size:60px;"">+</div>","null",""
"","","","","","html-button-response","87","189061","0.0-4.0-1.41","46","1","2022-10-07 06:12:52","d60b49b5908c80e163b920d72b52d584","36.17.170.78","Xiaomi_M2001G7AC_TD-LTE/V1 Linux/4.19.81 Android/10 Release/30.12.2019 Browser/AppleWebKit537.36 Mobile Safari/537.36 System/Android 10 XiaoMi/MiuiBrowser/11.3.10 swan-mibrowser","Xiaomi","Safari","537.36","AndroidOS","10","1341","<p>作为军队的指挥官，你可以选择发射导弹杀死 <strong>4名</strong> 敌国士兵，但会误杀附近的 <strong>1名</strong> 敌国平民。</p> <p>平民照片如下图所示。</p> <p></p> <img src='stimuli/faces/NCF6.jpg', style='max-width: 30%;'> </img> <p><strong>你是否选择发射武器？</strong></p>","0",""
"","","","","","html-keyboard-response","88","190080","0.0-4.0-0.42","46","1","2022-10-07 06:12:52","d60b49b5908c80e163b920d72b52d584","36.17.170.78","Xiaomi_M2001G7AC_TD-LTE/V1 Linux/4.19.81 Android/10 Release/30.12.2019 Browser/AppleWebKit537.36 Mobile Safari/537.36 System/Android 10 XiaoMi/MiuiBrowser/11.3.10 swan-mibrowser","Xiaomi","Safari","537.36","AndroidOS","10","null","<div style=""font-size:60px;"">+</div>","null",""
"","","","","","html-button-response","89","191339","0.0-4.0-1.42","46","1","2022-10-07 06:12:52","d60b49b5908c80e163b920d72b52d584","36.17.170.78","Xiaomi_M2001G7AC_TD-LTE/V1 Linux/4.19.81 Android/10 Release/30.12.2019 Browser/AppleWebKit537.36 Mobile Safari/537.36 System/Android 10 XiaoMi/MiuiBrowser/11.3.10 swan-mibrowser","Xiaomi","Safari","537.36","AndroidOS","10","1220","<p>作为军队的指挥官，你可以选择发射导弹杀死 <strong>9名</strong> 敌国士兵，但会误杀附近的 <strong>1名</strong> 敌国平民。</p> <p>平民照片如下图所示。</p> <p></p> <img src='stimuli/faces/NCF2.jpg', style='max-width: 30%;'> </img> <p><strong>你是否选择发射武器？</strong></p>","0",""
"","","","","","html-keyboard-response","90","192358","0.0-4.0-0.43","46","1","2022-10-07 06:12:52","d60b49b5908c80e163b920d72b52d584","36.17.170.78","Xiaomi_M2001G7AC_TD-LTE/V1 Linux/4.19.81 Android/10 Release/30.12.2019 Browser/AppleWebKit537.36 Mobile Safari/537.36 System/Android 10 XiaoMi/MiuiBrowser/11.3.10 swan-mibrowser","Xiaomi","Safari","537.36","AndroidOS","10","null","<div style=""font-size:60px;"">+</div>","null",""
"","","","","","html-button-response","91","193537","0.0-4.0-1.43","46","1","2022-10-07 06:12:52","d60b49b5908c80e163b920d72b52d584","36.17.170.78","Xiaomi_M2001G7AC_TD-LTE/V1 Linux/4.19.81 Android/10 Release/30.12.2019 Browser/AppleWebKit537.36 Mobile Safari/537.36 System/Android 10 XiaoMi/MiuiBrowser/11.3.10 swan-mibrowser","Xiaomi","Safari","537.36","AndroidOS","10","1144","<p>作为军队的指挥官，你可以选择发射导弹杀死 <strong>2名</strong> 敌国士兵，但会误杀附近的 <strong>1名</strong> 敌国平民。</p> <p>平民照片如下图所示。</p> <p></p> <img src='stimuli/faces/NCF2.jpg', style='max-width: 30%;'> </img> <p><strong>你是否选择发射武器？</strong></p>","0",""
"","","","","","html-keyboard-response","92","194554","0.0-4.0-0.44","46","1","2022-10-07 06:12:52","d60b49b5908c80e163b920d72b52d584","36.17.170.78","Xiaomi_M2001G7AC_TD-LTE/V1 Linux/4.19.81 Android/10 Release/30.12.2019 Browser/AppleWebKit537.36 Mobile Safari/537.36 System/Android 10 XiaoMi/MiuiBrowser/11.3.10 swan-mibrowser","Xiaomi","Safari","537.36","AndroidOS","10","null","<div style=""font-size:60px;"">+</div>","null",""
"","","","","","html-button-response","93","195698","0.0-4.0-1.44","46","1","2022-10-07 06:12:52","d60b49b5908c80e163b920d72b52d584","36.17.170.78","Xiaomi_M2001G7AC_TD-LTE/V1 Linux/4.19.81 Android/10 Release/30.12.2019 Browser/AppleWebKit537.36 Mobile Safari/537.36 System/Android 10 XiaoMi/MiuiBrowser/11.3.10 swan-mibrowser","Xiaomi","Safari","537.36","AndroidOS","10","1107","<p>作为军队的指挥官，你可以选择发射导弹杀死 <strong>7名</strong> 敌国士兵，但会误杀附近的 <strong>1名</strong> 敌国平民。</p> <p>平民照片如下图所示。</p> <p></p> <img src='stimuli/faces/NCM3.jpg', style='max-width: 30%;'> </img> <p><strong>你是否选择发射武器？</strong></p>","0",""
"","","","","","html-keyboard-response","94","196721","0.0-4.0-0.45","46","1","2022-10-07 06:12:52","d60b49b5908c80e163b920d72b52d584","36.17.170.78","Xiaomi_M2001G7AC_TD-LTE/V1 Linux/4.19.81 Android/10 Release/30.12.2019 Browser/AppleWebKit537.36 Mobile Safari/537.36 System/Android 10 XiaoMi/MiuiBrowser/11.3.10 swan-mibrowser","Xiaomi","Safari","537.36","AndroidOS","10","null","<div style=""font-size:60px;"">+</div>","null",""
"","","","","","html-button-response","95","197828","0.0-4.0-1.45","46","1","2022-10-07 06:12:52","d60b49b5908c80e163b920d72b52d584","36.17.170.78","Xiaomi_M2001G7AC_TD-LTE/V1 Linux/4.19.81 Android/10 Release/30.12.2019 Browser/AppleWebKit537.36 Mobile Safari/537.36 System/Android 10 XiaoMi/MiuiBrowser/11.3.10 swan-mibrowser","Xiaomi","Safari","537.36","AndroidOS","10","1070","<p>作为军队的指挥官，你可以选择发射导弹杀死 <strong>1名</strong> 敌国士兵，但会误杀附近的 <strong>1名</strong> 敌国平民。</p> <p>平民照片如下图所示。</p> <p></p> <img src='stimuli/faces/NCM1.jpg', style='max-width: 30%;'> </img> <p><strong>你是否选择发射武器？</strong></p>","0",""
"","","","","","html-keyboard-response","96","198839","0.0-4.0-0.46","46","1","2022-10-07 06:12:52","d60b49b5908c80e163b920d72b52d584","36.17.170.78","Xiaomi_M2001G7AC_TD-LTE/V1 Linux/4.19.81 Android/10 Release/30.12.2019 Browser/AppleWebKit537.36 Mobile Safari/537.36 System/Android 10 XiaoMi/MiuiBrowser/11.3.10 swan-mibrowser","Xiaomi","Safari","537.36","AndroidOS","10","null","<div style=""font-size:60px;"">+</div>","null",""
"","","","","","html-button-response","97","199994","0.0-4.0-1.46","46","1","2022-10-07 06:12:52","d60b49b5908c80e163b920d72b52d584","36.17.170.78","Xiaomi_M2001G7AC_TD-LTE/V1 Linux/4.19.81 Android/10 Release/30.12.2019 Browser/AppleWebKit537.36 Mobile Safari/537.36 System/Android 10 XiaoMi/MiuiBrowser/11.3.10 swan-mibrowser","Xiaomi","Safari","537.36","AndroidOS","10","1116","<p>作为军队的指挥官，你可以选择发射导弹杀死 <strong>3名</strong> 敌国士兵，但会误杀附近的 <strong>1名</strong> 敌国平民。</p> <p>平民照片如下图所示。</p> <p></p> <img src='stimuli/faces/NCM7.jpg', style='max-width: 30%;'> </img> <p><strong>你是否选择发射武器？</strong></p>","0",""
"","","","","","html-keyboard-response","98","201014","0.0-4.0-0.47","46","1","2022-10-07 06:12:52","d60b49b5908c80e163b920d72b52d584","36.17.170.78","Xiaomi_M2001G7AC_TD-LTE/V1 Linux/4.19.81 Android/10 Release/30.12.2019 Browser/AppleWebKit537.36 Mobile Safari/537.36 System/Android 10 XiaoMi/MiuiBrowser/11.3.10 swan-mibrowser","Xiaomi","Safari","537.36","AndroidOS","10","null","<div style=""font-size:60px;"">+</div>","null",""
"","","","","","html-button-response","99","202304","0.0-4.0-1.47","46","1","2022-10-07 06:12:52","d60b49b5908c80e163b920d72b52d584","36.17.170.78","Xiaomi_M2001G7AC_TD-LTE/V1 Linux/4.19.81 Android/10 Release/30.12.2019 Browser/AppleWebKit537.36 Mobile Safari/537.36 System/Android 10 XiaoMi/MiuiBrowser/11.3.10 swan-mibrowser","Xiaomi","Safari","537.36","AndroidOS","10","1249","<p>作为军队的指挥官，你可以选择发射导弹杀死 <strong>3名</strong> 敌国士兵，但会炸毁附近的 <strong>1棵</strong> 敌国树木。</p> <p>树木的照片如下图所示。</p> <p></p> <img src='stimuli/trees/1.png', style='max-width: 30%;'> </img> <p><strong>你是否选择发射武器？</strong></p>","0",""
"","","","","","html-keyboard-response","100","203327","0.0-4.0-0.48","46","1","2022-10-07 06:12:52","d60b49b5908c80e163b920d72b52d584","36.17.170.78","Xiaomi_M2001G7AC_TD-LTE/V1 Linux/4.19.81 Android/10 Release/30.12.2019 Browser/AppleWebKit537.36 Mobile Safari/537.36 System/Android 10 XiaoMi/MiuiBrowser/11.3.10 swan-mibrowser","Xiaomi","Safari","537.36","AndroidOS","10","null","<div style=""font-size:60px;"">+</div>","null",""
"","","","","","html-button-response","101","204463","0.0-4.0-1.48","46","1","2022-10-07 06:12:52","d60b49b5908c80e163b920d72b52d584","36.17.170.78","Xiaomi_M2001G7AC_TD-LTE/V1 Linux/4.19.81 Android/10 Release/30.12.2019 Browser/AppleWebKit537.36 Mobile Safari/537.36 System/Android 10 XiaoMi/MiuiBrowser/11.3.10 swan-mibrowser","Xiaomi","Safari","537.36","AndroidOS","10","1099","<p>作为军队的指挥官，你可以选择发射导弹杀死 <strong>6名</strong> 敌国士兵，但会炸毁附近的 <strong>1棵</strong> 敌国树木。</p> <p>树木的照片如下图所示。</p> <p></p> <img src='stimuli/trees/13.png', style='max-width: 30%;'> </img> <p><strong>你是否选择发射武器？</strong></p>","0",""
"","","","","","html-keyboard-response","102","205483","0.0-4.0-0.49","46","1","2022-10-07 06:12:52","d60b49b5908c80e163b920d72b52d584","36.17.170.78","Xiaomi_M2001G7AC_TD-LTE/V1 Linux/4.19.81 Android/10 Release/30.12.2019 Browser/AppleWebKit537.36 Mobile Safari/537.36 System/Android 10 XiaoMi/MiuiBrowser/11.3.10 swan-mibrowser","Xiaomi","Safari","537.36","AndroidOS","10","null","<div style=""font-size:60px;"">+</div>","null",""
"","","","","","html-button-response","103","206668","0.0-4.0-1.49","46","1","2022-10-07 06:12:52","d60b49b5908c80e163b920d72b52d584","36.17.170.78","Xiaomi_M2001G7AC_TD-LTE/V1 Linux/4.19.81 Android/10 Release/30.12.2019 Browser/AppleWebKit537.36 Mobile Safari/537.36 System/Android 10 XiaoMi/MiuiBrowser/11.3.10 swan-mibrowser","Xiaomi","Safari","537.36","AndroidOS","10","1146","<p>作为军队的指挥官，你可以选择发射导弹杀死 <strong>6名</strong> 敌国士兵，但会炸毁附近的 <strong>1棵</strong> 敌国树木。</p> <p>树木的照片如下图所示。</p> <p></p> <img src='stimuli/trees/6.png', style='max-width: 30%;'> </img> <p><strong>你是否选择发射武器？</strong></p>","0",""
"","","","","","html-keyboard-response","104","207687","0.0-4.0-0.50","46","1","2022-10-07 06:12:52","d60b49b5908c80e163b920d72b52d584","36.17.170.78","Xiaomi_M2001G7AC_TD-LTE/V1 Linux/4.19.81 Android/10 Release/30.12.2019 Browser/AppleWebKit537.36 Mobile Safari/537.36 System/Android 10 XiaoMi/MiuiBrowser/11.3.10 swan-mibrowser","Xiaomi","Safari","537.36","AndroidOS","10","null","<div style=""font-size:60px;"">+</div>","null",""
"","","","","","html-button-response","105","208873","0.0-4.0-1.50","46","1","2022-10-07 06:12:52","d60b49b5908c80e163b920d72b52d584","36.17.170.78","Xiaomi_M2001G7AC_TD-LTE/V1 Linux/4.19.81 Android/10 Release/30.12.2019 Browser/AppleWebKit537.36 Mobile Safari/537.36 System/Android 10 XiaoMi/MiuiBrowser/11.3.10 swan-mibrowser","Xiaomi","Safari","537.36","AndroidOS","10","1146","<p>作为军队的指挥官，你可以选择发射导弹杀死 <strong>3名</strong> 敌国士兵，但会炸毁附近的 <strong>1棵</strong> 敌国树木。</p> <p>树木的照片如下图所示。</p> <p></p> <img src='stimuli/trees/15.png', style='max-width: 30%;'> </img> <p><strong>你是否选择发射武器？</strong></p>","0",""
"","","","","","html-keyboard-response","106","209889","0.0-4.0-0.51","46","1","2022-10-07 06:12:52","d60b49b5908c80e163b920d72b52d584","36.17.170.78","Xiaomi_M2001G7AC_TD-LTE/V1 Linux/4.19.81 Android/10 Release/30.12.2019 Browser/AppleWebKit537.36 Mobile Safari/537.36 System/Android 10 XiaoMi/MiuiBrowser/11.3.10 swan-mibrowser","Xiaomi","Safari","537.36","AndroidOS","10","null","<div style=""font-size:60px;"">+</div>","null",""
"","","","","","html-button-response","107","211035","0.0-4.0-1.51","46","1","2022-10-07 06:12:52","d60b49b5908c80e163b920d72b52d584","36.17.170.78","Xiaomi_M2001G7AC_TD-LTE/V1 Linux/4.19.81 Android/10 Release/30.12.2019 Browser/AppleWebKit537.36 Mobile Safari/537.36 System/Android 10 XiaoMi/MiuiBrowser/11.3.10 swan-mibrowser","Xiaomi","Safari","537.36","AndroidOS","10","1110","<p>作为军队的指挥官，你可以选择发射导弹杀死 <strong>7名</strong> 敌国士兵，但会炸毁附近的 <strong>1棵</strong> 敌国树木。</p> <p>树木的照片如下图所示。</p> <p></p> <img src='stimuli/trees/5.png', style='max-width: 30%;'> </img> <p><strong>你是否选择发射武器？</strong></p>","0",""
"","","","","","html-keyboard-response","108","212048","0.0-4.0-0.52","46","1","2022-10-07 06:12:52","d60b49b5908c80e163b920d72b52d584","36.17.170.78","Xiaomi_M2001G7AC_TD-LTE/V1 Linux/4.19.81 Android/10 Release/30.12.2019 Browser/AppleWebKit537.36 Mobile Safari/537.36 System/Android 10 XiaoMi/MiuiBrowser/11.3.10 swan-mibrowser","Xiaomi","Safari","537.36","AndroidOS","10","null","<div style=""font-size:60px;"">+</div>","null",""
"","","","","","html-button-response","109","215112","0.0-4.0-1.52","46","1","2022-10-07 06:12:52","d60b49b5908c80e163b920d72b52d584","36.17.170.78","Xiaomi_M2001G7AC_TD-LTE/V1 Linux/4.19.81 Android/10 Release/30.12.2019 Browser/AppleWebKit537.36 Mobile Safari/537.36 System/Android 10 XiaoMi/MiuiBrowser/11.3.10 swan-mibrowser","Xiaomi","Safari","537.36","AndroidOS","10","3023","<p>作为军队的指挥官，你可以选择发射导弹杀死 <strong>3名</strong> 敌国士兵，但会误杀附近的 <strong>1名</strong> 敌国平民。</p> <p>平民照片如下图所示。</p> <p></p> <img src='stimuli/faces/NCM8.jpg', style='max-width: 30%;'> </img> <p><strong>你是否选择发射武器？</strong></p>","0",""
"","","","","","html-keyboard-response","110","216136","0.0-4.0-0.53","46","1","2022-10-07 06:12:52","d60b49b5908c80e163b920d72b52d584","36.17.170.78","Xiaomi_M2001G7AC_TD-LTE/V1 Linux/4.19.81 Android/10 Release/30.12.2019 Browser/AppleWebKit537.36 Mobile Safari/537.36 System/Android 10 XiaoMi/MiuiBrowser/11.3.10 swan-mibrowser","Xiaomi","Safari","537.36","AndroidOS","10","null","<div style=""font-size:60px;"">+</div>","null",""
"","","","","","html-button-response","111","217287","0.0-4.0-1.53","46","1","2022-10-07 06:12:52","d60b49b5908c80e163b920d72b52d584","36.17.170.78","Xiaomi_M2001G7AC_TD-LTE/V1 Linux/4.19.81 Android/10 Release/30.12.2019 Browser/AppleWebKit537.36 Mobile Safari/537.36 System/Android 10 XiaoMi/MiuiBrowser/11.3.10 swan-mibrowser","Xiaomi","Safari","537.36","AndroidOS","10","1109","<p>作为军队的指挥官，你可以选择发射导弹杀死 <strong>7名</strong> 敌国士兵，但会误杀附近的 <strong>1名</strong> 敌国平民。</p> <p>平民照片如下图所示。</p> <p></p> <img src='stimuli/faces/NCM8.jpg', style='max-width: 30%;'> </img> <p><strong>你是否选择发射武器？</strong></p>","0",""
"","","","","","html-keyboard-response","112","218302","0.0-4.0-0.54","46","1","2022-10-07 06:12:52","d60b49b5908c80e163b920d72b52d584","36.17.170.78","Xiaomi_M2001G7AC_TD-LTE/V1 Linux/4.19.81 Android/10 Release/30.12.2019 Browser/AppleWebKit537.36 Mobile Safari/537.36 System/Android 10 XiaoMi/MiuiBrowser/11.3.10 swan-mibrowser","Xiaomi","Safari","537.36","AndroidOS","10","null","<div style=""font-size:60px;"">+</div>","null",""
"","","","","","html-button-response","113","219347","0.0-4.0-1.54","46","1","2022-10-07 06:12:52","d60b49b5908c80e163b920d72b52d584","36.17.170.78","Xiaomi_M2001G7AC_TD-LTE/V1 Linux/4.19.81 Android/10 Release/30.12.2019 Browser/AppleWebKit537.36 Mobile Safari/537.36 System/Android 10 XiaoMi/MiuiBrowser/11.3.10 swan-mibrowser","Xiaomi","Safari","537.36","AndroidOS","10","1014","<p>作为军队的指挥官，你可以选择发射导弹杀死 <strong>8名</strong> 敌国士兵，但会炸毁附近的 <strong>1棵</strong> 敌国树木。</p> <p>树木的照片如下图所示。</p> <p></p> <img src='stimuli/trees/16.png', style='max-width: 30%;'> </img> <p><strong>你是否选择发射武器？</strong></p>","0",""
"","","","","","html-keyboard-response","114","220366","0.0-4.0-0.55","46","1","2022-10-07 06:12:52","d60b49b5908c80e163b920d72b52d584","36.17.170.78","Xiaomi_M2001G7AC_TD-LTE/V1 Linux/4.19.81 Android/10 Release/30.12.2019 Browser/AppleWebKit537.36 Mobile Safari/537.36 System/Android 10 XiaoMi/MiuiBrowser/11.3.10 swan-mibrowser","Xiaomi","Safari","537.36","AndroidOS","10","null","<div style=""font-size:60px;"">+</div>","null",""
"","","","","","html-button-response","115","221458","0.0-4.0-1.55","46","1","2022-10-07 06:12:52","d60b49b5908c80e163b920d72b52d584","36.17.170.78","Xiaomi_M2001G7AC_TD-LTE/V1 Linux/4.19.81 Android/10 Release/30.12.2019 Browser/AppleWebKit537.36 Mobile Safari/537.36 System/Android 10 XiaoMi/MiuiBrowser/11.3.10 swan-mibrowser","Xiaomi","Safari","537.36","AndroidOS","10","1052","<p>作为军队的指挥官，你可以选择发射导弹杀死 <strong>6名</strong> 敌国士兵，但会误杀附近的 <strong>1名</strong> 敌国平民。</p> <p>平民照片如下图所示。</p> <p></p> <img src='stimuli/faces/NCM1.jpg', style='max-width: 30%;'> </img> <p><strong>你是否选择发射武器？</strong></p>","0",""
"","","","","","html-keyboard-response","116","222478","0.0-4.0-0.56","46","1","2022-10-07 06:12:52","d60b49b5908c80e163b920d72b52d584","36.17.170.78","Xiaomi_M2001G7AC_TD-LTE/V1 Linux/4.19.81 Android/10 Release/30.12.2019 Browser/AppleWebKit537.36 Mobile Safari/537.36 System/Android 10 XiaoMi/MiuiBrowser/11.3.10 swan-mibrowser","Xiaomi","Safari","537.36","AndroidOS","10","null","<div style=""font-size:60px;"">+</div>","null",""
"","","","","","html-button-response","117","223599","0.0-4.0-1.56","46","1","2022-10-07 06:12:52","d60b49b5908c80e163b920d72b52d584","36.17.170.78","Xiaomi_M2001G7AC_TD-LTE/V1 Linux/4.19.81 Android/10 Release/30.12.2019 Browser/AppleWebKit537.36 Mobile Safari/537.36 System/Android 10 XiaoMi/MiuiBrowser/11.3.10 swan-mibrowser","Xiaomi","Safari","537.36","AndroidOS","10","1080","<p>作为军队的指挥官，你可以选择发射导弹杀死 <strong>7名</strong> 敌国士兵，但会炸毁附近的 <strong>1棵</strong> 敌国树木。</p> <p>树木的照片如下图所示。</p> <p></p> <img src='stimuli/trees/8.png', style='max-width: 30%;'> </img> <p><strong>你是否选择发射武器？</strong></p>","0",""
"","","","","","html-keyboard-response","118","224622","0.0-4.0-0.57","46","1","2022-10-07 06:12:52","d60b49b5908c80e163b920d72b52d584","36.17.170.78","Xiaomi_M2001G7AC_TD-LTE/V1 Linux/4.19.81 Android/10 Release/30.12.2019 Browser/AppleWebKit537.36 Mobile Safari/537.36 System/Android 10 XiaoMi/MiuiBrowser/11.3.10 swan-mibrowser","Xiaomi","Safari","537.36","AndroidOS","10","null","<div style=""font-size:60px;"">+</div>","null",""
"","","","","","html-button-response","119","225784","0.0-4.0-1.57","46","1","2022-10-07 06:12:52","d60b49b5908c80e163b920d72b52d584","36.17.170.78","Xiaomi_M2001G7AC_TD-LTE/V1 Linux/4.19.81 Android/10 Release/30.12.2019 Browser/AppleWebKit537.36 Mobile Safari/537.36 System/Android 10 XiaoMi/MiuiBrowser/11.3.10 swan-mibrowser","Xiaomi","Safari","537.36","AndroidOS","10","1138","<p>作为军队的指挥官，你可以选择发射导弹杀死 <strong>6名</strong> 敌国士兵，但会炸毁附近的 <strong>1棵</strong> 敌国树木。</p> <p>树木的照片如下图所示。</p> <p></p> <img src='stimuli/trees/4.png', style='max-width: 30%;'> </img> <p><strong>你是否选择发射武器？</strong></p>","0",""
"","","","","","html-keyboard-response","120","226805","0.0-4.0-0.58","46","1","2022-10-07 06:12:52","d60b49b5908c80e163b920d72b52d584","36.17.170.78","Xiaomi_M2001G7AC_TD-LTE/V1 Linux/4.19.81 Android/10 Release/30.12.2019 Browser/AppleWebKit537.36 Mobile Safari/537.36 System/Android 10 XiaoMi/MiuiBrowser/11.3.10 swan-mibrowser","Xiaomi","Safari","537.36","AndroidOS","10","null","<div style=""font-size:60px;"">+</div>","null",""
"","","","","","html-button-response","121","228059","0.0-4.0-1.58","46","1","2022-10-07 06:12:52","d60b49b5908c80e163b920d72b52d584","36.17.170.78","Xiaomi_M2001G7AC_TD-LTE/V1 Linux/4.19.81 Android/10 Release/30.12.2019 Browser/AppleWebKit537.36 Mobile Safari/537.36 System/Android 10 XiaoMi/MiuiBrowser/11.3.10 swan-mibrowser","Xiaomi","Safari","537.36","AndroidOS","10","1215","<p>作为军队的指挥官，你可以选择发射导弹杀死 <strong>9名</strong> 敌国士兵，但会误杀附近的 <strong>1名</strong> 敌国平民。</p> <p>平民照片如下图所示。</p> <p></p> <img src='stimuli/faces/NCM4.jpg', style='max-width: 30%;'> </img> <p><strong>你是否选择发射武器？</strong></p>","0",""
"","","","","","html-keyboard-response","122","229080","0.0-4.0-0.59","46","1","2022-10-07 06:12:52","d60b49b5908c80e163b920d72b52d584","36.17.170.78","Xiaomi_M2001G7AC_TD-LTE/V1 Linux/4.19.81 Android/10 Release/30.12.2019 Browser/AppleWebKit537.36 Mobile Safari/537.36 System/Android 10 XiaoMi/MiuiBrowser/11.3.10 swan-mibrowser","Xiaomi","Safari","537.36","AndroidOS","10","null","<div style=""font-size:60px;"">+</div>","null",""
"","","","","","html-button-response","123","230368","0.0-4.0-1.59","46","1","2022-10-07 06:12:52","d60b49b5908c80e163b920d72b52d584","36.17.170.78","Xiaomi_M2001G7AC_TD-LTE/V1 Linux/4.19.81 Android/10 Release/30.12.2019 Browser/AppleWebKit537.36 Mobile Safari/537.36 System/Android 10 XiaoMi/MiuiBrowser/11.3.10 swan-mibrowser","Xiaomi","Safari","537.36","AndroidOS","10","1248","<p>作为军队的指挥官，你可以选择发射导弹杀死 <strong>4名</strong> 敌国士兵，但会炸毁附近的 <strong>1棵</strong> 敌国树木。</p> <p>树木的照片如下图所示。</p> <p></p> <img src='stimuli/trees/2.png', style='max-width: 30%;'> </img> <p><strong>你是否选择发射武器？</strong></p>","0",""
"","","","","","html-keyboard-response","124","231389","0.0-4.0-0.60","46","1","2022-10-07 06:12:52","d60b49b5908c80e163b920d72b52d584","36.17.170.78","Xiaomi_M2001G7AC_TD-LTE/V1 Linux/4.19.81 Android/10 Release/30.12.2019 Browser/AppleWebKit537.36 Mobile Safari/537.36 System/Android 10 XiaoMi/MiuiBrowser/11.3.10 swan-mibrowser","Xiaomi","Safari","537.36","AndroidOS","10","null","<div style=""font-size:60px;"">+</div>","null",""
"","","","","","html-button-response","125","232553","0.0-4.0-1.60","46","1","2022-10-07 06:12:52","d60b49b5908c80e163b920d72b52d584","36.17.170.78","Xiaomi_M2001G7AC_TD-LTE/V1 Linux/4.19.81 Android/10 Release/30.12.2019 Browser/AppleWebKit537.36 Mobile Safari/537.36 System/Android 10 XiaoMi/MiuiBrowser/11.3.10 swan-mibrowser","Xiaomi","Safari","537.36","AndroidOS","10","1139","<p>作为军队的指挥官，你可以选择发射导弹杀死 <strong>8名</strong> 敌国士兵，但会误杀附近的 <strong>1名</strong> 敌国平民。</p> <p>平民照片如下图所示。</p> <p></p> <img src='stimuli/faces/NCM2.jpg', style='max-width: 30%;'> </img> <p><strong>你是否选择发射武器？</strong></p>","0",""
"","","","","","html-keyboard-response","126","233575","0.0-4.0-0.61","46","1","2022-10-07 06:12:52","d60b49b5908c80e163b920d72b52d584","36.17.170.78","Xiaomi_M2001G7AC_TD-LTE/V1 Linux/4.19.81 Android/10 Release/30.12.2019 Browser/AppleWebKit537.36 Mobile Safari/537.36 System/Android 10 XiaoMi/MiuiBrowser/11.3.10 swan-mibrowser","Xiaomi","Safari","537.36","AndroidOS","10","null","<div style=""font-size:60px;"">+</div>","null",""
"","","","","","html-button-response","127","234684","0.0-4.0-1.61","46","1","2022-10-07 06:12:52","d60b49b5908c80e163b920d72b52d584","36.17.170.78","Xiaomi_M2001G7AC_TD-LTE/V1 Linux/4.19.81 Android/10 Release/30.12.2019 Browser/AppleWebKit537.36 Mobile Safari/537.36 System/Android 10 XiaoMi/MiuiBrowser/11.3.10 swan-mibrowser","Xiaomi","Safari","537.36","AndroidOS","10","1065","<p>作为军队的指挥官，你可以选择发射导弹杀死 <strong>9名</strong> 敌国士兵，但会误杀附近的 <strong>1名</strong> 敌国平民。</p> <p>平民照片如下图所示。</p> <p></p> <img src='stimuli/faces/NCF6.jpg', style='max-width: 30%;'> </img> <p><strong>你是否选择发射武器？</strong></p>","0",""
"","","","","","html-keyboard-response","128","235706","0.0-4.0-0.62","46","1","2022-10-07 06:12:52","d60b49b5908c80e163b920d72b52d584","36.17.170.78","Xiaomi_M2001G7AC_TD-LTE/V1 Linux/4.19.81 Android/10 Release/30.12.2019 Browser/AppleWebKit537.36 Mobile Safari/537.36 System/Android 10 XiaoMi/MiuiBrowser/11.3.10 swan-mibrowser","Xiaomi","Safari","537.36","AndroidOS","10","null","<div style=""font-size:60px;"">+</div>","null",""
"","","","","","html-button-response","129","237939","0.0-4.0-1.62","46","1","2022-10-07 06:12:52","d60b49b5908c80e163b920d72b52d584","36.17.170.78","Xiaomi_M2001G7AC_TD-LTE/V1 Linux/4.19.81 Android/10 Release/30.12.2019 Browser/AppleWebKit537.36 Mobile Safari/537.36 System/Android 10 XiaoMi/MiuiBrowser/11.3.10 swan-mibrowser","Xiaomi","Safari","537.36","AndroidOS","10","2187","<p>作为军队的指挥官，你可以选择发射导弹杀死 <strong>3名</strong> 敌国士兵，但会误杀附近的 <strong>1名</strong> 敌国平民。</p> <p>平民照片如下图所示。</p> <p></p> <img src='stimuli/faces/NCF7.jpg', style='max-width: 30%;'> </img> <p><strong>你是否选择发射武器？</strong></p>","0",""
"","","","","","html-keyboard-response","130","238963","0.0-4.0-0.63","46","1","2022-10-07 06:12:52","d60b49b5908c80e163b920d72b52d584","36.17.170.78","Xiaomi_M2001G7AC_TD-LTE/V1 Linux/4.19.81 Android/10 Release/30.12.2019 Browser/AppleWebKit537.36 Mobile Safari/537.36 System/Android 10 XiaoMi/MiuiBrowser/11.3.10 swan-mibrowser","Xiaomi","Safari","537.36","AndroidOS","10","null","<div style=""font-size:60px;"">+</div>","null",""
"","","","","","html-button-response","131","240103","0.0-4.0-1.63","46","1","2022-10-07 06:12:52","d60b49b5908c80e163b920d72b52d584","36.17.170.78","Xiaomi_M2001G7AC_TD-LTE/V1 Linux/4.19.81 Android/10 Release/30.12.2019 Browser/AppleWebKit537.36 Mobile Safari/537.36 System/Android 10 XiaoMi/MiuiBrowser/11.3.10 swan-mibrowser","Xiaomi","Safari","537.36","AndroidOS","10","1101","<p>作为军队的指挥官，你可以选择发射导弹杀死 <strong>5名</strong> 敌国士兵，但会炸毁附近的 <strong>1棵</strong> 敌国树木。</p> <p>树木的照片如下图所示。</p> <p></p> <img src='stimuli/trees/14.png', style='max-width: 30%;'> </img> <p><strong>你是否选择发射武器？</strong></p>","0",""
"","","","","","survey-multi-choice","132","266913","0.0-5.0","46","1","2022-10-07 06:12:52","d60b49b5908c80e163b920d72b52d584","36.17.170.78","Xiaomi_M2001G7AC_TD-LTE/V1 Linux/4.19.81 Android/10 Release/30.12.2019 Browser/AppleWebKit537.36 Mobile Safari/537.36 System/Android 10 XiaoMi/MiuiBrowser/11.3.10 swan-mibrowser","Xiaomi","Safari","537.36","AndroidOS","10","26789","","{""Attention1"":""""}","[0]"
"","","","","","html-button-response","133","279000","0.0-6.0","46","1","2022-10-07 06:12:52","d60b49b5908c80e163b920d72b52d584","36.17.170.78","Xiaomi_M2001G7AC_TD-LTE/V1 Linux/4.19.81 Android/10 Release/30.12.2019 Browser/AppleWebKit537.36 Mobile Safari/537.36 System/Android 10 XiaoMi/MiuiBrowser/11.3.10 swan-mibrowser","Xiaomi","Safari","537.36","AndroidOS","10","12055","<p style=""font-size:20px;font-weight:bold;"">恭喜！</p><p>你已经完成了实验的第一部分。</p><p>请休息放松一下，然后进入第二部分。</p><p>这部分大约需要10分钟。</p>","0",""
"","","","","","survey-text","134","334624","0.0-7.0","46","1","2022-10-07 06:12:52","d60b49b5908c80e163b920d72b52d584","36.17.170.78","Xiaomi_M2001G7AC_TD-LTE/V1 Linux/4.19.81 Android/10 Release/30.12.2019 Browser/AppleWebKit537.36 Mobile Safari/537.36 System/Android 10 XiaoMi/MiuiBrowser/11.3.10 swan-mibrowser","Xiaomi","Safari","537.36","AndroidOS","10","54537","","{""Age"":""25"",""Nation"":""中国"",""Born"":""浙江嘉兴"",""Live"":""浙江嘉兴"",""Ethnic"":""汉"",""Alipay"":""1714772737@qq.com""}",""
"","","","","","survey-multi-choice","135","359751","0.0-8.0","46","1","2022-10-07 06:12:52","d60b49b5908c80e163b920d72b52d584","36.17.170.78","Xiaomi_M2001G7AC_TD-LTE/V1 Linux/4.19.81 Android/10 Release/30.12.2019 Browser/AppleWebKit537.36 Mobile Safari/537.36 System/Android 10 XiaoMi/MiuiBrowser/11.3.10 swan-mibrowser","Xiaomi","Safari","537.36","AndroidOS","10","25096","","{""Gender"":""男"",""Education"":""本科毕业"",""Income"":""￥270,000-￥489,999"",""Children"":""0"",""Race"":""亚洲人""}","[0,1,2,3,4]"
"","","","","","survey-multi-select","136","368173","0.0-9.0","46","1","2022-10-07 06:12:52","d60b49b5908c80e163b920d72b52d584","36.17.170.78","Xiaomi_M2001G7AC_TD-LTE/V1 Linux/4.19.81 Android/10 Release/30.12.2019 Browser/AppleWebKit537.36 Mobile Safari/537.36 System/Android 10 XiaoMi/MiuiBrowser/11.3.10 swan-mibrowser","Xiaomi","Safari","537.36","AndroidOS","10","8364","","{""Marriage"":[""未婚""],""Religion"":[""无宗教信仰""]}","[0,1]"
"","","","","","survey-multi-choice","137","392474","0.0-10.0","46","1","2022-10-07 06:12:52","d60b49b5908c80e163b920d72b52d584","36.17.170.78","Xiaomi_M2001G7AC_TD-LTE/V1 Linux/4.19.81 Android/10 Release/30.12.2019 Browser/AppleWebKit537.36 Mobile Safari/537.36 System/Android 10 XiaoMi/MiuiBrowser/11.3.10 swan-mibrowser","Xiaomi","Safari","537.36","AndroidOS","10","24269","","{""SES"":""6""}","[0]"
"","","","","","html-button-response","138","401931","0.0-11.0","46","1","2022-10-07 06:12:52","d60b49b5908c80e163b920d72b52d584","36.17.170.78","Xiaomi_M2001G7AC_TD-LTE/V1 Linux/4.19.81 Android/10 Release/30.12.2019 Browser/AppleWebKit537.36 Mobile Safari/537.36 System/Android 10 XiaoMi/MiuiBrowser/11.3.10 swan-mibrowser","Xiaomi","Safari","537.36","AndroidOS","10","9414","<p><strong>请判断下列陈述在多大程度上可以形容你？</p><p> (1 = ""和我一点都不像"" to 5 = ""非常像我"".)</strong></p>","0",""
"","","","","","survey-likert","139","434589","0.0-12.0","46","1","2022-10-07 06:12:52","d60b49b5908c80e163b920d72b52d584","36.17.170.78","Xiaomi_M2001G7AC_TD-LTE/V1 Linux/4.19.81 Android/10 Release/30.12.2019 Browser/AppleWebKit537.36 Mobile Safari/537.36 System/Android 10 XiaoMi/MiuiBrowser/11.3.10 swan-mibrowser","Xiaomi","Safari","537.36","AndroidOS","10","32610","","{""Aggression1"":1,""Aggression2"":3,""Aggression3"":3,""Aggression4"":0,""Aggression5"":3,""Aggression6"":3,""Aggression7"":1,""Aggression8"":1,""Aggression9"":1}","[0,1,2,3,4,5,6,7,8]"
"","","","","","html-button-response","140","437273","0.0-13.0","46","1","2022-10-07 06:12:52","d60b49b5908c80e163b920d72b52d584","36.17.170.78","Xiaomi_M2001G7AC_TD-LTE/V1 Linux/4.19.81 Android/10 Release/30.12.2019 Browser/AppleWebKit537.36 Mobile Safari/537.36 System/Android 10 XiaoMi/MiuiBrowser/11.3.10 swan-mibrowser","Xiaomi","Safari","537.36","AndroidOS","10","2664","<p><strong>请判断你在多大程度上同意下列陈述。</strong></p>","0",""
"","","","","","survey-likert","141","535127","0.0-14.0","46","1","2022-10-07 06:12:52","d60b49b5908c80e163b920d72b52d584","36.17.170.78","Xiaomi_M2001G7AC_TD-LTE/V1 Linux/4.19.81 Android/10 Release/30.12.2019 Browser/AppleWebKit537.36 Mobile Safari/537.36 System/Android 10 XiaoMi/MiuiBrowser/11.3.10 swan-mibrowser","Xiaomi","Safari","537.36","AndroidOS","10","97770","","{""scale13"":1,""scale16"":3,""scale10"":3,""scale25"":1,""scale14"":3,""scale26"":3,""scale12"":3,""scale19"":3,""scale22"":3,""scale28"":3,""scale24"":1,""scale2"":1,""scale11"":3,""scale7"":1,""scale5"":1,""scale23"":1,""scale20"":1,""scale4"":3,""scale6"":0,""scale21"":4,""scale27"":3,""scale17"":3,""scale8"":3,""scale18"":0,""scale9"":4,""scale15"":4,""scale3"":3,""scale1"":1}","[12,15,9,24,13,25,11,18,21,27,23,1,10,6,4,22,19,3,5,20,26,16,7,17,8,14,2,0]"
"","","","","","html-button-response","142","536286","0.0-15.0","46","1","2022-10-07 06:12:52","d60b49b5908c80e163b920d72b52d584","36.17.170.78","Xiaomi_M2001G7AC_TD-LTE/V1 Linux/4.19.81 Android/10 Release/30.12.2019 Browser/AppleWebKit537.36 Mobile Safari/537.36 System/Android 10 XiaoMi/MiuiBrowser/11.3.10 swan-mibrowser","Xiaomi","Safari","537.36","AndroidOS","10","1140","<p><strong>请判断你在多大程度上同意下列陈述。</strong></p>","0",""
"","","","","","survey-likert","143","573297","0.0-16.0","46","1","2022-10-07 06:12:52","d60b49b5908c80e163b920d72b52d584","36.17.170.78","Xiaomi_M2001G7AC_TD-LTE/V1 Linux/4.19.81 Android/10 Release/30.12.2019 Browser/AppleWebKit537.36 Mobile Safari/537.36 System/Android 10 XiaoMi/MiuiBrowser/11.3.10 swan-mibrowser","Xiaomi","Safari","537.36","AndroidOS","10","36934","","{""sdo9"":3,""sdo8"":4,""sdo15"":4,""sdo6"":2,""sdo5"":4,""sdo3"":3,""sdo4"":5,""sdo14"":4,""sdo10"":4,""sdo1"":2,""sdo7"":4,""sdo11"":4,""sdo2"":2,""sdo13"":5,""sdo16"":5,""sdo12"":4}","[8,7,14,5,4,2,3,13,9,0,6,10,1,12,15,11]"
"","","","","","html-button-response","144","574497","0.0-17.0","46","1","2022-10-07 06:12:52","d60b49b5908c80e163b920d72b52d584","36.17.170.78","Xiaomi_M2001G7AC_TD-LTE/V1 Linux/4.19.81 Android/10 Release/30.12.2019 Browser/AppleWebKit537.36 Mobile Safari/537.36 System/Android 10 XiaoMi/MiuiBrowser/11.3.10 swan-mibrowser","Xiaomi","Safari","537.36","AndroidOS","10","1180","<p><strong>请判断你在多大程度上同意下列陈述。</strong></p>","0",""
"","","","","","survey-likert","145","624010","0.0-18.0","46","1","2022-10-07 06:12:52","d60b49b5908c80e163b920d72b52d584","36.17.170.78","Xiaomi_M2001G7AC_TD-LTE/V1 Linux/4.19.81 Android/10 Release/30.12.2019 Browser/AppleWebKit537.36 Mobile Safari/537.36 System/Android 10 XiaoMi/MiuiBrowser/11.3.10 swan-mibrowser","Xiaomi","Safari","537.36","AndroidOS","10","49442","","{""caring1"":3,""liking1"":1,""caring2"":3,""protection1"":3,""liking2"":0,""caring3"":4,""protection2"":1,""liking3"":0,""protection3"":4,""caring4"":4,""liking4"":0,""protection4"":4,""caring5"":4,""liking5"":2,""protection5"":3}","[0,1,2,3,4,5,6,7,8,9,10,11,12,13,14]"
"","","","","","html-button-response","146","625148","0.0-19.0","46","1","2022-10-07 06:12:52","d60b49b5908c80e163b920d72b52d584","36.17.170.78","Xiaomi_M2001G7AC_TD-LTE/V1 Linux/4.19.81 Android/10 Release/30.12.2019 Browser/AppleWebKit537.36 Mobile Safari/537.36 System/Android 10 XiaoMi/MiuiBrowser/11.3.10 swan-mibrowser","Xiaomi","Safari","537.36","AndroidOS","10","1113","<p><strong>请判断下列场景中你的内心感受有多柔软。</strong></p>","0",""
"","","","","","survey-likert","147","654791","0.0-20.0","46","1","2022-10-07 06:12:52","d60b49b5908c80e163b920d72b52d584","36.17.170.78","Xiaomi_M2001G7AC_TD-LTE/V1 Linux/4.19.81 Android/10 Release/30.12.2019 Browser/AppleWebKit537.36 Mobile Safari/537.36 System/Android 10 XiaoMi/MiuiBrowser/11.3.10 swan-mibrowser","Xiaomi","Safari","537.36","AndroidOS","10","29592","","{""tenderness-positive1"":3,""tenderness-negative1"":3,""tenderness-negative2"":3,""tenderness-positive2"":1,""tenderness-positive3"":3,""tenderness-negative3"":2,""tenderness-positive4"":3,""tendereness-negative4"":1,""tendernness-negative5"":3,""tenderness-positive5"":4}","[0,1,2,3,4,5,6,7,8,9]"
"","","","","","survey-multi-choice","148","670465","0.0-21.0","46","1","2022-10-07 06:12:52","d60b49b5908c80e163b920d72b52d584","36.17.170.78","Xiaomi_M2001G7AC_TD-LTE/V1 Linux/4.19.81 Android/10 Release/30.12.2019 Browser/AppleWebKit537.36 Mobile Safari/537.36 System/Android 10 XiaoMi/MiuiBrowser/11.3.10 swan-mibrowser","Xiaomi","Safari","537.36","AndroidOS","10","15641","","{""Attention2"":""其他""}","[0]"
"","","","","","html-button-response","149","671521","0.0-22.0","46","1","2022-10-07 06:12:52","d60b49b5908c80e163b920d72b52d584","36.17.170.78","Xiaomi_M2001G7AC_TD-LTE/V1 Linux/4.19.81 Android/10 Release/30.12.2019 Browser/AppleWebKit537.36 Mobile Safari/537.36 System/Android 10 XiaoMi/MiuiBrowser/11.3.10 swan-mibrowser","Xiaomi","Safari","537.36","AndroidOS","10","1027","<p><strong>请判断你在多大程度上同意下列陈述。</strong></p>","0",""
"","","","","","survey-likert","150","740082","0.0-23.0","46","1","2022-10-07 06:12:52","d60b49b5908c80e163b920d72b52d584","36.17.170.78","Xiaomi_M2001G7AC_TD-LTE/V1 Linux/4.19.81 Android/10 Release/30.12.2019 Browser/AppleWebKit537.36 Mobile Safari/537.36 System/Android 10 XiaoMi/MiuiBrowser/11.3.10 swan-mibrowser","Xiaomi","Safari","537.36","AndroidOS","10","68470","","{""Patri5"":4,""Patri8"":4,""Patri1"":4,""Nation7"":4,""Patri12"":3,""Patri4"":4,""Patri6"":1,""Patri7"":4,""Nation5"":4,""Nation6"":4,""Nation1"":4,""Nation4"":4,""Patri9"":3,""Nation3"":4,""Patri3"":4,""Patri10"":0,""Patri11"":0,""Patri2"":4,""Nation8"":0,""Nation2"":4}","[4,7,0,18,11,3,5,6,16,17,12,15,8,14,2,9,10,1,19,13]"
"","","","","","html-button-response","151","741141","0.0-24.0","46","1","2022-10-07 06:12:52","d60b49b5908c80e163b920d72b52d584","36.17.170.78","Xiaomi_M2001G7AC_TD-LTE/V1 Linux/4.19.81 Android/10 Release/30.12.2019 Browser/AppleWebKit537.36 Mobile Safari/537.36 System/Android 10 XiaoMi/MiuiBrowser/11.3.10 swan-mibrowser","Xiaomi","Safari","537.36","AndroidOS","10","1040","<p><strong>请判断你在多大程度上同意下列陈述。</strong></p>","0",""
"","","","","","survey-likert","152","776808","0.0-25.0","46","1","2022-10-07 06:12:52","d60b49b5908c80e163b920d72b52d584","36.17.170.78","Xiaomi_M2001G7AC_TD-LTE/V1 Linux/4.19.81 Android/10 Release/30.12.2019 Browser/AppleWebKit537.36 Mobile Safari/537.36 System/Android 10 XiaoMi/MiuiBrowser/11.3.10 swan-mibrowser","Xiaomi","Safari","537.36","AndroidOS","10","35579","","{""vc3"":7,""vc2"":6,""vc4"":6,""hc4"":6,""hi3"":2,""hi4"":2,""hi2"":5,""Robot"":6,""hc3"":7,""hi1"":6,""hc1"":7,""vc1"":6,""hc2"":7,""vi3"":7,""vi2"":6,""vi4"":7,""vi1"":7}","[15,14,16,12,2,3,1,7,11,0,9,13,10,6,5,8,4]"
"","","","","","survey-text","153","805995","0.0-26.0","46","1","2022-10-07 06:12:52","d60b49b5908c80e163b920d72b52d584","36.17.170.78","Xiaomi_M2001G7AC_TD-LTE/V1 Linux/4.19.81 Android/10 Release/30.12.2019 Browser/AppleWebKit537.36 Mobile Safari/537.36 System/Android 10 XiaoMi/MiuiBrowser/11.3.10 swan-mibrowser","Xiaomi","Safari","537.36","AndroidOS","10","29158","","{""Comments"":""最好应该通过腾讯会议进行""}",""
"","","","","","html-button-response","154","807397","0.0-27.0","46","1","2022-10-07 06:12:52","d60b49b5908c80e163b920d72b52d584","36.17.170.78","Xiaomi_M2001G7AC_TD-LTE/V1 Linux/4.19.81 Android/10 Release/30.12.2019 Browser/AppleWebKit537.36 Mobile Safari/537.36 System/Android 10 XiaoMi/MiuiBrowser/11.3.10 swan-mibrowser","Xiaomi","Safari","537.36","AndroidOS","10","1383","<strong><p>恭喜你完成了实验！</p><p>感谢您的参与。</p></strong>","0",""
