"success","timeout","failed_images","failed_audio","failed_video","trial_type","trial_index","time_elapsed","internal_node_id","run_id","condition","recorded_at","source_code_version","ip","user_agent","device","browser","browser_version","platform","platform_version","rt","stimulus","response","question_order"
"true","false","[]","[]","[]","preload","0","1434","0.0-0.0","6","1","2022-10-06 09:22:38","ab77af23db77f379346475f7099b4f97","219.142.99.25","Mozilla/5.0 (iPhone; CPU iPhone OS 16_0_2 like Mac OS X) AppleWebKit/605.1.15 (KHTML, like Gecko) Version/16.0 Mobile/15E148 Safari/604.1","iPhone","Safari","16.0","iOS","16_0_2","","","",""
"true","","","","","fullscreen","1","4457","0.0-1.0","6","1","2022-10-06 09:22:38","ab77af23db77f379346475f7099b4f97","219.142.99.25","Mozilla/5.0 (iPhone; CPU iPhone OS 16_0_2 like Mac OS X) AppleWebKit/605.1.15 (KHTML, like Gecko) Version/16.0 Mobile/15E148 Safari/604.1","iPhone","Safari","16.0","iOS","16_0_2","","","",""
"","","","","","html-button-response","2","11008","0.0-2.0","6","1","2022-10-06 09:22:38","ab77af23db77f379346475f7099b4f97","219.142.99.25","Mozilla/5.0 (iPhone; CPU iPhone OS 16_0_2 like Mac OS X) AppleWebKit/605.1.15 (KHTML, like Gecko) Version/16.0 Mobile/15E148 Safari/604.1","iPhone","Safari","16.0","iOS","16_0_2","6541","<p style=""font-size:20px;font-weight:bold;"">实验知情同意书</p><p style=""text-align:left;""><strong>实验名称：</strong>社会冲突研究</p><p style=""text-align:left;""><strong>主要研究者：</strong>韩晓春副教授（北京师范大学心理学部）</p><p style=""text-align:left;""><strong>联系方式：</strong>发送邮件至xiaochun.han@bnu.edu.cn</p><p style=""text-align:left;""><strong>研究目的：</strong>研究旨在了解人类面对群体冲突时的决策方式，以及相关的心理学特质。实验调查大约需要20分钟。</p><p style=""text-align:left;""><strong>实验流程：</strong>实验包含两部分。第一部分呈现一系列群体冲突场景，请你决定如何对这些冲突进行反应，大约需要10分钟完成。第二部分包含一系列人口统计学信息收集和心理学问卷，大约需要10分钟完成。</p><p style=""text-align:left;""><strong>参加及退出规则：</strong>参加本实验完全取决于您的个人意愿。在参与过程中，您可以随时退出，并且不用承担任何后果。</p><p style=""text-align:left;""><strong>隐私：</strong>本实验完全匿名进行，不会收集您的姓名或其他能够识别您身份的信息。实验中收集的作答仅用作科学研究使用，可能会在学术期刊/书籍上发表，或者用于教学，您的数据未来可能会和其他研究者或实验室分享，但您的个人身份不会被识别。</p><p style=""text-align:left;""><strong>实验报酬：</strong>实验完成后，您将获得15元人民币报酬，以感谢您的时间和努力。调查问卷中包含几道题目用以测验您作答时的认真度。只有完成全部实验，并且正确回答认真度测验的被试才能获得实验报酬。实验报酬将通过支付宝转账发放。</p><p style=""text-align:left;font-size:20px;""><strong>如果您同意以上实验知情同意书的内容，请点击'同意并且开始实验'按钮；否则请关闭浏览器界面，退出实验。</strong></p>","0",""
"","","","","","html-button-response","3","24717","0.0-3.0","6","1","2022-10-06 09:22:38","ab77af23db77f379346475f7099b4f97","219.142.99.25","Mozilla/5.0 (iPhone; CPU iPhone OS 16_0_2 like Mac OS X) AppleWebKit/605.1.15 (KHTML, like Gecko) Version/16.0 Mobile/15E148 Safari/604.1","iPhone","Safari","16.0","iOS","16_0_2","13686","<p ><strong>实验任务一：</strong></p><p>请想象你的国家与另一个国家发生了军事冲突。</p><p>你是国家军队的指挥官，你将如何在冲突中进行决策。</p><p>具体来说，作为军队指挥官，请你决定是否发射导弹进行打击。</p><p>接下来，你会面对一系列场景，请仔细阅读每个场景，然后进行决策。</p><p>这部分实验任务大约需要10分钟。</p><p><strong>实验过程中，请集中注意力。</strong></p>","0",""
"","","","","","html-keyboard-response","4","25722","0.0-4.0-0.0","6","1","2022-10-06 09:22:38","ab77af23db77f379346475f7099b4f97","219.142.99.25","Mozilla/5.0 (iPhone; CPU iPhone OS 16_0_2 like Mac OS X) AppleWebKit/605.1.15 (KHTML, like Gecko) Version/16.0 Mobile/15E148 Safari/604.1","iPhone","Safari","16.0","iOS","16_0_2","null","<div style=""font-size:60px;"">+</div>","null",""
"","","","","","html-button-response","5","33997","0.0-4.0-1.0","6","1","2022-10-06 09:22:38","ab77af23db77f379346475f7099b4f97","219.142.99.25","Mozilla/5.0 (iPhone; CPU iPhone OS 16_0_2 like Mac OS X) AppleWebKit/605.1.15 (KHTML, like Gecko) Version/16.0 Mobile/15E148 Safari/604.1","iPhone","Safari","16.0","iOS","16_0_2","8261","<p>作为军队的指挥官，你可以选择发射导弹杀死 <strong>7名</strong> 敌国士兵，但会误杀附近的 <strong>1名</strong> 敌国平民。</p> <p>平民照片如下图所示。</p> <p></p> <img src='stimuli/faces/NCM3.jpg', style='max-width: 30%;'> </img> <p><strong>你是否选择发射武器？</strong></p>","1",""
"","","","","","html-keyboard-response","6","35002","0.0-4.0-0.1","6","1","2022-10-06 09:22:38","ab77af23db77f379346475f7099b4f97","219.142.99.25","Mozilla/5.0 (iPhone; CPU iPhone OS 16_0_2 like Mac OS X) AppleWebKit/605.1.15 (KHTML, like Gecko) Version/16.0 Mobile/15E148 Safari/604.1","iPhone","Safari","16.0","iOS","16_0_2","null","<div style=""font-size:60px;"">+</div>","null",""
"","","","","","html-button-response","7","38166","0.0-4.0-1.1","6","1","2022-10-06 09:22:38","ab77af23db77f379346475f7099b4f97","219.142.99.25","Mozilla/5.0 (iPhone; CPU iPhone OS 16_0_2 like Mac OS X) AppleWebKit/605.1.15 (KHTML, like Gecko) Version/16.0 Mobile/15E148 Safari/604.1","iPhone","Safari","16.0","iOS","16_0_2","3157","<p>作为军队的指挥官，你可以选择发射导弹杀死 <strong>10名</strong> 敌国士兵，但会炸毁附近的 <strong>1棵</strong> 敌国树木。</p> <p>树木的照片如下图所示。</p> <p></p> <img src='stimuli/trees/6.png', style='max-width: 30%;'> </img> <p><strong>你是否选择发射武器？</strong></p>","0",""
"","","","","","html-keyboard-response","8","39170","0.0-4.0-0.2","6","1","2022-10-06 09:22:38","ab77af23db77f379346475f7099b4f97","219.142.99.25","Mozilla/5.0 (iPhone; CPU iPhone OS 16_0_2 like Mac OS X) AppleWebKit/605.1.15 (KHTML, like Gecko) Version/16.0 Mobile/15E148 Safari/604.1","iPhone","Safari","16.0","iOS","16_0_2","null","<div style=""font-size:60px;"">+</div>","null",""
"","","","","","html-button-response","9","42966","0.0-4.0-1.2","6","1","2022-10-06 09:22:38","ab77af23db77f379346475f7099b4f97","219.142.99.25","Mozilla/5.0 (iPhone; CPU iPhone OS 16_0_2 like Mac OS X) AppleWebKit/605.1.15 (KHTML, like Gecko) Version/16.0 Mobile/15E148 Safari/604.1","iPhone","Safari","16.0","iOS","16_0_2","3790","<p>作为军队的指挥官，你可以选择发射导弹杀死 <strong>4名</strong> 敌国士兵，但会误杀附近的 <strong>1名</strong> 敌国平民。</p> <p>平民照片如下图所示。</p> <p></p> <img src='stimuli/faces/NCF7.jpg', style='max-width: 30%;'> </img> <p><strong>你是否选择发射武器？</strong></p>","1",""
"","","","","","html-keyboard-response","10","43971","0.0-4.0-0.3","6","1","2022-10-06 09:22:38","ab77af23db77f379346475f7099b4f97","219.142.99.25","Mozilla/5.0 (iPhone; CPU iPhone OS 16_0_2 like Mac OS X) AppleWebKit/605.1.15 (KHTML, like Gecko) Version/16.0 Mobile/15E148 Safari/604.1","iPhone","Safari","16.0","iOS","16_0_2","null","<div style=""font-size:60px;"">+</div>","null",""
"","","","","","html-button-response","11","48052","0.0-4.0-1.3","6","1","2022-10-06 09:22:38","ab77af23db77f379346475f7099b4f97","219.142.99.25","Mozilla/5.0 (iPhone; CPU iPhone OS 16_0_2 like Mac OS X) AppleWebKit/605.1.15 (KHTML, like Gecko) Version/16.0 Mobile/15E148 Safari/604.1","iPhone","Safari","16.0","iOS","16_0_2","4074","<p>作为军队的指挥官，你可以选择发射导弹杀死 <strong>7名</strong> 敌国士兵，但会误杀附近的 <strong>1名</strong> 敌国平民。</p> <p>平民照片如下图所示。</p> <p></p> <img src='stimuli/faces/NCF8.jpg', style='max-width: 30%;'> </img> <p><strong>你是否选择发射武器？</strong></p>","1",""
"","","","","","html-keyboard-response","12","49056","0.0-4.0-0.4","6","1","2022-10-06 09:22:38","ab77af23db77f379346475f7099b4f97","219.142.99.25","Mozilla/5.0 (iPhone; CPU iPhone OS 16_0_2 like Mac OS X) AppleWebKit/605.1.15 (KHTML, like Gecko) Version/16.0 Mobile/15E148 Safari/604.1","iPhone","Safari","16.0","iOS","16_0_2","null","<div style=""font-size:60px;"">+</div>","null",""
"","","","","","html-button-response","13","51409","0.0-4.0-1.4","6","1","2022-10-06 09:22:38","ab77af23db77f379346475f7099b4f97","219.142.99.25","Mozilla/5.0 (iPhone; CPU iPhone OS 16_0_2 like Mac OS X) AppleWebKit/605.1.15 (KHTML, like Gecko) Version/16.0 Mobile/15E148 Safari/604.1","iPhone","Safari","16.0","iOS","16_0_2","2346","<p>作为军队的指挥官，你可以选择发射导弹杀死 <strong>5名</strong> 敌国士兵，但会炸毁附近的 <strong>1棵</strong> 敌国树木。</p> <p>树木的照片如下图所示。</p> <p></p> <img src='stimuli/trees/4.png', style='max-width: 30%;'> </img> <p><strong>你是否选择发射武器？</strong></p>","0",""
"","","","","","html-keyboard-response","14","52413","0.0-4.0-0.5","6","1","2022-10-06 09:22:38","ab77af23db77f379346475f7099b4f97","219.142.99.25","Mozilla/5.0 (iPhone; CPU iPhone OS 16_0_2 like Mac OS X) AppleWebKit/605.1.15 (KHTML, like Gecko) Version/16.0 Mobile/15E148 Safari/604.1","iPhone","Safari","16.0","iOS","16_0_2","null","<div style=""font-size:60px;"">+</div>","null",""
"","","","","","html-button-response","15","55602","0.0-4.0-1.5","6","1","2022-10-06 09:22:38","ab77af23db77f379346475f7099b4f97","219.142.99.25","Mozilla/5.0 (iPhone; CPU iPhone OS 16_0_2 like Mac OS X) AppleWebKit/605.1.15 (KHTML, like Gecko) Version/16.0 Mobile/15E148 Safari/604.1","iPhone","Safari","16.0","iOS","16_0_2","3181","<p>作为军队的指挥官，你可以选择发射导弹杀死 <strong>10名</strong> 敌国士兵，但会炸毁附近的 <strong>1棵</strong> 敌国树木。</p> <p>树木的照片如下图所示。</p> <p></p> <img src='stimuli/trees/2.png', style='max-width: 30%;'> </img> <p><strong>你是否选择发射武器？</strong></p>","0",""
"","","","","","html-keyboard-response","16","56607","0.0-4.0-0.6","6","1","2022-10-06 09:22:38","ab77af23db77f379346475f7099b4f97","219.142.99.25","Mozilla/5.0 (iPhone; CPU iPhone OS 16_0_2 like Mac OS X) AppleWebKit/605.1.15 (KHTML, like Gecko) Version/16.0 Mobile/15E148 Safari/604.1","iPhone","Safari","16.0","iOS","16_0_2","null","<div style=""font-size:60px;"">+</div>","null",""
"","","","","","html-button-response","17","59686","0.0-4.0-1.6","6","1","2022-10-06 09:22:38","ab77af23db77f379346475f7099b4f97","219.142.99.25","Mozilla/5.0 (iPhone; CPU iPhone OS 16_0_2 like Mac OS X) AppleWebKit/605.1.15 (KHTML, like Gecko) Version/16.0 Mobile/15E148 Safari/604.1","iPhone","Safari","16.0","iOS","16_0_2","3073","<p>作为军队的指挥官，你可以选择发射导弹杀死 <strong>10名</strong> 敌国士兵，但会误杀附近的 <strong>1名</strong> 敌国平民。</p> <p>平民照片如下图所示。</p> <p></p> <img src='stimuli/faces/NCM8.jpg', style='max-width: 30%;'> </img> <p><strong>你是否选择发射武器？</strong></p>","1",""
"","","","","","html-keyboard-response","18","60691","0.0-4.0-0.7","6","1","2022-10-06 09:22:38","ab77af23db77f379346475f7099b4f97","219.142.99.25","Mozilla/5.0 (iPhone; CPU iPhone OS 16_0_2 like Mac OS X) AppleWebKit/605.1.15 (KHTML, like Gecko) Version/16.0 Mobile/15E148 Safari/604.1","iPhone","Safari","16.0","iOS","16_0_2","null","<div style=""font-size:60px;"">+</div>","null",""
"","","","","","html-button-response","19","64052","0.0-4.0-1.7","6","1","2022-10-06 09:22:38","ab77af23db77f379346475f7099b4f97","219.142.99.25","Mozilla/5.0 (iPhone; CPU iPhone OS 16_0_2 like Mac OS X) AppleWebKit/605.1.15 (KHTML, like Gecko) Version/16.0 Mobile/15E148 Safari/604.1","iPhone","Safari","16.0","iOS","16_0_2","3355","<p>作为军队的指挥官，你可以选择发射导弹杀死 <strong>10名</strong> 敌国士兵，但会误杀附近的 <strong>1名</strong> 敌国平民。</p> <p>平民照片如下图所示。</p> <p></p> <img src='stimuli/faces/NCF3.jpg', style='max-width: 30%;'> </img> <p><strong>你是否选择发射武器？</strong></p>","1",""
"","","","","","html-keyboard-response","20","65058","0.0-4.0-0.8","6","1","2022-10-06 09:22:38","ab77af23db77f379346475f7099b4f97","219.142.99.25","Mozilla/5.0 (iPhone; CPU iPhone OS 16_0_2 like Mac OS X) AppleWebKit/605.1.15 (KHTML, like Gecko) Version/16.0 Mobile/15E148 Safari/604.1","iPhone","Safari","16.0","iOS","16_0_2","null","<div style=""font-size:60px;"">+</div>","null",""
"","","","","","html-button-response","21","68403","0.0-4.0-1.8","6","1","2022-10-06 09:22:38","ab77af23db77f379346475f7099b4f97","219.142.99.25","Mozilla/5.0 (iPhone; CPU iPhone OS 16_0_2 like Mac OS X) AppleWebKit/605.1.15 (KHTML, like Gecko) Version/16.0 Mobile/15E148 Safari/604.1","iPhone","Safari","16.0","iOS","16_0_2","3338","<p>作为军队的指挥官，你可以选择发射导弹杀死 <strong>4名</strong> 敌国士兵，但会误杀附近的 <strong>1名</strong> 敌国平民。</p> <p>平民照片如下图所示。</p> <p></p> <img src='stimuli/faces/NCF5.jpg', style='max-width: 30%;'> </img> <p><strong>你是否选择发射武器？</strong></p>","1",""
"","","","","","html-keyboard-response","22","69408","0.0-4.0-0.9","6","1","2022-10-06 09:22:38","ab77af23db77f379346475f7099b4f97","219.142.99.25","Mozilla/5.0 (iPhone; CPU iPhone OS 16_0_2 like Mac OS X) AppleWebKit/605.1.15 (KHTML, like Gecko) Version/16.0 Mobile/15E148 Safari/604.1","iPhone","Safari","16.0","iOS","16_0_2","null","<div style=""font-size:60px;"">+</div>","null",""
"","","","","","html-button-response","23","73292","0.0-4.0-1.9","6","1","2022-10-06 09:22:38","ab77af23db77f379346475f7099b4f97","219.142.99.25","Mozilla/5.0 (iPhone; CPU iPhone OS 16_0_2 like Mac OS X) AppleWebKit/605.1.15 (KHTML, like Gecko) Version/16.0 Mobile/15E148 Safari/604.1","iPhone","Safari","16.0","iOS","16_0_2","3876","<p>作为军队的指挥官，你可以选择发射导弹杀死 <strong>9名</strong> 敌国士兵，但会炸毁附近的 <strong>1棵</strong> 敌国树木。</p> <p>树木的照片如下图所示。</p> <p></p> <img src='stimuli/trees/4.png', style='max-width: 30%;'> </img> <p><strong>你是否选择发射武器？</strong></p>","0",""
"","","","","","html-keyboard-response","24","74298","0.0-4.0-0.10","6","1","2022-10-06 09:22:38","ab77af23db77f379346475f7099b4f97","219.142.99.25","Mozilla/5.0 (iPhone; CPU iPhone OS 16_0_2 like Mac OS X) AppleWebKit/605.1.15 (KHTML, like Gecko) Version/16.0 Mobile/15E148 Safari/604.1","iPhone","Safari","16.0","iOS","16_0_2","null","<div style=""font-size:60px;"">+</div>","null",""
"","","","","","html-button-response","25","77444","0.0-4.0-1.10","6","1","2022-10-06 09:22:38","ab77af23db77f379346475f7099b4f97","219.142.99.25","Mozilla/5.0 (iPhone; CPU iPhone OS 16_0_2 like Mac OS X) AppleWebKit/605.1.15 (KHTML, like Gecko) Version/16.0 Mobile/15E148 Safari/604.1","iPhone","Safari","16.0","iOS","16_0_2","3140","<p>作为军队的指挥官，你可以选择发射导弹杀死 <strong>3名</strong> 敌国士兵，但会误杀附近的 <strong>1名</strong> 敌国平民。</p> <p>平民照片如下图所示。</p> <p></p> <img src='stimuli/faces/NCM7.jpg', style='max-width: 30%;'> </img> <p><strong>你是否选择发射武器？</strong></p>","1",""
"","","","","","html-keyboard-response","26","78449","0.0-4.0-0.11","6","1","2022-10-06 09:22:38","ab77af23db77f379346475f7099b4f97","219.142.99.25","Mozilla/5.0 (iPhone; CPU iPhone OS 16_0_2 like Mac OS X) AppleWebKit/605.1.15 (KHTML, like Gecko) Version/16.0 Mobile/15E148 Safari/604.1","iPhone","Safari","16.0","iOS","16_0_2","null","<div style=""font-size:60px;"">+</div>","null",""
"","","","","","html-button-response","27","80012","0.0-4.0-1.11","6","1","2022-10-06 09:22:38","ab77af23db77f379346475f7099b4f97","219.142.99.25","Mozilla/5.0 (iPhone; CPU iPhone OS 16_0_2 like Mac OS X) AppleWebKit/605.1.15 (KHTML, like Gecko) Version/16.0 Mobile/15E148 Safari/604.1","iPhone","Safari","16.0","iOS","16_0_2","1557","<p>作为军队的指挥官，你可以选择发射导弹杀死 <strong>4名</strong> 敌国士兵，但会炸毁附近的 <strong>1棵</strong> 敌国树木。</p> <p>树木的照片如下图所示。</p> <p></p> <img src='stimuli/trees/6.png', style='max-width: 30%;'> </img> <p><strong>你是否选择发射武器？</strong></p>","0",""
"","","","","","html-keyboard-response","28","81016","0.0-4.0-0.12","6","1","2022-10-06 09:22:38","ab77af23db77f379346475f7099b4f97","219.142.99.25","Mozilla/5.0 (iPhone; CPU iPhone OS 16_0_2 like Mac OS X) AppleWebKit/605.1.15 (KHTML, like Gecko) Version/16.0 Mobile/15E148 Safari/604.1","iPhone","Safari","16.0","iOS","16_0_2","null","<div style=""font-size:60px;"">+</div>","null",""
"","","","","","html-button-response","29","83453","0.0-4.0-1.12","6","1","2022-10-06 09:22:38","ab77af23db77f379346475f7099b4f97","219.142.99.25","Mozilla/5.0 (iPhone; CPU iPhone OS 16_0_2 like Mac OS X) AppleWebKit/605.1.15 (KHTML, like Gecko) Version/16.0 Mobile/15E148 Safari/604.1","iPhone","Safari","16.0","iOS","16_0_2","2431","<p>作为军队的指挥官，你可以选择发射导弹杀死 <strong>4名</strong> 敌国士兵，但会炸毁附近的 <strong>1棵</strong> 敌国树木。</p> <p>树木的照片如下图所示。</p> <p></p> <img src='stimuli/trees/11.png', style='max-width: 30%;'> </img> <p><strong>你是否选择发射武器？</strong></p>","0",""
"","","","","","html-keyboard-response","30","84458","0.0-4.0-0.13","6","1","2022-10-06 09:22:38","ab77af23db77f379346475f7099b4f97","219.142.99.25","Mozilla/5.0 (iPhone; CPU iPhone OS 16_0_2 like Mac OS X) AppleWebKit/605.1.15 (KHTML, like Gecko) Version/16.0 Mobile/15E148 Safari/604.1","iPhone","Safari","16.0","iOS","16_0_2","null","<div style=""font-size:60px;"">+</div>","null",""
"","","","","","html-button-response","31","90567","0.0-4.0-1.13","6","1","2022-10-06 09:22:38","ab77af23db77f379346475f7099b4f97","219.142.99.25","Mozilla/5.0 (iPhone; CPU iPhone OS 16_0_2 like Mac OS X) AppleWebKit/605.1.15 (KHTML, like Gecko) Version/16.0 Mobile/15E148 Safari/604.1","iPhone","Safari","16.0","iOS","16_0_2","6102","<p>作为军队的指挥官，你可以选择发射导弹杀死 <strong>3名</strong> 敌国士兵，但会误杀附近的 <strong>1名</strong> 敌国平民。</p> <p>平民照片如下图所示。</p> <p></p> <img src='stimuli/faces/NCM8.jpg', style='max-width: 30%;'> </img> <p><strong>你是否选择发射武器？</strong></p>","1",""
"","","","","","html-keyboard-response","32","91572","0.0-4.0-0.14","6","1","2022-10-06 09:22:38","ab77af23db77f379346475f7099b4f97","219.142.99.25","Mozilla/5.0 (iPhone; CPU iPhone OS 16_0_2 like Mac OS X) AppleWebKit/605.1.15 (KHTML, like Gecko) Version/16.0 Mobile/15E148 Safari/604.1","iPhone","Safari","16.0","iOS","16_0_2","null","<div style=""font-size:60px;"">+</div>","null",""
"","","","","","html-button-response","33","95343","0.0-4.0-1.14","6","1","2022-10-06 09:22:38","ab77af23db77f379346475f7099b4f97","219.142.99.25","Mozilla/5.0 (iPhone; CPU iPhone OS 16_0_2 like Mac OS X) AppleWebKit/605.1.15 (KHTML, like Gecko) Version/16.0 Mobile/15E148 Safari/604.1","iPhone","Safari","16.0","iOS","16_0_2","3764","<p>作为军队的指挥官，你可以选择发射导弹杀死 <strong>8名</strong> 敌国士兵，但会误杀附近的 <strong>1名</strong> 敌国平民。</p> <p>平民照片如下图所示。</p> <p></p> <img src='stimuli/faces/NCM5.jpg', style='max-width: 30%;'> </img> <p><strong>你是否选择发射武器？</strong></p>","1",""
"","","","","","html-keyboard-response","34","96349","0.0-4.0-0.15","6","1","2022-10-06 09:22:38","ab77af23db77f379346475f7099b4f97","219.142.99.25","Mozilla/5.0 (iPhone; CPU iPhone OS 16_0_2 like Mac OS X) AppleWebKit/605.1.15 (KHTML, like Gecko) Version/16.0 Mobile/15E148 Safari/604.1","iPhone","Safari","16.0","iOS","16_0_2","null","<div style=""font-size:60px;"">+</div>","null",""
"","","","","","html-button-response","35","97960","0.0-4.0-1.15","6","1","2022-10-06 09:22:38","ab77af23db77f379346475f7099b4f97","219.142.99.25","Mozilla/5.0 (iPhone; CPU iPhone OS 16_0_2 like Mac OS X) AppleWebKit/605.1.15 (KHTML, like Gecko) Version/16.0 Mobile/15E148 Safari/604.1","iPhone","Safari","16.0","iOS","16_0_2","1605","<p>作为军队的指挥官，你可以选择发射导弹杀死 <strong>3名</strong> 敌国士兵，但会炸毁附近的 <strong>1棵</strong> 敌国树木。</p> <p>树木的照片如下图所示。</p> <p></p> <img src='stimuli/trees/15.png', style='max-width: 30%;'> </img> <p><strong>你是否选择发射武器？</strong></p>","0",""
"","","","","","html-keyboard-response","36","98966","0.0-4.0-0.16","6","1","2022-10-06 09:22:38","ab77af23db77f379346475f7099b4f97","219.142.99.25","Mozilla/5.0 (iPhone; CPU iPhone OS 16_0_2 like Mac OS X) AppleWebKit/605.1.15 (KHTML, like Gecko) Version/16.0 Mobile/15E148 Safari/604.1","iPhone","Safari","16.0","iOS","16_0_2","null","<div style=""font-size:60px;"">+</div>","null",""
"","","","","","html-button-response","37","106486","0.0-4.0-1.16","6","1","2022-10-06 09:22:38","ab77af23db77f379346475f7099b4f97","219.142.99.25","Mozilla/5.0 (iPhone; CPU iPhone OS 16_0_2 like Mac OS X) AppleWebKit/605.1.15 (KHTML, like Gecko) Version/16.0 Mobile/15E148 Safari/604.1","iPhone","Safari","16.0","iOS","16_0_2","7514","<p>作为军队的指挥官，你可以选择发射导弹杀死 <strong>3名</strong> 敌国士兵，但会误杀附近的 <strong>1名</strong> 敌国平民。</p> <p>平民照片如下图所示。</p> <p></p> <img src='stimuli/faces/NCM3.jpg', style='max-width: 30%;'> </img> <p><strong>你是否选择发射武器？</strong></p>","1",""
"","","","","","html-keyboard-response","38","107491","0.0-4.0-0.17","6","1","2022-10-06 09:22:38","ab77af23db77f379346475f7099b4f97","219.142.99.25","Mozilla/5.0 (iPhone; CPU iPhone OS 16_0_2 like Mac OS X) AppleWebKit/605.1.15 (KHTML, like Gecko) Version/16.0 Mobile/15E148 Safari/604.1","iPhone","Safari","16.0","iOS","16_0_2","null","<div style=""font-size:60px;"">+</div>","null",""
"","","","","","html-button-response","39","110652","0.0-4.0-1.17","6","1","2022-10-06 09:22:38","ab77af23db77f379346475f7099b4f97","219.142.99.25","Mozilla/5.0 (iPhone; CPU iPhone OS 16_0_2 like Mac OS X) AppleWebKit/605.1.15 (KHTML, like Gecko) Version/16.0 Mobile/15E148 Safari/604.1","iPhone","Safari","16.0","iOS","16_0_2","3153","<p>作为军队的指挥官，你可以选择发射导弹杀死 <strong>4名</strong> 敌国士兵，但会误杀附近的 <strong>1名</strong> 敌国平民。</p> <p>平民照片如下图所示。</p> <p></p> <img src='stimuli/faces/NCF2.jpg', style='max-width: 30%;'> </img> <p><strong>你是否选择发射武器？</strong></p>","1",""
"","","","","","html-keyboard-response","40","111658","0.0-4.0-0.18","6","1","2022-10-06 09:22:38","ab77af23db77f379346475f7099b4f97","219.142.99.25","Mozilla/5.0 (iPhone; CPU iPhone OS 16_0_2 like Mac OS X) AppleWebKit/605.1.15 (KHTML, like Gecko) Version/16.0 Mobile/15E148 Safari/604.1","iPhone","Safari","16.0","iOS","16_0_2","null","<div style=""font-size:60px;"">+</div>","null",""
"","","","","","html-button-response","41","113263","0.0-4.0-1.18","6","1","2022-10-06 09:22:38","ab77af23db77f379346475f7099b4f97","219.142.99.25","Mozilla/5.0 (iPhone; CPU iPhone OS 16_0_2 like Mac OS X) AppleWebKit/605.1.15 (KHTML, like Gecko) Version/16.0 Mobile/15E148 Safari/604.1","iPhone","Safari","16.0","iOS","16_0_2","1598","<p>作为军队的指挥官，你可以选择发射导弹杀死 <strong>5名</strong> 敌国士兵，但会炸毁附近的 <strong>1棵</strong> 敌国树木。</p> <p>树木的照片如下图所示。</p> <p></p> <img src='stimuli/trees/3.png', style='max-width: 30%;'> </img> <p><strong>你是否选择发射武器？</strong></p>","0",""
"","","","","","html-keyboard-response","42","114267","0.0-4.0-0.19","6","1","2022-10-06 09:22:38","ab77af23db77f379346475f7099b4f97","219.142.99.25","Mozilla/5.0 (iPhone; CPU iPhone OS 16_0_2 like Mac OS X) AppleWebKit/605.1.15 (KHTML, like Gecko) Version/16.0 Mobile/15E148 Safari/604.1","iPhone","Safari","16.0","iOS","16_0_2","null","<div style=""font-size:60px;"">+</div>","null",""
"","","","","","html-button-response","43","115693","0.0-4.0-1.19","6","1","2022-10-06 09:22:38","ab77af23db77f379346475f7099b4f97","219.142.99.25","Mozilla/5.0 (iPhone; CPU iPhone OS 16_0_2 like Mac OS X) AppleWebKit/605.1.15 (KHTML, like Gecko) Version/16.0 Mobile/15E148 Safari/604.1","iPhone","Safari","16.0","iOS","16_0_2","1419","<p>作为军队的指挥官，你可以选择发射导弹杀死 <strong>7名</strong> 敌国士兵，但会炸毁附近的 <strong>1棵</strong> 敌国树木。</p> <p>树木的照片如下图所示。</p> <p></p> <img src='stimuli/trees/8.png', style='max-width: 30%;'> </img> <p><strong>你是否选择发射武器？</strong></p>","0",""
"","","","","","html-keyboard-response","44","116699","0.0-4.0-0.20","6","1","2022-10-06 09:22:38","ab77af23db77f379346475f7099b4f97","219.142.99.25","Mozilla/5.0 (iPhone; CPU iPhone OS 16_0_2 like Mac OS X) AppleWebKit/605.1.15 (KHTML, like Gecko) Version/16.0 Mobile/15E148 Safari/604.1","iPhone","Safari","16.0","iOS","16_0_2","null","<div style=""font-size:60px;"">+</div>","null",""
"","","","","","html-button-response","45","120172","0.0-4.0-1.20","6","1","2022-10-06 09:22:38","ab77af23db77f379346475f7099b4f97","219.142.99.25","Mozilla/5.0 (iPhone; CPU iPhone OS 16_0_2 like Mac OS X) AppleWebKit/605.1.15 (KHTML, like Gecko) Version/16.0 Mobile/15E148 Safari/604.1","iPhone","Safari","16.0","iOS","16_0_2","3466","<p>作为军队的指挥官，你可以选择发射导弹杀死 <strong>1名</strong> 敌国士兵，但会误杀附近的 <strong>1名</strong> 敌国平民。</p> <p>平民照片如下图所示。</p> <p></p> <img src='stimuli/faces/NCF3.jpg', style='max-width: 30%;'> </img> <p><strong>你是否选择发射武器？</strong></p>","1",""
"","","","","","html-keyboard-response","46","121176","0.0-4.0-0.21","6","1","2022-10-06 09:22:38","ab77af23db77f379346475f7099b4f97","219.142.99.25","Mozilla/5.0 (iPhone; CPU iPhone OS 16_0_2 like Mac OS X) AppleWebKit/605.1.15 (KHTML, like Gecko) Version/16.0 Mobile/15E148 Safari/604.1","iPhone","Safari","16.0","iOS","16_0_2","null","<div style=""font-size:60px;"">+</div>","null",""
"","","","","","html-button-response","47","122859","0.0-4.0-1.21","6","1","2022-10-06 09:22:38","ab77af23db77f379346475f7099b4f97","219.142.99.25","Mozilla/5.0 (iPhone; CPU iPhone OS 16_0_2 like Mac OS X) AppleWebKit/605.1.15 (KHTML, like Gecko) Version/16.0 Mobile/15E148 Safari/604.1","iPhone","Safari","16.0","iOS","16_0_2","1675","<p>作为军队的指挥官，你可以选择发射导弹杀死 <strong>4名</strong> 敌国士兵，但会炸毁附近的 <strong>1棵</strong> 敌国树木。</p> <p>树木的照片如下图所示。</p> <p></p> <img src='stimuli/trees/12.png', style='max-width: 30%;'> </img> <p><strong>你是否选择发射武器？</strong></p>","0",""
"","","","","","html-keyboard-response","48","123865","0.0-4.0-0.22","6","1","2022-10-06 09:22:38","ab77af23db77f379346475f7099b4f97","219.142.99.25","Mozilla/5.0 (iPhone; CPU iPhone OS 16_0_2 like Mac OS X) AppleWebKit/605.1.15 (KHTML, like Gecko) Version/16.0 Mobile/15E148 Safari/604.1","iPhone","Safari","16.0","iOS","16_0_2","null","<div style=""font-size:60px;"">+</div>","null",""
"","","","","","html-button-response","49","131253","0.0-4.0-1.22","6","1","2022-10-06 09:22:38","ab77af23db77f379346475f7099b4f97","219.142.99.25","Mozilla/5.0 (iPhone; CPU iPhone OS 16_0_2 like Mac OS X) AppleWebKit/605.1.15 (KHTML, like Gecko) Version/16.0 Mobile/15E148 Safari/604.1","iPhone","Safari","16.0","iOS","16_0_2","7381","<p>作为军队的指挥官，你可以选择发射导弹杀死 <strong>5名</strong> 敌国士兵，但会炸毁附近的 <strong>1棵</strong> 敌国树木。</p> <p>树木的照片如下图所示。</p> <p></p> <img src='stimuli/trees/5.png', style='max-width: 30%;'> </img> <p><strong>你是否选择发射武器？</strong></p>","0",""
"","","","","","html-keyboard-response","50","132258","0.0-4.0-0.23","6","1","2022-10-06 09:22:38","ab77af23db77f379346475f7099b4f97","219.142.99.25","Mozilla/5.0 (iPhone; CPU iPhone OS 16_0_2 like Mac OS X) AppleWebKit/605.1.15 (KHTML, like Gecko) Version/16.0 Mobile/15E148 Safari/604.1","iPhone","Safari","16.0","iOS","16_0_2","null","<div style=""font-size:60px;"">+</div>","null",""
"","","","","","html-button-response","51","134417","0.0-4.0-1.23","6","1","2022-10-06 09:22:38","ab77af23db77f379346475f7099b4f97","219.142.99.25","Mozilla/5.0 (iPhone; CPU iPhone OS 16_0_2 like Mac OS X) AppleWebKit/605.1.15 (KHTML, like Gecko) Version/16.0 Mobile/15E148 Safari/604.1","iPhone","Safari","16.0","iOS","16_0_2","2151","<p>作为军队的指挥官，你可以选择发射导弹杀死 <strong>8名</strong> 敌国士兵，但会炸毁附近的 <strong>1棵</strong> 敌国树木。</p> <p>树木的照片如下图所示。</p> <p></p> <img src='stimuli/trees/7.png', style='max-width: 30%;'> </img> <p><strong>你是否选择发射武器？</strong></p>","0",""
"","","","","","html-keyboard-response","52","135422","0.0-4.0-0.24","6","1","2022-10-06 09:22:38","ab77af23db77f379346475f7099b4f97","219.142.99.25","Mozilla/5.0 (iPhone; CPU iPhone OS 16_0_2 like Mac OS X) AppleWebKit/605.1.15 (KHTML, like Gecko) Version/16.0 Mobile/15E148 Safari/604.1","iPhone","Safari","16.0","iOS","16_0_2","null","<div style=""font-size:60px;"">+</div>","null",""
"","","","","","html-button-response","53","137831","0.0-4.0-1.24","6","1","2022-10-06 09:22:38","ab77af23db77f379346475f7099b4f97","219.142.99.25","Mozilla/5.0 (iPhone; CPU iPhone OS 16_0_2 like Mac OS X) AppleWebKit/605.1.15 (KHTML, like Gecko) Version/16.0 Mobile/15E148 Safari/604.1","iPhone","Safari","16.0","iOS","16_0_2","2402","<p>作为军队的指挥官，你可以选择发射导弹杀死 <strong>2名</strong> 敌国士兵，但会误杀附近的 <strong>1名</strong> 敌国平民。</p> <p>平民照片如下图所示。</p> <p></p> <img src='stimuli/faces/NCM2.jpg', style='max-width: 30%;'> </img> <p><strong>你是否选择发射武器？</strong></p>","1",""
"","","","","","html-keyboard-response","54","138837","0.0-4.0-0.25","6","1","2022-10-06 09:22:38","ab77af23db77f379346475f7099b4f97","219.142.99.25","Mozilla/5.0 (iPhone; CPU iPhone OS 16_0_2 like Mac OS X) AppleWebKit/605.1.15 (KHTML, like Gecko) Version/16.0 Mobile/15E148 Safari/604.1","iPhone","Safari","16.0","iOS","16_0_2","null","<div style=""font-size:60px;"">+</div>","null",""
"","","","","","html-button-response","55","163650","0.0-4.0-1.25","6","1","2022-10-06 09:22:38","ab77af23db77f379346475f7099b4f97","219.142.99.25","Mozilla/5.0 (iPhone; CPU iPhone OS 16_0_2 like Mac OS X) AppleWebKit/605.1.15 (KHTML, like Gecko) Version/16.0 Mobile/15E148 Safari/604.1","iPhone","Safari","16.0","iOS","16_0_2","24805","<p>作为军队的指挥官，你可以选择发射导弹杀死 <strong>5名</strong> 敌国士兵，但会误杀附近的 <strong>1名</strong> 敌国平民。</p> <p>平民照片如下图所示。</p> <p></p> <img src='stimuli/faces/NCM6.jpg', style='max-width: 30%;'> </img> <p><strong>你是否选择发射武器？</strong></p>","1",""
"","","","","","html-keyboard-response","56","164656","0.0-4.0-0.26","6","1","2022-10-06 09:22:38","ab77af23db77f379346475f7099b4f97","219.142.99.25","Mozilla/5.0 (iPhone; CPU iPhone OS 16_0_2 like Mac OS X) AppleWebKit/605.1.15 (KHTML, like Gecko) Version/16.0 Mobile/15E148 Safari/604.1","iPhone","Safari","16.0","iOS","16_0_2","null","<div style=""font-size:60px;"">+</div>","null",""
"","","","","","html-button-response","57","166391","0.0-4.0-1.26","6","1","2022-10-06 09:22:38","ab77af23db77f379346475f7099b4f97","219.142.99.25","Mozilla/5.0 (iPhone; CPU iPhone OS 16_0_2 like Mac OS X) AppleWebKit/605.1.15 (KHTML, like Gecko) Version/16.0 Mobile/15E148 Safari/604.1","iPhone","Safari","16.0","iOS","16_0_2","1727","<p>作为军队的指挥官，你可以选择发射导弹杀死 <strong>2名</strong> 敌国士兵，但会炸毁附近的 <strong>1棵</strong> 敌国树木。</p> <p>树木的照片如下图所示。</p> <p></p> <img src='stimuli/trees/9.png', style='max-width: 30%;'> </img> <p><strong>你是否选择发射武器？</strong></p>","0",""
"","","","","","html-keyboard-response","58","167397","0.0-4.0-0.27","6","1","2022-10-06 09:22:38","ab77af23db77f379346475f7099b4f97","219.142.99.25","Mozilla/5.0 (iPhone; CPU iPhone OS 16_0_2 like Mac OS X) AppleWebKit/605.1.15 (KHTML, like Gecko) Version/16.0 Mobile/15E148 Safari/604.1","iPhone","Safari","16.0","iOS","16_0_2","null","<div style=""font-size:60px;"">+</div>","null",""
"","","","","","html-button-response","59","170141","0.0-4.0-1.27","6","1","2022-10-06 09:22:38","ab77af23db77f379346475f7099b4f97","219.142.99.25","Mozilla/5.0 (iPhone; CPU iPhone OS 16_0_2 like Mac OS X) AppleWebKit/605.1.15 (KHTML, like Gecko) Version/16.0 Mobile/15E148 Safari/604.1","iPhone","Safari","16.0","iOS","16_0_2","2735","<p>作为军队的指挥官，你可以选择发射导弹杀死 <strong>8名</strong> 敌国士兵，但会误杀附近的 <strong>1名</strong> 敌国平民。</p> <p>平民照片如下图所示。</p> <p></p> <img src='stimuli/faces/NCM6.jpg', style='max-width: 30%;'> </img> <p><strong>你是否选择发射武器？</strong></p>","1",""
"","","","","","html-keyboard-response","60","171147","0.0-4.0-0.28","6","1","2022-10-06 09:22:38","ab77af23db77f379346475f7099b4f97","219.142.99.25","Mozilla/5.0 (iPhone; CPU iPhone OS 16_0_2 like Mac OS X) AppleWebKit/605.1.15 (KHTML, like Gecko) Version/16.0 Mobile/15E148 Safari/604.1","iPhone","Safari","16.0","iOS","16_0_2","null","<div style=""font-size:60px;"">+</div>","null",""
"","","","","","html-button-response","61","174192","0.0-4.0-1.28","6","1","2022-10-06 09:22:38","ab77af23db77f379346475f7099b4f97","219.142.99.25","Mozilla/5.0 (iPhone; CPU iPhone OS 16_0_2 like Mac OS X) AppleWebKit/605.1.15 (KHTML, like Gecko) Version/16.0 Mobile/15E148 Safari/604.1","iPhone","Safari","16.0","iOS","16_0_2","3036","<p>作为军队的指挥官，你可以选择发射导弹杀死 <strong>6名</strong> 敌国士兵，但会误杀附近的 <strong>1名</strong> 敌国平民。</p> <p>平民照片如下图所示。</p> <p></p> <img src='stimuli/faces/NCF7.jpg', style='max-width: 30%;'> </img> <p><strong>你是否选择发射武器？</strong></p>","1",""
"","","","","","html-keyboard-response","62","175197","0.0-4.0-0.29","6","1","2022-10-06 09:22:38","ab77af23db77f379346475f7099b4f97","219.142.99.25","Mozilla/5.0 (iPhone; CPU iPhone OS 16_0_2 like Mac OS X) AppleWebKit/605.1.15 (KHTML, like Gecko) Version/16.0 Mobile/15E148 Safari/604.1","iPhone","Safari","16.0","iOS","16_0_2","null","<div style=""font-size:60px;"">+</div>","null",""
"","","","","","html-button-response","63","177257","0.0-4.0-1.29","6","1","2022-10-06 09:22:38","ab77af23db77f379346475f7099b4f97","219.142.99.25","Mozilla/5.0 (iPhone; CPU iPhone OS 16_0_2 like Mac OS X) AppleWebKit/605.1.15 (KHTML, like Gecko) Version/16.0 Mobile/15E148 Safari/604.1","iPhone","Safari","16.0","iOS","16_0_2","2052","<p>作为军队的指挥官，你可以选择发射导弹杀死 <strong>8名</strong> 敌国士兵，但会误杀附近的 <strong>1名</strong> 敌国平民。</p> <p>平民照片如下图所示。</p> <p></p> <img src='stimuli/faces/NCM7.jpg', style='max-width: 30%;'> </img> <p><strong>你是否选择发射武器？</strong></p>","1",""
"","","","","","html-keyboard-response","64","178263","0.0-4.0-0.30","6","1","2022-10-06 09:22:38","ab77af23db77f379346475f7099b4f97","219.142.99.25","Mozilla/5.0 (iPhone; CPU iPhone OS 16_0_2 like Mac OS X) AppleWebKit/605.1.15 (KHTML, like Gecko) Version/16.0 Mobile/15E148 Safari/604.1","iPhone","Safari","16.0","iOS","16_0_2","null","<div style=""font-size:60px;"">+</div>","null",""
"","","","","","html-button-response","65","179801","0.0-4.0-1.30","6","1","2022-10-06 09:22:38","ab77af23db77f379346475f7099b4f97","219.142.99.25","Mozilla/5.0 (iPhone; CPU iPhone OS 16_0_2 like Mac OS X) AppleWebKit/605.1.15 (KHTML, like Gecko) Version/16.0 Mobile/15E148 Safari/604.1","iPhone","Safari","16.0","iOS","16_0_2","1528","<p>作为军队的指挥官，你可以选择发射导弹杀死 <strong>7名</strong> 敌国士兵，但会误杀附近的 <strong>1名</strong> 敌国平民。</p> <p>平民照片如下图所示。</p> <p></p> <img src='stimuli/faces/NCF6.jpg', style='max-width: 30%;'> </img> <p><strong>你是否选择发射武器？</strong></p>","1",""
"","","","","","html-keyboard-response","66","180806","0.0-4.0-0.31","6","1","2022-10-06 09:22:38","ab77af23db77f379346475f7099b4f97","219.142.99.25","Mozilla/5.0 (iPhone; CPU iPhone OS 16_0_2 like Mac OS X) AppleWebKit/605.1.15 (KHTML, like Gecko) Version/16.0 Mobile/15E148 Safari/604.1","iPhone","Safari","16.0","iOS","16_0_2","null","<div style=""font-size:60px;"">+</div>","null",""
"","","","","","html-button-response","67","182574","0.0-4.0-1.31","6","1","2022-10-06 09:22:38","ab77af23db77f379346475f7099b4f97","219.142.99.25","Mozilla/5.0 (iPhone; CPU iPhone OS 16_0_2 like Mac OS X) AppleWebKit/605.1.15 (KHTML, like Gecko) Version/16.0 Mobile/15E148 Safari/604.1","iPhone","Safari","16.0","iOS","16_0_2","1753","<p>作为军队的指挥官，你可以选择发射导弹杀死 <strong>9名</strong> 敌国士兵，但会误杀附近的 <strong>1名</strong> 敌国平民。</p> <p>平民照片如下图所示。</p> <p></p> <img src='stimuli/faces/NCF4.jpg', style='max-width: 30%;'> </img> <p><strong>你是否选择发射武器？</strong></p>","1",""
"","","","","","html-keyboard-response","68","183581","0.0-4.0-0.32","6","1","2022-10-06 09:22:38","ab77af23db77f379346475f7099b4f97","219.142.99.25","Mozilla/5.0 (iPhone; CPU iPhone OS 16_0_2 like Mac OS X) AppleWebKit/605.1.15 (KHTML, like Gecko) Version/16.0 Mobile/15E148 Safari/604.1","iPhone","Safari","16.0","iOS","16_0_2","null","<div style=""font-size:60px;"">+</div>","null",""
"","","","","","html-button-response","69","184391","0.0-4.0-1.32","6","1","2022-10-06 09:22:38","ab77af23db77f379346475f7099b4f97","219.142.99.25","Mozilla/5.0 (iPhone; CPU iPhone OS 16_0_2 like Mac OS X) AppleWebKit/605.1.15 (KHTML, like Gecko) Version/16.0 Mobile/15E148 Safari/604.1","iPhone","Safari","16.0","iOS","16_0_2","800","<p>作为军队的指挥官，你可以选择发射导弹杀死 <strong>8名</strong> 敌国士兵，但会炸毁附近的 <strong>1棵</strong> 敌国树木。</p> <p>树木的照片如下图所示。</p> <p></p> <img src='stimuli/trees/5.png', style='max-width: 30%;'> </img> <p><strong>你是否选择发射武器？</strong></p>","1",""
"","","","","","html-keyboard-response","70","185398","0.0-4.0-0.33","6","1","2022-10-06 09:22:38","ab77af23db77f379346475f7099b4f97","219.142.99.25","Mozilla/5.0 (iPhone; CPU iPhone OS 16_0_2 like Mac OS X) AppleWebKit/605.1.15 (KHTML, like Gecko) Version/16.0 Mobile/15E148 Safari/604.1","iPhone","Safari","16.0","iOS","16_0_2","null","<div style=""font-size:60px;"">+</div>","null",""
"","","","","","html-button-response","71","189967","0.0-4.0-1.33","6","1","2022-10-06 09:22:38","ab77af23db77f379346475f7099b4f97","219.142.99.25","Mozilla/5.0 (iPhone; CPU iPhone OS 16_0_2 like Mac OS X) AppleWebKit/605.1.15 (KHTML, like Gecko) Version/16.0 Mobile/15E148 Safari/604.1","iPhone","Safari","16.0","iOS","16_0_2","4559","<p>作为军队的指挥官，你可以选择发射导弹杀死 <strong>9名</strong> 敌国士兵，但会误杀附近的 <strong>1名</strong> 敌国平民。</p> <p>平民照片如下图所示。</p> <p></p> <img src='stimuli/faces/NCF1.jpg', style='max-width: 30%;'> </img> <p><strong>你是否选择发射武器？</strong></p>","1",""
"","","","","","html-keyboard-response","72","190973","0.0-4.0-0.34","6","1","2022-10-06 09:22:38","ab77af23db77f379346475f7099b4f97","219.142.99.25","Mozilla/5.0 (iPhone; CPU iPhone OS 16_0_2 like Mac OS X) AppleWebKit/605.1.15 (KHTML, like Gecko) Version/16.0 Mobile/15E148 Safari/604.1","iPhone","Safari","16.0","iOS","16_0_2","null","<div style=""font-size:60px;"">+</div>","null",""
"","","","","","html-button-response","73","192874","0.0-4.0-1.34","6","1","2022-10-06 09:22:38","ab77af23db77f379346475f7099b4f97","219.142.99.25","Mozilla/5.0 (iPhone; CPU iPhone OS 16_0_2 like Mac OS X) AppleWebKit/605.1.15 (KHTML, like Gecko) Version/16.0 Mobile/15E148 Safari/604.1","iPhone","Safari","16.0","iOS","16_0_2","1891","<p>作为军队的指挥官，你可以选择发射导弹杀死 <strong>1名</strong> 敌国士兵，但会误杀附近的 <strong>1名</strong> 敌国平民。</p> <p>平民照片如下图所示。</p> <p></p> <img src='stimuli/faces/NCM1.jpg', style='max-width: 30%;'> </img> <p><strong>你是否选择发射武器？</strong></p>","1",""
"","","","","","html-keyboard-response","74","193881","0.0-4.0-0.35","6","1","2022-10-06 09:22:38","ab77af23db77f379346475f7099b4f97","219.142.99.25","Mozilla/5.0 (iPhone; CPU iPhone OS 16_0_2 like Mac OS X) AppleWebKit/605.1.15 (KHTML, like Gecko) Version/16.0 Mobile/15E148 Safari/604.1","iPhone","Safari","16.0","iOS","16_0_2","null","<div style=""font-size:60px;"">+</div>","null",""
"","","","","","html-button-response","75","195566","0.0-4.0-1.35","6","1","2022-10-06 09:22:38","ab77af23db77f379346475f7099b4f97","219.142.99.25","Mozilla/5.0 (iPhone; CPU iPhone OS 16_0_2 like Mac OS X) AppleWebKit/605.1.15 (KHTML, like Gecko) Version/16.0 Mobile/15E148 Safari/604.1","iPhone","Safari","16.0","iOS","16_0_2","1671","<p>作为军队的指挥官，你可以选择发射导弹杀死 <strong>2名</strong> 敌国士兵，但会误杀附近的 <strong>1名</strong> 敌国平民。</p> <p>平民照片如下图所示。</p> <p></p> <img src='stimuli/faces/NCM4.jpg', style='max-width: 30%;'> </img> <p><strong>你是否选择发射武器？</strong></p>","1",""
"","","","","","html-keyboard-response","76","196574","0.0-4.0-0.36","6","1","2022-10-06 09:22:38","ab77af23db77f379346475f7099b4f97","219.142.99.25","Mozilla/5.0 (iPhone; CPU iPhone OS 16_0_2 like Mac OS X) AppleWebKit/605.1.15 (KHTML, like Gecko) Version/16.0 Mobile/15E148 Safari/604.1","iPhone","Safari","16.0","iOS","16_0_2","null","<div style=""font-size:60px;"">+</div>","null",""
"","","","","","html-button-response","77","198640","0.0-4.0-1.36","6","1","2022-10-06 09:22:38","ab77af23db77f379346475f7099b4f97","219.142.99.25","Mozilla/5.0 (iPhone; CPU iPhone OS 16_0_2 like Mac OS X) AppleWebKit/605.1.15 (KHTML, like Gecko) Version/16.0 Mobile/15E148 Safari/604.1","iPhone","Safari","16.0","iOS","16_0_2","2055","<p>作为军队的指挥官，你可以选择发射导弹杀死 <strong>10名</strong> 敌国士兵，但会炸毁附近的 <strong>1棵</strong> 敌国树木。</p> <p>树木的照片如下图所示。</p> <p></p> <img src='stimuli/trees/15.png', style='max-width: 30%;'> </img> <p><strong>你是否选择发射武器？</strong></p>","0",""
"","","","","","html-keyboard-response","78","199647","0.0-4.0-0.37","6","1","2022-10-06 09:22:38","ab77af23db77f379346475f7099b4f97","219.142.99.25","Mozilla/5.0 (iPhone; CPU iPhone OS 16_0_2 like Mac OS X) AppleWebKit/605.1.15 (KHTML, like Gecko) Version/16.0 Mobile/15E148 Safari/604.1","iPhone","Safari","16.0","iOS","16_0_2","null","<div style=""font-size:60px;"">+</div>","null",""
"","","","","","html-button-response","79","210223","0.0-4.0-1.37","6","1","2022-10-06 09:22:38","ab77af23db77f379346475f7099b4f97","219.142.99.25","Mozilla/5.0 (iPhone; CPU iPhone OS 16_0_2 like Mac OS X) AppleWebKit/605.1.15 (KHTML, like Gecko) Version/16.0 Mobile/15E148 Safari/604.1","iPhone","Safari","16.0","iOS","16_0_2","10565","<p>作为军队的指挥官，你可以选择发射导弹杀死 <strong>9名</strong> 敌国士兵，但会误杀附近的 <strong>1名</strong> 敌国平民。</p> <p>平民照片如下图所示。</p> <p></p> <img src='stimuli/faces/NCF5.jpg', style='max-width: 30%;'> </img> <p><strong>你是否选择发射武器？</strong></p>","1",""
"","","","","","html-keyboard-response","80","211235","0.0-4.0-0.38","6","1","2022-10-06 09:22:38","ab77af23db77f379346475f7099b4f97","219.142.99.25","Mozilla/5.0 (iPhone; CPU iPhone OS 16_0_2 like Mac OS X) AppleWebKit/605.1.15 (KHTML, like Gecko) Version/16.0 Mobile/15E148 Safari/604.1","iPhone","Safari","16.0","iOS","16_0_2","null","<div style=""font-size:60px;"">+</div>","null",""
"","","","","","html-button-response","81","214549","0.0-4.0-1.38","6","1","2022-10-06 09:22:38","ab77af23db77f379346475f7099b4f97","219.142.99.25","Mozilla/5.0 (iPhone; CPU iPhone OS 16_0_2 like Mac OS X) AppleWebKit/605.1.15 (KHTML, like Gecko) Version/16.0 Mobile/15E148 Safari/604.1","iPhone","Safari","16.0","iOS","16_0_2","3305","<p>作为军队的指挥官，你可以选择发射导弹杀死 <strong>3名</strong> 敌国士兵，但会误杀附近的 <strong>1名</strong> 敌国平民。</p> <p>平民照片如下图所示。</p> <p></p> <img src='stimuli/faces/NCF1.jpg', style='max-width: 30%;'> </img> <p><strong>你是否选择发射武器？</strong></p>","1",""
"","","","","","html-keyboard-response","82","215556","0.0-4.0-0.39","6","1","2022-10-06 09:22:38","ab77af23db77f379346475f7099b4f97","219.142.99.25","Mozilla/5.0 (iPhone; CPU iPhone OS 16_0_2 like Mac OS X) AppleWebKit/605.1.15 (KHTML, like Gecko) Version/16.0 Mobile/15E148 Safari/604.1","iPhone","Safari","16.0","iOS","16_0_2","null","<div style=""font-size:60px;"">+</div>","null",""
"","","","","","html-button-response","83","218322","0.0-4.0-1.39","6","1","2022-10-06 09:22:38","ab77af23db77f379346475f7099b4f97","219.142.99.25","Mozilla/5.0 (iPhone; CPU iPhone OS 16_0_2 like Mac OS X) AppleWebKit/605.1.15 (KHTML, like Gecko) Version/16.0 Mobile/15E148 Safari/604.1","iPhone","Safari","16.0","iOS","16_0_2","2756","<p>作为军队的指挥官，你可以选择发射导弹杀死 <strong>5名</strong> 敌国士兵，但会误杀附近的 <strong>1名</strong> 敌国平民。</p> <p>平民照片如下图所示。</p> <p></p> <img src='stimuli/faces/NCF6.jpg', style='max-width: 30%;'> </img> <p><strong>你是否选择发射武器？</strong></p>","1",""
"","","","","","html-keyboard-response","84","219330","0.0-4.0-0.40","6","1","2022-10-06 09:22:38","ab77af23db77f379346475f7099b4f97","219.142.99.25","Mozilla/5.0 (iPhone; CPU iPhone OS 16_0_2 like Mac OS X) AppleWebKit/605.1.15 (KHTML, like Gecko) Version/16.0 Mobile/15E148 Safari/604.1","iPhone","Safari","16.0","iOS","16_0_2","null","<div style=""font-size:60px;"">+</div>","null",""
"","","","","","html-button-response","85","221765","0.0-4.0-1.40","6","1","2022-10-06 09:22:38","ab77af23db77f379346475f7099b4f97","219.142.99.25","Mozilla/5.0 (iPhone; CPU iPhone OS 16_0_2 like Mac OS X) AppleWebKit/605.1.15 (KHTML, like Gecko) Version/16.0 Mobile/15E148 Safari/604.1","iPhone","Safari","16.0","iOS","16_0_2","2426","<p>作为军队的指挥官，你可以选择发射导弹杀死 <strong>10名</strong> 敌国士兵，但会炸毁附近的 <strong>1棵</strong> 敌国树木。</p> <p>树木的照片如下图所示。</p> <p></p> <img src='stimuli/trees/3.png', style='max-width: 30%;'> </img> <p><strong>你是否选择发射武器？</strong></p>","0",""
"","","","","","html-keyboard-response","86","222772","0.0-4.0-0.41","6","1","2022-10-06 09:22:38","ab77af23db77f379346475f7099b4f97","219.142.99.25","Mozilla/5.0 (iPhone; CPU iPhone OS 16_0_2 like Mac OS X) AppleWebKit/605.1.15 (KHTML, like Gecko) Version/16.0 Mobile/15E148 Safari/604.1","iPhone","Safari","16.0","iOS","16_0_2","null","<div style=""font-size:60px;"">+</div>","null",""
"","","","","","html-button-response","87","224190","0.0-4.0-1.41","6","1","2022-10-06 09:22:38","ab77af23db77f379346475f7099b4f97","219.142.99.25","Mozilla/5.0 (iPhone; CPU iPhone OS 16_0_2 like Mac OS X) AppleWebKit/605.1.15 (KHTML, like Gecko) Version/16.0 Mobile/15E148 Safari/604.1","iPhone","Safari","16.0","iOS","16_0_2","1407","<p>作为军队的指挥官，你可以选择发射导弹杀死 <strong>4名</strong> 敌国士兵，但会炸毁附近的 <strong>1棵</strong> 敌国树木。</p> <p>树木的照片如下图所示。</p> <p></p> <img src='stimuli/trees/7.png', style='max-width: 30%;'> </img> <p><strong>你是否选择发射武器？</strong></p>","1",""
"","","","","","html-keyboard-response","88","225197","0.0-4.0-0.42","6","1","2022-10-06 09:22:38","ab77af23db77f379346475f7099b4f97","219.142.99.25","Mozilla/5.0 (iPhone; CPU iPhone OS 16_0_2 like Mac OS X) AppleWebKit/605.1.15 (KHTML, like Gecko) Version/16.0 Mobile/15E148 Safari/604.1","iPhone","Safari","16.0","iOS","16_0_2","null","<div style=""font-size:60px;"">+</div>","null",""
"","","","","","html-button-response","89","226639","0.0-4.0-1.42","6","1","2022-10-06 09:22:38","ab77af23db77f379346475f7099b4f97","219.142.99.25","Mozilla/5.0 (iPhone; CPU iPhone OS 16_0_2 like Mac OS X) AppleWebKit/605.1.15 (KHTML, like Gecko) Version/16.0 Mobile/15E148 Safari/604.1","iPhone","Safari","16.0","iOS","16_0_2","1428","<p>作为军队的指挥官，你可以选择发射导弹杀死 <strong>8名</strong> 敌国士兵，但会误杀附近的 <strong>1名</strong> 敌国平民。</p> <p>平民照片如下图所示。</p> <p></p> <img src='stimuli/faces/NCM4.jpg', style='max-width: 30%;'> </img> <p><strong>你是否选择发射武器？</strong></p>","1",""
"","","","","","html-keyboard-response","90","227647","0.0-4.0-0.43","6","1","2022-10-06 09:22:38","ab77af23db77f379346475f7099b4f97","219.142.99.25","Mozilla/5.0 (iPhone; CPU iPhone OS 16_0_2 like Mac OS X) AppleWebKit/605.1.15 (KHTML, like Gecko) Version/16.0 Mobile/15E148 Safari/604.1","iPhone","Safari","16.0","iOS","16_0_2","null","<div style=""font-size:60px;"">+</div>","null",""
"","","","","","html-button-response","91","242881","0.0-4.0-1.43","6","1","2022-10-06 09:22:38","ab77af23db77f379346475f7099b4f97","219.142.99.25","Mozilla/5.0 (iPhone; CPU iPhone OS 16_0_2 like Mac OS X) AppleWebKit/605.1.15 (KHTML, like Gecko) Version/16.0 Mobile/15E148 Safari/604.1","iPhone","Safari","16.0","iOS","16_0_2","15224","<p>作为军队的指挥官，你可以选择发射导弹杀死 <strong>3名</strong> 敌国士兵，但会误杀附近的 <strong>1名</strong> 敌国平民。</p> <p>平民照片如下图所示。</p> <p></p> <img src='stimuli/faces/NCF4.jpg', style='max-width: 30%;'> </img> <p><strong>你是否选择发射武器？</strong></p>","1",""
"","","","","","html-keyboard-response","92","243889","0.0-4.0-0.44","6","1","2022-10-06 09:22:38","ab77af23db77f379346475f7099b4f97","219.142.99.25","Mozilla/5.0 (iPhone; CPU iPhone OS 16_0_2 like Mac OS X) AppleWebKit/605.1.15 (KHTML, like Gecko) Version/16.0 Mobile/15E148 Safari/604.1","iPhone","Safari","16.0","iOS","16_0_2","null","<div style=""font-size:60px;"">+</div>","null",""
"","","","","","html-button-response","93","248593","0.0-4.0-1.44","6","1","2022-10-06 09:22:38","ab77af23db77f379346475f7099b4f97","219.142.99.25","Mozilla/5.0 (iPhone; CPU iPhone OS 16_0_2 like Mac OS X) AppleWebKit/605.1.15 (KHTML, like Gecko) Version/16.0 Mobile/15E148 Safari/604.1","iPhone","Safari","16.0","iOS","16_0_2","4694","<p>作为军队的指挥官，你可以选择发射导弹杀死 <strong>7名</strong> 敌国士兵，但会炸毁附近的 <strong>1棵</strong> 敌国树木。</p> <p>树木的照片如下图所示。</p> <p></p> <img src='stimuli/trees/12.png', style='max-width: 30%;'> </img> <p><strong>你是否选择发射武器？</strong></p>","0",""
"","","","","","html-keyboard-response","94","249600","0.0-4.0-0.45","6","1","2022-10-06 09:22:38","ab77af23db77f379346475f7099b4f97","219.142.99.25","Mozilla/5.0 (iPhone; CPU iPhone OS 16_0_2 like Mac OS X) AppleWebKit/605.1.15 (KHTML, like Gecko) Version/16.0 Mobile/15E148 Safari/604.1","iPhone","Safari","16.0","iOS","16_0_2","null","<div style=""font-size:60px;"">+</div>","null",""
"","","","","","html-button-response","95","250551","0.0-4.0-1.45","6","1","2022-10-06 09:22:38","ab77af23db77f379346475f7099b4f97","219.142.99.25","Mozilla/5.0 (iPhone; CPU iPhone OS 16_0_2 like Mac OS X) AppleWebKit/605.1.15 (KHTML, like Gecko) Version/16.0 Mobile/15E148 Safari/604.1","iPhone","Safari","16.0","iOS","16_0_2","940","<p>作为军队的指挥官，你可以选择发射导弹杀死 <strong>10名</strong> 敌国士兵，但会炸毁附近的 <strong>1棵</strong> 敌国树木。</p> <p>树木的照片如下图所示。</p> <p></p> <img src='stimuli/trees/1.png', style='max-width: 30%;'> </img> <p><strong>你是否选择发射武器？</strong></p>","0",""
"","","","","","html-keyboard-response","96","251561","0.0-4.0-0.46","6","1","2022-10-06 09:22:38","ab77af23db77f379346475f7099b4f97","219.142.99.25","Mozilla/5.0 (iPhone; CPU iPhone OS 16_0_2 like Mac OS X) AppleWebKit/605.1.15 (KHTML, like Gecko) Version/16.0 Mobile/15E148 Safari/604.1","iPhone","Safari","16.0","iOS","16_0_2","null","<div style=""font-size:60px;"">+</div>","null",""
"","","","","","html-button-response","97","252338","0.0-4.0-1.46","6","1","2022-10-06 09:22:38","ab77af23db77f379346475f7099b4f97","219.142.99.25","Mozilla/5.0 (iPhone; CPU iPhone OS 16_0_2 like Mac OS X) AppleWebKit/605.1.15 (KHTML, like Gecko) Version/16.0 Mobile/15E148 Safari/604.1","iPhone","Safari","16.0","iOS","16_0_2","766","<p>作为军队的指挥官，你可以选择发射导弹杀死 <strong>7名</strong> 敌国士兵，但会炸毁附近的 <strong>1棵</strong> 敌国树木。</p> <p>树木的照片如下图所示。</p> <p></p> <img src='stimuli/trees/13.png', style='max-width: 30%;'> </img> <p><strong>你是否选择发射武器？</strong></p>","0",""
"","","","","","html-keyboard-response","98","253346","0.0-4.0-0.47","6","1","2022-10-06 09:22:38","ab77af23db77f379346475f7099b4f97","219.142.99.25","Mozilla/5.0 (iPhone; CPU iPhone OS 16_0_2 like Mac OS X) AppleWebKit/605.1.15 (KHTML, like Gecko) Version/16.0 Mobile/15E148 Safari/604.1","iPhone","Safari","16.0","iOS","16_0_2","null","<div style=""font-size:60px;"">+</div>","null",""
"","","","","","html-button-response","99","254164","0.0-4.0-1.47","6","1","2022-10-06 09:22:38","ab77af23db77f379346475f7099b4f97","219.142.99.25","Mozilla/5.0 (iPhone; CPU iPhone OS 16_0_2 like Mac OS X) AppleWebKit/605.1.15 (KHTML, like Gecko) Version/16.0 Mobile/15E148 Safari/604.1","iPhone","Safari","16.0","iOS","16_0_2","807","<p>作为军队的指挥官，你可以选择发射导弹杀死 <strong>8名</strong> 敌国士兵，但会炸毁附近的 <strong>1棵</strong> 敌国树木。</p> <p>树木的照片如下图所示。</p> <p></p> <img src='stimuli/trees/14.png', style='max-width: 30%;'> </img> <p><strong>你是否选择发射武器？</strong></p>","0",""
"","","","","","html-keyboard-response","100","255172","0.0-4.0-0.48","6","1","2022-10-06 09:22:38","ab77af23db77f379346475f7099b4f97","219.142.99.25","Mozilla/5.0 (iPhone; CPU iPhone OS 16_0_2 like Mac OS X) AppleWebKit/605.1.15 (KHTML, like Gecko) Version/16.0 Mobile/15E148 Safari/604.1","iPhone","Safari","16.0","iOS","16_0_2","null","<div style=""font-size:60px;"">+</div>","null",""
"","","","","","html-button-response","101","256555","0.0-4.0-1.48","6","1","2022-10-06 09:22:38","ab77af23db77f379346475f7099b4f97","219.142.99.25","Mozilla/5.0 (iPhone; CPU iPhone OS 16_0_2 like Mac OS X) AppleWebKit/605.1.15 (KHTML, like Gecko) Version/16.0 Mobile/15E148 Safari/604.1","iPhone","Safari","16.0","iOS","16_0_2","1367","<p>作为军队的指挥官，你可以选择发射导弹杀死 <strong>3名</strong> 敌国士兵，但会炸毁附近的 <strong>1棵</strong> 敌国树木。</p> <p>树木的照片如下图所示。</p> <p></p> <img src='stimuli/trees/16.png', style='max-width: 30%;'> </img> <p><strong>你是否选择发射武器？</strong></p>","0",""
"","","","","","html-keyboard-response","102","257563","0.0-4.0-0.49","6","1","2022-10-06 09:22:38","ab77af23db77f379346475f7099b4f97","219.142.99.25","Mozilla/5.0 (iPhone; CPU iPhone OS 16_0_2 like Mac OS X) AppleWebKit/605.1.15 (KHTML, like Gecko) Version/16.0 Mobile/15E148 Safari/604.1","iPhone","Safari","16.0","iOS","16_0_2","null","<div style=""font-size:60px;"">+</div>","null",""
"","","","","","html-button-response","103","258387","0.0-4.0-1.49","6","1","2022-10-06 09:22:38","ab77af23db77f379346475f7099b4f97","219.142.99.25","Mozilla/5.0 (iPhone; CPU iPhone OS 16_0_2 like Mac OS X) AppleWebKit/605.1.15 (KHTML, like Gecko) Version/16.0 Mobile/15E148 Safari/604.1","iPhone","Safari","16.0","iOS","16_0_2","814","<p>作为军队的指挥官，你可以选择发射导弹杀死 <strong>4名</strong> 敌国士兵，但会炸毁附近的 <strong>1棵</strong> 敌国树木。</p> <p>树木的照片如下图所示。</p> <p></p> <img src='stimuli/trees/1.png', style='max-width: 30%;'> </img> <p><strong>你是否选择发射武器？</strong></p>","0",""
"","","","","","html-keyboard-response","104","259395","0.0-4.0-0.50","6","1","2022-10-06 09:22:38","ab77af23db77f379346475f7099b4f97","219.142.99.25","Mozilla/5.0 (iPhone; CPU iPhone OS 16_0_2 like Mac OS X) AppleWebKit/605.1.15 (KHTML, like Gecko) Version/16.0 Mobile/15E148 Safari/604.1","iPhone","Safari","16.0","iOS","16_0_2","null","<div style=""font-size:60px;"">+</div>","null",""
"","","","","","html-button-response","105","260264","0.0-4.0-1.50","6","1","2022-10-06 09:22:38","ab77af23db77f379346475f7099b4f97","219.142.99.25","Mozilla/5.0 (iPhone; CPU iPhone OS 16_0_2 like Mac OS X) AppleWebKit/605.1.15 (KHTML, like Gecko) Version/16.0 Mobile/15E148 Safari/604.1","iPhone","Safari","16.0","iOS","16_0_2","858","<p>作为军队的指挥官，你可以选择发射导弹杀死 <strong>5名</strong> 敌国士兵，但会炸毁附近的 <strong>1棵</strong> 敌国树木。</p> <p>树木的照片如下图所示。</p> <p></p> <img src='stimuli/trees/10.png', style='max-width: 30%;'> </img> <p><strong>你是否选择发射武器？</strong></p>","0",""
"","","","","","html-keyboard-response","106","261271","0.0-4.0-0.51","6","1","2022-10-06 09:22:38","ab77af23db77f379346475f7099b4f97","219.142.99.25","Mozilla/5.0 (iPhone; CPU iPhone OS 16_0_2 like Mac OS X) AppleWebKit/605.1.15 (KHTML, like Gecko) Version/16.0 Mobile/15E148 Safari/604.1","iPhone","Safari","16.0","iOS","16_0_2","null","<div style=""font-size:60px;"">+</div>","null",""
"","","","","","html-button-response","107","262702","0.0-4.0-1.51","6","1","2022-10-06 09:22:38","ab77af23db77f379346475f7099b4f97","219.142.99.25","Mozilla/5.0 (iPhone; CPU iPhone OS 16_0_2 like Mac OS X) AppleWebKit/605.1.15 (KHTML, like Gecko) Version/16.0 Mobile/15E148 Safari/604.1","iPhone","Safari","16.0","iOS","16_0_2","1420","<p>作为军队的指挥官，你可以选择发射导弹杀死 <strong>8名</strong> 敌国士兵，但会炸毁附近的 <strong>1棵</strong> 敌国树木。</p> <p>树木的照片如下图所示。</p> <p></p> <img src='stimuli/trees/11.png', style='max-width: 30%;'> </img> <p><strong>你是否选择发射武器？</strong></p>","0",""
"","","","","","html-keyboard-response","108","263709","0.0-4.0-0.52","6","1","2022-10-06 09:22:38","ab77af23db77f379346475f7099b4f97","219.142.99.25","Mozilla/5.0 (iPhone; CPU iPhone OS 16_0_2 like Mac OS X) AppleWebKit/605.1.15 (KHTML, like Gecko) Version/16.0 Mobile/15E148 Safari/604.1","iPhone","Safari","16.0","iOS","16_0_2","null","<div style=""font-size:60px;"">+</div>","null",""
"","","","","","html-button-response","109","266438","0.0-4.0-1.52","6","1","2022-10-06 09:22:38","ab77af23db77f379346475f7099b4f97","219.142.99.25","Mozilla/5.0 (iPhone; CPU iPhone OS 16_0_2 like Mac OS X) AppleWebKit/605.1.15 (KHTML, like Gecko) Version/16.0 Mobile/15E148 Safari/604.1","iPhone","Safari","16.0","iOS","16_0_2","2717","<p>作为军队的指挥官，你可以选择发射导弹杀死 <strong>9名</strong> 敌国士兵，但会误杀附近的 <strong>1名</strong> 敌国平民。</p> <p>平民照片如下图所示。</p> <p></p> <img src='stimuli/faces/NCM2.jpg', style='max-width: 30%;'> </img> <p><strong>你是否选择发射武器？</strong></p>","1",""
"","","","","","html-keyboard-response","110","267445","0.0-4.0-0.53","6","1","2022-10-06 09:22:38","ab77af23db77f379346475f7099b4f97","219.142.99.25","Mozilla/5.0 (iPhone; CPU iPhone OS 16_0_2 like Mac OS X) AppleWebKit/605.1.15 (KHTML, like Gecko) Version/16.0 Mobile/15E148 Safari/604.1","iPhone","Safari","16.0","iOS","16_0_2","null","<div style=""font-size:60px;"">+</div>","null",""
"","","","","","html-button-response","111","268471","0.0-4.0-1.53","6","1","2022-10-06 09:22:38","ab77af23db77f379346475f7099b4f97","219.142.99.25","Mozilla/5.0 (iPhone; CPU iPhone OS 16_0_2 like Mac OS X) AppleWebKit/605.1.15 (KHTML, like Gecko) Version/16.0 Mobile/15E148 Safari/604.1","iPhone","Safari","16.0","iOS","16_0_2","1015","<p>作为军队的指挥官，你可以选择发射导弹杀死 <strong>2名</strong> 敌国士兵，但会炸毁附近的 <strong>1棵</strong> 敌国树木。</p> <p>树木的照片如下图所示。</p> <p></p> <img src='stimuli/trees/8.png', style='max-width: 30%;'> </img> <p><strong>你是否选择发射武器？</strong></p>","0",""
"","","","","","html-keyboard-response","112","269479","0.0-4.0-0.54","6","1","2022-10-06 09:22:38","ab77af23db77f379346475f7099b4f97","219.142.99.25","Mozilla/5.0 (iPhone; CPU iPhone OS 16_0_2 like Mac OS X) AppleWebKit/605.1.15 (KHTML, like Gecko) Version/16.0 Mobile/15E148 Safari/604.1","iPhone","Safari","16.0","iOS","16_0_2","null","<div style=""font-size:60px;"">+</div>","null",""
"","","","","","html-button-response","113","270638","0.0-4.0-1.54","6","1","2022-10-06 09:22:38","ab77af23db77f379346475f7099b4f97","219.142.99.25","Mozilla/5.0 (iPhone; CPU iPhone OS 16_0_2 like Mac OS X) AppleWebKit/605.1.15 (KHTML, like Gecko) Version/16.0 Mobile/15E148 Safari/604.1","iPhone","Safari","16.0","iOS","16_0_2","1148","<p>作为军队的指挥官，你可以选择发射导弹杀死 <strong>5名</strong> 敌国士兵，但会炸毁附近的 <strong>1棵</strong> 敌国树木。</p> <p>树木的照片如下图所示。</p> <p></p> <img src='stimuli/trees/2.png', style='max-width: 30%;'> </img> <p><strong>你是否选择发射武器？</strong></p>","0",""
"","","","","","html-keyboard-response","114","271646","0.0-4.0-0.55","6","1","2022-10-06 09:22:38","ab77af23db77f379346475f7099b4f97","219.142.99.25","Mozilla/5.0 (iPhone; CPU iPhone OS 16_0_2 like Mac OS X) AppleWebKit/605.1.15 (KHTML, like Gecko) Version/16.0 Mobile/15E148 Safari/604.1","iPhone","Safari","16.0","iOS","16_0_2","null","<div style=""font-size:60px;"">+</div>","null",""
"","","","","","html-button-response","115","275021","0.0-4.0-1.55","6","1","2022-10-06 09:22:38","ab77af23db77f379346475f7099b4f97","219.142.99.25","Mozilla/5.0 (iPhone; CPU iPhone OS 16_0_2 like Mac OS X) AppleWebKit/605.1.15 (KHTML, like Gecko) Version/16.0 Mobile/15E148 Safari/604.1","iPhone","Safari","16.0","iOS","16_0_2","3359","<p>作为军队的指挥官，你可以选择发射导弹杀死 <strong>5名</strong> 敌国士兵，但会误杀附近的 <strong>1名</strong> 敌国平民。</p> <p>平民照片如下图所示。</p> <p></p> <img src='stimuli/faces/NCF8.jpg', style='max-width: 30%;'> </img> <p><strong>你是否选择发射武器？</strong></p>","1",""
"","","","","","html-keyboard-response","116","276029","0.0-4.0-0.56","6","1","2022-10-06 09:22:38","ab77af23db77f379346475f7099b4f97","219.142.99.25","Mozilla/5.0 (iPhone; CPU iPhone OS 16_0_2 like Mac OS X) AppleWebKit/605.1.15 (KHTML, like Gecko) Version/16.0 Mobile/15E148 Safari/604.1","iPhone","Safari","16.0","iOS","16_0_2","null","<div style=""font-size:60px;"">+</div>","null",""
"","","","","","html-button-response","117","278622","0.0-4.0-1.56","6","1","2022-10-06 09:22:38","ab77af23db77f379346475f7099b4f97","219.142.99.25","Mozilla/5.0 (iPhone; CPU iPhone OS 16_0_2 like Mac OS X) AppleWebKit/605.1.15 (KHTML, like Gecko) Version/16.0 Mobile/15E148 Safari/604.1","iPhone","Safari","16.0","iOS","16_0_2","2582","<p>作为军队的指挥官，你可以选择发射导弹杀死 <strong>6名</strong> 敌国士兵，但会炸毁附近的 <strong>1棵</strong> 敌国树木。</p> <p>树木的照片如下图所示。</p> <p></p> <img src='stimuli/trees/16.png', style='max-width: 30%;'> </img> <p><strong>你是否选择发射武器？</strong></p>","0",""
"","","","","","html-keyboard-response","118","279630","0.0-4.0-0.57","6","1","2022-10-06 09:22:38","ab77af23db77f379346475f7099b4f97","219.142.99.25","Mozilla/5.0 (iPhone; CPU iPhone OS 16_0_2 like Mac OS X) AppleWebKit/605.1.15 (KHTML, like Gecko) Version/16.0 Mobile/15E148 Safari/604.1","iPhone","Safari","16.0","iOS","16_0_2","null","<div style=""font-size:60px;"">+</div>","null",""
"","","","","","html-button-response","119","280737","0.0-4.0-1.57","6","1","2022-10-06 09:22:38","ab77af23db77f379346475f7099b4f97","219.142.99.25","Mozilla/5.0 (iPhone; CPU iPhone OS 16_0_2 like Mac OS X) AppleWebKit/605.1.15 (KHTML, like Gecko) Version/16.0 Mobile/15E148 Safari/604.1","iPhone","Safari","16.0","iOS","16_0_2","1095","<p>作为军队的指挥官，你可以选择发射导弹杀死 <strong>10名</strong> 敌国士兵，但会误杀附近的 <strong>1名</strong> 敌国平民。</p> <p>平民照片如下图所示。</p> <p></p> <img src='stimuli/faces/NCF2.jpg', style='max-width: 30%;'> </img> <p><strong>你是否选择发射武器？</strong></p>","1",""
"","","","","","html-keyboard-response","120","281750","0.0-4.0-0.58","6","1","2022-10-06 09:22:38","ab77af23db77f379346475f7099b4f97","219.142.99.25","Mozilla/5.0 (iPhone; CPU iPhone OS 16_0_2 like Mac OS X) AppleWebKit/605.1.15 (KHTML, like Gecko) Version/16.0 Mobile/15E148 Safari/604.1","iPhone","Safari","16.0","iOS","16_0_2","null","<div style=""font-size:60px;"">+</div>","null",""
"","","","","","html-button-response","121","289021","0.0-4.0-1.58","6","1","2022-10-06 09:22:38","ab77af23db77f379346475f7099b4f97","219.142.99.25","Mozilla/5.0 (iPhone; CPU iPhone OS 16_0_2 like Mac OS X) AppleWebKit/605.1.15 (KHTML, like Gecko) Version/16.0 Mobile/15E148 Safari/604.1","iPhone","Safari","16.0","iOS","16_0_2","7261","<p>作为军队的指挥官，你可以选择发射导弹杀死 <strong>1名</strong> 敌国士兵，但会误杀附近的 <strong>1名</strong> 敌国平民。</p> <p>平民照片如下图所示。</p> <p></p> <img src='stimuli/faces/NCM5.jpg', style='max-width: 30%;'> </img> <p><strong>你是否选择发射武器？</strong></p>","1",""
"","","","","","html-keyboard-response","122","290028","0.0-4.0-0.59","6","1","2022-10-06 09:22:38","ab77af23db77f379346475f7099b4f97","219.142.99.25","Mozilla/5.0 (iPhone; CPU iPhone OS 16_0_2 like Mac OS X) AppleWebKit/605.1.15 (KHTML, like Gecko) Version/16.0 Mobile/15E148 Safari/604.1","iPhone","Safari","16.0","iOS","16_0_2","null","<div style=""font-size:60px;"">+</div>","null",""
"","","","","","html-button-response","123","290962","0.0-4.0-1.59","6","1","2022-10-06 09:22:38","ab77af23db77f379346475f7099b4f97","219.142.99.25","Mozilla/5.0 (iPhone; CPU iPhone OS 16_0_2 like Mac OS X) AppleWebKit/605.1.15 (KHTML, like Gecko) Version/16.0 Mobile/15E148 Safari/604.1","iPhone","Safari","16.0","iOS","16_0_2","922","<p>作为军队的指挥官，你可以选择发射导弹杀死 <strong>7名</strong> 敌国士兵，但会炸毁附近的 <strong>1棵</strong> 敌国树木。</p> <p>树木的照片如下图所示。</p> <p></p> <img src='stimuli/trees/10.png', style='max-width: 30%;'> </img> <p><strong>你是否选择发射武器？</strong></p>","0",""
"","","","","","html-keyboard-response","124","291970","0.0-4.0-0.60","6","1","2022-10-06 09:22:38","ab77af23db77f379346475f7099b4f97","219.142.99.25","Mozilla/5.0 (iPhone; CPU iPhone OS 16_0_2 like Mac OS X) AppleWebKit/605.1.15 (KHTML, like Gecko) Version/16.0 Mobile/15E148 Safari/604.1","iPhone","Safari","16.0","iOS","16_0_2","null","<div style=""font-size:60px;"">+</div>","null",""
"","","","","","html-button-response","125","292796","0.0-4.0-1.60","6","1","2022-10-06 09:22:38","ab77af23db77f379346475f7099b4f97","219.142.99.25","Mozilla/5.0 (iPhone; CPU iPhone OS 16_0_2 like Mac OS X) AppleWebKit/605.1.15 (KHTML, like Gecko) Version/16.0 Mobile/15E148 Safari/604.1","iPhone","Safari","16.0","iOS","16_0_2","819","<p>作为军队的指挥官，你可以选择发射导弹杀死 <strong>4名</strong> 敌国士兵，但会炸毁附近的 <strong>1棵</strong> 敌国树木。</p> <p>树木的照片如下图所示。</p> <p></p> <img src='stimuli/trees/14.png', style='max-width: 30%;'> </img> <p><strong>你是否选择发射武器？</strong></p>","0",""
"","","","","","html-keyboard-response","126","293805","0.0-4.0-0.61","6","1","2022-10-06 09:22:38","ab77af23db77f379346475f7099b4f97","219.142.99.25","Mozilla/5.0 (iPhone; CPU iPhone OS 16_0_2 like Mac OS X) AppleWebKit/605.1.15 (KHTML, like Gecko) Version/16.0 Mobile/15E148 Safari/604.1","iPhone","Safari","16.0","iOS","16_0_2","null","<div style=""font-size:60px;"">+</div>","null",""
"","","","","","html-button-response","127","294596","0.0-4.0-1.61","6","1","2022-10-06 09:22:38","ab77af23db77f379346475f7099b4f97","219.142.99.25","Mozilla/5.0 (iPhone; CPU iPhone OS 16_0_2 like Mac OS X) AppleWebKit/605.1.15 (KHTML, like Gecko) Version/16.0 Mobile/15E148 Safari/604.1","iPhone","Safari","16.0","iOS","16_0_2","780","<p>作为军队的指挥官，你可以选择发射导弹杀死 <strong>3名</strong> 敌国士兵，但会炸毁附近的 <strong>1棵</strong> 敌国树木。</p> <p>树木的照片如下图所示。</p> <p></p> <img src='stimuli/trees/13.png', style='max-width: 30%;'> </img> <p><strong>你是否选择发射武器？</strong></p>","0",""
"","","","","","html-keyboard-response","128","295604","0.0-4.0-0.62","6","1","2022-10-06 09:22:38","ab77af23db77f379346475f7099b4f97","219.142.99.25","Mozilla/5.0 (iPhone; CPU iPhone OS 16_0_2 like Mac OS X) AppleWebKit/605.1.15 (KHTML, like Gecko) Version/16.0 Mobile/15E148 Safari/604.1","iPhone","Safari","16.0","iOS","16_0_2","null","<div style=""font-size:60px;"">+</div>","null",""
"","","","","","html-button-response","129","296574","0.0-4.0-1.62","6","1","2022-10-06 09:22:38","ab77af23db77f379346475f7099b4f97","219.142.99.25","Mozilla/5.0 (iPhone; CPU iPhone OS 16_0_2 like Mac OS X) AppleWebKit/605.1.15 (KHTML, like Gecko) Version/16.0 Mobile/15E148 Safari/604.1","iPhone","Safari","16.0","iOS","16_0_2","958","<p>作为军队的指挥官，你可以选择发射导弹杀死 <strong>9名</strong> 敌国士兵，但会误杀附近的 <strong>1名</strong> 敌国平民。</p> <p>平民照片如下图所示。</p> <p></p> <img src='stimuli/faces/NCM1.jpg', style='max-width: 30%;'> </img> <p><strong>你是否选择发射武器？</strong></p>","1",""
"","","","","","html-keyboard-response","130","297582","0.0-4.0-0.63","6","1","2022-10-06 09:22:38","ab77af23db77f379346475f7099b4f97","219.142.99.25","Mozilla/5.0 (iPhone; CPU iPhone OS 16_0_2 like Mac OS X) AppleWebKit/605.1.15 (KHTML, like Gecko) Version/16.0 Mobile/15E148 Safari/604.1","iPhone","Safari","16.0","iOS","16_0_2","null","<div style=""font-size:60px;"">+</div>","null",""
"","","","","","html-button-response","131","298603","0.0-4.0-1.63","6","1","2022-10-06 09:22:38","ab77af23db77f379346475f7099b4f97","219.142.99.25","Mozilla/5.0 (iPhone; CPU iPhone OS 16_0_2 like Mac OS X) AppleWebKit/605.1.15 (KHTML, like Gecko) Version/16.0 Mobile/15E148 Safari/604.1","iPhone","Safari","16.0","iOS","16_0_2","1009","<p>作为军队的指挥官，你可以选择发射导弹杀死 <strong>8名</strong> 敌国士兵，但会炸毁附近的 <strong>1棵</strong> 敌国树木。</p> <p>树木的照片如下图所示。</p> <p></p> <img src='stimuli/trees/9.png', style='max-width: 30%;'> </img> <p><strong>你是否选择发射武器？</strong></p>","0",""
"","","","","","survey-multi-choice","132","317552","0.0-5.0","6","1","2022-10-06 09:22:38","ab77af23db77f379346475f7099b4f97","219.142.99.25","Mozilla/5.0 (iPhone; CPU iPhone OS 16_0_2 like Mac OS X) AppleWebKit/605.1.15 (KHTML, like Gecko) Version/16.0 Mobile/15E148 Safari/604.1","iPhone","Safari","16.0","iOS","16_0_2","18934","","{""Attention1"":""""}","[0]"
"","","","","","html-button-response","133","321121","0.0-6.0","6","1","2022-10-06 09:22:38","ab77af23db77f379346475f7099b4f97","219.142.99.25","Mozilla/5.0 (iPhone; CPU iPhone OS 16_0_2 like Mac OS X) AppleWebKit/605.1.15 (KHTML, like Gecko) Version/16.0 Mobile/15E148 Safari/604.1","iPhone","Safari","16.0","iOS","16_0_2","3564","<p style=""font-size:20px;font-weight:bold;"">恭喜！</p><p>你已经完成了实验的第一部分。</p><p>请休息放松一下，然后进入第二部分。</p><p>这部分大约需要10分钟。</p>","0",""
"","","","","","survey-text","134","365685","0.0-7.0","6","1","2022-10-06 09:22:38","ab77af23db77f379346475f7099b4f97","219.142.99.25","Mozilla/5.0 (iPhone; CPU iPhone OS 16_0_2 like Mac OS X) AppleWebKit/605.1.15 (KHTML, like Gecko) Version/16.0 Mobile/15E148 Safari/604.1","iPhone","Safari","16.0","iOS","16_0_2","43539","","{""Age"":""21"",""Nation"":""中国"",""Born"":""内蒙古"",""Live"":""内蒙古"",""Ethnic"":""汉"",""Alipay"":""愚""}",""
"","","","","","survey-multi-choice","135","389420","0.0-8.0","6","1","2022-10-06 09:22:38","ab77af23db77f379346475f7099b4f97","219.142.99.25","Mozilla/5.0 (iPhone; CPU iPhone OS 16_0_2 like Mac OS X) AppleWebKit/605.1.15 (KHTML, like Gecko) Version/16.0 Mobile/15E148 Safari/604.1","iPhone","Safari","16.0","iOS","16_0_2","23725","","{""Gender"":""男"",""Education"":""高中毕业"",""Income"":""￥35,000-￥69,999"",""Children"":""0"",""Race"":""亚洲人""}","[0,1,2,3,4]"
"","","","","","survey-multi-select","136","404437","0.0-9.0","6","1","2022-10-06 09:22:38","ab77af23db77f379346475f7099b4f97","219.142.99.25","Mozilla/5.0 (iPhone; CPU iPhone OS 16_0_2 like Mac OS X) AppleWebKit/605.1.15 (KHTML, like Gecko) Version/16.0 Mobile/15E148 Safari/604.1","iPhone","Safari","16.0","iOS","16_0_2","15005","","{""Marriage"":[""未婚""],""Religion"":[""无神论者"",""无宗教信仰""]}","[0,1]"
"","","","","","survey-multi-choice","137","416774","0.0-10.0","6","1","2022-10-06 09:22:38","ab77af23db77f379346475f7099b4f97","219.142.99.25","Mozilla/5.0 (iPhone; CPU iPhone OS 16_0_2 like Mac OS X) AppleWebKit/605.1.15 (KHTML, like Gecko) Version/16.0 Mobile/15E148 Safari/604.1","iPhone","Safari","16.0","iOS","16_0_2","12328","","{""SES"":""2""}","[0]"
"","","","","","html-button-response","138","421060","0.0-11.0","6","1","2022-10-06 09:22:38","ab77af23db77f379346475f7099b4f97","219.142.99.25","Mozilla/5.0 (iPhone; CPU iPhone OS 16_0_2 like Mac OS X) AppleWebKit/605.1.15 (KHTML, like Gecko) Version/16.0 Mobile/15E148 Safari/604.1","iPhone","Safari","16.0","iOS","16_0_2","4276","<p><strong>请判断下列陈述在多大程度上可以形容你？</p><p> (1 = ""和我一点都不像"" to 5 = ""非常像我"".)</strong></p>","0",""
"","","","","","survey-likert","139","446372","0.0-12.0","6","1","2022-10-06 09:22:38","ab77af23db77f379346475f7099b4f97","219.142.99.25","Mozilla/5.0 (iPhone; CPU iPhone OS 16_0_2 like Mac OS X) AppleWebKit/605.1.15 (KHTML, like Gecko) Version/16.0 Mobile/15E148 Safari/604.1","iPhone","Safari","16.0","iOS","16_0_2","25299","","{""Aggression1"":2,""Aggression2"":4,""Aggression3"":4,""Aggression4"":2,""Aggression5"":4,""Aggression6"":3,""Aggression7"":1,""Aggression8"":1,""Aggression9"":0}","[0,1,2,3,4,5,6,7,8]"
"","","","","","html-button-response","140","448858","0.0-13.0","6","1","2022-10-06 09:22:38","ab77af23db77f379346475f7099b4f97","219.142.99.25","Mozilla/5.0 (iPhone; CPU iPhone OS 16_0_2 like Mac OS X) AppleWebKit/605.1.15 (KHTML, like Gecko) Version/16.0 Mobile/15E148 Safari/604.1","iPhone","Safari","16.0","iOS","16_0_2","2478","<p><strong>请判断你在多大程度上同意下列陈述。</strong></p>","0",""
"","","","","","survey-likert","141","550111","0.0-14.0","6","1","2022-10-06 09:22:38","ab77af23db77f379346475f7099b4f97","219.142.99.25","Mozilla/5.0 (iPhone; CPU iPhone OS 16_0_2 like Mac OS X) AppleWebKit/605.1.15 (KHTML, like Gecko) Version/16.0 Mobile/15E148 Safari/604.1","iPhone","Safari","16.0","iOS","16_0_2","101238","","{""scale19"":2,""scale22"":3,""scale11"":4,""scale12"":1,""scale20"":1,""scale27"":1,""scale28"":3,""scale17"":2,""scale1"":3,""scale9"":3,""scale3"":2,""scale21"":3,""scale10"":1,""scale15"":2,""scale13"":3,""scale4"":3,""scale14"":3,""scale6"":1,""scale26"":3,""scale7"":1,""scale8"":2,""scale23"":3,""scale5"":3,""scale16"":2,""scale25"":3,""scale2"":1,""scale24"":1,""scale18"":2}","[18,21,10,11,19,26,27,16,0,8,2,20,9,14,12,3,13,5,25,6,7,22,4,15,24,1,23,17]"
"","","","","","html-button-response","142","551538","0.0-15.0","6","1","2022-10-06 09:22:38","ab77af23db77f379346475f7099b4f97","219.142.99.25","Mozilla/5.0 (iPhone; CPU iPhone OS 16_0_2 like Mac OS X) AppleWebKit/605.1.15 (KHTML, like Gecko) Version/16.0 Mobile/15E148 Safari/604.1","iPhone","Safari","16.0","iOS","16_0_2","1423","<p><strong>请判断你在多大程度上同意下列陈述。</strong></p>","0",""
"","","","","","survey-likert","143","617175","0.0-16.0","6","1","2022-10-06 09:22:38","ab77af23db77f379346475f7099b4f97","219.142.99.25","Mozilla/5.0 (iPhone; CPU iPhone OS 16_0_2 like Mac OS X) AppleWebKit/605.1.15 (KHTML, like Gecko) Version/16.0 Mobile/15E148 Safari/604.1","iPhone","Safari","16.0","iOS","16_0_2","65622","","{""sdo12"":5,""sdo5"":4,""sdo14"":5,""sdo11"":5,""sdo15"":3,""sdo1"":2,""sdo8"":3,""sdo7"":1,""sdo13"":5,""sdo9"":3,""sdo10"":4,""sdo4"":0,""sdo2"":4,""sdo16"":6,""sdo6"":3,""sdo3"":3}","[11,4,13,10,14,0,7,6,12,8,9,3,1,15,5,2]"
"","","","","","html-button-response","144","618359","0.0-17.0","6","1","2022-10-06 09:22:38","ab77af23db77f379346475f7099b4f97","219.142.99.25","Mozilla/5.0 (iPhone; CPU iPhone OS 16_0_2 like Mac OS X) AppleWebKit/605.1.15 (KHTML, like Gecko) Version/16.0 Mobile/15E148 Safari/604.1","iPhone","Safari","16.0","iOS","16_0_2","1177","<p><strong>请判断你在多大程度上同意下列陈述。</strong></p>","0",""
"","","","","","survey-likert","145","683548","0.0-18.0","6","1","2022-10-06 09:22:38","ab77af23db77f379346475f7099b4f97","219.142.99.25","Mozilla/5.0 (iPhone; CPU iPhone OS 16_0_2 like Mac OS X) AppleWebKit/605.1.15 (KHTML, like Gecko) Version/16.0 Mobile/15E148 Safari/604.1","iPhone","Safari","16.0","iOS","16_0_2","65174","","{""caring1"":1,""liking1"":1,""caring2"":2,""protection1"":3,""liking2"":3,""caring3"":1,""protection2"":2,""liking3"":1,""protection3"":3,""caring4"":2,""liking4"":3,""protection4"":3,""caring5"":1,""liking5"":1,""protection5"":2}","[0,1,2,3,4,5,6,7,8,9,10,11,12,13,14]"
"","","","","","html-button-response","146","684949","0.0-19.0","6","1","2022-10-06 09:22:38","ab77af23db77f379346475f7099b4f97","219.142.99.25","Mozilla/5.0 (iPhone; CPU iPhone OS 16_0_2 like Mac OS X) AppleWebKit/605.1.15 (KHTML, like Gecko) Version/16.0 Mobile/15E148 Safari/604.1","iPhone","Safari","16.0","iOS","16_0_2","1394","<p><strong>请判断下列场景中你的内心感受有多柔软。</strong></p>","0",""
"","","","","","survey-likert","147","707419","0.0-20.0","6","1","2022-10-06 09:22:38","ab77af23db77f379346475f7099b4f97","219.142.99.25","Mozilla/5.0 (iPhone; CPU iPhone OS 16_0_2 like Mac OS X) AppleWebKit/605.1.15 (KHTML, like Gecko) Version/16.0 Mobile/15E148 Safari/604.1","iPhone","Safari","16.0","iOS","16_0_2","22459","","{""tenderness-positive1"":3,""tenderness-negative1"":1,""tenderness-negative2"":0,""tenderness-positive2"":3,""tenderness-positive3"":3,""tenderness-negative3"":2,""tenderness-positive4"":3,""tendereness-negative4"":3,""tendernness-negative5"":3,""tenderness-positive5"":2}","[0,1,2,3,4,5,6,7,8,9]"
"","","","","","survey-multi-choice","148","718462","0.0-21.0","6","1","2022-10-06 09:22:38","ab77af23db77f379346475f7099b4f97","219.142.99.25","Mozilla/5.0 (iPhone; CPU iPhone OS 16_0_2 like Mac OS X) AppleWebKit/605.1.15 (KHTML, like Gecko) Version/16.0 Mobile/15E148 Safari/604.1","iPhone","Safari","16.0","iOS","16_0_2","11036","","{""Attention2"":""其他""}","[0]"
"","","","","","html-button-response","149","719615","0.0-22.0","6","1","2022-10-06 09:22:38","ab77af23db77f379346475f7099b4f97","219.142.99.25","Mozilla/5.0 (iPhone; CPU iPhone OS 16_0_2 like Mac OS X) AppleWebKit/605.1.15 (KHTML, like Gecko) Version/16.0 Mobile/15E148 Safari/604.1","iPhone","Safari","16.0","iOS","16_0_2","1143","<p><strong>请判断你在多大程度上同意下列陈述。</strong></p>","0",""
"","","","","","survey-likert","150","789854","0.0-23.0","6","1","2022-10-06 09:22:38","ab77af23db77f379346475f7099b4f97","219.142.99.25","Mozilla/5.0 (iPhone; CPU iPhone OS 16_0_2 like Mac OS X) AppleWebKit/605.1.15 (KHTML, like Gecko) Version/16.0 Mobile/15E148 Safari/604.1","iPhone","Safari","16.0","iOS","16_0_2","70224","","{""Nation3"":3,""Patri1"":4,""Nation2"":2,""Patri8"":4,""Patri3"":4,""Patri5"":4,""Patri11"":0,""Patri4"":4,""Nation7"":4,""Nation4"":2,""Nation8"":2,""Patri2"":4,""Patri9"":1,""Patri10"":1,""Nation5"":2,""Patri7"":4,""Nation1"":0,""Nation6"":2,""Patri12"":2,""Patri6"":0}","[14,0,13,7,2,4,10,3,18,15,19,1,8,9,16,6,12,17,11,5]"
"","","","","","html-button-response","151","791647","0.0-24.0","6","1","2022-10-06 09:22:38","ab77af23db77f379346475f7099b4f97","219.142.99.25","Mozilla/5.0 (iPhone; CPU iPhone OS 16_0_2 like Mac OS X) AppleWebKit/605.1.15 (KHTML, like Gecko) Version/16.0 Mobile/15E148 Safari/604.1","iPhone","Safari","16.0","iOS","16_0_2","1786","<p><strong>请判断你在多大程度上同意下列陈述。</strong></p>","0",""
"","","","","","survey-likert","152","894035","0.0-25.0","6","1","2022-10-06 09:22:38","ab77af23db77f379346475f7099b4f97","219.142.99.25","Mozilla/5.0 (iPhone; CPU iPhone OS 16_0_2 like Mac OS X) AppleWebKit/605.1.15 (KHTML, like Gecko) Version/16.0 Mobile/15E148 Safari/604.1","iPhone","Safari","16.0","iOS","16_0_2","102371","","{""hi4"":8,""hc3"":4,""vc3"":4,""hc4"":3,""hc1"":7,""vi2"":1,""vi3"":7,""Robot"":6,""vi4"":1,""vc2"":5,""hi3"":7,""hi1"":8,""vc1"":4,""hc2"":7,""vc4"":5,""hi2"":4,""vi1"":0}","[3,11,15,12,9,5,6,7,8,14,2,0,13,10,16,1,4]"
"","","","","","survey-text","153","1005557","0.0-26.0","6","1","2022-10-06 09:22:38","ab77af23db77f379346475f7099b4f97","219.142.99.25","Mozilla/5.0 (iPhone; CPU iPhone OS 16_0_2 like Mac OS X) AppleWebKit/605.1.15 (KHTML, like Gecko) Version/16.0 Mobile/15E148 Safari/604.1","iPhone","Safari","16.0","iOS","16_0_2","111431","","{""Comments"":""如果问卷可以往前翻页会更好，第一部分有时候会一不小心点错""}",""
"","","","","","html-button-response","154","1006614","0.0-27.0","6","1","2022-10-06 09:22:38","ab77af23db77f379346475f7099b4f97","219.142.99.25","Mozilla/5.0 (iPhone; CPU iPhone OS 16_0_2 like Mac OS X) AppleWebKit/605.1.15 (KHTML, like Gecko) Version/16.0 Mobile/15E148 Safari/604.1","iPhone","Safari","16.0","iOS","16_0_2","1050","<strong><p>恭喜你完成了实验！</p><p>感谢您的参与。</p></strong>","0",""
