"success","timeout","failed_images","failed_audio","failed_video","trial_type","trial_index","time_elapsed","internal_node_id","run_id","condition","recorded_at","source_code_version","ip","user_agent","device","browser","browser_version","platform","platform_version","rt","stimulus","response","question_order"
"true","false","[]","[]","[]","preload","0","3265","0.0-0.0","62","1","2022-10-07 07:09:44","d60b49b5908c80e163b920d72b52d584","39.86.249.160","Mozilla/5.0 (Windows NT 10.0; Win64; x64) AppleWebKit/537.36 (KHTML, like Gecko) Chrome/103.0.5060.53 Safari/537.36 Edg/103.0.1264.37","WebKit","Edge","103.0.1264.37","Windows","10.0","","","",""
"true","","","","","fullscreen","1","6566","0.0-1.0","62","1","2022-10-07 07:09:44","d60b49b5908c80e163b920d72b52d584","39.86.249.160","Mozilla/5.0 (Windows NT 10.0; Win64; x64) AppleWebKit/537.36 (KHTML, like Gecko) Chrome/103.0.5060.53 Safari/537.36 Edg/103.0.1264.37","WebKit","Edge","103.0.1264.37","Windows","10.0","","","",""
"","","","","","html-button-response","2","37972","0.0-2.0","62","1","2022-10-07 07:09:44","d60b49b5908c80e163b920d72b52d584","39.86.249.160","Mozilla/5.0 (Windows NT 10.0; Win64; x64) AppleWebKit/537.36 (KHTML, like Gecko) Chrome/103.0.5060.53 Safari/537.36 Edg/103.0.1264.37","WebKit","Edge","103.0.1264.37","Windows","10.0","31405","<p style=""font-size:20px;font-weight:bold;"">实验知情同意书</p><p style=""text-align:left;""><strong>实验名称：</strong>社会冲突研究</p><p style=""text-align:left;""><strong>主要研究者：</strong>韩晓春副教授（北京师范大学心理学部）</p><p style=""text-align:left;""><strong>联系方式：</strong>发送邮件至xiaochun.han@bnu.edu.cn</p><p style=""text-align:left;""><strong>研究目的：</strong>研究旨在了解人类面对群体冲突时的决策方式，以及相关的心理学特质。实验调查大约需要20分钟。</p><p style=""text-align:left;""><strong>实验流程：</strong>实验包含两部分。第一部分呈现一系列群体冲突场景，请你决定如何对这些冲突进行反应，大约需要10分钟完成。第二部分包含一系列人口统计学信息收集和心理学问卷，大约需要10分钟完成。</p><p style=""text-align:left;""><strong>参加及退出规则：</strong>参加本实验完全取决于您的个人意愿。在参与过程中，您可以随时退出，并且不用承担任何后果。</p><p style=""text-align:left;""><strong>隐私：</strong>本实验完全匿名进行，不会收集您的姓名或其他能够识别您身份的信息。实验中收集的作答仅用作科学研究使用，可能会在学术期刊/书籍上发表，或者用于教学，您的数据未来可能会和其他研究者或实验室分享，但您的个人身份不会被识别。</p><p style=""text-align:left;""><strong>实验报酬：</strong>实验完成后，您将获得15元人民币报酬，以感谢您的时间和努力。调查问卷中包含几道题目用以测验您作答时的认真度。只有完成全部实验，并且正确回答认真度测验的被试才能获得实验报酬。实验报酬将通过支付宝转账发放。</p><p style=""text-align:left;font-size:20px;""><strong>如果您同意以上实验知情同意书的内容，请点击'同意并且开始实验'按钮；否则请关闭浏览器界面，退出实验。</strong></p>","0",""
"","","","","","html-button-response","3","57323","0.0-3.0","62","1","2022-10-07 07:09:44","d60b49b5908c80e163b920d72b52d584","39.86.249.160","Mozilla/5.0 (Windows NT 10.0; Win64; x64) AppleWebKit/537.36 (KHTML, like Gecko) Chrome/103.0.5060.53 Safari/537.36 Edg/103.0.1264.37","WebKit","Edge","103.0.1264.37","Windows","10.0","19349","<p ><strong>实验任务一：</strong></p><p>请想象你的国家与另一个国家发生了军事冲突。</p><p>你是国家军队的指挥官，你将如何在冲突中进行决策。</p><p>具体来说，作为军队指挥官，请你决定是否发射导弹进行打击。</p><p>接下来，你会面对一系列场景，请仔细阅读每个场景，然后进行决策。</p><p>这部分实验任务大约需要10分钟。</p><p><strong>实验过程中，请集中注意力。</strong></p>","0",""
"","","","","","html-keyboard-response","4","58324","0.0-4.0-0.0","62","1","2022-10-07 07:09:44","d60b49b5908c80e163b920d72b52d584","39.86.249.160","Mozilla/5.0 (Windows NT 10.0; Win64; x64) AppleWebKit/537.36 (KHTML, like Gecko) Chrome/103.0.5060.53 Safari/537.36 Edg/103.0.1264.37","WebKit","Edge","103.0.1264.37","Windows","10.0","null","<div style=""font-size:60px;"">+</div>","null",""
"","","","","","html-button-response","5","71821","0.0-4.0-1.0","62","1","2022-10-07 07:09:44","d60b49b5908c80e163b920d72b52d584","39.86.249.160","Mozilla/5.0 (Windows NT 10.0; Win64; x64) AppleWebKit/537.36 (KHTML, like Gecko) Chrome/103.0.5060.53 Safari/537.36 Edg/103.0.1264.37","WebKit","Edge","103.0.1264.37","Windows","10.0","13495","<p>作为军队的指挥官，你可以选择发射导弹杀死 <strong>10名</strong> 敌国士兵，但会误杀附近的 <strong>1名</strong> 敌国平民。</p> <p>平民照片如下图所示。</p> <p></p> <img src='stimuli/faces/NCF1.jpg', style='max-width: 30%;'> </img> <p><strong>你是否选择发射武器？</strong></p>","0",""
"","","","","","html-keyboard-response","6","72837","0.0-4.0-0.1","62","1","2022-10-07 07:09:44","d60b49b5908c80e163b920d72b52d584","39.86.249.160","Mozilla/5.0 (Windows NT 10.0; Win64; x64) AppleWebKit/537.36 (KHTML, like Gecko) Chrome/103.0.5060.53 Safari/537.36 Edg/103.0.1264.37","WebKit","Edge","103.0.1264.37","Windows","10.0","null","<div style=""font-size:60px;"">+</div>","null",""
"","","","","","html-button-response","7","77813","0.0-4.0-1.1","62","1","2022-10-07 07:09:44","d60b49b5908c80e163b920d72b52d584","39.86.249.160","Mozilla/5.0 (Windows NT 10.0; Win64; x64) AppleWebKit/537.36 (KHTML, like Gecko) Chrome/103.0.5060.53 Safari/537.36 Edg/103.0.1264.37","WebKit","Edge","103.0.1264.37","Windows","10.0","4975","<p>作为军队的指挥官，你可以选择发射导弹杀死 <strong>6名</strong> 敌国士兵，但会炸毁附近的 <strong>1棵</strong> 敌国树木。</p> <p>树木的照片如下图所示。</p> <p></p> <img src='stimuli/trees/8.png', style='max-width: 30%;'> </img> <p><strong>你是否选择发射武器？</strong></p>","0",""
"","","","","","html-keyboard-response","8","78827","0.0-4.0-0.2","62","1","2022-10-07 07:09:44","d60b49b5908c80e163b920d72b52d584","39.86.249.160","Mozilla/5.0 (Windows NT 10.0; Win64; x64) AppleWebKit/537.36 (KHTML, like Gecko) Chrome/103.0.5060.53 Safari/537.36 Edg/103.0.1264.37","WebKit","Edge","103.0.1264.37","Windows","10.0","null","<div style=""font-size:60px;"">+</div>","null",""
"","","","","","html-button-response","9","84546","0.0-4.0-1.2","62","1","2022-10-07 07:09:44","d60b49b5908c80e163b920d72b52d584","39.86.249.160","Mozilla/5.0 (Windows NT 10.0; Win64; x64) AppleWebKit/537.36 (KHTML, like Gecko) Chrome/103.0.5060.53 Safari/537.36 Edg/103.0.1264.37","WebKit","Edge","103.0.1264.37","Windows","10.0","5717","<p>作为军队的指挥官，你可以选择发射导弹杀死 <strong>8名</strong> 敌国士兵，但会误杀附近的 <strong>1名</strong> 敌国平民。</p> <p>平民照片如下图所示。</p> <p></p> <img src='stimuli/faces/NCM6.jpg', style='max-width: 30%;'> </img> <p><strong>你是否选择发射武器？</strong></p>","1",""
"","","","","","html-keyboard-response","10","85560","0.0-4.0-0.3","62","1","2022-10-07 07:09:44","d60b49b5908c80e163b920d72b52d584","39.86.249.160","Mozilla/5.0 (Windows NT 10.0; Win64; x64) AppleWebKit/537.36 (KHTML, like Gecko) Chrome/103.0.5060.53 Safari/537.36 Edg/103.0.1264.37","WebKit","Edge","103.0.1264.37","Windows","10.0","null","<div style=""font-size:60px;"">+</div>","null",""
"","","","","","html-button-response","11","92640","0.0-4.0-1.3","62","1","2022-10-07 07:09:44","d60b49b5908c80e163b920d72b52d584","39.86.249.160","Mozilla/5.0 (Windows NT 10.0; Win64; x64) AppleWebKit/537.36 (KHTML, like Gecko) Chrome/103.0.5060.53 Safari/537.36 Edg/103.0.1264.37","WebKit","Edge","103.0.1264.37","Windows","10.0","7078","<p>作为军队的指挥官，你可以选择发射导弹杀死 <strong>9名</strong> 敌国士兵，但会误杀附近的 <strong>1名</strong> 敌国平民。</p> <p>平民照片如下图所示。</p> <p></p> <img src='stimuli/faces/NCF3.jpg', style='max-width: 30%;'> </img> <p><strong>你是否选择发射武器？</strong></p>","1",""
"","","","","","html-keyboard-response","12","93645","0.0-4.0-0.4","62","1","2022-10-07 07:09:44","d60b49b5908c80e163b920d72b52d584","39.86.249.160","Mozilla/5.0 (Windows NT 10.0; Win64; x64) AppleWebKit/537.36 (KHTML, like Gecko) Chrome/103.0.5060.53 Safari/537.36 Edg/103.0.1264.37","WebKit","Edge","103.0.1264.37","Windows","10.0","null","<div style=""font-size:60px;"">+</div>","null",""
"","","","","","html-button-response","13","97397","0.0-4.0-1.4","62","1","2022-10-07 07:09:44","d60b49b5908c80e163b920d72b52d584","39.86.249.160","Mozilla/5.0 (Windows NT 10.0; Win64; x64) AppleWebKit/537.36 (KHTML, like Gecko) Chrome/103.0.5060.53 Safari/537.36 Edg/103.0.1264.37","WebKit","Edge","103.0.1264.37","Windows","10.0","3749","<p>作为军队的指挥官，你可以选择发射导弹杀死 <strong>3名</strong> 敌国士兵，但会炸毁附近的 <strong>1棵</strong> 敌国树木。</p> <p>树木的照片如下图所示。</p> <p></p> <img src='stimuli/trees/15.png', style='max-width: 30%;'> </img> <p><strong>你是否选择发射武器？</strong></p>","0",""
"","","","","","html-keyboard-response","14","98408","0.0-4.0-0.5","62","1","2022-10-07 07:09:44","d60b49b5908c80e163b920d72b52d584","39.86.249.160","Mozilla/5.0 (Windows NT 10.0; Win64; x64) AppleWebKit/537.36 (KHTML, like Gecko) Chrome/103.0.5060.53 Safari/537.36 Edg/103.0.1264.37","WebKit","Edge","103.0.1264.37","Windows","10.0","null","<div style=""font-size:60px;"">+</div>","null",""
"","","","","","html-button-response","15","101394","0.0-4.0-1.5","62","1","2022-10-07 07:09:44","d60b49b5908c80e163b920d72b52d584","39.86.249.160","Mozilla/5.0 (Windows NT 10.0; Win64; x64) AppleWebKit/537.36 (KHTML, like Gecko) Chrome/103.0.5060.53 Safari/537.36 Edg/103.0.1264.37","WebKit","Edge","103.0.1264.37","Windows","10.0","2985","<p>作为军队的指挥官，你可以选择发射导弹杀死 <strong>7名</strong> 敌国士兵，但会误杀附近的 <strong>1名</strong> 敌国平民。</p> <p>平民照片如下图所示。</p> <p></p> <img src='stimuli/faces/NCM4.jpg', style='max-width: 30%;'> </img> <p><strong>你是否选择发射武器？</strong></p>","1",""
"","","","","","html-keyboard-response","16","102395","0.0-4.0-0.6","62","1","2022-10-07 07:09:44","d60b49b5908c80e163b920d72b52d584","39.86.249.160","Mozilla/5.0 (Windows NT 10.0; Win64; x64) AppleWebKit/537.36 (KHTML, like Gecko) Chrome/103.0.5060.53 Safari/537.36 Edg/103.0.1264.37","WebKit","Edge","103.0.1264.37","Windows","10.0","null","<div style=""font-size:60px;"">+</div>","null",""
"","","","","","html-button-response","17","106330","0.0-4.0-1.6","62","1","2022-10-07 07:09:44","d60b49b5908c80e163b920d72b52d584","39.86.249.160","Mozilla/5.0 (Windows NT 10.0; Win64; x64) AppleWebKit/537.36 (KHTML, like Gecko) Chrome/103.0.5060.53 Safari/537.36 Edg/103.0.1264.37","WebKit","Edge","103.0.1264.37","Windows","10.0","3933","<p>作为军队的指挥官，你可以选择发射导弹杀死 <strong>9名</strong> 敌国士兵，但会误杀附近的 <strong>1名</strong> 敌国平民。</p> <p>平民照片如下图所示。</p> <p></p> <img src='stimuli/faces/NCF4.jpg', style='max-width: 30%;'> </img> <p><strong>你是否选择发射武器？</strong></p>","1",""
"","","","","","html-keyboard-response","18","107333","0.0-4.0-0.7","62","1","2022-10-07 07:09:44","d60b49b5908c80e163b920d72b52d584","39.86.249.160","Mozilla/5.0 (Windows NT 10.0; Win64; x64) AppleWebKit/537.36 (KHTML, like Gecko) Chrome/103.0.5060.53 Safari/537.36 Edg/103.0.1264.37","WebKit","Edge","103.0.1264.37","Windows","10.0","null","<div style=""font-size:60px;"">+</div>","null",""
"","","","","","html-button-response","19","114717","0.0-4.0-1.7","62","1","2022-10-07 07:09:44","d60b49b5908c80e163b920d72b52d584","39.86.249.160","Mozilla/5.0 (Windows NT 10.0; Win64; x64) AppleWebKit/537.36 (KHTML, like Gecko) Chrome/103.0.5060.53 Safari/537.36 Edg/103.0.1264.37","WebKit","Edge","103.0.1264.37","Windows","10.0","7382","<p>作为军队的指挥官，你可以选择发射导弹杀死 <strong>2名</strong> 敌国士兵，但会炸毁附近的 <strong>1棵</strong> 敌国树木。</p> <p>树木的照片如下图所示。</p> <p></p> <img src='stimuli/trees/4.png', style='max-width: 30%;'> </img> <p><strong>你是否选择发射武器？</strong></p>","0",""
"","","","","","html-keyboard-response","20","115729","0.0-4.0-0.8","62","1","2022-10-07 07:09:44","d60b49b5908c80e163b920d72b52d584","39.86.249.160","Mozilla/5.0 (Windows NT 10.0; Win64; x64) AppleWebKit/537.36 (KHTML, like Gecko) Chrome/103.0.5060.53 Safari/537.36 Edg/103.0.1264.37","WebKit","Edge","103.0.1264.37","Windows","10.0","null","<div style=""font-size:60px;"">+</div>","null",""
"","","","","","html-button-response","21","118169","0.0-4.0-1.8","62","1","2022-10-07 07:09:44","d60b49b5908c80e163b920d72b52d584","39.86.249.160","Mozilla/5.0 (Windows NT 10.0; Win64; x64) AppleWebKit/537.36 (KHTML, like Gecko) Chrome/103.0.5060.53 Safari/537.36 Edg/103.0.1264.37","WebKit","Edge","103.0.1264.37","Windows","10.0","2438","<p>作为军队的指挥官，你可以选择发射导弹杀死 <strong>7名</strong> 敌国士兵，但会炸毁附近的 <strong>1棵</strong> 敌国树木。</p> <p>树木的照片如下图所示。</p> <p></p> <img src='stimuli/trees/11.png', style='max-width: 30%;'> </img> <p><strong>你是否选择发射武器？</strong></p>","0",""
"","","","","","html-keyboard-response","22","119183","0.0-4.0-0.9","62","1","2022-10-07 07:09:44","d60b49b5908c80e163b920d72b52d584","39.86.249.160","Mozilla/5.0 (Windows NT 10.0; Win64; x64) AppleWebKit/537.36 (KHTML, like Gecko) Chrome/103.0.5060.53 Safari/537.36 Edg/103.0.1264.37","WebKit","Edge","103.0.1264.37","Windows","10.0","null","<div style=""font-size:60px;"">+</div>","null",""
"","","","","","html-button-response","23","122905","0.0-4.0-1.9","62","1","2022-10-07 07:09:44","d60b49b5908c80e163b920d72b52d584","39.86.249.160","Mozilla/5.0 (Windows NT 10.0; Win64; x64) AppleWebKit/537.36 (KHTML, like Gecko) Chrome/103.0.5060.53 Safari/537.36 Edg/103.0.1264.37","WebKit","Edge","103.0.1264.37","Windows","10.0","3720","<p>作为军队的指挥官，你可以选择发射导弹杀死 <strong>1名</strong> 敌国士兵，但会炸毁附近的 <strong>1棵</strong> 敌国树木。</p> <p>树木的照片如下图所示。</p> <p></p> <img src='stimuli/trees/11.png', style='max-width: 30%;'> </img> <p><strong>你是否选择发射武器？</strong></p>","0",""
"","","","","","html-keyboard-response","24","123909","0.0-4.0-0.10","62","1","2022-10-07 07:09:44","d60b49b5908c80e163b920d72b52d584","39.86.249.160","Mozilla/5.0 (Windows NT 10.0; Win64; x64) AppleWebKit/537.36 (KHTML, like Gecko) Chrome/103.0.5060.53 Safari/537.36 Edg/103.0.1264.37","WebKit","Edge","103.0.1264.37","Windows","10.0","null","<div style=""font-size:60px;"">+</div>","null",""
"","","","","","html-button-response","25","126792","0.0-4.0-1.10","62","1","2022-10-07 07:09:44","d60b49b5908c80e163b920d72b52d584","39.86.249.160","Mozilla/5.0 (Windows NT 10.0; Win64; x64) AppleWebKit/537.36 (KHTML, like Gecko) Chrome/103.0.5060.53 Safari/537.36 Edg/103.0.1264.37","WebKit","Edge","103.0.1264.37","Windows","10.0","2882","<p>作为军队的指挥官，你可以选择发射导弹杀死 <strong>7名</strong> 敌国士兵，但会炸毁附近的 <strong>1棵</strong> 敌国树木。</p> <p>树木的照片如下图所示。</p> <p></p> <img src='stimuli/trees/6.png', style='max-width: 30%;'> </img> <p><strong>你是否选择发射武器？</strong></p>","0",""
"","","","","","html-keyboard-response","26","127797","0.0-4.0-0.11","62","1","2022-10-07 07:09:44","d60b49b5908c80e163b920d72b52d584","39.86.249.160","Mozilla/5.0 (Windows NT 10.0; Win64; x64) AppleWebKit/537.36 (KHTML, like Gecko) Chrome/103.0.5060.53 Safari/537.36 Edg/103.0.1264.37","WebKit","Edge","103.0.1264.37","Windows","10.0","null","<div style=""font-size:60px;"">+</div>","null",""
"","","","","","html-button-response","27","129969","0.0-4.0-1.11","62","1","2022-10-07 07:09:44","d60b49b5908c80e163b920d72b52d584","39.86.249.160","Mozilla/5.0 (Windows NT 10.0; Win64; x64) AppleWebKit/537.36 (KHTML, like Gecko) Chrome/103.0.5060.53 Safari/537.36 Edg/103.0.1264.37","WebKit","Edge","103.0.1264.37","Windows","10.0","2170","<p>作为军队的指挥官，你可以选择发射导弹杀死 <strong>1名</strong> 敌国士兵，但会误杀附近的 <strong>1名</strong> 敌国平民。</p> <p>平民照片如下图所示。</p> <p></p> <img src='stimuli/faces/NCF8.jpg', style='max-width: 30%;'> </img> <p><strong>你是否选择发射武器？</strong></p>","1",""
"","","","","","html-keyboard-response","28","130987","0.0-4.0-0.12","62","1","2022-10-07 07:09:44","d60b49b5908c80e163b920d72b52d584","39.86.249.160","Mozilla/5.0 (Windows NT 10.0; Win64; x64) AppleWebKit/537.36 (KHTML, like Gecko) Chrome/103.0.5060.53 Safari/537.36 Edg/103.0.1264.37","WebKit","Edge","103.0.1264.37","Windows","10.0","null","<div style=""font-size:60px;"">+</div>","null",""
"","","","","","html-button-response","29","136199","0.0-4.0-1.12","62","1","2022-10-07 07:09:44","d60b49b5908c80e163b920d72b52d584","39.86.249.160","Mozilla/5.0 (Windows NT 10.0; Win64; x64) AppleWebKit/537.36 (KHTML, like Gecko) Chrome/103.0.5060.53 Safari/537.36 Edg/103.0.1264.37","WebKit","Edge","103.0.1264.37","Windows","10.0","5210","<p>作为军队的指挥官，你可以选择发射导弹杀死 <strong>2名</strong> 敌国士兵，但会炸毁附近的 <strong>1棵</strong> 敌国树木。</p> <p>树木的照片如下图所示。</p> <p></p> <img src='stimuli/trees/10.png', style='max-width: 30%;'> </img> <p><strong>你是否选择发射武器？</strong></p>","0",""
"","","","","","html-keyboard-response","30","137205","0.0-4.0-0.13","62","1","2022-10-07 07:09:44","d60b49b5908c80e163b920d72b52d584","39.86.249.160","Mozilla/5.0 (Windows NT 10.0; Win64; x64) AppleWebKit/537.36 (KHTML, like Gecko) Chrome/103.0.5060.53 Safari/537.36 Edg/103.0.1264.37","WebKit","Edge","103.0.1264.37","Windows","10.0","null","<div style=""font-size:60px;"">+</div>","null",""
"","","","","","html-button-response","31","141133","0.0-4.0-1.13","62","1","2022-10-07 07:09:44","d60b49b5908c80e163b920d72b52d584","39.86.249.160","Mozilla/5.0 (Windows NT 10.0; Win64; x64) AppleWebKit/537.36 (KHTML, like Gecko) Chrome/103.0.5060.53 Safari/537.36 Edg/103.0.1264.37","WebKit","Edge","103.0.1264.37","Windows","10.0","3925","<p>作为军队的指挥官，你可以选择发射导弹杀死 <strong>6名</strong> 敌国士兵，但会炸毁附近的 <strong>1棵</strong> 敌国树木。</p> <p>树木的照片如下图所示。</p> <p></p> <img src='stimuli/trees/13.png', style='max-width: 30%;'> </img> <p><strong>你是否选择发射武器？</strong></p>","0",""
"","","","","","html-keyboard-response","32","142135","0.0-4.0-0.14","62","1","2022-10-07 07:09:44","d60b49b5908c80e163b920d72b52d584","39.86.249.160","Mozilla/5.0 (Windows NT 10.0; Win64; x64) AppleWebKit/537.36 (KHTML, like Gecko) Chrome/103.0.5060.53 Safari/537.36 Edg/103.0.1264.37","WebKit","Edge","103.0.1264.37","Windows","10.0","null","<div style=""font-size:60px;"">+</div>","null",""
"","","","","","html-button-response","33","144983","0.0-4.0-1.14","62","1","2022-10-07 07:09:44","d60b49b5908c80e163b920d72b52d584","39.86.249.160","Mozilla/5.0 (Windows NT 10.0; Win64; x64) AppleWebKit/537.36 (KHTML, like Gecko) Chrome/103.0.5060.53 Safari/537.36 Edg/103.0.1264.37","WebKit","Edge","103.0.1264.37","Windows","10.0","2846","<p>作为军队的指挥官，你可以选择发射导弹杀死 <strong>5名</strong> 敌国士兵，但会误杀附近的 <strong>1名</strong> 敌国平民。</p> <p>平民照片如下图所示。</p> <p></p> <img src='stimuli/faces/NCF2.jpg', style='max-width: 30%;'> </img> <p><strong>你是否选择发射武器？</strong></p>","1",""
"","","","","","html-keyboard-response","34","145985","0.0-4.0-0.15","62","1","2022-10-07 07:09:44","d60b49b5908c80e163b920d72b52d584","39.86.249.160","Mozilla/5.0 (Windows NT 10.0; Win64; x64) AppleWebKit/537.36 (KHTML, like Gecko) Chrome/103.0.5060.53 Safari/537.36 Edg/103.0.1264.37","WebKit","Edge","103.0.1264.37","Windows","10.0","null","<div style=""font-size:60px;"">+</div>","null",""
"","","","","","html-button-response","35","149266","0.0-4.0-1.15","62","1","2022-10-07 07:09:44","d60b49b5908c80e163b920d72b52d584","39.86.249.160","Mozilla/5.0 (Windows NT 10.0; Win64; x64) AppleWebKit/537.36 (KHTML, like Gecko) Chrome/103.0.5060.53 Safari/537.36 Edg/103.0.1264.37","WebKit","Edge","103.0.1264.37","Windows","10.0","3278","<p>作为军队的指挥官，你可以选择发射导弹杀死 <strong>4名</strong> 敌国士兵，但会炸毁附近的 <strong>1棵</strong> 敌国树木。</p> <p>树木的照片如下图所示。</p> <p></p> <img src='stimuli/trees/9.png', style='max-width: 30%;'> </img> <p><strong>你是否选择发射武器？</strong></p>","0",""
"","","","","","html-keyboard-response","36","150272","0.0-4.0-0.16","62","1","2022-10-07 07:09:44","d60b49b5908c80e163b920d72b52d584","39.86.249.160","Mozilla/5.0 (Windows NT 10.0; Win64; x64) AppleWebKit/537.36 (KHTML, like Gecko) Chrome/103.0.5060.53 Safari/537.36 Edg/103.0.1264.37","WebKit","Edge","103.0.1264.37","Windows","10.0","null","<div style=""font-size:60px;"">+</div>","null",""
"","","","","","html-button-response","37","153018","0.0-4.0-1.16","62","1","2022-10-07 07:09:44","d60b49b5908c80e163b920d72b52d584","39.86.249.160","Mozilla/5.0 (Windows NT 10.0; Win64; x64) AppleWebKit/537.36 (KHTML, like Gecko) Chrome/103.0.5060.53 Safari/537.36 Edg/103.0.1264.37","WebKit","Edge","103.0.1264.37","Windows","10.0","2744","<p>作为军队的指挥官，你可以选择发射导弹杀死 <strong>1名</strong> 敌国士兵，但会误杀附近的 <strong>1名</strong> 敌国平民。</p> <p>平民照片如下图所示。</p> <p></p> <img src='stimuli/faces/NCF3.jpg', style='max-width: 30%;'> </img> <p><strong>你是否选择发射武器？</strong></p>","1",""
"","","","","","html-keyboard-response","38","154023","0.0-4.0-0.17","62","1","2022-10-07 07:09:44","d60b49b5908c80e163b920d72b52d584","39.86.249.160","Mozilla/5.0 (Windows NT 10.0; Win64; x64) AppleWebKit/537.36 (KHTML, like Gecko) Chrome/103.0.5060.53 Safari/537.36 Edg/103.0.1264.37","WebKit","Edge","103.0.1264.37","Windows","10.0","null","<div style=""font-size:60px;"">+</div>","null",""
"","","","","","html-button-response","39","156755","0.0-4.0-1.17","62","1","2022-10-07 07:09:44","d60b49b5908c80e163b920d72b52d584","39.86.249.160","Mozilla/5.0 (Windows NT 10.0; Win64; x64) AppleWebKit/537.36 (KHTML, like Gecko) Chrome/103.0.5060.53 Safari/537.36 Edg/103.0.1264.37","WebKit","Edge","103.0.1264.37","Windows","10.0","2730","<p>作为军队的指挥官，你可以选择发射导弹杀死 <strong>2名</strong> 敌国士兵，但会炸毁附近的 <strong>1棵</strong> 敌国树木。</p> <p>树木的照片如下图所示。</p> <p></p> <img src='stimuli/trees/2.png', style='max-width: 30%;'> </img> <p><strong>你是否选择发射武器？</strong></p>","0",""
"","","","","","html-keyboard-response","40","157759","0.0-4.0-0.18","62","1","2022-10-07 07:09:44","d60b49b5908c80e163b920d72b52d584","39.86.249.160","Mozilla/5.0 (Windows NT 10.0; Win64; x64) AppleWebKit/537.36 (KHTML, like Gecko) Chrome/103.0.5060.53 Safari/537.36 Edg/103.0.1264.37","WebKit","Edge","103.0.1264.37","Windows","10.0","null","<div style=""font-size:60px;"">+</div>","null",""
"","","","","","html-button-response","41","160197","0.0-4.0-1.18","62","1","2022-10-07 07:09:44","d60b49b5908c80e163b920d72b52d584","39.86.249.160","Mozilla/5.0 (Windows NT 10.0; Win64; x64) AppleWebKit/537.36 (KHTML, like Gecko) Chrome/103.0.5060.53 Safari/537.36 Edg/103.0.1264.37","WebKit","Edge","103.0.1264.37","Windows","10.0","2436","<p>作为军队的指挥官，你可以选择发射导弹杀死 <strong>2名</strong> 敌国士兵，但会误杀附近的 <strong>1名</strong> 敌国平民。</p> <p>平民照片如下图所示。</p> <p></p> <img src='stimuli/faces/NCM8.jpg', style='max-width: 30%;'> </img> <p><strong>你是否选择发射武器？</strong></p>","1",""
"","","","","","html-keyboard-response","42","161213","0.0-4.0-0.19","62","1","2022-10-07 07:09:44","d60b49b5908c80e163b920d72b52d584","39.86.249.160","Mozilla/5.0 (Windows NT 10.0; Win64; x64) AppleWebKit/537.36 (KHTML, like Gecko) Chrome/103.0.5060.53 Safari/537.36 Edg/103.0.1264.37","WebKit","Edge","103.0.1264.37","Windows","10.0","null","<div style=""font-size:60px;"">+</div>","null",""
"","","","","","html-button-response","43","163112","0.0-4.0-1.19","62","1","2022-10-07 07:09:44","d60b49b5908c80e163b920d72b52d584","39.86.249.160","Mozilla/5.0 (Windows NT 10.0; Win64; x64) AppleWebKit/537.36 (KHTML, like Gecko) Chrome/103.0.5060.53 Safari/537.36 Edg/103.0.1264.37","WebKit","Edge","103.0.1264.37","Windows","10.0","1897","<p>作为军队的指挥官，你可以选择发射导弹杀死 <strong>5名</strong> 敌国士兵，但会误杀附近的 <strong>1名</strong> 敌国平民。</p> <p>平民照片如下图所示。</p> <p></p> <img src='stimuli/faces/NCF6.jpg', style='max-width: 30%;'> </img> <p><strong>你是否选择发射武器？</strong></p>","1",""
"","","","","","html-keyboard-response","44","164113","0.0-4.0-0.20","62","1","2022-10-07 07:09:44","d60b49b5908c80e163b920d72b52d584","39.86.249.160","Mozilla/5.0 (Windows NT 10.0; Win64; x64) AppleWebKit/537.36 (KHTML, like Gecko) Chrome/103.0.5060.53 Safari/537.36 Edg/103.0.1264.37","WebKit","Edge","103.0.1264.37","Windows","10.0","null","<div style=""font-size:60px;"">+</div>","null",""
"","","","","","html-button-response","45","166497","0.0-4.0-1.20","62","1","2022-10-07 07:09:44","d60b49b5908c80e163b920d72b52d584","39.86.249.160","Mozilla/5.0 (Windows NT 10.0; Win64; x64) AppleWebKit/537.36 (KHTML, like Gecko) Chrome/103.0.5060.53 Safari/537.36 Edg/103.0.1264.37","WebKit","Edge","103.0.1264.37","Windows","10.0","2382","<p>作为军队的指挥官，你可以选择发射导弹杀死 <strong>1名</strong> 敌国士兵，但会误杀附近的 <strong>1名</strong> 敌国平民。</p> <p>平民照片如下图所示。</p> <p></p> <img src='stimuli/faces/NCM6.jpg', style='max-width: 30%;'> </img> <p><strong>你是否选择发射武器？</strong></p>","1",""
"","","","","","html-keyboard-response","46","167502","0.0-4.0-0.21","62","1","2022-10-07 07:09:44","d60b49b5908c80e163b920d72b52d584","39.86.249.160","Mozilla/5.0 (Windows NT 10.0; Win64; x64) AppleWebKit/537.36 (KHTML, like Gecko) Chrome/103.0.5060.53 Safari/537.36 Edg/103.0.1264.37","WebKit","Edge","103.0.1264.37","Windows","10.0","null","<div style=""font-size:60px;"">+</div>","null",""
"","","","","","html-button-response","47","170471","0.0-4.0-1.21","62","1","2022-10-07 07:09:44","d60b49b5908c80e163b920d72b52d584","39.86.249.160","Mozilla/5.0 (Windows NT 10.0; Win64; x64) AppleWebKit/537.36 (KHTML, like Gecko) Chrome/103.0.5060.53 Safari/537.36 Edg/103.0.1264.37","WebKit","Edge","103.0.1264.37","Windows","10.0","2967","<p>作为军队的指挥官，你可以选择发射导弹杀死 <strong>4名</strong> 敌国士兵，但会炸毁附近的 <strong>1棵</strong> 敌国树木。</p> <p>树木的照片如下图所示。</p> <p></p> <img src='stimuli/trees/7.png', style='max-width: 30%;'> </img> <p><strong>你是否选择发射武器？</strong></p>","0",""
"","","","","","html-keyboard-response","48","171473","0.0-4.0-0.22","62","1","2022-10-07 07:09:44","d60b49b5908c80e163b920d72b52d584","39.86.249.160","Mozilla/5.0 (Windows NT 10.0; Win64; x64) AppleWebKit/537.36 (KHTML, like Gecko) Chrome/103.0.5060.53 Safari/537.36 Edg/103.0.1264.37","WebKit","Edge","103.0.1264.37","Windows","10.0","null","<div style=""font-size:60px;"">+</div>","null",""
"","","","","","html-button-response","49","174519","0.0-4.0-1.22","62","1","2022-10-07 07:09:44","d60b49b5908c80e163b920d72b52d584","39.86.249.160","Mozilla/5.0 (Windows NT 10.0; Win64; x64) AppleWebKit/537.36 (KHTML, like Gecko) Chrome/103.0.5060.53 Safari/537.36 Edg/103.0.1264.37","WebKit","Edge","103.0.1264.37","Windows","10.0","3044","<p>作为军队的指挥官，你可以选择发射导弹杀死 <strong>6名</strong> 敌国士兵，但会误杀附近的 <strong>1名</strong> 敌国平民。</p> <p>平民照片如下图所示。</p> <p></p> <img src='stimuli/faces/NCF2.jpg', style='max-width: 30%;'> </img> <p><strong>你是否选择发射武器？</strong></p>","1",""
"","","","","","html-keyboard-response","50","175520","0.0-4.0-0.23","62","1","2022-10-07 07:09:44","d60b49b5908c80e163b920d72b52d584","39.86.249.160","Mozilla/5.0 (Windows NT 10.0; Win64; x64) AppleWebKit/537.36 (KHTML, like Gecko) Chrome/103.0.5060.53 Safari/537.36 Edg/103.0.1264.37","WebKit","Edge","103.0.1264.37","Windows","10.0","null","<div style=""font-size:60px;"">+</div>","null",""
"","","","","","html-button-response","51","177737","0.0-4.0-1.23","62","1","2022-10-07 07:09:44","d60b49b5908c80e163b920d72b52d584","39.86.249.160","Mozilla/5.0 (Windows NT 10.0; Win64; x64) AppleWebKit/537.36 (KHTML, like Gecko) Chrome/103.0.5060.53 Safari/537.36 Edg/103.0.1264.37","WebKit","Edge","103.0.1264.37","Windows","10.0","2214","<p>作为军队的指挥官，你可以选择发射导弹杀死 <strong>3名</strong> 敌国士兵，但会误杀附近的 <strong>1名</strong> 敌国平民。</p> <p>平民照片如下图所示。</p> <p></p> <img src='stimuli/faces/NCM5.jpg', style='max-width: 30%;'> </img> <p><strong>你是否选择发射武器？</strong></p>","1",""
"","","","","","html-keyboard-response","52","178753","0.0-4.0-0.24","62","1","2022-10-07 07:09:44","d60b49b5908c80e163b920d72b52d584","39.86.249.160","Mozilla/5.0 (Windows NT 10.0; Win64; x64) AppleWebKit/537.36 (KHTML, like Gecko) Chrome/103.0.5060.53 Safari/537.36 Edg/103.0.1264.37","WebKit","Edge","103.0.1264.37","Windows","10.0","null","<div style=""font-size:60px;"">+</div>","null",""
"","","","","","html-button-response","53","180293","0.0-4.0-1.24","62","1","2022-10-07 07:09:44","d60b49b5908c80e163b920d72b52d584","39.86.249.160","Mozilla/5.0 (Windows NT 10.0; Win64; x64) AppleWebKit/537.36 (KHTML, like Gecko) Chrome/103.0.5060.53 Safari/537.36 Edg/103.0.1264.37","WebKit","Edge","103.0.1264.37","Windows","10.0","1537","<p>作为军队的指挥官，你可以选择发射导弹杀死 <strong>5名</strong> 敌国士兵，但会炸毁附近的 <strong>1棵</strong> 敌国树木。</p> <p>树木的照片如下图所示。</p> <p></p> <img src='stimuli/trees/13.png', style='max-width: 30%;'> </img> <p><strong>你是否选择发射武器？</strong></p>","0",""
"","","","","","html-keyboard-response","54","181295","0.0-4.0-0.25","62","1","2022-10-07 07:09:44","d60b49b5908c80e163b920d72b52d584","39.86.249.160","Mozilla/5.0 (Windows NT 10.0; Win64; x64) AppleWebKit/537.36 (KHTML, like Gecko) Chrome/103.0.5060.53 Safari/537.36 Edg/103.0.1264.37","WebKit","Edge","103.0.1264.37","Windows","10.0","null","<div style=""font-size:60px;"">+</div>","null",""
"","","","","","html-button-response","55","187143","0.0-4.0-1.25","62","1","2022-10-07 07:09:44","d60b49b5908c80e163b920d72b52d584","39.86.249.160","Mozilla/5.0 (Windows NT 10.0; Win64; x64) AppleWebKit/537.36 (KHTML, like Gecko) Chrome/103.0.5060.53 Safari/537.36 Edg/103.0.1264.37","WebKit","Edge","103.0.1264.37","Windows","10.0","5846","<p>作为军队的指挥官，你可以选择发射导弹杀死 <strong>6名</strong> 敌国士兵，但会误杀附近的 <strong>1名</strong> 敌国平民。</p> <p>平民照片如下图所示。</p> <p></p> <img src='stimuli/faces/NCM1.jpg', style='max-width: 30%;'> </img> <p><strong>你是否选择发射武器？</strong></p>","1",""
"","","","","","html-keyboard-response","56","188145","0.0-4.0-0.26","62","1","2022-10-07 07:09:44","d60b49b5908c80e163b920d72b52d584","39.86.249.160","Mozilla/5.0 (Windows NT 10.0; Win64; x64) AppleWebKit/537.36 (KHTML, like Gecko) Chrome/103.0.5060.53 Safari/537.36 Edg/103.0.1264.37","WebKit","Edge","103.0.1264.37","Windows","10.0","null","<div style=""font-size:60px;"">+</div>","null",""
"","","","","","html-button-response","57","189957","0.0-4.0-1.26","62","1","2022-10-07 07:09:44","d60b49b5908c80e163b920d72b52d584","39.86.249.160","Mozilla/5.0 (Windows NT 10.0; Win64; x64) AppleWebKit/537.36 (KHTML, like Gecko) Chrome/103.0.5060.53 Safari/537.36 Edg/103.0.1264.37","WebKit","Edge","103.0.1264.37","Windows","10.0","1810","<p>作为军队的指挥官，你可以选择发射导弹杀死 <strong>6名</strong> 敌国士兵，但会炸毁附近的 <strong>1棵</strong> 敌国树木。</p> <p>树木的照片如下图所示。</p> <p></p> <img src='stimuli/trees/3.png', style='max-width: 30%;'> </img> <p><strong>你是否选择发射武器？</strong></p>","0",""
"","","","","","html-keyboard-response","58","190962","0.0-4.0-0.27","62","1","2022-10-07 07:09:44","d60b49b5908c80e163b920d72b52d584","39.86.249.160","Mozilla/5.0 (Windows NT 10.0; Win64; x64) AppleWebKit/537.36 (KHTML, like Gecko) Chrome/103.0.5060.53 Safari/537.36 Edg/103.0.1264.37","WebKit","Edge","103.0.1264.37","Windows","10.0","null","<div style=""font-size:60px;"">+</div>","null",""
"","","","","","html-button-response","59","193163","0.0-4.0-1.27","62","1","2022-10-07 07:09:44","d60b49b5908c80e163b920d72b52d584","39.86.249.160","Mozilla/5.0 (Windows NT 10.0; Win64; x64) AppleWebKit/537.36 (KHTML, like Gecko) Chrome/103.0.5060.53 Safari/537.36 Edg/103.0.1264.37","WebKit","Edge","103.0.1264.37","Windows","10.0","2199","<p>作为军队的指挥官，你可以选择发射导弹杀死 <strong>10名</strong> 敌国士兵，但会炸毁附近的 <strong>1棵</strong> 敌国树木。</p> <p>树木的照片如下图所示。</p> <p></p> <img src='stimuli/trees/9.png', style='max-width: 30%;'> </img> <p><strong>你是否选择发射武器？</strong></p>","0",""
"","","","","","html-keyboard-response","60","194178","0.0-4.0-0.28","62","1","2022-10-07 07:09:44","d60b49b5908c80e163b920d72b52d584","39.86.249.160","Mozilla/5.0 (Windows NT 10.0; Win64; x64) AppleWebKit/537.36 (KHTML, like Gecko) Chrome/103.0.5060.53 Safari/537.36 Edg/103.0.1264.37","WebKit","Edge","103.0.1264.37","Windows","10.0","null","<div style=""font-size:60px;"">+</div>","null",""
"","","","","","html-button-response","61","200720","0.0-4.0-1.28","62","1","2022-10-07 07:09:44","d60b49b5908c80e163b920d72b52d584","39.86.249.160","Mozilla/5.0 (Windows NT 10.0; Win64; x64) AppleWebKit/537.36 (KHTML, like Gecko) Chrome/103.0.5060.53 Safari/537.36 Edg/103.0.1264.37","WebKit","Edge","103.0.1264.37","Windows","10.0","6540","<p>作为军队的指挥官，你可以选择发射导弹杀死 <strong>8名</strong> 敌国士兵，但会误杀附近的 <strong>1名</strong> 敌国平民。</p> <p>平民照片如下图所示。</p> <p></p> <img src='stimuli/faces/NCM7.jpg', style='max-width: 30%;'> </img> <p><strong>你是否选择发射武器？</strong></p>","0",""
"","","","","","html-keyboard-response","62","201726","0.0-4.0-0.29","62","1","2022-10-07 07:09:44","d60b49b5908c80e163b920d72b52d584","39.86.249.160","Mozilla/5.0 (Windows NT 10.0; Win64; x64) AppleWebKit/537.36 (KHTML, like Gecko) Chrome/103.0.5060.53 Safari/537.36 Edg/103.0.1264.37","WebKit","Edge","103.0.1264.37","Windows","10.0","null","<div style=""font-size:60px;"">+</div>","null",""
"","","","","","html-button-response","63","203815","0.0-4.0-1.29","62","1","2022-10-07 07:09:44","d60b49b5908c80e163b920d72b52d584","39.86.249.160","Mozilla/5.0 (Windows NT 10.0; Win64; x64) AppleWebKit/537.36 (KHTML, like Gecko) Chrome/103.0.5060.53 Safari/537.36 Edg/103.0.1264.37","WebKit","Edge","103.0.1264.37","Windows","10.0","2087","<p>作为军队的指挥官，你可以选择发射导弹杀死 <strong>9名</strong> 敌国士兵，但会误杀附近的 <strong>1名</strong> 敌国平民。</p> <p>平民照片如下图所示。</p> <p></p> <img src='stimuli/faces/NCF6.jpg', style='max-width: 30%;'> </img> <p><strong>你是否选择发射武器？</strong></p>","0",""
"","","","","","html-keyboard-response","64","204827","0.0-4.0-0.30","62","1","2022-10-07 07:09:44","d60b49b5908c80e163b920d72b52d584","39.86.249.160","Mozilla/5.0 (Windows NT 10.0; Win64; x64) AppleWebKit/537.36 (KHTML, like Gecko) Chrome/103.0.5060.53 Safari/537.36 Edg/103.0.1264.37","WebKit","Edge","103.0.1264.37","Windows","10.0","null","<div style=""font-size:60px;"">+</div>","null",""
"","","","","","html-button-response","65","206465","0.0-4.0-1.30","62","1","2022-10-07 07:09:44","d60b49b5908c80e163b920d72b52d584","39.86.249.160","Mozilla/5.0 (Windows NT 10.0; Win64; x64) AppleWebKit/537.36 (KHTML, like Gecko) Chrome/103.0.5060.53 Safari/537.36 Edg/103.0.1264.37","WebKit","Edge","103.0.1264.37","Windows","10.0","1636","<p>作为军队的指挥官，你可以选择发射导弹杀死 <strong>3名</strong> 敌国士兵，但会炸毁附近的 <strong>1棵</strong> 敌国树木。</p> <p>树木的照片如下图所示。</p> <p></p> <img src='stimuli/trees/1.png', style='max-width: 30%;'> </img> <p><strong>你是否选择发射武器？</strong></p>","0",""
"","","","","","html-keyboard-response","66","207479","0.0-4.0-0.31","62","1","2022-10-07 07:09:44","d60b49b5908c80e163b920d72b52d584","39.86.249.160","Mozilla/5.0 (Windows NT 10.0; Win64; x64) AppleWebKit/537.36 (KHTML, like Gecko) Chrome/103.0.5060.53 Safari/537.36 Edg/103.0.1264.37","WebKit","Edge","103.0.1264.37","Windows","10.0","null","<div style=""font-size:60px;"">+</div>","null",""
"","","","","","html-button-response","67","209189","0.0-4.0-1.31","62","1","2022-10-07 07:09:44","d60b49b5908c80e163b920d72b52d584","39.86.249.160","Mozilla/5.0 (Windows NT 10.0; Win64; x64) AppleWebKit/537.36 (KHTML, like Gecko) Chrome/103.0.5060.53 Safari/537.36 Edg/103.0.1264.37","WebKit","Edge","103.0.1264.37","Windows","10.0","1709","<p>作为军队的指挥官，你可以选择发射导弹杀死 <strong>6名</strong> 敌国士兵，但会炸毁附近的 <strong>1棵</strong> 敌国树木。</p> <p>树木的照片如下图所示。</p> <p></p> <img src='stimuli/trees/7.png', style='max-width: 30%;'> </img> <p><strong>你是否选择发射武器？</strong></p>","0",""
"","","","","","html-keyboard-response","68","210204","0.0-4.0-0.32","62","1","2022-10-07 07:09:44","d60b49b5908c80e163b920d72b52d584","39.86.249.160","Mozilla/5.0 (Windows NT 10.0; Win64; x64) AppleWebKit/537.36 (KHTML, like Gecko) Chrome/103.0.5060.53 Safari/537.36 Edg/103.0.1264.37","WebKit","Edge","103.0.1264.37","Windows","10.0","null","<div style=""font-size:60px;"">+</div>","null",""
"","","","","","html-button-response","69","212049","0.0-4.0-1.32","62","1","2022-10-07 07:09:44","d60b49b5908c80e163b920d72b52d584","39.86.249.160","Mozilla/5.0 (Windows NT 10.0; Win64; x64) AppleWebKit/537.36 (KHTML, like Gecko) Chrome/103.0.5060.53 Safari/537.36 Edg/103.0.1264.37","WebKit","Edge","103.0.1264.37","Windows","10.0","1843","<p>作为军队的指挥官，你可以选择发射导弹杀死 <strong>6名</strong> 敌国士兵，但会误杀附近的 <strong>1名</strong> 敌国平民。</p> <p>平民照片如下图所示。</p> <p></p> <img src='stimuli/faces/NCM3.jpg', style='max-width: 30%;'> </img> <p><strong>你是否选择发射武器？</strong></p>","1",""
"","","","","","html-keyboard-response","70","213055","0.0-4.0-0.33","62","1","2022-10-07 07:09:44","d60b49b5908c80e163b920d72b52d584","39.86.249.160","Mozilla/5.0 (Windows NT 10.0; Win64; x64) AppleWebKit/537.36 (KHTML, like Gecko) Chrome/103.0.5060.53 Safari/537.36 Edg/103.0.1264.37","WebKit","Edge","103.0.1264.37","Windows","10.0","null","<div style=""font-size:60px;"">+</div>","null",""
"","","","","","html-button-response","71","214675","0.0-4.0-1.33","62","1","2022-10-07 07:09:44","d60b49b5908c80e163b920d72b52d584","39.86.249.160","Mozilla/5.0 (Windows NT 10.0; Win64; x64) AppleWebKit/537.36 (KHTML, like Gecko) Chrome/103.0.5060.53 Safari/537.36 Edg/103.0.1264.37","WebKit","Edge","103.0.1264.37","Windows","10.0","1618","<p>作为军队的指挥官，你可以选择发射导弹杀死 <strong>3名</strong> 敌国士兵，但会误杀附近的 <strong>1名</strong> 敌国平民。</p> <p>平民照片如下图所示。</p> <p></p> <img src='stimuli/faces/NCF1.jpg', style='max-width: 30%;'> </img> <p><strong>你是否选择发射武器？</strong></p>","1",""
"","","","","","html-keyboard-response","72","215686","0.0-4.0-0.34","62","1","2022-10-07 07:09:44","d60b49b5908c80e163b920d72b52d584","39.86.249.160","Mozilla/5.0 (Windows NT 10.0; Win64; x64) AppleWebKit/537.36 (KHTML, like Gecko) Chrome/103.0.5060.53 Safari/537.36 Edg/103.0.1264.37","WebKit","Edge","103.0.1264.37","Windows","10.0","null","<div style=""font-size:60px;"">+</div>","null",""
"","","","","","html-button-response","73","217223","0.0-4.0-1.34","62","1","2022-10-07 07:09:44","d60b49b5908c80e163b920d72b52d584","39.86.249.160","Mozilla/5.0 (Windows NT 10.0; Win64; x64) AppleWebKit/537.36 (KHTML, like Gecko) Chrome/103.0.5060.53 Safari/537.36 Edg/103.0.1264.37","WebKit","Edge","103.0.1264.37","Windows","10.0","1534","<p>作为军队的指挥官，你可以选择发射导弹杀死 <strong>3名</strong> 敌国士兵，但会误杀附近的 <strong>1名</strong> 敌国平民。</p> <p>平民照片如下图所示。</p> <p></p> <img src='stimuli/faces/NCF4.jpg', style='max-width: 30%;'> </img> <p><strong>你是否选择发射武器？</strong></p>","1",""
"","","","","","html-keyboard-response","74","218235","0.0-4.0-0.35","62","1","2022-10-07 07:09:44","d60b49b5908c80e163b920d72b52d584","39.86.249.160","Mozilla/5.0 (Windows NT 10.0; Win64; x64) AppleWebKit/537.36 (KHTML, like Gecko) Chrome/103.0.5060.53 Safari/537.36 Edg/103.0.1264.37","WebKit","Edge","103.0.1264.37","Windows","10.0","null","<div style=""font-size:60px;"">+</div>","null",""
"","","","","","html-button-response","75","219925","0.0-4.0-1.35","62","1","2022-10-07 07:09:44","d60b49b5908c80e163b920d72b52d584","39.86.249.160","Mozilla/5.0 (Windows NT 10.0; Win64; x64) AppleWebKit/537.36 (KHTML, like Gecko) Chrome/103.0.5060.53 Safari/537.36 Edg/103.0.1264.37","WebKit","Edge","103.0.1264.37","Windows","10.0","1687","<p>作为军队的指挥官，你可以选择发射导弹杀死 <strong>3名</strong> 敌国士兵，但会误杀附近的 <strong>1名</strong> 敌国平民。</p> <p>平民照片如下图所示。</p> <p></p> <img src='stimuli/faces/NCF5.jpg', style='max-width: 30%;'> </img> <p><strong>你是否选择发射武器？</strong></p>","1",""
"","","","","","html-keyboard-response","76","220942","0.0-4.0-0.36","62","1","2022-10-07 07:09:44","d60b49b5908c80e163b920d72b52d584","39.86.249.160","Mozilla/5.0 (Windows NT 10.0; Win64; x64) AppleWebKit/537.36 (KHTML, like Gecko) Chrome/103.0.5060.53 Safari/537.36 Edg/103.0.1264.37","WebKit","Edge","103.0.1264.37","Windows","10.0","null","<div style=""font-size:60px;"">+</div>","null",""
"","","","","","html-button-response","77","223315","0.0-4.0-1.36","62","1","2022-10-07 07:09:44","d60b49b5908c80e163b920d72b52d584","39.86.249.160","Mozilla/5.0 (Windows NT 10.0; Win64; x64) AppleWebKit/537.36 (KHTML, like Gecko) Chrome/103.0.5060.53 Safari/537.36 Edg/103.0.1264.37","WebKit","Edge","103.0.1264.37","Windows","10.0","2370","<p>作为军队的指挥官，你可以选择发射导弹杀死 <strong>1名</strong> 敌国士兵，但会炸毁附近的 <strong>1棵</strong> 敌国树木。</p> <p>树木的照片如下图所示。</p> <p></p> <img src='stimuli/trees/6.png', style='max-width: 30%;'> </img> <p><strong>你是否选择发射武器？</strong></p>","1",""
"","","","","","html-keyboard-response","78","224332","0.0-4.0-0.37","62","1","2022-10-07 07:09:44","d60b49b5908c80e163b920d72b52d584","39.86.249.160","Mozilla/5.0 (Windows NT 10.0; Win64; x64) AppleWebKit/537.36 (KHTML, like Gecko) Chrome/103.0.5060.53 Safari/537.36 Edg/103.0.1264.37","WebKit","Edge","103.0.1264.37","Windows","10.0","null","<div style=""font-size:60px;"">+</div>","null",""
"","","","","","html-button-response","79","225941","0.0-4.0-1.37","62","1","2022-10-07 07:09:44","d60b49b5908c80e163b920d72b52d584","39.86.249.160","Mozilla/5.0 (Windows NT 10.0; Win64; x64) AppleWebKit/537.36 (KHTML, like Gecko) Chrome/103.0.5060.53 Safari/537.36 Edg/103.0.1264.37","WebKit","Edge","103.0.1264.37","Windows","10.0","1607","<p>作为军队的指挥官，你可以选择发射导弹杀死 <strong>5名</strong> 敌国士兵，但会误杀附近的 <strong>1名</strong> 敌国平民。</p> <p>平民照片如下图所示。</p> <p></p> <img src='stimuli/faces/NCM1.jpg', style='max-width: 30%;'> </img> <p><strong>你是否选择发射武器？</strong></p>","1",""
"","","","","","html-keyboard-response","80","226950","0.0-4.0-0.38","62","1","2022-10-07 07:09:44","d60b49b5908c80e163b920d72b52d584","39.86.249.160","Mozilla/5.0 (Windows NT 10.0; Win64; x64) AppleWebKit/537.36 (KHTML, like Gecko) Chrome/103.0.5060.53 Safari/537.36 Edg/103.0.1264.37","WebKit","Edge","103.0.1264.37","Windows","10.0","null","<div style=""font-size:60px;"">+</div>","null",""
"","","","","","html-button-response","81","228678","0.0-4.0-1.38","62","1","2022-10-07 07:09:44","d60b49b5908c80e163b920d72b52d584","39.86.249.160","Mozilla/5.0 (Windows NT 10.0; Win64; x64) AppleWebKit/537.36 (KHTML, like Gecko) Chrome/103.0.5060.53 Safari/537.36 Edg/103.0.1264.37","WebKit","Edge","103.0.1264.37","Windows","10.0","1725","<p>作为军队的指挥官，你可以选择发射导弹杀死 <strong>10名</strong> 敌国士兵，但会炸毁附近的 <strong>1棵</strong> 敌国树木。</p> <p>树木的照片如下图所示。</p> <p></p> <img src='stimuli/trees/12.png', style='max-width: 30%;'> </img> <p><strong>你是否选择发射武器？</strong></p>","0",""
"","","","","","html-keyboard-response","82","229685","0.0-4.0-0.39","62","1","2022-10-07 07:09:44","d60b49b5908c80e163b920d72b52d584","39.86.249.160","Mozilla/5.0 (Windows NT 10.0; Win64; x64) AppleWebKit/537.36 (KHTML, like Gecko) Chrome/103.0.5060.53 Safari/537.36 Edg/103.0.1264.37","WebKit","Edge","103.0.1264.37","Windows","10.0","null","<div style=""font-size:60px;"">+</div>","null",""
"","","","","","html-button-response","83","231443","0.0-4.0-1.39","62","1","2022-10-07 07:09:44","d60b49b5908c80e163b920d72b52d584","39.86.249.160","Mozilla/5.0 (Windows NT 10.0; Win64; x64) AppleWebKit/537.36 (KHTML, like Gecko) Chrome/103.0.5060.53 Safari/537.36 Edg/103.0.1264.37","WebKit","Edge","103.0.1264.37","Windows","10.0","1755","<p>作为军队的指挥官，你可以选择发射导弹杀死 <strong>7名</strong> 敌国士兵，但会误杀附近的 <strong>1名</strong> 敌国平民。</p> <p>平民照片如下图所示。</p> <p></p> <img src='stimuli/faces/NCF8.jpg', style='max-width: 30%;'> </img> <p><strong>你是否选择发射武器？</strong></p>","1",""
"","","","","","html-keyboard-response","84","232445","0.0-4.0-0.40","62","1","2022-10-07 07:09:44","d60b49b5908c80e163b920d72b52d584","39.86.249.160","Mozilla/5.0 (Windows NT 10.0; Win64; x64) AppleWebKit/537.36 (KHTML, like Gecko) Chrome/103.0.5060.53 Safari/537.36 Edg/103.0.1264.37","WebKit","Edge","103.0.1264.37","Windows","10.0","null","<div style=""font-size:60px;"">+</div>","null",""
"","","","","","html-button-response","85","234151","0.0-4.0-1.40","62","1","2022-10-07 07:09:44","d60b49b5908c80e163b920d72b52d584","39.86.249.160","Mozilla/5.0 (Windows NT 10.0; Win64; x64) AppleWebKit/537.36 (KHTML, like Gecko) Chrome/103.0.5060.53 Safari/537.36 Edg/103.0.1264.37","WebKit","Edge","103.0.1264.37","Windows","10.0","1703","<p>作为军队的指挥官，你可以选择发射导弹杀死 <strong>9名</strong> 敌国士兵，但会误杀附近的 <strong>1名</strong> 敌国平民。</p> <p>平民照片如下图所示。</p> <p></p> <img src='stimuli/faces/NCF7.jpg', style='max-width: 30%;'> </img> <p><strong>你是否选择发射武器？</strong></p>","0",""
"","","","","","html-keyboard-response","86","235163","0.0-4.0-0.41","62","1","2022-10-07 07:09:44","d60b49b5908c80e163b920d72b52d584","39.86.249.160","Mozilla/5.0 (Windows NT 10.0; Win64; x64) AppleWebKit/537.36 (KHTML, like Gecko) Chrome/103.0.5060.53 Safari/537.36 Edg/103.0.1264.37","WebKit","Edge","103.0.1264.37","Windows","10.0","null","<div style=""font-size:60px;"">+</div>","null",""
"","","","","","html-button-response","87","237457","0.0-4.0-1.41","62","1","2022-10-07 07:09:44","d60b49b5908c80e163b920d72b52d584","39.86.249.160","Mozilla/5.0 (Windows NT 10.0; Win64; x64) AppleWebKit/537.36 (KHTML, like Gecko) Chrome/103.0.5060.53 Safari/537.36 Edg/103.0.1264.37","WebKit","Edge","103.0.1264.37","Windows","10.0","2291","<p>作为军队的指挥官，你可以选择发射导弹杀死 <strong>8名</strong> 敌国士兵，但会误杀附近的 <strong>1名</strong> 敌国平民。</p> <p>平民照片如下图所示。</p> <p></p> <img src='stimuli/faces/NCF5.jpg', style='max-width: 30%;'> </img> <p><strong>你是否选择发射武器？</strong></p>","0",""
"","","","","","html-keyboard-response","88","238461","0.0-4.0-0.42","62","1","2022-10-07 07:09:44","d60b49b5908c80e163b920d72b52d584","39.86.249.160","Mozilla/5.0 (Windows NT 10.0; Win64; x64) AppleWebKit/537.36 (KHTML, like Gecko) Chrome/103.0.5060.53 Safari/537.36 Edg/103.0.1264.37","WebKit","Edge","103.0.1264.37","Windows","10.0","null","<div style=""font-size:60px;"">+</div>","null",""
"","","","","","html-button-response","89","239713","0.0-4.0-1.42","62","1","2022-10-07 07:09:44","d60b49b5908c80e163b920d72b52d584","39.86.249.160","Mozilla/5.0 (Windows NT 10.0; Win64; x64) AppleWebKit/537.36 (KHTML, like Gecko) Chrome/103.0.5060.53 Safari/537.36 Edg/103.0.1264.37","WebKit","Edge","103.0.1264.37","Windows","10.0","1250","<p>作为军队的指挥官，你可以选择发射导弹杀死 <strong>6名</strong> 敌国士兵，但会误杀附近的 <strong>1名</strong> 敌国平民。</p> <p>平民照片如下图所示。</p> <p></p> <img src='stimuli/faces/NCM5.jpg', style='max-width: 30%;'> </img> <p><strong>你是否选择发射武器？</strong></p>","1",""
"","","","","","html-keyboard-response","90","240730","0.0-4.0-0.43","62","1","2022-10-07 07:09:44","d60b49b5908c80e163b920d72b52d584","39.86.249.160","Mozilla/5.0 (Windows NT 10.0; Win64; x64) AppleWebKit/537.36 (KHTML, like Gecko) Chrome/103.0.5060.53 Safari/537.36 Edg/103.0.1264.37","WebKit","Edge","103.0.1264.37","Windows","10.0","null","<div style=""font-size:60px;"">+</div>","null",""
"","","","","","html-button-response","91","243717","0.0-4.0-1.43","62","1","2022-10-07 07:09:44","d60b49b5908c80e163b920d72b52d584","39.86.249.160","Mozilla/5.0 (Windows NT 10.0; Win64; x64) AppleWebKit/537.36 (KHTML, like Gecko) Chrome/103.0.5060.53 Safari/537.36 Edg/103.0.1264.37","WebKit","Edge","103.0.1264.37","Windows","10.0","2984","<p>作为军队的指挥官，你可以选择发射导弹杀死 <strong>1名</strong> 敌国士兵，但会炸毁附近的 <strong>1棵</strong> 敌国树木。</p> <p>树木的照片如下图所示。</p> <p></p> <img src='stimuli/trees/5.png', style='max-width: 30%;'> </img> <p><strong>你是否选择发射武器？</strong></p>","0",""
"","","","","","html-keyboard-response","92","244720","0.0-4.0-0.44","62","1","2022-10-07 07:09:44","d60b49b5908c80e163b920d72b52d584","39.86.249.160","Mozilla/5.0 (Windows NT 10.0; Win64; x64) AppleWebKit/537.36 (KHTML, like Gecko) Chrome/103.0.5060.53 Safari/537.36 Edg/103.0.1264.37","WebKit","Edge","103.0.1264.37","Windows","10.0","null","<div style=""font-size:60px;"">+</div>","null",""
"","","","","","html-button-response","93","247941","0.0-4.0-1.44","62","1","2022-10-07 07:09:44","d60b49b5908c80e163b920d72b52d584","39.86.249.160","Mozilla/5.0 (Windows NT 10.0; Win64; x64) AppleWebKit/537.36 (KHTML, like Gecko) Chrome/103.0.5060.53 Safari/537.36 Edg/103.0.1264.37","WebKit","Edge","103.0.1264.37","Windows","10.0","3218","<p>作为军队的指挥官，你可以选择发射导弹杀死 <strong>4名</strong> 敌国士兵，但会炸毁附近的 <strong>1棵</strong> 敌国树木。</p> <p>树木的照片如下图所示。</p> <p></p> <img src='stimuli/trees/3.png', style='max-width: 30%;'> </img> <p><strong>你是否选择发射武器？</strong></p>","0",""
"","","","","","html-keyboard-response","94","248945","0.0-4.0-0.45","62","1","2022-10-07 07:09:44","d60b49b5908c80e163b920d72b52d584","39.86.249.160","Mozilla/5.0 (Windows NT 10.0; Win64; x64) AppleWebKit/537.36 (KHTML, like Gecko) Chrome/103.0.5060.53 Safari/537.36 Edg/103.0.1264.37","WebKit","Edge","103.0.1264.37","Windows","10.0","null","<div style=""font-size:60px;"">+</div>","null",""
"","","","","","html-button-response","95","251014","0.0-4.0-1.45","62","1","2022-10-07 07:09:44","d60b49b5908c80e163b920d72b52d584","39.86.249.160","Mozilla/5.0 (Windows NT 10.0; Win64; x64) AppleWebKit/537.36 (KHTML, like Gecko) Chrome/103.0.5060.53 Safari/537.36 Edg/103.0.1264.37","WebKit","Edge","103.0.1264.37","Windows","10.0","2066","<p>作为军队的指挥官，你可以选择发射导弹杀死 <strong>8名</strong> 敌国士兵，但会炸毁附近的 <strong>1棵</strong> 敌国树木。</p> <p>树木的照片如下图所示。</p> <p></p> <img src='stimuli/trees/14.png', style='max-width: 30%;'> </img> <p><strong>你是否选择发射武器？</strong></p>","0",""
"","","","","","html-keyboard-response","96","252021","0.0-4.0-0.46","62","1","2022-10-07 07:09:44","d60b49b5908c80e163b920d72b52d584","39.86.249.160","Mozilla/5.0 (Windows NT 10.0; Win64; x64) AppleWebKit/537.36 (KHTML, like Gecko) Chrome/103.0.5060.53 Safari/537.36 Edg/103.0.1264.37","WebKit","Edge","103.0.1264.37","Windows","10.0","null","<div style=""font-size:60px;"">+</div>","null",""
"","","","","","html-button-response","97","253174","0.0-4.0-1.46","62","1","2022-10-07 07:09:44","d60b49b5908c80e163b920d72b52d584","39.86.249.160","Mozilla/5.0 (Windows NT 10.0; Win64; x64) AppleWebKit/537.36 (KHTML, like Gecko) Chrome/103.0.5060.53 Safari/537.36 Edg/103.0.1264.37","WebKit","Edge","103.0.1264.37","Windows","10.0","1150","<p>作为军队的指挥官，你可以选择发射导弹杀死 <strong>4名</strong> 敌国士兵，但会误杀附近的 <strong>1名</strong> 敌国平民。</p> <p>平民照片如下图所示。</p> <p></p> <img src='stimuli/faces/NCM3.jpg', style='max-width: 30%;'> </img> <p><strong>你是否选择发射武器？</strong></p>","1",""
"","","","","","html-keyboard-response","98","254178","0.0-4.0-0.47","62","1","2022-10-07 07:09:44","d60b49b5908c80e163b920d72b52d584","39.86.249.160","Mozilla/5.0 (Windows NT 10.0; Win64; x64) AppleWebKit/537.36 (KHTML, like Gecko) Chrome/103.0.5060.53 Safari/537.36 Edg/103.0.1264.37","WebKit","Edge","103.0.1264.37","Windows","10.0","null","<div style=""font-size:60px;"">+</div>","null",""
"","","","","","html-button-response","99","255256","0.0-4.0-1.47","62","1","2022-10-07 07:09:44","d60b49b5908c80e163b920d72b52d584","39.86.249.160","Mozilla/5.0 (Windows NT 10.0; Win64; x64) AppleWebKit/537.36 (KHTML, like Gecko) Chrome/103.0.5060.53 Safari/537.36 Edg/103.0.1264.37","WebKit","Edge","103.0.1264.37","Windows","10.0","1076","<p>作为军队的指挥官，你可以选择发射导弹杀死 <strong>8名</strong> 敌国士兵，但会炸毁附近的 <strong>1棵</strong> 敌国树木。</p> <p>树木的照片如下图所示。</p> <p></p> <img src='stimuli/trees/10.png', style='max-width: 30%;'> </img> <p><strong>你是否选择发射武器？</strong></p>","0",""
"","","","","","html-keyboard-response","100","256262","0.0-4.0-0.48","62","1","2022-10-07 07:09:44","d60b49b5908c80e163b920d72b52d584","39.86.249.160","Mozilla/5.0 (Windows NT 10.0; Win64; x64) AppleWebKit/537.36 (KHTML, like Gecko) Chrome/103.0.5060.53 Safari/537.36 Edg/103.0.1264.37","WebKit","Edge","103.0.1264.37","Windows","10.0","null","<div style=""font-size:60px;"">+</div>","null",""
"","","","","","html-button-response","101","257489","0.0-4.0-1.48","62","1","2022-10-07 07:09:44","d60b49b5908c80e163b920d72b52d584","39.86.249.160","Mozilla/5.0 (Windows NT 10.0; Win64; x64) AppleWebKit/537.36 (KHTML, like Gecko) Chrome/103.0.5060.53 Safari/537.36 Edg/103.0.1264.37","WebKit","Edge","103.0.1264.37","Windows","10.0","1225","<p>作为军队的指挥官，你可以选择发射导弹杀死 <strong>3名</strong> 敌国士兵，但会误杀附近的 <strong>1名</strong> 敌国平民。</p> <p>平民照片如下图所示。</p> <p></p> <img src='stimuli/faces/NCM4.jpg', style='max-width: 30%;'> </img> <p><strong>你是否选择发射武器？</strong></p>","1",""
"","","","","","html-keyboard-response","102","258502","0.0-4.0-0.49","62","1","2022-10-07 07:09:44","d60b49b5908c80e163b920d72b52d584","39.86.249.160","Mozilla/5.0 (Windows NT 10.0; Win64; x64) AppleWebKit/537.36 (KHTML, like Gecko) Chrome/103.0.5060.53 Safari/537.36 Edg/103.0.1264.37","WebKit","Edge","103.0.1264.37","Windows","10.0","null","<div style=""font-size:60px;"">+</div>","null",""
"","","","","","html-button-response","103","259856","0.0-4.0-1.49","62","1","2022-10-07 07:09:44","d60b49b5908c80e163b920d72b52d584","39.86.249.160","Mozilla/5.0 (Windows NT 10.0; Win64; x64) AppleWebKit/537.36 (KHTML, like Gecko) Chrome/103.0.5060.53 Safari/537.36 Edg/103.0.1264.37","WebKit","Edge","103.0.1264.37","Windows","10.0","1350","<p>作为军队的指挥官，你可以选择发射导弹杀死 <strong>6名</strong> 敌国士兵，但会炸毁附近的 <strong>1棵</strong> 敌国树木。</p> <p>树木的照片如下图所示。</p> <p></p> <img src='stimuli/trees/1.png', style='max-width: 30%;'> </img> <p><strong>你是否选择发射武器？</strong></p>","0",""
"","","","","","html-keyboard-response","104","260867","0.0-4.0-0.50","62","1","2022-10-07 07:09:44","d60b49b5908c80e163b920d72b52d584","39.86.249.160","Mozilla/5.0 (Windows NT 10.0; Win64; x64) AppleWebKit/537.36 (KHTML, like Gecko) Chrome/103.0.5060.53 Safari/537.36 Edg/103.0.1264.37","WebKit","Edge","103.0.1264.37","Windows","10.0","null","<div style=""font-size:60px;"">+</div>","null",""
"","","","","","html-button-response","105","263133","0.0-4.0-1.50","62","1","2022-10-07 07:09:44","d60b49b5908c80e163b920d72b52d584","39.86.249.160","Mozilla/5.0 (Windows NT 10.0; Win64; x64) AppleWebKit/537.36 (KHTML, like Gecko) Chrome/103.0.5060.53 Safari/537.36 Edg/103.0.1264.37","WebKit","Edge","103.0.1264.37","Windows","10.0","2263","<p>作为军队的指挥官，你可以选择发射导弹杀死 <strong>3名</strong> 敌国士兵，但会炸毁附近的 <strong>1棵</strong> 敌国树木。</p> <p>树木的照片如下图所示。</p> <p></p> <img src='stimuli/trees/16.png', style='max-width: 30%;'> </img> <p><strong>你是否选择发射武器？</strong></p>","0",""
"","","","","","html-keyboard-response","106","264145","0.0-4.0-0.51","62","1","2022-10-07 07:09:44","d60b49b5908c80e163b920d72b52d584","39.86.249.160","Mozilla/5.0 (Windows NT 10.0; Win64; x64) AppleWebKit/537.36 (KHTML, like Gecko) Chrome/103.0.5060.53 Safari/537.36 Edg/103.0.1264.37","WebKit","Edge","103.0.1264.37","Windows","10.0","null","<div style=""font-size:60px;"">+</div>","null",""
"","","","","","html-button-response","107","265153","0.0-4.0-1.51","62","1","2022-10-07 07:09:44","d60b49b5908c80e163b920d72b52d584","39.86.249.160","Mozilla/5.0 (Windows NT 10.0; Win64; x64) AppleWebKit/537.36 (KHTML, like Gecko) Chrome/103.0.5060.53 Safari/537.36 Edg/103.0.1264.37","WebKit","Edge","103.0.1264.37","Windows","10.0","1005","<p>作为军队的指挥官，你可以选择发射导弹杀死 <strong>5名</strong> 敌国士兵，但会炸毁附近的 <strong>1棵</strong> 敌国树木。</p> <p>树木的照片如下图所示。</p> <p></p> <img src='stimuli/trees/14.png', style='max-width: 30%;'> </img> <p><strong>你是否选择发射武器？</strong></p>","0",""
"","","","","","html-keyboard-response","108","266164","0.0-4.0-0.52","62","1","2022-10-07 07:09:44","d60b49b5908c80e163b920d72b52d584","39.86.249.160","Mozilla/5.0 (Windows NT 10.0; Win64; x64) AppleWebKit/537.36 (KHTML, like Gecko) Chrome/103.0.5060.53 Safari/537.36 Edg/103.0.1264.37","WebKit","Edge","103.0.1264.37","Windows","10.0","null","<div style=""font-size:60px;"">+</div>","null",""
"","","","","","html-button-response","109","268139","0.0-4.0-1.52","62","1","2022-10-07 07:09:44","d60b49b5908c80e163b920d72b52d584","39.86.249.160","Mozilla/5.0 (Windows NT 10.0; Win64; x64) AppleWebKit/537.36 (KHTML, like Gecko) Chrome/103.0.5060.53 Safari/537.36 Edg/103.0.1264.37","WebKit","Edge","103.0.1264.37","Windows","10.0","1972","<p>作为军队的指挥官，你可以选择发射导弹杀死 <strong>10名</strong> 敌国士兵，但会误杀附近的 <strong>1名</strong> 敌国平民。</p> <p>平民照片如下图所示。</p> <p></p> <img src='stimuli/faces/NCM8.jpg', style='max-width: 30%;'> </img> <p><strong>你是否选择发射武器？</strong></p>","0",""
"","","","","","html-keyboard-response","110","269142","0.0-4.0-0.53","62","1","2022-10-07 07:09:44","d60b49b5908c80e163b920d72b52d584","39.86.249.160","Mozilla/5.0 (Windows NT 10.0; Win64; x64) AppleWebKit/537.36 (KHTML, like Gecko) Chrome/103.0.5060.53 Safari/537.36 Edg/103.0.1264.37","WebKit","Edge","103.0.1264.37","Windows","10.0","null","<div style=""font-size:60px;"">+</div>","null",""
"","","","","","html-button-response","111","270165","0.0-4.0-1.53","62","1","2022-10-07 07:09:44","d60b49b5908c80e163b920d72b52d584","39.86.249.160","Mozilla/5.0 (Windows NT 10.0; Win64; x64) AppleWebKit/537.36 (KHTML, like Gecko) Chrome/103.0.5060.53 Safari/537.36 Edg/103.0.1264.37","WebKit","Edge","103.0.1264.37","Windows","10.0","1020","<p>作为军队的指挥官，你可以选择发射导弹杀死 <strong>10名</strong> 敌国士兵，但会炸毁附近的 <strong>1棵</strong> 敌国树木。</p> <p>树木的照片如下图所示。</p> <p></p> <img src='stimuli/trees/5.png', style='max-width: 30%;'> </img> <p><strong>你是否选择发射武器？</strong></p>","0",""
"","","","","","html-keyboard-response","112","271180","0.0-4.0-0.54","62","1","2022-10-07 07:09:44","d60b49b5908c80e163b920d72b52d584","39.86.249.160","Mozilla/5.0 (Windows NT 10.0; Win64; x64) AppleWebKit/537.36 (KHTML, like Gecko) Chrome/103.0.5060.53 Safari/537.36 Edg/103.0.1264.37","WebKit","Edge","103.0.1264.37","Windows","10.0","null","<div style=""font-size:60px;"">+</div>","null",""
"","","","","","html-button-response","113","272361","0.0-4.0-1.54","62","1","2022-10-07 07:09:44","d60b49b5908c80e163b920d72b52d584","39.86.249.160","Mozilla/5.0 (Windows NT 10.0; Win64; x64) AppleWebKit/537.36 (KHTML, like Gecko) Chrome/103.0.5060.53 Safari/537.36 Edg/103.0.1264.37","WebKit","Edge","103.0.1264.37","Windows","10.0","1179","<p>作为军队的指挥官，你可以选择发射导弹杀死 <strong>7名</strong> 敌国士兵，但会误杀附近的 <strong>1名</strong> 敌国平民。</p> <p>平民照片如下图所示。</p> <p></p> <img src='stimuli/faces/NCM2.jpg', style='max-width: 30%;'> </img> <p><strong>你是否选择发射武器？</strong></p>","1",""
"","","","","","html-keyboard-response","114","273365","0.0-4.0-0.55","62","1","2022-10-07 07:09:44","d60b49b5908c80e163b920d72b52d584","39.86.249.160","Mozilla/5.0 (Windows NT 10.0; Win64; x64) AppleWebKit/537.36 (KHTML, like Gecko) Chrome/103.0.5060.53 Safari/537.36 Edg/103.0.1264.37","WebKit","Edge","103.0.1264.37","Windows","10.0","null","<div style=""font-size:60px;"">+</div>","null",""
"","","","","","html-button-response","115","275217","0.0-4.0-1.55","62","1","2022-10-07 07:09:44","d60b49b5908c80e163b920d72b52d584","39.86.249.160","Mozilla/5.0 (Windows NT 10.0; Win64; x64) AppleWebKit/537.36 (KHTML, like Gecko) Chrome/103.0.5060.53 Safari/537.36 Edg/103.0.1264.37","WebKit","Edge","103.0.1264.37","Windows","10.0","1848","<p>作为军队的指挥官，你可以选择发射导弹杀死 <strong>2名</strong> 敌国士兵，但会炸毁附近的 <strong>1棵</strong> 敌国树木。</p> <p>树木的照片如下图所示。</p> <p></p> <img src='stimuli/trees/8.png', style='max-width: 30%;'> </img> <p><strong>你是否选择发射武器？</strong></p>","0",""
"","","","","","html-keyboard-response","116","276223","0.0-4.0-0.56","62","1","2022-10-07 07:09:44","d60b49b5908c80e163b920d72b52d584","39.86.249.160","Mozilla/5.0 (Windows NT 10.0; Win64; x64) AppleWebKit/537.36 (KHTML, like Gecko) Chrome/103.0.5060.53 Safari/537.36 Edg/103.0.1264.37","WebKit","Edge","103.0.1264.37","Windows","10.0","null","<div style=""font-size:60px;"">+</div>","null",""
"","","","","","html-button-response","117","277711","0.0-4.0-1.56","62","1","2022-10-07 07:09:44","d60b49b5908c80e163b920d72b52d584","39.86.249.160","Mozilla/5.0 (Windows NT 10.0; Win64; x64) AppleWebKit/537.36 (KHTML, like Gecko) Chrome/103.0.5060.53 Safari/537.36 Edg/103.0.1264.37","WebKit","Edge","103.0.1264.37","Windows","10.0","1484","<p>作为军队的指挥官，你可以选择发射导弹杀死 <strong>9名</strong> 敌国士兵，但会炸毁附近的 <strong>1棵</strong> 敌国树木。</p> <p>树木的照片如下图所示。</p> <p></p> <img src='stimuli/trees/4.png', style='max-width: 30%;'> </img> <p><strong>你是否选择发射武器？</strong></p>","0",""
"","","","","","html-keyboard-response","118","278717","0.0-4.0-0.57","62","1","2022-10-07 07:09:44","d60b49b5908c80e163b920d72b52d584","39.86.249.160","Mozilla/5.0 (Windows NT 10.0; Win64; x64) AppleWebKit/537.36 (KHTML, like Gecko) Chrome/103.0.5060.53 Safari/537.36 Edg/103.0.1264.37","WebKit","Edge","103.0.1264.37","Windows","10.0","null","<div style=""font-size:60px;"">+</div>","null",""
"","","","","","html-button-response","119","280050","0.0-4.0-1.57","62","1","2022-10-07 07:09:44","d60b49b5908c80e163b920d72b52d584","39.86.249.160","Mozilla/5.0 (Windows NT 10.0; Win64; x64) AppleWebKit/537.36 (KHTML, like Gecko) Chrome/103.0.5060.53 Safari/537.36 Edg/103.0.1264.37","WebKit","Edge","103.0.1264.37","Windows","10.0","1329","<p>作为军队的指挥官，你可以选择发射导弹杀死 <strong>4名</strong> 敌国士兵，但会误杀附近的 <strong>1名</strong> 敌国平民。</p> <p>平民照片如下图所示。</p> <p></p> <img src='stimuli/faces/NCF7.jpg', style='max-width: 30%;'> </img> <p><strong>你是否选择发射武器？</strong></p>","1",""
"","","","","","html-keyboard-response","120","281052","0.0-4.0-0.58","62","1","2022-10-07 07:09:44","d60b49b5908c80e163b920d72b52d584","39.86.249.160","Mozilla/5.0 (Windows NT 10.0; Win64; x64) AppleWebKit/537.36 (KHTML, like Gecko) Chrome/103.0.5060.53 Safari/537.36 Edg/103.0.1264.37","WebKit","Edge","103.0.1264.37","Windows","10.0","null","<div style=""font-size:60px;"">+</div>","null",""
"","","","","","html-button-response","121","283047","0.0-4.0-1.58","62","1","2022-10-07 07:09:44","d60b49b5908c80e163b920d72b52d584","39.86.249.160","Mozilla/5.0 (Windows NT 10.0; Win64; x64) AppleWebKit/537.36 (KHTML, like Gecko) Chrome/103.0.5060.53 Safari/537.36 Edg/103.0.1264.37","WebKit","Edge","103.0.1264.37","Windows","10.0","1992","<p>作为军队的指挥官，你可以选择发射导弹杀死 <strong>4名</strong> 敌国士兵，但会误杀附近的 <strong>1名</strong> 敌国平民。</p> <p>平民照片如下图所示。</p> <p></p> <img src='stimuli/faces/NCM7.jpg', style='max-width: 30%;'> </img> <p><strong>你是否选择发射武器？</strong></p>","1",""
"","","","","","html-keyboard-response","122","284050","0.0-4.0-0.59","62","1","2022-10-07 07:09:44","d60b49b5908c80e163b920d72b52d584","39.86.249.160","Mozilla/5.0 (Windows NT 10.0; Win64; x64) AppleWebKit/537.36 (KHTML, like Gecko) Chrome/103.0.5060.53 Safari/537.36 Edg/103.0.1264.37","WebKit","Edge","103.0.1264.37","Windows","10.0","null","<div style=""font-size:60px;"">+</div>","null",""
"","","","","","html-button-response","123","284761","0.0-4.0-1.59","62","1","2022-10-07 07:09:44","d60b49b5908c80e163b920d72b52d584","39.86.249.160","Mozilla/5.0 (Windows NT 10.0; Win64; x64) AppleWebKit/537.36 (KHTML, like Gecko) Chrome/103.0.5060.53 Safari/537.36 Edg/103.0.1264.37","WebKit","Edge","103.0.1264.37","Windows","10.0","708","<p>作为军队的指挥官，你可以选择发射导弹杀死 <strong>4名</strong> 敌国士兵，但会误杀附近的 <strong>1名</strong> 敌国平民。</p> <p>平民照片如下图所示。</p> <p></p> <img src='stimuli/faces/NCM2.jpg', style='max-width: 30%;'> </img> <p><strong>你是否选择发射武器？</strong></p>","1",""
"","","","","","html-keyboard-response","124","285777","0.0-4.0-0.60","62","1","2022-10-07 07:09:44","d60b49b5908c80e163b920d72b52d584","39.86.249.160","Mozilla/5.0 (Windows NT 10.0; Win64; x64) AppleWebKit/537.36 (KHTML, like Gecko) Chrome/103.0.5060.53 Safari/537.36 Edg/103.0.1264.37","WebKit","Edge","103.0.1264.37","Windows","10.0","null","<div style=""font-size:60px;"">+</div>","null",""
"","","","","","html-button-response","125","287137","0.0-4.0-1.60","62","1","2022-10-07 07:09:44","d60b49b5908c80e163b920d72b52d584","39.86.249.160","Mozilla/5.0 (Windows NT 10.0; Win64; x64) AppleWebKit/537.36 (KHTML, like Gecko) Chrome/103.0.5060.53 Safari/537.36 Edg/103.0.1264.37","WebKit","Edge","103.0.1264.37","Windows","10.0","1356","<p>作为军队的指挥官，你可以选择发射导弹杀死 <strong>6名</strong> 敌国士兵，但会炸毁附近的 <strong>1棵</strong> 敌国树木。</p> <p>树木的照片如下图所示。</p> <p></p> <img src='stimuli/trees/2.png', style='max-width: 30%;'> </img> <p><strong>你是否选择发射武器？</strong></p>","0",""
"","","","","","html-keyboard-response","126","288142","0.0-4.0-0.61","62","1","2022-10-07 07:09:44","d60b49b5908c80e163b920d72b52d584","39.86.249.160","Mozilla/5.0 (Windows NT 10.0; Win64; x64) AppleWebKit/537.36 (KHTML, like Gecko) Chrome/103.0.5060.53 Safari/537.36 Edg/103.0.1264.37","WebKit","Edge","103.0.1264.37","Windows","10.0","null","<div style=""font-size:60px;"">+</div>","null",""
"","","","","","html-button-response","127","289969","0.0-4.0-1.61","62","1","2022-10-07 07:09:44","d60b49b5908c80e163b920d72b52d584","39.86.249.160","Mozilla/5.0 (Windows NT 10.0; Win64; x64) AppleWebKit/537.36 (KHTML, like Gecko) Chrome/103.0.5060.53 Safari/537.36 Edg/103.0.1264.37","WebKit","Edge","103.0.1264.37","Windows","10.0","1824","<p>作为军队的指挥官，你可以选择发射导弹杀死 <strong>1名</strong> 敌国士兵，但会炸毁附近的 <strong>1棵</strong> 敌国树木。</p> <p>树木的照片如下图所示。</p> <p></p> <img src='stimuli/trees/12.png', style='max-width: 30%;'> </img> <p><strong>你是否选择发射武器？</strong></p>","0",""
"","","","","","html-keyboard-response","128","290982","0.0-4.0-0.62","62","1","2022-10-07 07:09:44","d60b49b5908c80e163b920d72b52d584","39.86.249.160","Mozilla/5.0 (Windows NT 10.0; Win64; x64) AppleWebKit/537.36 (KHTML, like Gecko) Chrome/103.0.5060.53 Safari/537.36 Edg/103.0.1264.37","WebKit","Edge","103.0.1264.37","Windows","10.0","null","<div style=""font-size:60px;"">+</div>","null",""
"","","","","","html-button-response","129","291994","0.0-4.0-1.62","62","1","2022-10-07 07:09:44","d60b49b5908c80e163b920d72b52d584","39.86.249.160","Mozilla/5.0 (Windows NT 10.0; Win64; x64) AppleWebKit/537.36 (KHTML, like Gecko) Chrome/103.0.5060.53 Safari/537.36 Edg/103.0.1264.37","WebKit","Edge","103.0.1264.37","Windows","10.0","1009","<p>作为军队的指挥官，你可以选择发射导弹杀死 <strong>9名</strong> 敌国士兵，但会炸毁附近的 <strong>1棵</strong> 敌国树木。</p> <p>树木的照片如下图所示。</p> <p></p> <img src='stimuli/trees/16.png', style='max-width: 30%;'> </img> <p><strong>你是否选择发射武器？</strong></p>","0",""
"","","","","","html-keyboard-response","130","293012","0.0-4.0-0.63","62","1","2022-10-07 07:09:44","d60b49b5908c80e163b920d72b52d584","39.86.249.160","Mozilla/5.0 (Windows NT 10.0; Win64; x64) AppleWebKit/537.36 (KHTML, like Gecko) Chrome/103.0.5060.53 Safari/537.36 Edg/103.0.1264.37","WebKit","Edge","103.0.1264.37","Windows","10.0","null","<div style=""font-size:60px;"">+</div>","null",""
"","","","","","html-button-response","131","294349","0.0-4.0-1.63","62","1","2022-10-07 07:09:44","d60b49b5908c80e163b920d72b52d584","39.86.249.160","Mozilla/5.0 (Windows NT 10.0; Win64; x64) AppleWebKit/537.36 (KHTML, like Gecko) Chrome/103.0.5060.53 Safari/537.36 Edg/103.0.1264.37","WebKit","Edge","103.0.1264.37","Windows","10.0","1334","<p>作为军队的指挥官，你可以选择发射导弹杀死 <strong>7名</strong> 敌国士兵，但会炸毁附近的 <strong>1棵</strong> 敌国树木。</p> <p>树木的照片如下图所示。</p> <p></p> <img src='stimuli/trees/15.png', style='max-width: 30%;'> </img> <p><strong>你是否选择发射武器？</strong></p>","0",""
"","","","","","survey-multi-choice","132","333232","0.0-5.0","62","1","2022-10-07 07:09:44","d60b49b5908c80e163b920d72b52d584","39.86.249.160","Mozilla/5.0 (Windows NT 10.0; Win64; x64) AppleWebKit/537.36 (KHTML, like Gecko) Chrome/103.0.5060.53 Safari/537.36 Edg/103.0.1264.37","WebKit","Edge","103.0.1264.37","Windows","10.0","38879","","{""Attention1"":""""}","[0]"
"","","","","","html-button-response","133","339779","0.0-6.0","62","1","2022-10-07 07:09:44","d60b49b5908c80e163b920d72b52d584","39.86.249.160","Mozilla/5.0 (Windows NT 10.0; Win64; x64) AppleWebKit/537.36 (KHTML, like Gecko) Chrome/103.0.5060.53 Safari/537.36 Edg/103.0.1264.37","WebKit","Edge","103.0.1264.37","Windows","10.0","6541","<p style=""font-size:20px;font-weight:bold;"">恭喜！</p><p>你已经完成了实验的第一部分。</p><p>请休息放松一下，然后进入第二部分。</p><p>这部分大约需要10分钟。</p>","0",""
"","","","","","survey-text","134","386159","0.0-7.0","62","1","2022-10-07 07:09:44","d60b49b5908c80e163b920d72b52d584","39.86.249.160","Mozilla/5.0 (Windows NT 10.0; Win64; x64) AppleWebKit/537.36 (KHTML, like Gecko) Chrome/103.0.5060.53 Safari/537.36 Edg/103.0.1264.37","WebKit","Edge","103.0.1264.37","Windows","10.0","45372","","{""Age"":""21"",""Nation"":""中国"",""Born"":""山东省聊城市"",""Live"":""山东省烟台市"",""Ethnic"":""汉族"",""Alipay"":""15562847966""}",""
"","","","","","survey-multi-choice","135","409484","0.0-8.0","62","1","2022-10-07 07:09:44","d60b49b5908c80e163b920d72b52d584","39.86.249.160","Mozilla/5.0 (Windows NT 10.0; Win64; x64) AppleWebKit/537.36 (KHTML, like Gecko) Chrome/103.0.5060.53 Safari/537.36 Edg/103.0.1264.37","WebKit","Edge","103.0.1264.37","Windows","10.0","23321","","{""Gender"":""男"",""Education"":""高中毕业"",""Income"":""￥70,000-￥139,999"",""Children"":""2"",""Race"":""亚洲人""}","[0,1,2,3,4]"
"","","","","","survey-multi-select","136","419443","0.0-9.0","62","1","2022-10-07 07:09:44","d60b49b5908c80e163b920d72b52d584","39.86.249.160","Mozilla/5.0 (Windows NT 10.0; Win64; x64) AppleWebKit/537.36 (KHTML, like Gecko) Chrome/103.0.5060.53 Safari/537.36 Edg/103.0.1264.37","WebKit","Edge","103.0.1264.37","Windows","10.0","9952","","{""Marriage"":[""未婚""],""Religion"":[""无宗教信仰""]}","[0,1]"
"","","","","","survey-multi-choice","137","431711","0.0-10.0","62","1","2022-10-07 07:09:44","d60b49b5908c80e163b920d72b52d584","39.86.249.160","Mozilla/5.0 (Windows NT 10.0; Win64; x64) AppleWebKit/537.36 (KHTML, like Gecko) Chrome/103.0.5060.53 Safari/537.36 Edg/103.0.1264.37","WebKit","Edge","103.0.1264.37","Windows","10.0","12262","","{""SES"":""7""}","[0]"
"","","","","","html-button-response","138","435758","0.0-11.0","62","1","2022-10-07 07:09:44","d60b49b5908c80e163b920d72b52d584","39.86.249.160","Mozilla/5.0 (Windows NT 10.0; Win64; x64) AppleWebKit/537.36 (KHTML, like Gecko) Chrome/103.0.5060.53 Safari/537.36 Edg/103.0.1264.37","WebKit","Edge","103.0.1264.37","Windows","10.0","4043","<p><strong>请判断下列陈述在多大程度上可以形容你？</p><p> (1 = ""和我一点都不像"" to 5 = ""非常像我"".)</strong></p>","0",""
"","","","","","survey-likert","139","465182","0.0-12.0","62","1","2022-10-07 07:09:44","d60b49b5908c80e163b920d72b52d584","39.86.249.160","Mozilla/5.0 (Windows NT 10.0; Win64; x64) AppleWebKit/537.36 (KHTML, like Gecko) Chrome/103.0.5060.53 Safari/537.36 Edg/103.0.1264.37","WebKit","Edge","103.0.1264.37","Windows","10.0","29420","","{""Aggression1"":0,""Aggression2"":0,""Aggression3"":2,""Aggression4"":0,""Aggression5"":3,""Aggression6"":1,""Aggression7"":4,""Aggression8"":0,""Aggression9"":0}","[0,1,2,3,4,5,6,7,8]"
"","","","","","html-button-response","140","466832","0.0-13.0","62","1","2022-10-07 07:09:44","d60b49b5908c80e163b920d72b52d584","39.86.249.160","Mozilla/5.0 (Windows NT 10.0; Win64; x64) AppleWebKit/537.36 (KHTML, like Gecko) Chrome/103.0.5060.53 Safari/537.36 Edg/103.0.1264.37","WebKit","Edge","103.0.1264.37","Windows","10.0","1645","<p><strong>请判断你在多大程度上同意下列陈述。</strong></p>","0",""
"","","","","","survey-likert","141","591203","0.0-14.0","62","1","2022-10-07 07:09:44","d60b49b5908c80e163b920d72b52d584","39.86.249.160","Mozilla/5.0 (Windows NT 10.0; Win64; x64) AppleWebKit/537.36 (KHTML, like Gecko) Chrome/103.0.5060.53 Safari/537.36 Edg/103.0.1264.37","WebKit","Edge","103.0.1264.37","Windows","10.0","124366","","{""scale25"":3,""scale4"":1,""scale26"":3,""scale16"":2,""scale10"":2,""scale17"":3,""scale13"":1,""scale1"":0,""scale24"":1,""scale8"":3,""scale7"":2,""scale6"":1,""scale20"":3,""scale3"":1,""scale11"":4,""scale14"":1,""scale22"":2,""scale12"":1,""scale27"":0,""scale9"":3,""scale2"":4,""scale15"":3,""scale28"":3,""scale5"":3,""scale18"":1,""scale21"":3,""scale19"":2,""scale23"":3}","[24,3,25,15,9,16,12,0,23,7,6,5,19,2,10,13,21,11,26,8,1,14,27,4,17,20,18,22]"
"","","","","","html-button-response","142","592730","0.0-15.0","62","1","2022-10-07 07:09:44","d60b49b5908c80e163b920d72b52d584","39.86.249.160","Mozilla/5.0 (Windows NT 10.0; Win64; x64) AppleWebKit/537.36 (KHTML, like Gecko) Chrome/103.0.5060.53 Safari/537.36 Edg/103.0.1264.37","WebKit","Edge","103.0.1264.37","Windows","10.0","1522","<p><strong>请判断你在多大程度上同意下列陈述。</strong></p>","0",""
"","","","","","survey-likert","143","670451","0.0-16.0","62","1","2022-10-07 07:09:44","d60b49b5908c80e163b920d72b52d584","39.86.249.160","Mozilla/5.0 (Windows NT 10.0; Win64; x64) AppleWebKit/537.36 (KHTML, like Gecko) Chrome/103.0.5060.53 Safari/537.36 Edg/103.0.1264.37","WebKit","Edge","103.0.1264.37","Windows","10.0","77716","","{""sdo6"":5,""sdo9"":5,""sdo14"":4,""sdo11"":6,""sdo2"":1,""sdo15"":6,""sdo5"":5,""sdo12"":6,""sdo8"":5,""sdo1"":3,""sdo13"":6,""sdo4"":2,""sdo16"":5,""sdo7"":4,""sdo3"":5,""sdo10"":6}","[5,8,13,10,1,14,4,11,7,0,12,3,15,6,2,9]"
"","","","","","html-button-response","144","672166","0.0-17.0","62","1","2022-10-07 07:09:44","d60b49b5908c80e163b920d72b52d584","39.86.249.160","Mozilla/5.0 (Windows NT 10.0; Win64; x64) AppleWebKit/537.36 (KHTML, like Gecko) Chrome/103.0.5060.53 Safari/537.36 Edg/103.0.1264.37","WebKit","Edge","103.0.1264.37","Windows","10.0","1710","<p><strong>请判断你在多大程度上同意下列陈述。</strong></p>","0",""
"","","","","","survey-likert","145","721849","0.0-18.0","62","1","2022-10-07 07:09:44","d60b49b5908c80e163b920d72b52d584","39.86.249.160","Mozilla/5.0 (Windows NT 10.0; Win64; x64) AppleWebKit/537.36 (KHTML, like Gecko) Chrome/103.0.5060.53 Safari/537.36 Edg/103.0.1264.37","WebKit","Edge","103.0.1264.37","Windows","10.0","49679","","{""caring1"":3,""liking1"":0,""caring2"":4,""protection1"":4,""liking2"":0,""caring3"":3,""protection2"":3,""liking3"":1,""protection3"":4,""caring4"":4,""liking4"":0,""protection4"":3,""caring5"":2,""liking5"":2,""protection5"":4}","[0,1,2,3,4,5,6,7,8,9,10,11,12,13,14]"
"","","","","","html-button-response","146","723136","0.0-19.0","62","1","2022-10-07 07:09:44","d60b49b5908c80e163b920d72b52d584","39.86.249.160","Mozilla/5.0 (Windows NT 10.0; Win64; x64) AppleWebKit/537.36 (KHTML, like Gecko) Chrome/103.0.5060.53 Safari/537.36 Edg/103.0.1264.37","WebKit","Edge","103.0.1264.37","Windows","10.0","1282","<p><strong>请判断下列场景中你的内心感受有多柔软。</strong></p>","0",""
"","","","","","survey-likert","147","772696","0.0-20.0","62","1","2022-10-07 07:09:44","d60b49b5908c80e163b920d72b52d584","39.86.249.160","Mozilla/5.0 (Windows NT 10.0; Win64; x64) AppleWebKit/537.36 (KHTML, like Gecko) Chrome/103.0.5060.53 Safari/537.36 Edg/103.0.1264.37","WebKit","Edge","103.0.1264.37","Windows","10.0","49557","","{""tenderness-positive1"":3,""tenderness-negative1"":3,""tenderness-negative2"":2,""tenderness-positive2"":3,""tenderness-positive3"":3,""tenderness-negative3"":3,""tenderness-positive4"":4,""tendereness-negative4"":1,""tendernness-negative5"":3,""tenderness-positive5"":3}","[0,1,2,3,4,5,6,7,8,9]"
"","","","","","survey-multi-choice","148","809641","0.0-21.0","62","1","2022-10-07 07:09:44","d60b49b5908c80e163b920d72b52d584","39.86.249.160","Mozilla/5.0 (Windows NT 10.0; Win64; x64) AppleWebKit/537.36 (KHTML, like Gecko) Chrome/103.0.5060.53 Safari/537.36 Edg/103.0.1264.37","WebKit","Edge","103.0.1264.37","Windows","10.0","36940","","{""Attention2"":""其他""}","[0]"
"","","","","","html-button-response","149","811212","0.0-22.0","62","1","2022-10-07 07:09:44","d60b49b5908c80e163b920d72b52d584","39.86.249.160","Mozilla/5.0 (Windows NT 10.0; Win64; x64) AppleWebKit/537.36 (KHTML, like Gecko) Chrome/103.0.5060.53 Safari/537.36 Edg/103.0.1264.37","WebKit","Edge","103.0.1264.37","Windows","10.0","1566","<p><strong>请判断你在多大程度上同意下列陈述。</strong></p>","0",""
"","","","","","survey-likert","150","916758","0.0-23.0","62","1","2022-10-07 07:09:44","d60b49b5908c80e163b920d72b52d584","39.86.249.160","Mozilla/5.0 (Windows NT 10.0; Win64; x64) AppleWebKit/537.36 (KHTML, like Gecko) Chrome/103.0.5060.53 Safari/537.36 Edg/103.0.1264.37","WebKit","Edge","103.0.1264.37","Windows","10.0","105543","","{""Patri9"":1,""Nation7"":4,""Nation6"":4,""Patri4"":3,""Patri7"":4,""Patri6"":0,""Patri11"":0,""Patri10"":0,""Patri5"":4,""Patri12"":0,""Nation8"":0,""Nation3"":1,""Patri8"":4,""Nation2"":4,""Nation5"":1,""Patri3"":3,""Patri1"":4,""Nation1"":4,""Patri2"":4,""Nation4"":2}","[8,18,17,3,6,5,10,9,4,11,19,14,7,13,16,2,0,12,1,15]"
"","","","","","html-button-response","151","918189","0.0-24.0","62","1","2022-10-07 07:09:44","d60b49b5908c80e163b920d72b52d584","39.86.249.160","Mozilla/5.0 (Windows NT 10.0; Win64; x64) AppleWebKit/537.36 (KHTML, like Gecko) Chrome/103.0.5060.53 Safari/537.36 Edg/103.0.1264.37","WebKit","Edge","103.0.1264.37","Windows","10.0","1426","<p><strong>请判断你在多大程度上同意下列陈述。</strong></p>","0",""
"","","","","","survey-likert","152","983638","0.0-25.0","62","1","2022-10-07 07:09:44","d60b49b5908c80e163b920d72b52d584","39.86.249.160","Mozilla/5.0 (Windows NT 10.0; Win64; x64) AppleWebKit/537.36 (KHTML, like Gecko) Chrome/103.0.5060.53 Safari/537.36 Edg/103.0.1264.37","WebKit","Edge","103.0.1264.37","Windows","10.0","65444","","{""vi1"":7,""hc4"":8,""vc3"":7,""hc2"":7,""hi2"":6,""hi4"":7,""vc1"":8,""vc4"":7,""hc3"":7,""hi1"":6,""hc1"":7,""Robot"":6,""vi2"":6,""hi3"":5,""vi4"":5,""vc2"":7,""vi3"":8}","[4,12,15,10,1,3,13,16,11,0,9,7,5,2,8,14,6]"
"","","","","","survey-text","153","989617","0.0-26.0","62","1","2022-10-07 07:09:44","d60b49b5908c80e163b920d72b52d584","39.86.249.160","Mozilla/5.0 (Windows NT 10.0; Win64; x64) AppleWebKit/537.36 (KHTML, like Gecko) Chrome/103.0.5060.53 Safari/537.36 Edg/103.0.1264.37","WebKit","Edge","103.0.1264.37","Windows","10.0","5965","","{""Comments"":""无""}",""
"","","","","","html-button-response","154","993444","0.0-27.0","62","1","2022-10-07 07:09:44","d60b49b5908c80e163b920d72b52d584","39.86.249.160","Mozilla/5.0 (Windows NT 10.0; Win64; x64) AppleWebKit/537.36 (KHTML, like Gecko) Chrome/103.0.5060.53 Safari/537.36 Edg/103.0.1264.37","WebKit","Edge","103.0.1264.37","Windows","10.0","3824","<strong><p>恭喜你完成了实验！</p><p>感谢您的参与。</p></strong>","0",""
