"success","timeout","failed_images","failed_audio","failed_video","trial_type","trial_index","time_elapsed","internal_node_id","run_id","condition","recorded_at","source_code_version","ip","user_agent","device","browser","browser_version","platform","platform_version","rt","stimulus","response","question_order"
"true","false","[]","[]","[]","preload","0","1803","0.0-0.0","67","1","2022-10-07 07:31:35","d60b49b5908c80e163b920d72b52d584","39.144.218.5","Mozilla/5.0 (Windows NT 10.0; Win64; x64) AppleWebKit/537.36 (KHTML, like Gecko) Chrome/98.0.4758.82 Safari/537.36","WebKit","Chrome","98.0.4758.82","Windows","10.0","","","",""
"true","","","","","fullscreen","1","4856","0.0-1.0","67","1","2022-10-07 07:31:35","d60b49b5908c80e163b920d72b52d584","39.144.218.5","Mozilla/5.0 (Windows NT 10.0; Win64; x64) AppleWebKit/537.36 (KHTML, like Gecko) Chrome/98.0.4758.82 Safari/537.36","WebKit","Chrome","98.0.4758.82","Windows","10.0","","","",""
"","","","","","html-button-response","2","15321","0.0-2.0","67","1","2022-10-07 07:31:35","d60b49b5908c80e163b920d72b52d584","39.144.218.5","Mozilla/5.0 (Windows NT 10.0; Win64; x64) AppleWebKit/537.36 (KHTML, like Gecko) Chrome/98.0.4758.82 Safari/537.36","WebKit","Chrome","98.0.4758.82","Windows","10.0","10462","<p style=""font-size:20px;font-weight:bold;"">实验知情同意书</p><p style=""text-align:left;""><strong>实验名称：</strong>社会冲突研究</p><p style=""text-align:left;""><strong>主要研究者：</strong>韩晓春副教授（北京师范大学心理学部）</p><p style=""text-align:left;""><strong>联系方式：</strong>发送邮件至xiaochun.han@bnu.edu.cn</p><p style=""text-align:left;""><strong>研究目的：</strong>研究旨在了解人类面对群体冲突时的决策方式，以及相关的心理学特质。实验调查大约需要20分钟。</p><p style=""text-align:left;""><strong>实验流程：</strong>实验包含两部分。第一部分呈现一系列群体冲突场景，请你决定如何对这些冲突进行反应，大约需要10分钟完成。第二部分包含一系列人口统计学信息收集和心理学问卷，大约需要10分钟完成。</p><p style=""text-align:left;""><strong>参加及退出规则：</strong>参加本实验完全取决于您的个人意愿。在参与过程中，您可以随时退出，并且不用承担任何后果。</p><p style=""text-align:left;""><strong>隐私：</strong>本实验完全匿名进行，不会收集您的姓名或其他能够识别您身份的信息。实验中收集的作答仅用作科学研究使用，可能会在学术期刊/书籍上发表，或者用于教学，您的数据未来可能会和其他研究者或实验室分享，但您的个人身份不会被识别。</p><p style=""text-align:left;""><strong>实验报酬：</strong>实验完成后，您将获得15元人民币报酬，以感谢您的时间和努力。调查问卷中包含几道题目用以测验您作答时的认真度。只有完成全部实验，并且正确回答认真度测验的被试才能获得实验报酬。实验报酬将通过支付宝转账发放。</p><p style=""text-align:left;font-size:20px;""><strong>如果您同意以上实验知情同意书的内容，请点击'同意并且开始实验'按钮；否则请关闭浏览器界面，退出实验。</strong></p>","0",""
"","","","","","html-button-response","3","19614","0.0-3.0","67","1","2022-10-07 07:31:35","d60b49b5908c80e163b920d72b52d584","39.144.218.5","Mozilla/5.0 (Windows NT 10.0; Win64; x64) AppleWebKit/537.36 (KHTML, like Gecko) Chrome/98.0.4758.82 Safari/537.36","WebKit","Chrome","98.0.4758.82","Windows","10.0","4287","<p ><strong>实验任务一：</strong></p><p>请想象你的国家与另一个国家发生了军事冲突。</p><p>你是国家军队的指挥官，你将如何在冲突中进行决策。</p><p>具体来说，作为军队指挥官，请你决定是否发射导弹进行打击。</p><p>接下来，你会面对一系列场景，请仔细阅读每个场景，然后进行决策。</p><p>这部分实验任务大约需要10分钟。</p><p><strong>实验过程中，请集中注意力。</strong></p>","0",""
"","","","","","html-keyboard-response","4","20619","0.0-4.0-0.0","67","1","2022-10-07 07:31:35","d60b49b5908c80e163b920d72b52d584","39.144.218.5","Mozilla/5.0 (Windows NT 10.0; Win64; x64) AppleWebKit/537.36 (KHTML, like Gecko) Chrome/98.0.4758.82 Safari/537.36","WebKit","Chrome","98.0.4758.82","Windows","10.0","null","<div style=""font-size:60px;"">+</div>","null",""
"","","","","","html-button-response","5","50667","0.0-4.0-1.0","67","1","2022-10-07 07:31:35","d60b49b5908c80e163b920d72b52d584","39.144.218.5","Mozilla/5.0 (Windows NT 10.0; Win64; x64) AppleWebKit/537.36 (KHTML, like Gecko) Chrome/98.0.4758.82 Safari/537.36","WebKit","Chrome","98.0.4758.82","Windows","10.0","30044","<p>作为军队的指挥官，你可以选择发射导弹杀死 <strong>10名</strong> 敌国士兵，但会误杀附近的 <strong>1名</strong> 敌国平民。</p> <p>平民照片如下图所示。</p> <p></p> <img src='stimuli/faces/NCM5.jpg', style='max-width: 30%;'> </img> <p><strong>你是否选择发射武器？</strong></p>","1",""
"","","","","","html-keyboard-response","6","51676","0.0-4.0-0.1","67","1","2022-10-07 07:31:35","d60b49b5908c80e163b920d72b52d584","39.144.218.5","Mozilla/5.0 (Windows NT 10.0; Win64; x64) AppleWebKit/537.36 (KHTML, like Gecko) Chrome/98.0.4758.82 Safari/537.36","WebKit","Chrome","98.0.4758.82","Windows","10.0","null","<div style=""font-size:60px;"">+</div>","null",""
"","","","","","html-button-response","7","55607","0.0-4.0-1.1","67","1","2022-10-07 07:31:35","d60b49b5908c80e163b920d72b52d584","39.144.218.5","Mozilla/5.0 (Windows NT 10.0; Win64; x64) AppleWebKit/537.36 (KHTML, like Gecko) Chrome/98.0.4758.82 Safari/537.36","WebKit","Chrome","98.0.4758.82","Windows","10.0","3927","<p>作为军队的指挥官，你可以选择发射导弹杀死 <strong>5名</strong> 敌国士兵，但会误杀附近的 <strong>1名</strong> 敌国平民。</p> <p>平民照片如下图所示。</p> <p></p> <img src='stimuli/faces/NCF3.jpg', style='max-width: 30%;'> </img> <p><strong>你是否选择发射武器？</strong></p>","1",""
"","","","","","html-keyboard-response","8","56623","0.0-4.0-0.2","67","1","2022-10-07 07:31:35","d60b49b5908c80e163b920d72b52d584","39.144.218.5","Mozilla/5.0 (Windows NT 10.0; Win64; x64) AppleWebKit/537.36 (KHTML, like Gecko) Chrome/98.0.4758.82 Safari/537.36","WebKit","Chrome","98.0.4758.82","Windows","10.0","null","<div style=""font-size:60px;"">+</div>","null",""
"","","","","","html-button-response","9","61282","0.0-4.0-1.2","67","1","2022-10-07 07:31:35","d60b49b5908c80e163b920d72b52d584","39.144.218.5","Mozilla/5.0 (Windows NT 10.0; Win64; x64) AppleWebKit/537.36 (KHTML, like Gecko) Chrome/98.0.4758.82 Safari/537.36","WebKit","Chrome","98.0.4758.82","Windows","10.0","4657","<p>作为军队的指挥官，你可以选择发射导弹杀死 <strong>2名</strong> 敌国士兵，但会炸毁附近的 <strong>1棵</strong> 敌国树木。</p> <p>树木的照片如下图所示。</p> <p></p> <img src='stimuli/trees/6.png', style='max-width: 30%;'> </img> <p><strong>你是否选择发射武器？</strong></p>","0",""
"","","","","","html-keyboard-response","10","62293","0.0-4.0-0.3","67","1","2022-10-07 07:31:35","d60b49b5908c80e163b920d72b52d584","39.144.218.5","Mozilla/5.0 (Windows NT 10.0; Win64; x64) AppleWebKit/537.36 (KHTML, like Gecko) Chrome/98.0.4758.82 Safari/537.36","WebKit","Chrome","98.0.4758.82","Windows","10.0","null","<div style=""font-size:60px;"">+</div>","null",""
"","","","","","html-button-response","11","67424","0.0-4.0-1.3","67","1","2022-10-07 07:31:35","d60b49b5908c80e163b920d72b52d584","39.144.218.5","Mozilla/5.0 (Windows NT 10.0; Win64; x64) AppleWebKit/537.36 (KHTML, like Gecko) Chrome/98.0.4758.82 Safari/537.36","WebKit","Chrome","98.0.4758.82","Windows","10.0","5127","<p>作为军队的指挥官，你可以选择发射导弹杀死 <strong>10名</strong> 敌国士兵，但会误杀附近的 <strong>1名</strong> 敌国平民。</p> <p>平民照片如下图所示。</p> <p></p> <img src='stimuli/faces/NCM1.jpg', style='max-width: 30%;'> </img> <p><strong>你是否选择发射武器？</strong></p>","1",""
"","","","","","html-keyboard-response","12","68431","0.0-4.0-0.4","67","1","2022-10-07 07:31:35","d60b49b5908c80e163b920d72b52d584","39.144.218.5","Mozilla/5.0 (Windows NT 10.0; Win64; x64) AppleWebKit/537.36 (KHTML, like Gecko) Chrome/98.0.4758.82 Safari/537.36","WebKit","Chrome","98.0.4758.82","Windows","10.0","null","<div style=""font-size:60px;"">+</div>","null",""
"","","","","","html-button-response","13","71210","0.0-4.0-1.4","67","1","2022-10-07 07:31:35","d60b49b5908c80e163b920d72b52d584","39.144.218.5","Mozilla/5.0 (Windows NT 10.0; Win64; x64) AppleWebKit/537.36 (KHTML, like Gecko) Chrome/98.0.4758.82 Safari/537.36","WebKit","Chrome","98.0.4758.82","Windows","10.0","2774","<p>作为军队的指挥官，你可以选择发射导弹杀死 <strong>2名</strong> 敌国士兵，但会炸毁附近的 <strong>1棵</strong> 敌国树木。</p> <p>树木的照片如下图所示。</p> <p></p> <img src='stimuli/trees/11.png', style='max-width: 30%;'> </img> <p><strong>你是否选择发射武器？</strong></p>","0",""
"","","","","","html-keyboard-response","14","72214","0.0-4.0-0.5","67","1","2022-10-07 07:31:35","d60b49b5908c80e163b920d72b52d584","39.144.218.5","Mozilla/5.0 (Windows NT 10.0; Win64; x64) AppleWebKit/537.36 (KHTML, like Gecko) Chrome/98.0.4758.82 Safari/537.36","WebKit","Chrome","98.0.4758.82","Windows","10.0","null","<div style=""font-size:60px;"">+</div>","null",""
"","","","","","html-button-response","15","74148","0.0-4.0-1.5","67","1","2022-10-07 07:31:35","d60b49b5908c80e163b920d72b52d584","39.144.218.5","Mozilla/5.0 (Windows NT 10.0; Win64; x64) AppleWebKit/537.36 (KHTML, like Gecko) Chrome/98.0.4758.82 Safari/537.36","WebKit","Chrome","98.0.4758.82","Windows","10.0","1927","<p>作为军队的指挥官，你可以选择发射导弹杀死 <strong>7名</strong> 敌国士兵，但会炸毁附近的 <strong>1棵</strong> 敌国树木。</p> <p>树木的照片如下图所示。</p> <p></p> <img src='stimuli/trees/15.png', style='max-width: 30%;'> </img> <p><strong>你是否选择发射武器？</strong></p>","0",""
"","","","","","html-keyboard-response","16","75194","0.0-4.0-0.6","67","1","2022-10-07 07:31:35","d60b49b5908c80e163b920d72b52d584","39.144.218.5","Mozilla/5.0 (Windows NT 10.0; Win64; x64) AppleWebKit/537.36 (KHTML, like Gecko) Chrome/98.0.4758.82 Safari/537.36","WebKit","Chrome","98.0.4758.82","Windows","10.0","null","<div style=""font-size:60px;"">+</div>","null",""
"","","","","","html-button-response","17","78353","0.0-4.0-1.6","67","1","2022-10-07 07:31:35","d60b49b5908c80e163b920d72b52d584","39.144.218.5","Mozilla/5.0 (Windows NT 10.0; Win64; x64) AppleWebKit/537.36 (KHTML, like Gecko) Chrome/98.0.4758.82 Safari/537.36","WebKit","Chrome","98.0.4758.82","Windows","10.0","3153","<p>作为军队的指挥官，你可以选择发射导弹杀死 <strong>7名</strong> 敌国士兵，但会炸毁附近的 <strong>1棵</strong> 敌国树木。</p> <p>树木的照片如下图所示。</p> <p></p> <img src='stimuli/trees/12.png', style='max-width: 30%;'> </img> <p><strong>你是否选择发射武器？</strong></p>","0",""
"","","","","","html-keyboard-response","18","79366","0.0-4.0-0.7","67","1","2022-10-07 07:31:35","d60b49b5908c80e163b920d72b52d584","39.144.218.5","Mozilla/5.0 (Windows NT 10.0; Win64; x64) AppleWebKit/537.36 (KHTML, like Gecko) Chrome/98.0.4758.82 Safari/537.36","WebKit","Chrome","98.0.4758.82","Windows","10.0","null","<div style=""font-size:60px;"">+</div>","null",""
"","","","","","html-button-response","19","82850","0.0-4.0-1.7","67","1","2022-10-07 07:31:35","d60b49b5908c80e163b920d72b52d584","39.144.218.5","Mozilla/5.0 (Windows NT 10.0; Win64; x64) AppleWebKit/537.36 (KHTML, like Gecko) Chrome/98.0.4758.82 Safari/537.36","WebKit","Chrome","98.0.4758.82","Windows","10.0","3480","<p>作为军队的指挥官，你可以选择发射导弹杀死 <strong>6名</strong> 敌国士兵，但会炸毁附近的 <strong>1棵</strong> 敌国树木。</p> <p>树木的照片如下图所示。</p> <p></p> <img src='stimuli/trees/13.png', style='max-width: 30%;'> </img> <p><strong>你是否选择发射武器？</strong></p>","0",""
"","","","","","html-keyboard-response","20","83854","0.0-4.0-0.8","67","1","2022-10-07 07:31:35","d60b49b5908c80e163b920d72b52d584","39.144.218.5","Mozilla/5.0 (Windows NT 10.0; Win64; x64) AppleWebKit/537.36 (KHTML, like Gecko) Chrome/98.0.4758.82 Safari/537.36","WebKit","Chrome","98.0.4758.82","Windows","10.0","null","<div style=""font-size:60px;"">+</div>","null",""
"","","","","","html-button-response","21","87444","0.0-4.0-1.8","67","1","2022-10-07 07:31:35","d60b49b5908c80e163b920d72b52d584","39.144.218.5","Mozilla/5.0 (Windows NT 10.0; Win64; x64) AppleWebKit/537.36 (KHTML, like Gecko) Chrome/98.0.4758.82 Safari/537.36","WebKit","Chrome","98.0.4758.82","Windows","10.0","3586","<p>作为军队的指挥官，你可以选择发射导弹杀死 <strong>3名</strong> 敌国士兵，但会误杀附近的 <strong>1名</strong> 敌国平民。</p> <p>平民照片如下图所示。</p> <p></p> <img src='stimuli/faces/NCM8.jpg', style='max-width: 30%;'> </img> <p><strong>你是否选择发射武器？</strong></p>","0",""
"","","","","","html-keyboard-response","22","88462","0.0-4.0-0.9","67","1","2022-10-07 07:31:35","d60b49b5908c80e163b920d72b52d584","39.144.218.5","Mozilla/5.0 (Windows NT 10.0; Win64; x64) AppleWebKit/537.36 (KHTML, like Gecko) Chrome/98.0.4758.82 Safari/537.36","WebKit","Chrome","98.0.4758.82","Windows","10.0","null","<div style=""font-size:60px;"">+</div>","null",""
"","","","","","html-button-response","23","90008","0.0-4.0-1.9","67","1","2022-10-07 07:31:35","d60b49b5908c80e163b920d72b52d584","39.144.218.5","Mozilla/5.0 (Windows NT 10.0; Win64; x64) AppleWebKit/537.36 (KHTML, like Gecko) Chrome/98.0.4758.82 Safari/537.36","WebKit","Chrome","98.0.4758.82","Windows","10.0","1541","<p>作为军队的指挥官，你可以选择发射导弹杀死 <strong>10名</strong> 敌国士兵，但会炸毁附近的 <strong>1棵</strong> 敌国树木。</p> <p>树木的照片如下图所示。</p> <p></p> <img src='stimuli/trees/8.png', style='max-width: 30%;'> </img> <p><strong>你是否选择发射武器？</strong></p>","0",""
"","","","","","html-keyboard-response","24","91024","0.0-4.0-0.10","67","1","2022-10-07 07:31:35","d60b49b5908c80e163b920d72b52d584","39.144.218.5","Mozilla/5.0 (Windows NT 10.0; Win64; x64) AppleWebKit/537.36 (KHTML, like Gecko) Chrome/98.0.4758.82 Safari/537.36","WebKit","Chrome","98.0.4758.82","Windows","10.0","null","<div style=""font-size:60px;"">+</div>","null",""
"","","","","","html-button-response","25","94386","0.0-4.0-1.10","67","1","2022-10-07 07:31:35","d60b49b5908c80e163b920d72b52d584","39.144.218.5","Mozilla/5.0 (Windows NT 10.0; Win64; x64) AppleWebKit/537.36 (KHTML, like Gecko) Chrome/98.0.4758.82 Safari/537.36","WebKit","Chrome","98.0.4758.82","Windows","10.0","3360","<p>作为军队的指挥官，你可以选择发射导弹杀死 <strong>3名</strong> 敌国士兵，但会误杀附近的 <strong>1名</strong> 敌国平民。</p> <p>平民照片如下图所示。</p> <p></p> <img src='stimuli/faces/NCM5.jpg', style='max-width: 30%;'> </img> <p><strong>你是否选择发射武器？</strong></p>","1",""
"","","","","","html-keyboard-response","26","95401","0.0-4.0-0.11","67","1","2022-10-07 07:31:35","d60b49b5908c80e163b920d72b52d584","39.144.218.5","Mozilla/5.0 (Windows NT 10.0; Win64; x64) AppleWebKit/537.36 (KHTML, like Gecko) Chrome/98.0.4758.82 Safari/537.36","WebKit","Chrome","98.0.4758.82","Windows","10.0","null","<div style=""font-size:60px;"">+</div>","null",""
"","","","","","html-button-response","27","97225","0.0-4.0-1.11","67","1","2022-10-07 07:31:35","d60b49b5908c80e163b920d72b52d584","39.144.218.5","Mozilla/5.0 (Windows NT 10.0; Win64; x64) AppleWebKit/537.36 (KHTML, like Gecko) Chrome/98.0.4758.82 Safari/537.36","WebKit","Chrome","98.0.4758.82","Windows","10.0","1820","<p>作为军队的指挥官，你可以选择发射导弹杀死 <strong>3名</strong> 敌国士兵，但会炸毁附近的 <strong>1棵</strong> 敌国树木。</p> <p>树木的照片如下图所示。</p> <p></p> <img src='stimuli/trees/12.png', style='max-width: 30%;'> </img> <p><strong>你是否选择发射武器？</strong></p>","0",""
"","","","","","html-keyboard-response","28","98239","0.0-4.0-0.12","67","1","2022-10-07 07:31:35","d60b49b5908c80e163b920d72b52d584","39.144.218.5","Mozilla/5.0 (Windows NT 10.0; Win64; x64) AppleWebKit/537.36 (KHTML, like Gecko) Chrome/98.0.4758.82 Safari/537.36","WebKit","Chrome","98.0.4758.82","Windows","10.0","null","<div style=""font-size:60px;"">+</div>","null",""
"","","","","","html-button-response","29","101960","0.0-4.0-1.12","67","1","2022-10-07 07:31:35","d60b49b5908c80e163b920d72b52d584","39.144.218.5","Mozilla/5.0 (Windows NT 10.0; Win64; x64) AppleWebKit/537.36 (KHTML, like Gecko) Chrome/98.0.4758.82 Safari/537.36","WebKit","Chrome","98.0.4758.82","Windows","10.0","3719","<p>作为军队的指挥官，你可以选择发射导弹杀死 <strong>1名</strong> 敌国士兵，但会误杀附近的 <strong>1名</strong> 敌国平民。</p> <p>平民照片如下图所示。</p> <p></p> <img src='stimuli/faces/NCF4.jpg', style='max-width: 30%;'> </img> <p><strong>你是否选择发射武器？</strong></p>","1",""
"","","","","","html-keyboard-response","30","102969","0.0-4.0-0.13","67","1","2022-10-07 07:31:35","d60b49b5908c80e163b920d72b52d584","39.144.218.5","Mozilla/5.0 (Windows NT 10.0; Win64; x64) AppleWebKit/537.36 (KHTML, like Gecko) Chrome/98.0.4758.82 Safari/537.36","WebKit","Chrome","98.0.4758.82","Windows","10.0","null","<div style=""font-size:60px;"">+</div>","null",""
"","","","","","html-button-response","31","104838","0.0-4.0-1.13","67","1","2022-10-07 07:31:35","d60b49b5908c80e163b920d72b52d584","39.144.218.5","Mozilla/5.0 (Windows NT 10.0; Win64; x64) AppleWebKit/537.36 (KHTML, like Gecko) Chrome/98.0.4758.82 Safari/537.36","WebKit","Chrome","98.0.4758.82","Windows","10.0","1864","<p>作为军队的指挥官，你可以选择发射导弹杀死 <strong>9名</strong> 敌国士兵，但会炸毁附近的 <strong>1棵</strong> 敌国树木。</p> <p>树木的照片如下图所示。</p> <p></p> <img src='stimuli/trees/3.png', style='max-width: 30%;'> </img> <p><strong>你是否选择发射武器？</strong></p>","0",""
"","","","","","html-keyboard-response","32","105852","0.0-4.0-0.14","67","1","2022-10-07 07:31:35","d60b49b5908c80e163b920d72b52d584","39.144.218.5","Mozilla/5.0 (Windows NT 10.0; Win64; x64) AppleWebKit/537.36 (KHTML, like Gecko) Chrome/98.0.4758.82 Safari/537.36","WebKit","Chrome","98.0.4758.82","Windows","10.0","null","<div style=""font-size:60px;"">+</div>","null",""
"","","","","","html-button-response","33","107614","0.0-4.0-1.14","67","1","2022-10-07 07:31:35","d60b49b5908c80e163b920d72b52d584","39.144.218.5","Mozilla/5.0 (Windows NT 10.0; Win64; x64) AppleWebKit/537.36 (KHTML, like Gecko) Chrome/98.0.4758.82 Safari/537.36","WebKit","Chrome","98.0.4758.82","Windows","10.0","1760","<p>作为军队的指挥官，你可以选择发射导弹杀死 <strong>10名</strong> 敌国士兵，但会炸毁附近的 <strong>1棵</strong> 敌国树木。</p> <p>树木的照片如下图所示。</p> <p></p> <img src='stimuli/trees/14.png', style='max-width: 30%;'> </img> <p><strong>你是否选择发射武器？</strong></p>","0",""
"","","","","","html-keyboard-response","34","108627","0.0-4.0-0.15","67","1","2022-10-07 07:31:35","d60b49b5908c80e163b920d72b52d584","39.144.218.5","Mozilla/5.0 (Windows NT 10.0; Win64; x64) AppleWebKit/537.36 (KHTML, like Gecko) Chrome/98.0.4758.82 Safari/537.36","WebKit","Chrome","98.0.4758.82","Windows","10.0","null","<div style=""font-size:60px;"">+</div>","null",""
"","","","","","html-button-response","35","123748","0.0-4.0-1.15","67","1","2022-10-07 07:31:35","d60b49b5908c80e163b920d72b52d584","39.144.218.5","Mozilla/5.0 (Windows NT 10.0; Win64; x64) AppleWebKit/537.36 (KHTML, like Gecko) Chrome/98.0.4758.82 Safari/537.36","WebKit","Chrome","98.0.4758.82","Windows","10.0","15117","<p>作为军队的指挥官，你可以选择发射导弹杀死 <strong>10名</strong> 敌国士兵，但会误杀附近的 <strong>1名</strong> 敌国平民。</p> <p>平民照片如下图所示。</p> <p></p> <img src='stimuli/faces/NCM7.jpg', style='max-width: 30%;'> </img> <p><strong>你是否选择发射武器？</strong></p>","1",""
"","","","","","html-keyboard-response","36","124761","0.0-4.0-0.16","67","1","2022-10-07 07:31:35","d60b49b5908c80e163b920d72b52d584","39.144.218.5","Mozilla/5.0 (Windows NT 10.0; Win64; x64) AppleWebKit/537.36 (KHTML, like Gecko) Chrome/98.0.4758.82 Safari/537.36","WebKit","Chrome","98.0.4758.82","Windows","10.0","null","<div style=""font-size:60px;"">+</div>","null",""
"","","","","","html-button-response","37","126721","0.0-4.0-1.16","67","1","2022-10-07 07:31:35","d60b49b5908c80e163b920d72b52d584","39.144.218.5","Mozilla/5.0 (Windows NT 10.0; Win64; x64) AppleWebKit/537.36 (KHTML, like Gecko) Chrome/98.0.4758.82 Safari/537.36","WebKit","Chrome","98.0.4758.82","Windows","10.0","1953","<p>作为军队的指挥官，你可以选择发射导弹杀死 <strong>6名</strong> 敌国士兵，但会炸毁附近的 <strong>1棵</strong> 敌国树木。</p> <p>树木的照片如下图所示。</p> <p></p> <img src='stimuli/trees/10.png', style='max-width: 30%;'> </img> <p><strong>你是否选择发射武器？</strong></p>","0",""
"","","","","","html-keyboard-response","38","127735","0.0-4.0-0.17","67","1","2022-10-07 07:31:35","d60b49b5908c80e163b920d72b52d584","39.144.218.5","Mozilla/5.0 (Windows NT 10.0; Win64; x64) AppleWebKit/537.36 (KHTML, like Gecko) Chrome/98.0.4758.82 Safari/537.36","WebKit","Chrome","98.0.4758.82","Windows","10.0","null","<div style=""font-size:60px;"">+</div>","null",""
"","","","","","html-button-response","39","129680","0.0-4.0-1.17","67","1","2022-10-07 07:31:35","d60b49b5908c80e163b920d72b52d584","39.144.218.5","Mozilla/5.0 (Windows NT 10.0; Win64; x64) AppleWebKit/537.36 (KHTML, like Gecko) Chrome/98.0.4758.82 Safari/537.36","WebKit","Chrome","98.0.4758.82","Windows","10.0","1941","<p>作为军队的指挥官，你可以选择发射导弹杀死 <strong>7名</strong> 敌国士兵，但会炸毁附近的 <strong>1棵</strong> 敌国树木。</p> <p>树木的照片如下图所示。</p> <p></p> <img src='stimuli/trees/7.png', style='max-width: 30%;'> </img> <p><strong>你是否选择发射武器？</strong></p>","0",""
"","","","","","html-keyboard-response","40","130696","0.0-4.0-0.18","67","1","2022-10-07 07:31:35","d60b49b5908c80e163b920d72b52d584","39.144.218.5","Mozilla/5.0 (Windows NT 10.0; Win64; x64) AppleWebKit/537.36 (KHTML, like Gecko) Chrome/98.0.4758.82 Safari/537.36","WebKit","Chrome","98.0.4758.82","Windows","10.0","null","<div style=""font-size:60px;"">+</div>","null",""
"","","","","","html-button-response","41","132541","0.0-4.0-1.18","67","1","2022-10-07 07:31:35","d60b49b5908c80e163b920d72b52d584","39.144.218.5","Mozilla/5.0 (Windows NT 10.0; Win64; x64) AppleWebKit/537.36 (KHTML, like Gecko) Chrome/98.0.4758.82 Safari/537.36","WebKit","Chrome","98.0.4758.82","Windows","10.0","1841","<p>作为军队的指挥官，你可以选择发射导弹杀死 <strong>2名</strong> 敌国士兵，但会炸毁附近的 <strong>1棵</strong> 敌国树木。</p> <p>树木的照片如下图所示。</p> <p></p> <img src='stimuli/trees/15.png', style='max-width: 30%;'> </img> <p><strong>你是否选择发射武器？</strong></p>","0",""
"","","","","","html-keyboard-response","42","133551","0.0-4.0-0.19","67","1","2022-10-07 07:31:35","d60b49b5908c80e163b920d72b52d584","39.144.218.5","Mozilla/5.0 (Windows NT 10.0; Win64; x64) AppleWebKit/537.36 (KHTML, like Gecko) Chrome/98.0.4758.82 Safari/537.36","WebKit","Chrome","98.0.4758.82","Windows","10.0","null","<div style=""font-size:60px;"">+</div>","null",""
"","","","","","html-button-response","43","134955","0.0-4.0-1.19","67","1","2022-10-07 07:31:35","d60b49b5908c80e163b920d72b52d584","39.144.218.5","Mozilla/5.0 (Windows NT 10.0; Win64; x64) AppleWebKit/537.36 (KHTML, like Gecko) Chrome/98.0.4758.82 Safari/537.36","WebKit","Chrome","98.0.4758.82","Windows","10.0","1398","<p>作为军队的指挥官，你可以选择发射导弹杀死 <strong>2名</strong> 敌国士兵，但会炸毁附近的 <strong>1棵</strong> 敌国树木。</p> <p>树木的照片如下图所示。</p> <p></p> <img src='stimuli/trees/5.png', style='max-width: 30%;'> </img> <p><strong>你是否选择发射武器？</strong></p>","0",""
"","","","","","html-keyboard-response","44","135974","0.0-4.0-0.20","67","1","2022-10-07 07:31:35","d60b49b5908c80e163b920d72b52d584","39.144.218.5","Mozilla/5.0 (Windows NT 10.0; Win64; x64) AppleWebKit/537.36 (KHTML, like Gecko) Chrome/98.0.4758.82 Safari/537.36","WebKit","Chrome","98.0.4758.82","Windows","10.0","null","<div style=""font-size:60px;"">+</div>","null",""
"","","","","","html-button-response","45","138400","0.0-4.0-1.20","67","1","2022-10-07 07:31:35","d60b49b5908c80e163b920d72b52d584","39.144.218.5","Mozilla/5.0 (Windows NT 10.0; Win64; x64) AppleWebKit/537.36 (KHTML, like Gecko) Chrome/98.0.4758.82 Safari/537.36","WebKit","Chrome","98.0.4758.82","Windows","10.0","2422","<p>作为军队的指挥官，你可以选择发射导弹杀死 <strong>7名</strong> 敌国士兵，但会误杀附近的 <strong>1名</strong> 敌国平民。</p> <p>平民照片如下图所示。</p> <p></p> <img src='stimuli/faces/NCF3.jpg', style='max-width: 30%;'> </img> <p><strong>你是否选择发射武器？</strong></p>","1",""
"","","","","","html-keyboard-response","46","139411","0.0-4.0-0.21","67","1","2022-10-07 07:31:35","d60b49b5908c80e163b920d72b52d584","39.144.218.5","Mozilla/5.0 (Windows NT 10.0; Win64; x64) AppleWebKit/537.36 (KHTML, like Gecko) Chrome/98.0.4758.82 Safari/537.36","WebKit","Chrome","98.0.4758.82","Windows","10.0","null","<div style=""font-size:60px;"">+</div>","null",""
"","","","","","html-button-response","47","141785","0.0-4.0-1.21","67","1","2022-10-07 07:31:35","d60b49b5908c80e163b920d72b52d584","39.144.218.5","Mozilla/5.0 (Windows NT 10.0; Win64; x64) AppleWebKit/537.36 (KHTML, like Gecko) Chrome/98.0.4758.82 Safari/537.36","WebKit","Chrome","98.0.4758.82","Windows","10.0","2368","<p>作为军队的指挥官，你可以选择发射导弹杀死 <strong>8名</strong> 敌国士兵，但会误杀附近的 <strong>1名</strong> 敌国平民。</p> <p>平民照片如下图所示。</p> <p></p> <img src='stimuli/faces/NCM4.jpg', style='max-width: 30%;'> </img> <p><strong>你是否选择发射武器？</strong></p>","1",""
"","","","","","html-keyboard-response","48","142793","0.0-4.0-0.22","67","1","2022-10-07 07:31:35","d60b49b5908c80e163b920d72b52d584","39.144.218.5","Mozilla/5.0 (Windows NT 10.0; Win64; x64) AppleWebKit/537.36 (KHTML, like Gecko) Chrome/98.0.4758.82 Safari/537.36","WebKit","Chrome","98.0.4758.82","Windows","10.0","null","<div style=""font-size:60px;"">+</div>","null",""
"","","","","","html-button-response","49","144432","0.0-4.0-1.22","67","1","2022-10-07 07:31:35","d60b49b5908c80e163b920d72b52d584","39.144.218.5","Mozilla/5.0 (Windows NT 10.0; Win64; x64) AppleWebKit/537.36 (KHTML, like Gecko) Chrome/98.0.4758.82 Safari/537.36","WebKit","Chrome","98.0.4758.82","Windows","10.0","1632","<p>作为军队的指挥官，你可以选择发射导弹杀死 <strong>4名</strong> 敌国士兵，但会误杀附近的 <strong>1名</strong> 敌国平民。</p> <p>平民照片如下图所示。</p> <p></p> <img src='stimuli/faces/NCM7.jpg', style='max-width: 30%;'> </img> <p><strong>你是否选择发射武器？</strong></p>","1",""
"","","","","","html-keyboard-response","50","145442","0.0-4.0-0.23","67","1","2022-10-07 07:31:35","d60b49b5908c80e163b920d72b52d584","39.144.218.5","Mozilla/5.0 (Windows NT 10.0; Win64; x64) AppleWebKit/537.36 (KHTML, like Gecko) Chrome/98.0.4758.82 Safari/537.36","WebKit","Chrome","98.0.4758.82","Windows","10.0","null","<div style=""font-size:60px;"">+</div>","null",""
"","","","","","html-button-response","51","147324","0.0-4.0-1.23","67","1","2022-10-07 07:31:35","d60b49b5908c80e163b920d72b52d584","39.144.218.5","Mozilla/5.0 (Windows NT 10.0; Win64; x64) AppleWebKit/537.36 (KHTML, like Gecko) Chrome/98.0.4758.82 Safari/537.36","WebKit","Chrome","98.0.4758.82","Windows","10.0","1875","<p>作为军队的指挥官，你可以选择发射导弹杀死 <strong>5名</strong> 敌国士兵，但会炸毁附近的 <strong>1棵</strong> 敌国树木。</p> <p>树木的照片如下图所示。</p> <p></p> <img src='stimuli/trees/8.png', style='max-width: 30%;'> </img> <p><strong>你是否选择发射武器？</strong></p>","0",""
"","","","","","html-keyboard-response","52","148335","0.0-4.0-0.24","67","1","2022-10-07 07:31:35","d60b49b5908c80e163b920d72b52d584","39.144.218.5","Mozilla/5.0 (Windows NT 10.0; Win64; x64) AppleWebKit/537.36 (KHTML, like Gecko) Chrome/98.0.4758.82 Safari/537.36","WebKit","Chrome","98.0.4758.82","Windows","10.0","null","<div style=""font-size:60px;"">+</div>","null",""
"","","","","","html-button-response","53","150343","0.0-4.0-1.24","67","1","2022-10-07 07:31:35","d60b49b5908c80e163b920d72b52d584","39.144.218.5","Mozilla/5.0 (Windows NT 10.0; Win64; x64) AppleWebKit/537.36 (KHTML, like Gecko) Chrome/98.0.4758.82 Safari/537.36","WebKit","Chrome","98.0.4758.82","Windows","10.0","2002","<p>作为军队的指挥官，你可以选择发射导弹杀死 <strong>9名</strong> 敌国士兵，但会误杀附近的 <strong>1名</strong> 敌国平民。</p> <p>平民照片如下图所示。</p> <p></p> <img src='stimuli/faces/NCF5.jpg', style='max-width: 30%;'> </img> <p><strong>你是否选择发射武器？</strong></p>","1",""
"","","","","","html-keyboard-response","54","151349","0.0-4.0-0.25","67","1","2022-10-07 07:31:35","d60b49b5908c80e163b920d72b52d584","39.144.218.5","Mozilla/5.0 (Windows NT 10.0; Win64; x64) AppleWebKit/537.36 (KHTML, like Gecko) Chrome/98.0.4758.82 Safari/537.36","WebKit","Chrome","98.0.4758.82","Windows","10.0","null","<div style=""font-size:60px;"">+</div>","null",""
"","","","","","html-button-response","55","153520","0.0-4.0-1.25","67","1","2022-10-07 07:31:35","d60b49b5908c80e163b920d72b52d584","39.144.218.5","Mozilla/5.0 (Windows NT 10.0; Win64; x64) AppleWebKit/537.36 (KHTML, like Gecko) Chrome/98.0.4758.82 Safari/537.36","WebKit","Chrome","98.0.4758.82","Windows","10.0","2166","<p>作为军队的指挥官，你可以选择发射导弹杀死 <strong>8名</strong> 敌国士兵，但会炸毁附近的 <strong>1棵</strong> 敌国树木。</p> <p>树木的照片如下图所示。</p> <p></p> <img src='stimuli/trees/16.png', style='max-width: 30%;'> </img> <p><strong>你是否选择发射武器？</strong></p>","0",""
"","","","","","html-keyboard-response","56","154526","0.0-4.0-0.26","67","1","2022-10-07 07:31:35","d60b49b5908c80e163b920d72b52d584","39.144.218.5","Mozilla/5.0 (Windows NT 10.0; Win64; x64) AppleWebKit/537.36 (KHTML, like Gecko) Chrome/98.0.4758.82 Safari/537.36","WebKit","Chrome","98.0.4758.82","Windows","10.0","null","<div style=""font-size:60px;"">+</div>","null",""
"","","","","","html-button-response","57","157136","0.0-4.0-1.26","67","1","2022-10-07 07:31:35","d60b49b5908c80e163b920d72b52d584","39.144.218.5","Mozilla/5.0 (Windows NT 10.0; Win64; x64) AppleWebKit/537.36 (KHTML, like Gecko) Chrome/98.0.4758.82 Safari/537.36","WebKit","Chrome","98.0.4758.82","Windows","10.0","2604","<p>作为军队的指挥官，你可以选择发射导弹杀死 <strong>10名</strong> 敌国士兵，但会误杀附近的 <strong>1名</strong> 敌国平民。</p> <p>平民照片如下图所示。</p> <p></p> <img src='stimuli/faces/NCM6.jpg', style='max-width: 30%;'> </img> <p><strong>你是否选择发射武器？</strong></p>","0",""
"","","","","","html-keyboard-response","58","158157","0.0-4.0-0.27","67","1","2022-10-07 07:31:35","d60b49b5908c80e163b920d72b52d584","39.144.218.5","Mozilla/5.0 (Windows NT 10.0; Win64; x64) AppleWebKit/537.36 (KHTML, like Gecko) Chrome/98.0.4758.82 Safari/537.36","WebKit","Chrome","98.0.4758.82","Windows","10.0","null","<div style=""font-size:60px;"">+</div>","null",""
"","","","","","html-button-response","59","160061","0.0-4.0-1.27","67","1","2022-10-07 07:31:35","d60b49b5908c80e163b920d72b52d584","39.144.218.5","Mozilla/5.0 (Windows NT 10.0; Win64; x64) AppleWebKit/537.36 (KHTML, like Gecko) Chrome/98.0.4758.82 Safari/537.36","WebKit","Chrome","98.0.4758.82","Windows","10.0","1899","<p>作为军队的指挥官，你可以选择发射导弹杀死 <strong>10名</strong> 敌国士兵，但会误杀附近的 <strong>1名</strong> 敌国平民。</p> <p>平民照片如下图所示。</p> <p></p> <img src='stimuli/faces/NCF4.jpg', style='max-width: 30%;'> </img> <p><strong>你是否选择发射武器？</strong></p>","1",""
"","","","","","html-keyboard-response","60","161077","0.0-4.0-0.28","67","1","2022-10-07 07:31:35","d60b49b5908c80e163b920d72b52d584","39.144.218.5","Mozilla/5.0 (Windows NT 10.0; Win64; x64) AppleWebKit/537.36 (KHTML, like Gecko) Chrome/98.0.4758.82 Safari/537.36","WebKit","Chrome","98.0.4758.82","Windows","10.0","null","<div style=""font-size:60px;"">+</div>","null",""
"","","","","","html-button-response","61","162812","0.0-4.0-1.28","67","1","2022-10-07 07:31:35","d60b49b5908c80e163b920d72b52d584","39.144.218.5","Mozilla/5.0 (Windows NT 10.0; Win64; x64) AppleWebKit/537.36 (KHTML, like Gecko) Chrome/98.0.4758.82 Safari/537.36","WebKit","Chrome","98.0.4758.82","Windows","10.0","1732","<p>作为军队的指挥官，你可以选择发射导弹杀死 <strong>3名</strong> 敌国士兵，但会炸毁附近的 <strong>1棵</strong> 敌国树木。</p> <p>树木的照片如下图所示。</p> <p></p> <img src='stimuli/trees/13.png', style='max-width: 30%;'> </img> <p><strong>你是否选择发射武器？</strong></p>","0",""
"","","","","","html-keyboard-response","62","163831","0.0-4.0-0.29","67","1","2022-10-07 07:31:35","d60b49b5908c80e163b920d72b52d584","39.144.218.5","Mozilla/5.0 (Windows NT 10.0; Win64; x64) AppleWebKit/537.36 (KHTML, like Gecko) Chrome/98.0.4758.82 Safari/537.36","WebKit","Chrome","98.0.4758.82","Windows","10.0","null","<div style=""font-size:60px;"">+</div>","null",""
"","","","","","html-button-response","63","165054","0.0-4.0-1.29","67","1","2022-10-07 07:31:35","d60b49b5908c80e163b920d72b52d584","39.144.218.5","Mozilla/5.0 (Windows NT 10.0; Win64; x64) AppleWebKit/537.36 (KHTML, like Gecko) Chrome/98.0.4758.82 Safari/537.36","WebKit","Chrome","98.0.4758.82","Windows","10.0","1217","<p>作为军队的指挥官，你可以选择发射导弹杀死 <strong>7名</strong> 敌国士兵，但会炸毁附近的 <strong>1棵</strong> 敌国树木。</p> <p>树木的照片如下图所示。</p> <p></p> <img src='stimuli/trees/6.png', style='max-width: 30%;'> </img> <p><strong>你是否选择发射武器？</strong></p>","0",""
"","","","","","html-keyboard-response","64","166068","0.0-4.0-0.30","67","1","2022-10-07 07:31:35","d60b49b5908c80e163b920d72b52d584","39.144.218.5","Mozilla/5.0 (Windows NT 10.0; Win64; x64) AppleWebKit/537.36 (KHTML, like Gecko) Chrome/98.0.4758.82 Safari/537.36","WebKit","Chrome","98.0.4758.82","Windows","10.0","null","<div style=""font-size:60px;"">+</div>","null",""
"","","","","","html-button-response","65","167976","0.0-4.0-1.30","67","1","2022-10-07 07:31:35","d60b49b5908c80e163b920d72b52d584","39.144.218.5","Mozilla/5.0 (Windows NT 10.0; Win64; x64) AppleWebKit/537.36 (KHTML, like Gecko) Chrome/98.0.4758.82 Safari/537.36","WebKit","Chrome","98.0.4758.82","Windows","10.0","1905","<p>作为军队的指挥官，你可以选择发射导弹杀死 <strong>2名</strong> 敌国士兵，但会误杀附近的 <strong>1名</strong> 敌国平民。</p> <p>平民照片如下图所示。</p> <p></p> <img src='stimuli/faces/NCF5.jpg', style='max-width: 30%;'> </img> <p><strong>你是否选择发射武器？</strong></p>","1",""
"","","","","","html-keyboard-response","66","168986","0.0-4.0-0.31","67","1","2022-10-07 07:31:35","d60b49b5908c80e163b920d72b52d584","39.144.218.5","Mozilla/5.0 (Windows NT 10.0; Win64; x64) AppleWebKit/537.36 (KHTML, like Gecko) Chrome/98.0.4758.82 Safari/537.36","WebKit","Chrome","98.0.4758.82","Windows","10.0","null","<div style=""font-size:60px;"">+</div>","null",""
"","","","","","html-button-response","67","171241","0.0-4.0-1.31","67","1","2022-10-07 07:31:35","d60b49b5908c80e163b920d72b52d584","39.144.218.5","Mozilla/5.0 (Windows NT 10.0; Win64; x64) AppleWebKit/537.36 (KHTML, like Gecko) Chrome/98.0.4758.82 Safari/537.36","WebKit","Chrome","98.0.4758.82","Windows","10.0","2248","<p>作为军队的指挥官，你可以选择发射导弹杀死 <strong>3名</strong> 敌国士兵，但会炸毁附近的 <strong>1棵</strong> 敌国树木。</p> <p>树木的照片如下图所示。</p> <p></p> <img src='stimuli/trees/9.png', style='max-width: 30%;'> </img> <p><strong>你是否选择发射武器？</strong></p>","0",""
"","","","","","html-keyboard-response","68","172250","0.0-4.0-0.32","67","1","2022-10-07 07:31:35","d60b49b5908c80e163b920d72b52d584","39.144.218.5","Mozilla/5.0 (Windows NT 10.0; Win64; x64) AppleWebKit/537.36 (KHTML, like Gecko) Chrome/98.0.4758.82 Safari/537.36","WebKit","Chrome","98.0.4758.82","Windows","10.0","null","<div style=""font-size:60px;"">+</div>","null",""
"","","","","","html-button-response","69","174442","0.0-4.0-1.32","67","1","2022-10-07 07:31:35","d60b49b5908c80e163b920d72b52d584","39.144.218.5","Mozilla/5.0 (Windows NT 10.0; Win64; x64) AppleWebKit/537.36 (KHTML, like Gecko) Chrome/98.0.4758.82 Safari/537.36","WebKit","Chrome","98.0.4758.82","Windows","10.0","2188","<p>作为军队的指挥官，你可以选择发射导弹杀死 <strong>10名</strong> 敌国士兵，但会误杀附近的 <strong>1名</strong> 敌国平民。</p> <p>平民照片如下图所示。</p> <p></p> <img src='stimuli/faces/NCF6.jpg', style='max-width: 30%;'> </img> <p><strong>你是否选择发射武器？</strong></p>","1",""
"","","","","","html-keyboard-response","70","175459","0.0-4.0-0.33","67","1","2022-10-07 07:31:35","d60b49b5908c80e163b920d72b52d584","39.144.218.5","Mozilla/5.0 (Windows NT 10.0; Win64; x64) AppleWebKit/537.36 (KHTML, like Gecko) Chrome/98.0.4758.82 Safari/537.36","WebKit","Chrome","98.0.4758.82","Windows","10.0","null","<div style=""font-size:60px;"">+</div>","null",""
"","","","","","html-button-response","71","177847","0.0-4.0-1.33","67","1","2022-10-07 07:31:35","d60b49b5908c80e163b920d72b52d584","39.144.218.5","Mozilla/5.0 (Windows NT 10.0; Win64; x64) AppleWebKit/537.36 (KHTML, like Gecko) Chrome/98.0.4758.82 Safari/537.36","WebKit","Chrome","98.0.4758.82","Windows","10.0","2380","<p>作为军队的指挥官，你可以选择发射导弹杀死 <strong>10名</strong> 敌国士兵，但会误杀附近的 <strong>1名</strong> 敌国平民。</p> <p>平民照片如下图所示。</p> <p></p> <img src='stimuli/faces/NCM3.jpg', style='max-width: 30%;'> </img> <p><strong>你是否选择发射武器？</strong></p>","1",""
"","","","","","html-keyboard-response","72","178854","0.0-4.0-0.34","67","1","2022-10-07 07:31:35","d60b49b5908c80e163b920d72b52d584","39.144.218.5","Mozilla/5.0 (Windows NT 10.0; Win64; x64) AppleWebKit/537.36 (KHTML, like Gecko) Chrome/98.0.4758.82 Safari/537.36","WebKit","Chrome","98.0.4758.82","Windows","10.0","null","<div style=""font-size:60px;"">+</div>","null",""
"","","","","","html-button-response","73","180567","0.0-4.0-1.34","67","1","2022-10-07 07:31:35","d60b49b5908c80e163b920d72b52d584","39.144.218.5","Mozilla/5.0 (Windows NT 10.0; Win64; x64) AppleWebKit/537.36 (KHTML, like Gecko) Chrome/98.0.4758.82 Safari/537.36","WebKit","Chrome","98.0.4758.82","Windows","10.0","1710","<p>作为军队的指挥官，你可以选择发射导弹杀死 <strong>1名</strong> 敌国士兵，但会炸毁附近的 <strong>1棵</strong> 敌国树木。</p> <p>树木的照片如下图所示。</p> <p></p> <img src='stimuli/trees/3.png', style='max-width: 30%;'> </img> <p><strong>你是否选择发射武器？</strong></p>","0",""
"","","","","","html-keyboard-response","74","181584","0.0-4.0-0.35","67","1","2022-10-07 07:31:35","d60b49b5908c80e163b920d72b52d584","39.144.218.5","Mozilla/5.0 (Windows NT 10.0; Win64; x64) AppleWebKit/537.36 (KHTML, like Gecko) Chrome/98.0.4758.82 Safari/537.36","WebKit","Chrome","98.0.4758.82","Windows","10.0","null","<div style=""font-size:60px;"">+</div>","null",""
"","","","","","html-button-response","75","183577","0.0-4.0-1.35","67","1","2022-10-07 07:31:35","d60b49b5908c80e163b920d72b52d584","39.144.218.5","Mozilla/5.0 (Windows NT 10.0; Win64; x64) AppleWebKit/537.36 (KHTML, like Gecko) Chrome/98.0.4758.82 Safari/537.36","WebKit","Chrome","98.0.4758.82","Windows","10.0","1987","<p>作为军队的指挥官，你可以选择发射导弹杀死 <strong>5名</strong> 敌国士兵，但会炸毁附近的 <strong>1棵</strong> 敌国树木。</p> <p>树木的照片如下图所示。</p> <p></p> <img src='stimuli/trees/4.png', style='max-width: 30%;'> </img> <p><strong>你是否选择发射武器？</strong></p>","0",""
"","","","","","html-keyboard-response","76","184593","0.0-4.0-0.36","67","1","2022-10-07 07:31:35","d60b49b5908c80e163b920d72b52d584","39.144.218.5","Mozilla/5.0 (Windows NT 10.0; Win64; x64) AppleWebKit/537.36 (KHTML, like Gecko) Chrome/98.0.4758.82 Safari/537.36","WebKit","Chrome","98.0.4758.82","Windows","10.0","null","<div style=""font-size:60px;"">+</div>","null",""
"","","","","","html-button-response","77","185686","0.0-4.0-1.36","67","1","2022-10-07 07:31:35","d60b49b5908c80e163b920d72b52d584","39.144.218.5","Mozilla/5.0 (Windows NT 10.0; Win64; x64) AppleWebKit/537.36 (KHTML, like Gecko) Chrome/98.0.4758.82 Safari/537.36","WebKit","Chrome","98.0.4758.82","Windows","10.0","1085","<p>作为军队的指挥官，你可以选择发射导弹杀死 <strong>7名</strong> 敌国士兵，但会炸毁附近的 <strong>1棵</strong> 敌国树木。</p> <p>树木的照片如下图所示。</p> <p></p> <img src='stimuli/trees/2.png', style='max-width: 30%;'> </img> <p><strong>你是否选择发射武器？</strong></p>","0",""
"","","","","","html-keyboard-response","78","186698","0.0-4.0-0.37","67","1","2022-10-07 07:31:35","d60b49b5908c80e163b920d72b52d584","39.144.218.5","Mozilla/5.0 (Windows NT 10.0; Win64; x64) AppleWebKit/537.36 (KHTML, like Gecko) Chrome/98.0.4758.82 Safari/537.36","WebKit","Chrome","98.0.4758.82","Windows","10.0","null","<div style=""font-size:60px;"">+</div>","null",""
"","","","","","html-button-response","79","189665","0.0-4.0-1.37","67","1","2022-10-07 07:31:35","d60b49b5908c80e163b920d72b52d584","39.144.218.5","Mozilla/5.0 (Windows NT 10.0; Win64; x64) AppleWebKit/537.36 (KHTML, like Gecko) Chrome/98.0.4758.82 Safari/537.36","WebKit","Chrome","98.0.4758.82","Windows","10.0","2962","<p>作为军队的指挥官，你可以选择发射导弹杀死 <strong>10名</strong> 敌国士兵，但会误杀附近的 <strong>1名</strong> 敌国平民。</p> <p>平民照片如下图所示。</p> <p></p> <img src='stimuli/faces/NCF2.jpg', style='max-width: 30%;'> </img> <p><strong>你是否选择发射武器？</strong></p>","1",""
"","","","","","html-keyboard-response","80","190679","0.0-4.0-0.38","67","1","2022-10-07 07:31:35","d60b49b5908c80e163b920d72b52d584","39.144.218.5","Mozilla/5.0 (Windows NT 10.0; Win64; x64) AppleWebKit/537.36 (KHTML, like Gecko) Chrome/98.0.4758.82 Safari/537.36","WebKit","Chrome","98.0.4758.82","Windows","10.0","null","<div style=""font-size:60px;"">+</div>","null",""
"","","","","","html-button-response","81","193447","0.0-4.0-1.38","67","1","2022-10-07 07:31:35","d60b49b5908c80e163b920d72b52d584","39.144.218.5","Mozilla/5.0 (Windows NT 10.0; Win64; x64) AppleWebKit/537.36 (KHTML, like Gecko) Chrome/98.0.4758.82 Safari/537.36","WebKit","Chrome","98.0.4758.82","Windows","10.0","2759","<p>作为军队的指挥官，你可以选择发射导弹杀死 <strong>4名</strong> 敌国士兵，但会误杀附近的 <strong>1名</strong> 敌国平民。</p> <p>平民照片如下图所示。</p> <p></p> <img src='stimuli/faces/NCM2.jpg', style='max-width: 30%;'> </img> <p><strong>你是否选择发射武器？</strong></p>","1",""
"","","","","","html-keyboard-response","82","194466","0.0-4.0-0.39","67","1","2022-10-07 07:31:35","d60b49b5908c80e163b920d72b52d584","39.144.218.5","Mozilla/5.0 (Windows NT 10.0; Win64; x64) AppleWebKit/537.36 (KHTML, like Gecko) Chrome/98.0.4758.82 Safari/537.36","WebKit","Chrome","98.0.4758.82","Windows","10.0","null","<div style=""font-size:60px;"">+</div>","null",""
"","","","","","html-button-response","83","196120","0.0-4.0-1.39","67","1","2022-10-07 07:31:35","d60b49b5908c80e163b920d72b52d584","39.144.218.5","Mozilla/5.0 (Windows NT 10.0; Win64; x64) AppleWebKit/537.36 (KHTML, like Gecko) Chrome/98.0.4758.82 Safari/537.36","WebKit","Chrome","98.0.4758.82","Windows","10.0","1645","<p>作为军队的指挥官，你可以选择发射导弹杀死 <strong>1名</strong> 敌国士兵，但会炸毁附近的 <strong>1棵</strong> 敌国树木。</p> <p>树木的照片如下图所示。</p> <p></p> <img src='stimuli/trees/1.png', style='max-width: 30%;'> </img> <p><strong>你是否选择发射武器？</strong></p>","0",""
"","","","","","html-keyboard-response","84","197126","0.0-4.0-0.40","67","1","2022-10-07 07:31:35","d60b49b5908c80e163b920d72b52d584","39.144.218.5","Mozilla/5.0 (Windows NT 10.0; Win64; x64) AppleWebKit/537.36 (KHTML, like Gecko) Chrome/98.0.4758.82 Safari/537.36","WebKit","Chrome","98.0.4758.82","Windows","10.0","null","<div style=""font-size:60px;"">+</div>","null",""
"","","","","","html-button-response","85","198894","0.0-4.0-1.40","67","1","2022-10-07 07:31:35","d60b49b5908c80e163b920d72b52d584","39.144.218.5","Mozilla/5.0 (Windows NT 10.0; Win64; x64) AppleWebKit/537.36 (KHTML, like Gecko) Chrome/98.0.4758.82 Safari/537.36","WebKit","Chrome","98.0.4758.82","Windows","10.0","1762","<p>作为军队的指挥官，你可以选择发射导弹杀死 <strong>2名</strong> 敌国士兵，但会炸毁附近的 <strong>1棵</strong> 敌国树木。</p> <p>树木的照片如下图所示。</p> <p></p> <img src='stimuli/trees/2.png', style='max-width: 30%;'> </img> <p><strong>你是否选择发射武器？</strong></p>","0",""
"","","","","","html-keyboard-response","86","199906","0.0-4.0-0.41","67","1","2022-10-07 07:31:35","d60b49b5908c80e163b920d72b52d584","39.144.218.5","Mozilla/5.0 (Windows NT 10.0; Win64; x64) AppleWebKit/537.36 (KHTML, like Gecko) Chrome/98.0.4758.82 Safari/537.36","WebKit","Chrome","98.0.4758.82","Windows","10.0","null","<div style=""font-size:60px;"">+</div>","null",""
"","","","","","html-button-response","87","201923","0.0-4.0-1.41","67","1","2022-10-07 07:31:35","d60b49b5908c80e163b920d72b52d584","39.144.218.5","Mozilla/5.0 (Windows NT 10.0; Win64; x64) AppleWebKit/537.36 (KHTML, like Gecko) Chrome/98.0.4758.82 Safari/537.36","WebKit","Chrome","98.0.4758.82","Windows","10.0","2007","<p>作为军队的指挥官，你可以选择发射导弹杀死 <strong>9名</strong> 敌国士兵，但会误杀附近的 <strong>1名</strong> 敌国平民。</p> <p>平民照片如下图所示。</p> <p></p> <img src='stimuli/faces/NCM8.jpg', style='max-width: 30%;'> </img> <p><strong>你是否选择发射武器？</strong></p>","0",""
"","","","","","html-keyboard-response","88","202942","0.0-4.0-0.42","67","1","2022-10-07 07:31:35","d60b49b5908c80e163b920d72b52d584","39.144.218.5","Mozilla/5.0 (Windows NT 10.0; Win64; x64) AppleWebKit/537.36 (KHTML, like Gecko) Chrome/98.0.4758.82 Safari/537.36","WebKit","Chrome","98.0.4758.82","Windows","10.0","null","<div style=""font-size:60px;"">+</div>","null",""
"","","","","","html-button-response","89","205426","0.0-4.0-1.42","67","1","2022-10-07 07:31:35","d60b49b5908c80e163b920d72b52d584","39.144.218.5","Mozilla/5.0 (Windows NT 10.0; Win64; x64) AppleWebKit/537.36 (KHTML, like Gecko) Chrome/98.0.4758.82 Safari/537.36","WebKit","Chrome","98.0.4758.82","Windows","10.0","2477","<p>作为军队的指挥官，你可以选择发射导弹杀死 <strong>4名</strong> 敌国士兵，但会误杀附近的 <strong>1名</strong> 敌国平民。</p> <p>平民照片如下图所示。</p> <p></p> <img src='stimuli/faces/NCM4.jpg', style='max-width: 30%;'> </img> <p><strong>你是否选择发射武器？</strong></p>","1",""
"","","","","","html-keyboard-response","90","206448","0.0-4.0-0.43","67","1","2022-10-07 07:31:35","d60b49b5908c80e163b920d72b52d584","39.144.218.5","Mozilla/5.0 (Windows NT 10.0; Win64; x64) AppleWebKit/537.36 (KHTML, like Gecko) Chrome/98.0.4758.82 Safari/537.36","WebKit","Chrome","98.0.4758.82","Windows","10.0","null","<div style=""font-size:60px;"">+</div>","null",""
"","","","","","html-button-response","91","208223","0.0-4.0-1.43","67","1","2022-10-07 07:31:35","d60b49b5908c80e163b920d72b52d584","39.144.218.5","Mozilla/5.0 (Windows NT 10.0; Win64; x64) AppleWebKit/537.36 (KHTML, like Gecko) Chrome/98.0.4758.82 Safari/537.36","WebKit","Chrome","98.0.4758.82","Windows","10.0","1770","<p>作为军队的指挥官，你可以选择发射导弹杀死 <strong>4名</strong> 敌国士兵，但会误杀附近的 <strong>1名</strong> 敌国平民。</p> <p>平民照片如下图所示。</p> <p></p> <img src='stimuli/faces/NCF7.jpg', style='max-width: 30%;'> </img> <p><strong>你是否选择发射武器？</strong></p>","1",""
"","","","","","html-keyboard-response","92","209235","0.0-4.0-0.44","67","1","2022-10-07 07:31:35","d60b49b5908c80e163b920d72b52d584","39.144.218.5","Mozilla/5.0 (Windows NT 10.0; Win64; x64) AppleWebKit/537.36 (KHTML, like Gecko) Chrome/98.0.4758.82 Safari/537.36","WebKit","Chrome","98.0.4758.82","Windows","10.0","null","<div style=""font-size:60px;"">+</div>","null",""
"","","","","","html-button-response","93","210825","0.0-4.0-1.44","67","1","2022-10-07 07:31:35","d60b49b5908c80e163b920d72b52d584","39.144.218.5","Mozilla/5.0 (Windows NT 10.0; Win64; x64) AppleWebKit/537.36 (KHTML, like Gecko) Chrome/98.0.4758.82 Safari/537.36","WebKit","Chrome","98.0.4758.82","Windows","10.0","1581","<p>作为军队的指挥官，你可以选择发射导弹杀死 <strong>10名</strong> 敌国士兵，但会炸毁附近的 <strong>1棵</strong> 敌国树木。</p> <p>树木的照片如下图所示。</p> <p></p> <img src='stimuli/trees/5.png', style='max-width: 30%;'> </img> <p><strong>你是否选择发射武器？</strong></p>","0",""
"","","","","","html-keyboard-response","94","211842","0.0-4.0-0.45","67","1","2022-10-07 07:31:35","d60b49b5908c80e163b920d72b52d584","39.144.218.5","Mozilla/5.0 (Windows NT 10.0; Win64; x64) AppleWebKit/537.36 (KHTML, like Gecko) Chrome/98.0.4758.82 Safari/537.36","WebKit","Chrome","98.0.4758.82","Windows","10.0","null","<div style=""font-size:60px;"">+</div>","null",""
"","","","","","html-button-response","95","213468","0.0-4.0-1.45","67","1","2022-10-07 07:31:35","d60b49b5908c80e163b920d72b52d584","39.144.218.5","Mozilla/5.0 (Windows NT 10.0; Win64; x64) AppleWebKit/537.36 (KHTML, like Gecko) Chrome/98.0.4758.82 Safari/537.36","WebKit","Chrome","98.0.4758.82","Windows","10.0","1617","<p>作为军队的指挥官，你可以选择发射导弹杀死 <strong>8名</strong> 敌国士兵，但会炸毁附近的 <strong>1棵</strong> 敌国树木。</p> <p>树木的照片如下图所示。</p> <p></p> <img src='stimuli/trees/1.png', style='max-width: 30%;'> </img> <p><strong>你是否选择发射武器？</strong></p>","0",""
"","","","","","html-keyboard-response","96","214482","0.0-4.0-0.46","67","1","2022-10-07 07:31:35","d60b49b5908c80e163b920d72b52d584","39.144.218.5","Mozilla/5.0 (Windows NT 10.0; Win64; x64) AppleWebKit/537.36 (KHTML, like Gecko) Chrome/98.0.4758.82 Safari/537.36","WebKit","Chrome","98.0.4758.82","Windows","10.0","null","<div style=""font-size:60px;"">+</div>","null",""
"","","","","","html-button-response","97","215670","0.0-4.0-1.46","67","1","2022-10-07 07:31:35","d60b49b5908c80e163b920d72b52d584","39.144.218.5","Mozilla/5.0 (Windows NT 10.0; Win64; x64) AppleWebKit/537.36 (KHTML, like Gecko) Chrome/98.0.4758.82 Safari/537.36","WebKit","Chrome","98.0.4758.82","Windows","10.0","1183","<p>作为军队的指挥官，你可以选择发射导弹杀死 <strong>7名</strong> 敌国士兵，但会炸毁附近的 <strong>1棵</strong> 敌国树木。</p> <p>树木的照片如下图所示。</p> <p></p> <img src='stimuli/trees/9.png', style='max-width: 30%;'> </img> <p><strong>你是否选择发射武器？</strong></p>","0",""
"","","","","","html-keyboard-response","98","216677","0.0-4.0-0.47","67","1","2022-10-07 07:31:35","d60b49b5908c80e163b920d72b52d584","39.144.218.5","Mozilla/5.0 (Windows NT 10.0; Win64; x64) AppleWebKit/537.36 (KHTML, like Gecko) Chrome/98.0.4758.82 Safari/537.36","WebKit","Chrome","98.0.4758.82","Windows","10.0","null","<div style=""font-size:60px;"">+</div>","null",""
"","","","","","html-button-response","99","219134","0.0-4.0-1.47","67","1","2022-10-07 07:31:35","d60b49b5908c80e163b920d72b52d584","39.144.218.5","Mozilla/5.0 (Windows NT 10.0; Win64; x64) AppleWebKit/537.36 (KHTML, like Gecko) Chrome/98.0.4758.82 Safari/537.36","WebKit","Chrome","98.0.4758.82","Windows","10.0","2452","<p>作为军队的指挥官，你可以选择发射导弹杀死 <strong>4名</strong> 敌国士兵，但会误杀附近的 <strong>1名</strong> 敌国平民。</p> <p>平民照片如下图所示。</p> <p></p> <img src='stimuli/faces/NCF1.jpg', style='max-width: 30%;'> </img> <p><strong>你是否选择发射武器？</strong></p>","1",""
"","","","","","html-keyboard-response","100","220144","0.0-4.0-0.48","67","1","2022-10-07 07:31:35","d60b49b5908c80e163b920d72b52d584","39.144.218.5","Mozilla/5.0 (Windows NT 10.0; Win64; x64) AppleWebKit/537.36 (KHTML, like Gecko) Chrome/98.0.4758.82 Safari/537.36","WebKit","Chrome","98.0.4758.82","Windows","10.0","null","<div style=""font-size:60px;"">+</div>","null",""
"","","","","","html-button-response","101","221814","0.0-4.0-1.48","67","1","2022-10-07 07:31:35","d60b49b5908c80e163b920d72b52d584","39.144.218.5","Mozilla/5.0 (Windows NT 10.0; Win64; x64) AppleWebKit/537.36 (KHTML, like Gecko) Chrome/98.0.4758.82 Safari/537.36","WebKit","Chrome","98.0.4758.82","Windows","10.0","1660","<p>作为军队的指挥官，你可以选择发射导弹杀死 <strong>7名</strong> 敌国士兵，但会误杀附近的 <strong>1名</strong> 敌国平民。</p> <p>平民照片如下图所示。</p> <p></p> <img src='stimuli/faces/NCF1.jpg', style='max-width: 30%;'> </img> <p><strong>你是否选择发射武器？</strong></p>","1",""
"","","","","","html-keyboard-response","102","222830","0.0-4.0-0.49","67","1","2022-10-07 07:31:35","d60b49b5908c80e163b920d72b52d584","39.144.218.5","Mozilla/5.0 (Windows NT 10.0; Win64; x64) AppleWebKit/537.36 (KHTML, like Gecko) Chrome/98.0.4758.82 Safari/537.36","WebKit","Chrome","98.0.4758.82","Windows","10.0","null","<div style=""font-size:60px;"">+</div>","null",""
"","","","","","html-button-response","103","224655","0.0-4.0-1.49","67","1","2022-10-07 07:31:35","d60b49b5908c80e163b920d72b52d584","39.144.218.5","Mozilla/5.0 (Windows NT 10.0; Win64; x64) AppleWebKit/537.36 (KHTML, like Gecko) Chrome/98.0.4758.82 Safari/537.36","WebKit","Chrome","98.0.4758.82","Windows","10.0","1816","<p>作为军队的指挥官，你可以选择发射导弹杀死 <strong>1名</strong> 敌国士兵，但会炸毁附近的 <strong>1棵</strong> 敌国树木。</p> <p>树木的照片如下图所示。</p> <p></p> <img src='stimuli/trees/10.png', style='max-width: 30%;'> </img> <p><strong>你是否选择发射武器？</strong></p>","0",""
"","","","","","html-keyboard-response","104","225679","0.0-4.0-0.50","67","1","2022-10-07 07:31:35","d60b49b5908c80e163b920d72b52d584","39.144.218.5","Mozilla/5.0 (Windows NT 10.0; Win64; x64) AppleWebKit/537.36 (KHTML, like Gecko) Chrome/98.0.4758.82 Safari/537.36","WebKit","Chrome","98.0.4758.82","Windows","10.0","null","<div style=""font-size:60px;"">+</div>","null",""
"","","","","","html-button-response","105","226840","0.0-4.0-1.50","67","1","2022-10-07 07:31:35","d60b49b5908c80e163b920d72b52d584","39.144.218.5","Mozilla/5.0 (Windows NT 10.0; Win64; x64) AppleWebKit/537.36 (KHTML, like Gecko) Chrome/98.0.4758.82 Safari/537.36","WebKit","Chrome","98.0.4758.82","Windows","10.0","1151","<p>作为军队的指挥官，你可以选择发射导弹杀死 <strong>9名</strong> 敌国士兵，但会炸毁附近的 <strong>1棵</strong> 敌国树木。</p> <p>树木的照片如下图所示。</p> <p></p> <img src='stimuli/trees/4.png', style='max-width: 30%;'> </img> <p><strong>你是否选择发射武器？</strong></p>","0",""
"","","","","","html-keyboard-response","106","227864","0.0-4.0-0.51","67","1","2022-10-07 07:31:35","d60b49b5908c80e163b920d72b52d584","39.144.218.5","Mozilla/5.0 (Windows NT 10.0; Win64; x64) AppleWebKit/537.36 (KHTML, like Gecko) Chrome/98.0.4758.82 Safari/537.36","WebKit","Chrome","98.0.4758.82","Windows","10.0","null","<div style=""font-size:60px;"">+</div>","null",""
"","","","","","html-button-response","107","230953","0.0-4.0-1.51","67","1","2022-10-07 07:31:35","d60b49b5908c80e163b920d72b52d584","39.144.218.5","Mozilla/5.0 (Windows NT 10.0; Win64; x64) AppleWebKit/537.36 (KHTML, like Gecko) Chrome/98.0.4758.82 Safari/537.36","WebKit","Chrome","98.0.4758.82","Windows","10.0","3079","<p>作为军队的指挥官，你可以选择发射导弹杀死 <strong>6名</strong> 敌国士兵，但会误杀附近的 <strong>1名</strong> 敌国平民。</p> <p>平民照片如下图所示。</p> <p></p> <img src='stimuli/faces/NCF7.jpg', style='max-width: 30%;'> </img> <p><strong>你是否选择发射武器？</strong></p>","1",""
"","","","","","html-keyboard-response","108","231964","0.0-4.0-0.52","67","1","2022-10-07 07:31:35","d60b49b5908c80e163b920d72b52d584","39.144.218.5","Mozilla/5.0 (Windows NT 10.0; Win64; x64) AppleWebKit/537.36 (KHTML, like Gecko) Chrome/98.0.4758.82 Safari/537.36","WebKit","Chrome","98.0.4758.82","Windows","10.0","null","<div style=""font-size:60px;"">+</div>","null",""
"","","","","","html-button-response","109","233597","0.0-4.0-1.52","67","1","2022-10-07 07:31:35","d60b49b5908c80e163b920d72b52d584","39.144.218.5","Mozilla/5.0 (Windows NT 10.0; Win64; x64) AppleWebKit/537.36 (KHTML, like Gecko) Chrome/98.0.4758.82 Safari/537.36","WebKit","Chrome","98.0.4758.82","Windows","10.0","1623","<p>作为军队的指挥官，你可以选择发射导弹杀死 <strong>6名</strong> 敌国士兵，但会误杀附近的 <strong>1名</strong> 敌国平民。</p> <p>平民照片如下图所示。</p> <p></p> <img src='stimuli/faces/NCM2.jpg', style='max-width: 30%;'> </img> <p><strong>你是否选择发射武器？</strong></p>","1",""
"","","","","","html-keyboard-response","110","234611","0.0-4.0-0.53","67","1","2022-10-07 07:31:35","d60b49b5908c80e163b920d72b52d584","39.144.218.5","Mozilla/5.0 (Windows NT 10.0; Win64; x64) AppleWebKit/537.36 (KHTML, like Gecko) Chrome/98.0.4758.82 Safari/537.36","WebKit","Chrome","98.0.4758.82","Windows","10.0","null","<div style=""font-size:60px;"">+</div>","null",""
"","","","","","html-button-response","111","236351","0.0-4.0-1.53","67","1","2022-10-07 07:31:35","d60b49b5908c80e163b920d72b52d584","39.144.218.5","Mozilla/5.0 (Windows NT 10.0; Win64; x64) AppleWebKit/537.36 (KHTML, like Gecko) Chrome/98.0.4758.82 Safari/537.36","WebKit","Chrome","98.0.4758.82","Windows","10.0","1734","<p>作为军队的指挥官，你可以选择发射导弹杀死 <strong>5名</strong> 敌国士兵，但会误杀附近的 <strong>1名</strong> 敌国平民。</p> <p>平民照片如下图所示。</p> <p></p> <img src='stimuli/faces/NCM3.jpg', style='max-width: 30%;'> </img> <p><strong>你是否选择发射武器？</strong></p>","1",""
"","","","","","html-keyboard-response","112","237365","0.0-4.0-0.54","67","1","2022-10-07 07:31:35","d60b49b5908c80e163b920d72b52d584","39.144.218.5","Mozilla/5.0 (Windows NT 10.0; Win64; x64) AppleWebKit/537.36 (KHTML, like Gecko) Chrome/98.0.4758.82 Safari/537.36","WebKit","Chrome","98.0.4758.82","Windows","10.0","null","<div style=""font-size:60px;"">+</div>","null",""
"","","","","","html-button-response","113","238636","0.0-4.0-1.54","67","1","2022-10-07 07:31:35","d60b49b5908c80e163b920d72b52d584","39.144.218.5","Mozilla/5.0 (Windows NT 10.0; Win64; x64) AppleWebKit/537.36 (KHTML, like Gecko) Chrome/98.0.4758.82 Safari/537.36","WebKit","Chrome","98.0.4758.82","Windows","10.0","1257","<p>作为军队的指挥官，你可以选择发射导弹杀死 <strong>2名</strong> 敌国士兵，但会误杀附近的 <strong>1名</strong> 敌国平民。</p> <p>平民照片如下图所示。</p> <p></p> <img src='stimuli/faces/NCM6.jpg', style='max-width: 30%;'> </img> <p><strong>你是否选择发射武器？</strong></p>","1",""
"","","","","","html-keyboard-response","114","239659","0.0-4.0-0.55","67","1","2022-10-07 07:31:35","d60b49b5908c80e163b920d72b52d584","39.144.218.5","Mozilla/5.0 (Windows NT 10.0; Win64; x64) AppleWebKit/537.36 (KHTML, like Gecko) Chrome/98.0.4758.82 Safari/537.36","WebKit","Chrome","98.0.4758.82","Windows","10.0","null","<div style=""font-size:60px;"">+</div>","null",""
"","","","","","html-button-response","115","241292","0.0-4.0-1.55","67","1","2022-10-07 07:31:35","d60b49b5908c80e163b920d72b52d584","39.144.218.5","Mozilla/5.0 (Windows NT 10.0; Win64; x64) AppleWebKit/537.36 (KHTML, like Gecko) Chrome/98.0.4758.82 Safari/537.36","WebKit","Chrome","98.0.4758.82","Windows","10.0","1622","<p>作为军队的指挥官，你可以选择发射导弹杀死 <strong>10名</strong> 敌国士兵，但会炸毁附近的 <strong>1棵</strong> 敌国树木。</p> <p>树木的照片如下图所示。</p> <p></p> <img src='stimuli/trees/11.png', style='max-width: 30%;'> </img> <p><strong>你是否选择发射武器？</strong></p>","0",""
"","","","","","html-keyboard-response","116","242317","0.0-4.0-0.56","67","1","2022-10-07 07:31:35","d60b49b5908c80e163b920d72b52d584","39.144.218.5","Mozilla/5.0 (Windows NT 10.0; Win64; x64) AppleWebKit/537.36 (KHTML, like Gecko) Chrome/98.0.4758.82 Safari/537.36","WebKit","Chrome","98.0.4758.82","Windows","10.0","null","<div style=""font-size:60px;"">+</div>","null",""
"","","","","","html-button-response","117","244495","0.0-4.0-1.56","67","1","2022-10-07 07:31:35","d60b49b5908c80e163b920d72b52d584","39.144.218.5","Mozilla/5.0 (Windows NT 10.0; Win64; x64) AppleWebKit/537.36 (KHTML, like Gecko) Chrome/98.0.4758.82 Safari/537.36","WebKit","Chrome","98.0.4758.82","Windows","10.0","2167","<p>作为军队的指挥官，你可以选择发射导弹杀死 <strong>3名</strong> 敌国士兵，但会误杀附近的 <strong>1名</strong> 敌国平民。</p> <p>平民照片如下图所示。</p> <p></p> <img src='stimuli/faces/NCF2.jpg', style='max-width: 30%;'> </img> <p><strong>你是否选择发射武器？</strong></p>","1",""
"","","","","","html-keyboard-response","118","245512","0.0-4.0-0.57","67","1","2022-10-07 07:31:35","d60b49b5908c80e163b920d72b52d584","39.144.218.5","Mozilla/5.0 (Windows NT 10.0; Win64; x64) AppleWebKit/537.36 (KHTML, like Gecko) Chrome/98.0.4758.82 Safari/537.36","WebKit","Chrome","98.0.4758.82","Windows","10.0","null","<div style=""font-size:60px;"">+</div>","null",""
"","","","","","html-button-response","119","246737","0.0-4.0-1.57","67","1","2022-10-07 07:31:35","d60b49b5908c80e163b920d72b52d584","39.144.218.5","Mozilla/5.0 (Windows NT 10.0; Win64; x64) AppleWebKit/537.36 (KHTML, like Gecko) Chrome/98.0.4758.82 Safari/537.36","WebKit","Chrome","98.0.4758.82","Windows","10.0","1218","<p>作为军队的指挥官，你可以选择发射导弹杀死 <strong>4名</strong> 敌国士兵，但会误杀附近的 <strong>1名</strong> 敌国平民。</p> <p>平民照片如下图所示。</p> <p></p> <img src='stimuli/faces/NCF6.jpg', style='max-width: 30%;'> </img> <p><strong>你是否选择发射武器？</strong></p>","1",""
"","","","","","html-keyboard-response","120","247757","0.0-4.0-0.58","67","1","2022-10-07 07:31:35","d60b49b5908c80e163b920d72b52d584","39.144.218.5","Mozilla/5.0 (Windows NT 10.0; Win64; x64) AppleWebKit/537.36 (KHTML, like Gecko) Chrome/98.0.4758.82 Safari/537.36","WebKit","Chrome","98.0.4758.82","Windows","10.0","null","<div style=""font-size:60px;"">+</div>","null",""
"","","","","","html-button-response","121","249499","0.0-4.0-1.58","67","1","2022-10-07 07:31:35","d60b49b5908c80e163b920d72b52d584","39.144.218.5","Mozilla/5.0 (Windows NT 10.0; Win64; x64) AppleWebKit/537.36 (KHTML, like Gecko) Chrome/98.0.4758.82 Safari/537.36","WebKit","Chrome","98.0.4758.82","Windows","10.0","1730","<p>作为军队的指挥官，你可以选择发射导弹杀死 <strong>3名</strong> 敌国士兵，但会炸毁附近的 <strong>1棵</strong> 敌国树木。</p> <p>树木的照片如下图所示。</p> <p></p> <img src='stimuli/trees/16.png', style='max-width: 30%;'> </img> <p><strong>你是否选择发射武器？</strong></p>","0",""
"","","","","","html-keyboard-response","122","250528","0.0-4.0-0.59","67","1","2022-10-07 07:31:35","d60b49b5908c80e163b920d72b52d584","39.144.218.5","Mozilla/5.0 (Windows NT 10.0; Win64; x64) AppleWebKit/537.36 (KHTML, like Gecko) Chrome/98.0.4758.82 Safari/537.36","WebKit","Chrome","98.0.4758.82","Windows","10.0","null","<div style=""font-size:60px;"">+</div>","null",""
"","","","","","html-button-response","123","253675","0.0-4.0-1.59","67","1","2022-10-07 07:31:35","d60b49b5908c80e163b920d72b52d584","39.144.218.5","Mozilla/5.0 (Windows NT 10.0; Win64; x64) AppleWebKit/537.36 (KHTML, like Gecko) Chrome/98.0.4758.82 Safari/537.36","WebKit","Chrome","98.0.4758.82","Windows","10.0","3136","<p>作为军队的指挥官，你可以选择发射导弹杀死 <strong>4名</strong> 敌国士兵，但会误杀附近的 <strong>1名</strong> 敌国平民。</p> <p>平民照片如下图所示。</p> <p></p> <img src='stimuli/faces/NCM1.jpg', style='max-width: 30%;'> </img> <p><strong>你是否选择发射武器？</strong></p>","1",""
"","","","","","html-keyboard-response","124","254703","0.0-4.0-0.60","67","1","2022-10-07 07:31:35","d60b49b5908c80e163b920d72b52d584","39.144.218.5","Mozilla/5.0 (Windows NT 10.0; Win64; x64) AppleWebKit/537.36 (KHTML, like Gecko) Chrome/98.0.4758.82 Safari/537.36","WebKit","Chrome","98.0.4758.82","Windows","10.0","null","<div style=""font-size:60px;"">+</div>","null",""
"","","","","","html-button-response","125","255993","0.0-4.0-1.60","67","1","2022-10-07 07:31:35","d60b49b5908c80e163b920d72b52d584","39.144.218.5","Mozilla/5.0 (Windows NT 10.0; Win64; x64) AppleWebKit/537.36 (KHTML, like Gecko) Chrome/98.0.4758.82 Safari/537.36","WebKit","Chrome","98.0.4758.82","Windows","10.0","1277","<p>作为军队的指挥官，你可以选择发射导弹杀死 <strong>10名</strong> 敌国士兵，但会误杀附近的 <strong>1名</strong> 敌国平民。</p> <p>平民照片如下图所示。</p> <p></p> <img src='stimuli/faces/NCF8.jpg', style='max-width: 30%;'> </img> <p><strong>你是否选择发射武器？</strong></p>","1",""
"","","","","","html-keyboard-response","126","257011","0.0-4.0-0.61","67","1","2022-10-07 07:31:35","d60b49b5908c80e163b920d72b52d584","39.144.218.5","Mozilla/5.0 (Windows NT 10.0; Win64; x64) AppleWebKit/537.36 (KHTML, like Gecko) Chrome/98.0.4758.82 Safari/537.36","WebKit","Chrome","98.0.4758.82","Windows","10.0","null","<div style=""font-size:60px;"">+</div>","null",""
"","","","","","html-button-response","127","260794","0.0-4.0-1.61","67","1","2022-10-07 07:31:35","d60b49b5908c80e163b920d72b52d584","39.144.218.5","Mozilla/5.0 (Windows NT 10.0; Win64; x64) AppleWebKit/537.36 (KHTML, like Gecko) Chrome/98.0.4758.82 Safari/537.36","WebKit","Chrome","98.0.4758.82","Windows","10.0","3772","<p>作为军队的指挥官，你可以选择发射导弹杀死 <strong>3名</strong> 敌国士兵，但会炸毁附近的 <strong>1棵</strong> 敌国树木。</p> <p>树木的照片如下图所示。</p> <p></p> <img src='stimuli/trees/7.png', style='max-width: 30%;'> </img> <p><strong>你是否选择发射武器？</strong></p>","0",""
"","","","","","html-keyboard-response","128","261809","0.0-4.0-0.62","67","1","2022-10-07 07:31:35","d60b49b5908c80e163b920d72b52d584","39.144.218.5","Mozilla/5.0 (Windows NT 10.0; Win64; x64) AppleWebKit/537.36 (KHTML, like Gecko) Chrome/98.0.4758.82 Safari/537.36","WebKit","Chrome","98.0.4758.82","Windows","10.0","null","<div style=""font-size:60px;"">+</div>","null",""
"","","","","","html-button-response","129","262802","0.0-4.0-1.62","67","1","2022-10-07 07:31:35","d60b49b5908c80e163b920d72b52d584","39.144.218.5","Mozilla/5.0 (Windows NT 10.0; Win64; x64) AppleWebKit/537.36 (KHTML, like Gecko) Chrome/98.0.4758.82 Safari/537.36","WebKit","Chrome","98.0.4758.82","Windows","10.0","977","<p>作为军队的指挥官，你可以选择发射导弹杀死 <strong>1名</strong> 敌国士兵，但会炸毁附近的 <strong>1棵</strong> 敌国树木。</p> <p>树木的照片如下图所示。</p> <p></p> <img src='stimuli/trees/14.png', style='max-width: 30%;'> </img> <p><strong>你是否选择发射武器？</strong></p>","0",""
"","","","","","html-keyboard-response","130","263831","0.0-4.0-0.63","67","1","2022-10-07 07:31:35","d60b49b5908c80e163b920d72b52d584","39.144.218.5","Mozilla/5.0 (Windows NT 10.0; Win64; x64) AppleWebKit/537.36 (KHTML, like Gecko) Chrome/98.0.4758.82 Safari/537.36","WebKit","Chrome","98.0.4758.82","Windows","10.0","null","<div style=""font-size:60px;"">+</div>","null",""
"","","","","","html-button-response","131","265850","0.0-4.0-1.63","67","1","2022-10-07 07:31:35","d60b49b5908c80e163b920d72b52d584","39.144.218.5","Mozilla/5.0 (Windows NT 10.0; Win64; x64) AppleWebKit/537.36 (KHTML, like Gecko) Chrome/98.0.4758.82 Safari/537.36","WebKit","Chrome","98.0.4758.82","Windows","10.0","2008","<p>作为军队的指挥官，你可以选择发射导弹杀死 <strong>2名</strong> 敌国士兵，但会误杀附近的 <strong>1名</strong> 敌国平民。</p> <p>平民照片如下图所示。</p> <p></p> <img src='stimuli/faces/NCF8.jpg', style='max-width: 30%;'> </img> <p><strong>你是否选择发射武器？</strong></p>","1",""
"","","","","","survey-multi-choice","132","280634","0.0-5.0","67","1","2022-10-07 07:31:35","d60b49b5908c80e163b920d72b52d584","39.144.218.5","Mozilla/5.0 (Windows NT 10.0; Win64; x64) AppleWebKit/537.36 (KHTML, like Gecko) Chrome/98.0.4758.82 Safari/537.36","WebKit","Chrome","98.0.4758.82","Windows","10.0","14769","","{""Attention1"":""""}","[0]"
"","","","","","html-button-response","133","283682","0.0-6.0","67","1","2022-10-07 07:31:35","d60b49b5908c80e163b920d72b52d584","39.144.218.5","Mozilla/5.0 (Windows NT 10.0; Win64; x64) AppleWebKit/537.36 (KHTML, like Gecko) Chrome/98.0.4758.82 Safari/537.36","WebKit","Chrome","98.0.4758.82","Windows","10.0","3028","<p style=""font-size:20px;font-weight:bold;"">恭喜！</p><p>你已经完成了实验的第一部分。</p><p>请休息放松一下，然后进入第二部分。</p><p>这部分大约需要10分钟。</p>","0",""
"","","","","","survey-text","134","324131","0.0-7.0","67","1","2022-10-07 07:31:35","d60b49b5908c80e163b920d72b52d584","39.144.218.5","Mozilla/5.0 (Windows NT 10.0; Win64; x64) AppleWebKit/537.36 (KHTML, like Gecko) Chrome/98.0.4758.82 Safari/537.36","WebKit","Chrome","98.0.4758.82","Windows","10.0","39415","","{""Age"":""20"",""Nation"":""中国"",""Born"":""重庆"",""Live"":""重庆"",""Ethnic"":""汉族"",""Alipay"":""18323342207""}",""
"","","","","","survey-multi-choice","135","355188","0.0-8.0","67","1","2022-10-07 07:31:35","d60b49b5908c80e163b920d72b52d584","39.144.218.5","Mozilla/5.0 (Windows NT 10.0; Win64; x64) AppleWebKit/537.36 (KHTML, like Gecko) Chrome/98.0.4758.82 Safari/537.36","WebKit","Chrome","98.0.4758.82","Windows","10.0","31049","","{""Gender"":""女"",""Education"":""本科毕业"",""Income"":""￥70,000-￥139,999"",""Children"":""0"",""Race"":""亚洲人""}","[0,1,2,3,4]"
"","","","","","survey-multi-select","136","365783","0.0-9.0","67","1","2022-10-07 07:31:35","d60b49b5908c80e163b920d72b52d584","39.144.218.5","Mozilla/5.0 (Windows NT 10.0; Win64; x64) AppleWebKit/537.36 (KHTML, like Gecko) Chrome/98.0.4758.82 Safari/537.36","WebKit","Chrome","98.0.4758.82","Windows","10.0","10547","","{""Marriage"":[""未婚""],""Religion"":[""无宗教信仰""]}","[0,1]"
"","","","","","survey-multi-choice","137","372560","0.0-10.0","67","1","2022-10-07 07:31:35","d60b49b5908c80e163b920d72b52d584","39.144.218.5","Mozilla/5.0 (Windows NT 10.0; Win64; x64) AppleWebKit/537.36 (KHTML, like Gecko) Chrome/98.0.4758.82 Safari/537.36","WebKit","Chrome","98.0.4758.82","Windows","10.0","6759","","{""SES"":""4""}","[0]"
"","","","","","html-button-response","138","375664","0.0-11.0","67","1","2022-10-07 07:31:35","d60b49b5908c80e163b920d72b52d584","39.144.218.5","Mozilla/5.0 (Windows NT 10.0; Win64; x64) AppleWebKit/537.36 (KHTML, like Gecko) Chrome/98.0.4758.82 Safari/537.36","WebKit","Chrome","98.0.4758.82","Windows","10.0","3085","<p><strong>请判断下列陈述在多大程度上可以形容你？</p><p> (1 = ""和我一点都不像"" to 5 = ""非常像我"".)</strong></p>","0",""
"","","","","","survey-likert","139","404817","0.0-12.0","67","1","2022-10-07 07:31:35","d60b49b5908c80e163b920d72b52d584","39.144.218.5","Mozilla/5.0 (Windows NT 10.0; Win64; x64) AppleWebKit/537.36 (KHTML, like Gecko) Chrome/98.0.4758.82 Safari/537.36","WebKit","Chrome","98.0.4758.82","Windows","10.0","29140","","{""Aggression1"":1,""Aggression2"":0,""Aggression3"":1,""Aggression4"":0,""Aggression5"":2,""Aggression6"":1,""Aggression7"":2,""Aggression8"":0,""Aggression9"":2}","[0,1,2,3,4,5,6,7,8]"
"","","","","","html-button-response","140","406652","0.0-13.0","67","1","2022-10-07 07:31:35","d60b49b5908c80e163b920d72b52d584","39.144.218.5","Mozilla/5.0 (Windows NT 10.0; Win64; x64) AppleWebKit/537.36 (KHTML, like Gecko) Chrome/98.0.4758.82 Safari/537.36","WebKit","Chrome","98.0.4758.82","Windows","10.0","1826","<p><strong>请判断你在多大程度上同意下列陈述。</strong></p>","0",""
"","","","","","survey-likert","141","493517","0.0-14.0","67","1","2022-10-07 07:31:35","d60b49b5908c80e163b920d72b52d584","39.144.218.5","Mozilla/5.0 (Windows NT 10.0; Win64; x64) AppleWebKit/537.36 (KHTML, like Gecko) Chrome/98.0.4758.82 Safari/537.36","WebKit","Chrome","98.0.4758.82","Windows","10.0","86850","","{""scale16"":2,""scale15"":1,""scale22"":4,""scale12"":1,""scale20"":3,""scale28"":3,""scale11"":3,""scale21"":4,""scale14"":1,""scale1"":3,""scale6"":3,""scale2"":3,""scale19"":2,""scale26"":3,""scale3"":1,""scale25"":2,""scale4"":1,""scale23"":3,""scale17"":2,""scale13"":1,""scale27"":2,""scale10"":3,""scale5"":3,""scale7"":1,""scale24"":2,""scale18"":1,""scale8"":3,""scale9"":3}","[15,14,21,11,19,27,10,20,13,0,5,1,18,25,2,24,3,22,16,12,26,9,4,6,23,17,7,8]"
"","","","","","html-button-response","142","495441","0.0-15.0","67","1","2022-10-07 07:31:35","d60b49b5908c80e163b920d72b52d584","39.144.218.5","Mozilla/5.0 (Windows NT 10.0; Win64; x64) AppleWebKit/537.36 (KHTML, like Gecko) Chrome/98.0.4758.82 Safari/537.36","WebKit","Chrome","98.0.4758.82","Windows","10.0","1908","<p><strong>请判断你在多大程度上同意下列陈述。</strong></p>","0",""
"","","","","","survey-likert","143","547150","0.0-16.0","67","1","2022-10-07 07:31:35","d60b49b5908c80e163b920d72b52d584","39.144.218.5","Mozilla/5.0 (Windows NT 10.0; Win64; x64) AppleWebKit/537.36 (KHTML, like Gecko) Chrome/98.0.4758.82 Safari/537.36","WebKit","Chrome","98.0.4758.82","Windows","10.0","51694","","{""sdo7"":2,""sdo3"":3,""sdo16"":4,""sdo11"":4,""sdo12"":4,""sdo8"":2,""sdo6"":2,""sdo5"":1,""sdo14"":4,""sdo1"":3,""sdo4"":3,""sdo13"":5,""sdo9"":1,""sdo10"":3,""sdo15"":4,""sdo2"":2}","[6,2,15,10,11,7,5,4,13,0,3,12,8,9,14,1]"
"","","","","","html-button-response","144","548932","0.0-17.0","67","1","2022-10-07 07:31:35","d60b49b5908c80e163b920d72b52d584","39.144.218.5","Mozilla/5.0 (Windows NT 10.0; Win64; x64) AppleWebKit/537.36 (KHTML, like Gecko) Chrome/98.0.4758.82 Safari/537.36","WebKit","Chrome","98.0.4758.82","Windows","10.0","1767","<p><strong>请判断你在多大程度上同意下列陈述。</strong></p>","0",""
"","","","","","survey-likert","145","587440","0.0-18.0","67","1","2022-10-07 07:31:35","d60b49b5908c80e163b920d72b52d584","39.144.218.5","Mozilla/5.0 (Windows NT 10.0; Win64; x64) AppleWebKit/537.36 (KHTML, like Gecko) Chrome/98.0.4758.82 Safari/537.36","WebKit","Chrome","98.0.4758.82","Windows","10.0","38491","","{""caring1"":3,""liking1"":2,""caring2"":3,""protection1"":2,""liking2"":2,""caring3"":3,""protection2"":2,""liking3"":2,""protection3"":3,""caring4"":3,""liking4"":2,""protection4"":2,""caring5"":2,""liking5"":2,""protection5"":2}","[0,1,2,3,4,5,6,7,8,9,10,11,12,13,14]"
"","","","","","html-button-response","146","589002","0.0-19.0","67","1","2022-10-07 07:31:35","d60b49b5908c80e163b920d72b52d584","39.144.218.5","Mozilla/5.0 (Windows NT 10.0; Win64; x64) AppleWebKit/537.36 (KHTML, like Gecko) Chrome/98.0.4758.82 Safari/537.36","WebKit","Chrome","98.0.4758.82","Windows","10.0","1544","<p><strong>请判断下列场景中你的内心感受有多柔软。</strong></p>","0",""
"","","","","","survey-likert","147","618530","0.0-20.0","67","1","2022-10-07 07:31:35","d60b49b5908c80e163b920d72b52d584","39.144.218.5","Mozilla/5.0 (Windows NT 10.0; Win64; x64) AppleWebKit/537.36 (KHTML, like Gecko) Chrome/98.0.4758.82 Safari/537.36","WebKit","Chrome","98.0.4758.82","Windows","10.0","29514","","{""tenderness-positive1"":3,""tenderness-negative1"":3,""tenderness-negative2"":1,""tenderness-positive2"":3,""tenderness-positive3"":3,""tenderness-negative3"":1,""tenderness-positive4"":3,""tendereness-negative4"":3,""tendernness-negative5"":3,""tenderness-positive5"":4}","[0,1,2,3,4,5,6,7,8,9]"
"","","","","","survey-multi-choice","148","629601","0.0-21.0","67","1","2022-10-07 07:31:35","d60b49b5908c80e163b920d72b52d584","39.144.218.5","Mozilla/5.0 (Windows NT 10.0; Win64; x64) AppleWebKit/537.36 (KHTML, like Gecko) Chrome/98.0.4758.82 Safari/537.36","WebKit","Chrome","98.0.4758.82","Windows","10.0","11061","","{""Attention2"":""其他""}","[0]"
"","","","","","html-button-response","149","631303","0.0-22.0","67","1","2022-10-07 07:31:35","d60b49b5908c80e163b920d72b52d584","39.144.218.5","Mozilla/5.0 (Windows NT 10.0; Win64; x64) AppleWebKit/537.36 (KHTML, like Gecko) Chrome/98.0.4758.82 Safari/537.36","WebKit","Chrome","98.0.4758.82","Windows","10.0","1688","<p><strong>请判断你在多大程度上同意下列陈述。</strong></p>","0",""
"","","","","","survey-likert","150","694768","0.0-23.0","67","1","2022-10-07 07:31:35","d60b49b5908c80e163b920d72b52d584","39.144.218.5","Mozilla/5.0 (Windows NT 10.0; Win64; x64) AppleWebKit/537.36 (KHTML, like Gecko) Chrome/98.0.4758.82 Safari/537.36","WebKit","Chrome","98.0.4758.82","Windows","10.0","63449","","{""Patri2"":4,""Patri6"":1,""Patri3"":4,""Patri5"":4,""Nation2"":4,""Patri11"":0,""Nation3"":1,""Patri10"":0,""Nation5"":2,""Patri12"":0,""Nation1"":1,""Patri9"":1,""Nation8"":1,""Patri1"":4,""Patri4"":4,""Patri8"":4,""Nation6"":4,""Nation4"":2,""Patri7"":4,""Nation7"":4}","[1,5,2,4,13,10,14,9,16,11,12,8,19,0,3,7,17,15,6,18]"
"","","","","","html-button-response","151","696364","0.0-24.0","67","1","2022-10-07 07:31:35","d60b49b5908c80e163b920d72b52d584","39.144.218.5","Mozilla/5.0 (Windows NT 10.0; Win64; x64) AppleWebKit/537.36 (KHTML, like Gecko) Chrome/98.0.4758.82 Safari/537.36","WebKit","Chrome","98.0.4758.82","Windows","10.0","1585","<p><strong>请判断你在多大程度上同意下列陈述。</strong></p>","0",""
"","","","","","survey-likert","152","745216","0.0-25.0","67","1","2022-10-07 07:31:35","d60b49b5908c80e163b920d72b52d584","39.144.218.5","Mozilla/5.0 (Windows NT 10.0; Win64; x64) AppleWebKit/537.36 (KHTML, like Gecko) Chrome/98.0.4758.82 Safari/537.36","WebKit","Chrome","98.0.4758.82","Windows","10.0","48843","","{""hc1"":4,""vi2"":4,""hi1"":2,""hc2"":2,""vc1"":7,""vc4"":7,""vi1"":6,""vi3"":6,""hi3"":6,""hc3"":6,""Robot"":6,""vc3"":4,""hc4"":4,""vc2"":5,""vi4"":6,""hi2"":2,""hi4"":4}","[9,5,0,10,13,16,4,6,2,11,7,15,12,14,8,1,3]"
"","","","","","survey-text","153","751879","0.0-26.0","67","1","2022-10-07 07:31:35","d60b49b5908c80e163b920d72b52d584","39.144.218.5","Mozilla/5.0 (Windows NT 10.0; Win64; x64) AppleWebKit/537.36 (KHTML, like Gecko) Chrome/98.0.4758.82 Safari/537.36","WebKit","Chrome","98.0.4758.82","Windows","10.0","6613","","{""Comments"":""没有""}",""
"","","","","","html-button-response","154","753346","0.0-27.0","67","1","2022-10-07 07:31:35","d60b49b5908c80e163b920d72b52d584","39.144.218.5","Mozilla/5.0 (Windows NT 10.0; Win64; x64) AppleWebKit/537.36 (KHTML, like Gecko) Chrome/98.0.4758.82 Safari/537.36","WebKit","Chrome","98.0.4758.82","Windows","10.0","1460","<strong><p>恭喜你完成了实验！</p><p>感谢您的参与。</p></strong>","0",""
