"success","timeout","failed_images","failed_audio","failed_video","trial_type","trial_index","time_elapsed","internal_node_id","run_id","condition","recorded_at","source_code_version","ip","user_agent","device","browser","browser_version","platform","platform_version","rt","stimulus","response","question_order"
"true","false","[]","[]","[]","preload","0","1439","0.0-0.0","68","1","2022-10-07 07:31:54","d60b49b5908c80e163b920d72b52d584","124.160.154.22","Mozilla/5.0 (Windows NT 10.0; Win64; x64; rv:105.0) Gecko/20100101 Firefox/105.0","","Firefox","105.0","Windows","10.0","","","",""
"true","","","","","fullscreen","1","16816","0.0-1.0","68","1","2022-10-07 07:31:54","d60b49b5908c80e163b920d72b52d584","124.160.154.22","Mozilla/5.0 (Windows NT 10.0; Win64; x64; rv:105.0) Gecko/20100101 Firefox/105.0","","Firefox","105.0","Windows","10.0","","","",""
"","","","","","html-button-response","2","97090","0.0-2.0","68","1","2022-10-07 07:31:54","d60b49b5908c80e163b920d72b52d584","124.160.154.22","Mozilla/5.0 (Windows NT 10.0; Win64; x64; rv:105.0) Gecko/20100101 Firefox/105.0","","Firefox","105.0","Windows","10.0","80269","<p style=""font-size:20px;font-weight:bold;"">实验知情同意书</p><p style=""text-align:left;""><strong>实验名称：</strong>社会冲突研究</p><p style=""text-align:left;""><strong>主要研究者：</strong>韩晓春副教授（北京师范大学心理学部）</p><p style=""text-align:left;""><strong>联系方式：</strong>发送邮件至xiaochun.han@bnu.edu.cn</p><p style=""text-align:left;""><strong>研究目的：</strong>研究旨在了解人类面对群体冲突时的决策方式，以及相关的心理学特质。实验调查大约需要20分钟。</p><p style=""text-align:left;""><strong>实验流程：</strong>实验包含两部分。第一部分呈现一系列群体冲突场景，请你决定如何对这些冲突进行反应，大约需要10分钟完成。第二部分包含一系列人口统计学信息收集和心理学问卷，大约需要10分钟完成。</p><p style=""text-align:left;""><strong>参加及退出规则：</strong>参加本实验完全取决于您的个人意愿。在参与过程中，您可以随时退出，并且不用承担任何后果。</p><p style=""text-align:left;""><strong>隐私：</strong>本实验完全匿名进行，不会收集您的姓名或其他能够识别您身份的信息。实验中收集的作答仅用作科学研究使用，可能会在学术期刊/书籍上发表，或者用于教学，您的数据未来可能会和其他研究者或实验室分享，但您的个人身份不会被识别。</p><p style=""text-align:left;""><strong>实验报酬：</strong>实验完成后，您将获得15元人民币报酬，以感谢您的时间和努力。调查问卷中包含几道题目用以测验您作答时的认真度。只有完成全部实验，并且正确回答认真度测验的被试才能获得实验报酬。实验报酬将通过支付宝转账发放。</p><p style=""text-align:left;font-size:20px;""><strong>如果您同意以上实验知情同意书的内容，请点击'同意并且开始实验'按钮；否则请关闭浏览器界面，退出实验。</strong></p>","0",""
"","","","","","html-button-response","3","114008","0.0-3.0","68","1","2022-10-07 07:31:54","d60b49b5908c80e163b920d72b52d584","124.160.154.22","Mozilla/5.0 (Windows NT 10.0; Win64; x64; rv:105.0) Gecko/20100101 Firefox/105.0","","Firefox","105.0","Windows","10.0","16912","<p ><strong>实验任务一：</strong></p><p>请想象你的国家与另一个国家发生了军事冲突。</p><p>你是国家军队的指挥官，你将如何在冲突中进行决策。</p><p>具体来说，作为军队指挥官，请你决定是否发射导弹进行打击。</p><p>接下来，你会面对一系列场景，请仔细阅读每个场景，然后进行决策。</p><p>这部分实验任务大约需要10分钟。</p><p><strong>实验过程中，请集中注意力。</strong></p>","0",""
"","","","","","html-keyboard-response","4","115017","0.0-4.0-0.0","68","1","2022-10-07 07:31:54","d60b49b5908c80e163b920d72b52d584","124.160.154.22","Mozilla/5.0 (Windows NT 10.0; Win64; x64; rv:105.0) Gecko/20100101 Firefox/105.0","","Firefox","105.0","Windows","10.0","null","<div style=""font-size:60px;"">+</div>","null",""
"","","","","","html-button-response","5","122580","0.0-4.0-1.0","68","1","2022-10-07 07:31:54","d60b49b5908c80e163b920d72b52d584","124.160.154.22","Mozilla/5.0 (Windows NT 10.0; Win64; x64; rv:105.0) Gecko/20100101 Firefox/105.0","","Firefox","105.0","Windows","10.0","7560","<p>作为军队的指挥官，你可以选择发射导弹杀死 <strong>2名</strong> 敌国士兵，但会炸毁附近的 <strong>1棵</strong> 敌国树木。</p> <p>树木的照片如下图所示。</p> <p></p> <img src='stimuli/trees/2.png', style='max-width: 30%;'> </img> <p><strong>你是否选择发射武器？</strong></p>","0",""
"","","","","","html-keyboard-response","6","123583","0.0-4.0-0.1","68","1","2022-10-07 07:31:54","d60b49b5908c80e163b920d72b52d584","124.160.154.22","Mozilla/5.0 (Windows NT 10.0; Win64; x64; rv:105.0) Gecko/20100101 Firefox/105.0","","Firefox","105.0","Windows","10.0","null","<div style=""font-size:60px;"">+</div>","null",""
"","","","","","html-button-response","7","127693","0.0-4.0-1.1","68","1","2022-10-07 07:31:54","d60b49b5908c80e163b920d72b52d584","124.160.154.22","Mozilla/5.0 (Windows NT 10.0; Win64; x64; rv:105.0) Gecko/20100101 Firefox/105.0","","Firefox","105.0","Windows","10.0","4106","<p>作为军队的指挥官，你可以选择发射导弹杀死 <strong>9名</strong> 敌国士兵，但会炸毁附近的 <strong>1棵</strong> 敌国树木。</p> <p>树木的照片如下图所示。</p> <p></p> <img src='stimuli/trees/14.png', style='max-width: 30%;'> </img> <p><strong>你是否选择发射武器？</strong></p>","0",""
"","","","","","html-keyboard-response","8","128700","0.0-4.0-0.2","68","1","2022-10-07 07:31:54","d60b49b5908c80e163b920d72b52d584","124.160.154.22","Mozilla/5.0 (Windows NT 10.0; Win64; x64; rv:105.0) Gecko/20100101 Firefox/105.0","","Firefox","105.0","Windows","10.0","null","<div style=""font-size:60px;"">+</div>","null",""
"","","","","","html-button-response","9","133675","0.0-4.0-1.2","68","1","2022-10-07 07:31:54","d60b49b5908c80e163b920d72b52d584","124.160.154.22","Mozilla/5.0 (Windows NT 10.0; Win64; x64; rv:105.0) Gecko/20100101 Firefox/105.0","","Firefox","105.0","Windows","10.0","4972","<p>作为军队的指挥官，你可以选择发射导弹杀死 <strong>5名</strong> 敌国士兵，但会误杀附近的 <strong>1名</strong> 敌国平民。</p> <p>平民照片如下图所示。</p> <p></p> <img src='stimuli/faces/NCM4.jpg', style='max-width: 30%;'> </img> <p><strong>你是否选择发射武器？</strong></p>","1",""
"","","","","","html-keyboard-response","10","134689","0.0-4.0-0.3","68","1","2022-10-07 07:31:54","d60b49b5908c80e163b920d72b52d584","124.160.154.22","Mozilla/5.0 (Windows NT 10.0; Win64; x64; rv:105.0) Gecko/20100101 Firefox/105.0","","Firefox","105.0","Windows","10.0","null","<div style=""font-size:60px;"">+</div>","null",""
"","","","","","html-button-response","11","138260","0.0-4.0-1.3","68","1","2022-10-07 07:31:54","d60b49b5908c80e163b920d72b52d584","124.160.154.22","Mozilla/5.0 (Windows NT 10.0; Win64; x64; rv:105.0) Gecko/20100101 Firefox/105.0","","Firefox","105.0","Windows","10.0","3569","<p>作为军队的指挥官，你可以选择发射导弹杀死 <strong>2名</strong> 敌国士兵，但会炸毁附近的 <strong>1棵</strong> 敌国树木。</p> <p>树木的照片如下图所示。</p> <p></p> <img src='stimuli/trees/12.png', style='max-width: 30%;'> </img> <p><strong>你是否选择发射武器？</strong></p>","0",""
"","","","","","html-keyboard-response","12","139268","0.0-4.0-0.4","68","1","2022-10-07 07:31:54","d60b49b5908c80e163b920d72b52d584","124.160.154.22","Mozilla/5.0 (Windows NT 10.0; Win64; x64; rv:105.0) Gecko/20100101 Firefox/105.0","","Firefox","105.0","Windows","10.0","null","<div style=""font-size:60px;"">+</div>","null",""
"","","","","","html-button-response","13","140735","0.0-4.0-1.4","68","1","2022-10-07 07:31:54","d60b49b5908c80e163b920d72b52d584","124.160.154.22","Mozilla/5.0 (Windows NT 10.0; Win64; x64; rv:105.0) Gecko/20100101 Firefox/105.0","","Firefox","105.0","Windows","10.0","1463","<p>作为军队的指挥官，你可以选择发射导弹杀死 <strong>3名</strong> 敌国士兵，但会炸毁附近的 <strong>1棵</strong> 敌国树木。</p> <p>树木的照片如下图所示。</p> <p></p> <img src='stimuli/trees/6.png', style='max-width: 30%;'> </img> <p><strong>你是否选择发射武器？</strong></p>","0",""
"","","","","","html-keyboard-response","14","141745","0.0-4.0-0.5","68","1","2022-10-07 07:31:54","d60b49b5908c80e163b920d72b52d584","124.160.154.22","Mozilla/5.0 (Windows NT 10.0; Win64; x64; rv:105.0) Gecko/20100101 Firefox/105.0","","Firefox","105.0","Windows","10.0","null","<div style=""font-size:60px;"">+</div>","null",""
"","","","","","html-button-response","15","143831","0.0-4.0-1.5","68","1","2022-10-07 07:31:54","d60b49b5908c80e163b920d72b52d584","124.160.154.22","Mozilla/5.0 (Windows NT 10.0; Win64; x64; rv:105.0) Gecko/20100101 Firefox/105.0","","Firefox","105.0","Windows","10.0","2083","<p>作为军队的指挥官，你可以选择发射导弹杀死 <strong>10名</strong> 敌国士兵，但会误杀附近的 <strong>1名</strong> 敌国平民。</p> <p>平民照片如下图所示。</p> <p></p> <img src='stimuli/faces/NCF6.jpg', style='max-width: 30%;'> </img> <p><strong>你是否选择发射武器？</strong></p>","1",""
"","","","","","html-keyboard-response","16","144849","0.0-4.0-0.6","68","1","2022-10-07 07:31:54","d60b49b5908c80e163b920d72b52d584","124.160.154.22","Mozilla/5.0 (Windows NT 10.0; Win64; x64; rv:105.0) Gecko/20100101 Firefox/105.0","","Firefox","105.0","Windows","10.0","null","<div style=""font-size:60px;"">+</div>","null",""
"","","","","","html-button-response","17","147634","0.0-4.0-1.6","68","1","2022-10-07 07:31:54","d60b49b5908c80e163b920d72b52d584","124.160.154.22","Mozilla/5.0 (Windows NT 10.0; Win64; x64; rv:105.0) Gecko/20100101 Firefox/105.0","","Firefox","105.0","Windows","10.0","2782","<p>作为军队的指挥官，你可以选择发射导弹杀死 <strong>9名</strong> 敌国士兵，但会误杀附近的 <strong>1名</strong> 敌国平民。</p> <p>平民照片如下图所示。</p> <p></p> <img src='stimuli/faces/NCM8.jpg', style='max-width: 30%;'> </img> <p><strong>你是否选择发射武器？</strong></p>","1",""
"","","","","","html-keyboard-response","18","148646","0.0-4.0-0.7","68","1","2022-10-07 07:31:54","d60b49b5908c80e163b920d72b52d584","124.160.154.22","Mozilla/5.0 (Windows NT 10.0; Win64; x64; rv:105.0) Gecko/20100101 Firefox/105.0","","Firefox","105.0","Windows","10.0","null","<div style=""font-size:60px;"">+</div>","null",""
"","","","","","html-button-response","19","150234","0.0-4.0-1.7","68","1","2022-10-07 07:31:54","d60b49b5908c80e163b920d72b52d584","124.160.154.22","Mozilla/5.0 (Windows NT 10.0; Win64; x64; rv:105.0) Gecko/20100101 Firefox/105.0","","Firefox","105.0","Windows","10.0","1586","<p>作为军队的指挥官，你可以选择发射导弹杀死 <strong>3名</strong> 敌国士兵，但会误杀附近的 <strong>1名</strong> 敌国平民。</p> <p>平民照片如下图所示。</p> <p></p> <img src='stimuli/faces/NCM7.jpg', style='max-width: 30%;'> </img> <p><strong>你是否选择发射武器？</strong></p>","1",""
"","","","","","html-keyboard-response","20","151249","0.0-4.0-0.8","68","1","2022-10-07 07:31:54","d60b49b5908c80e163b920d72b52d584","124.160.154.22","Mozilla/5.0 (Windows NT 10.0; Win64; x64; rv:105.0) Gecko/20100101 Firefox/105.0","","Firefox","105.0","Windows","10.0","null","<div style=""font-size:60px;"">+</div>","null",""
"","","","","","html-button-response","21","153045","0.0-4.0-1.8","68","1","2022-10-07 07:31:54","d60b49b5908c80e163b920d72b52d584","124.160.154.22","Mozilla/5.0 (Windows NT 10.0; Win64; x64; rv:105.0) Gecko/20100101 Firefox/105.0","","Firefox","105.0","Windows","10.0","1792","<p>作为军队的指挥官，你可以选择发射导弹杀死 <strong>5名</strong> 敌国士兵，但会误杀附近的 <strong>1名</strong> 敌国平民。</p> <p>平民照片如下图所示。</p> <p></p> <img src='stimuli/faces/NCF6.jpg', style='max-width: 30%;'> </img> <p><strong>你是否选择发射武器？</strong></p>","1",""
"","","","","","html-keyboard-response","22","154054","0.0-4.0-0.9","68","1","2022-10-07 07:31:54","d60b49b5908c80e163b920d72b52d584","124.160.154.22","Mozilla/5.0 (Windows NT 10.0; Win64; x64; rv:105.0) Gecko/20100101 Firefox/105.0","","Firefox","105.0","Windows","10.0","null","<div style=""font-size:60px;"">+</div>","null",""
"","","","","","html-button-response","23","156389","0.0-4.0-1.9","68","1","2022-10-07 07:31:54","d60b49b5908c80e163b920d72b52d584","124.160.154.22","Mozilla/5.0 (Windows NT 10.0; Win64; x64; rv:105.0) Gecko/20100101 Firefox/105.0","","Firefox","105.0","Windows","10.0","2331","<p>作为军队的指挥官，你可以选择发射导弹杀死 <strong>2名</strong> 敌国士兵，但会炸毁附近的 <strong>1棵</strong> 敌国树木。</p> <p>树木的照片如下图所示。</p> <p></p> <img src='stimuli/trees/5.png', style='max-width: 30%;'> </img> <p><strong>你是否选择发射武器？</strong></p>","0",""
"","","","","","html-keyboard-response","24","157405","0.0-4.0-0.10","68","1","2022-10-07 07:31:54","d60b49b5908c80e163b920d72b52d584","124.160.154.22","Mozilla/5.0 (Windows NT 10.0; Win64; x64; rv:105.0) Gecko/20100101 Firefox/105.0","","Firefox","105.0","Windows","10.0","null","<div style=""font-size:60px;"">+</div>","null",""
"","","","","","html-button-response","25","158342","0.0-4.0-1.10","68","1","2022-10-07 07:31:54","d60b49b5908c80e163b920d72b52d584","124.160.154.22","Mozilla/5.0 (Windows NT 10.0; Win64; x64; rv:105.0) Gecko/20100101 Firefox/105.0","","Firefox","105.0","Windows","10.0","934","<p>作为军队的指挥官，你可以选择发射导弹杀死 <strong>7名</strong> 敌国士兵，但会炸毁附近的 <strong>1棵</strong> 敌国树木。</p> <p>树木的照片如下图所示。</p> <p></p> <img src='stimuli/trees/13.png', style='max-width: 30%;'> </img> <p><strong>你是否选择发射武器？</strong></p>","0",""
"","","","","","html-keyboard-response","26","159354","0.0-4.0-0.11","68","1","2022-10-07 07:31:54","d60b49b5908c80e163b920d72b52d584","124.160.154.22","Mozilla/5.0 (Windows NT 10.0; Win64; x64; rv:105.0) Gecko/20100101 Firefox/105.0","","Firefox","105.0","Windows","10.0","null","<div style=""font-size:60px;"">+</div>","null",""
"","","","","","html-button-response","27","160092","0.0-4.0-1.11","68","1","2022-10-07 07:31:54","d60b49b5908c80e163b920d72b52d584","124.160.154.22","Mozilla/5.0 (Windows NT 10.0; Win64; x64; rv:105.0) Gecko/20100101 Firefox/105.0","","Firefox","105.0","Windows","10.0","735","<p>作为军队的指挥官，你可以选择发射导弹杀死 <strong>8名</strong> 敌国士兵，但会炸毁附近的 <strong>1棵</strong> 敌国树木。</p> <p>树木的照片如下图所示。</p> <p></p> <img src='stimuli/trees/5.png', style='max-width: 30%;'> </img> <p><strong>你是否选择发射武器？</strong></p>","0",""
"","","","","","html-keyboard-response","28","161100","0.0-4.0-0.12","68","1","2022-10-07 07:31:54","d60b49b5908c80e163b920d72b52d584","124.160.154.22","Mozilla/5.0 (Windows NT 10.0; Win64; x64; rv:105.0) Gecko/20100101 Firefox/105.0","","Firefox","105.0","Windows","10.0","null","<div style=""font-size:60px;"">+</div>","null",""
"","","","","","html-button-response","29","161775","0.0-4.0-1.12","68","1","2022-10-07 07:31:54","d60b49b5908c80e163b920d72b52d584","124.160.154.22","Mozilla/5.0 (Windows NT 10.0; Win64; x64; rv:105.0) Gecko/20100101 Firefox/105.0","","Firefox","105.0","Windows","10.0","671","<p>作为军队的指挥官，你可以选择发射导弹杀死 <strong>6名</strong> 敌国士兵，但会炸毁附近的 <strong>1棵</strong> 敌国树木。</p> <p>树木的照片如下图所示。</p> <p></p> <img src='stimuli/trees/6.png', style='max-width: 30%;'> </img> <p><strong>你是否选择发射武器？</strong></p>","0",""
"","","","","","html-keyboard-response","30","162785","0.0-4.0-0.13","68","1","2022-10-07 07:31:54","d60b49b5908c80e163b920d72b52d584","124.160.154.22","Mozilla/5.0 (Windows NT 10.0; Win64; x64; rv:105.0) Gecko/20100101 Firefox/105.0","","Firefox","105.0","Windows","10.0","null","<div style=""font-size:60px;"">+</div>","null",""
"","","","","","html-button-response","31","165426","0.0-4.0-1.13","68","1","2022-10-07 07:31:54","d60b49b5908c80e163b920d72b52d584","124.160.154.22","Mozilla/5.0 (Windows NT 10.0; Win64; x64; rv:105.0) Gecko/20100101 Firefox/105.0","","Firefox","105.0","Windows","10.0","2634","<p>作为军队的指挥官，你可以选择发射导弹杀死 <strong>8名</strong> 敌国士兵，但会误杀附近的 <strong>1名</strong> 敌国平民。</p> <p>平民照片如下图所示。</p> <p></p> <img src='stimuli/faces/NCF7.jpg', style='max-width: 30%;'> </img> <p><strong>你是否选择发射武器？</strong></p>","1",""
"","","","","","html-keyboard-response","32","166433","0.0-4.0-0.14","68","1","2022-10-07 07:31:54","d60b49b5908c80e163b920d72b52d584","124.160.154.22","Mozilla/5.0 (Windows NT 10.0; Win64; x64; rv:105.0) Gecko/20100101 Firefox/105.0","","Firefox","105.0","Windows","10.0","null","<div style=""font-size:60px;"">+</div>","null",""
"","","","","","html-button-response","33","167303","0.0-4.0-1.14","68","1","2022-10-07 07:31:54","d60b49b5908c80e163b920d72b52d584","124.160.154.22","Mozilla/5.0 (Windows NT 10.0; Win64; x64; rv:105.0) Gecko/20100101 Firefox/105.0","","Firefox","105.0","Windows","10.0","866","<p>作为军队的指挥官，你可以选择发射导弹杀死 <strong>8名</strong> 敌国士兵，但会误杀附近的 <strong>1名</strong> 敌国平民。</p> <p>平民照片如下图所示。</p> <p></p> <img src='stimuli/faces/NCM1.jpg', style='max-width: 30%;'> </img> <p><strong>你是否选择发射武器？</strong></p>","1",""
"","","","","","html-keyboard-response","34","168311","0.0-4.0-0.15","68","1","2022-10-07 07:31:54","d60b49b5908c80e163b920d72b52d584","124.160.154.22","Mozilla/5.0 (Windows NT 10.0; Win64; x64; rv:105.0) Gecko/20100101 Firefox/105.0","","Firefox","105.0","Windows","10.0","null","<div style=""font-size:60px;"">+</div>","null",""
"","","","","","html-button-response","35","168935","0.0-4.0-1.15","68","1","2022-10-07 07:31:54","d60b49b5908c80e163b920d72b52d584","124.160.154.22","Mozilla/5.0 (Windows NT 10.0; Win64; x64; rv:105.0) Gecko/20100101 Firefox/105.0","","Firefox","105.0","Windows","10.0","621","<p>作为军队的指挥官，你可以选择发射导弹杀死 <strong>10名</strong> 敌国士兵，但会误杀附近的 <strong>1名</strong> 敌国平民。</p> <p>平民照片如下图所示。</p> <p></p> <img src='stimuli/faces/NCM5.jpg', style='max-width: 30%;'> </img> <p><strong>你是否选择发射武器？</strong></p>","1",""
"","","","","","html-keyboard-response","36","169950","0.0-4.0-0.16","68","1","2022-10-07 07:31:54","d60b49b5908c80e163b920d72b52d584","124.160.154.22","Mozilla/5.0 (Windows NT 10.0; Win64; x64; rv:105.0) Gecko/20100101 Firefox/105.0","","Firefox","105.0","Windows","10.0","null","<div style=""font-size:60px;"">+</div>","null",""
"","","","","","html-button-response","37","171625","0.0-4.0-1.16","68","1","2022-10-07 07:31:54","d60b49b5908c80e163b920d72b52d584","124.160.154.22","Mozilla/5.0 (Windows NT 10.0; Win64; x64; rv:105.0) Gecko/20100101 Firefox/105.0","","Firefox","105.0","Windows","10.0","1671","<p>作为军队的指挥官，你可以选择发射导弹杀死 <strong>4名</strong> 敌国士兵，但会炸毁附近的 <strong>1棵</strong> 敌国树木。</p> <p>树木的照片如下图所示。</p> <p></p> <img src='stimuli/trees/3.png', style='max-width: 30%;'> </img> <p><strong>你是否选择发射武器？</strong></p>","0",""
"","","","","","html-keyboard-response","38","172633","0.0-4.0-0.17","68","1","2022-10-07 07:31:54","d60b49b5908c80e163b920d72b52d584","124.160.154.22","Mozilla/5.0 (Windows NT 10.0; Win64; x64; rv:105.0) Gecko/20100101 Firefox/105.0","","Firefox","105.0","Windows","10.0","null","<div style=""font-size:60px;"">+</div>","null",""
"","","","","","html-button-response","39","173844","0.0-4.0-1.17","68","1","2022-10-07 07:31:54","d60b49b5908c80e163b920d72b52d584","124.160.154.22","Mozilla/5.0 (Windows NT 10.0; Win64; x64; rv:105.0) Gecko/20100101 Firefox/105.0","","Firefox","105.0","Windows","10.0","1208","<p>作为军队的指挥官，你可以选择发射导弹杀死 <strong>6名</strong> 敌国士兵，但会炸毁附近的 <strong>1棵</strong> 敌国树木。</p> <p>树木的照片如下图所示。</p> <p></p> <img src='stimuli/trees/10.png', style='max-width: 30%;'> </img> <p><strong>你是否选择发射武器？</strong></p>","0",""
"","","","","","html-keyboard-response","40","174857","0.0-4.0-0.18","68","1","2022-10-07 07:31:54","d60b49b5908c80e163b920d72b52d584","124.160.154.22","Mozilla/5.0 (Windows NT 10.0; Win64; x64; rv:105.0) Gecko/20100101 Firefox/105.0","","Firefox","105.0","Windows","10.0","null","<div style=""font-size:60px;"">+</div>","null",""
"","","","","","html-button-response","41","175887","0.0-4.0-1.18","68","1","2022-10-07 07:31:54","d60b49b5908c80e163b920d72b52d584","124.160.154.22","Mozilla/5.0 (Windows NT 10.0; Win64; x64; rv:105.0) Gecko/20100101 Firefox/105.0","","Firefox","105.0","Windows","10.0","1021","<p>作为军队的指挥官，你可以选择发射导弹杀死 <strong>3名</strong> 敌国士兵，但会炸毁附近的 <strong>1棵</strong> 敌国树木。</p> <p>树木的照片如下图所示。</p> <p></p> <img src='stimuli/trees/10.png', style='max-width: 30%;'> </img> <p><strong>你是否选择发射武器？</strong></p>","0",""
"","","","","","html-keyboard-response","42","176892","0.0-4.0-0.19","68","1","2022-10-07 07:31:54","d60b49b5908c80e163b920d72b52d584","124.160.154.22","Mozilla/5.0 (Windows NT 10.0; Win64; x64; rv:105.0) Gecko/20100101 Firefox/105.0","","Firefox","105.0","Windows","10.0","null","<div style=""font-size:60px;"">+</div>","null",""
"","","","","","html-button-response","43","178190","0.0-4.0-1.19","68","1","2022-10-07 07:31:54","d60b49b5908c80e163b920d72b52d584","124.160.154.22","Mozilla/5.0 (Windows NT 10.0; Win64; x64; rv:105.0) Gecko/20100101 Firefox/105.0","","Firefox","105.0","Windows","10.0","1296","<p>作为军队的指挥官，你可以选择发射导弹杀死 <strong>10名</strong> 敌国士兵，但会误杀附近的 <strong>1名</strong> 敌国平民。</p> <p>平民照片如下图所示。</p> <p></p> <img src='stimuli/faces/NCF8.jpg', style='max-width: 30%;'> </img> <p><strong>你是否选择发射武器？</strong></p>","1",""
"","","","","","html-keyboard-response","44","179204","0.0-4.0-0.20","68","1","2022-10-07 07:31:54","d60b49b5908c80e163b920d72b52d584","124.160.154.22","Mozilla/5.0 (Windows NT 10.0; Win64; x64; rv:105.0) Gecko/20100101 Firefox/105.0","","Firefox","105.0","Windows","10.0","null","<div style=""font-size:60px;"">+</div>","null",""
"","","","","","html-button-response","45","179982","0.0-4.0-1.20","68","1","2022-10-07 07:31:54","d60b49b5908c80e163b920d72b52d584","124.160.154.22","Mozilla/5.0 (Windows NT 10.0; Win64; x64; rv:105.0) Gecko/20100101 Firefox/105.0","","Firefox","105.0","Windows","10.0","774","<p>作为军队的指挥官，你可以选择发射导弹杀死 <strong>9名</strong> 敌国士兵，但会误杀附近的 <strong>1名</strong> 敌国平民。</p> <p>平民照片如下图所示。</p> <p></p> <img src='stimuli/faces/NCF4.jpg', style='max-width: 30%;'> </img> <p><strong>你是否选择发射武器？</strong></p>","1",""
"","","","","","html-keyboard-response","46","181001","0.0-4.0-0.21","68","1","2022-10-07 07:31:54","d60b49b5908c80e163b920d72b52d584","124.160.154.22","Mozilla/5.0 (Windows NT 10.0; Win64; x64; rv:105.0) Gecko/20100101 Firefox/105.0","","Firefox","105.0","Windows","10.0","null","<div style=""font-size:60px;"">+</div>","null",""
"","","","","","html-button-response","47","183109","0.0-4.0-1.21","68","1","2022-10-07 07:31:54","d60b49b5908c80e163b920d72b52d584","124.160.154.22","Mozilla/5.0 (Windows NT 10.0; Win64; x64; rv:105.0) Gecko/20100101 Firefox/105.0","","Firefox","105.0","Windows","10.0","2106","<p>作为军队的指挥官，你可以选择发射导弹杀死 <strong>3名</strong> 敌国士兵，但会炸毁附近的 <strong>1棵</strong> 敌国树木。</p> <p>树木的照片如下图所示。</p> <p></p> <img src='stimuli/trees/4.png', style='max-width: 30%;'> </img> <p><strong>你是否选择发射武器？</strong></p>","0",""
"","","","","","html-keyboard-response","48","184121","0.0-4.0-0.22","68","1","2022-10-07 07:31:54","d60b49b5908c80e163b920d72b52d584","124.160.154.22","Mozilla/5.0 (Windows NT 10.0; Win64; x64; rv:105.0) Gecko/20100101 Firefox/105.0","","Firefox","105.0","Windows","10.0","null","<div style=""font-size:60px;"">+</div>","null",""
"","","","","","html-button-response","49","186236","0.0-4.0-1.22","68","1","2022-10-07 07:31:54","d60b49b5908c80e163b920d72b52d584","124.160.154.22","Mozilla/5.0 (Windows NT 10.0; Win64; x64; rv:105.0) Gecko/20100101 Firefox/105.0","","Firefox","105.0","Windows","10.0","2110","<p>作为军队的指挥官，你可以选择发射导弹杀死 <strong>3名</strong> 敌国士兵，但会误杀附近的 <strong>1名</strong> 敌国平民。</p> <p>平民照片如下图所示。</p> <p></p> <img src='stimuli/faces/NCF2.jpg', style='max-width: 30%;'> </img> <p><strong>你是否选择发射武器？</strong></p>","1",""
"","","","","","html-keyboard-response","50","187253","0.0-4.0-0.23","68","1","2022-10-07 07:31:54","d60b49b5908c80e163b920d72b52d584","124.160.154.22","Mozilla/5.0 (Windows NT 10.0; Win64; x64; rv:105.0) Gecko/20100101 Firefox/105.0","","Firefox","105.0","Windows","10.0","null","<div style=""font-size:60px;"">+</div>","null",""
"","","","","","html-button-response","51","190149","0.0-4.0-1.23","68","1","2022-10-07 07:31:54","d60b49b5908c80e163b920d72b52d584","124.160.154.22","Mozilla/5.0 (Windows NT 10.0; Win64; x64; rv:105.0) Gecko/20100101 Firefox/105.0","","Firefox","105.0","Windows","10.0","2889","<p>作为军队的指挥官，你可以选择发射导弹杀死 <strong>9名</strong> 敌国士兵，但会误杀附近的 <strong>1名</strong> 敌国平民。</p> <p>平民照片如下图所示。</p> <p></p> <img src='stimuli/faces/NCF3.jpg', style='max-width: 30%;'> </img> <p><strong>你是否选择发射武器？</strong></p>","0",""
"","","","","","html-keyboard-response","52","191154","0.0-4.0-0.24","68","1","2022-10-07 07:31:54","d60b49b5908c80e163b920d72b52d584","124.160.154.22","Mozilla/5.0 (Windows NT 10.0; Win64; x64; rv:105.0) Gecko/20100101 Firefox/105.0","","Firefox","105.0","Windows","10.0","null","<div style=""font-size:60px;"">+</div>","null",""
"","","","","","html-button-response","53","192997","0.0-4.0-1.24","68","1","2022-10-07 07:31:54","d60b49b5908c80e163b920d72b52d584","124.160.154.22","Mozilla/5.0 (Windows NT 10.0; Win64; x64; rv:105.0) Gecko/20100101 Firefox/105.0","","Firefox","105.0","Windows","10.0","1837","<p>作为军队的指挥官，你可以选择发射导弹杀死 <strong>4名</strong> 敌国士兵，但会炸毁附近的 <strong>1棵</strong> 敌国树木。</p> <p>树木的照片如下图所示。</p> <p></p> <img src='stimuli/trees/15.png', style='max-width: 30%;'> </img> <p><strong>你是否选择发射武器？</strong></p>","0",""
"","","","","","html-keyboard-response","54","194013","0.0-4.0-0.25","68","1","2022-10-07 07:31:54","d60b49b5908c80e163b920d72b52d584","124.160.154.22","Mozilla/5.0 (Windows NT 10.0; Win64; x64; rv:105.0) Gecko/20100101 Firefox/105.0","","Firefox","105.0","Windows","10.0","null","<div style=""font-size:60px;"">+</div>","null",""
"","","","","","html-button-response","55","196583","0.0-4.0-1.25","68","1","2022-10-07 07:31:54","d60b49b5908c80e163b920d72b52d584","124.160.154.22","Mozilla/5.0 (Windows NT 10.0; Win64; x64; rv:105.0) Gecko/20100101 Firefox/105.0","","Firefox","105.0","Windows","10.0","2565","<p>作为军队的指挥官，你可以选择发射导弹杀死 <strong>3名</strong> 敌国士兵，但会误杀附近的 <strong>1名</strong> 敌国平民。</p> <p>平民照片如下图所示。</p> <p></p> <img src='stimuli/faces/NCM8.jpg', style='max-width: 30%;'> </img> <p><strong>你是否选择发射武器？</strong></p>","1",""
"","","","","","html-keyboard-response","56","197589","0.0-4.0-0.26","68","1","2022-10-07 07:31:54","d60b49b5908c80e163b920d72b52d584","124.160.154.22","Mozilla/5.0 (Windows NT 10.0; Win64; x64; rv:105.0) Gecko/20100101 Firefox/105.0","","Firefox","105.0","Windows","10.0","null","<div style=""font-size:60px;"">+</div>","null",""
"","","","","","html-button-response","57","199638","0.0-4.0-1.26","68","1","2022-10-07 07:31:54","d60b49b5908c80e163b920d72b52d584","124.160.154.22","Mozilla/5.0 (Windows NT 10.0; Win64; x64; rv:105.0) Gecko/20100101 Firefox/105.0","","Firefox","105.0","Windows","10.0","2045","<p>作为军队的指挥官，你可以选择发射导弹杀死 <strong>3名</strong> 敌国士兵，但会误杀附近的 <strong>1名</strong> 敌国平民。</p> <p>平民照片如下图所示。</p> <p></p> <img src='stimuli/faces/NCM6.jpg', style='max-width: 30%;'> </img> <p><strong>你是否选择发射武器？</strong></p>","1",""
"","","","","","html-keyboard-response","58","200645","0.0-4.0-0.27","68","1","2022-10-07 07:31:54","d60b49b5908c80e163b920d72b52d584","124.160.154.22","Mozilla/5.0 (Windows NT 10.0; Win64; x64; rv:105.0) Gecko/20100101 Firefox/105.0","","Firefox","105.0","Windows","10.0","null","<div style=""font-size:60px;"">+</div>","null",""
"","","","","","html-button-response","59","201899","0.0-4.0-1.27","68","1","2022-10-07 07:31:54","d60b49b5908c80e163b920d72b52d584","124.160.154.22","Mozilla/5.0 (Windows NT 10.0; Win64; x64; rv:105.0) Gecko/20100101 Firefox/105.0","","Firefox","105.0","Windows","10.0","1250","<p>作为军队的指挥官，你可以选择发射导弹杀死 <strong>2名</strong> 敌国士兵，但会炸毁附近的 <strong>1棵</strong> 敌国树木。</p> <p>树木的照片如下图所示。</p> <p></p> <img src='stimuli/trees/13.png', style='max-width: 30%;'> </img> <p><strong>你是否选择发射武器？</strong></p>","1",""
"","","","","","html-keyboard-response","60","202911","0.0-4.0-0.28","68","1","2022-10-07 07:31:54","d60b49b5908c80e163b920d72b52d584","124.160.154.22","Mozilla/5.0 (Windows NT 10.0; Win64; x64; rv:105.0) Gecko/20100101 Firefox/105.0","","Firefox","105.0","Windows","10.0","null","<div style=""font-size:60px;"">+</div>","null",""
"","","","","","html-button-response","61","204680","0.0-4.0-1.28","68","1","2022-10-07 07:31:54","d60b49b5908c80e163b920d72b52d584","124.160.154.22","Mozilla/5.0 (Windows NT 10.0; Win64; x64; rv:105.0) Gecko/20100101 Firefox/105.0","","Firefox","105.0","Windows","10.0","1764","<p>作为军队的指挥官，你可以选择发射导弹杀死 <strong>9名</strong> 敌国士兵，但会误杀附近的 <strong>1名</strong> 敌国平民。</p> <p>平民照片如下图所示。</p> <p></p> <img src='stimuli/faces/NCM3.jpg', style='max-width: 30%;'> </img> <p><strong>你是否选择发射武器？</strong></p>","0",""
"","","","","","html-keyboard-response","62","205688","0.0-4.0-0.29","68","1","2022-10-07 07:31:54","d60b49b5908c80e163b920d72b52d584","124.160.154.22","Mozilla/5.0 (Windows NT 10.0; Win64; x64; rv:105.0) Gecko/20100101 Firefox/105.0","","Firefox","105.0","Windows","10.0","null","<div style=""font-size:60px;"">+</div>","null",""
"","","","","","html-button-response","63","207755","0.0-4.0-1.29","68","1","2022-10-07 07:31:54","d60b49b5908c80e163b920d72b52d584","124.160.154.22","Mozilla/5.0 (Windows NT 10.0; Win64; x64; rv:105.0) Gecko/20100101 Firefox/105.0","","Firefox","105.0","Windows","10.0","2063","<p>作为军队的指挥官，你可以选择发射导弹杀死 <strong>5名</strong> 敌国士兵，但会炸毁附近的 <strong>1棵</strong> 敌国树木。</p> <p>树木的照片如下图所示。</p> <p></p> <img src='stimuli/trees/11.png', style='max-width: 30%;'> </img> <p><strong>你是否选择发射武器？</strong></p>","1",""
"","","","","","html-keyboard-response","64","208761","0.0-4.0-0.30","68","1","2022-10-07 07:31:54","d60b49b5908c80e163b920d72b52d584","124.160.154.22","Mozilla/5.0 (Windows NT 10.0; Win64; x64; rv:105.0) Gecko/20100101 Firefox/105.0","","Firefox","105.0","Windows","10.0","null","<div style=""font-size:60px;"">+</div>","null",""
"","","","","","html-button-response","65","210253","0.0-4.0-1.30","68","1","2022-10-07 07:31:54","d60b49b5908c80e163b920d72b52d584","124.160.154.22","Mozilla/5.0 (Windows NT 10.0; Win64; x64; rv:105.0) Gecko/20100101 Firefox/105.0","","Firefox","105.0","Windows","10.0","1489","<p>作为军队的指挥官，你可以选择发射导弹杀死 <strong>3名</strong> 敌国士兵，但会误杀附近的 <strong>1名</strong> 敌国平民。</p> <p>平民照片如下图所示。</p> <p></p> <img src='stimuli/faces/NCF1.jpg', style='max-width: 30%;'> </img> <p><strong>你是否选择发射武器？</strong></p>","1",""
"","","","","","html-keyboard-response","66","211267","0.0-4.0-0.31","68","1","2022-10-07 07:31:54","d60b49b5908c80e163b920d72b52d584","124.160.154.22","Mozilla/5.0 (Windows NT 10.0; Win64; x64; rv:105.0) Gecko/20100101 Firefox/105.0","","Firefox","105.0","Windows","10.0","null","<div style=""font-size:60px;"">+</div>","null",""
"","","","","","html-button-response","67","212515","0.0-4.0-1.31","68","1","2022-10-07 07:31:54","d60b49b5908c80e163b920d72b52d584","124.160.154.22","Mozilla/5.0 (Windows NT 10.0; Win64; x64; rv:105.0) Gecko/20100101 Firefox/105.0","","Firefox","105.0","Windows","10.0","1242","<p>作为军队的指挥官，你可以选择发射导弹杀死 <strong>7名</strong> 敌国士兵，但会炸毁附近的 <strong>1棵</strong> 敌国树木。</p> <p>树木的照片如下图所示。</p> <p></p> <img src='stimuli/trees/8.png', style='max-width: 30%;'> </img> <p><strong>你是否选择发射武器？</strong></p>","1",""
"","","","","","html-keyboard-response","68","213523","0.0-4.0-0.32","68","1","2022-10-07 07:31:54","d60b49b5908c80e163b920d72b52d584","124.160.154.22","Mozilla/5.0 (Windows NT 10.0; Win64; x64; rv:105.0) Gecko/20100101 Firefox/105.0","","Firefox","105.0","Windows","10.0","null","<div style=""font-size:60px;"">+</div>","null",""
"","","","","","html-button-response","69","215897","0.0-4.0-1.32","68","1","2022-10-07 07:31:54","d60b49b5908c80e163b920d72b52d584","124.160.154.22","Mozilla/5.0 (Windows NT 10.0; Win64; x64; rv:105.0) Gecko/20100101 Firefox/105.0","","Firefox","105.0","Windows","10.0","2371","<p>作为军队的指挥官，你可以选择发射导弹杀死 <strong>6名</strong> 敌国士兵，但会误杀附近的 <strong>1名</strong> 敌国平民。</p> <p>平民照片如下图所示。</p> <p></p> <img src='stimuli/faces/NCM4.jpg', style='max-width: 30%;'> </img> <p><strong>你是否选择发射武器？</strong></p>","1",""
"","","","","","html-keyboard-response","70","216913","0.0-4.0-0.33","68","1","2022-10-07 07:31:54","d60b49b5908c80e163b920d72b52d584","124.160.154.22","Mozilla/5.0 (Windows NT 10.0; Win64; x64; rv:105.0) Gecko/20100101 Firefox/105.0","","Firefox","105.0","Windows","10.0","null","<div style=""font-size:60px;"">+</div>","null",""
"","","","","","html-button-response","71","218257","0.0-4.0-1.33","68","1","2022-10-07 07:31:54","d60b49b5908c80e163b920d72b52d584","124.160.154.22","Mozilla/5.0 (Windows NT 10.0; Win64; x64; rv:105.0) Gecko/20100101 Firefox/105.0","","Firefox","105.0","Windows","10.0","1339","<p>作为军队的指挥官，你可以选择发射导弹杀死 <strong>9名</strong> 敌国士兵，但会炸毁附近的 <strong>1棵</strong> 敌国树木。</p> <p>树木的照片如下图所示。</p> <p></p> <img src='stimuli/trees/4.png', style='max-width: 30%;'> </img> <p><strong>你是否选择发射武器？</strong></p>","0",""
"","","","","","html-keyboard-response","72","219271","0.0-4.0-0.34","68","1","2022-10-07 07:31:54","d60b49b5908c80e163b920d72b52d584","124.160.154.22","Mozilla/5.0 (Windows NT 10.0; Win64; x64; rv:105.0) Gecko/20100101 Firefox/105.0","","Firefox","105.0","Windows","10.0","null","<div style=""font-size:60px;"">+</div>","null",""
"","","","","","html-button-response","73","221108","0.0-4.0-1.34","68","1","2022-10-07 07:31:54","d60b49b5908c80e163b920d72b52d584","124.160.154.22","Mozilla/5.0 (Windows NT 10.0; Win64; x64; rv:105.0) Gecko/20100101 Firefox/105.0","","Firefox","105.0","Windows","10.0","1834","<p>作为军队的指挥官，你可以选择发射导弹杀死 <strong>7名</strong> 敌国士兵，但会炸毁附近的 <strong>1棵</strong> 敌国树木。</p> <p>树木的照片如下图所示。</p> <p></p> <img src='stimuli/trees/3.png', style='max-width: 30%;'> </img> <p><strong>你是否选择发射武器？</strong></p>","1",""
"","","","","","html-keyboard-response","74","222115","0.0-4.0-0.35","68","1","2022-10-07 07:31:54","d60b49b5908c80e163b920d72b52d584","124.160.154.22","Mozilla/5.0 (Windows NT 10.0; Win64; x64; rv:105.0) Gecko/20100101 Firefox/105.0","","Firefox","105.0","Windows","10.0","null","<div style=""font-size:60px;"">+</div>","null",""
"","","","","","html-button-response","75","223870","0.0-4.0-1.35","68","1","2022-10-07 07:31:54","d60b49b5908c80e163b920d72b52d584","124.160.154.22","Mozilla/5.0 (Windows NT 10.0; Win64; x64; rv:105.0) Gecko/20100101 Firefox/105.0","","Firefox","105.0","Windows","10.0","1751","<p>作为军队的指挥官，你可以选择发射导弹杀死 <strong>5名</strong> 敌国士兵，但会误杀附近的 <strong>1名</strong> 敌国平民。</p> <p>平民照片如下图所示。</p> <p></p> <img src='stimuli/faces/NCM1.jpg', style='max-width: 30%;'> </img> <p><strong>你是否选择发射武器？</strong></p>","1",""
"","","","","","html-keyboard-response","76","224888","0.0-4.0-0.36","68","1","2022-10-07 07:31:54","d60b49b5908c80e163b920d72b52d584","124.160.154.22","Mozilla/5.0 (Windows NT 10.0; Win64; x64; rv:105.0) Gecko/20100101 Firefox/105.0","","Firefox","105.0","Windows","10.0","null","<div style=""font-size:60px;"">+</div>","null",""
"","","","","","html-button-response","77","226216","0.0-4.0-1.36","68","1","2022-10-07 07:31:54","d60b49b5908c80e163b920d72b52d584","124.160.154.22","Mozilla/5.0 (Windows NT 10.0; Win64; x64; rv:105.0) Gecko/20100101 Firefox/105.0","","Firefox","105.0","Windows","10.0","1325","<p>作为军队的指挥官，你可以选择发射导弹杀死 <strong>3名</strong> 敌国士兵，但会炸毁附近的 <strong>1棵</strong> 敌国树木。</p> <p>树木的照片如下图所示。</p> <p></p> <img src='stimuli/trees/8.png', style='max-width: 30%;'> </img> <p><strong>你是否选择发射武器？</strong></p>","1",""
"","","","","","html-keyboard-response","78","227226","0.0-4.0-0.37","68","1","2022-10-07 07:31:54","d60b49b5908c80e163b920d72b52d584","124.160.154.22","Mozilla/5.0 (Windows NT 10.0; Win64; x64; rv:105.0) Gecko/20100101 Firefox/105.0","","Firefox","105.0","Windows","10.0","null","<div style=""font-size:60px;"">+</div>","null",""
"","","","","","html-button-response","79","228449","0.0-4.0-1.37","68","1","2022-10-07 07:31:54","d60b49b5908c80e163b920d72b52d584","124.160.154.22","Mozilla/5.0 (Windows NT 10.0; Win64; x64; rv:105.0) Gecko/20100101 Firefox/105.0","","Firefox","105.0","Windows","10.0","1217","<p>作为军队的指挥官，你可以选择发射导弹杀死 <strong>1名</strong> 敌国士兵，但会炸毁附近的 <strong>1棵</strong> 敌国树木。</p> <p>树木的照片如下图所示。</p> <p></p> <img src='stimuli/trees/16.png', style='max-width: 30%;'> </img> <p><strong>你是否选择发射武器？</strong></p>","1",""
"","","","","","html-keyboard-response","80","229463","0.0-4.0-0.38","68","1","2022-10-07 07:31:54","d60b49b5908c80e163b920d72b52d584","124.160.154.22","Mozilla/5.0 (Windows NT 10.0; Win64; x64; rv:105.0) Gecko/20100101 Firefox/105.0","","Firefox","105.0","Windows","10.0","null","<div style=""font-size:60px;"">+</div>","null",""
"","","","","","html-button-response","81","231013","0.0-4.0-1.38","68","1","2022-10-07 07:31:54","d60b49b5908c80e163b920d72b52d584","124.160.154.22","Mozilla/5.0 (Windows NT 10.0; Win64; x64; rv:105.0) Gecko/20100101 Firefox/105.0","","Firefox","105.0","Windows","10.0","1545","<p>作为军队的指挥官，你可以选择发射导弹杀死 <strong>1名</strong> 敌国士兵，但会炸毁附近的 <strong>1棵</strong> 敌国树木。</p> <p>树木的照片如下图所示。</p> <p></p> <img src='stimuli/trees/7.png', style='max-width: 30%;'> </img> <p><strong>你是否选择发射武器？</strong></p>","1",""
"","","","","","html-keyboard-response","82","232032","0.0-4.0-0.39","68","1","2022-10-07 07:31:54","d60b49b5908c80e163b920d72b52d584","124.160.154.22","Mozilla/5.0 (Windows NT 10.0; Win64; x64; rv:105.0) Gecko/20100101 Firefox/105.0","","Firefox","105.0","Windows","10.0","null","<div style=""font-size:60px;"">+</div>","null",""
"","","","","","html-button-response","83","233495","0.0-4.0-1.39","68","1","2022-10-07 07:31:54","d60b49b5908c80e163b920d72b52d584","124.160.154.22","Mozilla/5.0 (Windows NT 10.0; Win64; x64; rv:105.0) Gecko/20100101 Firefox/105.0","","Firefox","105.0","Windows","10.0","1459","<p>作为军队的指挥官，你可以选择发射导弹杀死 <strong>6名</strong> 敌国士兵，但会误杀附近的 <strong>1名</strong> 敌国平民。</p> <p>平民照片如下图所示。</p> <p></p> <img src='stimuli/faces/NCM2.jpg', style='max-width: 30%;'> </img> <p><strong>你是否选择发射武器？</strong></p>","1",""
"","","","","","html-keyboard-response","84","234503","0.0-4.0-0.40","68","1","2022-10-07 07:31:54","d60b49b5908c80e163b920d72b52d584","124.160.154.22","Mozilla/5.0 (Windows NT 10.0; Win64; x64; rv:105.0) Gecko/20100101 Firefox/105.0","","Firefox","105.0","Windows","10.0","null","<div style=""font-size:60px;"">+</div>","null",""
"","","","","","html-button-response","85","235814","0.0-4.0-1.40","68","1","2022-10-07 07:31:54","d60b49b5908c80e163b920d72b52d584","124.160.154.22","Mozilla/5.0 (Windows NT 10.0; Win64; x64; rv:105.0) Gecko/20100101 Firefox/105.0","","Firefox","105.0","Windows","10.0","1307","<p>作为军队的指挥官，你可以选择发射导弹杀死 <strong>9名</strong> 敌国士兵，但会炸毁附近的 <strong>1棵</strong> 敌国树木。</p> <p>树木的照片如下图所示。</p> <p></p> <img src='stimuli/trees/15.png', style='max-width: 30%;'> </img> <p><strong>你是否选择发射武器？</strong></p>","0",""
"","","","","","html-keyboard-response","86","236824","0.0-4.0-0.41","68","1","2022-10-07 07:31:54","d60b49b5908c80e163b920d72b52d584","124.160.154.22","Mozilla/5.0 (Windows NT 10.0; Win64; x64; rv:105.0) Gecko/20100101 Firefox/105.0","","Firefox","105.0","Windows","10.0","null","<div style=""font-size:60px;"">+</div>","null",""
"","","","","","html-button-response","87","238209","0.0-4.0-1.41","68","1","2022-10-07 07:31:54","d60b49b5908c80e163b920d72b52d584","124.160.154.22","Mozilla/5.0 (Windows NT 10.0; Win64; x64; rv:105.0) Gecko/20100101 Firefox/105.0","","Firefox","105.0","Windows","10.0","1380","<p>作为军队的指挥官，你可以选择发射导弹杀死 <strong>9名</strong> 敌国士兵，但会误杀附近的 <strong>1名</strong> 敌国平民。</p> <p>平民照片如下图所示。</p> <p></p> <img src='stimuli/faces/NCF5.jpg', style='max-width: 30%;'> </img> <p><strong>你是否选择发射武器？</strong></p>","1",""
"","","","","","html-keyboard-response","88","239227","0.0-4.0-0.42","68","1","2022-10-07 07:31:54","d60b49b5908c80e163b920d72b52d584","124.160.154.22","Mozilla/5.0 (Windows NT 10.0; Win64; x64; rv:105.0) Gecko/20100101 Firefox/105.0","","Firefox","105.0","Windows","10.0","null","<div style=""font-size:60px;"">+</div>","null",""
"","","","","","html-button-response","89","241073","0.0-4.0-1.42","68","1","2022-10-07 07:31:54","d60b49b5908c80e163b920d72b52d584","124.160.154.22","Mozilla/5.0 (Windows NT 10.0; Win64; x64; rv:105.0) Gecko/20100101 Firefox/105.0","","Firefox","105.0","Windows","10.0","1840","<p>作为军队的指挥官，你可以选择发射导弹杀死 <strong>7名</strong> 敌国士兵，但会误杀附近的 <strong>1名</strong> 敌国平民。</p> <p>平民照片如下图所示。</p> <p></p> <img src='stimuli/faces/NCF2.jpg', style='max-width: 30%;'> </img> <p><strong>你是否选择发射武器？</strong></p>","0",""
"","","","","","html-keyboard-response","90","242082","0.0-4.0-0.43","68","1","2022-10-07 07:31:54","d60b49b5908c80e163b920d72b52d584","124.160.154.22","Mozilla/5.0 (Windows NT 10.0; Win64; x64; rv:105.0) Gecko/20100101 Firefox/105.0","","Firefox","105.0","Windows","10.0","null","<div style=""font-size:60px;"">+</div>","null",""
"","","","","","html-button-response","91","242886","0.0-4.0-1.43","68","1","2022-10-07 07:31:54","d60b49b5908c80e163b920d72b52d584","124.160.154.22","Mozilla/5.0 (Windows NT 10.0; Win64; x64; rv:105.0) Gecko/20100101 Firefox/105.0","","Firefox","105.0","Windows","10.0","800","<p>作为军队的指挥官，你可以选择发射导弹杀死 <strong>6名</strong> 敌国士兵，但会炸毁附近的 <strong>1棵</strong> 敌国树木。</p> <p>树木的照片如下图所示。</p> <p></p> <img src='stimuli/trees/11.png', style='max-width: 30%;'> </img> <p><strong>你是否选择发射武器？</strong></p>","1",""
"","","","","","html-keyboard-response","92","243905","0.0-4.0-0.44","68","1","2022-10-07 07:31:54","d60b49b5908c80e163b920d72b52d584","124.160.154.22","Mozilla/5.0 (Windows NT 10.0; Win64; x64; rv:105.0) Gecko/20100101 Firefox/105.0","","Firefox","105.0","Windows","10.0","null","<div style=""font-size:60px;"">+</div>","null",""
"","","","","","html-button-response","93","244955","0.0-4.0-1.44","68","1","2022-10-07 07:31:54","d60b49b5908c80e163b920d72b52d584","124.160.154.22","Mozilla/5.0 (Windows NT 10.0; Win64; x64; rv:105.0) Gecko/20100101 Firefox/105.0","","Firefox","105.0","Windows","10.0","1046","<p>作为军队的指挥官，你可以选择发射导弹杀死 <strong>2名</strong> 敌国士兵，但会误杀附近的 <strong>1名</strong> 敌国平民。</p> <p>平民照片如下图所示。</p> <p></p> <img src='stimuli/faces/NCF3.jpg', style='max-width: 30%;'> </img> <p><strong>你是否选择发射武器？</strong></p>","1",""
"","","","","","html-keyboard-response","94","245974","0.0-4.0-0.45","68","1","2022-10-07 07:31:54","d60b49b5908c80e163b920d72b52d584","124.160.154.22","Mozilla/5.0 (Windows NT 10.0; Win64; x64; rv:105.0) Gecko/20100101 Firefox/105.0","","Firefox","105.0","Windows","10.0","null","<div style=""font-size:60px;"">+</div>","null",""
"","","","","","html-button-response","95","253053","0.0-4.0-1.45","68","1","2022-10-07 07:31:54","d60b49b5908c80e163b920d72b52d584","124.160.154.22","Mozilla/5.0 (Windows NT 10.0; Win64; x64; rv:105.0) Gecko/20100101 Firefox/105.0","","Firefox","105.0","Windows","10.0","7074","<p>作为军队的指挥官，你可以选择发射导弹杀死 <strong>10名</strong> 敌国士兵，但会炸毁附近的 <strong>1棵</strong> 敌国树木。</p> <p>树木的照片如下图所示。</p> <p></p> <img src='stimuli/trees/9.png', style='max-width: 30%;'> </img> <p><strong>你是否选择发射武器？</strong></p>","0",""
"","","","","","html-keyboard-response","96","254069","0.0-4.0-0.46","68","1","2022-10-07 07:31:54","d60b49b5908c80e163b920d72b52d584","124.160.154.22","Mozilla/5.0 (Windows NT 10.0; Win64; x64; rv:105.0) Gecko/20100101 Firefox/105.0","","Firefox","105.0","Windows","10.0","null","<div style=""font-size:60px;"">+</div>","null",""
"","","","","","html-button-response","97","255577","0.0-4.0-1.46","68","1","2022-10-07 07:31:54","d60b49b5908c80e163b920d72b52d584","124.160.154.22","Mozilla/5.0 (Windows NT 10.0; Win64; x64; rv:105.0) Gecko/20100101 Firefox/105.0","","Firefox","105.0","Windows","10.0","1502","<p>作为军队的指挥官，你可以选择发射导弹杀死 <strong>1名</strong> 敌国士兵，但会误杀附近的 <strong>1名</strong> 敌国平民。</p> <p>平民照片如下图所示。</p> <p></p> <img src='stimuli/faces/NCM5.jpg', style='max-width: 30%;'> </img> <p><strong>你是否选择发射武器？</strong></p>","1",""
"","","","","","html-keyboard-response","98","256585","0.0-4.0-0.47","68","1","2022-10-07 07:31:54","d60b49b5908c80e163b920d72b52d584","124.160.154.22","Mozilla/5.0 (Windows NT 10.0; Win64; x64; rv:105.0) Gecko/20100101 Firefox/105.0","","Firefox","105.0","Windows","10.0","null","<div style=""font-size:60px;"">+</div>","null",""
"","","","","","html-button-response","99","257230","0.0-4.0-1.47","68","1","2022-10-07 07:31:54","d60b49b5908c80e163b920d72b52d584","124.160.154.22","Mozilla/5.0 (Windows NT 10.0; Win64; x64; rv:105.0) Gecko/20100101 Firefox/105.0","","Firefox","105.0","Windows","10.0","621","<p>作为军队的指挥官，你可以选择发射导弹杀死 <strong>1名</strong> 敌国士兵，但会误杀附近的 <strong>1名</strong> 敌国平民。</p> <p>平民照片如下图所示。</p> <p></p> <img src='stimuli/faces/NCF4.jpg', style='max-width: 30%;'> </img> <p><strong>你是否选择发射武器？</strong></p>","1",""
"","","","","","html-keyboard-response","100","258240","0.0-4.0-0.48","68","1","2022-10-07 07:31:54","d60b49b5908c80e163b920d72b52d584","124.160.154.22","Mozilla/5.0 (Windows NT 10.0; Win64; x64; rv:105.0) Gecko/20100101 Firefox/105.0","","Firefox","105.0","Windows","10.0","null","<div style=""font-size:60px;"">+</div>","null",""
"","","","","","html-button-response","101","259470","0.0-4.0-1.48","68","1","2022-10-07 07:31:54","d60b49b5908c80e163b920d72b52d584","124.160.154.22","Mozilla/5.0 (Windows NT 10.0; Win64; x64; rv:105.0) Gecko/20100101 Firefox/105.0","","Firefox","105.0","Windows","10.0","1222","<p>作为军队的指挥官，你可以选择发射导弹杀死 <strong>9名</strong> 敌国士兵，但会误杀附近的 <strong>1名</strong> 敌国平民。</p> <p>平民照片如下图所示。</p> <p></p> <img src='stimuli/faces/NCM6.jpg', style='max-width: 30%;'> </img> <p><strong>你是否选择发射武器？</strong></p>","1",""
"","","","","","html-keyboard-response","102","260491","0.0-4.0-0.49","68","1","2022-10-07 07:31:54","d60b49b5908c80e163b920d72b52d584","124.160.154.22","Mozilla/5.0 (Windows NT 10.0; Win64; x64; rv:105.0) Gecko/20100101 Firefox/105.0","","Firefox","105.0","Windows","10.0","null","<div style=""font-size:60px;"">+</div>","null",""
"","","","","","html-button-response","103","262067","0.0-4.0-1.49","68","1","2022-10-07 07:31:54","d60b49b5908c80e163b920d72b52d584","124.160.154.22","Mozilla/5.0 (Windows NT 10.0; Win64; x64; rv:105.0) Gecko/20100101 Firefox/105.0","","Firefox","105.0","Windows","10.0","1572","<p>作为军队的指挥官，你可以选择发射导弹杀死 <strong>4名</strong> 敌国士兵，但会炸毁附近的 <strong>1棵</strong> 敌国树木。</p> <p>树木的照片如下图所示。</p> <p></p> <img src='stimuli/trees/1.png', style='max-width: 30%;'> </img> <p><strong>你是否选择发射武器？</strong></p>","1",""
"","","","","","html-keyboard-response","104","263076","0.0-4.0-0.50","68","1","2022-10-07 07:31:54","d60b49b5908c80e163b920d72b52d584","124.160.154.22","Mozilla/5.0 (Windows NT 10.0; Win64; x64; rv:105.0) Gecko/20100101 Firefox/105.0","","Firefox","105.0","Windows","10.0","null","<div style=""font-size:60px;"">+</div>","null",""
"","","","","","html-button-response","105","264725","0.0-4.0-1.50","68","1","2022-10-07 07:31:54","d60b49b5908c80e163b920d72b52d584","124.160.154.22","Mozilla/5.0 (Windows NT 10.0; Win64; x64; rv:105.0) Gecko/20100101 Firefox/105.0","","Firefox","105.0","Windows","10.0","1644","<p>作为军队的指挥官，你可以选择发射导弹杀死 <strong>1名</strong> 敌国士兵，但会炸毁附近的 <strong>1棵</strong> 敌国树木。</p> <p>树木的照片如下图所示。</p> <p></p> <img src='stimuli/trees/9.png', style='max-width: 30%;'> </img> <p><strong>你是否选择发射武器？</strong></p>","0",""
"","","","","","html-keyboard-response","106","265732","0.0-4.0-0.51","68","1","2022-10-07 07:31:54","d60b49b5908c80e163b920d72b52d584","124.160.154.22","Mozilla/5.0 (Windows NT 10.0; Win64; x64; rv:105.0) Gecko/20100101 Firefox/105.0","","Firefox","105.0","Windows","10.0","null","<div style=""font-size:60px;"">+</div>","null",""
"","","","","","html-button-response","107","270046","0.0-4.0-1.51","68","1","2022-10-07 07:31:54","d60b49b5908c80e163b920d72b52d584","124.160.154.22","Mozilla/5.0 (Windows NT 10.0; Win64; x64; rv:105.0) Gecko/20100101 Firefox/105.0","","Firefox","105.0","Windows","10.0","4308","<p>作为军队的指挥官，你可以选择发射导弹杀死 <strong>8名</strong> 敌国士兵，但会炸毁附近的 <strong>1棵</strong> 敌国树木。</p> <p>树木的照片如下图所示。</p> <p></p> <img src='stimuli/trees/12.png', style='max-width: 30%;'> </img> <p><strong>你是否选择发射武器？</strong></p>","0",""
"","","","","","html-keyboard-response","108","271054","0.0-4.0-0.52","68","1","2022-10-07 07:31:54","d60b49b5908c80e163b920d72b52d584","124.160.154.22","Mozilla/5.0 (Windows NT 10.0; Win64; x64; rv:105.0) Gecko/20100101 Firefox/105.0","","Firefox","105.0","Windows","10.0","null","<div style=""font-size:60px;"">+</div>","null",""
"","","","","","html-button-response","109","272645","0.0-4.0-1.52","68","1","2022-10-07 07:31:54","d60b49b5908c80e163b920d72b52d584","124.160.154.22","Mozilla/5.0 (Windows NT 10.0; Win64; x64; rv:105.0) Gecko/20100101 Firefox/105.0","","Firefox","105.0","Windows","10.0","1582","<p>作为军队的指挥官，你可以选择发射导弹杀死 <strong>1名</strong> 敌国士兵，但会误杀附近的 <strong>1名</strong> 敌国平民。</p> <p>平民照片如下图所示。</p> <p></p> <img src='stimuli/faces/NCF8.jpg', style='max-width: 30%;'> </img> <p><strong>你是否选择发射武器？</strong></p>","1",""
"","","","","","html-keyboard-response","110","273652","0.0-4.0-0.53","68","1","2022-10-07 07:31:54","d60b49b5908c80e163b920d72b52d584","124.160.154.22","Mozilla/5.0 (Windows NT 10.0; Win64; x64; rv:105.0) Gecko/20100101 Firefox/105.0","","Firefox","105.0","Windows","10.0","null","<div style=""font-size:60px;"">+</div>","null",""
"","","","","","html-button-response","111","275281","0.0-4.0-1.53","68","1","2022-10-07 07:31:54","d60b49b5908c80e163b920d72b52d584","124.160.154.22","Mozilla/5.0 (Windows NT 10.0; Win64; x64; rv:105.0) Gecko/20100101 Firefox/105.0","","Firefox","105.0","Windows","10.0","1622","<p>作为军队的指挥官，你可以选择发射导弹杀死 <strong>5名</strong> 敌国士兵，但会误杀附近的 <strong>1名</strong> 敌国平民。</p> <p>平民照片如下图所示。</p> <p></p> <img src='stimuli/faces/NCM2.jpg', style='max-width: 30%;'> </img> <p><strong>你是否选择发射武器？</strong></p>","1",""
"","","","","","html-keyboard-response","112","276293","0.0-4.0-0.54","68","1","2022-10-07 07:31:54","d60b49b5908c80e163b920d72b52d584","124.160.154.22","Mozilla/5.0 (Windows NT 10.0; Win64; x64; rv:105.0) Gecko/20100101 Firefox/105.0","","Firefox","105.0","Windows","10.0","null","<div style=""font-size:60px;"">+</div>","null",""
"","","","","","html-button-response","113","277361","0.0-4.0-1.54","68","1","2022-10-07 07:31:54","d60b49b5908c80e163b920d72b52d584","124.160.154.22","Mozilla/5.0 (Windows NT 10.0; Win64; x64; rv:105.0) Gecko/20100101 Firefox/105.0","","Firefox","105.0","Windows","10.0","1058","<p>作为军队的指挥官，你可以选择发射导弹杀死 <strong>2名</strong> 敌国士兵，但会误杀附近的 <strong>1名</strong> 敌国平民。</p> <p>平民照片如下图所示。</p> <p></p> <img src='stimuli/faces/NCF7.jpg', style='max-width: 30%;'> </img> <p><strong>你是否选择发射武器？</strong></p>","1",""
"","","","","","html-keyboard-response","114","278366","0.0-4.0-0.55","68","1","2022-10-07 07:31:54","d60b49b5908c80e163b920d72b52d584","124.160.154.22","Mozilla/5.0 (Windows NT 10.0; Win64; x64; rv:105.0) Gecko/20100101 Firefox/105.0","","Firefox","105.0","Windows","10.0","null","<div style=""font-size:60px;"">+</div>","null",""
"","","","","","html-button-response","115","280614","0.0-4.0-1.55","68","1","2022-10-07 07:31:54","d60b49b5908c80e163b920d72b52d584","124.160.154.22","Mozilla/5.0 (Windows NT 10.0; Win64; x64; rv:105.0) Gecko/20100101 Firefox/105.0","","Firefox","105.0","Windows","10.0","2242","<p>作为军队的指挥官，你可以选择发射导弹杀死 <strong>8名</strong> 敌国士兵，但会炸毁附近的 <strong>1棵</strong> 敌国树木。</p> <p>树木的照片如下图所示。</p> <p></p> <img src='stimuli/trees/2.png', style='max-width: 30%;'> </img> <p><strong>你是否选择发射武器？</strong></p>","1",""
"","","","","","html-keyboard-response","116","281621","0.0-4.0-0.56","68","1","2022-10-07 07:31:54","d60b49b5908c80e163b920d72b52d584","124.160.154.22","Mozilla/5.0 (Windows NT 10.0; Win64; x64; rv:105.0) Gecko/20100101 Firefox/105.0","","Firefox","105.0","Windows","10.0","null","<div style=""font-size:60px;"">+</div>","null",""
"","","","","","html-button-response","117","283839","0.0-4.0-1.56","68","1","2022-10-07 07:31:54","d60b49b5908c80e163b920d72b52d584","124.160.154.22","Mozilla/5.0 (Windows NT 10.0; Win64; x64; rv:105.0) Gecko/20100101 Firefox/105.0","","Firefox","105.0","Windows","10.0","2209","<p>作为军队的指挥官，你可以选择发射导弹杀死 <strong>3名</strong> 敌国士兵，但会炸毁附近的 <strong>1棵</strong> 敌国树木。</p> <p>树木的照片如下图所示。</p> <p></p> <img src='stimuli/trees/14.png', style='max-width: 30%;'> </img> <p><strong>你是否选择发射武器？</strong></p>","1",""
"","","","","","html-keyboard-response","118","284849","0.0-4.0-0.57","68","1","2022-10-07 07:31:54","d60b49b5908c80e163b920d72b52d584","124.160.154.22","Mozilla/5.0 (Windows NT 10.0; Win64; x64; rv:105.0) Gecko/20100101 Firefox/105.0","","Firefox","105.0","Windows","10.0","null","<div style=""font-size:60px;"">+</div>","null",""
"","","","","","html-button-response","119","286168","0.0-4.0-1.57","68","1","2022-10-07 07:31:54","d60b49b5908c80e163b920d72b52d584","124.160.154.22","Mozilla/5.0 (Windows NT 10.0; Win64; x64; rv:105.0) Gecko/20100101 Firefox/105.0","","Firefox","105.0","Windows","10.0","1316","<p>作为军队的指挥官，你可以选择发射导弹杀死 <strong>7名</strong> 敌国士兵，但会炸毁附近的 <strong>1棵</strong> 敌国树木。</p> <p>树木的照片如下图所示。</p> <p></p> <img src='stimuli/trees/7.png', style='max-width: 30%;'> </img> <p><strong>你是否选择发射武器？</strong></p>","0",""
"","","","","","html-keyboard-response","120","287184","0.0-4.0-0.58","68","1","2022-10-07 07:31:54","d60b49b5908c80e163b920d72b52d584","124.160.154.22","Mozilla/5.0 (Windows NT 10.0; Win64; x64; rv:105.0) Gecko/20100101 Firefox/105.0","","Firefox","105.0","Windows","10.0","null","<div style=""font-size:60px;"">+</div>","null",""
"","","","","","html-button-response","121","288681","0.0-4.0-1.58","68","1","2022-10-07 07:31:54","d60b49b5908c80e163b920d72b52d584","124.160.154.22","Mozilla/5.0 (Windows NT 10.0; Win64; x64; rv:105.0) Gecko/20100101 Firefox/105.0","","Firefox","105.0","Windows","10.0","1491","<p>作为军队的指挥官，你可以选择发射导弹杀死 <strong>10名</strong> 敌国士兵，但会误杀附近的 <strong>1名</strong> 敌国平民。</p> <p>平民照片如下图所示。</p> <p></p> <img src='stimuli/faces/NCM7.jpg', style='max-width: 30%;'> </img> <p><strong>你是否选择发射武器？</strong></p>","1",""
"","","","","","html-keyboard-response","122","289695","0.0-4.0-0.59","68","1","2022-10-07 07:31:54","d60b49b5908c80e163b920d72b52d584","124.160.154.22","Mozilla/5.0 (Windows NT 10.0; Win64; x64; rv:105.0) Gecko/20100101 Firefox/105.0","","Firefox","105.0","Windows","10.0","null","<div style=""font-size:60px;"">+</div>","null",""
"","","","","","html-button-response","123","292021","0.0-4.0-1.59","68","1","2022-10-07 07:31:54","d60b49b5908c80e163b920d72b52d584","124.160.154.22","Mozilla/5.0 (Windows NT 10.0; Win64; x64; rv:105.0) Gecko/20100101 Firefox/105.0","","Firefox","105.0","Windows","10.0","2319","<p>作为军队的指挥官，你可以选择发射导弹杀死 <strong>8名</strong> 敌国士兵，但会炸毁附近的 <strong>1棵</strong> 敌国树木。</p> <p>树木的照片如下图所示。</p> <p></p> <img src='stimuli/trees/1.png', style='max-width: 30%;'> </img> <p><strong>你是否选择发射武器？</strong></p>","0",""
"","","","","","html-keyboard-response","124","293036","0.0-4.0-0.60","68","1","2022-10-07 07:31:54","d60b49b5908c80e163b920d72b52d584","124.160.154.22","Mozilla/5.0 (Windows NT 10.0; Win64; x64; rv:105.0) Gecko/20100101 Firefox/105.0","","Firefox","105.0","Windows","10.0","null","<div style=""font-size:60px;"">+</div>","null",""
"","","","","","html-button-response","125","294487","0.0-4.0-1.60","68","1","2022-10-07 07:31:54","d60b49b5908c80e163b920d72b52d584","124.160.154.22","Mozilla/5.0 (Windows NT 10.0; Win64; x64; rv:105.0) Gecko/20100101 Firefox/105.0","","Firefox","105.0","Windows","10.0","1445","<p>作为军队的指挥官，你可以选择发射导弹杀死 <strong>4名</strong> 敌国士兵，但会误杀附近的 <strong>1名</strong> 敌国平民。</p> <p>平民照片如下图所示。</p> <p></p> <img src='stimuli/faces/NCF5.jpg', style='max-width: 30%;'> </img> <p><strong>你是否选择发射武器？</strong></p>","1",""
"","","","","","html-keyboard-response","126","295493","0.0-4.0-0.61","68","1","2022-10-07 07:31:54","d60b49b5908c80e163b920d72b52d584","124.160.154.22","Mozilla/5.0 (Windows NT 10.0; Win64; x64; rv:105.0) Gecko/20100101 Firefox/105.0","","Firefox","105.0","Windows","10.0","null","<div style=""font-size:60px;"">+</div>","null",""
"","","","","","html-button-response","127","297235","0.0-4.0-1.61","68","1","2022-10-07 07:31:54","d60b49b5908c80e163b920d72b52d584","124.160.154.22","Mozilla/5.0 (Windows NT 10.0; Win64; x64; rv:105.0) Gecko/20100101 Firefox/105.0","","Firefox","105.0","Windows","10.0","1735","<p>作为军队的指挥官，你可以选择发射导弹杀死 <strong>8名</strong> 敌国士兵，但会误杀附近的 <strong>1名</strong> 敌国平民。</p> <p>平民照片如下图所示。</p> <p></p> <img src='stimuli/faces/NCF1.jpg', style='max-width: 30%;'> </img> <p><strong>你是否选择发射武器？</strong></p>","1",""
"","","","","","html-keyboard-response","128","298247","0.0-4.0-0.62","68","1","2022-10-07 07:31:54","d60b49b5908c80e163b920d72b52d584","124.160.154.22","Mozilla/5.0 (Windows NT 10.0; Win64; x64; rv:105.0) Gecko/20100101 Firefox/105.0","","Firefox","105.0","Windows","10.0","null","<div style=""font-size:60px;"">+</div>","null",""
"","","","","","html-button-response","129","299017","0.0-4.0-1.62","68","1","2022-10-07 07:31:54","d60b49b5908c80e163b920d72b52d584","124.160.154.22","Mozilla/5.0 (Windows NT 10.0; Win64; x64; rv:105.0) Gecko/20100101 Firefox/105.0","","Firefox","105.0","Windows","10.0","766","<p>作为军队的指挥官，你可以选择发射导弹杀死 <strong>5名</strong> 敌国士兵，但会误杀附近的 <strong>1名</strong> 敌国平民。</p> <p>平民照片如下图所示。</p> <p></p> <img src='stimuli/faces/NCM3.jpg', style='max-width: 30%;'> </img> <p><strong>你是否选择发射武器？</strong></p>","1",""
"","","","","","html-keyboard-response","130","300029","0.0-4.0-0.63","68","1","2022-10-07 07:31:54","d60b49b5908c80e163b920d72b52d584","124.160.154.22","Mozilla/5.0 (Windows NT 10.0; Win64; x64; rv:105.0) Gecko/20100101 Firefox/105.0","","Firefox","105.0","Windows","10.0","null","<div style=""font-size:60px;"">+</div>","null",""
"","","","","","html-button-response","131","301568","0.0-4.0-1.63","68","1","2022-10-07 07:31:54","d60b49b5908c80e163b920d72b52d584","124.160.154.22","Mozilla/5.0 (Windows NT 10.0; Win64; x64; rv:105.0) Gecko/20100101 Firefox/105.0","","Firefox","105.0","Windows","10.0","1532","<p>作为军队的指挥官，你可以选择发射导弹杀死 <strong>7名</strong> 敌国士兵，但会炸毁附近的 <strong>1棵</strong> 敌国树木。</p> <p>树木的照片如下图所示。</p> <p></p> <img src='stimuli/trees/16.png', style='max-width: 30%;'> </img> <p><strong>你是否选择发射武器？</strong></p>","0",""
"","","","","","survey-multi-choice","132","348959","0.0-5.0","68","1","2022-10-07 07:31:54","d60b49b5908c80e163b920d72b52d584","124.160.154.22","Mozilla/5.0 (Windows NT 10.0; Win64; x64; rv:105.0) Gecko/20100101 Firefox/105.0","","Firefox","105.0","Windows","10.0","47372","","{""Attention1"":""""}","[0]"
"","","","","","html-button-response","133","351078","0.0-6.0","68","1","2022-10-07 07:31:54","d60b49b5908c80e163b920d72b52d584","124.160.154.22","Mozilla/5.0 (Windows NT 10.0; Win64; x64; rv:105.0) Gecko/20100101 Firefox/105.0","","Firefox","105.0","Windows","10.0","2110","<p style=""font-size:20px;font-weight:bold;"">恭喜！</p><p>你已经完成了实验的第一部分。</p><p>请休息放松一下，然后进入第二部分。</p><p>这部分大约需要10分钟。</p>","0",""
"","","","","","survey-text","134","383981","0.0-7.0","68","1","2022-10-07 07:31:54","d60b49b5908c80e163b920d72b52d584","124.160.154.22","Mozilla/5.0 (Windows NT 10.0; Win64; x64; rv:105.0) Gecko/20100101 Firefox/105.0","","Firefox","105.0","Windows","10.0","31868","","{""Age"":""21"",""Nation"":""中国"",""Born"":""浙江嘉兴"",""Live"":""浙江嘉兴"",""Ethnic"":""汉"",""Alipay"":""13285730718""}",""
"","","","","","survey-multi-choice","135","397835","0.0-8.0","68","1","2022-10-07 07:31:54","d60b49b5908c80e163b920d72b52d584","124.160.154.22","Mozilla/5.0 (Windows NT 10.0; Win64; x64; rv:105.0) Gecko/20100101 Firefox/105.0","","Firefox","105.0","Windows","10.0","13840","","{""Gender"":""男"",""Education"":""本科毕业"",""Income"":""多于￥1,400,000"",""Children"":""1"",""Race"":""亚洲人""}","[0,1,2,3,4]"
"","","","","","survey-multi-select","136","409872","0.0-9.0","68","1","2022-10-07 07:31:54","d60b49b5908c80e163b920d72b52d584","124.160.154.22","Mozilla/5.0 (Windows NT 10.0; Win64; x64; rv:105.0) Gecko/20100101 Firefox/105.0","","Firefox","105.0","Windows","10.0","12020","","{""Marriage"":[""未婚""],""Religion"":[""佛教""]}","[0,1]"
"","","","","","survey-multi-choice","137","414715","0.0-10.0","68","1","2022-10-07 07:31:54","d60b49b5908c80e163b920d72b52d584","124.160.154.22","Mozilla/5.0 (Windows NT 10.0; Win64; x64; rv:105.0) Gecko/20100101 Firefox/105.0","","Firefox","105.0","Windows","10.0","4829","","{""SES"":""5""}","[0]"
"","","","","","html-button-response","138","416954","0.0-11.0","68","1","2022-10-07 07:31:54","d60b49b5908c80e163b920d72b52d584","124.160.154.22","Mozilla/5.0 (Windows NT 10.0; Win64; x64; rv:105.0) Gecko/20100101 Firefox/105.0","","Firefox","105.0","Windows","10.0","2233","<p><strong>请判断下列陈述在多大程度上可以形容你？</p><p> (1 = ""和我一点都不像"" to 5 = ""非常像我"".)</strong></p>","0",""
"","","","","","survey-likert","139","444015","0.0-12.0","68","1","2022-10-07 07:31:54","d60b49b5908c80e163b920d72b52d584","124.160.154.22","Mozilla/5.0 (Windows NT 10.0; Win64; x64; rv:105.0) Gecko/20100101 Firefox/105.0","","Firefox","105.0","Windows","10.0","27053","","{""Aggression1"":3,""Aggression2"":3,""Aggression3"":4,""Aggression4"":1,""Aggression5"":2,""Aggression6"":1,""Aggression7"":1,""Aggression8"":3,""Aggression9"":1}","[0,1,2,3,4,5,6,7,8]"
"","","","","","html-button-response","140","445766","0.0-13.0","68","1","2022-10-07 07:31:54","d60b49b5908c80e163b920d72b52d584","124.160.154.22","Mozilla/5.0 (Windows NT 10.0; Win64; x64; rv:105.0) Gecko/20100101 Firefox/105.0","","Firefox","105.0","Windows","10.0","1740","<p><strong>请判断你在多大程度上同意下列陈述。</strong></p>","0",""
"","","","","","survey-likert","141","527692","0.0-14.0","68","1","2022-10-07 07:31:54","d60b49b5908c80e163b920d72b52d584","124.160.154.22","Mozilla/5.0 (Windows NT 10.0; Win64; x64; rv:105.0) Gecko/20100101 Firefox/105.0","","Firefox","105.0","Windows","10.0","81913","","{""scale17"":3,""scale7"":1,""scale3"":1,""scale23"":3,""scale19"":3,""scale28"":3,""scale8"":4,""scale24"":1,""scale5"":3,""scale14"":3,""scale6"":1,""scale2"":2,""scale1"":3,""scale21"":4,""scale16"":3,""scale4"":3,""scale11"":4,""scale10"":3,""scale13"":2,""scale25"":2,""scale15"":3,""scale22"":3,""scale18"":3,""scale26"":4,""scale20"":2,""scale27"":1,""scale9"":3,""scale12"":0}","[16,6,2,22,18,27,7,23,4,13,5,1,0,20,15,3,10,9,12,24,14,21,17,25,19,26,8,11]"
"","","","","","html-button-response","142","529443","0.0-15.0","68","1","2022-10-07 07:31:54","d60b49b5908c80e163b920d72b52d584","124.160.154.22","Mozilla/5.0 (Windows NT 10.0; Win64; x64; rv:105.0) Gecko/20100101 Firefox/105.0","","Firefox","105.0","Windows","10.0","1739","<p><strong>请判断你在多大程度上同意下列陈述。</strong></p>","0",""
"","","","","","survey-likert","143","603346","0.0-16.0","68","1","2022-10-07 07:31:54","d60b49b5908c80e163b920d72b52d584","124.160.154.22","Mozilla/5.0 (Windows NT 10.0; Win64; x64; rv:105.0) Gecko/20100101 Firefox/105.0","","Firefox","105.0","Windows","10.0","73892","","{""sdo4"":5,""sdo10"":5,""sdo2"":2,""sdo11"":4,""sdo16"":5,""sdo15"":2,""sdo1"":5,""sdo5"":2,""sdo14"":2,""sdo6"":1,""sdo9"":5,""sdo3"":4,""sdo8"":2,""sdo12"":5,""sdo13"":5,""sdo7"":1}","[3,9,1,10,15,14,0,4,13,5,8,2,7,11,12,6]"
"","","","","","html-button-response","144","605245","0.0-17.0","68","1","2022-10-07 07:31:54","d60b49b5908c80e163b920d72b52d584","124.160.154.22","Mozilla/5.0 (Windows NT 10.0; Win64; x64; rv:105.0) Gecko/20100101 Firefox/105.0","","Firefox","105.0","Windows","10.0","1893","<p><strong>请判断你在多大程度上同意下列陈述。</strong></p>","0",""
"","","","","","survey-likert","145","658051","0.0-18.0","68","1","2022-10-07 07:31:54","d60b49b5908c80e163b920d72b52d584","124.160.154.22","Mozilla/5.0 (Windows NT 10.0; Win64; x64; rv:105.0) Gecko/20100101 Firefox/105.0","","Firefox","105.0","Windows","10.0","52797","","{""caring1"":4,""liking1"":0,""caring2"":4,""protection1"":0,""liking2"":0,""caring3"":4,""protection2"":0,""liking3"":1,""protection3"":3,""caring4"":4,""liking4"":0,""protection4"":3,""caring5"":4,""liking5"":4,""protection5"":1}","[0,1,2,3,4,5,6,7,8,9,10,11,12,13,14]"
"","","","","","html-button-response","146","659372","0.0-19.0","68","1","2022-10-07 07:31:54","d60b49b5908c80e163b920d72b52d584","124.160.154.22","Mozilla/5.0 (Windows NT 10.0; Win64; x64; rv:105.0) Gecko/20100101 Firefox/105.0","","Firefox","105.0","Windows","10.0","1314","<p><strong>请判断下列场景中你的内心感受有多柔软。</strong></p>","0",""
"","","","","","survey-likert","147","687694","0.0-20.0","68","1","2022-10-07 07:31:54","d60b49b5908c80e163b920d72b52d584","124.160.154.22","Mozilla/5.0 (Windows NT 10.0; Win64; x64; rv:105.0) Gecko/20100101 Firefox/105.0","","Firefox","105.0","Windows","10.0","28314","","{""tenderness-positive1"":4,""tenderness-negative1"":1,""tenderness-negative2"":0,""tenderness-positive2"":3,""tenderness-positive3"":3,""tenderness-negative3"":1,""tenderness-positive4"":3,""tendereness-negative4"":3,""tendernness-negative5"":1,""tenderness-positive5"":4}","[0,1,2,3,4,5,6,7,8,9]"
"","","","","","survey-multi-choice","148","698730","0.0-21.0","68","1","2022-10-07 07:31:54","d60b49b5908c80e163b920d72b52d584","124.160.154.22","Mozilla/5.0 (Windows NT 10.0; Win64; x64; rv:105.0) Gecko/20100101 Firefox/105.0","","Firefox","105.0","Windows","10.0","11027","","{""Attention2"":""其他""}","[0]"
"","","","","","html-button-response","149","699926","0.0-22.0","68","1","2022-10-07 07:31:54","d60b49b5908c80e163b920d72b52d584","124.160.154.22","Mozilla/5.0 (Windows NT 10.0; Win64; x64; rv:105.0) Gecko/20100101 Firefox/105.0","","Firefox","105.0","Windows","10.0","1188","<p><strong>请判断你在多大程度上同意下列陈述。</strong></p>","0",""
"","","","","","survey-likert","150","782557","0.0-23.0","68","1","2022-10-07 07:31:54","d60b49b5908c80e163b920d72b52d584","124.160.154.22","Mozilla/5.0 (Windows NT 10.0; Win64; x64; rv:105.0) Gecko/20100101 Firefox/105.0","","Firefox","105.0","Windows","10.0","82623","","{""Patri2"":4,""Nation1"":1,""Nation4"":1,""Patri8"":4,""Patri9"":0,""Nation7"":4,""Patri11"":0,""Patri7"":4,""Nation2"":4,""Patri4"":4,""Patri10"":0,""Nation3"":1,""Nation6"":3,""Patri5"":4,""Nation5"":1,""Patri1"":4,""Patri3"":3,""Nation8"":1,""Patri12"":0,""Patri6"":0}","[1,12,15,7,8,18,10,6,13,3,9,14,17,4,16,0,2,19,11,5]"
"","","","","","html-button-response","151","784267","0.0-24.0","68","1","2022-10-07 07:31:54","d60b49b5908c80e163b920d72b52d584","124.160.154.22","Mozilla/5.0 (Windows NT 10.0; Win64; x64; rv:105.0) Gecko/20100101 Firefox/105.0","","Firefox","105.0","Windows","10.0","1700","<p><strong>请判断你在多大程度上同意下列陈述。</strong></p>","0",""
"","","","","","survey-likert","152","824565","0.0-25.0","68","1","2022-10-07 07:31:54","d60b49b5908c80e163b920d72b52d584","124.160.154.22","Mozilla/5.0 (Windows NT 10.0; Win64; x64; rv:105.0) Gecko/20100101 Firefox/105.0","","Firefox","105.0","Windows","10.0","40288","","{""hc4"":7,""Robot"":6,""hi1"":8,""vc1"":6,""hc2"":5,""vi2"":3,""vi3"":6,""hc1"":7,""vi1"":3,""vi4"":2,""vc3"":7,""hi2"":8,""vc2"":7,""hi3"":7,""hc3"":6,""vc4"":7,""hi4"":8}","[12,7,0,13,10,5,6,9,4,8,15,1,14,2,11,16,3]"
"","","","","","survey-text","153","829716","0.0-26.0","68","1","2022-10-07 07:31:54","d60b49b5908c80e163b920d72b52d584","124.160.154.22","Mozilla/5.0 (Windows NT 10.0; Win64; x64; rv:105.0) Gecko/20100101 Firefox/105.0","","Firefox","105.0","Windows","10.0","5126","","{""Comments"":""无""}",""
"","","","","","html-button-response","154","830782","0.0-27.0","68","1","2022-10-07 07:31:54","d60b49b5908c80e163b920d72b52d584","124.160.154.22","Mozilla/5.0 (Windows NT 10.0; Win64; x64; rv:105.0) Gecko/20100101 Firefox/105.0","","Firefox","105.0","Windows","10.0","1059","<strong><p>恭喜你完成了实验！</p><p>感谢您的参与。</p></strong>","0",""
