"success","timeout","failed_images","failed_audio","failed_video","trial_type","trial_index","time_elapsed","internal_node_id","run_id","condition","recorded_at","source_code_version","ip","user_agent","device","browser","browser_version","platform","platform_version","rt","stimulus","response","question_order"
"true","false","[]","[]","[]","preload","0","2026","0.0-0.0","77","1","2022-10-07 07:52:08","d60b49b5908c80e163b920d72b52d584","182.107.103.39","Mozilla/5.0 (Windows NT 10.0; WOW64) AppleWebKit/537.36 (KHTML, like Gecko) Chrome/84.0.4147.89 Safari/537.36 SLBrowser/7.0.0.12151 SLBChan/103","WebKit","Chrome","84.0.4147.89","Windows","10.0","","","",""
"true","","","","","fullscreen","1","39500","0.0-1.0","77","1","2022-10-07 07:52:08","d60b49b5908c80e163b920d72b52d584","182.107.103.39","Mozilla/5.0 (Windows NT 10.0; WOW64) AppleWebKit/537.36 (KHTML, like Gecko) Chrome/84.0.4147.89 Safari/537.36 SLBrowser/7.0.0.12151 SLBChan/103","WebKit","Chrome","84.0.4147.89","Windows","10.0","","","",""
"","","","","","html-button-response","2","68788","0.0-2.0","77","1","2022-10-07 07:52:08","d60b49b5908c80e163b920d72b52d584","182.107.103.39","Mozilla/5.0 (Windows NT 10.0; WOW64) AppleWebKit/537.36 (KHTML, like Gecko) Chrome/84.0.4147.89 Safari/537.36 SLBrowser/7.0.0.12151 SLBChan/103","WebKit","Chrome","84.0.4147.89","Windows","10.0","29288","<p style=""font-size:20px;font-weight:bold;"">实验知情同意书</p><p style=""text-align:left;""><strong>实验名称：</strong>社会冲突研究</p><p style=""text-align:left;""><strong>主要研究者：</strong>韩晓春副教授（北京师范大学心理学部）</p><p style=""text-align:left;""><strong>联系方式：</strong>发送邮件至xiaochun.han@bnu.edu.cn</p><p style=""text-align:left;""><strong>研究目的：</strong>研究旨在了解人类面对群体冲突时的决策方式，以及相关的心理学特质。实验调查大约需要20分钟。</p><p style=""text-align:left;""><strong>实验流程：</strong>实验包含两部分。第一部分呈现一系列群体冲突场景，请你决定如何对这些冲突进行反应，大约需要10分钟完成。第二部分包含一系列人口统计学信息收集和心理学问卷，大约需要10分钟完成。</p><p style=""text-align:left;""><strong>参加及退出规则：</strong>参加本实验完全取决于您的个人意愿。在参与过程中，您可以随时退出，并且不用承担任何后果。</p><p style=""text-align:left;""><strong>隐私：</strong>本实验完全匿名进行，不会收集您的姓名或其他能够识别您身份的信息。实验中收集的作答仅用作科学研究使用，可能会在学术期刊/书籍上发表，或者用于教学，您的数据未来可能会和其他研究者或实验室分享，但您的个人身份不会被识别。</p><p style=""text-align:left;""><strong>实验报酬：</strong>实验完成后，您将获得15元人民币报酬，以感谢您的时间和努力。调查问卷中包含几道题目用以测验您作答时的认真度。只有完成全部实验，并且正确回答认真度测验的被试才能获得实验报酬。实验报酬将通过支付宝转账发放。</p><p style=""text-align:left;font-size:20px;""><strong>如果您同意以上实验知情同意书的内容，请点击'同意并且开始实验'按钮；否则请关闭浏览器界面，退出实验。</strong></p>","0",""
"","","","","","html-button-response","3","123213","0.0-3.0","77","1","2022-10-07 07:52:08","d60b49b5908c80e163b920d72b52d584","182.107.103.39","Mozilla/5.0 (Windows NT 10.0; WOW64) AppleWebKit/537.36 (KHTML, like Gecko) Chrome/84.0.4147.89 Safari/537.36 SLBrowser/7.0.0.12151 SLBChan/103","WebKit","Chrome","84.0.4147.89","Windows","10.0","54423","<p ><strong>实验任务一：</strong></p><p>请想象你的国家与另一个国家发生了军事冲突。</p><p>你是国家军队的指挥官，你将如何在冲突中进行决策。</p><p>具体来说，作为军队指挥官，请你决定是否发射导弹进行打击。</p><p>接下来，你会面对一系列场景，请仔细阅读每个场景，然后进行决策。</p><p>这部分实验任务大约需要10分钟。</p><p><strong>实验过程中，请集中注意力。</strong></p>","0",""
"","","","","","html-keyboard-response","4","124216","0.0-4.0-0.0","77","1","2022-10-07 07:52:08","d60b49b5908c80e163b920d72b52d584","182.107.103.39","Mozilla/5.0 (Windows NT 10.0; WOW64) AppleWebKit/537.36 (KHTML, like Gecko) Chrome/84.0.4147.89 Safari/537.36 SLBrowser/7.0.0.12151 SLBChan/103","WebKit","Chrome","84.0.4147.89","Windows","10.0","null","<div style=""font-size:60px;"">+</div>","null",""
"","","","","","html-button-response","5","132732","0.0-4.0-1.0","77","1","2022-10-07 07:52:08","d60b49b5908c80e163b920d72b52d584","182.107.103.39","Mozilla/5.0 (Windows NT 10.0; WOW64) AppleWebKit/537.36 (KHTML, like Gecko) Chrome/84.0.4147.89 Safari/537.36 SLBrowser/7.0.0.12151 SLBChan/103","WebKit","Chrome","84.0.4147.89","Windows","10.0","8512","<p>作为军队的指挥官，你可以选择发射导弹杀死 <strong>5名</strong> 敌国士兵，但会误杀附近的 <strong>1名</strong> 敌国平民。</p> <p>平民照片如下图所示。</p> <p></p> <img src='stimuli/faces/NCF2.jpg', style='max-width: 30%;'> </img> <p><strong>你是否选择发射武器？</strong></p>","0",""
"","","","","","html-keyboard-response","6","133734","0.0-4.0-0.1","77","1","2022-10-07 07:52:08","d60b49b5908c80e163b920d72b52d584","182.107.103.39","Mozilla/5.0 (Windows NT 10.0; WOW64) AppleWebKit/537.36 (KHTML, like Gecko) Chrome/84.0.4147.89 Safari/537.36 SLBrowser/7.0.0.12151 SLBChan/103","WebKit","Chrome","84.0.4147.89","Windows","10.0","null","<div style=""font-size:60px;"">+</div>","null",""
"","","","","","html-button-response","7","145340","0.0-4.0-1.1","77","1","2022-10-07 07:52:08","d60b49b5908c80e163b920d72b52d584","182.107.103.39","Mozilla/5.0 (Windows NT 10.0; WOW64) AppleWebKit/537.36 (KHTML, like Gecko) Chrome/84.0.4147.89 Safari/537.36 SLBrowser/7.0.0.12151 SLBChan/103","WebKit","Chrome","84.0.4147.89","Windows","10.0","11605","<p>作为军队的指挥官，你可以选择发射导弹杀死 <strong>6名</strong> 敌国士兵，但会炸毁附近的 <strong>1棵</strong> 敌国树木。</p> <p>树木的照片如下图所示。</p> <p></p> <img src='stimuli/trees/5.png', style='max-width: 30%;'> </img> <p><strong>你是否选择发射武器？</strong></p>","0",""
"","","","","","html-keyboard-response","8","146342","0.0-4.0-0.2","77","1","2022-10-07 07:52:08","d60b49b5908c80e163b920d72b52d584","182.107.103.39","Mozilla/5.0 (Windows NT 10.0; WOW64) AppleWebKit/537.36 (KHTML, like Gecko) Chrome/84.0.4147.89 Safari/537.36 SLBrowser/7.0.0.12151 SLBChan/103","WebKit","Chrome","84.0.4147.89","Windows","10.0","null","<div style=""font-size:60px;"">+</div>","null",""
"","","","","","html-button-response","9","149719","0.0-4.0-1.2","77","1","2022-10-07 07:52:08","d60b49b5908c80e163b920d72b52d584","182.107.103.39","Mozilla/5.0 (Windows NT 10.0; WOW64) AppleWebKit/537.36 (KHTML, like Gecko) Chrome/84.0.4147.89 Safari/537.36 SLBrowser/7.0.0.12151 SLBChan/103","WebKit","Chrome","84.0.4147.89","Windows","10.0","3375","<p>作为军队的指挥官，你可以选择发射导弹杀死 <strong>2名</strong> 敌国士兵，但会误杀附近的 <strong>1名</strong> 敌国平民。</p> <p>平民照片如下图所示。</p> <p></p> <img src='stimuli/faces/NCM4.jpg', style='max-width: 30%;'> </img> <p><strong>你是否选择发射武器？</strong></p>","1",""
"","","","","","html-keyboard-response","10","150720","0.0-4.0-0.3","77","1","2022-10-07 07:52:08","d60b49b5908c80e163b920d72b52d584","182.107.103.39","Mozilla/5.0 (Windows NT 10.0; WOW64) AppleWebKit/537.36 (KHTML, like Gecko) Chrome/84.0.4147.89 Safari/537.36 SLBrowser/7.0.0.12151 SLBChan/103","WebKit","Chrome","84.0.4147.89","Windows","10.0","null","<div style=""font-size:60px;"">+</div>","null",""
"","","","","","html-button-response","11","154565","0.0-4.0-1.3","77","1","2022-10-07 07:52:08","d60b49b5908c80e163b920d72b52d584","182.107.103.39","Mozilla/5.0 (Windows NT 10.0; WOW64) AppleWebKit/537.36 (KHTML, like Gecko) Chrome/84.0.4147.89 Safari/537.36 SLBrowser/7.0.0.12151 SLBChan/103","WebKit","Chrome","84.0.4147.89","Windows","10.0","3843","<p>作为军队的指挥官，你可以选择发射导弹杀死 <strong>3名</strong> 敌国士兵，但会误杀附近的 <strong>1名</strong> 敌国平民。</p> <p>平民照片如下图所示。</p> <p></p> <img src='stimuli/faces/NCM5.jpg', style='max-width: 30%;'> </img> <p><strong>你是否选择发射武器？</strong></p>","1",""
"","","","","","html-keyboard-response","12","155566","0.0-4.0-0.4","77","1","2022-10-07 07:52:08","d60b49b5908c80e163b920d72b52d584","182.107.103.39","Mozilla/5.0 (Windows NT 10.0; WOW64) AppleWebKit/537.36 (KHTML, like Gecko) Chrome/84.0.4147.89 Safari/537.36 SLBrowser/7.0.0.12151 SLBChan/103","WebKit","Chrome","84.0.4147.89","Windows","10.0","null","<div style=""font-size:60px;"">+</div>","null",""
"","","","","","html-button-response","13","157636","0.0-4.0-1.4","77","1","2022-10-07 07:52:08","d60b49b5908c80e163b920d72b52d584","182.107.103.39","Mozilla/5.0 (Windows NT 10.0; WOW64) AppleWebKit/537.36 (KHTML, like Gecko) Chrome/84.0.4147.89 Safari/537.36 SLBrowser/7.0.0.12151 SLBChan/103","WebKit","Chrome","84.0.4147.89","Windows","10.0","2068","<p>作为军队的指挥官，你可以选择发射导弹杀死 <strong>4名</strong> 敌国士兵，但会炸毁附近的 <strong>1棵</strong> 敌国树木。</p> <p>树木的照片如下图所示。</p> <p></p> <img src='stimuli/trees/9.png', style='max-width: 30%;'> </img> <p><strong>你是否选择发射武器？</strong></p>","0",""
"","","","","","html-keyboard-response","14","158645","0.0-4.0-0.5","77","1","2022-10-07 07:52:08","d60b49b5908c80e163b920d72b52d584","182.107.103.39","Mozilla/5.0 (Windows NT 10.0; WOW64) AppleWebKit/537.36 (KHTML, like Gecko) Chrome/84.0.4147.89 Safari/537.36 SLBrowser/7.0.0.12151 SLBChan/103","WebKit","Chrome","84.0.4147.89","Windows","10.0","null","<div style=""font-size:60px;"">+</div>","null",""
"","","","","","html-button-response","15","160509","0.0-4.0-1.5","77","1","2022-10-07 07:52:08","d60b49b5908c80e163b920d72b52d584","182.107.103.39","Mozilla/5.0 (Windows NT 10.0; WOW64) AppleWebKit/537.36 (KHTML, like Gecko) Chrome/84.0.4147.89 Safari/537.36 SLBrowser/7.0.0.12151 SLBChan/103","WebKit","Chrome","84.0.4147.89","Windows","10.0","1862","<p>作为军队的指挥官，你可以选择发射导弹杀死 <strong>5名</strong> 敌国士兵，但会炸毁附近的 <strong>1棵</strong> 敌国树木。</p> <p>树木的照片如下图所示。</p> <p></p> <img src='stimuli/trees/4.png', style='max-width: 30%;'> </img> <p><strong>你是否选择发射武器？</strong></p>","0",""
"","","","","","html-keyboard-response","16","161527","0.0-4.0-0.6","77","1","2022-10-07 07:52:08","d60b49b5908c80e163b920d72b52d584","182.107.103.39","Mozilla/5.0 (Windows NT 10.0; WOW64) AppleWebKit/537.36 (KHTML, like Gecko) Chrome/84.0.4147.89 Safari/537.36 SLBrowser/7.0.0.12151 SLBChan/103","WebKit","Chrome","84.0.4147.89","Windows","10.0","null","<div style=""font-size:60px;"">+</div>","null",""
"","","","","","html-button-response","17","163061","0.0-4.0-1.6","77","1","2022-10-07 07:52:08","d60b49b5908c80e163b920d72b52d584","182.107.103.39","Mozilla/5.0 (Windows NT 10.0; WOW64) AppleWebKit/537.36 (KHTML, like Gecko) Chrome/84.0.4147.89 Safari/537.36 SLBrowser/7.0.0.12151 SLBChan/103","WebKit","Chrome","84.0.4147.89","Windows","10.0","1529","<p>作为军队的指挥官，你可以选择发射导弹杀死 <strong>6名</strong> 敌国士兵，但会误杀附近的 <strong>1名</strong> 敌国平民。</p> <p>平民照片如下图所示。</p> <p></p> <img src='stimuli/faces/NCM5.jpg', style='max-width: 30%;'> </img> <p><strong>你是否选择发射武器？</strong></p>","0",""
"","","","","","html-keyboard-response","18","164063","0.0-4.0-0.7","77","1","2022-10-07 07:52:08","d60b49b5908c80e163b920d72b52d584","182.107.103.39","Mozilla/5.0 (Windows NT 10.0; WOW64) AppleWebKit/537.36 (KHTML, like Gecko) Chrome/84.0.4147.89 Safari/537.36 SLBrowser/7.0.0.12151 SLBChan/103","WebKit","Chrome","84.0.4147.89","Windows","10.0","null","<div style=""font-size:60px;"">+</div>","null",""
"","","","","","html-button-response","19","167437","0.0-4.0-1.7","77","1","2022-10-07 07:52:08","d60b49b5908c80e163b920d72b52d584","182.107.103.39","Mozilla/5.0 (Windows NT 10.0; WOW64) AppleWebKit/537.36 (KHTML, like Gecko) Chrome/84.0.4147.89 Safari/537.36 SLBrowser/7.0.0.12151 SLBChan/103","WebKit","Chrome","84.0.4147.89","Windows","10.0","3373","<p>作为军队的指挥官，你可以选择发射导弹杀死 <strong>6名</strong> 敌国士兵，但会误杀附近的 <strong>1名</strong> 敌国平民。</p> <p>平民照片如下图所示。</p> <p></p> <img src='stimuli/faces/NCM7.jpg', style='max-width: 30%;'> </img> <p><strong>你是否选择发射武器？</strong></p>","0",""
"","","","","","html-keyboard-response","20","168439","0.0-4.0-0.8","77","1","2022-10-07 07:52:08","d60b49b5908c80e163b920d72b52d584","182.107.103.39","Mozilla/5.0 (Windows NT 10.0; WOW64) AppleWebKit/537.36 (KHTML, like Gecko) Chrome/84.0.4147.89 Safari/537.36 SLBrowser/7.0.0.12151 SLBChan/103","WebKit","Chrome","84.0.4147.89","Windows","10.0","null","<div style=""font-size:60px;"">+</div>","null",""
"","","","","","html-button-response","21","170764","0.0-4.0-1.8","77","1","2022-10-07 07:52:08","d60b49b5908c80e163b920d72b52d584","182.107.103.39","Mozilla/5.0 (Windows NT 10.0; WOW64) AppleWebKit/537.36 (KHTML, like Gecko) Chrome/84.0.4147.89 Safari/537.36 SLBrowser/7.0.0.12151 SLBChan/103","WebKit","Chrome","84.0.4147.89","Windows","10.0","2322","<p>作为军队的指挥官，你可以选择发射导弹杀死 <strong>5名</strong> 敌国士兵，但会误杀附近的 <strong>1名</strong> 敌国平民。</p> <p>平民照片如下图所示。</p> <p></p> <img src='stimuli/faces/NCF8.jpg', style='max-width: 30%;'> </img> <p><strong>你是否选择发射武器？</strong></p>","1",""
"","","","","","html-keyboard-response","22","171786","0.0-4.0-0.9","77","1","2022-10-07 07:52:08","d60b49b5908c80e163b920d72b52d584","182.107.103.39","Mozilla/5.0 (Windows NT 10.0; WOW64) AppleWebKit/537.36 (KHTML, like Gecko) Chrome/84.0.4147.89 Safari/537.36 SLBrowser/7.0.0.12151 SLBChan/103","WebKit","Chrome","84.0.4147.89","Windows","10.0","null","<div style=""font-size:60px;"">+</div>","null",""
"","","","","","html-button-response","23","174997","0.0-4.0-1.9","77","1","2022-10-07 07:52:08","d60b49b5908c80e163b920d72b52d584","182.107.103.39","Mozilla/5.0 (Windows NT 10.0; WOW64) AppleWebKit/537.36 (KHTML, like Gecko) Chrome/84.0.4147.89 Safari/537.36 SLBrowser/7.0.0.12151 SLBChan/103","WebKit","Chrome","84.0.4147.89","Windows","10.0","3208","<p>作为军队的指挥官，你可以选择发射导弹杀死 <strong>5名</strong> 敌国士兵，但会误杀附近的 <strong>1名</strong> 敌国平民。</p> <p>平民照片如下图所示。</p> <p></p> <img src='stimuli/faces/NCM1.jpg', style='max-width: 30%;'> </img> <p><strong>你是否选择发射武器？</strong></p>","1",""
"","","","","","html-keyboard-response","24","175999","0.0-4.0-0.10","77","1","2022-10-07 07:52:08","d60b49b5908c80e163b920d72b52d584","182.107.103.39","Mozilla/5.0 (Windows NT 10.0; WOW64) AppleWebKit/537.36 (KHTML, like Gecko) Chrome/84.0.4147.89 Safari/537.36 SLBrowser/7.0.0.12151 SLBChan/103","WebKit","Chrome","84.0.4147.89","Windows","10.0","null","<div style=""font-size:60px;"">+</div>","null",""
"","","","","","html-button-response","25","179252","0.0-4.0-1.10","77","1","2022-10-07 07:52:08","d60b49b5908c80e163b920d72b52d584","182.107.103.39","Mozilla/5.0 (Windows NT 10.0; WOW64) AppleWebKit/537.36 (KHTML, like Gecko) Chrome/84.0.4147.89 Safari/537.36 SLBrowser/7.0.0.12151 SLBChan/103","WebKit","Chrome","84.0.4147.89","Windows","10.0","3253","<p>作为军队的指挥官，你可以选择发射导弹杀死 <strong>2名</strong> 敌国士兵，但会炸毁附近的 <strong>1棵</strong> 敌国树木。</p> <p>树木的照片如下图所示。</p> <p></p> <img src='stimuli/trees/12.png', style='max-width: 30%;'> </img> <p><strong>你是否选择发射武器？</strong></p>","0",""
"","","","","","html-keyboard-response","26","180273","0.0-4.0-0.11","77","1","2022-10-07 07:52:08","d60b49b5908c80e163b920d72b52d584","182.107.103.39","Mozilla/5.0 (Windows NT 10.0; WOW64) AppleWebKit/537.36 (KHTML, like Gecko) Chrome/84.0.4147.89 Safari/537.36 SLBrowser/7.0.0.12151 SLBChan/103","WebKit","Chrome","84.0.4147.89","Windows","10.0","null","<div style=""font-size:60px;"">+</div>","null",""
"","","","","","html-button-response","27","182628","0.0-4.0-1.11","77","1","2022-10-07 07:52:08","d60b49b5908c80e163b920d72b52d584","182.107.103.39","Mozilla/5.0 (Windows NT 10.0; WOW64) AppleWebKit/537.36 (KHTML, like Gecko) Chrome/84.0.4147.89 Safari/537.36 SLBrowser/7.0.0.12151 SLBChan/103","WebKit","Chrome","84.0.4147.89","Windows","10.0","2352","<p>作为军队的指挥官，你可以选择发射导弹杀死 <strong>9名</strong> 敌国士兵，但会误杀附近的 <strong>1名</strong> 敌国平民。</p> <p>平民照片如下图所示。</p> <p></p> <img src='stimuli/faces/NCF1.jpg', style='max-width: 30%;'> </img> <p><strong>你是否选择发射武器？</strong></p>","0",""
"","","","","","html-keyboard-response","28","183631","0.0-4.0-0.12","77","1","2022-10-07 07:52:08","d60b49b5908c80e163b920d72b52d584","182.107.103.39","Mozilla/5.0 (Windows NT 10.0; WOW64) AppleWebKit/537.36 (KHTML, like Gecko) Chrome/84.0.4147.89 Safari/537.36 SLBrowser/7.0.0.12151 SLBChan/103","WebKit","Chrome","84.0.4147.89","Windows","10.0","null","<div style=""font-size:60px;"">+</div>","null",""
"","","","","","html-button-response","29","187084","0.0-4.0-1.12","77","1","2022-10-07 07:52:08","d60b49b5908c80e163b920d72b52d584","182.107.103.39","Mozilla/5.0 (Windows NT 10.0; WOW64) AppleWebKit/537.36 (KHTML, like Gecko) Chrome/84.0.4147.89 Safari/537.36 SLBrowser/7.0.0.12151 SLBChan/103","WebKit","Chrome","84.0.4147.89","Windows","10.0","3452","<p>作为军队的指挥官，你可以选择发射导弹杀死 <strong>7名</strong> 敌国士兵，但会炸毁附近的 <strong>1棵</strong> 敌国树木。</p> <p>树木的照片如下图所示。</p> <p></p> <img src='stimuli/trees/13.png', style='max-width: 30%;'> </img> <p><strong>你是否选择发射武器？</strong></p>","0",""
"","","","","","html-keyboard-response","30","188086","0.0-4.0-0.13","77","1","2022-10-07 07:52:08","d60b49b5908c80e163b920d72b52d584","182.107.103.39","Mozilla/5.0 (Windows NT 10.0; WOW64) AppleWebKit/537.36 (KHTML, like Gecko) Chrome/84.0.4147.89 Safari/537.36 SLBrowser/7.0.0.12151 SLBChan/103","WebKit","Chrome","84.0.4147.89","Windows","10.0","null","<div style=""font-size:60px;"">+</div>","null",""
"","","","","","html-button-response","31","189885","0.0-4.0-1.13","77","1","2022-10-07 07:52:08","d60b49b5908c80e163b920d72b52d584","182.107.103.39","Mozilla/5.0 (Windows NT 10.0; WOW64) AppleWebKit/537.36 (KHTML, like Gecko) Chrome/84.0.4147.89 Safari/537.36 SLBrowser/7.0.0.12151 SLBChan/103","WebKit","Chrome","84.0.4147.89","Windows","10.0","1796","<p>作为军队的指挥官，你可以选择发射导弹杀死 <strong>6名</strong> 敌国士兵，但会炸毁附近的 <strong>1棵</strong> 敌国树木。</p> <p>树木的照片如下图所示。</p> <p></p> <img src='stimuli/trees/6.png', style='max-width: 30%;'> </img> <p><strong>你是否选择发射武器？</strong></p>","0",""
"","","","","","html-keyboard-response","32","190901","0.0-4.0-0.14","77","1","2022-10-07 07:52:08","d60b49b5908c80e163b920d72b52d584","182.107.103.39","Mozilla/5.0 (Windows NT 10.0; WOW64) AppleWebKit/537.36 (KHTML, like Gecko) Chrome/84.0.4147.89 Safari/537.36 SLBrowser/7.0.0.12151 SLBChan/103","WebKit","Chrome","84.0.4147.89","Windows","10.0","null","<div style=""font-size:60px;"">+</div>","null",""
"","","","","","html-button-response","33","199933","0.0-4.0-1.14","77","1","2022-10-07 07:52:08","d60b49b5908c80e163b920d72b52d584","182.107.103.39","Mozilla/5.0 (Windows NT 10.0; WOW64) AppleWebKit/537.36 (KHTML, like Gecko) Chrome/84.0.4147.89 Safari/537.36 SLBrowser/7.0.0.12151 SLBChan/103","WebKit","Chrome","84.0.4147.89","Windows","10.0","9029","<p>作为军队的指挥官，你可以选择发射导弹杀死 <strong>7名</strong> 敌国士兵，但会误杀附近的 <strong>1名</strong> 敌国平民。</p> <p>平民照片如下图所示。</p> <p></p> <img src='stimuli/faces/NCF2.jpg', style='max-width: 30%;'> </img> <p><strong>你是否选择发射武器？</strong></p>","0",""
"","","","","","html-keyboard-response","34","200934","0.0-4.0-0.15","77","1","2022-10-07 07:52:08","d60b49b5908c80e163b920d72b52d584","182.107.103.39","Mozilla/5.0 (Windows NT 10.0; WOW64) AppleWebKit/537.36 (KHTML, like Gecko) Chrome/84.0.4147.89 Safari/537.36 SLBrowser/7.0.0.12151 SLBChan/103","WebKit","Chrome","84.0.4147.89","Windows","10.0","null","<div style=""font-size:60px;"">+</div>","null",""
"","","","","","html-button-response","35","204308","0.0-4.0-1.15","77","1","2022-10-07 07:52:08","d60b49b5908c80e163b920d72b52d584","182.107.103.39","Mozilla/5.0 (Windows NT 10.0; WOW64) AppleWebKit/537.36 (KHTML, like Gecko) Chrome/84.0.4147.89 Safari/537.36 SLBrowser/7.0.0.12151 SLBChan/103","WebKit","Chrome","84.0.4147.89","Windows","10.0","3372","<p>作为军队的指挥官，你可以选择发射导弹杀死 <strong>5名</strong> 敌国士兵，但会误杀附近的 <strong>1名</strong> 敌国平民。</p> <p>平民照片如下图所示。</p> <p></p> <img src='stimuli/faces/NCF3.jpg', style='max-width: 30%;'> </img> <p><strong>你是否选择发射武器？</strong></p>","1",""
"","","","","","html-keyboard-response","36","205310","0.0-4.0-0.16","77","1","2022-10-07 07:52:08","d60b49b5908c80e163b920d72b52d584","182.107.103.39","Mozilla/5.0 (Windows NT 10.0; WOW64) AppleWebKit/537.36 (KHTML, like Gecko) Chrome/84.0.4147.89 Safari/537.36 SLBrowser/7.0.0.12151 SLBChan/103","WebKit","Chrome","84.0.4147.89","Windows","10.0","null","<div style=""font-size:60px;"">+</div>","null",""
"","","","","","html-button-response","37","206924","0.0-4.0-1.16","77","1","2022-10-07 07:52:08","d60b49b5908c80e163b920d72b52d584","182.107.103.39","Mozilla/5.0 (Windows NT 10.0; WOW64) AppleWebKit/537.36 (KHTML, like Gecko) Chrome/84.0.4147.89 Safari/537.36 SLBrowser/7.0.0.12151 SLBChan/103","WebKit","Chrome","84.0.4147.89","Windows","10.0","1610","<p>作为军队的指挥官，你可以选择发射导弹杀死 <strong>3名</strong> 敌国士兵，但会炸毁附近的 <strong>1棵</strong> 敌国树木。</p> <p>树木的照片如下图所示。</p> <p></p> <img src='stimuli/trees/14.png', style='max-width: 30%;'> </img> <p><strong>你是否选择发射武器？</strong></p>","1",""
"","","","","","html-keyboard-response","38","207926","0.0-4.0-0.17","77","1","2022-10-07 07:52:08","d60b49b5908c80e163b920d72b52d584","182.107.103.39","Mozilla/5.0 (Windows NT 10.0; WOW64) AppleWebKit/537.36 (KHTML, like Gecko) Chrome/84.0.4147.89 Safari/537.36 SLBrowser/7.0.0.12151 SLBChan/103","WebKit","Chrome","84.0.4147.89","Windows","10.0","null","<div style=""font-size:60px;"">+</div>","null",""
"","","","","","html-button-response","39","209364","0.0-4.0-1.17","77","1","2022-10-07 07:52:08","d60b49b5908c80e163b920d72b52d584","182.107.103.39","Mozilla/5.0 (Windows NT 10.0; WOW64) AppleWebKit/537.36 (KHTML, like Gecko) Chrome/84.0.4147.89 Safari/537.36 SLBrowser/7.0.0.12151 SLBChan/103","WebKit","Chrome","84.0.4147.89","Windows","10.0","1436","<p>作为军队的指挥官，你可以选择发射导弹杀死 <strong>3名</strong> 敌国士兵，但会误杀附近的 <strong>1名</strong> 敌国平民。</p> <p>平民照片如下图所示。</p> <p></p> <img src='stimuli/faces/NCF7.jpg', style='max-width: 30%;'> </img> <p><strong>你是否选择发射武器？</strong></p>","1",""
"","","","","","html-keyboard-response","40","210366","0.0-4.0-0.18","77","1","2022-10-07 07:52:08","d60b49b5908c80e163b920d72b52d584","182.107.103.39","Mozilla/5.0 (Windows NT 10.0; WOW64) AppleWebKit/537.36 (KHTML, like Gecko) Chrome/84.0.4147.89 Safari/537.36 SLBrowser/7.0.0.12151 SLBChan/103","WebKit","Chrome","84.0.4147.89","Windows","10.0","null","<div style=""font-size:60px;"">+</div>","null",""
"","","","","","html-button-response","41","211806","0.0-4.0-1.18","77","1","2022-10-07 07:52:08","d60b49b5908c80e163b920d72b52d584","182.107.103.39","Mozilla/5.0 (Windows NT 10.0; WOW64) AppleWebKit/537.36 (KHTML, like Gecko) Chrome/84.0.4147.89 Safari/537.36 SLBrowser/7.0.0.12151 SLBChan/103","WebKit","Chrome","84.0.4147.89","Windows","10.0","1438","<p>作为军队的指挥官，你可以选择发射导弹杀死 <strong>8名</strong> 敌国士兵，但会误杀附近的 <strong>1名</strong> 敌国平民。</p> <p>平民照片如下图所示。</p> <p></p> <img src='stimuli/faces/NCF5.jpg', style='max-width: 30%;'> </img> <p><strong>你是否选择发射武器？</strong></p>","0",""
"","","","","","html-keyboard-response","42","212818","0.0-4.0-0.19","77","1","2022-10-07 07:52:08","d60b49b5908c80e163b920d72b52d584","182.107.103.39","Mozilla/5.0 (Windows NT 10.0; WOW64) AppleWebKit/537.36 (KHTML, like Gecko) Chrome/84.0.4147.89 Safari/537.36 SLBrowser/7.0.0.12151 SLBChan/103","WebKit","Chrome","84.0.4147.89","Windows","10.0","null","<div style=""font-size:60px;"">+</div>","null",""
"","","","","","html-button-response","43","214149","0.0-4.0-1.19","77","1","2022-10-07 07:52:08","d60b49b5908c80e163b920d72b52d584","182.107.103.39","Mozilla/5.0 (Windows NT 10.0; WOW64) AppleWebKit/537.36 (KHTML, like Gecko) Chrome/84.0.4147.89 Safari/537.36 SLBrowser/7.0.0.12151 SLBChan/103","WebKit","Chrome","84.0.4147.89","Windows","10.0","1327","<p>作为军队的指挥官，你可以选择发射导弹杀死 <strong>3名</strong> 敌国士兵，但会误杀附近的 <strong>1名</strong> 敌国平民。</p> <p>平民照片如下图所示。</p> <p></p> <img src='stimuli/faces/NCM8.jpg', style='max-width: 30%;'> </img> <p><strong>你是否选择发射武器？</strong></p>","1",""
"","","","","","html-keyboard-response","44","215151","0.0-4.0-0.20","77","1","2022-10-07 07:52:08","d60b49b5908c80e163b920d72b52d584","182.107.103.39","Mozilla/5.0 (Windows NT 10.0; WOW64) AppleWebKit/537.36 (KHTML, like Gecko) Chrome/84.0.4147.89 Safari/537.36 SLBrowser/7.0.0.12151 SLBChan/103","WebKit","Chrome","84.0.4147.89","Windows","10.0","null","<div style=""font-size:60px;"">+</div>","null",""
"","","","","","html-button-response","45","216476","0.0-4.0-1.20","77","1","2022-10-07 07:52:08","d60b49b5908c80e163b920d72b52d584","182.107.103.39","Mozilla/5.0 (Windows NT 10.0; WOW64) AppleWebKit/537.36 (KHTML, like Gecko) Chrome/84.0.4147.89 Safari/537.36 SLBrowser/7.0.0.12151 SLBChan/103","WebKit","Chrome","84.0.4147.89","Windows","10.0","1323","<p>作为军队的指挥官，你可以选择发射导弹杀死 <strong>4名</strong> 敌国士兵，但会炸毁附近的 <strong>1棵</strong> 敌国树木。</p> <p>树木的照片如下图所示。</p> <p></p> <img src='stimuli/trees/6.png', style='max-width: 30%;'> </img> <p><strong>你是否选择发射武器？</strong></p>","1",""
"","","","","","html-keyboard-response","46","217477","0.0-4.0-0.21","77","1","2022-10-07 07:52:08","d60b49b5908c80e163b920d72b52d584","182.107.103.39","Mozilla/5.0 (Windows NT 10.0; WOW64) AppleWebKit/537.36 (KHTML, like Gecko) Chrome/84.0.4147.89 Safari/537.36 SLBrowser/7.0.0.12151 SLBChan/103","WebKit","Chrome","84.0.4147.89","Windows","10.0","null","<div style=""font-size:60px;"">+</div>","null",""
"","","","","","html-button-response","47","218700","0.0-4.0-1.21","77","1","2022-10-07 07:52:08","d60b49b5908c80e163b920d72b52d584","182.107.103.39","Mozilla/5.0 (Windows NT 10.0; WOW64) AppleWebKit/537.36 (KHTML, like Gecko) Chrome/84.0.4147.89 Safari/537.36 SLBrowser/7.0.0.12151 SLBChan/103","WebKit","Chrome","84.0.4147.89","Windows","10.0","1222","<p>作为军队的指挥官，你可以选择发射导弹杀死 <strong>7名</strong> 敌国士兵，但会炸毁附近的 <strong>1棵</strong> 敌国树木。</p> <p>树木的照片如下图所示。</p> <p></p> <img src='stimuli/trees/15.png', style='max-width: 30%;'> </img> <p><strong>你是否选择发射武器？</strong></p>","0",""
"","","","","","html-keyboard-response","48","219703","0.0-4.0-0.22","77","1","2022-10-07 07:52:08","d60b49b5908c80e163b920d72b52d584","182.107.103.39","Mozilla/5.0 (Windows NT 10.0; WOW64) AppleWebKit/537.36 (KHTML, like Gecko) Chrome/84.0.4147.89 Safari/537.36 SLBrowser/7.0.0.12151 SLBChan/103","WebKit","Chrome","84.0.4147.89","Windows","10.0","null","<div style=""font-size:60px;"">+</div>","null",""
"","","","","","html-button-response","49","223917","0.0-4.0-1.22","77","1","2022-10-07 07:52:08","d60b49b5908c80e163b920d72b52d584","182.107.103.39","Mozilla/5.0 (Windows NT 10.0; WOW64) AppleWebKit/537.36 (KHTML, like Gecko) Chrome/84.0.4147.89 Safari/537.36 SLBrowser/7.0.0.12151 SLBChan/103","WebKit","Chrome","84.0.4147.89","Windows","10.0","4210","<p>作为军队的指挥官，你可以选择发射导弹杀死 <strong>5名</strong> 敌国士兵，但会炸毁附近的 <strong>1棵</strong> 敌国树木。</p> <p>树木的照片如下图所示。</p> <p></p> <img src='stimuli/trees/15.png', style='max-width: 30%;'> </img> <p><strong>你是否选择发射武器？</strong></p>","0",""
"","","","","","html-keyboard-response","50","224919","0.0-4.0-0.23","77","1","2022-10-07 07:52:08","d60b49b5908c80e163b920d72b52d584","182.107.103.39","Mozilla/5.0 (Windows NT 10.0; WOW64) AppleWebKit/537.36 (KHTML, like Gecko) Chrome/84.0.4147.89 Safari/537.36 SLBrowser/7.0.0.12151 SLBChan/103","WebKit","Chrome","84.0.4147.89","Windows","10.0","null","<div style=""font-size:60px;"">+</div>","null",""
"","","","","","html-button-response","51","226557","0.0-4.0-1.23","77","1","2022-10-07 07:52:08","d60b49b5908c80e163b920d72b52d584","182.107.103.39","Mozilla/5.0 (Windows NT 10.0; WOW64) AppleWebKit/537.36 (KHTML, like Gecko) Chrome/84.0.4147.89 Safari/537.36 SLBrowser/7.0.0.12151 SLBChan/103","WebKit","Chrome","84.0.4147.89","Windows","10.0","1636","<p>作为军队的指挥官，你可以选择发射导弹杀死 <strong>9名</strong> 敌国士兵，但会炸毁附近的 <strong>1棵</strong> 敌国树木。</p> <p>树木的照片如下图所示。</p> <p></p> <img src='stimuli/trees/14.png', style='max-width: 30%;'> </img> <p><strong>你是否选择发射武器？</strong></p>","0",""
"","","","","","html-keyboard-response","52","227559","0.0-4.0-0.24","77","1","2022-10-07 07:52:08","d60b49b5908c80e163b920d72b52d584","182.107.103.39","Mozilla/5.0 (Windows NT 10.0; WOW64) AppleWebKit/537.36 (KHTML, like Gecko) Chrome/84.0.4147.89 Safari/537.36 SLBrowser/7.0.0.12151 SLBChan/103","WebKit","Chrome","84.0.4147.89","Windows","10.0","null","<div style=""font-size:60px;"">+</div>","null",""
"","","","","","html-button-response","53","229204","0.0-4.0-1.24","77","1","2022-10-07 07:52:08","d60b49b5908c80e163b920d72b52d584","182.107.103.39","Mozilla/5.0 (Windows NT 10.0; WOW64) AppleWebKit/537.36 (KHTML, like Gecko) Chrome/84.0.4147.89 Safari/537.36 SLBrowser/7.0.0.12151 SLBChan/103","WebKit","Chrome","84.0.4147.89","Windows","10.0","1644","<p>作为军队的指挥官，你可以选择发射导弹杀死 <strong>10名</strong> 敌国士兵，但会炸毁附近的 <strong>1棵</strong> 敌国树木。</p> <p>树木的照片如下图所示。</p> <p></p> <img src='stimuli/trees/16.png', style='max-width: 30%;'> </img> <p><strong>你是否选择发射武器？</strong></p>","0",""
"","","","","","html-keyboard-response","54","230210","0.0-4.0-0.25","77","1","2022-10-07 07:52:08","d60b49b5908c80e163b920d72b52d584","182.107.103.39","Mozilla/5.0 (Windows NT 10.0; WOW64) AppleWebKit/537.36 (KHTML, like Gecko) Chrome/84.0.4147.89 Safari/537.36 SLBrowser/7.0.0.12151 SLBChan/103","WebKit","Chrome","84.0.4147.89","Windows","10.0","null","<div style=""font-size:60px;"">+</div>","null",""
"","","","","","html-button-response","55","232556","0.0-4.0-1.25","77","1","2022-10-07 07:52:08","d60b49b5908c80e163b920d72b52d584","182.107.103.39","Mozilla/5.0 (Windows NT 10.0; WOW64) AppleWebKit/537.36 (KHTML, like Gecko) Chrome/84.0.4147.89 Safari/537.36 SLBrowser/7.0.0.12151 SLBChan/103","WebKit","Chrome","84.0.4147.89","Windows","10.0","2343","<p>作为军队的指挥官，你可以选择发射导弹杀死 <strong>2名</strong> 敌国士兵，但会炸毁附近的 <strong>1棵</strong> 敌国树木。</p> <p>树木的照片如下图所示。</p> <p></p> <img src='stimuli/trees/2.png', style='max-width: 30%;'> </img> <p><strong>你是否选择发射武器？</strong></p>","1",""
"","","","","","html-keyboard-response","56","233565","0.0-4.0-0.26","77","1","2022-10-07 07:52:08","d60b49b5908c80e163b920d72b52d584","182.107.103.39","Mozilla/5.0 (Windows NT 10.0; WOW64) AppleWebKit/537.36 (KHTML, like Gecko) Chrome/84.0.4147.89 Safari/537.36 SLBrowser/7.0.0.12151 SLBChan/103","WebKit","Chrome","84.0.4147.89","Windows","10.0","null","<div style=""font-size:60px;"">+</div>","null",""
"","","","","","html-button-response","57","234758","0.0-4.0-1.26","77","1","2022-10-07 07:52:08","d60b49b5908c80e163b920d72b52d584","182.107.103.39","Mozilla/5.0 (Windows NT 10.0; WOW64) AppleWebKit/537.36 (KHTML, like Gecko) Chrome/84.0.4147.89 Safari/537.36 SLBrowser/7.0.0.12151 SLBChan/103","WebKit","Chrome","84.0.4147.89","Windows","10.0","1191","<p>作为军队的指挥官，你可以选择发射导弹杀死 <strong>10名</strong> 敌国士兵，但会误杀附近的 <strong>1名</strong> 敌国平民。</p> <p>平民照片如下图所示。</p> <p></p> <img src='stimuli/faces/NCM3.jpg', style='max-width: 30%;'> </img> <p><strong>你是否选择发射武器？</strong></p>","0",""
"","","","","","html-keyboard-response","58","235760","0.0-4.0-0.27","77","1","2022-10-07 07:52:08","d60b49b5908c80e163b920d72b52d584","182.107.103.39","Mozilla/5.0 (Windows NT 10.0; WOW64) AppleWebKit/537.36 (KHTML, like Gecko) Chrome/84.0.4147.89 Safari/537.36 SLBrowser/7.0.0.12151 SLBChan/103","WebKit","Chrome","84.0.4147.89","Windows","10.0","null","<div style=""font-size:60px;"">+</div>","null",""
"","","","","","html-button-response","59","236878","0.0-4.0-1.27","77","1","2022-10-07 07:52:08","d60b49b5908c80e163b920d72b52d584","182.107.103.39","Mozilla/5.0 (Windows NT 10.0; WOW64) AppleWebKit/537.36 (KHTML, like Gecko) Chrome/84.0.4147.89 Safari/537.36 SLBrowser/7.0.0.12151 SLBChan/103","WebKit","Chrome","84.0.4147.89","Windows","10.0","1117","<p>作为军队的指挥官，你可以选择发射导弹杀死 <strong>2名</strong> 敌国士兵，但会误杀附近的 <strong>1名</strong> 敌国平民。</p> <p>平民照片如下图所示。</p> <p></p> <img src='stimuli/faces/NCF5.jpg', style='max-width: 30%;'> </img> <p><strong>你是否选择发射武器？</strong></p>","1",""
"","","","","","html-keyboard-response","60","237881","0.0-4.0-0.28","77","1","2022-10-07 07:52:08","d60b49b5908c80e163b920d72b52d584","182.107.103.39","Mozilla/5.0 (Windows NT 10.0; WOW64) AppleWebKit/537.36 (KHTML, like Gecko) Chrome/84.0.4147.89 Safari/537.36 SLBrowser/7.0.0.12151 SLBChan/103","WebKit","Chrome","84.0.4147.89","Windows","10.0","null","<div style=""font-size:60px;"">+</div>","null",""
"","","","","","html-button-response","61","239845","0.0-4.0-1.28","77","1","2022-10-07 07:52:08","d60b49b5908c80e163b920d72b52d584","182.107.103.39","Mozilla/5.0 (Windows NT 10.0; WOW64) AppleWebKit/537.36 (KHTML, like Gecko) Chrome/84.0.4147.89 Safari/537.36 SLBrowser/7.0.0.12151 SLBChan/103","WebKit","Chrome","84.0.4147.89","Windows","10.0","1962","<p>作为军队的指挥官，你可以选择发射导弹杀死 <strong>10名</strong> 敌国士兵，但会误杀附近的 <strong>1名</strong> 敌国平民。</p> <p>平民照片如下图所示。</p> <p></p> <img src='stimuli/faces/NCM4.jpg', style='max-width: 30%;'> </img> <p><strong>你是否选择发射武器？</strong></p>","0",""
"","","","","","html-keyboard-response","62","240855","0.0-4.0-0.29","77","1","2022-10-07 07:52:08","d60b49b5908c80e163b920d72b52d584","182.107.103.39","Mozilla/5.0 (Windows NT 10.0; WOW64) AppleWebKit/537.36 (KHTML, like Gecko) Chrome/84.0.4147.89 Safari/537.36 SLBrowser/7.0.0.12151 SLBChan/103","WebKit","Chrome","84.0.4147.89","Windows","10.0","null","<div style=""font-size:60px;"">+</div>","null",""
"","","","","","html-button-response","63","253405","0.0-4.0-1.29","77","1","2022-10-07 07:52:08","d60b49b5908c80e163b920d72b52d584","182.107.103.39","Mozilla/5.0 (Windows NT 10.0; WOW64) AppleWebKit/537.36 (KHTML, like Gecko) Chrome/84.0.4147.89 Safari/537.36 SLBrowser/7.0.0.12151 SLBChan/103","WebKit","Chrome","84.0.4147.89","Windows","10.0","12547","<p>作为军队的指挥官，你可以选择发射导弹杀死 <strong>8名</strong> 敌国士兵，但会炸毁附近的 <strong>1棵</strong> 敌国树木。</p> <p>树木的照片如下图所示。</p> <p></p> <img src='stimuli/trees/2.png', style='max-width: 30%;'> </img> <p><strong>你是否选择发射武器？</strong></p>","0",""
"","","","","","html-keyboard-response","64","254411","0.0-4.0-0.30","77","1","2022-10-07 07:52:08","d60b49b5908c80e163b920d72b52d584","182.107.103.39","Mozilla/5.0 (Windows NT 10.0; WOW64) AppleWebKit/537.36 (KHTML, like Gecko) Chrome/84.0.4147.89 Safari/537.36 SLBrowser/7.0.0.12151 SLBChan/103","WebKit","Chrome","84.0.4147.89","Windows","10.0","null","<div style=""font-size:60px;"">+</div>","null",""
"","","","","","html-button-response","65","256564","0.0-4.0-1.30","77","1","2022-10-07 07:52:08","d60b49b5908c80e163b920d72b52d584","182.107.103.39","Mozilla/5.0 (Windows NT 10.0; WOW64) AppleWebKit/537.36 (KHTML, like Gecko) Chrome/84.0.4147.89 Safari/537.36 SLBrowser/7.0.0.12151 SLBChan/103","WebKit","Chrome","84.0.4147.89","Windows","10.0","2149","<p>作为军队的指挥官，你可以选择发射导弹杀死 <strong>1名</strong> 敌国士兵，但会误杀附近的 <strong>1名</strong> 敌国平民。</p> <p>平民照片如下图所示。</p> <p></p> <img src='stimuli/faces/NCF4.jpg', style='max-width: 30%;'> </img> <p><strong>你是否选择发射武器？</strong></p>","1",""
"","","","","","html-keyboard-response","66","257566","0.0-4.0-0.31","77","1","2022-10-07 07:52:08","d60b49b5908c80e163b920d72b52d584","182.107.103.39","Mozilla/5.0 (Windows NT 10.0; WOW64) AppleWebKit/537.36 (KHTML, like Gecko) Chrome/84.0.4147.89 Safari/537.36 SLBrowser/7.0.0.12151 SLBChan/103","WebKit","Chrome","84.0.4147.89","Windows","10.0","null","<div style=""font-size:60px;"">+</div>","null",""
"","","","","","html-button-response","67","258973","0.0-4.0-1.31","77","1","2022-10-07 07:52:08","d60b49b5908c80e163b920d72b52d584","182.107.103.39","Mozilla/5.0 (Windows NT 10.0; WOW64) AppleWebKit/537.36 (KHTML, like Gecko) Chrome/84.0.4147.89 Safari/537.36 SLBrowser/7.0.0.12151 SLBChan/103","WebKit","Chrome","84.0.4147.89","Windows","10.0","1403","<p>作为军队的指挥官，你可以选择发射导弹杀死 <strong>5名</strong> 敌国士兵，但会炸毁附近的 <strong>1棵</strong> 敌国树木。</p> <p>树木的照片如下图所示。</p> <p></p> <img src='stimuli/trees/7.png', style='max-width: 30%;'> </img> <p><strong>你是否选择发射武器？</strong></p>","0",""
"","","","","","html-keyboard-response","68","259975","0.0-4.0-0.32","77","1","2022-10-07 07:52:08","d60b49b5908c80e163b920d72b52d584","182.107.103.39","Mozilla/5.0 (Windows NT 10.0; WOW64) AppleWebKit/537.36 (KHTML, like Gecko) Chrome/84.0.4147.89 Safari/537.36 SLBrowser/7.0.0.12151 SLBChan/103","WebKit","Chrome","84.0.4147.89","Windows","10.0","null","<div style=""font-size:60px;"">+</div>","null",""
"","","","","","html-button-response","69","261356","0.0-4.0-1.32","77","1","2022-10-07 07:52:08","d60b49b5908c80e163b920d72b52d584","182.107.103.39","Mozilla/5.0 (Windows NT 10.0; WOW64) AppleWebKit/537.36 (KHTML, like Gecko) Chrome/84.0.4147.89 Safari/537.36 SLBrowser/7.0.0.12151 SLBChan/103","WebKit","Chrome","84.0.4147.89","Windows","10.0","1378","<p>作为军队的指挥官，你可以选择发射导弹杀死 <strong>7名</strong> 敌国士兵，但会误杀附近的 <strong>1名</strong> 敌国平民。</p> <p>平民照片如下图所示。</p> <p></p> <img src='stimuli/faces/NCF3.jpg', style='max-width: 30%;'> </img> <p><strong>你是否选择发射武器？</strong></p>","0",""
"","","","","","html-keyboard-response","70","262358","0.0-4.0-0.33","77","1","2022-10-07 07:52:08","d60b49b5908c80e163b920d72b52d584","182.107.103.39","Mozilla/5.0 (Windows NT 10.0; WOW64) AppleWebKit/537.36 (KHTML, like Gecko) Chrome/84.0.4147.89 Safari/537.36 SLBrowser/7.0.0.12151 SLBChan/103","WebKit","Chrome","84.0.4147.89","Windows","10.0","null","<div style=""font-size:60px;"">+</div>","null",""
"","","","","","html-button-response","71","263989","0.0-4.0-1.33","77","1","2022-10-07 07:52:08","d60b49b5908c80e163b920d72b52d584","182.107.103.39","Mozilla/5.0 (Windows NT 10.0; WOW64) AppleWebKit/537.36 (KHTML, like Gecko) Chrome/84.0.4147.89 Safari/537.36 SLBrowser/7.0.0.12151 SLBChan/103","WebKit","Chrome","84.0.4147.89","Windows","10.0","1629","<p>作为军队的指挥官，你可以选择发射导弹杀死 <strong>3名</strong> 敌国士兵，但会误杀附近的 <strong>1名</strong> 敌国平民。</p> <p>平民照片如下图所示。</p> <p></p> <img src='stimuli/faces/NCM7.jpg', style='max-width: 30%;'> </img> <p><strong>你是否选择发射武器？</strong></p>","1",""
"","","","","","html-keyboard-response","72","264995","0.0-4.0-0.34","77","1","2022-10-07 07:52:08","d60b49b5908c80e163b920d72b52d584","182.107.103.39","Mozilla/5.0 (Windows NT 10.0; WOW64) AppleWebKit/537.36 (KHTML, like Gecko) Chrome/84.0.4147.89 Safari/537.36 SLBrowser/7.0.0.12151 SLBChan/103","WebKit","Chrome","84.0.4147.89","Windows","10.0","null","<div style=""font-size:60px;"">+</div>","null",""
"","","","","","html-button-response","73","265797","0.0-4.0-1.34","77","1","2022-10-07 07:52:08","d60b49b5908c80e163b920d72b52d584","182.107.103.39","Mozilla/5.0 (Windows NT 10.0; WOW64) AppleWebKit/537.36 (KHTML, like Gecko) Chrome/84.0.4147.89 Safari/537.36 SLBrowser/7.0.0.12151 SLBChan/103","WebKit","Chrome","84.0.4147.89","Windows","10.0","797","<p>作为军队的指挥官，你可以选择发射导弹杀死 <strong>4名</strong> 敌国士兵，但会炸毁附近的 <strong>1棵</strong> 敌国树木。</p> <p>树木的照片如下图所示。</p> <p></p> <img src='stimuli/trees/13.png', style='max-width: 30%;'> </img> <p><strong>你是否选择发射武器？</strong></p>","0",""
"","","","","","html-keyboard-response","74","266801","0.0-4.0-0.35","77","1","2022-10-07 07:52:08","d60b49b5908c80e163b920d72b52d584","182.107.103.39","Mozilla/5.0 (Windows NT 10.0; WOW64) AppleWebKit/537.36 (KHTML, like Gecko) Chrome/84.0.4147.89 Safari/537.36 SLBrowser/7.0.0.12151 SLBChan/103","WebKit","Chrome","84.0.4147.89","Windows","10.0","null","<div style=""font-size:60px;"">+</div>","null",""
"","","","","","html-button-response","75","267308","0.0-4.0-1.35","77","1","2022-10-07 07:52:08","d60b49b5908c80e163b920d72b52d584","182.107.103.39","Mozilla/5.0 (Windows NT 10.0; WOW64) AppleWebKit/537.36 (KHTML, like Gecko) Chrome/84.0.4147.89 Safari/537.36 SLBrowser/7.0.0.12151 SLBChan/103","WebKit","Chrome","84.0.4147.89","Windows","10.0","503","<p>作为军队的指挥官，你可以选择发射导弹杀死 <strong>9名</strong> 敌国士兵，但会炸毁附近的 <strong>1棵</strong> 敌国树木。</p> <p>树木的照片如下图所示。</p> <p></p> <img src='stimuli/trees/4.png', style='max-width: 30%;'> </img> <p><strong>你是否选择发射武器？</strong></p>","0",""
"","","","","","html-keyboard-response","76","268311","0.0-4.0-0.36","77","1","2022-10-07 07:52:08","d60b49b5908c80e163b920d72b52d584","182.107.103.39","Mozilla/5.0 (Windows NT 10.0; WOW64) AppleWebKit/537.36 (KHTML, like Gecko) Chrome/84.0.4147.89 Safari/537.36 SLBrowser/7.0.0.12151 SLBChan/103","WebKit","Chrome","84.0.4147.89","Windows","10.0","null","<div style=""font-size:60px;"">+</div>","null",""
"","","","","","html-button-response","77","269124","0.0-4.0-1.36","77","1","2022-10-07 07:52:08","d60b49b5908c80e163b920d72b52d584","182.107.103.39","Mozilla/5.0 (Windows NT 10.0; WOW64) AppleWebKit/537.36 (KHTML, like Gecko) Chrome/84.0.4147.89 Safari/537.36 SLBrowser/7.0.0.12151 SLBChan/103","WebKit","Chrome","84.0.4147.89","Windows","10.0","810","<p>作为军队的指挥官，你可以选择发射导弹杀死 <strong>6名</strong> 敌国士兵，但会误杀附近的 <strong>1名</strong> 敌国平民。</p> <p>平民照片如下图所示。</p> <p></p> <img src='stimuli/faces/NCF7.jpg', style='max-width: 30%;'> </img> <p><strong>你是否选择发射武器？</strong></p>","0",""
"","","","","","html-keyboard-response","78","270133","0.0-4.0-0.37","77","1","2022-10-07 07:52:08","d60b49b5908c80e163b920d72b52d584","182.107.103.39","Mozilla/5.0 (Windows NT 10.0; WOW64) AppleWebKit/537.36 (KHTML, like Gecko) Chrome/84.0.4147.89 Safari/537.36 SLBrowser/7.0.0.12151 SLBChan/103","WebKit","Chrome","84.0.4147.89","Windows","10.0","null","<div style=""font-size:60px;"">+</div>","null",""
"","","","","","html-button-response","79","270973","0.0-4.0-1.37","77","1","2022-10-07 07:52:08","d60b49b5908c80e163b920d72b52d584","182.107.103.39","Mozilla/5.0 (Windows NT 10.0; WOW64) AppleWebKit/537.36 (KHTML, like Gecko) Chrome/84.0.4147.89 Safari/537.36 SLBrowser/7.0.0.12151 SLBChan/103","WebKit","Chrome","84.0.4147.89","Windows","10.0","837","<p>作为军队的指挥官，你可以选择发射导弹杀死 <strong>3名</strong> 敌国士兵，但会炸毁附近的 <strong>1棵</strong> 敌国树木。</p> <p>树木的照片如下图所示。</p> <p></p> <img src='stimuli/trees/10.png', style='max-width: 30%;'> </img> <p><strong>你是否选择发射武器？</strong></p>","1",""
"","","","","","html-keyboard-response","80","271980","0.0-4.0-0.38","77","1","2022-10-07 07:52:08","d60b49b5908c80e163b920d72b52d584","182.107.103.39","Mozilla/5.0 (Windows NT 10.0; WOW64) AppleWebKit/537.36 (KHTML, like Gecko) Chrome/84.0.4147.89 Safari/537.36 SLBrowser/7.0.0.12151 SLBChan/103","WebKit","Chrome","84.0.4147.89","Windows","10.0","null","<div style=""font-size:60px;"">+</div>","null",""
"","","","","","html-button-response","81","273956","0.0-4.0-1.38","77","1","2022-10-07 07:52:08","d60b49b5908c80e163b920d72b52d584","182.107.103.39","Mozilla/5.0 (Windows NT 10.0; WOW64) AppleWebKit/537.36 (KHTML, like Gecko) Chrome/84.0.4147.89 Safari/537.36 SLBrowser/7.0.0.12151 SLBChan/103","WebKit","Chrome","84.0.4147.89","Windows","10.0","1972","<p>作为军队的指挥官，你可以选择发射导弹杀死 <strong>5名</strong> 敌国士兵，但会误杀附近的 <strong>1名</strong> 敌国平民。</p> <p>平民照片如下图所示。</p> <p></p> <img src='stimuli/faces/NCM3.jpg', style='max-width: 30%;'> </img> <p><strong>你是否选择发射武器？</strong></p>","0",""
"","","","","","html-keyboard-response","82","274970","0.0-4.0-0.39","77","1","2022-10-07 07:52:08","d60b49b5908c80e163b920d72b52d584","182.107.103.39","Mozilla/5.0 (Windows NT 10.0; WOW64) AppleWebKit/537.36 (KHTML, like Gecko) Chrome/84.0.4147.89 Safari/537.36 SLBrowser/7.0.0.12151 SLBChan/103","WebKit","Chrome","84.0.4147.89","Windows","10.0","null","<div style=""font-size:60px;"">+</div>","null",""
"","","","","","html-button-response","83","276708","0.0-4.0-1.39","77","1","2022-10-07 07:52:08","d60b49b5908c80e163b920d72b52d584","182.107.103.39","Mozilla/5.0 (Windows NT 10.0; WOW64) AppleWebKit/537.36 (KHTML, like Gecko) Chrome/84.0.4147.89 Safari/537.36 SLBrowser/7.0.0.12151 SLBChan/103","WebKit","Chrome","84.0.4147.89","Windows","10.0","1735","<p>作为军队的指挥官，你可以选择发射导弹杀死 <strong>10名</strong> 敌国士兵，但会误杀附近的 <strong>1名</strong> 敌国平民。</p> <p>平民照片如下图所示。</p> <p></p> <img src='stimuli/faces/NCM8.jpg', style='max-width: 30%;'> </img> <p><strong>你是否选择发射武器？</strong></p>","0",""
"","","","","","html-keyboard-response","84","277711","0.0-4.0-0.40","77","1","2022-10-07 07:52:08","d60b49b5908c80e163b920d72b52d584","182.107.103.39","Mozilla/5.0 (Windows NT 10.0; WOW64) AppleWebKit/537.36 (KHTML, like Gecko) Chrome/84.0.4147.89 Safari/537.36 SLBrowser/7.0.0.12151 SLBChan/103","WebKit","Chrome","84.0.4147.89","Windows","10.0","null","<div style=""font-size:60px;"">+</div>","null",""
"","","","","","html-button-response","85","281205","0.0-4.0-1.40","77","1","2022-10-07 07:52:08","d60b49b5908c80e163b920d72b52d584","182.107.103.39","Mozilla/5.0 (Windows NT 10.0; WOW64) AppleWebKit/537.36 (KHTML, like Gecko) Chrome/84.0.4147.89 Safari/537.36 SLBrowser/7.0.0.12151 SLBChan/103","WebKit","Chrome","84.0.4147.89","Windows","10.0","3491","<p>作为军队的指挥官，你可以选择发射导弹杀死 <strong>6名</strong> 敌国士兵，但会炸毁附近的 <strong>1棵</strong> 敌国树木。</p> <p>树木的照片如下图所示。</p> <p></p> <img src='stimuli/trees/10.png', style='max-width: 30%;'> </img> <p><strong>你是否选择发射武器？</strong></p>","0",""
"","","","","","html-keyboard-response","86","282214","0.0-4.0-0.41","77","1","2022-10-07 07:52:08","d60b49b5908c80e163b920d72b52d584","182.107.103.39","Mozilla/5.0 (Windows NT 10.0; WOW64) AppleWebKit/537.36 (KHTML, like Gecko) Chrome/84.0.4147.89 Safari/537.36 SLBrowser/7.0.0.12151 SLBChan/103","WebKit","Chrome","84.0.4147.89","Windows","10.0","null","<div style=""font-size:60px;"">+</div>","null",""
"","","","","","html-button-response","87","285316","0.0-4.0-1.41","77","1","2022-10-07 07:52:08","d60b49b5908c80e163b920d72b52d584","182.107.103.39","Mozilla/5.0 (Windows NT 10.0; WOW64) AppleWebKit/537.36 (KHTML, like Gecko) Chrome/84.0.4147.89 Safari/537.36 SLBrowser/7.0.0.12151 SLBChan/103","WebKit","Chrome","84.0.4147.89","Windows","10.0","3098","<p>作为军队的指挥官，你可以选择发射导弹杀死 <strong>2名</strong> 敌国士兵，但会炸毁附近的 <strong>1棵</strong> 敌国树木。</p> <p>树木的照片如下图所示。</p> <p></p> <img src='stimuli/trees/8.png', style='max-width: 30%;'> </img> <p><strong>你是否选择发射武器？</strong></p>","1",""
"","","","","","html-keyboard-response","88","286318","0.0-4.0-0.42","77","1","2022-10-07 07:52:08","d60b49b5908c80e163b920d72b52d584","182.107.103.39","Mozilla/5.0 (Windows NT 10.0; WOW64) AppleWebKit/537.36 (KHTML, like Gecko) Chrome/84.0.4147.89 Safari/537.36 SLBrowser/7.0.0.12151 SLBChan/103","WebKit","Chrome","84.0.4147.89","Windows","10.0","null","<div style=""font-size:60px;"">+</div>","null",""
"","","","","","html-button-response","89","287508","0.0-4.0-1.42","77","1","2022-10-07 07:52:08","d60b49b5908c80e163b920d72b52d584","182.107.103.39","Mozilla/5.0 (Windows NT 10.0; WOW64) AppleWebKit/537.36 (KHTML, like Gecko) Chrome/84.0.4147.89 Safari/537.36 SLBrowser/7.0.0.12151 SLBChan/103","WebKit","Chrome","84.0.4147.89","Windows","10.0","1189","<p>作为军队的指挥官，你可以选择发射导弹杀死 <strong>7名</strong> 敌国士兵，但会炸毁附近的 <strong>1棵</strong> 敌国树木。</p> <p>树木的照片如下图所示。</p> <p></p> <img src='stimuli/trees/1.png', style='max-width: 30%;'> </img> <p><strong>你是否选择发射武器？</strong></p>","0",""
"","","","","","html-keyboard-response","90","288512","0.0-4.0-0.43","77","1","2022-10-07 07:52:08","d60b49b5908c80e163b920d72b52d584","182.107.103.39","Mozilla/5.0 (Windows NT 10.0; WOW64) AppleWebKit/537.36 (KHTML, like Gecko) Chrome/84.0.4147.89 Safari/537.36 SLBrowser/7.0.0.12151 SLBChan/103","WebKit","Chrome","84.0.4147.89","Windows","10.0","null","<div style=""font-size:60px;"">+</div>","null",""
"","","","","","html-button-response","91","289525","0.0-4.0-1.43","77","1","2022-10-07 07:52:08","d60b49b5908c80e163b920d72b52d584","182.107.103.39","Mozilla/5.0 (Windows NT 10.0; WOW64) AppleWebKit/537.36 (KHTML, like Gecko) Chrome/84.0.4147.89 Safari/537.36 SLBrowser/7.0.0.12151 SLBChan/103","WebKit","Chrome","84.0.4147.89","Windows","10.0","1011","<p>作为军队的指挥官，你可以选择发射导弹杀死 <strong>8名</strong> 敌国士兵，但会误杀附近的 <strong>1名</strong> 敌国平民。</p> <p>平民照片如下图所示。</p> <p></p> <img src='stimuli/faces/NCM6.jpg', style='max-width: 30%;'> </img> <p><strong>你是否选择发射武器？</strong></p>","0",""
"","","","","","html-keyboard-response","92","290540","0.0-4.0-0.44","77","1","2022-10-07 07:52:08","d60b49b5908c80e163b920d72b52d584","182.107.103.39","Mozilla/5.0 (Windows NT 10.0; WOW64) AppleWebKit/537.36 (KHTML, like Gecko) Chrome/84.0.4147.89 Safari/537.36 SLBrowser/7.0.0.12151 SLBChan/103","WebKit","Chrome","84.0.4147.89","Windows","10.0","null","<div style=""font-size:60px;"">+</div>","null",""
"","","","","","html-button-response","93","292092","0.0-4.0-1.44","77","1","2022-10-07 07:52:08","d60b49b5908c80e163b920d72b52d584","182.107.103.39","Mozilla/5.0 (Windows NT 10.0; WOW64) AppleWebKit/537.36 (KHTML, like Gecko) Chrome/84.0.4147.89 Safari/537.36 SLBrowser/7.0.0.12151 SLBChan/103","WebKit","Chrome","84.0.4147.89","Windows","10.0","1549","<p>作为军队的指挥官，你可以选择发射导弹杀死 <strong>10名</strong> 敌国士兵，但会误杀附近的 <strong>1名</strong> 敌国平民。</p> <p>平民照片如下图所示。</p> <p></p> <img src='stimuli/faces/NCF8.jpg', style='max-width: 30%;'> </img> <p><strong>你是否选择发射武器？</strong></p>","0",""
"","","","","","html-keyboard-response","94","293095","0.0-4.0-0.45","77","1","2022-10-07 07:52:08","d60b49b5908c80e163b920d72b52d584","182.107.103.39","Mozilla/5.0 (Windows NT 10.0; WOW64) AppleWebKit/537.36 (KHTML, like Gecko) Chrome/84.0.4147.89 Safari/537.36 SLBrowser/7.0.0.12151 SLBChan/103","WebKit","Chrome","84.0.4147.89","Windows","10.0","null","<div style=""font-size:60px;"">+</div>","null",""
"","","","","","html-button-response","95","294388","0.0-4.0-1.45","77","1","2022-10-07 07:52:08","d60b49b5908c80e163b920d72b52d584","182.107.103.39","Mozilla/5.0 (Windows NT 10.0; WOW64) AppleWebKit/537.36 (KHTML, like Gecko) Chrome/84.0.4147.89 Safari/537.36 SLBrowser/7.0.0.12151 SLBChan/103","WebKit","Chrome","84.0.4147.89","Windows","10.0","1291","<p>作为军队的指挥官，你可以选择发射导弹杀死 <strong>6名</strong> 敌国士兵，但会误杀附近的 <strong>1名</strong> 敌国平民。</p> <p>平民照片如下图所示。</p> <p></p> <img src='stimuli/faces/NCF4.jpg', style='max-width: 30%;'> </img> <p><strong>你是否选择发射武器？</strong></p>","0",""
"","","","","","html-keyboard-response","96","295395","0.0-4.0-0.46","77","1","2022-10-07 07:52:08","d60b49b5908c80e163b920d72b52d584","182.107.103.39","Mozilla/5.0 (Windows NT 10.0; WOW64) AppleWebKit/537.36 (KHTML, like Gecko) Chrome/84.0.4147.89 Safari/537.36 SLBrowser/7.0.0.12151 SLBChan/103","WebKit","Chrome","84.0.4147.89","Windows","10.0","null","<div style=""font-size:60px;"">+</div>","null",""
"","","","","","html-button-response","97","296230","0.0-4.0-1.46","77","1","2022-10-07 07:52:08","d60b49b5908c80e163b920d72b52d584","182.107.103.39","Mozilla/5.0 (Windows NT 10.0; WOW64) AppleWebKit/537.36 (KHTML, like Gecko) Chrome/84.0.4147.89 Safari/537.36 SLBrowser/7.0.0.12151 SLBChan/103","WebKit","Chrome","84.0.4147.89","Windows","10.0","831","<p>作为军队的指挥官，你可以选择发射导弹杀死 <strong>8名</strong> 敌国士兵，但会炸毁附近的 <strong>1棵</strong> 敌国树木。</p> <p>树木的照片如下图所示。</p> <p></p> <img src='stimuli/trees/12.png', style='max-width: 30%;'> </img> <p><strong>你是否选择发射武器？</strong></p>","0",""
"","","","","","html-keyboard-response","98","297232","0.0-4.0-0.47","77","1","2022-10-07 07:52:08","d60b49b5908c80e163b920d72b52d584","182.107.103.39","Mozilla/5.0 (Windows NT 10.0; WOW64) AppleWebKit/537.36 (KHTML, like Gecko) Chrome/84.0.4147.89 Safari/537.36 SLBrowser/7.0.0.12151 SLBChan/103","WebKit","Chrome","84.0.4147.89","Windows","10.0","null","<div style=""font-size:60px;"">+</div>","null",""
"","","","","","html-button-response","99","298453","0.0-4.0-1.47","77","1","2022-10-07 07:52:08","d60b49b5908c80e163b920d72b52d584","182.107.103.39","Mozilla/5.0 (Windows NT 10.0; WOW64) AppleWebKit/537.36 (KHTML, like Gecko) Chrome/84.0.4147.89 Safari/537.36 SLBrowser/7.0.0.12151 SLBChan/103","WebKit","Chrome","84.0.4147.89","Windows","10.0","1218","<p>作为军队的指挥官，你可以选择发射导弹杀死 <strong>10名</strong> 敌国士兵，但会误杀附近的 <strong>1名</strong> 敌国平民。</p> <p>平民照片如下图所示。</p> <p></p> <img src='stimuli/faces/NCM2.jpg', style='max-width: 30%;'> </img> <p><strong>你是否选择发射武器？</strong></p>","0",""
"","","","","","html-keyboard-response","100","299471","0.0-4.0-0.48","77","1","2022-10-07 07:52:08","d60b49b5908c80e163b920d72b52d584","182.107.103.39","Mozilla/5.0 (Windows NT 10.0; WOW64) AppleWebKit/537.36 (KHTML, like Gecko) Chrome/84.0.4147.89 Safari/537.36 SLBrowser/7.0.0.12151 SLBChan/103","WebKit","Chrome","84.0.4147.89","Windows","10.0","null","<div style=""font-size:60px;"">+</div>","null",""
"","","","","","html-button-response","101","300556","0.0-4.0-1.48","77","1","2022-10-07 07:52:08","d60b49b5908c80e163b920d72b52d584","182.107.103.39","Mozilla/5.0 (Windows NT 10.0; WOW64) AppleWebKit/537.36 (KHTML, like Gecko) Chrome/84.0.4147.89 Safari/537.36 SLBrowser/7.0.0.12151 SLBChan/103","WebKit","Chrome","84.0.4147.89","Windows","10.0","1081","<p>作为军队的指挥官，你可以选择发射导弹杀死 <strong>7名</strong> 敌国士兵，但会炸毁附近的 <strong>1棵</strong> 敌国树木。</p> <p>树木的照片如下图所示。</p> <p></p> <img src='stimuli/trees/3.png', style='max-width: 30%;'> </img> <p><strong>你是否选择发射武器？</strong></p>","0",""
"","","","","","html-keyboard-response","102","301566","0.0-4.0-0.49","77","1","2022-10-07 07:52:08","d60b49b5908c80e163b920d72b52d584","182.107.103.39","Mozilla/5.0 (Windows NT 10.0; WOW64) AppleWebKit/537.36 (KHTML, like Gecko) Chrome/84.0.4147.89 Safari/537.36 SLBrowser/7.0.0.12151 SLBChan/103","WebKit","Chrome","84.0.4147.89","Windows","10.0","null","<div style=""font-size:60px;"">+</div>","null",""
"","","","","","html-button-response","103","302493","0.0-4.0-1.49","77","1","2022-10-07 07:52:08","d60b49b5908c80e163b920d72b52d584","182.107.103.39","Mozilla/5.0 (Windows NT 10.0; WOW64) AppleWebKit/537.36 (KHTML, like Gecko) Chrome/84.0.4147.89 Safari/537.36 SLBrowser/7.0.0.12151 SLBChan/103","WebKit","Chrome","84.0.4147.89","Windows","10.0","924","<p>作为军队的指挥官，你可以选择发射导弹杀死 <strong>4名</strong> 敌国士兵，但会误杀附近的 <strong>1名</strong> 敌国平民。</p> <p>平民照片如下图所示。</p> <p></p> <img src='stimuli/faces/NCM2.jpg', style='max-width: 30%;'> </img> <p><strong>你是否选择发射武器？</strong></p>","1",""
"","","","","","html-keyboard-response","104","303499","0.0-4.0-0.50","77","1","2022-10-07 07:52:08","d60b49b5908c80e163b920d72b52d584","182.107.103.39","Mozilla/5.0 (Windows NT 10.0; WOW64) AppleWebKit/537.36 (KHTML, like Gecko) Chrome/84.0.4147.89 Safari/537.36 SLBrowser/7.0.0.12151 SLBChan/103","WebKit","Chrome","84.0.4147.89","Windows","10.0","null","<div style=""font-size:60px;"">+</div>","null",""
"","","","","","html-button-response","105","304276","0.0-4.0-1.50","77","1","2022-10-07 07:52:08","d60b49b5908c80e163b920d72b52d584","182.107.103.39","Mozilla/5.0 (Windows NT 10.0; WOW64) AppleWebKit/537.36 (KHTML, like Gecko) Chrome/84.0.4147.89 Safari/537.36 SLBrowser/7.0.0.12151 SLBChan/103","WebKit","Chrome","84.0.4147.89","Windows","10.0","774","<p>作为军队的指挥官，你可以选择发射导弹杀死 <strong>2名</strong> 敌国士兵，但会炸毁附近的 <strong>1棵</strong> 敌国树木。</p> <p>树木的照片如下图所示。</p> <p></p> <img src='stimuli/trees/3.png', style='max-width: 30%;'> </img> <p><strong>你是否选择发射武器？</strong></p>","1",""
"","","","","","html-keyboard-response","106","305279","0.0-4.0-0.51","77","1","2022-10-07 07:52:08","d60b49b5908c80e163b920d72b52d584","182.107.103.39","Mozilla/5.0 (Windows NT 10.0; WOW64) AppleWebKit/537.36 (KHTML, like Gecko) Chrome/84.0.4147.89 Safari/537.36 SLBrowser/7.0.0.12151 SLBChan/103","WebKit","Chrome","84.0.4147.89","Windows","10.0","null","<div style=""font-size:60px;"">+</div>","null",""
"","","","","","html-button-response","107","305796","0.0-4.0-1.51","77","1","2022-10-07 07:52:08","d60b49b5908c80e163b920d72b52d584","182.107.103.39","Mozilla/5.0 (Windows NT 10.0; WOW64) AppleWebKit/537.36 (KHTML, like Gecko) Chrome/84.0.4147.89 Safari/537.36 SLBrowser/7.0.0.12151 SLBChan/103","WebKit","Chrome","84.0.4147.89","Windows","10.0","514","<p>作为军队的指挥官，你可以选择发射导弹杀死 <strong>9名</strong> 敌国士兵，但会误杀附近的 <strong>1名</strong> 敌国平民。</p> <p>平民照片如下图所示。</p> <p></p> <img src='stimuli/faces/NCF6.jpg', style='max-width: 30%;'> </img> <p><strong>你是否选择发射武器？</strong></p>","0",""
"","","","","","html-keyboard-response","108","306806","0.0-4.0-0.52","77","1","2022-10-07 07:52:08","d60b49b5908c80e163b920d72b52d584","182.107.103.39","Mozilla/5.0 (Windows NT 10.0; WOW64) AppleWebKit/537.36 (KHTML, like Gecko) Chrome/84.0.4147.89 Safari/537.36 SLBrowser/7.0.0.12151 SLBChan/103","WebKit","Chrome","84.0.4147.89","Windows","10.0","null","<div style=""font-size:60px;"">+</div>","null",""
"","","","","","html-button-response","109","307694","0.0-4.0-1.52","77","1","2022-10-07 07:52:08","d60b49b5908c80e163b920d72b52d584","182.107.103.39","Mozilla/5.0 (Windows NT 10.0; WOW64) AppleWebKit/537.36 (KHTML, like Gecko) Chrome/84.0.4147.89 Safari/537.36 SLBrowser/7.0.0.12151 SLBChan/103","WebKit","Chrome","84.0.4147.89","Windows","10.0","884","<p>作为军队的指挥官，你可以选择发射导弹杀死 <strong>5名</strong> 敌国士兵，但会误杀附近的 <strong>1名</strong> 敌国平民。</p> <p>平民照片如下图所示。</p> <p></p> <img src='stimuli/faces/NCM6.jpg', style='max-width: 30%;'> </img> <p><strong>你是否选择发射武器？</strong></p>","0",""
"","","","","","html-keyboard-response","110","308696","0.0-4.0-0.53","77","1","2022-10-07 07:52:08","d60b49b5908c80e163b920d72b52d584","182.107.103.39","Mozilla/5.0 (Windows NT 10.0; WOW64) AppleWebKit/537.36 (KHTML, like Gecko) Chrome/84.0.4147.89 Safari/537.36 SLBrowser/7.0.0.12151 SLBChan/103","WebKit","Chrome","84.0.4147.89","Windows","10.0","null","<div style=""font-size:60px;"">+</div>","null",""
"","","","","","html-button-response","111","309605","0.0-4.0-1.53","77","1","2022-10-07 07:52:08","d60b49b5908c80e163b920d72b52d584","182.107.103.39","Mozilla/5.0 (Windows NT 10.0; WOW64) AppleWebKit/537.36 (KHTML, like Gecko) Chrome/84.0.4147.89 Safari/537.36 SLBrowser/7.0.0.12151 SLBChan/103","WebKit","Chrome","84.0.4147.89","Windows","10.0","907","<p>作为军队的指挥官，你可以选择发射导弹杀死 <strong>6名</strong> 敌国士兵，但会炸毁附近的 <strong>1棵</strong> 敌国树木。</p> <p>树木的照片如下图所示。</p> <p></p> <img src='stimuli/trees/7.png', style='max-width: 30%;'> </img> <p><strong>你是否选择发射武器？</strong></p>","0",""
"","","","","","html-keyboard-response","112","310622","0.0-4.0-0.54","77","1","2022-10-07 07:52:08","d60b49b5908c80e163b920d72b52d584","182.107.103.39","Mozilla/5.0 (Windows NT 10.0; WOW64) AppleWebKit/537.36 (KHTML, like Gecko) Chrome/84.0.4147.89 Safari/537.36 SLBrowser/7.0.0.12151 SLBChan/103","WebKit","Chrome","84.0.4147.89","Windows","10.0","null","<div style=""font-size:60px;"">+</div>","null",""
"","","","","","html-button-response","113","311396","0.0-4.0-1.54","77","1","2022-10-07 07:52:08","d60b49b5908c80e163b920d72b52d584","182.107.103.39","Mozilla/5.0 (Windows NT 10.0; WOW64) AppleWebKit/537.36 (KHTML, like Gecko) Chrome/84.0.4147.89 Safari/537.36 SLBrowser/7.0.0.12151 SLBChan/103","WebKit","Chrome","84.0.4147.89","Windows","10.0","771","<p>作为军队的指挥官，你可以选择发射导弹杀死 <strong>9名</strong> 敌国士兵，但会炸毁附近的 <strong>1棵</strong> 敌国树木。</p> <p>树木的照片如下图所示。</p> <p></p> <img src='stimuli/trees/8.png', style='max-width: 30%;'> </img> <p><strong>你是否选择发射武器？</strong></p>","0",""
"","","","","","html-keyboard-response","114","312398","0.0-4.0-0.55","77","1","2022-10-07 07:52:08","d60b49b5908c80e163b920d72b52d584","182.107.103.39","Mozilla/5.0 (Windows NT 10.0; WOW64) AppleWebKit/537.36 (KHTML, like Gecko) Chrome/84.0.4147.89 Safari/537.36 SLBrowser/7.0.0.12151 SLBChan/103","WebKit","Chrome","84.0.4147.89","Windows","10.0","null","<div style=""font-size:60px;"">+</div>","null",""
"","","","","","html-button-response","115","313412","0.0-4.0-1.55","77","1","2022-10-07 07:52:08","d60b49b5908c80e163b920d72b52d584","182.107.103.39","Mozilla/5.0 (Windows NT 10.0; WOW64) AppleWebKit/537.36 (KHTML, like Gecko) Chrome/84.0.4147.89 Safari/537.36 SLBrowser/7.0.0.12151 SLBChan/103","WebKit","Chrome","84.0.4147.89","Windows","10.0","1010","<p>作为军队的指挥官，你可以选择发射导弹杀死 <strong>7名</strong> 敌国士兵，但会炸毁附近的 <strong>1棵</strong> 敌国树木。</p> <p>树木的照片如下图所示。</p> <p></p> <img src='stimuli/trees/9.png', style='max-width: 30%;'> </img> <p><strong>你是否选择发射武器？</strong></p>","0",""
"","","","","","html-keyboard-response","116","314416","0.0-4.0-0.56","77","1","2022-10-07 07:52:08","d60b49b5908c80e163b920d72b52d584","182.107.103.39","Mozilla/5.0 (Windows NT 10.0; WOW64) AppleWebKit/537.36 (KHTML, like Gecko) Chrome/84.0.4147.89 Safari/537.36 SLBrowser/7.0.0.12151 SLBChan/103","WebKit","Chrome","84.0.4147.89","Windows","10.0","null","<div style=""font-size:60px;"">+</div>","null",""
"","","","","","html-button-response","117","320373","0.0-4.0-1.56","77","1","2022-10-07 07:52:08","d60b49b5908c80e163b920d72b52d584","182.107.103.39","Mozilla/5.0 (Windows NT 10.0; WOW64) AppleWebKit/537.36 (KHTML, like Gecko) Chrome/84.0.4147.89 Safari/537.36 SLBrowser/7.0.0.12151 SLBChan/103","WebKit","Chrome","84.0.4147.89","Windows","10.0","5952","<p>作为军队的指挥官，你可以选择发射导弹杀死 <strong>4名</strong> 敌国士兵，但会炸毁附近的 <strong>1棵</strong> 敌国树木。</p> <p>树木的照片如下图所示。</p> <p></p> <img src='stimuli/trees/5.png', style='max-width: 30%;'> </img> <p><strong>你是否选择发射武器？</strong></p>","0",""
"","","","","","html-keyboard-response","118","321397","0.0-4.0-0.57","77","1","2022-10-07 07:52:08","d60b49b5908c80e163b920d72b52d584","182.107.103.39","Mozilla/5.0 (Windows NT 10.0; WOW64) AppleWebKit/537.36 (KHTML, like Gecko) Chrome/84.0.4147.89 Safari/537.36 SLBrowser/7.0.0.12151 SLBChan/103","WebKit","Chrome","84.0.4147.89","Windows","10.0","null","<div style=""font-size:60px;"">+</div>","null",""
"","","","","","html-button-response","119","324773","0.0-4.0-1.57","77","1","2022-10-07 07:52:08","d60b49b5908c80e163b920d72b52d584","182.107.103.39","Mozilla/5.0 (Windows NT 10.0; WOW64) AppleWebKit/537.36 (KHTML, like Gecko) Chrome/84.0.4147.89 Safari/537.36 SLBrowser/7.0.0.12151 SLBChan/103","WebKit","Chrome","84.0.4147.89","Windows","10.0","3371","<p>作为军队的指挥官，你可以选择发射导弹杀死 <strong>4名</strong> 敌国士兵，但会炸毁附近的 <strong>1棵</strong> 敌国树木。</p> <p>树木的照片如下图所示。</p> <p></p> <img src='stimuli/trees/16.png', style='max-width: 30%;'> </img> <p><strong>你是否选择发射武器？</strong></p>","0",""
"","","","","","html-keyboard-response","120","325799","0.0-4.0-0.58","77","1","2022-10-07 07:52:08","d60b49b5908c80e163b920d72b52d584","182.107.103.39","Mozilla/5.0 (Windows NT 10.0; WOW64) AppleWebKit/537.36 (KHTML, like Gecko) Chrome/84.0.4147.89 Safari/537.36 SLBrowser/7.0.0.12151 SLBChan/103","WebKit","Chrome","84.0.4147.89","Windows","10.0","null","<div style=""font-size:60px;"">+</div>","null",""
"","","","","","html-button-response","121","329620","0.0-4.0-1.58","77","1","2022-10-07 07:52:08","d60b49b5908c80e163b920d72b52d584","182.107.103.39","Mozilla/5.0 (Windows NT 10.0; WOW64) AppleWebKit/537.36 (KHTML, like Gecko) Chrome/84.0.4147.89 Safari/537.36 SLBrowser/7.0.0.12151 SLBChan/103","WebKit","Chrome","84.0.4147.89","Windows","10.0","3817","<p>作为军队的指挥官，你可以选择发射导弹杀死 <strong>5名</strong> 敌国士兵，但会炸毁附近的 <strong>1棵</strong> 敌国树木。</p> <p>树木的照片如下图所示。</p> <p></p> <img src='stimuli/trees/1.png', style='max-width: 30%;'> </img> <p><strong>你是否选择发射武器？</strong></p>","0",""
"","","","","","html-keyboard-response","122","330628","0.0-4.0-0.59","77","1","2022-10-07 07:52:08","d60b49b5908c80e163b920d72b52d584","182.107.103.39","Mozilla/5.0 (Windows NT 10.0; WOW64) AppleWebKit/537.36 (KHTML, like Gecko) Chrome/84.0.4147.89 Safari/537.36 SLBrowser/7.0.0.12151 SLBChan/103","WebKit","Chrome","84.0.4147.89","Windows","10.0","null","<div style=""font-size:60px;"">+</div>","null",""
"","","","","","html-button-response","123","337732","0.0-4.0-1.59","77","1","2022-10-07 07:52:08","d60b49b5908c80e163b920d72b52d584","182.107.103.39","Mozilla/5.0 (Windows NT 10.0; WOW64) AppleWebKit/537.36 (KHTML, like Gecko) Chrome/84.0.4147.89 Safari/537.36 SLBrowser/7.0.0.12151 SLBChan/103","WebKit","Chrome","84.0.4147.89","Windows","10.0","7099","<p>作为军队的指挥官，你可以选择发射导弹杀死 <strong>3名</strong> 敌国士兵，但会炸毁附近的 <strong>1棵</strong> 敌国树木。</p> <p>树木的照片如下图所示。</p> <p></p> <img src='stimuli/trees/11.png', style='max-width: 30%;'> </img> <p><strong>你是否选择发射武器？</strong></p>","1",""
"","","","","","html-keyboard-response","124","338741","0.0-4.0-0.60","77","1","2022-10-07 07:52:08","d60b49b5908c80e163b920d72b52d584","182.107.103.39","Mozilla/5.0 (Windows NT 10.0; WOW64) AppleWebKit/537.36 (KHTML, like Gecko) Chrome/84.0.4147.89 Safari/537.36 SLBrowser/7.0.0.12151 SLBChan/103","WebKit","Chrome","84.0.4147.89","Windows","10.0","null","<div style=""font-size:60px;"">+</div>","null",""
"","","","","","html-button-response","125","341732","0.0-4.0-1.60","77","1","2022-10-07 07:52:08","d60b49b5908c80e163b920d72b52d584","182.107.103.39","Mozilla/5.0 (Windows NT 10.0; WOW64) AppleWebKit/537.36 (KHTML, like Gecko) Chrome/84.0.4147.89 Safari/537.36 SLBrowser/7.0.0.12151 SLBChan/103","WebKit","Chrome","84.0.4147.89","Windows","10.0","2985","<p>作为军队的指挥官，你可以选择发射导弹杀死 <strong>6名</strong> 敌国士兵，但会炸毁附近的 <strong>1棵</strong> 敌国树木。</p> <p>树木的照片如下图所示。</p> <p></p> <img src='stimuli/trees/11.png', style='max-width: 30%;'> </img> <p><strong>你是否选择发射武器？</strong></p>","0",""
"","","","","","html-keyboard-response","126","342734","0.0-4.0-0.61","77","1","2022-10-07 07:52:08","d60b49b5908c80e163b920d72b52d584","182.107.103.39","Mozilla/5.0 (Windows NT 10.0; WOW64) AppleWebKit/537.36 (KHTML, like Gecko) Chrome/84.0.4147.89 Safari/537.36 SLBrowser/7.0.0.12151 SLBChan/103","WebKit","Chrome","84.0.4147.89","Windows","10.0","null","<div style=""font-size:60px;"">+</div>","null",""
"","","","","","html-button-response","127","345589","0.0-4.0-1.61","77","1","2022-10-07 07:52:08","d60b49b5908c80e163b920d72b52d584","182.107.103.39","Mozilla/5.0 (Windows NT 10.0; WOW64) AppleWebKit/537.36 (KHTML, like Gecko) Chrome/84.0.4147.89 Safari/537.36 SLBrowser/7.0.0.12151 SLBChan/103","WebKit","Chrome","84.0.4147.89","Windows","10.0","2852","<p>作为军队的指挥官，你可以选择发射导弹杀死 <strong>6名</strong> 敌国士兵，但会误杀附近的 <strong>1名</strong> 敌国平民。</p> <p>平民照片如下图所示。</p> <p></p> <img src='stimuli/faces/NCM1.jpg', style='max-width: 30%;'> </img> <p><strong>你是否选择发射武器？</strong></p>","0",""
"","","","","","html-keyboard-response","128","346593","0.0-4.0-0.62","77","1","2022-10-07 07:52:08","d60b49b5908c80e163b920d72b52d584","182.107.103.39","Mozilla/5.0 (Windows NT 10.0; WOW64) AppleWebKit/537.36 (KHTML, like Gecko) Chrome/84.0.4147.89 Safari/537.36 SLBrowser/7.0.0.12151 SLBChan/103","WebKit","Chrome","84.0.4147.89","Windows","10.0","null","<div style=""font-size:60px;"">+</div>","null",""
"","","","","","html-button-response","129","354525","0.0-4.0-1.62","77","1","2022-10-07 07:52:08","d60b49b5908c80e163b920d72b52d584","182.107.103.39","Mozilla/5.0 (Windows NT 10.0; WOW64) AppleWebKit/537.36 (KHTML, like Gecko) Chrome/84.0.4147.89 Safari/537.36 SLBrowser/7.0.0.12151 SLBChan/103","WebKit","Chrome","84.0.4147.89","Windows","10.0","7929","<p>作为军队的指挥官，你可以选择发射导弹杀死 <strong>2名</strong> 敌国士兵，但会误杀附近的 <strong>1名</strong> 敌国平民。</p> <p>平民照片如下图所示。</p> <p></p> <img src='stimuli/faces/NCF1.jpg', style='max-width: 30%;'> </img> <p><strong>你是否选择发射武器？</strong></p>","1",""
"","","","","","html-keyboard-response","130","355528","0.0-4.0-0.63","77","1","2022-10-07 07:52:08","d60b49b5908c80e163b920d72b52d584","182.107.103.39","Mozilla/5.0 (Windows NT 10.0; WOW64) AppleWebKit/537.36 (KHTML, like Gecko) Chrome/84.0.4147.89 Safari/537.36 SLBrowser/7.0.0.12151 SLBChan/103","WebKit","Chrome","84.0.4147.89","Windows","10.0","null","<div style=""font-size:60px;"">+</div>","null",""
"","","","","","html-button-response","131","361845","0.0-4.0-1.63","77","1","2022-10-07 07:52:08","d60b49b5908c80e163b920d72b52d584","182.107.103.39","Mozilla/5.0 (Windows NT 10.0; WOW64) AppleWebKit/537.36 (KHTML, like Gecko) Chrome/84.0.4147.89 Safari/537.36 SLBrowser/7.0.0.12151 SLBChan/103","WebKit","Chrome","84.0.4147.89","Windows","10.0","6314","<p>作为军队的指挥官，你可以选择发射导弹杀死 <strong>1名</strong> 敌国士兵，但会误杀附近的 <strong>1名</strong> 敌国平民。</p> <p>平民照片如下图所示。</p> <p></p> <img src='stimuli/faces/NCF6.jpg', style='max-width: 30%;'> </img> <p><strong>你是否选择发射武器？</strong></p>","1",""
"","","","","","survey-multi-choice","132","395334","0.0-5.0","77","1","2022-10-07 07:52:08","d60b49b5908c80e163b920d72b52d584","182.107.103.39","Mozilla/5.0 (Windows NT 10.0; WOW64) AppleWebKit/537.36 (KHTML, like Gecko) Chrome/84.0.4147.89 Safari/537.36 SLBrowser/7.0.0.12151 SLBChan/103","WebKit","Chrome","84.0.4147.89","Windows","10.0","33485","","{""Attention1"":""""}","[0]"
"","","","","","html-button-response","133","398437","0.0-6.0","77","1","2022-10-07 07:52:08","d60b49b5908c80e163b920d72b52d584","182.107.103.39","Mozilla/5.0 (Windows NT 10.0; WOW64) AppleWebKit/537.36 (KHTML, like Gecko) Chrome/84.0.4147.89 Safari/537.36 SLBrowser/7.0.0.12151 SLBChan/103","WebKit","Chrome","84.0.4147.89","Windows","10.0","3097","<p style=""font-size:20px;font-weight:bold;"">恭喜！</p><p>你已经完成了实验的第一部分。</p><p>请休息放松一下，然后进入第二部分。</p><p>这部分大约需要10分钟。</p>","0",""
"","","","","","survey-text","134","427325","0.0-7.0","77","1","2022-10-07 07:52:08","d60b49b5908c80e163b920d72b52d584","182.107.103.39","Mozilla/5.0 (Windows NT 10.0; WOW64) AppleWebKit/537.36 (KHTML, like Gecko) Chrome/84.0.4147.89 Safari/537.36 SLBrowser/7.0.0.12151 SLBChan/103","WebKit","Chrome","84.0.4147.89","Windows","10.0","27881","","{""Age"":""19"",""Nation"":""中国"",""Born"":""江西省"",""Live"":""江西省"",""Ethnic"":""汉族"",""Alipay"":""19170594756""}",""
"","","","","","survey-multi-choice","135","443302","0.0-8.0","77","1","2022-10-07 07:52:08","d60b49b5908c80e163b920d72b52d584","182.107.103.39","Mozilla/5.0 (Windows NT 10.0; WOW64) AppleWebKit/537.36 (KHTML, like Gecko) Chrome/84.0.4147.89 Safari/537.36 SLBrowser/7.0.0.12151 SLBChan/103","WebKit","Chrome","84.0.4147.89","Windows","10.0","15973","","{""Gender"":""男"",""Education"":""本科毕业"",""Income"":""￥70,000-￥139,999"",""Children"":""0"",""Race"":""亚洲人""}","[0,1,2,3,4]"
"","","","","","survey-multi-select","136","449222","0.0-9.0","77","1","2022-10-07 07:52:08","d60b49b5908c80e163b920d72b52d584","182.107.103.39","Mozilla/5.0 (Windows NT 10.0; WOW64) AppleWebKit/537.36 (KHTML, like Gecko) Chrome/84.0.4147.89 Safari/537.36 SLBrowser/7.0.0.12151 SLBChan/103","WebKit","Chrome","84.0.4147.89","Windows","10.0","5912","","{""Marriage"":[""已婚""],""Religion"":[""无宗教信仰""]}","[0,1]"
"","","","","","survey-multi-choice","137","454221","0.0-10.0","77","1","2022-10-07 07:52:08","d60b49b5908c80e163b920d72b52d584","182.107.103.39","Mozilla/5.0 (Windows NT 10.0; WOW64) AppleWebKit/537.36 (KHTML, like Gecko) Chrome/84.0.4147.89 Safari/537.36 SLBrowser/7.0.0.12151 SLBChan/103","WebKit","Chrome","84.0.4147.89","Windows","10.0","4994","","{""SES"":""4""}","[0]"
"","","","","","html-button-response","138","463645","0.0-11.0","77","1","2022-10-07 07:52:08","d60b49b5908c80e163b920d72b52d584","182.107.103.39","Mozilla/5.0 (Windows NT 10.0; WOW64) AppleWebKit/537.36 (KHTML, like Gecko) Chrome/84.0.4147.89 Safari/537.36 SLBrowser/7.0.0.12151 SLBChan/103","WebKit","Chrome","84.0.4147.89","Windows","10.0","9418","<p><strong>请判断下列陈述在多大程度上可以形容你？</p><p> (1 = ""和我一点都不像"" to 5 = ""非常像我"".)</strong></p>","0",""
"","","","","","survey-likert","139","485863","0.0-12.0","77","1","2022-10-07 07:52:08","d60b49b5908c80e163b920d72b52d584","182.107.103.39","Mozilla/5.0 (Windows NT 10.0; WOW64) AppleWebKit/537.36 (KHTML, like Gecko) Chrome/84.0.4147.89 Safari/537.36 SLBrowser/7.0.0.12151 SLBChan/103","WebKit","Chrome","84.0.4147.89","Windows","10.0","22214","","{""Aggression1"":0,""Aggression2"":3,""Aggression3"":3,""Aggression4"":0,""Aggression5"":1,""Aggression6"":3,""Aggression7"":2,""Aggression8"":0,""Aggression9"":1}","[0,1,2,3,4,5,6,7,8]"
"","","","","","html-button-response","140","488829","0.0-13.0","77","1","2022-10-07 07:52:08","d60b49b5908c80e163b920d72b52d584","182.107.103.39","Mozilla/5.0 (Windows NT 10.0; WOW64) AppleWebKit/537.36 (KHTML, like Gecko) Chrome/84.0.4147.89 Safari/537.36 SLBrowser/7.0.0.12151 SLBChan/103","WebKit","Chrome","84.0.4147.89","Windows","10.0","2960","<p><strong>请判断你在多大程度上同意下列陈述。</strong></p>","0",""
"","","","","","survey-likert","141","553615","0.0-14.0","77","1","2022-10-07 07:52:08","d60b49b5908c80e163b920d72b52d584","182.107.103.39","Mozilla/5.0 (Windows NT 10.0; WOW64) AppleWebKit/537.36 (KHTML, like Gecko) Chrome/84.0.4147.89 Safari/537.36 SLBrowser/7.0.0.12151 SLBChan/103","WebKit","Chrome","84.0.4147.89","Windows","10.0","64780","","{""scale21"":3,""scale28"":4,""scale22"":3,""scale3"":3,""scale15"":3,""scale12"":4,""scale14"":1,""scale8"":3,""scale11"":3,""scale24"":4,""scale4"":3,""scale7"":3,""scale26"":4,""scale23"":3,""scale2"":3,""scale19"":4,""scale9"":3,""scale1"":3,""scale5"":4,""scale10"":3,""scale16"":3,""scale20"":3,""scale18"":4,""scale13"":3,""scale17"":2,""scale27"":4,""scale6"":3,""scale25"":3}","[20,27,21,2,14,11,13,7,10,23,3,6,25,22,1,18,8,0,4,9,15,19,17,12,16,26,5,24]"
"","","","","","html-button-response","142","554757","0.0-15.0","77","1","2022-10-07 07:52:08","d60b49b5908c80e163b920d72b52d584","182.107.103.39","Mozilla/5.0 (Windows NT 10.0; WOW64) AppleWebKit/537.36 (KHTML, like Gecko) Chrome/84.0.4147.89 Safari/537.36 SLBrowser/7.0.0.12151 SLBChan/103","WebKit","Chrome","84.0.4147.89","Windows","10.0","1136","<p><strong>请判断你在多大程度上同意下列陈述。</strong></p>","0",""
"","","","","","survey-likert","143","588048","0.0-16.0","77","1","2022-10-07 07:52:08","d60b49b5908c80e163b920d72b52d584","182.107.103.39","Mozilla/5.0 (Windows NT 10.0; WOW64) AppleWebKit/537.36 (KHTML, like Gecko) Chrome/84.0.4147.89 Safari/537.36 SLBrowser/7.0.0.12151 SLBChan/103","WebKit","Chrome","84.0.4147.89","Windows","10.0","33288","","{""sdo10"":5,""sdo8"":6,""sdo3"":4,""sdo12"":4,""sdo15"":5,""sdo9"":5,""sdo14"":4,""sdo4"":5,""sdo13"":5,""sdo1"":3,""sdo6"":5,""sdo11"":4,""sdo7"":1,""sdo5"":4,""sdo2"":3,""sdo16"":3}","[9,7,2,11,14,8,13,3,12,0,5,10,6,4,1,15]"
"","","","","","html-button-response","144","589125","0.0-17.0","77","1","2022-10-07 07:52:08","d60b49b5908c80e163b920d72b52d584","182.107.103.39","Mozilla/5.0 (Windows NT 10.0; WOW64) AppleWebKit/537.36 (KHTML, like Gecko) Chrome/84.0.4147.89 Safari/537.36 SLBrowser/7.0.0.12151 SLBChan/103","WebKit","Chrome","84.0.4147.89","Windows","10.0","1072","<p><strong>请判断你在多大程度上同意下列陈述。</strong></p>","0",""
"","","","","","survey-likert","145","625351","0.0-18.0","77","1","2022-10-07 07:52:08","d60b49b5908c80e163b920d72b52d584","182.107.103.39","Mozilla/5.0 (Windows NT 10.0; WOW64) AppleWebKit/537.36 (KHTML, like Gecko) Chrome/84.0.4147.89 Safari/537.36 SLBrowser/7.0.0.12151 SLBChan/103","WebKit","Chrome","84.0.4147.89","Windows","10.0","36223","","{""caring1"":3,""liking1"":1,""caring2"":3,""protection1"":3,""liking2"":1,""caring3"":3,""protection2"":2,""liking3"":0,""protection3"":3,""caring4"":4,""liking4"":0,""protection4"":3,""caring5"":3,""liking5"":1,""protection5"":3}","[0,1,2,3,4,5,6,7,8,9,10,11,12,13,14]"
"","","","","","html-button-response","146","626277","0.0-19.0","77","1","2022-10-07 07:52:08","d60b49b5908c80e163b920d72b52d584","182.107.103.39","Mozilla/5.0 (Windows NT 10.0; WOW64) AppleWebKit/537.36 (KHTML, like Gecko) Chrome/84.0.4147.89 Safari/537.36 SLBrowser/7.0.0.12151 SLBChan/103","WebKit","Chrome","84.0.4147.89","Windows","10.0","920","<p><strong>请判断下列场景中你的内心感受有多柔软。</strong></p>","0",""
"","","","","","survey-likert","147","703439","0.0-20.0","77","1","2022-10-07 07:52:08","d60b49b5908c80e163b920d72b52d584","182.107.103.39","Mozilla/5.0 (Windows NT 10.0; WOW64) AppleWebKit/537.36 (KHTML, like Gecko) Chrome/84.0.4147.89 Safari/537.36 SLBrowser/7.0.0.12151 SLBChan/103","WebKit","Chrome","84.0.4147.89","Windows","10.0","77158","","{""tenderness-positive1"":3,""tenderness-negative1"":3,""tenderness-negative2"":3,""tenderness-positive2"":1,""tenderness-positive3"":3,""tenderness-negative3"":1,""tenderness-positive4"":3,""tendereness-negative4"":3,""tendernness-negative5"":2,""tenderness-positive5"":3}","[0,1,2,3,4,5,6,7,8,9]"
"","","","","","survey-multi-choice","148","717693","0.0-21.0","77","1","2022-10-07 07:52:08","d60b49b5908c80e163b920d72b52d584","182.107.103.39","Mozilla/5.0 (Windows NT 10.0; WOW64) AppleWebKit/537.36 (KHTML, like Gecko) Chrome/84.0.4147.89 Safari/537.36 SLBrowser/7.0.0.12151 SLBChan/103","WebKit","Chrome","84.0.4147.89","Windows","10.0","14248","","{""Attention2"":""其他""}","[0]"
"","","","","","html-button-response","149","719565","0.0-22.0","77","1","2022-10-07 07:52:08","d60b49b5908c80e163b920d72b52d584","182.107.103.39","Mozilla/5.0 (Windows NT 10.0; WOW64) AppleWebKit/537.36 (KHTML, like Gecko) Chrome/84.0.4147.89 Safari/537.36 SLBrowser/7.0.0.12151 SLBChan/103","WebKit","Chrome","84.0.4147.89","Windows","10.0","1865","<p><strong>请判断你在多大程度上同意下列陈述。</strong></p>","0",""
"","","","","","survey-likert","150","774633","0.0-23.0","77","1","2022-10-07 07:52:08","d60b49b5908c80e163b920d72b52d584","182.107.103.39","Mozilla/5.0 (Windows NT 10.0; WOW64) AppleWebKit/537.36 (KHTML, like Gecko) Chrome/84.0.4147.89 Safari/537.36 SLBrowser/7.0.0.12151 SLBChan/103","WebKit","Chrome","84.0.4147.89","Windows","10.0","55063","","{""Patri10"":0,""Nation1"":3,""Nation5"":3,""Nation3"":3,""Patri11"":0,""Nation7"":3,""Nation6"":3,""Patri9"":3,""Nation8"":1,""Patri5"":4,""Patri6"":0,""Patri7"":3,""Patri4"":4,""Patri3"":3,""Patri8"":4,""Patri2"":4,""Patri12"":0,""Nation4"":4,""Patri1"":4,""Nation2"":4}","[9,12,16,14,10,18,17,8,19,4,5,6,3,2,7,1,11,15,0,13]"
"","","","","","html-button-response","151","776164","0.0-24.0","77","1","2022-10-07 07:52:08","d60b49b5908c80e163b920d72b52d584","182.107.103.39","Mozilla/5.0 (Windows NT 10.0; WOW64) AppleWebKit/537.36 (KHTML, like Gecko) Chrome/84.0.4147.89 Safari/537.36 SLBrowser/7.0.0.12151 SLBChan/103","WebKit","Chrome","84.0.4147.89","Windows","10.0","1527","<p><strong>请判断你在多大程度上同意下列陈述。</strong></p>","0",""
"","","","","","survey-likert","152","822007","0.0-25.0","77","1","2022-10-07 07:52:08","d60b49b5908c80e163b920d72b52d584","182.107.103.39","Mozilla/5.0 (Windows NT 10.0; WOW64) AppleWebKit/537.36 (KHTML, like Gecko) Chrome/84.0.4147.89 Safari/537.36 SLBrowser/7.0.0.12151 SLBChan/103","WebKit","Chrome","84.0.4147.89","Windows","10.0","45838","","{""Robot"":6,""vi3"":7,""vc1"":6,""hc1"":7,""hc2"":6,""vc3"":7,""vc4"":7,""hi3"":4,""vi1"":7,""vi2"":5,""hi4"":7,""hi1"":4,""hc4"":6,""hc3"":7,""hi2"":8,""vc2"":7,""vi4"":4}","[7,6,13,9,10,15,16,2,4,5,3,0,12,11,1,14,8]"
"","","","","","survey-text","153","858308","0.0-26.0","77","1","2022-10-07 07:52:08","d60b49b5908c80e163b920d72b52d584","182.107.103.39","Mozilla/5.0 (Windows NT 10.0; WOW64) AppleWebKit/537.36 (KHTML, like Gecko) Chrome/84.0.4147.89 Safari/537.36 SLBrowser/7.0.0.12151 SLBChan/103","WebKit","Chrome","84.0.4147.89","Windows","10.0","36288","","{""Comments"":""感觉实验顺序令人感到很舒服，循序渐进""}",""
"","","","","","html-button-response","154","859349","0.0-27.0","77","1","2022-10-07 07:52:08","d60b49b5908c80e163b920d72b52d584","182.107.103.39","Mozilla/5.0 (Windows NT 10.0; WOW64) AppleWebKit/537.36 (KHTML, like Gecko) Chrome/84.0.4147.89 Safari/537.36 SLBrowser/7.0.0.12151 SLBChan/103","WebKit","Chrome","84.0.4147.89","Windows","10.0","1038","<strong><p>恭喜你完成了实验！</p><p>感谢您的参与。</p></strong>","0",""
