"success","timeout","failed_images","failed_audio","failed_video","trial_type","trial_index","time_elapsed","internal_node_id","run_id","condition","recorded_at","source_code_version","ip","user_agent","device","browser","browser_version","platform","platform_version","rt","stimulus","response","question_order"
"true","false","[]","[]","[]","preload","0","3107","0.0-0.0","81","1","2022-10-07 07:59:25","d60b49b5908c80e163b920d72b52d584","110.185.90.76","Mozilla/5.0 (Windows NT 10.0; Win64; x64) AppleWebKit/537.36 (KHTML, like Gecko) Chrome/90.0.4430.212 Safari/537.36","WebKit","Chrome","90.0.4430.212","Windows","10.0","","","",""
"true","","","","","fullscreen","1","38381","0.0-1.0","81","1","2022-10-07 07:59:25","d60b49b5908c80e163b920d72b52d584","110.185.90.76","Mozilla/5.0 (Windows NT 10.0; Win64; x64) AppleWebKit/537.36 (KHTML, like Gecko) Chrome/90.0.4430.212 Safari/537.36","WebKit","Chrome","90.0.4430.212","Windows","10.0","","","",""
"","","","","","html-button-response","2","50212","0.0-2.0","81","1","2022-10-07 07:59:25","d60b49b5908c80e163b920d72b52d584","110.185.90.76","Mozilla/5.0 (Windows NT 10.0; Win64; x64) AppleWebKit/537.36 (KHTML, like Gecko) Chrome/90.0.4430.212 Safari/537.36","WebKit","Chrome","90.0.4430.212","Windows","10.0","11829","<p style=""font-size:20px;font-weight:bold;"">实验知情同意书</p><p style=""text-align:left;""><strong>实验名称：</strong>社会冲突研究</p><p style=""text-align:left;""><strong>主要研究者：</strong>韩晓春副教授（北京师范大学心理学部）</p><p style=""text-align:left;""><strong>联系方式：</strong>发送邮件至xiaochun.han@bnu.edu.cn</p><p style=""text-align:left;""><strong>研究目的：</strong>研究旨在了解人类面对群体冲突时的决策方式，以及相关的心理学特质。实验调查大约需要20分钟。</p><p style=""text-align:left;""><strong>实验流程：</strong>实验包含两部分。第一部分呈现一系列群体冲突场景，请你决定如何对这些冲突进行反应，大约需要10分钟完成。第二部分包含一系列人口统计学信息收集和心理学问卷，大约需要10分钟完成。</p><p style=""text-align:left;""><strong>参加及退出规则：</strong>参加本实验完全取决于您的个人意愿。在参与过程中，您可以随时退出，并且不用承担任何后果。</p><p style=""text-align:left;""><strong>隐私：</strong>本实验完全匿名进行，不会收集您的姓名或其他能够识别您身份的信息。实验中收集的作答仅用作科学研究使用，可能会在学术期刊/书籍上发表，或者用于教学，您的数据未来可能会和其他研究者或实验室分享，但您的个人身份不会被识别。</p><p style=""text-align:left;""><strong>实验报酬：</strong>实验完成后，您将获得15元人民币报酬，以感谢您的时间和努力。调查问卷中包含几道题目用以测验您作答时的认真度。只有完成全部实验，并且正确回答认真度测验的被试才能获得实验报酬。实验报酬将通过支付宝转账发放。</p><p style=""text-align:left;font-size:20px;""><strong>如果您同意以上实验知情同意书的内容，请点击'同意并且开始实验'按钮；否则请关闭浏览器界面，退出实验。</strong></p>","0",""
"","","","","","html-button-response","3","67419","0.0-3.0","81","1","2022-10-07 07:59:25","d60b49b5908c80e163b920d72b52d584","110.185.90.76","Mozilla/5.0 (Windows NT 10.0; Win64; x64) AppleWebKit/537.36 (KHTML, like Gecko) Chrome/90.0.4430.212 Safari/537.36","WebKit","Chrome","90.0.4430.212","Windows","10.0","17205","<p ><strong>实验任务一：</strong></p><p>请想象你的国家与另一个国家发生了军事冲突。</p><p>你是国家军队的指挥官，你将如何在冲突中进行决策。</p><p>具体来说，作为军队指挥官，请你决定是否发射导弹进行打击。</p><p>接下来，你会面对一系列场景，请仔细阅读每个场景，然后进行决策。</p><p>这部分实验任务大约需要10分钟。</p><p><strong>实验过程中，请集中注意力。</strong></p>","0",""
"","","","","","html-keyboard-response","4","68430","0.0-4.0-0.0","81","1","2022-10-07 07:59:25","d60b49b5908c80e163b920d72b52d584","110.185.90.76","Mozilla/5.0 (Windows NT 10.0; Win64; x64) AppleWebKit/537.36 (KHTML, like Gecko) Chrome/90.0.4430.212 Safari/537.36","WebKit","Chrome","90.0.4430.212","Windows","10.0","null","<div style=""font-size:60px;"">+</div>","null",""
"","","","","","html-button-response","5","79340","0.0-4.0-1.0","81","1","2022-10-07 07:59:25","d60b49b5908c80e163b920d72b52d584","110.185.90.76","Mozilla/5.0 (Windows NT 10.0; Win64; x64) AppleWebKit/537.36 (KHTML, like Gecko) Chrome/90.0.4430.212 Safari/537.36","WebKit","Chrome","90.0.4430.212","Windows","10.0","10907","<p>作为军队的指挥官，你可以选择发射导弹杀死 <strong>9名</strong> 敌国士兵，但会误杀附近的 <strong>1名</strong> 敌国平民。</p> <p>平民照片如下图所示。</p> <p></p> <img src='stimuli/faces/NCF2.jpg', style='max-width: 30%;'> </img> <p><strong>你是否选择发射武器？</strong></p>","0",""
"","","","","","html-keyboard-response","6","80345","0.0-4.0-0.1","81","1","2022-10-07 07:59:25","d60b49b5908c80e163b920d72b52d584","110.185.90.76","Mozilla/5.0 (Windows NT 10.0; Win64; x64) AppleWebKit/537.36 (KHTML, like Gecko) Chrome/90.0.4430.212 Safari/537.36","WebKit","Chrome","90.0.4430.212","Windows","10.0","null","<div style=""font-size:60px;"">+</div>","null",""
"","","","","","html-button-response","7","83547","0.0-4.0-1.1","81","1","2022-10-07 07:59:25","d60b49b5908c80e163b920d72b52d584","110.185.90.76","Mozilla/5.0 (Windows NT 10.0; Win64; x64) AppleWebKit/537.36 (KHTML, like Gecko) Chrome/90.0.4430.212 Safari/537.36","WebKit","Chrome","90.0.4430.212","Windows","10.0","3200","<p>作为军队的指挥官，你可以选择发射导弹杀死 <strong>2名</strong> 敌国士兵，但会误杀附近的 <strong>1名</strong> 敌国平民。</p> <p>平民照片如下图所示。</p> <p></p> <img src='stimuli/faces/NCF1.jpg', style='max-width: 30%;'> </img> <p><strong>你是否选择发射武器？</strong></p>","1",""
"","","","","","html-keyboard-response","8","84550","0.0-4.0-0.2","81","1","2022-10-07 07:59:25","d60b49b5908c80e163b920d72b52d584","110.185.90.76","Mozilla/5.0 (Windows NT 10.0; Win64; x64) AppleWebKit/537.36 (KHTML, like Gecko) Chrome/90.0.4430.212 Safari/537.36","WebKit","Chrome","90.0.4430.212","Windows","10.0","null","<div style=""font-size:60px;"">+</div>","null",""
"","","","","","html-button-response","9","86980","0.0-4.0-1.2","81","1","2022-10-07 07:59:25","d60b49b5908c80e163b920d72b52d584","110.185.90.76","Mozilla/5.0 (Windows NT 10.0; Win64; x64) AppleWebKit/537.36 (KHTML, like Gecko) Chrome/90.0.4430.212 Safari/537.36","WebKit","Chrome","90.0.4430.212","Windows","10.0","2428","<p>作为军队的指挥官，你可以选择发射导弹杀死 <strong>9名</strong> 敌国士兵，但会炸毁附近的 <strong>1棵</strong> 敌国树木。</p> <p>树木的照片如下图所示。</p> <p></p> <img src='stimuli/trees/12.png', style='max-width: 30%;'> </img> <p><strong>你是否选择发射武器？</strong></p>","0",""
"","","","","","html-keyboard-response","10","87995","0.0-4.0-0.3","81","1","2022-10-07 07:59:25","d60b49b5908c80e163b920d72b52d584","110.185.90.76","Mozilla/5.0 (Windows NT 10.0; Win64; x64) AppleWebKit/537.36 (KHTML, like Gecko) Chrome/90.0.4430.212 Safari/537.36","WebKit","Chrome","90.0.4430.212","Windows","10.0","null","<div style=""font-size:60px;"">+</div>","null",""
"","","","","","html-button-response","11","90316","0.0-4.0-1.3","81","1","2022-10-07 07:59:25","d60b49b5908c80e163b920d72b52d584","110.185.90.76","Mozilla/5.0 (Windows NT 10.0; Win64; x64) AppleWebKit/537.36 (KHTML, like Gecko) Chrome/90.0.4430.212 Safari/537.36","WebKit","Chrome","90.0.4430.212","Windows","10.0","2319","<p>作为军队的指挥官，你可以选择发射导弹杀死 <strong>7名</strong> 敌国士兵，但会炸毁附近的 <strong>1棵</strong> 敌国树木。</p> <p>树木的照片如下图所示。</p> <p></p> <img src='stimuli/trees/1.png', style='max-width: 30%;'> </img> <p><strong>你是否选择发射武器？</strong></p>","0",""
"","","","","","html-keyboard-response","12","91318","0.0-4.0-0.4","81","1","2022-10-07 07:59:25","d60b49b5908c80e163b920d72b52d584","110.185.90.76","Mozilla/5.0 (Windows NT 10.0; Win64; x64) AppleWebKit/537.36 (KHTML, like Gecko) Chrome/90.0.4430.212 Safari/537.36","WebKit","Chrome","90.0.4430.212","Windows","10.0","null","<div style=""font-size:60px;"">+</div>","null",""
"","","","","","html-button-response","13","93340","0.0-4.0-1.4","81","1","2022-10-07 07:59:25","d60b49b5908c80e163b920d72b52d584","110.185.90.76","Mozilla/5.0 (Windows NT 10.0; Win64; x64) AppleWebKit/537.36 (KHTML, like Gecko) Chrome/90.0.4430.212 Safari/537.36","WebKit","Chrome","90.0.4430.212","Windows","10.0","2020","<p>作为军队的指挥官，你可以选择发射导弹杀死 <strong>9名</strong> 敌国士兵，但会炸毁附近的 <strong>1棵</strong> 敌国树木。</p> <p>树木的照片如下图所示。</p> <p></p> <img src='stimuli/trees/3.png', style='max-width: 30%;'> </img> <p><strong>你是否选择发射武器？</strong></p>","0",""
"","","","","","html-keyboard-response","14","94342","0.0-4.0-0.5","81","1","2022-10-07 07:59:25","d60b49b5908c80e163b920d72b52d584","110.185.90.76","Mozilla/5.0 (Windows NT 10.0; Win64; x64) AppleWebKit/537.36 (KHTML, like Gecko) Chrome/90.0.4430.212 Safari/537.36","WebKit","Chrome","90.0.4430.212","Windows","10.0","null","<div style=""font-size:60px;"">+</div>","null",""
"","","","","","html-button-response","15","96628","0.0-4.0-1.5","81","1","2022-10-07 07:59:25","d60b49b5908c80e163b920d72b52d584","110.185.90.76","Mozilla/5.0 (Windows NT 10.0; Win64; x64) AppleWebKit/537.36 (KHTML, like Gecko) Chrome/90.0.4430.212 Safari/537.36","WebKit","Chrome","90.0.4430.212","Windows","10.0","2284","<p>作为军队的指挥官，你可以选择发射导弹杀死 <strong>2名</strong> 敌国士兵，但会炸毁附近的 <strong>1棵</strong> 敌国树木。</p> <p>树木的照片如下图所示。</p> <p></p> <img src='stimuli/trees/14.png', style='max-width: 30%;'> </img> <p><strong>你是否选择发射武器？</strong></p>","0",""
"","","","","","html-keyboard-response","16","97630","0.0-4.0-0.6","81","1","2022-10-07 07:59:25","d60b49b5908c80e163b920d72b52d584","110.185.90.76","Mozilla/5.0 (Windows NT 10.0; Win64; x64) AppleWebKit/537.36 (KHTML, like Gecko) Chrome/90.0.4430.212 Safari/537.36","WebKit","Chrome","90.0.4430.212","Windows","10.0","null","<div style=""font-size:60px;"">+</div>","null",""
"","","","","","html-button-response","17","100252","0.0-4.0-1.6","81","1","2022-10-07 07:59:25","d60b49b5908c80e163b920d72b52d584","110.185.90.76","Mozilla/5.0 (Windows NT 10.0; Win64; x64) AppleWebKit/537.36 (KHTML, like Gecko) Chrome/90.0.4430.212 Safari/537.36","WebKit","Chrome","90.0.4430.212","Windows","10.0","2620","<p>作为军队的指挥官，你可以选择发射导弹杀死 <strong>8名</strong> 敌国士兵，但会误杀附近的 <strong>1名</strong> 敌国平民。</p> <p>平民照片如下图所示。</p> <p></p> <img src='stimuli/faces/NCF8.jpg', style='max-width: 30%;'> </img> <p><strong>你是否选择发射武器？</strong></p>","0",""
"","","","","","html-keyboard-response","18","101254","0.0-4.0-0.7","81","1","2022-10-07 07:59:25","d60b49b5908c80e163b920d72b52d584","110.185.90.76","Mozilla/5.0 (Windows NT 10.0; Win64; x64) AppleWebKit/537.36 (KHTML, like Gecko) Chrome/90.0.4430.212 Safari/537.36","WebKit","Chrome","90.0.4430.212","Windows","10.0","null","<div style=""font-size:60px;"">+</div>","null",""
"","","","","","html-button-response","19","103092","0.0-4.0-1.7","81","1","2022-10-07 07:59:25","d60b49b5908c80e163b920d72b52d584","110.185.90.76","Mozilla/5.0 (Windows NT 10.0; Win64; x64) AppleWebKit/537.36 (KHTML, like Gecko) Chrome/90.0.4430.212 Safari/537.36","WebKit","Chrome","90.0.4430.212","Windows","10.0","1837","<p>作为军队的指挥官，你可以选择发射导弹杀死 <strong>9名</strong> 敌国士兵，但会炸毁附近的 <strong>1棵</strong> 敌国树木。</p> <p>树木的照片如下图所示。</p> <p></p> <img src='stimuli/trees/16.png', style='max-width: 30%;'> </img> <p><strong>你是否选择发射武器？</strong></p>","0",""
"","","","","","html-keyboard-response","20","104094","0.0-4.0-0.8","81","1","2022-10-07 07:59:25","d60b49b5908c80e163b920d72b52d584","110.185.90.76","Mozilla/5.0 (Windows NT 10.0; Win64; x64) AppleWebKit/537.36 (KHTML, like Gecko) Chrome/90.0.4430.212 Safari/537.36","WebKit","Chrome","90.0.4430.212","Windows","10.0","null","<div style=""font-size:60px;"">+</div>","null",""
"","","","","","html-button-response","21","105541","0.0-4.0-1.8","81","1","2022-10-07 07:59:25","d60b49b5908c80e163b920d72b52d584","110.185.90.76","Mozilla/5.0 (Windows NT 10.0; Win64; x64) AppleWebKit/537.36 (KHTML, like Gecko) Chrome/90.0.4430.212 Safari/537.36","WebKit","Chrome","90.0.4430.212","Windows","10.0","1445","<p>作为军队的指挥官，你可以选择发射导弹杀死 <strong>3名</strong> 敌国士兵，但会炸毁附近的 <strong>1棵</strong> 敌国树木。</p> <p>树木的照片如下图所示。</p> <p></p> <img src='stimuli/trees/12.png', style='max-width: 30%;'> </img> <p><strong>你是否选择发射武器？</strong></p>","0",""
"","","","","","html-keyboard-response","22","106542","0.0-4.0-0.9","81","1","2022-10-07 07:59:25","d60b49b5908c80e163b920d72b52d584","110.185.90.76","Mozilla/5.0 (Windows NT 10.0; Win64; x64) AppleWebKit/537.36 (KHTML, like Gecko) Chrome/90.0.4430.212 Safari/537.36","WebKit","Chrome","90.0.4430.212","Windows","10.0","null","<div style=""font-size:60px;"">+</div>","null",""
"","","","","","html-button-response","23","108043","0.0-4.0-1.9","81","1","2022-10-07 07:59:25","d60b49b5908c80e163b920d72b52d584","110.185.90.76","Mozilla/5.0 (Windows NT 10.0; Win64; x64) AppleWebKit/537.36 (KHTML, like Gecko) Chrome/90.0.4430.212 Safari/537.36","WebKit","Chrome","90.0.4430.212","Windows","10.0","1500","<p>作为军队的指挥官，你可以选择发射导弹杀死 <strong>8名</strong> 敌国士兵，但会炸毁附近的 <strong>1棵</strong> 敌国树木。</p> <p>树木的照片如下图所示。</p> <p></p> <img src='stimuli/trees/8.png', style='max-width: 30%;'> </img> <p><strong>你是否选择发射武器？</strong></p>","0",""
"","","","","","html-keyboard-response","24","109053","0.0-4.0-0.10","81","1","2022-10-07 07:59:25","d60b49b5908c80e163b920d72b52d584","110.185.90.76","Mozilla/5.0 (Windows NT 10.0; Win64; x64) AppleWebKit/537.36 (KHTML, like Gecko) Chrome/90.0.4430.212 Safari/537.36","WebKit","Chrome","90.0.4430.212","Windows","10.0","null","<div style=""font-size:60px;"">+</div>","null",""
"","","","","","html-button-response","25","111869","0.0-4.0-1.10","81","1","2022-10-07 07:59:25","d60b49b5908c80e163b920d72b52d584","110.185.90.76","Mozilla/5.0 (Windows NT 10.0; Win64; x64) AppleWebKit/537.36 (KHTML, like Gecko) Chrome/90.0.4430.212 Safari/537.36","WebKit","Chrome","90.0.4430.212","Windows","10.0","2813","<p>作为军队的指挥官，你可以选择发射导弹杀死 <strong>2名</strong> 敌国士兵，但会误杀附近的 <strong>1名</strong> 敌国平民。</p> <p>平民照片如下图所示。</p> <p></p> <img src='stimuli/faces/NCM4.jpg', style='max-width: 30%;'> </img> <p><strong>你是否选择发射武器？</strong></p>","1",""
"","","","","","html-keyboard-response","26","112871","0.0-4.0-0.11","81","1","2022-10-07 07:59:25","d60b49b5908c80e163b920d72b52d584","110.185.90.76","Mozilla/5.0 (Windows NT 10.0; Win64; x64) AppleWebKit/537.36 (KHTML, like Gecko) Chrome/90.0.4430.212 Safari/537.36","WebKit","Chrome","90.0.4430.212","Windows","10.0","null","<div style=""font-size:60px;"">+</div>","null",""
"","","","","","html-button-response","27","114771","0.0-4.0-1.11","81","1","2022-10-07 07:59:25","d60b49b5908c80e163b920d72b52d584","110.185.90.76","Mozilla/5.0 (Windows NT 10.0; Win64; x64) AppleWebKit/537.36 (KHTML, like Gecko) Chrome/90.0.4430.212 Safari/537.36","WebKit","Chrome","90.0.4430.212","Windows","10.0","1899","<p>作为军队的指挥官，你可以选择发射导弹杀死 <strong>5名</strong> 敌国士兵，但会误杀附近的 <strong>1名</strong> 敌国平民。</p> <p>平民照片如下图所示。</p> <p></p> <img src='stimuli/faces/NCF5.jpg', style='max-width: 30%;'> </img> <p><strong>你是否选择发射武器？</strong></p>","0",""
"","","","","","html-keyboard-response","28","115773","0.0-4.0-0.12","81","1","2022-10-07 07:59:25","d60b49b5908c80e163b920d72b52d584","110.185.90.76","Mozilla/5.0 (Windows NT 10.0; Win64; x64) AppleWebKit/537.36 (KHTML, like Gecko) Chrome/90.0.4430.212 Safari/537.36","WebKit","Chrome","90.0.4430.212","Windows","10.0","null","<div style=""font-size:60px;"">+</div>","null",""
"","","","","","html-button-response","29","117332","0.0-4.0-1.12","81","1","2022-10-07 07:59:25","d60b49b5908c80e163b920d72b52d584","110.185.90.76","Mozilla/5.0 (Windows NT 10.0; Win64; x64) AppleWebKit/537.36 (KHTML, like Gecko) Chrome/90.0.4430.212 Safari/537.36","WebKit","Chrome","90.0.4430.212","Windows","10.0","1558","<p>作为军队的指挥官，你可以选择发射导弹杀死 <strong>6名</strong> 敌国士兵，但会误杀附近的 <strong>1名</strong> 敌国平民。</p> <p>平民照片如下图所示。</p> <p></p> <img src='stimuli/faces/NCM6.jpg', style='max-width: 30%;'> </img> <p><strong>你是否选择发射武器？</strong></p>","0",""
"","","","","","html-keyboard-response","30","118335","0.0-4.0-0.13","81","1","2022-10-07 07:59:25","d60b49b5908c80e163b920d72b52d584","110.185.90.76","Mozilla/5.0 (Windows NT 10.0; Win64; x64) AppleWebKit/537.36 (KHTML, like Gecko) Chrome/90.0.4430.212 Safari/537.36","WebKit","Chrome","90.0.4430.212","Windows","10.0","null","<div style=""font-size:60px;"">+</div>","null",""
"","","","","","html-button-response","31","119740","0.0-4.0-1.13","81","1","2022-10-07 07:59:25","d60b49b5908c80e163b920d72b52d584","110.185.90.76","Mozilla/5.0 (Windows NT 10.0; Win64; x64) AppleWebKit/537.36 (KHTML, like Gecko) Chrome/90.0.4430.212 Safari/537.36","WebKit","Chrome","90.0.4430.212","Windows","10.0","1403","<p>作为军队的指挥官，你可以选择发射导弹杀死 <strong>6名</strong> 敌国士兵，但会炸毁附近的 <strong>1棵</strong> 敌国树木。</p> <p>树木的照片如下图所示。</p> <p></p> <img src='stimuli/trees/2.png', style='max-width: 30%;'> </img> <p><strong>你是否选择发射武器？</strong></p>","0",""
"","","","","","html-keyboard-response","32","120742","0.0-4.0-0.14","81","1","2022-10-07 07:59:25","d60b49b5908c80e163b920d72b52d584","110.185.90.76","Mozilla/5.0 (Windows NT 10.0; Win64; x64) AppleWebKit/537.36 (KHTML, like Gecko) Chrome/90.0.4430.212 Safari/537.36","WebKit","Chrome","90.0.4430.212","Windows","10.0","null","<div style=""font-size:60px;"">+</div>","null",""
"","","","","","html-button-response","33","122515","0.0-4.0-1.14","81","1","2022-10-07 07:59:25","d60b49b5908c80e163b920d72b52d584","110.185.90.76","Mozilla/5.0 (Windows NT 10.0; Win64; x64) AppleWebKit/537.36 (KHTML, like Gecko) Chrome/90.0.4430.212 Safari/537.36","WebKit","Chrome","90.0.4430.212","Windows","10.0","1771","<p>作为军队的指挥官，你可以选择发射导弹杀死 <strong>2名</strong> 敌国士兵，但会炸毁附近的 <strong>1棵</strong> 敌国树木。</p> <p>树木的照片如下图所示。</p> <p></p> <img src='stimuli/trees/1.png', style='max-width: 30%;'> </img> <p><strong>你是否选择发射武器？</strong></p>","0",""
"","","","","","html-keyboard-response","34","123517","0.0-4.0-0.15","81","1","2022-10-07 07:59:25","d60b49b5908c80e163b920d72b52d584","110.185.90.76","Mozilla/5.0 (Windows NT 10.0; Win64; x64) AppleWebKit/537.36 (KHTML, like Gecko) Chrome/90.0.4430.212 Safari/537.36","WebKit","Chrome","90.0.4430.212","Windows","10.0","null","<div style=""font-size:60px;"">+</div>","null",""
"","","","","","html-button-response","35","125852","0.0-4.0-1.15","81","1","2022-10-07 07:59:25","d60b49b5908c80e163b920d72b52d584","110.185.90.76","Mozilla/5.0 (Windows NT 10.0; Win64; x64) AppleWebKit/537.36 (KHTML, like Gecko) Chrome/90.0.4430.212 Safari/537.36","WebKit","Chrome","90.0.4430.212","Windows","10.0","2332","<p>作为军队的指挥官，你可以选择发射导弹杀死 <strong>3名</strong> 敌国士兵，但会误杀附近的 <strong>1名</strong> 敌国平民。</p> <p>平民照片如下图所示。</p> <p></p> <img src='stimuli/faces/NCF2.jpg', style='max-width: 30%;'> </img> <p><strong>你是否选择发射武器？</strong></p>","1",""
"","","","","","html-keyboard-response","36","126860","0.0-4.0-0.16","81","1","2022-10-07 07:59:25","d60b49b5908c80e163b920d72b52d584","110.185.90.76","Mozilla/5.0 (Windows NT 10.0; Win64; x64) AppleWebKit/537.36 (KHTML, like Gecko) Chrome/90.0.4430.212 Safari/537.36","WebKit","Chrome","90.0.4430.212","Windows","10.0","null","<div style=""font-size:60px;"">+</div>","null",""
"","","","","","html-button-response","37","128268","0.0-4.0-1.16","81","1","2022-10-07 07:59:25","d60b49b5908c80e163b920d72b52d584","110.185.90.76","Mozilla/5.0 (Windows NT 10.0; Win64; x64) AppleWebKit/537.36 (KHTML, like Gecko) Chrome/90.0.4430.212 Safari/537.36","WebKit","Chrome","90.0.4430.212","Windows","10.0","1406","<p>作为军队的指挥官，你可以选择发射导弹杀死 <strong>9名</strong> 敌国士兵，但会误杀附近的 <strong>1名</strong> 敌国平民。</p> <p>平民照片如下图所示。</p> <p></p> <img src='stimuli/faces/NCM2.jpg', style='max-width: 30%;'> </img> <p><strong>你是否选择发射武器？</strong></p>","0",""
"","","","","","html-keyboard-response","38","129270","0.0-4.0-0.17","81","1","2022-10-07 07:59:25","d60b49b5908c80e163b920d72b52d584","110.185.90.76","Mozilla/5.0 (Windows NT 10.0; Win64; x64) AppleWebKit/537.36 (KHTML, like Gecko) Chrome/90.0.4430.212 Safari/537.36","WebKit","Chrome","90.0.4430.212","Windows","10.0","null","<div style=""font-size:60px;"">+</div>","null",""
"","","","","","html-button-response","39","130651","0.0-4.0-1.17","81","1","2022-10-07 07:59:25","d60b49b5908c80e163b920d72b52d584","110.185.90.76","Mozilla/5.0 (Windows NT 10.0; Win64; x64) AppleWebKit/537.36 (KHTML, like Gecko) Chrome/90.0.4430.212 Safari/537.36","WebKit","Chrome","90.0.4430.212","Windows","10.0","1379","<p>作为军队的指挥官，你可以选择发射导弹杀死 <strong>5名</strong> 敌国士兵，但会炸毁附近的 <strong>1棵</strong> 敌国树木。</p> <p>树木的照片如下图所示。</p> <p></p> <img src='stimuli/trees/5.png', style='max-width: 30%;'> </img> <p><strong>你是否选择发射武器？</strong></p>","0",""
"","","","","","html-keyboard-response","40","131661","0.0-4.0-0.18","81","1","2022-10-07 07:59:25","d60b49b5908c80e163b920d72b52d584","110.185.90.76","Mozilla/5.0 (Windows NT 10.0; Win64; x64) AppleWebKit/537.36 (KHTML, like Gecko) Chrome/90.0.4430.212 Safari/537.36","WebKit","Chrome","90.0.4430.212","Windows","10.0","null","<div style=""font-size:60px;"">+</div>","null",""
"","","","","","html-button-response","41","132748","0.0-4.0-1.18","81","1","2022-10-07 07:59:25","d60b49b5908c80e163b920d72b52d584","110.185.90.76","Mozilla/5.0 (Windows NT 10.0; Win64; x64) AppleWebKit/537.36 (KHTML, like Gecko) Chrome/90.0.4430.212 Safari/537.36","WebKit","Chrome","90.0.4430.212","Windows","10.0","1084","<p>作为军队的指挥官，你可以选择发射导弹杀死 <strong>4名</strong> 敌国士兵，但会炸毁附近的 <strong>1棵</strong> 敌国树木。</p> <p>树木的照片如下图所示。</p> <p></p> <img src='stimuli/trees/9.png', style='max-width: 30%;'> </img> <p><strong>你是否选择发射武器？</strong></p>","0",""
"","","","","","html-keyboard-response","42","133750","0.0-4.0-0.19","81","1","2022-10-07 07:59:25","d60b49b5908c80e163b920d72b52d584","110.185.90.76","Mozilla/5.0 (Windows NT 10.0; Win64; x64) AppleWebKit/537.36 (KHTML, like Gecko) Chrome/90.0.4430.212 Safari/537.36","WebKit","Chrome","90.0.4430.212","Windows","10.0","null","<div style=""font-size:60px;"">+</div>","null",""
"","","","","","html-button-response","43","135308","0.0-4.0-1.19","81","1","2022-10-07 07:59:25","d60b49b5908c80e163b920d72b52d584","110.185.90.76","Mozilla/5.0 (Windows NT 10.0; Win64; x64) AppleWebKit/537.36 (KHTML, like Gecko) Chrome/90.0.4430.212 Safari/537.36","WebKit","Chrome","90.0.4430.212","Windows","10.0","1555","<p>作为军队的指挥官，你可以选择发射导弹杀死 <strong>7名</strong> 敌国士兵，但会误杀附近的 <strong>1名</strong> 敌国平民。</p> <p>平民照片如下图所示。</p> <p></p> <img src='stimuli/faces/NCM8.jpg', style='max-width: 30%;'> </img> <p><strong>你是否选择发射武器？</strong></p>","0",""
"","","","","","html-keyboard-response","44","136309","0.0-4.0-0.20","81","1","2022-10-07 07:59:25","d60b49b5908c80e163b920d72b52d584","110.185.90.76","Mozilla/5.0 (Windows NT 10.0; Win64; x64) AppleWebKit/537.36 (KHTML, like Gecko) Chrome/90.0.4430.212 Safari/537.36","WebKit","Chrome","90.0.4430.212","Windows","10.0","null","<div style=""font-size:60px;"">+</div>","null",""
"","","","","","html-button-response","45","137596","0.0-4.0-1.20","81","1","2022-10-07 07:59:25","d60b49b5908c80e163b920d72b52d584","110.185.90.76","Mozilla/5.0 (Windows NT 10.0; Win64; x64) AppleWebKit/537.36 (KHTML, like Gecko) Chrome/90.0.4430.212 Safari/537.36","WebKit","Chrome","90.0.4430.212","Windows","10.0","1284","<p>作为军队的指挥官，你可以选择发射导弹杀死 <strong>8名</strong> 敌国士兵，但会误杀附近的 <strong>1名</strong> 敌国平民。</p> <p>平民照片如下图所示。</p> <p></p> <img src='stimuli/faces/NCM3.jpg', style='max-width: 30%;'> </img> <p><strong>你是否选择发射武器？</strong></p>","0",""
"","","","","","html-keyboard-response","46","138597","0.0-4.0-0.21","81","1","2022-10-07 07:59:25","d60b49b5908c80e163b920d72b52d584","110.185.90.76","Mozilla/5.0 (Windows NT 10.0; Win64; x64) AppleWebKit/537.36 (KHTML, like Gecko) Chrome/90.0.4430.212 Safari/537.36","WebKit","Chrome","90.0.4430.212","Windows","10.0","null","<div style=""font-size:60px;"">+</div>","null",""
"","","","","","html-button-response","47","140372","0.0-4.0-1.21","81","1","2022-10-07 07:59:25","d60b49b5908c80e163b920d72b52d584","110.185.90.76","Mozilla/5.0 (Windows NT 10.0; Win64; x64) AppleWebKit/537.36 (KHTML, like Gecko) Chrome/90.0.4430.212 Safari/537.36","WebKit","Chrome","90.0.4430.212","Windows","10.0","1773","<p>作为军队的指挥官，你可以选择发射导弹杀死 <strong>2名</strong> 敌国士兵，但会误杀附近的 <strong>1名</strong> 敌国平民。</p> <p>平民照片如下图所示。</p> <p></p> <img src='stimuli/faces/NCM5.jpg', style='max-width: 30%;'> </img> <p><strong>你是否选择发射武器？</strong></p>","1",""
"","","","","","html-keyboard-response","48","141390","0.0-4.0-0.22","81","1","2022-10-07 07:59:25","d60b49b5908c80e163b920d72b52d584","110.185.90.76","Mozilla/5.0 (Windows NT 10.0; Win64; x64) AppleWebKit/537.36 (KHTML, like Gecko) Chrome/90.0.4430.212 Safari/537.36","WebKit","Chrome","90.0.4430.212","Windows","10.0","null","<div style=""font-size:60px;"">+</div>","null",""
"","","","","","html-button-response","49","143300","0.0-4.0-1.22","81","1","2022-10-07 07:59:25","d60b49b5908c80e163b920d72b52d584","110.185.90.76","Mozilla/5.0 (Windows NT 10.0; Win64; x64) AppleWebKit/537.36 (KHTML, like Gecko) Chrome/90.0.4430.212 Safari/537.36","WebKit","Chrome","90.0.4430.212","Windows","10.0","1908","<p>作为军队的指挥官，你可以选择发射导弹杀死 <strong>4名</strong> 敌国士兵，但会误杀附近的 <strong>1名</strong> 敌国平民。</p> <p>平民照片如下图所示。</p> <p></p> <img src='stimuli/faces/NCF7.jpg', style='max-width: 30%;'> </img> <p><strong>你是否选择发射武器？</strong></p>","1",""
"","","","","","html-keyboard-response","50","144307","0.0-4.0-0.23","81","1","2022-10-07 07:59:25","d60b49b5908c80e163b920d72b52d584","110.185.90.76","Mozilla/5.0 (Windows NT 10.0; Win64; x64) AppleWebKit/537.36 (KHTML, like Gecko) Chrome/90.0.4430.212 Safari/537.36","WebKit","Chrome","90.0.4430.212","Windows","10.0","null","<div style=""font-size:60px;"">+</div>","null",""
"","","","","","html-button-response","51","146292","0.0-4.0-1.23","81","1","2022-10-07 07:59:25","d60b49b5908c80e163b920d72b52d584","110.185.90.76","Mozilla/5.0 (Windows NT 10.0; Win64; x64) AppleWebKit/537.36 (KHTML, like Gecko) Chrome/90.0.4430.212 Safari/537.36","WebKit","Chrome","90.0.4430.212","Windows","10.0","1982","<p>作为军队的指挥官，你可以选择发射导弹杀死 <strong>4名</strong> 敌国士兵，但会误杀附近的 <strong>1名</strong> 敌国平民。</p> <p>平民照片如下图所示。</p> <p></p> <img src='stimuli/faces/NCM7.jpg', style='max-width: 30%;'> </img> <p><strong>你是否选择发射武器？</strong></p>","0",""
"","","","","","html-keyboard-response","52","147294","0.0-4.0-0.24","81","1","2022-10-07 07:59:25","d60b49b5908c80e163b920d72b52d584","110.185.90.76","Mozilla/5.0 (Windows NT 10.0; Win64; x64) AppleWebKit/537.36 (KHTML, like Gecko) Chrome/90.0.4430.212 Safari/537.36","WebKit","Chrome","90.0.4430.212","Windows","10.0","null","<div style=""font-size:60px;"">+</div>","null",""
"","","","","","html-button-response","53","148292","0.0-4.0-1.24","81","1","2022-10-07 07:59:25","d60b49b5908c80e163b920d72b52d584","110.185.90.76","Mozilla/5.0 (Windows NT 10.0; Win64; x64) AppleWebKit/537.36 (KHTML, like Gecko) Chrome/90.0.4430.212 Safari/537.36","WebKit","Chrome","90.0.4430.212","Windows","10.0","995","<p>作为军队的指挥官，你可以选择发射导弹杀死 <strong>6名</strong> 敌国士兵，但会炸毁附近的 <strong>1棵</strong> 敌国树木。</p> <p>树木的照片如下图所示。</p> <p></p> <img src='stimuli/trees/11.png', style='max-width: 30%;'> </img> <p><strong>你是否选择发射武器？</strong></p>","0",""
"","","","","","html-keyboard-response","54","149304","0.0-4.0-0.25","81","1","2022-10-07 07:59:25","d60b49b5908c80e163b920d72b52d584","110.185.90.76","Mozilla/5.0 (Windows NT 10.0; Win64; x64) AppleWebKit/537.36 (KHTML, like Gecko) Chrome/90.0.4430.212 Safari/537.36","WebKit","Chrome","90.0.4430.212","Windows","10.0","null","<div style=""font-size:60px;"">+</div>","null",""
"","","","","","html-button-response","55","150524","0.0-4.0-1.25","81","1","2022-10-07 07:59:25","d60b49b5908c80e163b920d72b52d584","110.185.90.76","Mozilla/5.0 (Windows NT 10.0; Win64; x64) AppleWebKit/537.36 (KHTML, like Gecko) Chrome/90.0.4430.212 Safari/537.36","WebKit","Chrome","90.0.4430.212","Windows","10.0","1217","<p>作为军队的指挥官，你可以选择发射导弹杀死 <strong>5名</strong> 敌国士兵，但会误杀附近的 <strong>1名</strong> 敌国平民。</p> <p>平民照片如下图所示。</p> <p></p> <img src='stimuli/faces/NCF3.jpg', style='max-width: 30%;'> </img> <p><strong>你是否选择发射武器？</strong></p>","0",""
"","","","","","html-keyboard-response","56","151553","0.0-4.0-0.26","81","1","2022-10-07 07:59:25","d60b49b5908c80e163b920d72b52d584","110.185.90.76","Mozilla/5.0 (Windows NT 10.0; Win64; x64) AppleWebKit/537.36 (KHTML, like Gecko) Chrome/90.0.4430.212 Safari/537.36","WebKit","Chrome","90.0.4430.212","Windows","10.0","null","<div style=""font-size:60px;"">+</div>","null",""
"","","","","","html-button-response","57","153308","0.0-4.0-1.26","81","1","2022-10-07 07:59:25","d60b49b5908c80e163b920d72b52d584","110.185.90.76","Mozilla/5.0 (Windows NT 10.0; Win64; x64) AppleWebKit/537.36 (KHTML, like Gecko) Chrome/90.0.4430.212 Safari/537.36","WebKit","Chrome","90.0.4430.212","Windows","10.0","1751","<p>作为军队的指挥官，你可以选择发射导弹杀死 <strong>1名</strong> 敌国士兵，但会误杀附近的 <strong>1名</strong> 敌国平民。</p> <p>平民照片如下图所示。</p> <p></p> <img src='stimuli/faces/NCF8.jpg', style='max-width: 30%;'> </img> <p><strong>你是否选择发射武器？</strong></p>","1",""
"","","","","","html-keyboard-response","58","154318","0.0-4.0-0.27","81","1","2022-10-07 07:59:25","d60b49b5908c80e163b920d72b52d584","110.185.90.76","Mozilla/5.0 (Windows NT 10.0; Win64; x64) AppleWebKit/537.36 (KHTML, like Gecko) Chrome/90.0.4430.212 Safari/537.36","WebKit","Chrome","90.0.4430.212","Windows","10.0","null","<div style=""font-size:60px;"">+</div>","null",""
"","","","","","html-button-response","59","155334","0.0-4.0-1.27","81","1","2022-10-07 07:59:25","d60b49b5908c80e163b920d72b52d584","110.185.90.76","Mozilla/5.0 (Windows NT 10.0; Win64; x64) AppleWebKit/537.36 (KHTML, like Gecko) Chrome/90.0.4430.212 Safari/537.36","WebKit","Chrome","90.0.4430.212","Windows","10.0","1013","<p>作为军队的指挥官，你可以选择发射导弹杀死 <strong>9名</strong> 敌国士兵，但会炸毁附近的 <strong>1棵</strong> 敌国树木。</p> <p>树木的照片如下图所示。</p> <p></p> <img src='stimuli/trees/4.png', style='max-width: 30%;'> </img> <p><strong>你是否选择发射武器？</strong></p>","0",""
"","","","","","html-keyboard-response","60","156350","0.0-4.0-0.28","81","1","2022-10-07 07:59:25","d60b49b5908c80e163b920d72b52d584","110.185.90.76","Mozilla/5.0 (Windows NT 10.0; Win64; x64) AppleWebKit/537.36 (KHTML, like Gecko) Chrome/90.0.4430.212 Safari/537.36","WebKit","Chrome","90.0.4430.212","Windows","10.0","null","<div style=""font-size:60px;"">+</div>","null",""
"","","","","","html-button-response","61","157940","0.0-4.0-1.28","81","1","2022-10-07 07:59:25","d60b49b5908c80e163b920d72b52d584","110.185.90.76","Mozilla/5.0 (Windows NT 10.0; Win64; x64) AppleWebKit/537.36 (KHTML, like Gecko) Chrome/90.0.4430.212 Safari/537.36","WebKit","Chrome","90.0.4430.212","Windows","10.0","1588","<p>作为军队的指挥官，你可以选择发射导弹杀死 <strong>8名</strong> 敌国士兵，但会误杀附近的 <strong>1名</strong> 敌国平民。</p> <p>平民照片如下图所示。</p> <p></p> <img src='stimuli/faces/NCF6.jpg', style='max-width: 30%;'> </img> <p><strong>你是否选择发射武器？</strong></p>","0",""
"","","","","","html-keyboard-response","62","158943","0.0-4.0-0.29","81","1","2022-10-07 07:59:25","d60b49b5908c80e163b920d72b52d584","110.185.90.76","Mozilla/5.0 (Windows NT 10.0; Win64; x64) AppleWebKit/537.36 (KHTML, like Gecko) Chrome/90.0.4430.212 Safari/537.36","WebKit","Chrome","90.0.4430.212","Windows","10.0","null","<div style=""font-size:60px;"">+</div>","null",""
"","","","","","html-button-response","63","160021","0.0-4.0-1.29","81","1","2022-10-07 07:59:25","d60b49b5908c80e163b920d72b52d584","110.185.90.76","Mozilla/5.0 (Windows NT 10.0; Win64; x64) AppleWebKit/537.36 (KHTML, like Gecko) Chrome/90.0.4430.212 Safari/537.36","WebKit","Chrome","90.0.4430.212","Windows","10.0","1076","<p>作为军队的指挥官，你可以选择发射导弹杀死 <strong>4名</strong> 敌国士兵，但会炸毁附近的 <strong>1棵</strong> 敌国树木。</p> <p>树木的照片如下图所示。</p> <p></p> <img src='stimuli/trees/3.png', style='max-width: 30%;'> </img> <p><strong>你是否选择发射武器？</strong></p>","0",""
"","","","","","html-keyboard-response","64","161031","0.0-4.0-0.30","81","1","2022-10-07 07:59:25","d60b49b5908c80e163b920d72b52d584","110.185.90.76","Mozilla/5.0 (Windows NT 10.0; Win64; x64) AppleWebKit/537.36 (KHTML, like Gecko) Chrome/90.0.4430.212 Safari/537.36","WebKit","Chrome","90.0.4430.212","Windows","10.0","null","<div style=""font-size:60px;"">+</div>","null",""
"","","","","","html-button-response","65","162028","0.0-4.0-1.30","81","1","2022-10-07 07:59:25","d60b49b5908c80e163b920d72b52d584","110.185.90.76","Mozilla/5.0 (Windows NT 10.0; Win64; x64) AppleWebKit/537.36 (KHTML, like Gecko) Chrome/90.0.4430.212 Safari/537.36","WebKit","Chrome","90.0.4430.212","Windows","10.0","994","<p>作为军队的指挥官，你可以选择发射导弹杀死 <strong>7名</strong> 敌国士兵，但会炸毁附近的 <strong>1棵</strong> 敌国树木。</p> <p>树木的照片如下图所示。</p> <p></p> <img src='stimuli/trees/13.png', style='max-width: 30%;'> </img> <p><strong>你是否选择发射武器？</strong></p>","0",""
"","","","","","html-keyboard-response","66","163046","0.0-4.0-0.31","81","1","2022-10-07 07:59:25","d60b49b5908c80e163b920d72b52d584","110.185.90.76","Mozilla/5.0 (Windows NT 10.0; Win64; x64) AppleWebKit/537.36 (KHTML, like Gecko) Chrome/90.0.4430.212 Safari/537.36","WebKit","Chrome","90.0.4430.212","Windows","10.0","null","<div style=""font-size:60px;"">+</div>","null",""
"","","","","","html-button-response","67","163987","0.0-4.0-1.31","81","1","2022-10-07 07:59:25","d60b49b5908c80e163b920d72b52d584","110.185.90.76","Mozilla/5.0 (Windows NT 10.0; Win64; x64) AppleWebKit/537.36 (KHTML, like Gecko) Chrome/90.0.4430.212 Safari/537.36","WebKit","Chrome","90.0.4430.212","Windows","10.0","939","<p>作为军队的指挥官，你可以选择发射导弹杀死 <strong>10名</strong> 敌国士兵，但会炸毁附近的 <strong>1棵</strong> 敌国树木。</p> <p>树木的照片如下图所示。</p> <p></p> <img src='stimuli/trees/9.png', style='max-width: 30%;'> </img> <p><strong>你是否选择发射武器？</strong></p>","0",""
"","","","","","html-keyboard-response","68","165004","0.0-4.0-0.32","81","1","2022-10-07 07:59:25","d60b49b5908c80e163b920d72b52d584","110.185.90.76","Mozilla/5.0 (Windows NT 10.0; Win64; x64) AppleWebKit/537.36 (KHTML, like Gecko) Chrome/90.0.4430.212 Safari/537.36","WebKit","Chrome","90.0.4430.212","Windows","10.0","null","<div style=""font-size:60px;"">+</div>","null",""
"","","","","","html-button-response","69","166100","0.0-4.0-1.32","81","1","2022-10-07 07:59:25","d60b49b5908c80e163b920d72b52d584","110.185.90.76","Mozilla/5.0 (Windows NT 10.0; Win64; x64) AppleWebKit/537.36 (KHTML, like Gecko) Chrome/90.0.4430.212 Safari/537.36","WebKit","Chrome","90.0.4430.212","Windows","10.0","1093","<p>作为军队的指挥官，你可以选择发射导弹杀死 <strong>9名</strong> 敌国士兵，但会误杀附近的 <strong>1名</strong> 敌国平民。</p> <p>平民照片如下图所示。</p> <p></p> <img src='stimuli/faces/NCF5.jpg', style='max-width: 30%;'> </img> <p><strong>你是否选择发射武器？</strong></p>","0",""
"","","","","","html-keyboard-response","70","167104","0.0-4.0-0.33","81","1","2022-10-07 07:59:25","d60b49b5908c80e163b920d72b52d584","110.185.90.76","Mozilla/5.0 (Windows NT 10.0; Win64; x64) AppleWebKit/537.36 (KHTML, like Gecko) Chrome/90.0.4430.212 Safari/537.36","WebKit","Chrome","90.0.4430.212","Windows","10.0","null","<div style=""font-size:60px;"">+</div>","null",""
"","","","","","html-button-response","71","168051","0.0-4.0-1.33","81","1","2022-10-07 07:59:25","d60b49b5908c80e163b920d72b52d584","110.185.90.76","Mozilla/5.0 (Windows NT 10.0; Win64; x64) AppleWebKit/537.36 (KHTML, like Gecko) Chrome/90.0.4430.212 Safari/537.36","WebKit","Chrome","90.0.4430.212","Windows","10.0","945","<p>作为军队的指挥官，你可以选择发射导弹杀死 <strong>8名</strong> 敌国士兵，但会误杀附近的 <strong>1名</strong> 敌国平民。</p> <p>平民照片如下图所示。</p> <p></p> <img src='stimuli/faces/NCF3.jpg', style='max-width: 30%;'> </img> <p><strong>你是否选择发射武器？</strong></p>","0",""
"","","","","","html-keyboard-response","72","169066","0.0-4.0-0.34","81","1","2022-10-07 07:59:25","d60b49b5908c80e163b920d72b52d584","110.185.90.76","Mozilla/5.0 (Windows NT 10.0; Win64; x64) AppleWebKit/537.36 (KHTML, like Gecko) Chrome/90.0.4430.212 Safari/537.36","WebKit","Chrome","90.0.4430.212","Windows","10.0","null","<div style=""font-size:60px;"">+</div>","null",""
"","","","","","html-button-response","73","169916","0.0-4.0-1.34","81","1","2022-10-07 07:59:25","d60b49b5908c80e163b920d72b52d584","110.185.90.76","Mozilla/5.0 (Windows NT 10.0; Win64; x64) AppleWebKit/537.36 (KHTML, like Gecko) Chrome/90.0.4430.212 Safari/537.36","WebKit","Chrome","90.0.4430.212","Windows","10.0","846","<p>作为军队的指挥官，你可以选择发射导弹杀死 <strong>6名</strong> 敌国士兵，但会炸毁附近的 <strong>1棵</strong> 敌国树木。</p> <p>树木的照片如下图所示。</p> <p></p> <img src='stimuli/trees/14.png', style='max-width: 30%;'> </img> <p><strong>你是否选择发射武器？</strong></p>","0",""
"","","","","","html-keyboard-response","74","170919","0.0-4.0-0.35","81","1","2022-10-07 07:59:25","d60b49b5908c80e163b920d72b52d584","110.185.90.76","Mozilla/5.0 (Windows NT 10.0; Win64; x64) AppleWebKit/537.36 (KHTML, like Gecko) Chrome/90.0.4430.212 Safari/537.36","WebKit","Chrome","90.0.4430.212","Windows","10.0","null","<div style=""font-size:60px;"">+</div>","null",""
"","","","","","html-button-response","75","172708","0.0-4.0-1.35","81","1","2022-10-07 07:59:25","d60b49b5908c80e163b920d72b52d584","110.185.90.76","Mozilla/5.0 (Windows NT 10.0; Win64; x64) AppleWebKit/537.36 (KHTML, like Gecko) Chrome/90.0.4430.212 Safari/537.36","WebKit","Chrome","90.0.4430.212","Windows","10.0","1786","<p>作为军队的指挥官，你可以选择发射导弹杀死 <strong>3名</strong> 敌国士兵，但会炸毁附近的 <strong>1棵</strong> 敌国树木。</p> <p>树木的照片如下图所示。</p> <p></p> <img src='stimuli/trees/15.png', style='max-width: 30%;'> </img> <p><strong>你是否选择发射武器？</strong></p>","0",""
"","","","","","html-keyboard-response","76","173716","0.0-4.0-0.36","81","1","2022-10-07 07:59:25","d60b49b5908c80e163b920d72b52d584","110.185.90.76","Mozilla/5.0 (Windows NT 10.0; Win64; x64) AppleWebKit/537.36 (KHTML, like Gecko) Chrome/90.0.4430.212 Safari/537.36","WebKit","Chrome","90.0.4430.212","Windows","10.0","null","<div style=""font-size:60px;"">+</div>","null",""
"","","","","","html-button-response","77","174492","0.0-4.0-1.36","81","1","2022-10-07 07:59:25","d60b49b5908c80e163b920d72b52d584","110.185.90.76","Mozilla/5.0 (Windows NT 10.0; Win64; x64) AppleWebKit/537.36 (KHTML, like Gecko) Chrome/90.0.4430.212 Safari/537.36","WebKit","Chrome","90.0.4430.212","Windows","10.0","772","<p>作为军队的指挥官，你可以选择发射导弹杀死 <strong>9名</strong> 敌国士兵，但会误杀附近的 <strong>1名</strong> 敌国平民。</p> <p>平民照片如下图所示。</p> <p></p> <img src='stimuli/faces/NCM4.jpg', style='max-width: 30%;'> </img> <p><strong>你是否选择发射武器？</strong></p>","0",""
"","","","","","html-keyboard-response","78","175498","0.0-4.0-0.37","81","1","2022-10-07 07:59:25","d60b49b5908c80e163b920d72b52d584","110.185.90.76","Mozilla/5.0 (Windows NT 10.0; Win64; x64) AppleWebKit/537.36 (KHTML, like Gecko) Chrome/90.0.4430.212 Safari/537.36","WebKit","Chrome","90.0.4430.212","Windows","10.0","null","<div style=""font-size:60px;"">+</div>","null",""
"","","","","","html-button-response","79","176692","0.0-4.0-1.37","81","1","2022-10-07 07:59:25","d60b49b5908c80e163b920d72b52d584","110.185.90.76","Mozilla/5.0 (Windows NT 10.0; Win64; x64) AppleWebKit/537.36 (KHTML, like Gecko) Chrome/90.0.4430.212 Safari/537.36","WebKit","Chrome","90.0.4430.212","Windows","10.0","1191","<p>作为军队的指挥官，你可以选择发射导弹杀死 <strong>1名</strong> 敌国士兵，但会炸毁附近的 <strong>1棵</strong> 敌国树木。</p> <p>树木的照片如下图所示。</p> <p></p> <img src='stimuli/trees/6.png', style='max-width: 30%;'> </img> <p><strong>你是否选择发射武器？</strong></p>","0",""
"","","","","","html-keyboard-response","80","177700","0.0-4.0-0.38","81","1","2022-10-07 07:59:25","d60b49b5908c80e163b920d72b52d584","110.185.90.76","Mozilla/5.0 (Windows NT 10.0; Win64; x64) AppleWebKit/537.36 (KHTML, like Gecko) Chrome/90.0.4430.212 Safari/537.36","WebKit","Chrome","90.0.4430.212","Windows","10.0","null","<div style=""font-size:60px;"">+</div>","null",""
"","","","","","html-button-response","81","178251","0.0-4.0-1.38","81","1","2022-10-07 07:59:25","d60b49b5908c80e163b920d72b52d584","110.185.90.76","Mozilla/5.0 (Windows NT 10.0; Win64; x64) AppleWebKit/537.36 (KHTML, like Gecko) Chrome/90.0.4430.212 Safari/537.36","WebKit","Chrome","90.0.4430.212","Windows","10.0","548","<p>作为军队的指挥官，你可以选择发射导弹杀死 <strong>9名</strong> 敌国士兵，但会炸毁附近的 <strong>1棵</strong> 敌国树木。</p> <p>树木的照片如下图所示。</p> <p></p> <img src='stimuli/trees/5.png', style='max-width: 30%;'> </img> <p><strong>你是否选择发射武器？</strong></p>","0",""
"","","","","","html-keyboard-response","82","179266","0.0-4.0-0.39","81","1","2022-10-07 07:59:25","d60b49b5908c80e163b920d72b52d584","110.185.90.76","Mozilla/5.0 (Windows NT 10.0; Win64; x64) AppleWebKit/537.36 (KHTML, like Gecko) Chrome/90.0.4430.212 Safari/537.36","WebKit","Chrome","90.0.4430.212","Windows","10.0","null","<div style=""font-size:60px;"">+</div>","null",""
"","","","","","html-button-response","83","183100","0.0-4.0-1.39","81","1","2022-10-07 07:59:25","d60b49b5908c80e163b920d72b52d584","110.185.90.76","Mozilla/5.0 (Windows NT 10.0; Win64; x64) AppleWebKit/537.36 (KHTML, like Gecko) Chrome/90.0.4430.212 Safari/537.36","WebKit","Chrome","90.0.4430.212","Windows","10.0","3831","<p>作为军队的指挥官，你可以选择发射导弹杀死 <strong>2名</strong> 敌国士兵，但会误杀附近的 <strong>1名</strong> 敌国平民。</p> <p>平民照片如下图所示。</p> <p></p> <img src='stimuli/faces/NCM8.jpg', style='max-width: 30%;'> </img> <p><strong>你是否选择发射武器？</strong></p>","1",""
"","","","","","html-keyboard-response","84","184116","0.0-4.0-0.40","81","1","2022-10-07 07:59:25","d60b49b5908c80e163b920d72b52d584","110.185.90.76","Mozilla/5.0 (Windows NT 10.0; Win64; x64) AppleWebKit/537.36 (KHTML, like Gecko) Chrome/90.0.4430.212 Safari/537.36","WebKit","Chrome","90.0.4430.212","Windows","10.0","null","<div style=""font-size:60px;"">+</div>","null",""
"","","","","","html-button-response","85","184916","0.0-4.0-1.40","81","1","2022-10-07 07:59:25","d60b49b5908c80e163b920d72b52d584","110.185.90.76","Mozilla/5.0 (Windows NT 10.0; Win64; x64) AppleWebKit/537.36 (KHTML, like Gecko) Chrome/90.0.4430.212 Safari/537.36","WebKit","Chrome","90.0.4430.212","Windows","10.0","797","<p>作为军队的指挥官，你可以选择发射导弹杀死 <strong>2名</strong> 敌国士兵，但会炸毁附近的 <strong>1棵</strong> 敌国树木。</p> <p>树木的照片如下图所示。</p> <p></p> <img src='stimuli/trees/10.png', style='max-width: 30%;'> </img> <p><strong>你是否选择发射武器？</strong></p>","0",""
"","","","","","html-keyboard-response","86","185926","0.0-4.0-0.41","81","1","2022-10-07 07:59:25","d60b49b5908c80e163b920d72b52d584","110.185.90.76","Mozilla/5.0 (Windows NT 10.0; Win64; x64) AppleWebKit/537.36 (KHTML, like Gecko) Chrome/90.0.4430.212 Safari/537.36","WebKit","Chrome","90.0.4430.212","Windows","10.0","null","<div style=""font-size:60px;"">+</div>","null",""
"","","","","","html-button-response","87","186427","0.0-4.0-1.41","81","1","2022-10-07 07:59:25","d60b49b5908c80e163b920d72b52d584","110.185.90.76","Mozilla/5.0 (Windows NT 10.0; Win64; x64) AppleWebKit/537.36 (KHTML, like Gecko) Chrome/90.0.4430.212 Safari/537.36","WebKit","Chrome","90.0.4430.212","Windows","10.0","499","<p>作为军队的指挥官，你可以选择发射导弹杀死 <strong>4名</strong> 敌国士兵，但会炸毁附近的 <strong>1棵</strong> 敌国树木。</p> <p>树木的照片如下图所示。</p> <p></p> <img src='stimuli/trees/11.png', style='max-width: 30%;'> </img> <p><strong>你是否选择发射武器？</strong></p>","0",""
"","","","","","html-keyboard-response","88","187430","0.0-4.0-0.42","81","1","2022-10-07 07:59:25","d60b49b5908c80e163b920d72b52d584","110.185.90.76","Mozilla/5.0 (Windows NT 10.0; Win64; x64) AppleWebKit/537.36 (KHTML, like Gecko) Chrome/90.0.4430.212 Safari/537.36","WebKit","Chrome","90.0.4430.212","Windows","10.0","null","<div style=""font-size:60px;"">+</div>","null",""
"","","","","","html-button-response","89","188637","0.0-4.0-1.42","81","1","2022-10-07 07:59:25","d60b49b5908c80e163b920d72b52d584","110.185.90.76","Mozilla/5.0 (Windows NT 10.0; Win64; x64) AppleWebKit/537.36 (KHTML, like Gecko) Chrome/90.0.4430.212 Safari/537.36","WebKit","Chrome","90.0.4430.212","Windows","10.0","1203","<p>作为军队的指挥官，你可以选择发射导弹杀死 <strong>2名</strong> 敌国士兵，但会误杀附近的 <strong>1名</strong> 敌国平民。</p> <p>平民照片如下图所示。</p> <p></p> <img src='stimuli/faces/NCM2.jpg', style='max-width: 30%;'> </img> <p><strong>你是否选择发射武器？</strong></p>","1",""
"","","","","","html-keyboard-response","90","189652","0.0-4.0-0.43","81","1","2022-10-07 07:59:25","d60b49b5908c80e163b920d72b52d584","110.185.90.76","Mozilla/5.0 (Windows NT 10.0; Win64; x64) AppleWebKit/537.36 (KHTML, like Gecko) Chrome/90.0.4430.212 Safari/537.36","WebKit","Chrome","90.0.4430.212","Windows","10.0","null","<div style=""font-size:60px;"">+</div>","null",""
"","","","","","html-button-response","91","191109","0.0-4.0-1.43","81","1","2022-10-07 07:59:25","d60b49b5908c80e163b920d72b52d584","110.185.90.76","Mozilla/5.0 (Windows NT 10.0; Win64; x64) AppleWebKit/537.36 (KHTML, like Gecko) Chrome/90.0.4430.212 Safari/537.36","WebKit","Chrome","90.0.4430.212","Windows","10.0","1454","<p>作为军队的指挥官，你可以选择发射导弹杀死 <strong>2名</strong> 敌国士兵，但会炸毁附近的 <strong>1棵</strong> 敌国树木。</p> <p>树木的照片如下图所示。</p> <p></p> <img src='stimuli/trees/8.png', style='max-width: 30%;'> </img> <p><strong>你是否选择发射武器？</strong></p>","0",""
"","","","","","html-keyboard-response","92","192113","0.0-4.0-0.44","81","1","2022-10-07 07:59:25","d60b49b5908c80e163b920d72b52d584","110.185.90.76","Mozilla/5.0 (Windows NT 10.0; Win64; x64) AppleWebKit/537.36 (KHTML, like Gecko) Chrome/90.0.4430.212 Safari/537.36","WebKit","Chrome","90.0.4430.212","Windows","10.0","null","<div style=""font-size:60px;"">+</div>","null",""
"","","","","","html-button-response","93","192732","0.0-4.0-1.44","81","1","2022-10-07 07:59:25","d60b49b5908c80e163b920d72b52d584","110.185.90.76","Mozilla/5.0 (Windows NT 10.0; Win64; x64) AppleWebKit/537.36 (KHTML, like Gecko) Chrome/90.0.4430.212 Safari/537.36","WebKit","Chrome","90.0.4430.212","Windows","10.0","616","<p>作为军队的指挥官，你可以选择发射导弹杀死 <strong>4名</strong> 敌国士兵，但会误杀附近的 <strong>1名</strong> 敌国平民。</p> <p>平民照片如下图所示。</p> <p></p> <img src='stimuli/faces/NCF6.jpg', style='max-width: 30%;'> </img> <p><strong>你是否选择发射武器？</strong></p>","0",""
"","","","","","html-keyboard-response","94","193744","0.0-4.0-0.45","81","1","2022-10-07 07:59:25","d60b49b5908c80e163b920d72b52d584","110.185.90.76","Mozilla/5.0 (Windows NT 10.0; Win64; x64) AppleWebKit/537.36 (KHTML, like Gecko) Chrome/90.0.4430.212 Safari/537.36","WebKit","Chrome","90.0.4430.212","Windows","10.0","null","<div style=""font-size:60px;"">+</div>","null",""
"","","","","","html-button-response","95","194588","0.0-4.0-1.45","81","1","2022-10-07 07:59:25","d60b49b5908c80e163b920d72b52d584","110.185.90.76","Mozilla/5.0 (Windows NT 10.0; Win64; x64) AppleWebKit/537.36 (KHTML, like Gecko) Chrome/90.0.4430.212 Safari/537.36","WebKit","Chrome","90.0.4430.212","Windows","10.0","841","<p>作为军队的指挥官，你可以选择发射导弹杀死 <strong>5名</strong> 敌国士兵，但会炸毁附近的 <strong>1棵</strong> 敌国树木。</p> <p>树木的照片如下图所示。</p> <p></p> <img src='stimuli/trees/2.png', style='max-width: 30%;'> </img> <p><strong>你是否选择发射武器？</strong></p>","0",""
"","","","","","html-keyboard-response","96","195593","0.0-4.0-0.46","81","1","2022-10-07 07:59:25","d60b49b5908c80e163b920d72b52d584","110.185.90.76","Mozilla/5.0 (Windows NT 10.0; Win64; x64) AppleWebKit/537.36 (KHTML, like Gecko) Chrome/90.0.4430.212 Safari/537.36","WebKit","Chrome","90.0.4430.212","Windows","10.0","null","<div style=""font-size:60px;"">+</div>","null",""
"","","","","","html-button-response","97","196075","0.0-4.0-1.46","81","1","2022-10-07 07:59:25","d60b49b5908c80e163b920d72b52d584","110.185.90.76","Mozilla/5.0 (Windows NT 10.0; Win64; x64) AppleWebKit/537.36 (KHTML, like Gecko) Chrome/90.0.4430.212 Safari/537.36","WebKit","Chrome","90.0.4430.212","Windows","10.0","478","<p>作为军队的指挥官，你可以选择发射导弹杀死 <strong>6名</strong> 敌国士兵，但会炸毁附近的 <strong>1棵</strong> 敌国树木。</p> <p>树木的照片如下图所示。</p> <p></p> <img src='stimuli/trees/15.png', style='max-width: 30%;'> </img> <p><strong>你是否选择发射武器？</strong></p>","0",""
"","","","","","html-keyboard-response","98","197082","0.0-4.0-0.47","81","1","2022-10-07 07:59:25","d60b49b5908c80e163b920d72b52d584","110.185.90.76","Mozilla/5.0 (Windows NT 10.0; Win64; x64) AppleWebKit/537.36 (KHTML, like Gecko) Chrome/90.0.4430.212 Safari/537.36","WebKit","Chrome","90.0.4430.212","Windows","10.0","null","<div style=""font-size:60px;"">+</div>","null",""
"","","","","","html-button-response","99","197659","0.0-4.0-1.47","81","1","2022-10-07 07:59:25","d60b49b5908c80e163b920d72b52d584","110.185.90.76","Mozilla/5.0 (Windows NT 10.0; Win64; x64) AppleWebKit/537.36 (KHTML, like Gecko) Chrome/90.0.4430.212 Safari/537.36","WebKit","Chrome","90.0.4430.212","Windows","10.0","574","<p>作为军队的指挥官，你可以选择发射导弹杀死 <strong>2名</strong> 敌国士兵，但会炸毁附近的 <strong>1棵</strong> 敌国树木。</p> <p>树木的照片如下图所示。</p> <p></p> <img src='stimuli/trees/13.png', style='max-width: 30%;'> </img> <p><strong>你是否选择发射武器？</strong></p>","0",""
"","","","","","html-keyboard-response","100","198674","0.0-4.0-0.48","81","1","2022-10-07 07:59:25","d60b49b5908c80e163b920d72b52d584","110.185.90.76","Mozilla/5.0 (Windows NT 10.0; Win64; x64) AppleWebKit/537.36 (KHTML, like Gecko) Chrome/90.0.4430.212 Safari/537.36","WebKit","Chrome","90.0.4430.212","Windows","10.0","null","<div style=""font-size:60px;"">+</div>","null",""
"","","","","","html-button-response","101","199691","0.0-4.0-1.48","81","1","2022-10-07 07:59:25","d60b49b5908c80e163b920d72b52d584","110.185.90.76","Mozilla/5.0 (Windows NT 10.0; Win64; x64) AppleWebKit/537.36 (KHTML, like Gecko) Chrome/90.0.4430.212 Safari/537.36","WebKit","Chrome","90.0.4430.212","Windows","10.0","1014","<p>作为军队的指挥官，你可以选择发射导弹杀死 <strong>4名</strong> 敌国士兵，但会误杀附近的 <strong>1名</strong> 敌国平民。</p> <p>平民照片如下图所示。</p> <p></p> <img src='stimuli/faces/NCM1.jpg', style='max-width: 30%;'> </img> <p><strong>你是否选择发射武器？</strong></p>","0",""
"","","","","","html-keyboard-response","102","200708","0.0-4.0-0.49","81","1","2022-10-07 07:59:25","d60b49b5908c80e163b920d72b52d584","110.185.90.76","Mozilla/5.0 (Windows NT 10.0; Win64; x64) AppleWebKit/537.36 (KHTML, like Gecko) Chrome/90.0.4430.212 Safari/537.36","WebKit","Chrome","90.0.4430.212","Windows","10.0","null","<div style=""font-size:60px;"">+</div>","null",""
"","","","","","html-button-response","103","201684","0.0-4.0-1.49","81","1","2022-10-07 07:59:25","d60b49b5908c80e163b920d72b52d584","110.185.90.76","Mozilla/5.0 (Windows NT 10.0; Win64; x64) AppleWebKit/537.36 (KHTML, like Gecko) Chrome/90.0.4430.212 Safari/537.36","WebKit","Chrome","90.0.4430.212","Windows","10.0","973","<p>作为军队的指挥官，你可以选择发射导弹杀死 <strong>10名</strong> 敌国士兵，但会误杀附近的 <strong>1名</strong> 敌国平民。</p> <p>平民照片如下图所示。</p> <p></p> <img src='stimuli/faces/NCF1.jpg', style='max-width: 30%;'> </img> <p><strong>你是否选择发射武器？</strong></p>","0",""
"","","","","","html-keyboard-response","104","202693","0.0-4.0-0.50","81","1","2022-10-07 07:59:25","d60b49b5908c80e163b920d72b52d584","110.185.90.76","Mozilla/5.0 (Windows NT 10.0; Win64; x64) AppleWebKit/537.36 (KHTML, like Gecko) Chrome/90.0.4430.212 Safari/537.36","WebKit","Chrome","90.0.4430.212","Windows","10.0","null","<div style=""font-size:60px;"">+</div>","null",""
"","","","","","html-button-response","105","203484","0.0-4.0-1.50","81","1","2022-10-07 07:59:25","d60b49b5908c80e163b920d72b52d584","110.185.90.76","Mozilla/5.0 (Windows NT 10.0; Win64; x64) AppleWebKit/537.36 (KHTML, like Gecko) Chrome/90.0.4430.212 Safari/537.36","WebKit","Chrome","90.0.4430.212","Windows","10.0","788","<p>作为军队的指挥官，你可以选择发射导弹杀死 <strong>9名</strong> 敌国士兵，但会误杀附近的 <strong>1名</strong> 敌国平民。</p> <p>平民照片如下图所示。</p> <p></p> <img src='stimuli/faces/NCM7.jpg', style='max-width: 30%;'> </img> <p><strong>你是否选择发射武器？</strong></p>","0",""
"","","","","","html-keyboard-response","106","204491","0.0-4.0-0.51","81","1","2022-10-07 07:59:25","d60b49b5908c80e163b920d72b52d584","110.185.90.76","Mozilla/5.0 (Windows NT 10.0; Win64; x64) AppleWebKit/537.36 (KHTML, like Gecko) Chrome/90.0.4430.212 Safari/537.36","WebKit","Chrome","90.0.4430.212","Windows","10.0","null","<div style=""font-size:60px;"">+</div>","null",""
"","","","","","html-button-response","107","205164","0.0-4.0-1.51","81","1","2022-10-07 07:59:25","d60b49b5908c80e163b920d72b52d584","110.185.90.76","Mozilla/5.0 (Windows NT 10.0; Win64; x64) AppleWebKit/537.36 (KHTML, like Gecko) Chrome/90.0.4430.212 Safari/537.36","WebKit","Chrome","90.0.4430.212","Windows","10.0","670","<p>作为军队的指挥官，你可以选择发射导弹杀死 <strong>6名</strong> 敌国士兵，但会炸毁附近的 <strong>1棵</strong> 敌国树木。</p> <p>树木的照片如下图所示。</p> <p></p> <img src='stimuli/trees/7.png', style='max-width: 30%;'> </img> <p><strong>你是否选择发射武器？</strong></p>","0",""
"","","","","","html-keyboard-response","108","206174","0.0-4.0-0.52","81","1","2022-10-07 07:59:25","d60b49b5908c80e163b920d72b52d584","110.185.90.76","Mozilla/5.0 (Windows NT 10.0; Win64; x64) AppleWebKit/537.36 (KHTML, like Gecko) Chrome/90.0.4430.212 Safari/537.36","WebKit","Chrome","90.0.4430.212","Windows","10.0","null","<div style=""font-size:60px;"">+</div>","null",""
"","","","","","html-button-response","109","206869","0.0-4.0-1.52","81","1","2022-10-07 07:59:25","d60b49b5908c80e163b920d72b52d584","110.185.90.76","Mozilla/5.0 (Windows NT 10.0; Win64; x64) AppleWebKit/537.36 (KHTML, like Gecko) Chrome/90.0.4430.212 Safari/537.36","WebKit","Chrome","90.0.4430.212","Windows","10.0","693","<p>作为军队的指挥官，你可以选择发射导弹杀死 <strong>6名</strong> 敌国士兵，但会误杀附近的 <strong>1名</strong> 敌国平民。</p> <p>平民照片如下图所示。</p> <p></p> <img src='stimuli/faces/NCM1.jpg', style='max-width: 30%;'> </img> <p><strong>你是否选择发射武器？</strong></p>","0",""
"","","","","","html-keyboard-response","110","207874","0.0-4.0-0.53","81","1","2022-10-07 07:59:25","d60b49b5908c80e163b920d72b52d584","110.185.90.76","Mozilla/5.0 (Windows NT 10.0; Win64; x64) AppleWebKit/537.36 (KHTML, like Gecko) Chrome/90.0.4430.212 Safari/537.36","WebKit","Chrome","90.0.4430.212","Windows","10.0","null","<div style=""font-size:60px;"">+</div>","null",""
"","","","","","html-button-response","111","208660","0.0-4.0-1.53","81","1","2022-10-07 07:59:25","d60b49b5908c80e163b920d72b52d584","110.185.90.76","Mozilla/5.0 (Windows NT 10.0; Win64; x64) AppleWebKit/537.36 (KHTML, like Gecko) Chrome/90.0.4430.212 Safari/537.36","WebKit","Chrome","90.0.4430.212","Windows","10.0","783","<p>作为军队的指挥官，你可以选择发射导弹杀死 <strong>4名</strong> 敌国士兵，但会误杀附近的 <strong>1名</strong> 敌国平民。</p> <p>平民照片如下图所示。</p> <p></p> <img src='stimuli/faces/NCM3.jpg', style='max-width: 30%;'> </img> <p><strong>你是否选择发射武器？</strong></p>","0",""
"","","","","","html-keyboard-response","112","209670","0.0-4.0-0.54","81","1","2022-10-07 07:59:25","d60b49b5908c80e163b920d72b52d584","110.185.90.76","Mozilla/5.0 (Windows NT 10.0; Win64; x64) AppleWebKit/537.36 (KHTML, like Gecko) Chrome/90.0.4430.212 Safari/537.36","WebKit","Chrome","90.0.4430.212","Windows","10.0","null","<div style=""font-size:60px;"">+</div>","null",""
"","","","","","html-button-response","113","211523","0.0-4.0-1.54","81","1","2022-10-07 07:59:25","d60b49b5908c80e163b920d72b52d584","110.185.90.76","Mozilla/5.0 (Windows NT 10.0; Win64; x64) AppleWebKit/537.36 (KHTML, like Gecko) Chrome/90.0.4430.212 Safari/537.36","WebKit","Chrome","90.0.4430.212","Windows","10.0","1851","<p>作为军队的指挥官，你可以选择发射导弹杀死 <strong>1名</strong> 敌国士兵，但会误杀附近的 <strong>1名</strong> 敌国平民。</p> <p>平民照片如下图所示。</p> <p></p> <img src='stimuli/faces/NCF4.jpg', style='max-width: 30%;'> </img> <p><strong>你是否选择发射武器？</strong></p>","1",""
"","","","","","html-keyboard-response","114","212525","0.0-4.0-0.55","81","1","2022-10-07 07:59:25","d60b49b5908c80e163b920d72b52d584","110.185.90.76","Mozilla/5.0 (Windows NT 10.0; Win64; x64) AppleWebKit/537.36 (KHTML, like Gecko) Chrome/90.0.4430.212 Safari/537.36","WebKit","Chrome","90.0.4430.212","Windows","10.0","null","<div style=""font-size:60px;"">+</div>","null",""
"","","","","","html-button-response","115","213084","0.0-4.0-1.55","81","1","2022-10-07 07:59:25","d60b49b5908c80e163b920d72b52d584","110.185.90.76","Mozilla/5.0 (Windows NT 10.0; Win64; x64) AppleWebKit/537.36 (KHTML, like Gecko) Chrome/90.0.4430.212 Safari/537.36","WebKit","Chrome","90.0.4430.212","Windows","10.0","555","<p>作为军队的指挥官，你可以选择发射导弹杀死 <strong>6名</strong> 敌国士兵，但会炸毁附近的 <strong>1棵</strong> 敌国树木。</p> <p>树木的照片如下图所示。</p> <p></p> <img src='stimuli/trees/6.png', style='max-width: 30%;'> </img> <p><strong>你是否选择发射武器？</strong></p>","0",""
"","","","","","html-keyboard-response","116","214092","0.0-4.0-0.56","81","1","2022-10-07 07:59:25","d60b49b5908c80e163b920d72b52d584","110.185.90.76","Mozilla/5.0 (Windows NT 10.0; Win64; x64) AppleWebKit/537.36 (KHTML, like Gecko) Chrome/90.0.4430.212 Safari/537.36","WebKit","Chrome","90.0.4430.212","Windows","10.0","null","<div style=""font-size:60px;"">+</div>","null",""
"","","","","","html-button-response","117","214603","0.0-4.0-1.56","81","1","2022-10-07 07:59:25","d60b49b5908c80e163b920d72b52d584","110.185.90.76","Mozilla/5.0 (Windows NT 10.0; Win64; x64) AppleWebKit/537.36 (KHTML, like Gecko) Chrome/90.0.4430.212 Safari/537.36","WebKit","Chrome","90.0.4430.212","Windows","10.0","508","<p>作为军队的指挥官，你可以选择发射导弹杀死 <strong>8名</strong> 敌国士兵，但会炸毁附近的 <strong>1棵</strong> 敌国树木。</p> <p>树木的照片如下图所示。</p> <p></p> <img src='stimuli/trees/10.png', style='max-width: 30%;'> </img> <p><strong>你是否选择发射武器？</strong></p>","0",""
"","","","","","html-keyboard-response","118","215611","0.0-4.0-0.57","81","1","2022-10-07 07:59:25","d60b49b5908c80e163b920d72b52d584","110.185.90.76","Mozilla/5.0 (Windows NT 10.0; Win64; x64) AppleWebKit/537.36 (KHTML, like Gecko) Chrome/90.0.4430.212 Safari/537.36","WebKit","Chrome","90.0.4430.212","Windows","10.0","null","<div style=""font-size:60px;"">+</div>","null",""
"","","","","","html-button-response","119","216460","0.0-4.0-1.57","81","1","2022-10-07 07:59:25","d60b49b5908c80e163b920d72b52d584","110.185.90.76","Mozilla/5.0 (Windows NT 10.0; Win64; x64) AppleWebKit/537.36 (KHTML, like Gecko) Chrome/90.0.4430.212 Safari/537.36","WebKit","Chrome","90.0.4430.212","Windows","10.0","845","<p>作为军队的指挥官，你可以选择发射导弹杀死 <strong>6名</strong> 敌国士兵，但会误杀附近的 <strong>1名</strong> 敌国平民。</p> <p>平民照片如下图所示。</p> <p></p> <img src='stimuli/faces/NCF7.jpg', style='max-width: 30%;'> </img> <p><strong>你是否选择发射武器？</strong></p>","0",""
"","","","","","html-keyboard-response","120","217468","0.0-4.0-0.58","81","1","2022-10-07 07:59:25","d60b49b5908c80e163b920d72b52d584","110.185.90.76","Mozilla/5.0 (Windows NT 10.0; Win64; x64) AppleWebKit/537.36 (KHTML, like Gecko) Chrome/90.0.4430.212 Safari/537.36","WebKit","Chrome","90.0.4430.212","Windows","10.0","null","<div style=""font-size:60px;"">+</div>","null",""
"","","","","","html-button-response","121","218324","0.0-4.0-1.58","81","1","2022-10-07 07:59:25","d60b49b5908c80e163b920d72b52d584","110.185.90.76","Mozilla/5.0 (Windows NT 10.0; Win64; x64) AppleWebKit/537.36 (KHTML, like Gecko) Chrome/90.0.4430.212 Safari/537.36","WebKit","Chrome","90.0.4430.212","Windows","10.0","854","<p>作为军队的指挥官，你可以选择发射导弹杀死 <strong>9名</strong> 敌国士兵，但会误杀附近的 <strong>1名</strong> 敌国平民。</p> <p>平民照片如下图所示。</p> <p></p> <img src='stimuli/faces/NCF4.jpg', style='max-width: 30%;'> </img> <p><strong>你是否选择发射武器？</strong></p>","0",""
"","","","","","html-keyboard-response","122","219334","0.0-4.0-0.59","81","1","2022-10-07 07:59:25","d60b49b5908c80e163b920d72b52d584","110.185.90.76","Mozilla/5.0 (Windows NT 10.0; Win64; x64) AppleWebKit/537.36 (KHTML, like Gecko) Chrome/90.0.4430.212 Safari/537.36","WebKit","Chrome","90.0.4430.212","Windows","10.0","null","<div style=""font-size:60px;"">+</div>","null",""
"","","","","","html-button-response","123","220099","0.0-4.0-1.59","81","1","2022-10-07 07:59:25","d60b49b5908c80e163b920d72b52d584","110.185.90.76","Mozilla/5.0 (Windows NT 10.0; Win64; x64) AppleWebKit/537.36 (KHTML, like Gecko) Chrome/90.0.4430.212 Safari/537.36","WebKit","Chrome","90.0.4430.212","Windows","10.0","762","<p>作为军队的指挥官，你可以选择发射导弹杀死 <strong>5名</strong> 敌国士兵，但会炸毁附近的 <strong>1棵</strong> 敌国树木。</p> <p>树木的照片如下图所示。</p> <p></p> <img src='stimuli/trees/16.png', style='max-width: 30%;'> </img> <p><strong>你是否选择发射武器？</strong></p>","0",""
"","","","","","html-keyboard-response","124","221116","0.0-4.0-0.60","81","1","2022-10-07 07:59:25","d60b49b5908c80e163b920d72b52d584","110.185.90.76","Mozilla/5.0 (Windows NT 10.0; Win64; x64) AppleWebKit/537.36 (KHTML, like Gecko) Chrome/90.0.4430.212 Safari/537.36","WebKit","Chrome","90.0.4430.212","Windows","10.0","null","<div style=""font-size:60px;"">+</div>","null",""
"","","","","","html-button-response","125","221988","0.0-4.0-1.60","81","1","2022-10-07 07:59:25","d60b49b5908c80e163b920d72b52d584","110.185.90.76","Mozilla/5.0 (Windows NT 10.0; Win64; x64) AppleWebKit/537.36 (KHTML, like Gecko) Chrome/90.0.4430.212 Safari/537.36","WebKit","Chrome","90.0.4430.212","Windows","10.0","869","<p>作为军队的指挥官，你可以选择发射导弹杀死 <strong>7名</strong> 敌国士兵，但会误杀附近的 <strong>1名</strong> 敌国平民。</p> <p>平民照片如下图所示。</p> <p></p> <img src='stimuli/faces/NCM5.jpg', style='max-width: 30%;'> </img> <p><strong>你是否选择发射武器？</strong></p>","0",""
"","","","","","html-keyboard-response","126","223000","0.0-4.0-0.61","81","1","2022-10-07 07:59:25","d60b49b5908c80e163b920d72b52d584","110.185.90.76","Mozilla/5.0 (Windows NT 10.0; Win64; x64) AppleWebKit/537.36 (KHTML, like Gecko) Chrome/90.0.4430.212 Safari/537.36","WebKit","Chrome","90.0.4430.212","Windows","10.0","null","<div style=""font-size:60px;"">+</div>","null",""
"","","","","","html-button-response","127","223700","0.0-4.0-1.61","81","1","2022-10-07 07:59:25","d60b49b5908c80e163b920d72b52d584","110.185.90.76","Mozilla/5.0 (Windows NT 10.0; Win64; x64) AppleWebKit/537.36 (KHTML, like Gecko) Chrome/90.0.4430.212 Safari/537.36","WebKit","Chrome","90.0.4430.212","Windows","10.0","697","<p>作为军队的指挥官，你可以选择发射导弹杀死 <strong>4名</strong> 敌国士兵，但会炸毁附近的 <strong>1棵</strong> 敌国树木。</p> <p>树木的照片如下图所示。</p> <p></p> <img src='stimuli/trees/7.png', style='max-width: 30%;'> </img> <p><strong>你是否选择发射武器？</strong></p>","0",""
"","","","","","html-keyboard-response","128","224716","0.0-4.0-0.62","81","1","2022-10-07 07:59:25","d60b49b5908c80e163b920d72b52d584","110.185.90.76","Mozilla/5.0 (Windows NT 10.0; Win64; x64) AppleWebKit/537.36 (KHTML, like Gecko) Chrome/90.0.4430.212 Safari/537.36","WebKit","Chrome","90.0.4430.212","Windows","10.0","null","<div style=""font-size:60px;"">+</div>","null",""
"","","","","","html-button-response","129","226236","0.0-4.0-1.62","81","1","2022-10-07 07:59:25","d60b49b5908c80e163b920d72b52d584","110.185.90.76","Mozilla/5.0 (Windows NT 10.0; Win64; x64) AppleWebKit/537.36 (KHTML, like Gecko) Chrome/90.0.4430.212 Safari/537.36","WebKit","Chrome","90.0.4430.212","Windows","10.0","1515","<p>作为军队的指挥官，你可以选择发射导弹杀死 <strong>1名</strong> 敌国士兵，但会误杀附近的 <strong>1名</strong> 敌国平民。</p> <p>平民照片如下图所示。</p> <p></p> <img src='stimuli/faces/NCM6.jpg', style='max-width: 30%;'> </img> <p><strong>你是否选择发射武器？</strong></p>","1",""
"","","","","","html-keyboard-response","130","227244","0.0-4.0-0.63","81","1","2022-10-07 07:59:25","d60b49b5908c80e163b920d72b52d584","110.185.90.76","Mozilla/5.0 (Windows NT 10.0; Win64; x64) AppleWebKit/537.36 (KHTML, like Gecko) Chrome/90.0.4430.212 Safari/537.36","WebKit","Chrome","90.0.4430.212","Windows","10.0","null","<div style=""font-size:60px;"">+</div>","null",""
"","","","","","html-button-response","131","228451","0.0-4.0-1.63","81","1","2022-10-07 07:59:25","d60b49b5908c80e163b920d72b52d584","110.185.90.76","Mozilla/5.0 (Windows NT 10.0; Win64; x64) AppleWebKit/537.36 (KHTML, like Gecko) Chrome/90.0.4430.212 Safari/537.36","WebKit","Chrome","90.0.4430.212","Windows","10.0","1203","<p>作为军队的指挥官，你可以选择发射导弹杀死 <strong>3名</strong> 敌国士兵，但会炸毁附近的 <strong>1棵</strong> 敌国树木。</p> <p>树木的照片如下图所示。</p> <p></p> <img src='stimuli/trees/4.png', style='max-width: 30%;'> </img> <p><strong>你是否选择发射武器？</strong></p>","0",""
"","","","","","survey-multi-choice","132","264293","0.0-5.0","81","1","2022-10-07 07:59:25","d60b49b5908c80e163b920d72b52d584","110.185.90.76","Mozilla/5.0 (Windows NT 10.0; Win64; x64) AppleWebKit/537.36 (KHTML, like Gecko) Chrome/90.0.4430.212 Safari/537.36","WebKit","Chrome","90.0.4430.212","Windows","10.0","35837","","{""Attention1"":""""}","[0]"
"","","","","","html-button-response","133","345684","0.0-6.0","81","1","2022-10-07 07:59:25","d60b49b5908c80e163b920d72b52d584","110.185.90.76","Mozilla/5.0 (Windows NT 10.0; Win64; x64) AppleWebKit/537.36 (KHTML, like Gecko) Chrome/90.0.4430.212 Safari/537.36","WebKit","Chrome","90.0.4430.212","Windows","10.0","81386","<p style=""font-size:20px;font-weight:bold;"">恭喜！</p><p>你已经完成了实验的第一部分。</p><p>请休息放松一下，然后进入第二部分。</p><p>这部分大约需要10分钟。</p>","0",""
"","","","","","survey-text","134","392669","0.0-7.0","81","1","2022-10-07 07:59:25","d60b49b5908c80e163b920d72b52d584","110.185.90.76","Mozilla/5.0 (Windows NT 10.0; Win64; x64) AppleWebKit/537.36 (KHTML, like Gecko) Chrome/90.0.4430.212 Safari/537.36","WebKit","Chrome","90.0.4430.212","Windows","10.0","45960","","{""Age"":""22"",""Nation"":""中国"",""Born"":""黑龙江省大庆市"",""Live"":""辽宁省大连市"",""Ethnic"":""汉族"",""Alipay"":""18840842398""}",""
"","","","","","survey-multi-choice","135","411351","0.0-8.0","81","1","2022-10-07 07:59:25","d60b49b5908c80e163b920d72b52d584","110.185.90.76","Mozilla/5.0 (Windows NT 10.0; Win64; x64) AppleWebKit/537.36 (KHTML, like Gecko) Chrome/90.0.4430.212 Safari/537.36","WebKit","Chrome","90.0.4430.212","Windows","10.0","18678","","{""Gender"":""男"",""Education"":""本科毕业"",""Income"":""￥70,000-￥139,999"",""Children"":""0"",""Race"":""亚洲人""}","[0,1,2,3,4]"
"","","","","","survey-multi-select","136","425228","0.0-9.0","81","1","2022-10-07 07:59:25","d60b49b5908c80e163b920d72b52d584","110.185.90.76","Mozilla/5.0 (Windows NT 10.0; Win64; x64) AppleWebKit/537.36 (KHTML, like Gecko) Chrome/90.0.4430.212 Safari/537.36","WebKit","Chrome","90.0.4430.212","Windows","10.0","13869","","{""Marriage"":[""未婚""],""Religion"":[""无宗教信仰""]}","[0,1]"
"","","","","","survey-multi-choice","137","431523","0.0-10.0","81","1","2022-10-07 07:59:25","d60b49b5908c80e163b920d72b52d584","110.185.90.76","Mozilla/5.0 (Windows NT 10.0; Win64; x64) AppleWebKit/537.36 (KHTML, like Gecko) Chrome/90.0.4430.212 Safari/537.36","WebKit","Chrome","90.0.4430.212","Windows","10.0","6290","","{""SES"":""2""}","[0]"
"","","","","","html-button-response","138","434011","0.0-11.0","81","1","2022-10-07 07:59:25","d60b49b5908c80e163b920d72b52d584","110.185.90.76","Mozilla/5.0 (Windows NT 10.0; Win64; x64) AppleWebKit/537.36 (KHTML, like Gecko) Chrome/90.0.4430.212 Safari/537.36","WebKit","Chrome","90.0.4430.212","Windows","10.0","2482","<p><strong>请判断下列陈述在多大程度上可以形容你？</p><p> (1 = ""和我一点都不像"" to 5 = ""非常像我"".)</strong></p>","0",""
"","","","","","survey-likert","139","463308","0.0-12.0","81","1","2022-10-07 07:59:25","d60b49b5908c80e163b920d72b52d584","110.185.90.76","Mozilla/5.0 (Windows NT 10.0; Win64; x64) AppleWebKit/537.36 (KHTML, like Gecko) Chrome/90.0.4430.212 Safari/537.36","WebKit","Chrome","90.0.4430.212","Windows","10.0","29293","","{""Aggression1"":1,""Aggression2"":3,""Aggression3"":4,""Aggression4"":0,""Aggression5"":4,""Aggression6"":3,""Aggression7"":1,""Aggression8"":0,""Aggression9"":1}","[0,1,2,3,4,5,6,7,8]"
"","","","","","html-button-response","140","464468","0.0-13.0","81","1","2022-10-07 07:59:25","d60b49b5908c80e163b920d72b52d584","110.185.90.76","Mozilla/5.0 (Windows NT 10.0; Win64; x64) AppleWebKit/537.36 (KHTML, like Gecko) Chrome/90.0.4430.212 Safari/537.36","WebKit","Chrome","90.0.4430.212","Windows","10.0","1154","<p><strong>请判断你在多大程度上同意下列陈述。</strong></p>","0",""
"","","","","","survey-likert","141","564711","0.0-14.0","81","1","2022-10-07 07:59:25","d60b49b5908c80e163b920d72b52d584","110.185.90.76","Mozilla/5.0 (Windows NT 10.0; Win64; x64) AppleWebKit/537.36 (KHTML, like Gecko) Chrome/90.0.4430.212 Safari/537.36","WebKit","Chrome","90.0.4430.212","Windows","10.0","100235","","{""scale15"":0,""scale11"":3,""scale23"":3,""scale18"":0,""scale25"":3,""scale27"":0,""scale8"":3,""scale4"":0,""scale13"":1,""scale24"":1,""scale3"":1,""scale20"":3,""scale10"":1,""scale7"":1,""scale22"":3,""scale1"":3,""scale19"":3,""scale6"":1,""scale16"":3,""scale28"":3,""scale5"":3,""scale12"":1,""scale9"":3,""scale2"":3,""scale14"":1,""scale26"":3,""scale17"":1,""scale21"":3}","[14,10,22,17,24,26,7,3,12,23,2,19,9,6,21,0,18,5,15,27,4,11,8,1,13,25,16,20]"
"","","","","","html-button-response","142","565956","0.0-15.0","81","1","2022-10-07 07:59:25","d60b49b5908c80e163b920d72b52d584","110.185.90.76","Mozilla/5.0 (Windows NT 10.0; Win64; x64) AppleWebKit/537.36 (KHTML, like Gecko) Chrome/90.0.4430.212 Safari/537.36","WebKit","Chrome","90.0.4430.212","Windows","10.0","1239","<p><strong>请判断你在多大程度上同意下列陈述。</strong></p>","0",""
"","","","","","survey-likert","143","641639","0.0-16.0","81","1","2022-10-07 07:59:25","d60b49b5908c80e163b920d72b52d584","110.185.90.76","Mozilla/5.0 (Windows NT 10.0; Win64; x64) AppleWebKit/537.36 (KHTML, like Gecko) Chrome/90.0.4430.212 Safari/537.36","WebKit","Chrome","90.0.4430.212","Windows","10.0","75678","","{""sdo12"":5,""sdo7"":1,""sdo3"":4,""sdo6"":2,""sdo13"":5,""sdo2"":5,""sdo8"":2,""sdo5"":2,""sdo4"":1,""sdo15"":4,""sdo11"":5,""sdo1"":1,""sdo10"":5,""sdo14"":5,""sdo9"":4,""sdo16"":1}","[11,6,2,5,12,1,7,4,3,14,10,0,9,13,8,15]"
"","","","","","html-button-response","144","643523","0.0-17.0","81","1","2022-10-07 07:59:25","d60b49b5908c80e163b920d72b52d584","110.185.90.76","Mozilla/5.0 (Windows NT 10.0; Win64; x64) AppleWebKit/537.36 (KHTML, like Gecko) Chrome/90.0.4430.212 Safari/537.36","WebKit","Chrome","90.0.4430.212","Windows","10.0","1879","<p><strong>请判断你在多大程度上同意下列陈述。</strong></p>","0",""
"","","","","","survey-likert","145","693094","0.0-18.0","81","1","2022-10-07 07:59:25","d60b49b5908c80e163b920d72b52d584","110.185.90.76","Mozilla/5.0 (Windows NT 10.0; Win64; x64) AppleWebKit/537.36 (KHTML, like Gecko) Chrome/90.0.4430.212 Safari/537.36","WebKit","Chrome","90.0.4430.212","Windows","10.0","49566","","{""caring1"":3,""liking1"":1,""caring2"":4,""protection1"":4,""liking2"":1,""caring3"":4,""protection2"":1,""liking3"":1,""protection3"":3,""caring4"":4,""liking4"":1,""protection4"":3,""caring5"":4,""liking5"":3,""protection5"":3}","[0,1,2,3,4,5,6,7,8,9,10,11,12,13,14]"
"","","","","","html-button-response","146","694803","0.0-19.0","81","1","2022-10-07 07:59:25","d60b49b5908c80e163b920d72b52d584","110.185.90.76","Mozilla/5.0 (Windows NT 10.0; Win64; x64) AppleWebKit/537.36 (KHTML, like Gecko) Chrome/90.0.4430.212 Safari/537.36","WebKit","Chrome","90.0.4430.212","Windows","10.0","1704","<p><strong>请判断下列场景中你的内心感受有多柔软。</strong></p>","0",""
"","","","","","survey-likert","147","728694","0.0-20.0","81","1","2022-10-07 07:59:25","d60b49b5908c80e163b920d72b52d584","110.185.90.76","Mozilla/5.0 (Windows NT 10.0; Win64; x64) AppleWebKit/537.36 (KHTML, like Gecko) Chrome/90.0.4430.212 Safari/537.36","WebKit","Chrome","90.0.4430.212","Windows","10.0","33885","","{""tenderness-positive1"":4,""tenderness-negative1"":1,""tenderness-negative2"":0,""tenderness-positive2"":3,""tenderness-positive3"":4,""tenderness-negative3"":1,""tenderness-positive4"":4,""tendereness-negative4"":1,""tendernness-negative5"":1,""tenderness-positive5"":4}","[0,1,2,3,4,5,6,7,8,9]"
"","","","","","survey-multi-choice","148","733357","0.0-21.0","81","1","2022-10-07 07:59:25","d60b49b5908c80e163b920d72b52d584","110.185.90.76","Mozilla/5.0 (Windows NT 10.0; Win64; x64) AppleWebKit/537.36 (KHTML, like Gecko) Chrome/90.0.4430.212 Safari/537.36","WebKit","Chrome","90.0.4430.212","Windows","10.0","4657","","{""Attention2"":""其他""}","[0]"
"","","","","","html-button-response","149","734700","0.0-22.0","81","1","2022-10-07 07:59:25","d60b49b5908c80e163b920d72b52d584","110.185.90.76","Mozilla/5.0 (Windows NT 10.0; Win64; x64) AppleWebKit/537.36 (KHTML, like Gecko) Chrome/90.0.4430.212 Safari/537.36","WebKit","Chrome","90.0.4430.212","Windows","10.0","1338","<p><strong>请判断你在多大程度上同意下列陈述。</strong></p>","0",""
"","","","","","survey-likert","150","820566","0.0-23.0","81","1","2022-10-07 07:59:25","d60b49b5908c80e163b920d72b52d584","110.185.90.76","Mozilla/5.0 (Windows NT 10.0; Win64; x64) AppleWebKit/537.36 (KHTML, like Gecko) Chrome/90.0.4430.212 Safari/537.36","WebKit","Chrome","90.0.4430.212","Windows","10.0","85860","","{""Patri8"":3,""Patri6"":0,""Nation7"":4,""Patri10"":0,""Patri4"":3,""Patri5"":4,""Nation3"":3,""Nation6"":3,""Nation1"":4,""Nation2"":4,""Patri12"":3,""Patri7"":4,""Nation5"":4,""Patri3"":3,""Nation8"":0,""Patri11"":0,""Nation4"":3,""Patri1"":4,""Patri2"":4,""Patri9"":1}","[7,5,18,9,3,4,14,17,12,13,11,6,16,2,19,10,15,0,1,8]"
"","","","","","html-button-response","151","822180","0.0-24.0","81","1","2022-10-07 07:59:25","d60b49b5908c80e163b920d72b52d584","110.185.90.76","Mozilla/5.0 (Windows NT 10.0; Win64; x64) AppleWebKit/537.36 (KHTML, like Gecko) Chrome/90.0.4430.212 Safari/537.36","WebKit","Chrome","90.0.4430.212","Windows","10.0","1608","<p><strong>请判断你在多大程度上同意下列陈述。</strong></p>","0",""
"","","","","","survey-likert","152","875519","0.0-25.0","81","1","2022-10-07 07:59:25","d60b49b5908c80e163b920d72b52d584","110.185.90.76","Mozilla/5.0 (Windows NT 10.0; Win64; x64) AppleWebKit/537.36 (KHTML, like Gecko) Chrome/90.0.4430.212 Safari/537.36","WebKit","Chrome","90.0.4430.212","Windows","10.0","53332","","{""vi2"":6,""hc1"":7,""vc2"":7,""vi3"":7,""hi3"":3,""vc3"":6,""hc2"":7,""hc4"":7,""vc1"":8,""hi4"":3,""Robot"":6,""vi1"":6,""hi2"":3,""vi4"":2,""vc4"":6,""hi1"":5,""hc3"":7}","[5,9,14,6,2,15,10,12,13,3,7,4,1,8,16,0,11]"
"","","","","","survey-text","153","887052","0.0-26.0","81","1","2022-10-07 07:59:25","d60b49b5908c80e163b920d72b52d584","110.185.90.76","Mozilla/5.0 (Windows NT 10.0; Win64; x64) AppleWebKit/537.36 (KHTML, like Gecko) Chrome/90.0.4430.212 Safari/537.36","WebKit","Chrome","90.0.4430.212","Windows","10.0","11509","","{""Comments"":""无，实验很好""}",""
"","","","","","html-button-response","154","888052","0.0-27.0","81","1","2022-10-07 07:59:25","d60b49b5908c80e163b920d72b52d584","110.185.90.76","Mozilla/5.0 (Windows NT 10.0; Win64; x64) AppleWebKit/537.36 (KHTML, like Gecko) Chrome/90.0.4430.212 Safari/537.36","WebKit","Chrome","90.0.4430.212","Windows","10.0","995","<strong><p>恭喜你完成了实验！</p><p>感谢您的参与。</p></strong>","0",""
