"success","timeout","failed_images","failed_audio","failed_video","trial_type","trial_index","time_elapsed","internal_node_id","run_id","condition","recorded_at","source_code_version","ip","user_agent","device","browser","browser_version","platform","platform_version","rt","stimulus","response","question_order"
"true","false","[]","[]","[]","preload","0","1717","0.0-0.0","83","1","2022-10-07 08:05:06","d60b49b5908c80e163b920d72b52d584","111.33.203.254","Mozilla/5.0 (Macintosh; Intel Mac OS X 10_15_5) AppleWebKit/537.36 (KHTML, like Gecko) Chrome/105.0.0.0 Safari/537.36","Macintosh","Chrome","105.0.0.0","OS X","10_15_5","","","",""
"true","","","","","fullscreen","1","9290","0.0-1.0","83","1","2022-10-07 08:05:06","d60b49b5908c80e163b920d72b52d584","111.33.203.254","Mozilla/5.0 (Macintosh; Intel Mac OS X 10_15_5) AppleWebKit/537.36 (KHTML, like Gecko) Chrome/105.0.0.0 Safari/537.36","Macintosh","Chrome","105.0.0.0","OS X","10_15_5","","","",""
"","","","","","html-button-response","2","28778","0.0-2.0","83","1","2022-10-07 08:05:06","d60b49b5908c80e163b920d72b52d584","111.33.203.254","Mozilla/5.0 (Macintosh; Intel Mac OS X 10_15_5) AppleWebKit/537.36 (KHTML, like Gecko) Chrome/105.0.0.0 Safari/537.36","Macintosh","Chrome","105.0.0.0","OS X","10_15_5","19485","<p style=""font-size:20px;font-weight:bold;"">实验知情同意书</p><p style=""text-align:left;""><strong>实验名称：</strong>社会冲突研究</p><p style=""text-align:left;""><strong>主要研究者：</strong>韩晓春副教授（北京师范大学心理学部）</p><p style=""text-align:left;""><strong>联系方式：</strong>发送邮件至xiaochun.han@bnu.edu.cn</p><p style=""text-align:left;""><strong>研究目的：</strong>研究旨在了解人类面对群体冲突时的决策方式，以及相关的心理学特质。实验调查大约需要20分钟。</p><p style=""text-align:left;""><strong>实验流程：</strong>实验包含两部分。第一部分呈现一系列群体冲突场景，请你决定如何对这些冲突进行反应，大约需要10分钟完成。第二部分包含一系列人口统计学信息收集和心理学问卷，大约需要10分钟完成。</p><p style=""text-align:left;""><strong>参加及退出规则：</strong>参加本实验完全取决于您的个人意愿。在参与过程中，您可以随时退出，并且不用承担任何后果。</p><p style=""text-align:left;""><strong>隐私：</strong>本实验完全匿名进行，不会收集您的姓名或其他能够识别您身份的信息。实验中收集的作答仅用作科学研究使用，可能会在学术期刊/书籍上发表，或者用于教学，您的数据未来可能会和其他研究者或实验室分享，但您的个人身份不会被识别。</p><p style=""text-align:left;""><strong>实验报酬：</strong>实验完成后，您将获得15元人民币报酬，以感谢您的时间和努力。调查问卷中包含几道题目用以测验您作答时的认真度。只有完成全部实验，并且正确回答认真度测验的被试才能获得实验报酬。实验报酬将通过支付宝转账发放。</p><p style=""text-align:left;font-size:20px;""><strong>如果您同意以上实验知情同意书的内容，请点击'同意并且开始实验'按钮；否则请关闭浏览器界面，退出实验。</strong></p>","0",""
"","","","","","html-button-response","3","42027","0.0-3.0","83","1","2022-10-07 08:05:06","d60b49b5908c80e163b920d72b52d584","111.33.203.254","Mozilla/5.0 (Macintosh; Intel Mac OS X 10_15_5) AppleWebKit/537.36 (KHTML, like Gecko) Chrome/105.0.0.0 Safari/537.36","Macintosh","Chrome","105.0.0.0","OS X","10_15_5","13246","<p ><strong>实验任务一：</strong></p><p>请想象你的国家与另一个国家发生了军事冲突。</p><p>你是国家军队的指挥官，你将如何在冲突中进行决策。</p><p>具体来说，作为军队指挥官，请你决定是否发射导弹进行打击。</p><p>接下来，你会面对一系列场景，请仔细阅读每个场景，然后进行决策。</p><p>这部分实验任务大约需要10分钟。</p><p><strong>实验过程中，请集中注意力。</strong></p>","0",""
"","","","","","html-keyboard-response","4","43029","0.0-4.0-0.0","83","1","2022-10-07 08:05:06","d60b49b5908c80e163b920d72b52d584","111.33.203.254","Mozilla/5.0 (Macintosh; Intel Mac OS X 10_15_5) AppleWebKit/537.36 (KHTML, like Gecko) Chrome/105.0.0.0 Safari/537.36","Macintosh","Chrome","105.0.0.0","OS X","10_15_5","null","<div style=""font-size:60px;"">+</div>","null",""
"","","","","","html-button-response","5","52457","0.0-4.0-1.0","83","1","2022-10-07 08:05:06","d60b49b5908c80e163b920d72b52d584","111.33.203.254","Mozilla/5.0 (Macintosh; Intel Mac OS X 10_15_5) AppleWebKit/537.36 (KHTML, like Gecko) Chrome/105.0.0.0 Safari/537.36","Macintosh","Chrome","105.0.0.0","OS X","10_15_5","9424","<p>作为军队的指挥官，你可以选择发射导弹杀死 <strong>9名</strong> 敌国士兵，但会误杀附近的 <strong>1名</strong> 敌国平民。</p> <p>平民照片如下图所示。</p> <p></p> <img src='stimuli/faces/NCM5.jpg', style='max-width: 30%;'> </img> <p><strong>你是否选择发射武器？</strong></p>","0",""
"","","","","","html-keyboard-response","6","53459","0.0-4.0-0.1","83","1","2022-10-07 08:05:06","d60b49b5908c80e163b920d72b52d584","111.33.203.254","Mozilla/5.0 (Macintosh; Intel Mac OS X 10_15_5) AppleWebKit/537.36 (KHTML, like Gecko) Chrome/105.0.0.0 Safari/537.36","Macintosh","Chrome","105.0.0.0","OS X","10_15_5","null","<div style=""font-size:60px;"">+</div>","null",""
"","","","","","html-button-response","7","60712","0.0-4.0-1.1","83","1","2022-10-07 08:05:06","d60b49b5908c80e163b920d72b52d584","111.33.203.254","Mozilla/5.0 (Macintosh; Intel Mac OS X 10_15_5) AppleWebKit/537.36 (KHTML, like Gecko) Chrome/105.0.0.0 Safari/537.36","Macintosh","Chrome","105.0.0.0","OS X","10_15_5","7250","<p>作为军队的指挥官，你可以选择发射导弹杀死 <strong>10名</strong> 敌国士兵，但会误杀附近的 <strong>1名</strong> 敌国平民。</p> <p>平民照片如下图所示。</p> <p></p> <img src='stimuli/faces/NCF6.jpg', style='max-width: 30%;'> </img> <p><strong>你是否选择发射武器？</strong></p>","0",""
"","","","","","html-keyboard-response","8","61715","0.0-4.0-0.2","83","1","2022-10-07 08:05:06","d60b49b5908c80e163b920d72b52d584","111.33.203.254","Mozilla/5.0 (Macintosh; Intel Mac OS X 10_15_5) AppleWebKit/537.36 (KHTML, like Gecko) Chrome/105.0.0.0 Safari/537.36","Macintosh","Chrome","105.0.0.0","OS X","10_15_5","null","<div style=""font-size:60px;"">+</div>","null",""
"","","","","","html-button-response","9","69063","0.0-4.0-1.2","83","1","2022-10-07 08:05:06","d60b49b5908c80e163b920d72b52d584","111.33.203.254","Mozilla/5.0 (Macintosh; Intel Mac OS X 10_15_5) AppleWebKit/537.36 (KHTML, like Gecko) Chrome/105.0.0.0 Safari/537.36","Macintosh","Chrome","105.0.0.0","OS X","10_15_5","7346","<p>作为军队的指挥官，你可以选择发射导弹杀死 <strong>7名</strong> 敌国士兵，但会炸毁附近的 <strong>1棵</strong> 敌国树木。</p> <p>树木的照片如下图所示。</p> <p></p> <img src='stimuli/trees/5.png', style='max-width: 30%;'> </img> <p><strong>你是否选择发射武器？</strong></p>","0",""
"","","","","","html-keyboard-response","10","70065","0.0-4.0-0.3","83","1","2022-10-07 08:05:06","d60b49b5908c80e163b920d72b52d584","111.33.203.254","Mozilla/5.0 (Macintosh; Intel Mac OS X 10_15_5) AppleWebKit/537.36 (KHTML, like Gecko) Chrome/105.0.0.0 Safari/537.36","Macintosh","Chrome","105.0.0.0","OS X","10_15_5","null","<div style=""font-size:60px;"">+</div>","null",""
"","","","","","html-button-response","11","76805","0.0-4.0-1.3","83","1","2022-10-07 08:05:06","d60b49b5908c80e163b920d72b52d584","111.33.203.254","Mozilla/5.0 (Macintosh; Intel Mac OS X 10_15_5) AppleWebKit/537.36 (KHTML, like Gecko) Chrome/105.0.0.0 Safari/537.36","Macintosh","Chrome","105.0.0.0","OS X","10_15_5","6737","<p>作为军队的指挥官，你可以选择发射导弹杀死 <strong>10名</strong> 敌国士兵，但会误杀附近的 <strong>1名</strong> 敌国平民。</p> <p>平民照片如下图所示。</p> <p></p> <img src='stimuli/faces/NCM7.jpg', style='max-width: 30%;'> </img> <p><strong>你是否选择发射武器？</strong></p>","0",""
"","","","","","html-keyboard-response","12","77810","0.0-4.0-0.4","83","1","2022-10-07 08:05:06","d60b49b5908c80e163b920d72b52d584","111.33.203.254","Mozilla/5.0 (Macintosh; Intel Mac OS X 10_15_5) AppleWebKit/537.36 (KHTML, like Gecko) Chrome/105.0.0.0 Safari/537.36","Macintosh","Chrome","105.0.0.0","OS X","10_15_5","null","<div style=""font-size:60px;"">+</div>","null",""
"","","","","","html-button-response","13","83244","0.0-4.0-1.4","83","1","2022-10-07 08:05:06","d60b49b5908c80e163b920d72b52d584","111.33.203.254","Mozilla/5.0 (Macintosh; Intel Mac OS X 10_15_5) AppleWebKit/537.36 (KHTML, like Gecko) Chrome/105.0.0.0 Safari/537.36","Macintosh","Chrome","105.0.0.0","OS X","10_15_5","5432","<p>作为军队的指挥官，你可以选择发射导弹杀死 <strong>10名</strong> 敌国士兵，但会炸毁附近的 <strong>1棵</strong> 敌国树木。</p> <p>树木的照片如下图所示。</p> <p></p> <img src='stimuli/trees/1.png', style='max-width: 30%;'> </img> <p><strong>你是否选择发射武器？</strong></p>","0",""
"","","","","","html-keyboard-response","14","84246","0.0-4.0-0.5","83","1","2022-10-07 08:05:06","d60b49b5908c80e163b920d72b52d584","111.33.203.254","Mozilla/5.0 (Macintosh; Intel Mac OS X 10_15_5) AppleWebKit/537.36 (KHTML, like Gecko) Chrome/105.0.0.0 Safari/537.36","Macintosh","Chrome","105.0.0.0","OS X","10_15_5","null","<div style=""font-size:60px;"">+</div>","null",""
"","","","","","html-button-response","15","87121","0.0-4.0-1.5","83","1","2022-10-07 08:05:06","d60b49b5908c80e163b920d72b52d584","111.33.203.254","Mozilla/5.0 (Macintosh; Intel Mac OS X 10_15_5) AppleWebKit/537.36 (KHTML, like Gecko) Chrome/105.0.0.0 Safari/537.36","Macintosh","Chrome","105.0.0.0","OS X","10_15_5","2872","<p>作为军队的指挥官，你可以选择发射导弹杀死 <strong>10名</strong> 敌国士兵，但会炸毁附近的 <strong>1棵</strong> 敌国树木。</p> <p>树木的照片如下图所示。</p> <p></p> <img src='stimuli/trees/14.png', style='max-width: 30%;'> </img> <p><strong>你是否选择发射武器？</strong></p>","0",""
"","","","","","html-keyboard-response","16","88123","0.0-4.0-0.6","83","1","2022-10-07 08:05:06","d60b49b5908c80e163b920d72b52d584","111.33.203.254","Mozilla/5.0 (Macintosh; Intel Mac OS X 10_15_5) AppleWebKit/537.36 (KHTML, like Gecko) Chrome/105.0.0.0 Safari/537.36","Macintosh","Chrome","105.0.0.0","OS X","10_15_5","null","<div style=""font-size:60px;"">+</div>","null",""
"","","","","","html-button-response","17","94400","0.0-4.0-1.6","83","1","2022-10-07 08:05:06","d60b49b5908c80e163b920d72b52d584","111.33.203.254","Mozilla/5.0 (Macintosh; Intel Mac OS X 10_15_5) AppleWebKit/537.36 (KHTML, like Gecko) Chrome/105.0.0.0 Safari/537.36","Macintosh","Chrome","105.0.0.0","OS X","10_15_5","6274","<p>作为军队的指挥官，你可以选择发射导弹杀死 <strong>5名</strong> 敌国士兵，但会炸毁附近的 <strong>1棵</strong> 敌国树木。</p> <p>树木的照片如下图所示。</p> <p></p> <img src='stimuli/trees/13.png', style='max-width: 30%;'> </img> <p><strong>你是否选择发射武器？</strong></p>","1",""
"","","","","","html-keyboard-response","18","95401","0.0-4.0-0.7","83","1","2022-10-07 08:05:06","d60b49b5908c80e163b920d72b52d584","111.33.203.254","Mozilla/5.0 (Macintosh; Intel Mac OS X 10_15_5) AppleWebKit/537.36 (KHTML, like Gecko) Chrome/105.0.0.0 Safari/537.36","Macintosh","Chrome","105.0.0.0","OS X","10_15_5","null","<div style=""font-size:60px;"">+</div>","null",""
"","","","","","html-button-response","19","99103","0.0-4.0-1.7","83","1","2022-10-07 08:05:06","d60b49b5908c80e163b920d72b52d584","111.33.203.254","Mozilla/5.0 (Macintosh; Intel Mac OS X 10_15_5) AppleWebKit/537.36 (KHTML, like Gecko) Chrome/105.0.0.0 Safari/537.36","Macintosh","Chrome","105.0.0.0","OS X","10_15_5","3699","<p>作为军队的指挥官，你可以选择发射导弹杀死 <strong>9名</strong> 敌国士兵，但会炸毁附近的 <strong>1棵</strong> 敌国树木。</p> <p>树木的照片如下图所示。</p> <p></p> <img src='stimuli/trees/7.png', style='max-width: 30%;'> </img> <p><strong>你是否选择发射武器？</strong></p>","0",""
"","","","","","html-keyboard-response","20","100105","0.0-4.0-0.8","83","1","2022-10-07 08:05:06","d60b49b5908c80e163b920d72b52d584","111.33.203.254","Mozilla/5.0 (Macintosh; Intel Mac OS X 10_15_5) AppleWebKit/537.36 (KHTML, like Gecko) Chrome/105.0.0.0 Safari/537.36","Macintosh","Chrome","105.0.0.0","OS X","10_15_5","null","<div style=""font-size:60px;"">+</div>","null",""
"","","","","","html-button-response","21","123733","0.0-4.0-1.8","83","1","2022-10-07 08:05:06","d60b49b5908c80e163b920d72b52d584","111.33.203.254","Mozilla/5.0 (Macintosh; Intel Mac OS X 10_15_5) AppleWebKit/537.36 (KHTML, like Gecko) Chrome/105.0.0.0 Safari/537.36","Macintosh","Chrome","105.0.0.0","OS X","10_15_5","23626","<p>作为军队的指挥官，你可以选择发射导弹杀死 <strong>7名</strong> 敌国士兵，但会炸毁附近的 <strong>1棵</strong> 敌国树木。</p> <p>树木的照片如下图所示。</p> <p></p> <img src='stimuli/trees/16.png', style='max-width: 30%;'> </img> <p><strong>你是否选择发射武器？</strong></p>","0",""
"","","","","","html-keyboard-response","22","124736","0.0-4.0-0.9","83","1","2022-10-07 08:05:06","d60b49b5908c80e163b920d72b52d584","111.33.203.254","Mozilla/5.0 (Macintosh; Intel Mac OS X 10_15_5) AppleWebKit/537.36 (KHTML, like Gecko) Chrome/105.0.0.0 Safari/537.36","Macintosh","Chrome","105.0.0.0","OS X","10_15_5","null","<div style=""font-size:60px;"">+</div>","null",""
"","","","","","html-button-response","23","128393","0.0-4.0-1.9","83","1","2022-10-07 08:05:06","d60b49b5908c80e163b920d72b52d584","111.33.203.254","Mozilla/5.0 (Macintosh; Intel Mac OS X 10_15_5) AppleWebKit/537.36 (KHTML, like Gecko) Chrome/105.0.0.0 Safari/537.36","Macintosh","Chrome","105.0.0.0","OS X","10_15_5","3654","<p>作为军队的指挥官，你可以选择发射导弹杀死 <strong>3名</strong> 敌国士兵，但会误杀附近的 <strong>1名</strong> 敌国平民。</p> <p>平民照片如下图所示。</p> <p></p> <img src='stimuli/faces/NCF4.jpg', style='max-width: 30%;'> </img> <p><strong>你是否选择发射武器？</strong></p>","1",""
"","","","","","html-keyboard-response","24","129397","0.0-4.0-0.10","83","1","2022-10-07 08:05:06","d60b49b5908c80e163b920d72b52d584","111.33.203.254","Mozilla/5.0 (Macintosh; Intel Mac OS X 10_15_5) AppleWebKit/537.36 (KHTML, like Gecko) Chrome/105.0.0.0 Safari/537.36","Macintosh","Chrome","105.0.0.0","OS X","10_15_5","null","<div style=""font-size:60px;"">+</div>","null",""
"","","","","","html-button-response","25","133064","0.0-4.0-1.10","83","1","2022-10-07 08:05:06","d60b49b5908c80e163b920d72b52d584","111.33.203.254","Mozilla/5.0 (Macintosh; Intel Mac OS X 10_15_5) AppleWebKit/537.36 (KHTML, like Gecko) Chrome/105.0.0.0 Safari/537.36","Macintosh","Chrome","105.0.0.0","OS X","10_15_5","3664","<p>作为军队的指挥官，你可以选择发射导弹杀死 <strong>4名</strong> 敌国士兵，但会炸毁附近的 <strong>1棵</strong> 敌国树木。</p> <p>树木的照片如下图所示。</p> <p></p> <img src='stimuli/trees/3.png', style='max-width: 30%;'> </img> <p><strong>你是否选择发射武器？</strong></p>","1",""
"","","","","","html-keyboard-response","26","134066","0.0-4.0-0.11","83","1","2022-10-07 08:05:06","d60b49b5908c80e163b920d72b52d584","111.33.203.254","Mozilla/5.0 (Macintosh; Intel Mac OS X 10_15_5) AppleWebKit/537.36 (KHTML, like Gecko) Chrome/105.0.0.0 Safari/537.36","Macintosh","Chrome","105.0.0.0","OS X","10_15_5","null","<div style=""font-size:60px;"">+</div>","null",""
"","","","","","html-button-response","27","138104","0.0-4.0-1.11","83","1","2022-10-07 08:05:06","d60b49b5908c80e163b920d72b52d584","111.33.203.254","Mozilla/5.0 (Macintosh; Intel Mac OS X 10_15_5) AppleWebKit/537.36 (KHTML, like Gecko) Chrome/105.0.0.0 Safari/537.36","Macintosh","Chrome","105.0.0.0","OS X","10_15_5","4036","<p>作为军队的指挥官，你可以选择发射导弹杀死 <strong>5名</strong> 敌国士兵，但会误杀附近的 <strong>1名</strong> 敌国平民。</p> <p>平民照片如下图所示。</p> <p></p> <img src='stimuli/faces/NCM5.jpg', style='max-width: 30%;'> </img> <p><strong>你是否选择发射武器？</strong></p>","0",""
"","","","","","html-keyboard-response","28","139107","0.0-4.0-0.12","83","1","2022-10-07 08:05:06","d60b49b5908c80e163b920d72b52d584","111.33.203.254","Mozilla/5.0 (Macintosh; Intel Mac OS X 10_15_5) AppleWebKit/537.36 (KHTML, like Gecko) Chrome/105.0.0.0 Safari/537.36","Macintosh","Chrome","105.0.0.0","OS X","10_15_5","null","<div style=""font-size:60px;"">+</div>","null",""
"","","","","","html-button-response","29","141236","0.0-4.0-1.12","83","1","2022-10-07 08:05:06","d60b49b5908c80e163b920d72b52d584","111.33.203.254","Mozilla/5.0 (Macintosh; Intel Mac OS X 10_15_5) AppleWebKit/537.36 (KHTML, like Gecko) Chrome/105.0.0.0 Safari/537.36","Macintosh","Chrome","105.0.0.0","OS X","10_15_5","2126","<p>作为军队的指挥官，你可以选择发射导弹杀死 <strong>7名</strong> 敌国士兵，但会误杀附近的 <strong>1名</strong> 敌国平民。</p> <p>平民照片如下图所示。</p> <p></p> <img src='stimuli/faces/NCM8.jpg', style='max-width: 30%;'> </img> <p><strong>你是否选择发射武器？</strong></p>","0",""
"","","","","","html-keyboard-response","30","142239","0.0-4.0-0.13","83","1","2022-10-07 08:05:06","d60b49b5908c80e163b920d72b52d584","111.33.203.254","Mozilla/5.0 (Macintosh; Intel Mac OS X 10_15_5) AppleWebKit/537.36 (KHTML, like Gecko) Chrome/105.0.0.0 Safari/537.36","Macintosh","Chrome","105.0.0.0","OS X","10_15_5","null","<div style=""font-size:60px;"">+</div>","null",""
"","","","","","html-button-response","31","158654","0.0-4.0-1.13","83","1","2022-10-07 08:05:06","d60b49b5908c80e163b920d72b52d584","111.33.203.254","Mozilla/5.0 (Macintosh; Intel Mac OS X 10_15_5) AppleWebKit/537.36 (KHTML, like Gecko) Chrome/105.0.0.0 Safari/537.36","Macintosh","Chrome","105.0.0.0","OS X","10_15_5","16413","<p>作为军队的指挥官，你可以选择发射导弹杀死 <strong>7名</strong> 敌国士兵，但会误杀附近的 <strong>1名</strong> 敌国平民。</p> <p>平民照片如下图所示。</p> <p></p> <img src='stimuli/faces/NCF4.jpg', style='max-width: 30%;'> </img> <p><strong>你是否选择发射武器？</strong></p>","0",""
"","","","","","html-keyboard-response","32","159662","0.0-4.0-0.14","83","1","2022-10-07 08:05:06","d60b49b5908c80e163b920d72b52d584","111.33.203.254","Mozilla/5.0 (Macintosh; Intel Mac OS X 10_15_5) AppleWebKit/537.36 (KHTML, like Gecko) Chrome/105.0.0.0 Safari/537.36","Macintosh","Chrome","105.0.0.0","OS X","10_15_5","null","<div style=""font-size:60px;"">+</div>","null",""
"","","","","","html-button-response","33","164056","0.0-4.0-1.14","83","1","2022-10-07 08:05:06","d60b49b5908c80e163b920d72b52d584","111.33.203.254","Mozilla/5.0 (Macintosh; Intel Mac OS X 10_15_5) AppleWebKit/537.36 (KHTML, like Gecko) Chrome/105.0.0.0 Safari/537.36","Macintosh","Chrome","105.0.0.0","OS X","10_15_5","4391","<p>作为军队的指挥官，你可以选择发射导弹杀死 <strong>3名</strong> 敌国士兵，但会误杀附近的 <strong>1名</strong> 敌国平民。</p> <p>平民照片如下图所示。</p> <p></p> <img src='stimuli/faces/NCF6.jpg', style='max-width: 30%;'> </img> <p><strong>你是否选择发射武器？</strong></p>","1",""
"","","","","","html-keyboard-response","34","165060","0.0-4.0-0.15","83","1","2022-10-07 08:05:06","d60b49b5908c80e163b920d72b52d584","111.33.203.254","Mozilla/5.0 (Macintosh; Intel Mac OS X 10_15_5) AppleWebKit/537.36 (KHTML, like Gecko) Chrome/105.0.0.0 Safari/537.36","Macintosh","Chrome","105.0.0.0","OS X","10_15_5","null","<div style=""font-size:60px;"">+</div>","null",""
"","","","","","html-button-response","35","167715","0.0-4.0-1.15","83","1","2022-10-07 08:05:06","d60b49b5908c80e163b920d72b52d584","111.33.203.254","Mozilla/5.0 (Macintosh; Intel Mac OS X 10_15_5) AppleWebKit/537.36 (KHTML, like Gecko) Chrome/105.0.0.0 Safari/537.36","Macintosh","Chrome","105.0.0.0","OS X","10_15_5","2652","<p>作为军队的指挥官，你可以选择发射导弹杀死 <strong>1名</strong> 敌国士兵，但会炸毁附近的 <strong>1棵</strong> 敌国树木。</p> <p>树木的照片如下图所示。</p> <p></p> <img src='stimuli/trees/16.png', style='max-width: 30%;'> </img> <p><strong>你是否选择发射武器？</strong></p>","1",""
"","","","","","html-keyboard-response","36","168722","0.0-4.0-0.16","83","1","2022-10-07 08:05:06","d60b49b5908c80e163b920d72b52d584","111.33.203.254","Mozilla/5.0 (Macintosh; Intel Mac OS X 10_15_5) AppleWebKit/537.36 (KHTML, like Gecko) Chrome/105.0.0.0 Safari/537.36","Macintosh","Chrome","105.0.0.0","OS X","10_15_5","null","<div style=""font-size:60px;"">+</div>","null",""
"","","","","","html-button-response","37","171511","0.0-4.0-1.16","83","1","2022-10-07 08:05:06","d60b49b5908c80e163b920d72b52d584","111.33.203.254","Mozilla/5.0 (Macintosh; Intel Mac OS X 10_15_5) AppleWebKit/537.36 (KHTML, like Gecko) Chrome/105.0.0.0 Safari/537.36","Macintosh","Chrome","105.0.0.0","OS X","10_15_5","2785","<p>作为军队的指挥官，你可以选择发射导弹杀死 <strong>8名</strong> 敌国士兵，但会炸毁附近的 <strong>1棵</strong> 敌国树木。</p> <p>树木的照片如下图所示。</p> <p></p> <img src='stimuli/trees/9.png', style='max-width: 30%;'> </img> <p><strong>你是否选择发射武器？</strong></p>","0",""
"","","","","","html-keyboard-response","38","172515","0.0-4.0-0.17","83","1","2022-10-07 08:05:06","d60b49b5908c80e163b920d72b52d584","111.33.203.254","Mozilla/5.0 (Macintosh; Intel Mac OS X 10_15_5) AppleWebKit/537.36 (KHTML, like Gecko) Chrome/105.0.0.0 Safari/537.36","Macintosh","Chrome","105.0.0.0","OS X","10_15_5","null","<div style=""font-size:60px;"">+</div>","null",""
"","","","","","html-button-response","39","203459","0.0-4.0-1.17","83","1","2022-10-07 08:05:06","d60b49b5908c80e163b920d72b52d584","111.33.203.254","Mozilla/5.0 (Macintosh; Intel Mac OS X 10_15_5) AppleWebKit/537.36 (KHTML, like Gecko) Chrome/105.0.0.0 Safari/537.36","Macintosh","Chrome","105.0.0.0","OS X","10_15_5","30939","<p>作为军队的指挥官，你可以选择发射导弹杀死 <strong>8名</strong> 敌国士兵，但会炸毁附近的 <strong>1棵</strong> 敌国树木。</p> <p>树木的照片如下图所示。</p> <p></p> <img src='stimuli/trees/11.png', style='max-width: 30%;'> </img> <p><strong>你是否选择发射武器？</strong></p>","0",""
"","","","","","html-keyboard-response","40","204467","0.0-4.0-0.18","83","1","2022-10-07 08:05:06","d60b49b5908c80e163b920d72b52d584","111.33.203.254","Mozilla/5.0 (Macintosh; Intel Mac OS X 10_15_5) AppleWebKit/537.36 (KHTML, like Gecko) Chrome/105.0.0.0 Safari/537.36","Macintosh","Chrome","105.0.0.0","OS X","10_15_5","null","<div style=""font-size:60px;"">+</div>","null",""
"","","","","","html-button-response","41","206758","0.0-4.0-1.18","83","1","2022-10-07 08:05:06","d60b49b5908c80e163b920d72b52d584","111.33.203.254","Mozilla/5.0 (Macintosh; Intel Mac OS X 10_15_5) AppleWebKit/537.36 (KHTML, like Gecko) Chrome/105.0.0.0 Safari/537.36","Macintosh","Chrome","105.0.0.0","OS X","10_15_5","2288","<p>作为军队的指挥官，你可以选择发射导弹杀死 <strong>2名</strong> 敌国士兵，但会炸毁附近的 <strong>1棵</strong> 敌国树木。</p> <p>树木的照片如下图所示。</p> <p></p> <img src='stimuli/trees/4.png', style='max-width: 30%;'> </img> <p><strong>你是否选择发射武器？</strong></p>","1",""
"","","","","","html-keyboard-response","42","207765","0.0-4.0-0.19","83","1","2022-10-07 08:05:06","d60b49b5908c80e163b920d72b52d584","111.33.203.254","Mozilla/5.0 (Macintosh; Intel Mac OS X 10_15_5) AppleWebKit/537.36 (KHTML, like Gecko) Chrome/105.0.0.0 Safari/537.36","Macintosh","Chrome","105.0.0.0","OS X","10_15_5","null","<div style=""font-size:60px;"">+</div>","null",""
"","","","","","html-button-response","43","210466","0.0-4.0-1.19","83","1","2022-10-07 08:05:06","d60b49b5908c80e163b920d72b52d584","111.33.203.254","Mozilla/5.0 (Macintosh; Intel Mac OS X 10_15_5) AppleWebKit/537.36 (KHTML, like Gecko) Chrome/105.0.0.0 Safari/537.36","Macintosh","Chrome","105.0.0.0","OS X","10_15_5","2697","<p>作为军队的指挥官，你可以选择发射导弹杀死 <strong>5名</strong> 敌国士兵，但会炸毁附近的 <strong>1棵</strong> 敌国树木。</p> <p>树木的照片如下图所示。</p> <p></p> <img src='stimuli/trees/9.png', style='max-width: 30%;'> </img> <p><strong>你是否选择发射武器？</strong></p>","0",""
"","","","","","html-keyboard-response","44","211470","0.0-4.0-0.20","83","1","2022-10-07 08:05:06","d60b49b5908c80e163b920d72b52d584","111.33.203.254","Mozilla/5.0 (Macintosh; Intel Mac OS X 10_15_5) AppleWebKit/537.36 (KHTML, like Gecko) Chrome/105.0.0.0 Safari/537.36","Macintosh","Chrome","105.0.0.0","OS X","10_15_5","null","<div style=""font-size:60px;"">+</div>","null",""
"","","","","","html-button-response","45","214102","0.0-4.0-1.20","83","1","2022-10-07 08:05:06","d60b49b5908c80e163b920d72b52d584","111.33.203.254","Mozilla/5.0 (Macintosh; Intel Mac OS X 10_15_5) AppleWebKit/537.36 (KHTML, like Gecko) Chrome/105.0.0.0 Safari/537.36","Macintosh","Chrome","105.0.0.0","OS X","10_15_5","2627","<p>作为军队的指挥官，你可以选择发射导弹杀死 <strong>10名</strong> 敌国士兵，但会误杀附近的 <strong>1名</strong> 敌国平民。</p> <p>平民照片如下图所示。</p> <p></p> <img src='stimuli/faces/NCF7.jpg', style='max-width: 30%;'> </img> <p><strong>你是否选择发射武器？</strong></p>","0",""
"","","","","","html-keyboard-response","46","215104","0.0-4.0-0.21","83","1","2022-10-07 08:05:06","d60b49b5908c80e163b920d72b52d584","111.33.203.254","Mozilla/5.0 (Macintosh; Intel Mac OS X 10_15_5) AppleWebKit/537.36 (KHTML, like Gecko) Chrome/105.0.0.0 Safari/537.36","Macintosh","Chrome","105.0.0.0","OS X","10_15_5","null","<div style=""font-size:60px;"">+</div>","null",""
"","","","","","html-button-response","47","217453","0.0-4.0-1.21","83","1","2022-10-07 08:05:06","d60b49b5908c80e163b920d72b52d584","111.33.203.254","Mozilla/5.0 (Macintosh; Intel Mac OS X 10_15_5) AppleWebKit/537.36 (KHTML, like Gecko) Chrome/105.0.0.0 Safari/537.36","Macintosh","Chrome","105.0.0.0","OS X","10_15_5","2346","<p>作为军队的指挥官，你可以选择发射导弹杀死 <strong>2名</strong> 敌国士兵，但会误杀附近的 <strong>1名</strong> 敌国平民。</p> <p>平民照片如下图所示。</p> <p></p> <img src='stimuli/faces/NCM4.jpg', style='max-width: 30%;'> </img> <p><strong>你是否选择发射武器？</strong></p>","1",""
"","","","","","html-keyboard-response","48","218462","0.0-4.0-0.22","83","1","2022-10-07 08:05:06","d60b49b5908c80e163b920d72b52d584","111.33.203.254","Mozilla/5.0 (Macintosh; Intel Mac OS X 10_15_5) AppleWebKit/537.36 (KHTML, like Gecko) Chrome/105.0.0.0 Safari/537.36","Macintosh","Chrome","105.0.0.0","OS X","10_15_5","null","<div style=""font-size:60px;"">+</div>","null",""
"","","","","","html-button-response","49","220446","0.0-4.0-1.22","83","1","2022-10-07 08:05:06","d60b49b5908c80e163b920d72b52d584","111.33.203.254","Mozilla/5.0 (Macintosh; Intel Mac OS X 10_15_5) AppleWebKit/537.36 (KHTML, like Gecko) Chrome/105.0.0.0 Safari/537.36","Macintosh","Chrome","105.0.0.0","OS X","10_15_5","1981","<p>作为军队的指挥官，你可以选择发射导弹杀死 <strong>2名</strong> 敌国士兵，但会误杀附近的 <strong>1名</strong> 敌国平民。</p> <p>平民照片如下图所示。</p> <p></p> <img src='stimuli/faces/NCF8.jpg', style='max-width: 30%;'> </img> <p><strong>你是否选择发射武器？</strong></p>","1",""
"","","","","","html-keyboard-response","50","221453","0.0-4.0-0.23","83","1","2022-10-07 08:05:06","d60b49b5908c80e163b920d72b52d584","111.33.203.254","Mozilla/5.0 (Macintosh; Intel Mac OS X 10_15_5) AppleWebKit/537.36 (KHTML, like Gecko) Chrome/105.0.0.0 Safari/537.36","Macintosh","Chrome","105.0.0.0","OS X","10_15_5","null","<div style=""font-size:60px;"">+</div>","null",""
"","","","","","html-button-response","51","223007","0.0-4.0-1.23","83","1","2022-10-07 08:05:06","d60b49b5908c80e163b920d72b52d584","111.33.203.254","Mozilla/5.0 (Macintosh; Intel Mac OS X 10_15_5) AppleWebKit/537.36 (KHTML, like Gecko) Chrome/105.0.0.0 Safari/537.36","Macintosh","Chrome","105.0.0.0","OS X","10_15_5","1551","<p>作为军队的指挥官，你可以选择发射导弹杀死 <strong>3名</strong> 敌国士兵，但会炸毁附近的 <strong>1棵</strong> 敌国树木。</p> <p>树木的照片如下图所示。</p> <p></p> <img src='stimuli/trees/7.png', style='max-width: 30%;'> </img> <p><strong>你是否选择发射武器？</strong></p>","1",""
"","","","","","html-keyboard-response","52","224010","0.0-4.0-0.24","83","1","2022-10-07 08:05:06","d60b49b5908c80e163b920d72b52d584","111.33.203.254","Mozilla/5.0 (Macintosh; Intel Mac OS X 10_15_5) AppleWebKit/537.36 (KHTML, like Gecko) Chrome/105.0.0.0 Safari/537.36","Macintosh","Chrome","105.0.0.0","OS X","10_15_5","null","<div style=""font-size:60px;"">+</div>","null",""
"","","","","","html-button-response","53","226138","0.0-4.0-1.24","83","1","2022-10-07 08:05:06","d60b49b5908c80e163b920d72b52d584","111.33.203.254","Mozilla/5.0 (Macintosh; Intel Mac OS X 10_15_5) AppleWebKit/537.36 (KHTML, like Gecko) Chrome/105.0.0.0 Safari/537.36","Macintosh","Chrome","105.0.0.0","OS X","10_15_5","2125","<p>作为军队的指挥官，你可以选择发射导弹杀死 <strong>4名</strong> 敌国士兵，但会误杀附近的 <strong>1名</strong> 敌国平民。</p> <p>平民照片如下图所示。</p> <p></p> <img src='stimuli/faces/NCF7.jpg', style='max-width: 30%;'> </img> <p><strong>你是否选择发射武器？</strong></p>","1",""
"","","","","","html-keyboard-response","54","227143","0.0-4.0-0.25","83","1","2022-10-07 08:05:06","d60b49b5908c80e163b920d72b52d584","111.33.203.254","Mozilla/5.0 (Macintosh; Intel Mac OS X 10_15_5) AppleWebKit/537.36 (KHTML, like Gecko) Chrome/105.0.0.0 Safari/537.36","Macintosh","Chrome","105.0.0.0","OS X","10_15_5","null","<div style=""font-size:60px;"">+</div>","null",""
"","","","","","html-button-response","55","230265","0.0-4.0-1.25","83","1","2022-10-07 08:05:06","d60b49b5908c80e163b920d72b52d584","111.33.203.254","Mozilla/5.0 (Macintosh; Intel Mac OS X 10_15_5) AppleWebKit/537.36 (KHTML, like Gecko) Chrome/105.0.0.0 Safari/537.36","Macintosh","Chrome","105.0.0.0","OS X","10_15_5","3120","<p>作为军队的指挥官，你可以选择发射导弹杀死 <strong>5名</strong> 敌国士兵，但会炸毁附近的 <strong>1棵</strong> 敌国树木。</p> <p>树木的照片如下图所示。</p> <p></p> <img src='stimuli/trees/1.png', style='max-width: 30%;'> </img> <p><strong>你是否选择发射武器？</strong></p>","0",""
"","","","","","html-keyboard-response","56","231269","0.0-4.0-0.26","83","1","2022-10-07 08:05:06","d60b49b5908c80e163b920d72b52d584","111.33.203.254","Mozilla/5.0 (Macintosh; Intel Mac OS X 10_15_5) AppleWebKit/537.36 (KHTML, like Gecko) Chrome/105.0.0.0 Safari/537.36","Macintosh","Chrome","105.0.0.0","OS X","10_15_5","null","<div style=""font-size:60px;"">+</div>","null",""
"","","","","","html-button-response","57","232819","0.0-4.0-1.26","83","1","2022-10-07 08:05:06","d60b49b5908c80e163b920d72b52d584","111.33.203.254","Mozilla/5.0 (Macintosh; Intel Mac OS X 10_15_5) AppleWebKit/537.36 (KHTML, like Gecko) Chrome/105.0.0.0 Safari/537.36","Macintosh","Chrome","105.0.0.0","OS X","10_15_5","1547","<p>作为军队的指挥官，你可以选择发射导弹杀死 <strong>10名</strong> 敌国士兵，但会炸毁附近的 <strong>1棵</strong> 敌国树木。</p> <p>树木的照片如下图所示。</p> <p></p> <img src='stimuli/trees/3.png', style='max-width: 30%;'> </img> <p><strong>你是否选择发射武器？</strong></p>","0",""
"","","","","","html-keyboard-response","58","233825","0.0-4.0-0.27","83","1","2022-10-07 08:05:06","d60b49b5908c80e163b920d72b52d584","111.33.203.254","Mozilla/5.0 (Macintosh; Intel Mac OS X 10_15_5) AppleWebKit/537.36 (KHTML, like Gecko) Chrome/105.0.0.0 Safari/537.36","Macintosh","Chrome","105.0.0.0","OS X","10_15_5","null","<div style=""font-size:60px;"">+</div>","null",""
"","","","","","html-button-response","59","236287","0.0-4.0-1.27","83","1","2022-10-07 08:05:06","d60b49b5908c80e163b920d72b52d584","111.33.203.254","Mozilla/5.0 (Macintosh; Intel Mac OS X 10_15_5) AppleWebKit/537.36 (KHTML, like Gecko) Chrome/105.0.0.0 Safari/537.36","Macintosh","Chrome","105.0.0.0","OS X","10_15_5","2459","<p>作为军队的指挥官，你可以选择发射导弹杀死 <strong>3名</strong> 敌国士兵，但会炸毁附近的 <strong>1棵</strong> 敌国树木。</p> <p>树木的照片如下图所示。</p> <p></p> <img src='stimuli/trees/10.png', style='max-width: 30%;'> </img> <p><strong>你是否选择发射武器？</strong></p>","1",""
"","","","","","html-keyboard-response","60","237293","0.0-4.0-0.28","83","1","2022-10-07 08:05:06","d60b49b5908c80e163b920d72b52d584","111.33.203.254","Mozilla/5.0 (Macintosh; Intel Mac OS X 10_15_5) AppleWebKit/537.36 (KHTML, like Gecko) Chrome/105.0.0.0 Safari/537.36","Macintosh","Chrome","105.0.0.0","OS X","10_15_5","null","<div style=""font-size:60px;"">+</div>","null",""
"","","","","","html-button-response","61","239444","0.0-4.0-1.28","83","1","2022-10-07 08:05:06","d60b49b5908c80e163b920d72b52d584","111.33.203.254","Mozilla/5.0 (Macintosh; Intel Mac OS X 10_15_5) AppleWebKit/537.36 (KHTML, like Gecko) Chrome/105.0.0.0 Safari/537.36","Macintosh","Chrome","105.0.0.0","OS X","10_15_5","2148","<p>作为军队的指挥官，你可以选择发射导弹杀死 <strong>3名</strong> 敌国士兵，但会误杀附近的 <strong>1名</strong> 敌国平民。</p> <p>平民照片如下图所示。</p> <p></p> <img src='stimuli/faces/NCM2.jpg', style='max-width: 30%;'> </img> <p><strong>你是否选择发射武器？</strong></p>","1",""
"","","","","","html-keyboard-response","62","240450","0.0-4.0-0.29","83","1","2022-10-07 08:05:06","d60b49b5908c80e163b920d72b52d584","111.33.203.254","Mozilla/5.0 (Macintosh; Intel Mac OS X 10_15_5) AppleWebKit/537.36 (KHTML, like Gecko) Chrome/105.0.0.0 Safari/537.36","Macintosh","Chrome","105.0.0.0","OS X","10_15_5","null","<div style=""font-size:60px;"">+</div>","null",""
"","","","","","html-button-response","63","243246","0.0-4.0-1.29","83","1","2022-10-07 08:05:06","d60b49b5908c80e163b920d72b52d584","111.33.203.254","Mozilla/5.0 (Macintosh; Intel Mac OS X 10_15_5) AppleWebKit/537.36 (KHTML, like Gecko) Chrome/105.0.0.0 Safari/537.36","Macintosh","Chrome","105.0.0.0","OS X","10_15_5","2793","<p>作为军队的指挥官，你可以选择发射导弹杀死 <strong>7名</strong> 敌国士兵，但会误杀附近的 <strong>1名</strong> 敌国平民。</p> <p>平民照片如下图所示。</p> <p></p> <img src='stimuli/faces/NCF8.jpg', style='max-width: 30%;'> </img> <p><strong>你是否选择发射武器？</strong></p>","0",""
"","","","","","html-keyboard-response","64","244253","0.0-4.0-0.30","83","1","2022-10-07 08:05:06","d60b49b5908c80e163b920d72b52d584","111.33.203.254","Mozilla/5.0 (Macintosh; Intel Mac OS X 10_15_5) AppleWebKit/537.36 (KHTML, like Gecko) Chrome/105.0.0.0 Safari/537.36","Macintosh","Chrome","105.0.0.0","OS X","10_15_5","null","<div style=""font-size:60px;"">+</div>","null",""
"","","","","","html-button-response","65","251019","0.0-4.0-1.30","83","1","2022-10-07 08:05:06","d60b49b5908c80e163b920d72b52d584","111.33.203.254","Mozilla/5.0 (Macintosh; Intel Mac OS X 10_15_5) AppleWebKit/537.36 (KHTML, like Gecko) Chrome/105.0.0.0 Safari/537.36","Macintosh","Chrome","105.0.0.0","OS X","10_15_5","6764","<p>作为军队的指挥官，你可以选择发射导弹杀死 <strong>4名</strong> 敌国士兵，但会炸毁附近的 <strong>1棵</strong> 敌国树木。</p> <p>树木的照片如下图所示。</p> <p></p> <img src='stimuli/trees/5.png', style='max-width: 30%;'> </img> <p><strong>你是否选择发射武器？</strong></p>","1",""
"","","","","","html-keyboard-response","66","252023","0.0-4.0-0.31","83","1","2022-10-07 08:05:06","d60b49b5908c80e163b920d72b52d584","111.33.203.254","Mozilla/5.0 (Macintosh; Intel Mac OS X 10_15_5) AppleWebKit/537.36 (KHTML, like Gecko) Chrome/105.0.0.0 Safari/537.36","Macintosh","Chrome","105.0.0.0","OS X","10_15_5","null","<div style=""font-size:60px;"">+</div>","null",""
"","","","","","html-button-response","67","255033","0.0-4.0-1.31","83","1","2022-10-07 08:05:06","d60b49b5908c80e163b920d72b52d584","111.33.203.254","Mozilla/5.0 (Macintosh; Intel Mac OS X 10_15_5) AppleWebKit/537.36 (KHTML, like Gecko) Chrome/105.0.0.0 Safari/537.36","Macintosh","Chrome","105.0.0.0","OS X","10_15_5","3006","<p>作为军队的指挥官，你可以选择发射导弹杀死 <strong>5名</strong> 敌国士兵，但会炸毁附近的 <strong>1棵</strong> 敌国树木。</p> <p>树木的照片如下图所示。</p> <p></p> <img src='stimuli/trees/15.png', style='max-width: 30%;'> </img> <p><strong>你是否选择发射武器？</strong></p>","0",""
"","","","","","html-keyboard-response","68","256037","0.0-4.0-0.32","83","1","2022-10-07 08:05:06","d60b49b5908c80e163b920d72b52d584","111.33.203.254","Mozilla/5.0 (Macintosh; Intel Mac OS X 10_15_5) AppleWebKit/537.36 (KHTML, like Gecko) Chrome/105.0.0.0 Safari/537.36","Macintosh","Chrome","105.0.0.0","OS X","10_15_5","null","<div style=""font-size:60px;"">+</div>","null",""
"","","","","","html-button-response","69","257621","0.0-4.0-1.32","83","1","2022-10-07 08:05:06","d60b49b5908c80e163b920d72b52d584","111.33.203.254","Mozilla/5.0 (Macintosh; Intel Mac OS X 10_15_5) AppleWebKit/537.36 (KHTML, like Gecko) Chrome/105.0.0.0 Safari/537.36","Macintosh","Chrome","105.0.0.0","OS X","10_15_5","1580","<p>作为军队的指挥官，你可以选择发射导弹杀死 <strong>9名</strong> 敌国士兵，但会误杀附近的 <strong>1名</strong> 敌国平民。</p> <p>平民照片如下图所示。</p> <p></p> <img src='stimuli/faces/NCM1.jpg', style='max-width: 30%;'> </img> <p><strong>你是否选择发射武器？</strong></p>","0",""
"","","","","","html-keyboard-response","70","258625","0.0-4.0-0.33","83","1","2022-10-07 08:05:06","d60b49b5908c80e163b920d72b52d584","111.33.203.254","Mozilla/5.0 (Macintosh; Intel Mac OS X 10_15_5) AppleWebKit/537.36 (KHTML, like Gecko) Chrome/105.0.0.0 Safari/537.36","Macintosh","Chrome","105.0.0.0","OS X","10_15_5","null","<div style=""font-size:60px;"">+</div>","null",""
"","","","","","html-button-response","71","259675","0.0-4.0-1.33","83","1","2022-10-07 08:05:06","d60b49b5908c80e163b920d72b52d584","111.33.203.254","Mozilla/5.0 (Macintosh; Intel Mac OS X 10_15_5) AppleWebKit/537.36 (KHTML, like Gecko) Chrome/105.0.0.0 Safari/537.36","Macintosh","Chrome","105.0.0.0","OS X","10_15_5","1048","<p>作为军队的指挥官，你可以选择发射导弹杀死 <strong>8名</strong> 敌国士兵，但会炸毁附近的 <strong>1棵</strong> 敌国树木。</p> <p>树木的照片如下图所示。</p> <p></p> <img src='stimuli/trees/10.png', style='max-width: 30%;'> </img> <p><strong>你是否选择发射武器？</strong></p>","0",""
"","","","","","html-keyboard-response","72","260678","0.0-4.0-0.34","83","1","2022-10-07 08:05:06","d60b49b5908c80e163b920d72b52d584","111.33.203.254","Mozilla/5.0 (Macintosh; Intel Mac OS X 10_15_5) AppleWebKit/537.36 (KHTML, like Gecko) Chrome/105.0.0.0 Safari/537.36","Macintosh","Chrome","105.0.0.0","OS X","10_15_5","null","<div style=""font-size:60px;"">+</div>","null",""
"","","","","","html-button-response","73","261955","0.0-4.0-1.34","83","1","2022-10-07 08:05:06","d60b49b5908c80e163b920d72b52d584","111.33.203.254","Mozilla/5.0 (Macintosh; Intel Mac OS X 10_15_5) AppleWebKit/537.36 (KHTML, like Gecko) Chrome/105.0.0.0 Safari/537.36","Macintosh","Chrome","105.0.0.0","OS X","10_15_5","1274","<p>作为军队的指挥官，你可以选择发射导弹杀死 <strong>10名</strong> 敌国士兵，但会误杀附近的 <strong>1名</strong> 敌国平民。</p> <p>平民照片如下图所示。</p> <p></p> <img src='stimuli/faces/NCM3.jpg', style='max-width: 30%;'> </img> <p><strong>你是否选择发射武器？</strong></p>","0",""
"","","","","","html-keyboard-response","74","262958","0.0-4.0-0.35","83","1","2022-10-07 08:05:06","d60b49b5908c80e163b920d72b52d584","111.33.203.254","Mozilla/5.0 (Macintosh; Intel Mac OS X 10_15_5) AppleWebKit/537.36 (KHTML, like Gecko) Chrome/105.0.0.0 Safari/537.36","Macintosh","Chrome","105.0.0.0","OS X","10_15_5","null","<div style=""font-size:60px;"">+</div>","null",""
"","","","","","html-button-response","75","265200","0.0-4.0-1.35","83","1","2022-10-07 08:05:06","d60b49b5908c80e163b920d72b52d584","111.33.203.254","Mozilla/5.0 (Macintosh; Intel Mac OS X 10_15_5) AppleWebKit/537.36 (KHTML, like Gecko) Chrome/105.0.0.0 Safari/537.36","Macintosh","Chrome","105.0.0.0","OS X","10_15_5","2240","<p>作为军队的指挥官，你可以选择发射导弹杀死 <strong>3名</strong> 敌国士兵，但会误杀附近的 <strong>1名</strong> 敌国平民。</p> <p>平民照片如下图所示。</p> <p></p> <img src='stimuli/faces/NCM1.jpg', style='max-width: 30%;'> </img> <p><strong>你是否选择发射武器？</strong></p>","1",""
"","","","","","html-keyboard-response","76","266210","0.0-4.0-0.36","83","1","2022-10-07 08:05:06","d60b49b5908c80e163b920d72b52d584","111.33.203.254","Mozilla/5.0 (Macintosh; Intel Mac OS X 10_15_5) AppleWebKit/537.36 (KHTML, like Gecko) Chrome/105.0.0.0 Safari/537.36","Macintosh","Chrome","105.0.0.0","OS X","10_15_5","null","<div style=""font-size:60px;"">+</div>","null",""
"","","","","","html-button-response","77","288695","0.0-4.0-1.36","83","1","2022-10-07 08:05:06","d60b49b5908c80e163b920d72b52d584","111.33.203.254","Mozilla/5.0 (Macintosh; Intel Mac OS X 10_15_5) AppleWebKit/537.36 (KHTML, like Gecko) Chrome/105.0.0.0 Safari/537.36","Macintosh","Chrome","105.0.0.0","OS X","10_15_5","22477","<p>作为军队的指挥官，你可以选择发射导弹杀死 <strong>10名</strong> 敌国士兵，但会误杀附近的 <strong>1名</strong> 敌国平民。</p> <p>平民照片如下图所示。</p> <p></p> <img src='stimuli/faces/NCF2.jpg', style='max-width: 30%;'> </img> <p><strong>你是否选择发射武器？</strong></p>","0",""
"","","","","","html-keyboard-response","78","289703","0.0-4.0-0.37","83","1","2022-10-07 08:05:06","d60b49b5908c80e163b920d72b52d584","111.33.203.254","Mozilla/5.0 (Macintosh; Intel Mac OS X 10_15_5) AppleWebKit/537.36 (KHTML, like Gecko) Chrome/105.0.0.0 Safari/537.36","Macintosh","Chrome","105.0.0.0","OS X","10_15_5","null","<div style=""font-size:60px;"">+</div>","null",""
"","","","","","html-button-response","79","321154","0.0-4.0-1.37","83","1","2022-10-07 08:05:06","d60b49b5908c80e163b920d72b52d584","111.33.203.254","Mozilla/5.0 (Macintosh; Intel Mac OS X 10_15_5) AppleWebKit/537.36 (KHTML, like Gecko) Chrome/105.0.0.0 Safari/537.36","Macintosh","Chrome","105.0.0.0","OS X","10_15_5","31445","<p>作为军队的指挥官，你可以选择发射导弹杀死 <strong>9名</strong> 敌国士兵，但会炸毁附近的 <strong>1棵</strong> 敌国树木。</p> <p>树木的照片如下图所示。</p> <p></p> <img src='stimuli/trees/4.png', style='max-width: 30%;'> </img> <p><strong>你是否选择发射武器？</strong></p>","0",""
"","","","","","html-keyboard-response","80","322159","0.0-4.0-0.38","83","1","2022-10-07 08:05:06","d60b49b5908c80e163b920d72b52d584","111.33.203.254","Mozilla/5.0 (Macintosh; Intel Mac OS X 10_15_5) AppleWebKit/537.36 (KHTML, like Gecko) Chrome/105.0.0.0 Safari/537.36","Macintosh","Chrome","105.0.0.0","OS X","10_15_5","null","<div style=""font-size:60px;"">+</div>","null",""
"","","","","","html-button-response","81","323979","0.0-4.0-1.38","83","1","2022-10-07 08:05:06","d60b49b5908c80e163b920d72b52d584","111.33.203.254","Mozilla/5.0 (Macintosh; Intel Mac OS X 10_15_5) AppleWebKit/537.36 (KHTML, like Gecko) Chrome/105.0.0.0 Safari/537.36","Macintosh","Chrome","105.0.0.0","OS X","10_15_5","1815","<p>作为军队的指挥官，你可以选择发射导弹杀死 <strong>4名</strong> 敌国士兵，但会炸毁附近的 <strong>1棵</strong> 敌国树木。</p> <p>树木的照片如下图所示。</p> <p></p> <img src='stimuli/trees/2.png', style='max-width: 30%;'> </img> <p><strong>你是否选择发射武器？</strong></p>","1",""
"","","","","","html-keyboard-response","82","324991","0.0-4.0-0.39","83","1","2022-10-07 08:05:06","d60b49b5908c80e163b920d72b52d584","111.33.203.254","Mozilla/5.0 (Macintosh; Intel Mac OS X 10_15_5) AppleWebKit/537.36 (KHTML, like Gecko) Chrome/105.0.0.0 Safari/537.36","Macintosh","Chrome","105.0.0.0","OS X","10_15_5","null","<div style=""font-size:60px;"">+</div>","null",""
"","","","","","html-button-response","83","326528","0.0-4.0-1.39","83","1","2022-10-07 08:05:06","d60b49b5908c80e163b920d72b52d584","111.33.203.254","Mozilla/5.0 (Macintosh; Intel Mac OS X 10_15_5) AppleWebKit/537.36 (KHTML, like Gecko) Chrome/105.0.0.0 Safari/537.36","Macintosh","Chrome","105.0.0.0","OS X","10_15_5","1532","<p>作为军队的指挥官，你可以选择发射导弹杀死 <strong>6名</strong> 敌国士兵，但会炸毁附近的 <strong>1棵</strong> 敌国树木。</p> <p>树木的照片如下图所示。</p> <p></p> <img src='stimuli/trees/15.png', style='max-width: 30%;'> </img> <p><strong>你是否选择发射武器？</strong></p>","0",""
"","","","","","html-keyboard-response","84","327537","0.0-4.0-0.40","83","1","2022-10-07 08:05:06","d60b49b5908c80e163b920d72b52d584","111.33.203.254","Mozilla/5.0 (Macintosh; Intel Mac OS X 10_15_5) AppleWebKit/537.36 (KHTML, like Gecko) Chrome/105.0.0.0 Safari/537.36","Macintosh","Chrome","105.0.0.0","OS X","10_15_5","null","<div style=""font-size:60px;"">+</div>","null",""
"","","","","","html-button-response","85","328561","0.0-4.0-1.40","83","1","2022-10-07 08:05:06","d60b49b5908c80e163b920d72b52d584","111.33.203.254","Mozilla/5.0 (Macintosh; Intel Mac OS X 10_15_5) AppleWebKit/537.36 (KHTML, like Gecko) Chrome/105.0.0.0 Safari/537.36","Macintosh","Chrome","105.0.0.0","OS X","10_15_5","1019","<p>作为军队的指挥官，你可以选择发射导弹杀死 <strong>8名</strong> 敌国士兵，但会炸毁附近的 <strong>1棵</strong> 敌国树木。</p> <p>树木的照片如下图所示。</p> <p></p> <img src='stimuli/trees/13.png', style='max-width: 30%;'> </img> <p><strong>你是否选择发射武器？</strong></p>","0",""
"","","","","","html-keyboard-response","86","329571","0.0-4.0-0.41","83","1","2022-10-07 08:05:06","d60b49b5908c80e163b920d72b52d584","111.33.203.254","Mozilla/5.0 (Macintosh; Intel Mac OS X 10_15_5) AppleWebKit/537.36 (KHTML, like Gecko) Chrome/105.0.0.0 Safari/537.36","Macintosh","Chrome","105.0.0.0","OS X","10_15_5","null","<div style=""font-size:60px;"">+</div>","null",""
"","","","","","html-button-response","87","330565","0.0-4.0-1.41","83","1","2022-10-07 08:05:06","d60b49b5908c80e163b920d72b52d584","111.33.203.254","Mozilla/5.0 (Macintosh; Intel Mac OS X 10_15_5) AppleWebKit/537.36 (KHTML, like Gecko) Chrome/105.0.0.0 Safari/537.36","Macintosh","Chrome","105.0.0.0","OS X","10_15_5","988","<p>作为军队的指挥官，你可以选择发射导弹杀死 <strong>10名</strong> 敌国士兵，但会误杀附近的 <strong>1名</strong> 敌国平民。</p> <p>平民照片如下图所示。</p> <p></p> <img src='stimuli/faces/NCM4.jpg', style='max-width: 30%;'> </img> <p><strong>你是否选择发射武器？</strong></p>","0",""
"","","","","","html-keyboard-response","88","331575","0.0-4.0-0.42","83","1","2022-10-07 08:05:06","d60b49b5908c80e163b920d72b52d584","111.33.203.254","Mozilla/5.0 (Macintosh; Intel Mac OS X 10_15_5) AppleWebKit/537.36 (KHTML, like Gecko) Chrome/105.0.0.0 Safari/537.36","Macintosh","Chrome","105.0.0.0","OS X","10_15_5","null","<div style=""font-size:60px;"">+</div>","null",""
"","","","","","html-button-response","89","333663","0.0-4.0-1.42","83","1","2022-10-07 08:05:06","d60b49b5908c80e163b920d72b52d584","111.33.203.254","Mozilla/5.0 (Macintosh; Intel Mac OS X 10_15_5) AppleWebKit/537.36 (KHTML, like Gecko) Chrome/105.0.0.0 Safari/537.36","Macintosh","Chrome","105.0.0.0","OS X","10_15_5","2083","<p>作为军队的指挥官，你可以选择发射导弹杀死 <strong>4名</strong> 敌国士兵，但会炸毁附近的 <strong>1棵</strong> 敌国树木。</p> <p>树木的照片如下图所示。</p> <p></p> <img src='stimuli/trees/12.png', style='max-width: 30%;'> </img> <p><strong>你是否选择发射武器？</strong></p>","1",""
"","","","","","html-keyboard-response","90","334672","0.0-4.0-0.43","83","1","2022-10-07 08:05:06","d60b49b5908c80e163b920d72b52d584","111.33.203.254","Mozilla/5.0 (Macintosh; Intel Mac OS X 10_15_5) AppleWebKit/537.36 (KHTML, like Gecko) Chrome/105.0.0.0 Safari/537.36","Macintosh","Chrome","105.0.0.0","OS X","10_15_5","null","<div style=""font-size:60px;"">+</div>","null",""
"","","","","","html-button-response","91","335962","0.0-4.0-1.43","83","1","2022-10-07 08:05:06","d60b49b5908c80e163b920d72b52d584","111.33.203.254","Mozilla/5.0 (Macintosh; Intel Mac OS X 10_15_5) AppleWebKit/537.36 (KHTML, like Gecko) Chrome/105.0.0.0 Safari/537.36","Macintosh","Chrome","105.0.0.0","OS X","10_15_5","1286","<p>作为军队的指挥官，你可以选择发射导弹杀死 <strong>1名</strong> 敌国士兵，但会炸毁附近的 <strong>1棵</strong> 敌国树木。</p> <p>树木的照片如下图所示。</p> <p></p> <img src='stimuli/trees/6.png', style='max-width: 30%;'> </img> <p><strong>你是否选择发射武器？</strong></p>","1",""
"","","","","","html-keyboard-response","92","336972","0.0-4.0-0.44","83","1","2022-10-07 08:05:06","d60b49b5908c80e163b920d72b52d584","111.33.203.254","Mozilla/5.0 (Macintosh; Intel Mac OS X 10_15_5) AppleWebKit/537.36 (KHTML, like Gecko) Chrome/105.0.0.0 Safari/537.36","Macintosh","Chrome","105.0.0.0","OS X","10_15_5","null","<div style=""font-size:60px;"">+</div>","null",""
"","","","","","html-button-response","93","339805","0.0-4.0-1.44","83","1","2022-10-07 08:05:06","d60b49b5908c80e163b920d72b52d584","111.33.203.254","Mozilla/5.0 (Macintosh; Intel Mac OS X 10_15_5) AppleWebKit/537.36 (KHTML, like Gecko) Chrome/105.0.0.0 Safari/537.36","Macintosh","Chrome","105.0.0.0","OS X","10_15_5","2827","<p>作为军队的指挥官，你可以选择发射导弹杀死 <strong>6名</strong> 敌国士兵，但会误杀附近的 <strong>1名</strong> 敌国平民。</p> <p>平民照片如下图所示。</p> <p></p> <img src='stimuli/faces/NCF1.jpg', style='max-width: 30%;'> </img> <p><strong>你是否选择发射武器？</strong></p>","0",""
"","","","","","html-keyboard-response","94","340816","0.0-4.0-0.45","83","1","2022-10-07 08:05:06","d60b49b5908c80e163b920d72b52d584","111.33.203.254","Mozilla/5.0 (Macintosh; Intel Mac OS X 10_15_5) AppleWebKit/537.36 (KHTML, like Gecko) Chrome/105.0.0.0 Safari/537.36","Macintosh","Chrome","105.0.0.0","OS X","10_15_5","null","<div style=""font-size:60px;"">+</div>","null",""
"","","","","","html-button-response","95","342387","0.0-4.0-1.45","83","1","2022-10-07 08:05:06","d60b49b5908c80e163b920d72b52d584","111.33.203.254","Mozilla/5.0 (Macintosh; Intel Mac OS X 10_15_5) AppleWebKit/537.36 (KHTML, like Gecko) Chrome/105.0.0.0 Safari/537.36","Macintosh","Chrome","105.0.0.0","OS X","10_15_5","1565","<p>作为军队的指挥官，你可以选择发射导弹杀死 <strong>2名</strong> 敌国士兵，但会误杀附近的 <strong>1名</strong> 敌国平民。</p> <p>平民照片如下图所示。</p> <p></p> <img src='stimuli/faces/NCF1.jpg', style='max-width: 30%;'> </img> <p><strong>你是否选择发射武器？</strong></p>","1",""
"","","","","","html-keyboard-response","96","343398","0.0-4.0-0.46","83","1","2022-10-07 08:05:06","d60b49b5908c80e163b920d72b52d584","111.33.203.254","Mozilla/5.0 (Macintosh; Intel Mac OS X 10_15_5) AppleWebKit/537.36 (KHTML, like Gecko) Chrome/105.0.0.0 Safari/537.36","Macintosh","Chrome","105.0.0.0","OS X","10_15_5","null","<div style=""font-size:60px;"">+</div>","null",""
"","","","","","html-button-response","97","344620","0.0-4.0-1.46","83","1","2022-10-07 08:05:06","d60b49b5908c80e163b920d72b52d584","111.33.203.254","Mozilla/5.0 (Macintosh; Intel Mac OS X 10_15_5) AppleWebKit/537.36 (KHTML, like Gecko) Chrome/105.0.0.0 Safari/537.36","Macintosh","Chrome","105.0.0.0","OS X","10_15_5","1215","<p>作为军队的指挥官，你可以选择发射导弹杀死 <strong>8名</strong> 敌国士兵，但会误杀附近的 <strong>1名</strong> 敌国平民。</p> <p>平民照片如下图所示。</p> <p></p> <img src='stimuli/faces/NCF5.jpg', style='max-width: 30%;'> </img> <p><strong>你是否选择发射武器？</strong></p>","0",""
"","","","","","html-keyboard-response","98","345630","0.0-4.0-0.47","83","1","2022-10-07 08:05:06","d60b49b5908c80e163b920d72b52d584","111.33.203.254","Mozilla/5.0 (Macintosh; Intel Mac OS X 10_15_5) AppleWebKit/537.36 (KHTML, like Gecko) Chrome/105.0.0.0 Safari/537.36","Macintosh","Chrome","105.0.0.0","OS X","10_15_5","null","<div style=""font-size:60px;"">+</div>","null",""
"","","","","","html-button-response","99","347409","0.0-4.0-1.47","83","1","2022-10-07 08:05:06","d60b49b5908c80e163b920d72b52d584","111.33.203.254","Mozilla/5.0 (Macintosh; Intel Mac OS X 10_15_5) AppleWebKit/537.36 (KHTML, like Gecko) Chrome/105.0.0.0 Safari/537.36","Macintosh","Chrome","105.0.0.0","OS X","10_15_5","1773","<p>作为军队的指挥官，你可以选择发射导弹杀死 <strong>2名</strong> 敌国士兵，但会误杀附近的 <strong>1名</strong> 敌国平民。</p> <p>平民照片如下图所示。</p> <p></p> <img src='stimuli/faces/NCM8.jpg', style='max-width: 30%;'> </img> <p><strong>你是否选择发射武器？</strong></p>","1",""
"","","","","","html-keyboard-response","100","348420","0.0-4.0-0.48","83","1","2022-10-07 08:05:06","d60b49b5908c80e163b920d72b52d584","111.33.203.254","Mozilla/5.0 (Macintosh; Intel Mac OS X 10_15_5) AppleWebKit/537.36 (KHTML, like Gecko) Chrome/105.0.0.0 Safari/537.36","Macintosh","Chrome","105.0.0.0","OS X","10_15_5","null","<div style=""font-size:60px;"">+</div>","null",""
"","","","","","html-button-response","101","351977","0.0-4.0-1.48","83","1","2022-10-07 08:05:06","d60b49b5908c80e163b920d72b52d584","111.33.203.254","Mozilla/5.0 (Macintosh; Intel Mac OS X 10_15_5) AppleWebKit/537.36 (KHTML, like Gecko) Chrome/105.0.0.0 Safari/537.36","Macintosh","Chrome","105.0.0.0","OS X","10_15_5","3550","<p>作为军队的指挥官，你可以选择发射导弹杀死 <strong>6名</strong> 敌国士兵，但会炸毁附近的 <strong>1棵</strong> 敌国树木。</p> <p>树木的照片如下图所示。</p> <p></p> <img src='stimuli/trees/8.png', style='max-width: 30%;'> </img> <p><strong>你是否选择发射武器？</strong></p>","1",""
"","","","","","html-keyboard-response","102","352985","0.0-4.0-0.49","83","1","2022-10-07 08:05:06","d60b49b5908c80e163b920d72b52d584","111.33.203.254","Mozilla/5.0 (Macintosh; Intel Mac OS X 10_15_5) AppleWebKit/537.36 (KHTML, like Gecko) Chrome/105.0.0.0 Safari/537.36","Macintosh","Chrome","105.0.0.0","OS X","10_15_5","null","<div style=""font-size:60px;"">+</div>","null",""
"","","","","","html-button-response","103","358036","0.0-4.0-1.49","83","1","2022-10-07 08:05:06","d60b49b5908c80e163b920d72b52d584","111.33.203.254","Mozilla/5.0 (Macintosh; Intel Mac OS X 10_15_5) AppleWebKit/537.36 (KHTML, like Gecko) Chrome/105.0.0.0 Safari/537.36","Macintosh","Chrome","105.0.0.0","OS X","10_15_5","5045","<p>作为军队的指挥官，你可以选择发射导弹杀死 <strong>5名</strong> 敌国士兵，但会炸毁附近的 <strong>1棵</strong> 敌国树木。</p> <p>树木的照片如下图所示。</p> <p></p> <img src='stimuli/trees/14.png', style='max-width: 30%;'> </img> <p><strong>你是否选择发射武器？</strong></p>","0",""
"","","","","","html-keyboard-response","104","359046","0.0-4.0-0.50","83","1","2022-10-07 08:05:06","d60b49b5908c80e163b920d72b52d584","111.33.203.254","Mozilla/5.0 (Macintosh; Intel Mac OS X 10_15_5) AppleWebKit/537.36 (KHTML, like Gecko) Chrome/105.0.0.0 Safari/537.36","Macintosh","Chrome","105.0.0.0","OS X","10_15_5","null","<div style=""font-size:60px;"">+</div>","null",""
"","","","","","html-button-response","105","361335","0.0-4.0-1.50","83","1","2022-10-07 08:05:06","d60b49b5908c80e163b920d72b52d584","111.33.203.254","Mozilla/5.0 (Macintosh; Intel Mac OS X 10_15_5) AppleWebKit/537.36 (KHTML, like Gecko) Chrome/105.0.0.0 Safari/537.36","Macintosh","Chrome","105.0.0.0","OS X","10_15_5","2283","<p>作为军队的指挥官，你可以选择发射导弹杀死 <strong>4名</strong> 敌国士兵，但会误杀附近的 <strong>1名</strong> 敌国平民。</p> <p>平民照片如下图所示。</p> <p></p> <img src='stimuli/faces/NCF5.jpg', style='max-width: 30%;'> </img> <p><strong>你是否选择发射武器？</strong></p>","1",""
"","","","","","html-keyboard-response","106","362344","0.0-4.0-0.51","83","1","2022-10-07 08:05:06","d60b49b5908c80e163b920d72b52d584","111.33.203.254","Mozilla/5.0 (Macintosh; Intel Mac OS X 10_15_5) AppleWebKit/537.36 (KHTML, like Gecko) Chrome/105.0.0.0 Safari/537.36","Macintosh","Chrome","105.0.0.0","OS X","10_15_5","null","<div style=""font-size:60px;"">+</div>","null",""
"","","","","","html-button-response","107","364101","0.0-4.0-1.51","83","1","2022-10-07 08:05:06","d60b49b5908c80e163b920d72b52d584","111.33.203.254","Mozilla/5.0 (Macintosh; Intel Mac OS X 10_15_5) AppleWebKit/537.36 (KHTML, like Gecko) Chrome/105.0.0.0 Safari/537.36","Macintosh","Chrome","105.0.0.0","OS X","10_15_5","1750","<p>作为军队的指挥官，你可以选择发射导弹杀死 <strong>7名</strong> 敌国士兵，但会炸毁附近的 <strong>1棵</strong> 敌国树木。</p> <p>树木的照片如下图所示。</p> <p></p> <img src='stimuli/trees/6.png', style='max-width: 30%;'> </img> <p><strong>你是否选择发射武器？</strong></p>","0",""
"","","","","","html-keyboard-response","108","365109","0.0-4.0-0.52","83","1","2022-10-07 08:05:06","d60b49b5908c80e163b920d72b52d584","111.33.203.254","Mozilla/5.0 (Macintosh; Intel Mac OS X 10_15_5) AppleWebKit/537.36 (KHTML, like Gecko) Chrome/105.0.0.0 Safari/537.36","Macintosh","Chrome","105.0.0.0","OS X","10_15_5","null","<div style=""font-size:60px;"">+</div>","null",""
"","","","","","html-button-response","109","366615","0.0-4.0-1.52","83","1","2022-10-07 08:05:06","d60b49b5908c80e163b920d72b52d584","111.33.203.254","Mozilla/5.0 (Macintosh; Intel Mac OS X 10_15_5) AppleWebKit/537.36 (KHTML, like Gecko) Chrome/105.0.0.0 Safari/537.36","Macintosh","Chrome","105.0.0.0","OS X","10_15_5","1501","<p>作为军队的指挥官，你可以选择发射导弹杀死 <strong>2名</strong> 敌国士兵，但会炸毁附近的 <strong>1棵</strong> 敌国树木。</p> <p>树木的照片如下图所示。</p> <p></p> <img src='stimuli/trees/8.png', style='max-width: 30%;'> </img> <p><strong>你是否选择发射武器？</strong></p>","1",""
"","","","","","html-keyboard-response","110","367620","0.0-4.0-0.53","83","1","2022-10-07 08:05:06","d60b49b5908c80e163b920d72b52d584","111.33.203.254","Mozilla/5.0 (Macintosh; Intel Mac OS X 10_15_5) AppleWebKit/537.36 (KHTML, like Gecko) Chrome/105.0.0.0 Safari/537.36","Macintosh","Chrome","105.0.0.0","OS X","10_15_5","null","<div style=""font-size:60px;"">+</div>","null",""
"","","","","","html-button-response","111","369315","0.0-4.0-1.53","83","1","2022-10-07 08:05:06","d60b49b5908c80e163b920d72b52d584","111.33.203.254","Mozilla/5.0 (Macintosh; Intel Mac OS X 10_15_5) AppleWebKit/537.36 (KHTML, like Gecko) Chrome/105.0.0.0 Safari/537.36","Macintosh","Chrome","105.0.0.0","OS X","10_15_5","1689","<p>作为军队的指挥官，你可以选择发射导弹杀死 <strong>5名</strong> 敌国士兵，但会误杀附近的 <strong>1名</strong> 敌国平民。</p> <p>平民照片如下图所示。</p> <p></p> <img src='stimuli/faces/NCM3.jpg', style='max-width: 30%;'> </img> <p><strong>你是否选择发射武器？</strong></p>","0",""
"","","","","","html-keyboard-response","112","370325","0.0-4.0-0.54","83","1","2022-10-07 08:05:06","d60b49b5908c80e163b920d72b52d584","111.33.203.254","Mozilla/5.0 (Macintosh; Intel Mac OS X 10_15_5) AppleWebKit/537.36 (KHTML, like Gecko) Chrome/105.0.0.0 Safari/537.36","Macintosh","Chrome","105.0.0.0","OS X","10_15_5","null","<div style=""font-size:60px;"">+</div>","null",""
"","","","","","html-button-response","113","371816","0.0-4.0-1.54","83","1","2022-10-07 08:05:06","d60b49b5908c80e163b920d72b52d584","111.33.203.254","Mozilla/5.0 (Macintosh; Intel Mac OS X 10_15_5) AppleWebKit/537.36 (KHTML, like Gecko) Chrome/105.0.0.0 Safari/537.36","Macintosh","Chrome","105.0.0.0","OS X","10_15_5","1485","<p>作为军队的指挥官，你可以选择发射导弹杀死 <strong>3名</strong> 敌国士兵，但会误杀附近的 <strong>1名</strong> 敌国平民。</p> <p>平民照片如下图所示。</p> <p></p> <img src='stimuli/faces/NCF2.jpg', style='max-width: 30%;'> </img> <p><strong>你是否选择发射武器？</strong></p>","1",""
"","","","","","html-keyboard-response","114","372827","0.0-4.0-0.55","83","1","2022-10-07 08:05:06","d60b49b5908c80e163b920d72b52d584","111.33.203.254","Mozilla/5.0 (Macintosh; Intel Mac OS X 10_15_5) AppleWebKit/537.36 (KHTML, like Gecko) Chrome/105.0.0.0 Safari/537.36","Macintosh","Chrome","105.0.0.0","OS X","10_15_5","null","<div style=""font-size:60px;"">+</div>","null",""
"","","","","","html-button-response","115","375043","0.0-4.0-1.55","83","1","2022-10-07 08:05:06","d60b49b5908c80e163b920d72b52d584","111.33.203.254","Mozilla/5.0 (Macintosh; Intel Mac OS X 10_15_5) AppleWebKit/537.36 (KHTML, like Gecko) Chrome/105.0.0.0 Safari/537.36","Macintosh","Chrome","105.0.0.0","OS X","10_15_5","2210","<p>作为军队的指挥官，你可以选择发射导弹杀死 <strong>4名</strong> 敌国士兵，但会炸毁附近的 <strong>1棵</strong> 敌国树木。</p> <p>树木的照片如下图所示。</p> <p></p> <img src='stimuli/trees/11.png', style='max-width: 30%;'> </img> <p><strong>你是否选择发射武器？</strong></p>","1",""
"","","","","","html-keyboard-response","116","376056","0.0-4.0-0.56","83","1","2022-10-07 08:05:06","d60b49b5908c80e163b920d72b52d584","111.33.203.254","Mozilla/5.0 (Macintosh; Intel Mac OS X 10_15_5) AppleWebKit/537.36 (KHTML, like Gecko) Chrome/105.0.0.0 Safari/537.36","Macintosh","Chrome","105.0.0.0","OS X","10_15_5","null","<div style=""font-size:60px;"">+</div>","null",""
"","","","","","html-button-response","117","377974","0.0-4.0-1.56","83","1","2022-10-07 08:05:06","d60b49b5908c80e163b920d72b52d584","111.33.203.254","Mozilla/5.0 (Macintosh; Intel Mac OS X 10_15_5) AppleWebKit/537.36 (KHTML, like Gecko) Chrome/105.0.0.0 Safari/537.36","Macintosh","Chrome","105.0.0.0","OS X","10_15_5","1912","<p>作为军队的指挥官，你可以选择发射导弹杀死 <strong>5名</strong> 敌国士兵，但会误杀附近的 <strong>1名</strong> 敌国平民。</p> <p>平民照片如下图所示。</p> <p></p> <img src='stimuli/faces/NCF3.jpg', style='max-width: 30%;'> </img> <p><strong>你是否选择发射武器？</strong></p>","1",""
"","","","","","html-keyboard-response","118","378980","0.0-4.0-0.57","83","1","2022-10-07 08:05:06","d60b49b5908c80e163b920d72b52d584","111.33.203.254","Mozilla/5.0 (Macintosh; Intel Mac OS X 10_15_5) AppleWebKit/537.36 (KHTML, like Gecko) Chrome/105.0.0.0 Safari/537.36","Macintosh","Chrome","105.0.0.0","OS X","10_15_5","null","<div style=""font-size:60px;"">+</div>","null",""
"","","","","","html-button-response","119","380707","0.0-4.0-1.57","83","1","2022-10-07 08:05:06","d60b49b5908c80e163b920d72b52d584","111.33.203.254","Mozilla/5.0 (Macintosh; Intel Mac OS X 10_15_5) AppleWebKit/537.36 (KHTML, like Gecko) Chrome/105.0.0.0 Safari/537.36","Macintosh","Chrome","105.0.0.0","OS X","10_15_5","1720","<p>作为军队的指挥官，你可以选择发射导弹杀死 <strong>8名</strong> 敌国士兵，但会炸毁附近的 <strong>1棵</strong> 敌国树木。</p> <p>树木的照片如下图所示。</p> <p></p> <img src='stimuli/trees/2.png', style='max-width: 30%;'> </img> <p><strong>你是否选择发射武器？</strong></p>","0",""
"","","","","","html-keyboard-response","120","381714","0.0-4.0-0.58","83","1","2022-10-07 08:05:06","d60b49b5908c80e163b920d72b52d584","111.33.203.254","Mozilla/5.0 (Macintosh; Intel Mac OS X 10_15_5) AppleWebKit/537.36 (KHTML, like Gecko) Chrome/105.0.0.0 Safari/537.36","Macintosh","Chrome","105.0.0.0","OS X","10_15_5","null","<div style=""font-size:60px;"">+</div>","null",""
"","","","","","html-button-response","121","435819","0.0-4.0-1.58","83","1","2022-10-07 08:05:06","d60b49b5908c80e163b920d72b52d584","111.33.203.254","Mozilla/5.0 (Macintosh; Intel Mac OS X 10_15_5) AppleWebKit/537.36 (KHTML, like Gecko) Chrome/105.0.0.0 Safari/537.36","Macintosh","Chrome","105.0.0.0","OS X","10_15_5","54100","<p>作为军队的指挥官，你可以选择发射导弹杀死 <strong>1名</strong> 敌国士兵，但会误杀附近的 <strong>1名</strong> 敌国平民。</p> <p>平民照片如下图所示。</p> <p></p> <img src='stimuli/faces/NCM7.jpg', style='max-width: 30%;'> </img> <p><strong>你是否选择发射武器？</strong></p>","1",""
"","","","","","html-keyboard-response","122","436827","0.0-4.0-0.59","83","1","2022-10-07 08:05:06","d60b49b5908c80e163b920d72b52d584","111.33.203.254","Mozilla/5.0 (Macintosh; Intel Mac OS X 10_15_5) AppleWebKit/537.36 (KHTML, like Gecko) Chrome/105.0.0.0 Safari/537.36","Macintosh","Chrome","105.0.0.0","OS X","10_15_5","null","<div style=""font-size:60px;"">+</div>","null",""
"","","","","","html-button-response","123","439224","0.0-4.0-1.59","83","1","2022-10-07 08:05:06","d60b49b5908c80e163b920d72b52d584","111.33.203.254","Mozilla/5.0 (Macintosh; Intel Mac OS X 10_15_5) AppleWebKit/537.36 (KHTML, like Gecko) Chrome/105.0.0.0 Safari/537.36","Macintosh","Chrome","105.0.0.0","OS X","10_15_5","2394","<p>作为军队的指挥官，你可以选择发射导弹杀死 <strong>7名</strong> 敌国士兵，但会误杀附近的 <strong>1名</strong> 敌国平民。</p> <p>平民照片如下图所示。</p> <p></p> <img src='stimuli/faces/NCF3.jpg', style='max-width: 30%;'> </img> <p><strong>你是否选择发射武器？</strong></p>","0",""
"","","","","","html-keyboard-response","124","440232","0.0-4.0-0.60","83","1","2022-10-07 08:05:06","d60b49b5908c80e163b920d72b52d584","111.33.203.254","Mozilla/5.0 (Macintosh; Intel Mac OS X 10_15_5) AppleWebKit/537.36 (KHTML, like Gecko) Chrome/105.0.0.0 Safari/537.36","Macintosh","Chrome","105.0.0.0","OS X","10_15_5","null","<div style=""font-size:60px;"">+</div>","null",""
"","","","","","html-button-response","125","443505","0.0-4.0-1.60","83","1","2022-10-07 08:05:06","d60b49b5908c80e163b920d72b52d584","111.33.203.254","Mozilla/5.0 (Macintosh; Intel Mac OS X 10_15_5) AppleWebKit/537.36 (KHTML, like Gecko) Chrome/105.0.0.0 Safari/537.36","Macintosh","Chrome","105.0.0.0","OS X","10_15_5","3271","<p>作为军队的指挥官，你可以选择发射导弹杀死 <strong>8名</strong> 敌国士兵，但会炸毁附近的 <strong>1棵</strong> 敌国树木。</p> <p>树木的照片如下图所示。</p> <p></p> <img src='stimuli/trees/12.png', style='max-width: 30%;'> </img> <p><strong>你是否选择发射武器？</strong></p>","0",""
"","","","","","html-keyboard-response","126","444511","0.0-4.0-0.61","83","1","2022-10-07 08:05:06","d60b49b5908c80e163b920d72b52d584","111.33.203.254","Mozilla/5.0 (Macintosh; Intel Mac OS X 10_15_5) AppleWebKit/537.36 (KHTML, like Gecko) Chrome/105.0.0.0 Safari/537.36","Macintosh","Chrome","105.0.0.0","OS X","10_15_5","null","<div style=""font-size:60px;"">+</div>","null",""
"","","","","","html-button-response","127","446408","0.0-4.0-1.61","83","1","2022-10-07 08:05:06","d60b49b5908c80e163b920d72b52d584","111.33.203.254","Mozilla/5.0 (Macintosh; Intel Mac OS X 10_15_5) AppleWebKit/537.36 (KHTML, like Gecko) Chrome/105.0.0.0 Safari/537.36","Macintosh","Chrome","105.0.0.0","OS X","10_15_5","1891","<p>作为军队的指挥官，你可以选择发射导弹杀死 <strong>1名</strong> 敌国士兵，但会误杀附近的 <strong>1名</strong> 敌国平民。</p> <p>平民照片如下图所示。</p> <p></p> <img src='stimuli/faces/NCM6.jpg', style='max-width: 30%;'> </img> <p><strong>你是否选择发射武器？</strong></p>","1",""
"","","","","","html-keyboard-response","128","447421","0.0-4.0-0.62","83","1","2022-10-07 08:05:06","d60b49b5908c80e163b920d72b52d584","111.33.203.254","Mozilla/5.0 (Macintosh; Intel Mac OS X 10_15_5) AppleWebKit/537.36 (KHTML, like Gecko) Chrome/105.0.0.0 Safari/537.36","Macintosh","Chrome","105.0.0.0","OS X","10_15_5","null","<div style=""font-size:60px;"">+</div>","null",""
"","","","","","html-button-response","129","452981","0.0-4.0-1.62","83","1","2022-10-07 08:05:06","d60b49b5908c80e163b920d72b52d584","111.33.203.254","Mozilla/5.0 (Macintosh; Intel Mac OS X 10_15_5) AppleWebKit/537.36 (KHTML, like Gecko) Chrome/105.0.0.0 Safari/537.36","Macintosh","Chrome","105.0.0.0","OS X","10_15_5","5557","<p>作为军队的指挥官，你可以选择发射导弹杀死 <strong>10名</strong> 敌国士兵，但会误杀附近的 <strong>1名</strong> 敌国平民。</p> <p>平民照片如下图所示。</p> <p></p> <img src='stimuli/faces/NCM2.jpg', style='max-width: 30%;'> </img> <p><strong>你是否选择发射武器？</strong></p>","0",""
"","","","","","html-keyboard-response","130","453994","0.0-4.0-0.63","83","1","2022-10-07 08:05:06","d60b49b5908c80e163b920d72b52d584","111.33.203.254","Mozilla/5.0 (Macintosh; Intel Mac OS X 10_15_5) AppleWebKit/537.36 (KHTML, like Gecko) Chrome/105.0.0.0 Safari/537.36","Macintosh","Chrome","105.0.0.0","OS X","10_15_5","null","<div style=""font-size:60px;"">+</div>","null",""
"","","","","","html-button-response","131","454788","0.0-4.0-1.63","83","1","2022-10-07 08:05:06","d60b49b5908c80e163b920d72b52d584","111.33.203.254","Mozilla/5.0 (Macintosh; Intel Mac OS X 10_15_5) AppleWebKit/537.36 (KHTML, like Gecko) Chrome/105.0.0.0 Safari/537.36","Macintosh","Chrome","105.0.0.0","OS X","10_15_5","787","<p>作为军队的指挥官，你可以选择发射导弹杀死 <strong>9名</strong> 敌国士兵，但会误杀附近的 <strong>1名</strong> 敌国平民。</p> <p>平民照片如下图所示。</p> <p></p> <img src='stimuli/faces/NCM6.jpg', style='max-width: 30%;'> </img> <p><strong>你是否选择发射武器？</strong></p>","0",""
"","","","","","survey-multi-choice","132","478670","0.0-5.0","83","1","2022-10-07 08:05:06","d60b49b5908c80e163b920d72b52d584","111.33.203.254","Mozilla/5.0 (Macintosh; Intel Mac OS X 10_15_5) AppleWebKit/537.36 (KHTML, like Gecko) Chrome/105.0.0.0 Safari/537.36","Macintosh","Chrome","105.0.0.0","OS X","10_15_5","23871","","{""Attention1"":""""}","[0]"
"","","","","","html-button-response","133","482350","0.0-6.0","83","1","2022-10-07 08:05:06","d60b49b5908c80e163b920d72b52d584","111.33.203.254","Mozilla/5.0 (Macintosh; Intel Mac OS X 10_15_5) AppleWebKit/537.36 (KHTML, like Gecko) Chrome/105.0.0.0 Safari/537.36","Macintosh","Chrome","105.0.0.0","OS X","10_15_5","3674","<p style=""font-size:20px;font-weight:bold;"">恭喜！</p><p>你已经完成了实验的第一部分。</p><p>请休息放松一下，然后进入第二部分。</p><p>这部分大约需要10分钟。</p>","0",""
"","","","","","survey-text","134","624726","0.0-7.0","83","1","2022-10-07 08:05:06","d60b49b5908c80e163b920d72b52d584","111.33.203.254","Mozilla/5.0 (Macintosh; Intel Mac OS X 10_15_5) AppleWebKit/537.36 (KHTML, like Gecko) Chrome/105.0.0.0 Safari/537.36","Macintosh","Chrome","105.0.0.0","OS X","10_15_5","141351","","{""Age"":""21"",""Nation"":""中国"",""Born"":""天津市"",""Live"":""天津市"",""Ethnic"":""汉"",""Alipay"":""15930577660""}",""
"","","","","","survey-multi-choice","135","646453","0.0-8.0","83","1","2022-10-07 08:05:06","d60b49b5908c80e163b920d72b52d584","111.33.203.254","Mozilla/5.0 (Macintosh; Intel Mac OS X 10_15_5) AppleWebKit/537.36 (KHTML, like Gecko) Chrome/105.0.0.0 Safari/537.36","Macintosh","Chrome","105.0.0.0","OS X","10_15_5","21718","","{""Gender"":""女"",""Education"":""本科毕业"",""Income"":""￥490,000-￥699,999"",""Children"":""0"",""Race"":""亚洲人""}","[0,1,2,3,4]"
"","","","","","survey-multi-select","136","661985","0.0-9.0","83","1","2022-10-07 08:05:06","d60b49b5908c80e163b920d72b52d584","111.33.203.254","Mozilla/5.0 (Macintosh; Intel Mac OS X 10_15_5) AppleWebKit/537.36 (KHTML, like Gecko) Chrome/105.0.0.0 Safari/537.36","Macintosh","Chrome","105.0.0.0","OS X","10_15_5","15507","","{""Marriage"":[""未婚""],""Religion"":[""无宗教信仰""]}","[0,1]"
"","","","","","survey-multi-choice","137","671774","0.0-10.0","83","1","2022-10-07 08:05:06","d60b49b5908c80e163b920d72b52d584","111.33.203.254","Mozilla/5.0 (Macintosh; Intel Mac OS X 10_15_5) AppleWebKit/537.36 (KHTML, like Gecko) Chrome/105.0.0.0 Safari/537.36","Macintosh","Chrome","105.0.0.0","OS X","10_15_5","9776","","{""SES"":""6""}","[0]"
"","","","","","html-button-response","138","675122","0.0-11.0","83","1","2022-10-07 08:05:06","d60b49b5908c80e163b920d72b52d584","111.33.203.254","Mozilla/5.0 (Macintosh; Intel Mac OS X 10_15_5) AppleWebKit/537.36 (KHTML, like Gecko) Chrome/105.0.0.0 Safari/537.36","Macintosh","Chrome","105.0.0.0","OS X","10_15_5","3337","<p><strong>请判断下列陈述在多大程度上可以形容你？</p><p> (1 = ""和我一点都不像"" to 5 = ""非常像我"".)</strong></p>","0",""
"","","","","","survey-likert","139","716699","0.0-12.0","83","1","2022-10-07 08:05:06","d60b49b5908c80e163b920d72b52d584","111.33.203.254","Mozilla/5.0 (Macintosh; Intel Mac OS X 10_15_5) AppleWebKit/537.36 (KHTML, like Gecko) Chrome/105.0.0.0 Safari/537.36","Macintosh","Chrome","105.0.0.0","OS X","10_15_5","41565","","{""Aggression1"":0,""Aggression2"":1,""Aggression3"":3,""Aggression4"":0,""Aggression5"":3,""Aggression6"":2,""Aggression7"":3,""Aggression8"":0,""Aggression9"":0}","[0,1,2,3,4,5,6,7,8]"
"","","","","","html-button-response","140","769377","0.0-13.0","83","1","2022-10-07 08:05:06","d60b49b5908c80e163b920d72b52d584","111.33.203.254","Mozilla/5.0 (Macintosh; Intel Mac OS X 10_15_5) AppleWebKit/537.36 (KHTML, like Gecko) Chrome/105.0.0.0 Safari/537.36","Macintosh","Chrome","105.0.0.0","OS X","10_15_5","52694","<p><strong>请判断你在多大程度上同意下列陈述。</strong></p>","0",""
"","","","","","survey-likert","141","933827","0.0-14.0","83","1","2022-10-07 08:05:06","d60b49b5908c80e163b920d72b52d584","111.33.203.254","Mozilla/5.0 (Macintosh; Intel Mac OS X 10_15_5) AppleWebKit/537.36 (KHTML, like Gecko) Chrome/105.0.0.0 Safari/537.36","Macintosh","Chrome","105.0.0.0","OS X","10_15_5","165785","","{""scale10"":2,""scale5"":2,""scale6"":3,""scale13"":1,""scale11"":3,""scale25"":2,""scale2"":2,""scale23"":3,""scale18"":1,""scale24"":1,""scale1"":0,""scale27"":1,""scale21"":2,""scale8"":2,""scale14"":2,""scale15"":4,""scale26"":2,""scale22"":2,""scale4"":1,""scale16"":1,""scale12"":1,""scale17"":2,""scale28"":3,""scale20"":2,""scale7"":1,""scale3"":1,""scale19"":3,""scale9"":2}","[9,4,5,12,10,24,1,22,17,23,0,26,20,7,13,14,25,21,3,15,11,16,27,19,6,2,18,8]"
"","","","","","html-button-response","142","940597","0.0-15.0","83","1","2022-10-07 08:05:06","d60b49b5908c80e163b920d72b52d584","111.33.203.254","Mozilla/5.0 (Macintosh; Intel Mac OS X 10_15_5) AppleWebKit/537.36 (KHTML, like Gecko) Chrome/105.0.0.0 Safari/537.36","Macintosh","Chrome","105.0.0.0","OS X","10_15_5","6761","<p><strong>请判断你在多大程度上同意下列陈述。</strong></p>","0",""
"","","","","","survey-likert","143","1043931","0.0-16.0","83","1","2022-10-07 08:05:06","d60b49b5908c80e163b920d72b52d584","111.33.203.254","Mozilla/5.0 (Macintosh; Intel Mac OS X 10_15_5) AppleWebKit/537.36 (KHTML, like Gecko) Chrome/105.0.0.0 Safari/537.36","Macintosh","Chrome","105.0.0.0","OS X","10_15_5","103322","","{""sdo4"":2,""sdo16"":4,""sdo9"":2,""sdo6"":5,""sdo2"":3,""sdo14"":4,""sdo12"":4,""sdo10"":3,""sdo5"":5,""sdo3"":5,""sdo13"":6,""sdo11"":3,""sdo1"":4,""sdo8"":5,""sdo15"":2,""sdo7"":1}","[3,15,8,5,1,13,11,9,4,2,12,10,0,7,14,6]"
"","","","","","html-button-response","144","1046007","0.0-17.0","83","1","2022-10-07 08:05:06","d60b49b5908c80e163b920d72b52d584","111.33.203.254","Mozilla/5.0 (Macintosh; Intel Mac OS X 10_15_5) AppleWebKit/537.36 (KHTML, like Gecko) Chrome/105.0.0.0 Safari/537.36","Macintosh","Chrome","105.0.0.0","OS X","10_15_5","2066","<p><strong>请判断你在多大程度上同意下列陈述。</strong></p>","0",""
"","","","","","survey-likert","145","1174127","0.0-18.0","83","1","2022-10-07 08:05:06","d60b49b5908c80e163b920d72b52d584","111.33.203.254","Mozilla/5.0 (Macintosh; Intel Mac OS X 10_15_5) AppleWebKit/537.36 (KHTML, like Gecko) Chrome/105.0.0.0 Safari/537.36","Macintosh","Chrome","105.0.0.0","OS X","10_15_5","128109","","{""caring1"":3,""liking1"":1,""caring2"":4,""protection1"":3,""liking2"":0,""caring3"":3,""protection2"":1,""liking3"":2,""protection3"":3,""caring4"":3,""liking4"":1,""protection4"":2,""caring5"":2,""liking5"":0,""protection5"":3}","[0,1,2,3,4,5,6,7,8,9,10,11,12,13,14]"
"","","","","","html-button-response","146","1176081","0.0-19.0","83","1","2022-10-07 08:05:06","d60b49b5908c80e163b920d72b52d584","111.33.203.254","Mozilla/5.0 (Macintosh; Intel Mac OS X 10_15_5) AppleWebKit/537.36 (KHTML, like Gecko) Chrome/105.0.0.0 Safari/537.36","Macintosh","Chrome","105.0.0.0","OS X","10_15_5","1944","<p><strong>请判断下列场景中你的内心感受有多柔软。</strong></p>","0",""
"","","","","","survey-likert","147","1214330","0.0-20.0","83","1","2022-10-07 08:05:06","d60b49b5908c80e163b920d72b52d584","111.33.203.254","Mozilla/5.0 (Macintosh; Intel Mac OS X 10_15_5) AppleWebKit/537.36 (KHTML, like Gecko) Chrome/105.0.0.0 Safari/537.36","Macintosh","Chrome","105.0.0.0","OS X","10_15_5","38239","","{""tenderness-positive1"":4,""tenderness-negative1"":2,""tenderness-negative2"":1,""tenderness-positive2"":3,""tenderness-positive3"":4,""tenderness-negative3"":3,""tenderness-positive4"":4,""tendereness-negative4"":1,""tendernness-negative5"":1,""tenderness-positive5"":3}","[0,1,2,3,4,5,6,7,8,9]"
"","","","","","survey-multi-choice","148","1227955","0.0-21.0","83","1","2022-10-07 08:05:06","d60b49b5908c80e163b920d72b52d584","111.33.203.254","Mozilla/5.0 (Macintosh; Intel Mac OS X 10_15_5) AppleWebKit/537.36 (KHTML, like Gecko) Chrome/105.0.0.0 Safari/537.36","Macintosh","Chrome","105.0.0.0","OS X","10_15_5","13616","","{""Attention2"":""其他""}","[0]"
"","","","","","html-button-response","149","1229507","0.0-22.0","83","1","2022-10-07 08:05:06","d60b49b5908c80e163b920d72b52d584","111.33.203.254","Mozilla/5.0 (Macintosh; Intel Mac OS X 10_15_5) AppleWebKit/537.36 (KHTML, like Gecko) Chrome/105.0.0.0 Safari/537.36","Macintosh","Chrome","105.0.0.0","OS X","10_15_5","1544","<p><strong>请判断你在多大程度上同意下列陈述。</strong></p>","0",""
"","","","","","survey-likert","150","1327271","0.0-23.0","83","1","2022-10-07 08:05:06","d60b49b5908c80e163b920d72b52d584","111.33.203.254","Mozilla/5.0 (Macintosh; Intel Mac OS X 10_15_5) AppleWebKit/537.36 (KHTML, like Gecko) Chrome/105.0.0.0 Safari/537.36","Macintosh","Chrome","105.0.0.0","OS X","10_15_5","97753","","{""Nation8"":3,""Nation2"":4,""Patri6"":0,""Nation7"":4,""Patri11"":0,""Patri9"":1,""Patri4"":4,""Patri2"":4,""Patri1"":4,""Nation5"":1,""Patri7"":4,""Patri3"":3,""Patri5"":4,""Patri8"":4,""Nation4"":1,""Patri10"":0,""Patri12"":1,""Nation1"":2,""Nation3"":3,""Nation6"":3}","[19,13,5,18,10,8,3,1,0,16,6,2,4,7,15,9,11,12,14,17]"
"","","","","","html-button-response","151","1338975","0.0-24.0","83","1","2022-10-07 08:05:06","d60b49b5908c80e163b920d72b52d584","111.33.203.254","Mozilla/5.0 (Macintosh; Intel Mac OS X 10_15_5) AppleWebKit/537.36 (KHTML, like Gecko) Chrome/105.0.0.0 Safari/537.36","Macintosh","Chrome","105.0.0.0","OS X","10_15_5","11696","<p><strong>请判断你在多大程度上同意下列陈述。</strong></p>","0",""
"","","","","","survey-likert","152","1410143","0.0-25.0","83","1","2022-10-07 08:05:06","d60b49b5908c80e163b920d72b52d584","111.33.203.254","Mozilla/5.0 (Macintosh; Intel Mac OS X 10_15_5) AppleWebKit/537.36 (KHTML, like Gecko) Chrome/105.0.0.0 Safari/537.36","Macintosh","Chrome","105.0.0.0","OS X","10_15_5","71156","","{""hc2"":7,""hi1"":7,""vi1"":6,""vi2"":2,""vi4"":4,""vc4"":6,""hc1"":7,""hi4"":8,""hi2"":6,""hc3"":6,""vc3"":7,""vc2"":7,""Robot"":6,""hi3"":1,""vc1"":8,""vi3"":8,""hc4"":6}","[10,0,4,5,8,16,9,3,1,11,15,14,7,2,13,6,12]"
"","","","","","survey-text","153","1418222","0.0-26.0","83","1","2022-10-07 08:05:06","d60b49b5908c80e163b920d72b52d584","111.33.203.254","Mozilla/5.0 (Macintosh; Intel Mac OS X 10_15_5) AppleWebKit/537.36 (KHTML, like Gecko) Chrome/105.0.0.0 Safari/537.36","Macintosh","Chrome","105.0.0.0","OS X","10_15_5","8041","","{""Comments"":""没有了""}",""
"","","","","","html-button-response","154","1420611","0.0-27.0","83","1","2022-10-07 08:05:06","d60b49b5908c80e163b920d72b52d584","111.33.203.254","Mozilla/5.0 (Macintosh; Intel Mac OS X 10_15_5) AppleWebKit/537.36 (KHTML, like Gecko) Chrome/105.0.0.0 Safari/537.36","Macintosh","Chrome","105.0.0.0","OS X","10_15_5","2382","<strong><p>恭喜你完成了实验！</p><p>感谢您的参与。</p></strong>","0",""
