"success","timeout","failed_images","failed_audio","failed_video","trial_type","trial_index","time_elapsed","internal_node_id","run_id","condition","recorded_at","source_code_version","ip","user_agent","device","browser","browser_version","platform","platform_version","rt","stimulus","response","question_order"
"true","false","[]","[]","[]","preload","0","67","0.0-0.0","84","1","2022-10-07 08:09:15","d60b49b5908c80e163b920d72b52d584","106.224.213.48","Mozilla/5.0 (Windows NT 10.0; WOW64) AppleWebKit/537.36 (KHTML, like Gecko) Chrome/84.0.4147.89 Safari/537.36 SLBrowser/7.0.0.12151 SLBChan/103","WebKit","Chrome","84.0.4147.89","Windows","10.0","","","",""
"true","","","","","fullscreen","1","2665","0.0-1.0","84","1","2022-10-07 08:09:15","d60b49b5908c80e163b920d72b52d584","106.224.213.48","Mozilla/5.0 (Windows NT 10.0; WOW64) AppleWebKit/537.36 (KHTML, like Gecko) Chrome/84.0.4147.89 Safari/537.36 SLBrowser/7.0.0.12151 SLBChan/103","WebKit","Chrome","84.0.4147.89","Windows","10.0","","","",""
"","","","","","html-button-response","2","9738","0.0-2.0","84","1","2022-10-07 08:09:15","d60b49b5908c80e163b920d72b52d584","106.224.213.48","Mozilla/5.0 (Windows NT 10.0; WOW64) AppleWebKit/537.36 (KHTML, like Gecko) Chrome/84.0.4147.89 Safari/537.36 SLBrowser/7.0.0.12151 SLBChan/103","WebKit","Chrome","84.0.4147.89","Windows","10.0","7071","<p style=""font-size:20px;font-weight:bold;"">实验知情同意书</p><p style=""text-align:left;""><strong>实验名称：</strong>社会冲突研究</p><p style=""text-align:left;""><strong>主要研究者：</strong>韩晓春副教授（北京师范大学心理学部）</p><p style=""text-align:left;""><strong>联系方式：</strong>发送邮件至xiaochun.han@bnu.edu.cn</p><p style=""text-align:left;""><strong>研究目的：</strong>研究旨在了解人类面对群体冲突时的决策方式，以及相关的心理学特质。实验调查大约需要20分钟。</p><p style=""text-align:left;""><strong>实验流程：</strong>实验包含两部分。第一部分呈现一系列群体冲突场景，请你决定如何对这些冲突进行反应，大约需要10分钟完成。第二部分包含一系列人口统计学信息收集和心理学问卷，大约需要10分钟完成。</p><p style=""text-align:left;""><strong>参加及退出规则：</strong>参加本实验完全取决于您的个人意愿。在参与过程中，您可以随时退出，并且不用承担任何后果。</p><p style=""text-align:left;""><strong>隐私：</strong>本实验完全匿名进行，不会收集您的姓名或其他能够识别您身份的信息。实验中收集的作答仅用作科学研究使用，可能会在学术期刊/书籍上发表，或者用于教学，您的数据未来可能会和其他研究者或实验室分享，但您的个人身份不会被识别。</p><p style=""text-align:left;""><strong>实验报酬：</strong>实验完成后，您将获得15元人民币报酬，以感谢您的时间和努力。调查问卷中包含几道题目用以测验您作答时的认真度。只有完成全部实验，并且正确回答认真度测验的被试才能获得实验报酬。实验报酬将通过支付宝转账发放。</p><p style=""text-align:left;font-size:20px;""><strong>如果您同意以上实验知情同意书的内容，请点击'同意并且开始实验'按钮；否则请关闭浏览器界面，退出实验。</strong></p>","0",""
"","","","","","html-button-response","3","13129","0.0-3.0","84","1","2022-10-07 08:09:15","d60b49b5908c80e163b920d72b52d584","106.224.213.48","Mozilla/5.0 (Windows NT 10.0; WOW64) AppleWebKit/537.36 (KHTML, like Gecko) Chrome/84.0.4147.89 Safari/537.36 SLBrowser/7.0.0.12151 SLBChan/103","WebKit","Chrome","84.0.4147.89","Windows","10.0","3389","<p ><strong>实验任务一：</strong></p><p>请想象你的国家与另一个国家发生了军事冲突。</p><p>你是国家军队的指挥官，你将如何在冲突中进行决策。</p><p>具体来说，作为军队指挥官，请你决定是否发射导弹进行打击。</p><p>接下来，你会面对一系列场景，请仔细阅读每个场景，然后进行决策。</p><p>这部分实验任务大约需要10分钟。</p><p><strong>实验过程中，请集中注意力。</strong></p>","0",""
"","","","","","html-keyboard-response","4","14136","0.0-4.0-0.0","84","1","2022-10-07 08:09:15","d60b49b5908c80e163b920d72b52d584","106.224.213.48","Mozilla/5.0 (Windows NT 10.0; WOW64) AppleWebKit/537.36 (KHTML, like Gecko) Chrome/84.0.4147.89 Safari/537.36 SLBrowser/7.0.0.12151 SLBChan/103","WebKit","Chrome","84.0.4147.89","Windows","10.0","null","<div style=""font-size:60px;"">+</div>","null",""
"","","","","","html-button-response","5","15641","0.0-4.0-1.0","84","1","2022-10-07 08:09:15","d60b49b5908c80e163b920d72b52d584","106.224.213.48","Mozilla/5.0 (Windows NT 10.0; WOW64) AppleWebKit/537.36 (KHTML, like Gecko) Chrome/84.0.4147.89 Safari/537.36 SLBrowser/7.0.0.12151 SLBChan/103","WebKit","Chrome","84.0.4147.89","Windows","10.0","1501","<p>作为军队的指挥官，你可以选择发射导弹杀死 <strong>8名</strong> 敌国士兵，但会炸毁附近的 <strong>1棵</strong> 敌国树木。</p> <p>树木的照片如下图所示。</p> <p></p> <img src='stimuli/trees/10.png', style='max-width: 30%;'> </img> <p><strong>你是否选择发射武器？</strong></p>","0",""
"","","","","","html-keyboard-response","6","16643","0.0-4.0-0.1","84","1","2022-10-07 08:09:15","d60b49b5908c80e163b920d72b52d584","106.224.213.48","Mozilla/5.0 (Windows NT 10.0; WOW64) AppleWebKit/537.36 (KHTML, like Gecko) Chrome/84.0.4147.89 Safari/537.36 SLBrowser/7.0.0.12151 SLBChan/103","WebKit","Chrome","84.0.4147.89","Windows","10.0","null","<div style=""font-size:60px;"">+</div>","null",""
"","","","","","html-button-response","7","18217","0.0-4.0-1.1","84","1","2022-10-07 08:09:15","d60b49b5908c80e163b920d72b52d584","106.224.213.48","Mozilla/5.0 (Windows NT 10.0; WOW64) AppleWebKit/537.36 (KHTML, like Gecko) Chrome/84.0.4147.89 Safari/537.36 SLBrowser/7.0.0.12151 SLBChan/103","WebKit","Chrome","84.0.4147.89","Windows","10.0","1573","<p>作为军队的指挥官，你可以选择发射导弹杀死 <strong>10名</strong> 敌国士兵，但会误杀附近的 <strong>1名</strong> 敌国平民。</p> <p>平民照片如下图所示。</p> <p></p> <img src='stimuli/faces/NCM1.jpg', style='max-width: 30%;'> </img> <p><strong>你是否选择发射武器？</strong></p>","0",""
"","","","","","html-keyboard-response","8","19219","0.0-4.0-0.2","84","1","2022-10-07 08:09:15","d60b49b5908c80e163b920d72b52d584","106.224.213.48","Mozilla/5.0 (Windows NT 10.0; WOW64) AppleWebKit/537.36 (KHTML, like Gecko) Chrome/84.0.4147.89 Safari/537.36 SLBrowser/7.0.0.12151 SLBChan/103","WebKit","Chrome","84.0.4147.89","Windows","10.0","null","<div style=""font-size:60px;"">+</div>","null",""
"","","","","","html-button-response","9","23241","0.0-4.0-1.2","84","1","2022-10-07 08:09:15","d60b49b5908c80e163b920d72b52d584","106.224.213.48","Mozilla/5.0 (Windows NT 10.0; WOW64) AppleWebKit/537.36 (KHTML, like Gecko) Chrome/84.0.4147.89 Safari/537.36 SLBrowser/7.0.0.12151 SLBChan/103","WebKit","Chrome","84.0.4147.89","Windows","10.0","4020","<p>作为军队的指挥官，你可以选择发射导弹杀死 <strong>4名</strong> 敌国士兵，但会误杀附近的 <strong>1名</strong> 敌国平民。</p> <p>平民照片如下图所示。</p> <p></p> <img src='stimuli/faces/NCF6.jpg', style='max-width: 30%;'> </img> <p><strong>你是否选择发射武器？</strong></p>","0",""
"","","","","","html-keyboard-response","10","24246","0.0-4.0-0.3","84","1","2022-10-07 08:09:15","d60b49b5908c80e163b920d72b52d584","106.224.213.48","Mozilla/5.0 (Windows NT 10.0; WOW64) AppleWebKit/537.36 (KHTML, like Gecko) Chrome/84.0.4147.89 Safari/537.36 SLBrowser/7.0.0.12151 SLBChan/103","WebKit","Chrome","84.0.4147.89","Windows","10.0","null","<div style=""font-size:60px;"">+</div>","null",""
"","","","","","html-button-response","11","27817","0.0-4.0-1.3","84","1","2022-10-07 08:09:15","d60b49b5908c80e163b920d72b52d584","106.224.213.48","Mozilla/5.0 (Windows NT 10.0; WOW64) AppleWebKit/537.36 (KHTML, like Gecko) Chrome/84.0.4147.89 Safari/537.36 SLBrowser/7.0.0.12151 SLBChan/103","WebKit","Chrome","84.0.4147.89","Windows","10.0","3568","<p>作为军队的指挥官，你可以选择发射导弹杀死 <strong>1名</strong> 敌国士兵，但会误杀附近的 <strong>1名</strong> 敌国平民。</p> <p>平民照片如下图所示。</p> <p></p> <img src='stimuli/faces/NCF4.jpg', style='max-width: 30%;'> </img> <p><strong>你是否选择发射武器？</strong></p>","1",""
"","","","","","html-keyboard-response","12","28818","0.0-4.0-0.4","84","1","2022-10-07 08:09:15","d60b49b5908c80e163b920d72b52d584","106.224.213.48","Mozilla/5.0 (Windows NT 10.0; WOW64) AppleWebKit/537.36 (KHTML, like Gecko) Chrome/84.0.4147.89 Safari/537.36 SLBrowser/7.0.0.12151 SLBChan/103","WebKit","Chrome","84.0.4147.89","Windows","10.0","null","<div style=""font-size:60px;"">+</div>","null",""
"","","","","","html-button-response","13","30185","0.0-4.0-1.4","84","1","2022-10-07 08:09:15","d60b49b5908c80e163b920d72b52d584","106.224.213.48","Mozilla/5.0 (Windows NT 10.0; WOW64) AppleWebKit/537.36 (KHTML, like Gecko) Chrome/84.0.4147.89 Safari/537.36 SLBrowser/7.0.0.12151 SLBChan/103","WebKit","Chrome","84.0.4147.89","Windows","10.0","1365","<p>作为军队的指挥官，你可以选择发射导弹杀死 <strong>5名</strong> 敌国士兵，但会炸毁附近的 <strong>1棵</strong> 敌国树木。</p> <p>树木的照片如下图所示。</p> <p></p> <img src='stimuli/trees/16.png', style='max-width: 30%;'> </img> <p><strong>你是否选择发射武器？</strong></p>","0",""
"","","","","","html-keyboard-response","14","31200","0.0-4.0-0.5","84","1","2022-10-07 08:09:15","d60b49b5908c80e163b920d72b52d584","106.224.213.48","Mozilla/5.0 (Windows NT 10.0; WOW64) AppleWebKit/537.36 (KHTML, like Gecko) Chrome/84.0.4147.89 Safari/537.36 SLBrowser/7.0.0.12151 SLBChan/103","WebKit","Chrome","84.0.4147.89","Windows","10.0","null","<div style=""font-size:60px;"">+</div>","null",""
"","","","","","html-button-response","15","34145","0.0-4.0-1.5","84","1","2022-10-07 08:09:15","d60b49b5908c80e163b920d72b52d584","106.224.213.48","Mozilla/5.0 (Windows NT 10.0; WOW64) AppleWebKit/537.36 (KHTML, like Gecko) Chrome/84.0.4147.89 Safari/537.36 SLBrowser/7.0.0.12151 SLBChan/103","WebKit","Chrome","84.0.4147.89","Windows","10.0","2944","<p>作为军队的指挥官，你可以选择发射导弹杀死 <strong>2名</strong> 敌国士兵，但会炸毁附近的 <strong>1棵</strong> 敌国树木。</p> <p>树木的照片如下图所示。</p> <p></p> <img src='stimuli/trees/15.png', style='max-width: 30%;'> </img> <p><strong>你是否选择发射武器？</strong></p>","1",""
"","","","","","html-keyboard-response","16","35153","0.0-4.0-0.6","84","1","2022-10-07 08:09:15","d60b49b5908c80e163b920d72b52d584","106.224.213.48","Mozilla/5.0 (Windows NT 10.0; WOW64) AppleWebKit/537.36 (KHTML, like Gecko) Chrome/84.0.4147.89 Safari/537.36 SLBrowser/7.0.0.12151 SLBChan/103","WebKit","Chrome","84.0.4147.89","Windows","10.0","null","<div style=""font-size:60px;"">+</div>","null",""
"","","","","","html-button-response","17","38193","0.0-4.0-1.6","84","1","2022-10-07 08:09:15","d60b49b5908c80e163b920d72b52d584","106.224.213.48","Mozilla/5.0 (Windows NT 10.0; WOW64) AppleWebKit/537.36 (KHTML, like Gecko) Chrome/84.0.4147.89 Safari/537.36 SLBrowser/7.0.0.12151 SLBChan/103","WebKit","Chrome","84.0.4147.89","Windows","10.0","3038","<p>作为军队的指挥官，你可以选择发射导弹杀死 <strong>8名</strong> 敌国士兵，但会炸毁附近的 <strong>1棵</strong> 敌国树木。</p> <p>树木的照片如下图所示。</p> <p></p> <img src='stimuli/trees/5.png', style='max-width: 30%;'> </img> <p><strong>你是否选择发射武器？</strong></p>","0",""
"","","","","","html-keyboard-response","18","39197","0.0-4.0-0.7","84","1","2022-10-07 08:09:15","d60b49b5908c80e163b920d72b52d584","106.224.213.48","Mozilla/5.0 (Windows NT 10.0; WOW64) AppleWebKit/537.36 (KHTML, like Gecko) Chrome/84.0.4147.89 Safari/537.36 SLBrowser/7.0.0.12151 SLBChan/103","WebKit","Chrome","84.0.4147.89","Windows","10.0","null","<div style=""font-size:60px;"">+</div>","null",""
"","","","","","html-button-response","19","40912","0.0-4.0-1.7","84","1","2022-10-07 08:09:15","d60b49b5908c80e163b920d72b52d584","106.224.213.48","Mozilla/5.0 (Windows NT 10.0; WOW64) AppleWebKit/537.36 (KHTML, like Gecko) Chrome/84.0.4147.89 Safari/537.36 SLBrowser/7.0.0.12151 SLBChan/103","WebKit","Chrome","84.0.4147.89","Windows","10.0","1713","<p>作为军队的指挥官，你可以选择发射导弹杀死 <strong>2名</strong> 敌国士兵，但会误杀附近的 <strong>1名</strong> 敌国平民。</p> <p>平民照片如下图所示。</p> <p></p> <img src='stimuli/faces/NCF5.jpg', style='max-width: 30%;'> </img> <p><strong>你是否选择发射武器？</strong></p>","1",""
"","","","","","html-keyboard-response","20","41913","0.0-4.0-0.8","84","1","2022-10-07 08:09:15","d60b49b5908c80e163b920d72b52d584","106.224.213.48","Mozilla/5.0 (Windows NT 10.0; WOW64) AppleWebKit/537.36 (KHTML, like Gecko) Chrome/84.0.4147.89 Safari/537.36 SLBrowser/7.0.0.12151 SLBChan/103","WebKit","Chrome","84.0.4147.89","Windows","10.0","null","<div style=""font-size:60px;"">+</div>","null",""
"","","","","","html-button-response","21","43425","0.0-4.0-1.8","84","1","2022-10-07 08:09:15","d60b49b5908c80e163b920d72b52d584","106.224.213.48","Mozilla/5.0 (Windows NT 10.0; WOW64) AppleWebKit/537.36 (KHTML, like Gecko) Chrome/84.0.4147.89 Safari/537.36 SLBrowser/7.0.0.12151 SLBChan/103","WebKit","Chrome","84.0.4147.89","Windows","10.0","1508","<p>作为军队的指挥官，你可以选择发射导弹杀死 <strong>6名</strong> 敌国士兵，但会炸毁附近的 <strong>1棵</strong> 敌国树木。</p> <p>树木的照片如下图所示。</p> <p></p> <img src='stimuli/trees/4.png', style='max-width: 30%;'> </img> <p><strong>你是否选择发射武器？</strong></p>","0",""
"","","","","","html-keyboard-response","22","44435","0.0-4.0-0.9","84","1","2022-10-07 08:09:15","d60b49b5908c80e163b920d72b52d584","106.224.213.48","Mozilla/5.0 (Windows NT 10.0; WOW64) AppleWebKit/537.36 (KHTML, like Gecko) Chrome/84.0.4147.89 Safari/537.36 SLBrowser/7.0.0.12151 SLBChan/103","WebKit","Chrome","84.0.4147.89","Windows","10.0","null","<div style=""font-size:60px;"">+</div>","null",""
"","","","","","html-button-response","23","51081","0.0-4.0-1.9","84","1","2022-10-07 08:09:15","d60b49b5908c80e163b920d72b52d584","106.224.213.48","Mozilla/5.0 (Windows NT 10.0; WOW64) AppleWebKit/537.36 (KHTML, like Gecko) Chrome/84.0.4147.89 Safari/537.36 SLBrowser/7.0.0.12151 SLBChan/103","WebKit","Chrome","84.0.4147.89","Windows","10.0","6643","<p>作为军队的指挥官，你可以选择发射导弹杀死 <strong>6名</strong> 敌国士兵，但会炸毁附近的 <strong>1棵</strong> 敌国树木。</p> <p>树木的照片如下图所示。</p> <p></p> <img src='stimuli/trees/15.png', style='max-width: 30%;'> </img> <p><strong>你是否选择发射武器？</strong></p>","0",""
"","","","","","html-keyboard-response","24","52095","0.0-4.0-0.10","84","1","2022-10-07 08:09:15","d60b49b5908c80e163b920d72b52d584","106.224.213.48","Mozilla/5.0 (Windows NT 10.0; WOW64) AppleWebKit/537.36 (KHTML, like Gecko) Chrome/84.0.4147.89 Safari/537.36 SLBrowser/7.0.0.12151 SLBChan/103","WebKit","Chrome","84.0.4147.89","Windows","10.0","null","<div style=""font-size:60px;"">+</div>","null",""
"","","","","","html-button-response","25","59801","0.0-4.0-1.10","84","1","2022-10-07 08:09:15","d60b49b5908c80e163b920d72b52d584","106.224.213.48","Mozilla/5.0 (Windows NT 10.0; WOW64) AppleWebKit/537.36 (KHTML, like Gecko) Chrome/84.0.4147.89 Safari/537.36 SLBrowser/7.0.0.12151 SLBChan/103","WebKit","Chrome","84.0.4147.89","Windows","10.0","7703","<p>作为军队的指挥官，你可以选择发射导弹杀死 <strong>9名</strong> 敌国士兵，但会炸毁附近的 <strong>1棵</strong> 敌国树木。</p> <p>树木的照片如下图所示。</p> <p></p> <img src='stimuli/trees/1.png', style='max-width: 30%;'> </img> <p><strong>你是否选择发射武器？</strong></p>","0",""
"","","","","","html-keyboard-response","26","60816","0.0-4.0-0.11","84","1","2022-10-07 08:09:15","d60b49b5908c80e163b920d72b52d584","106.224.213.48","Mozilla/5.0 (Windows NT 10.0; WOW64) AppleWebKit/537.36 (KHTML, like Gecko) Chrome/84.0.4147.89 Safari/537.36 SLBrowser/7.0.0.12151 SLBChan/103","WebKit","Chrome","84.0.4147.89","Windows","10.0","null","<div style=""font-size:60px;"">+</div>","null",""
"","","","","","html-button-response","27","61897","0.0-4.0-1.11","84","1","2022-10-07 08:09:15","d60b49b5908c80e163b920d72b52d584","106.224.213.48","Mozilla/5.0 (Windows NT 10.0; WOW64) AppleWebKit/537.36 (KHTML, like Gecko) Chrome/84.0.4147.89 Safari/537.36 SLBrowser/7.0.0.12151 SLBChan/103","WebKit","Chrome","84.0.4147.89","Windows","10.0","1079","<p>作为军队的指挥官，你可以选择发射导弹杀死 <strong>3名</strong> 敌国士兵，但会炸毁附近的 <strong>1棵</strong> 敌国树木。</p> <p>树木的照片如下图所示。</p> <p></p> <img src='stimuli/trees/9.png', style='max-width: 30%;'> </img> <p><strong>你是否选择发射武器？</strong></p>","1",""
"","","","","","html-keyboard-response","28","62900","0.0-4.0-0.12","84","1","2022-10-07 08:09:15","d60b49b5908c80e163b920d72b52d584","106.224.213.48","Mozilla/5.0 (Windows NT 10.0; WOW64) AppleWebKit/537.36 (KHTML, like Gecko) Chrome/84.0.4147.89 Safari/537.36 SLBrowser/7.0.0.12151 SLBChan/103","WebKit","Chrome","84.0.4147.89","Windows","10.0","null","<div style=""font-size:60px;"">+</div>","null",""
"","","","","","html-button-response","29","63929","0.0-4.0-1.12","84","1","2022-10-07 08:09:15","d60b49b5908c80e163b920d72b52d584","106.224.213.48","Mozilla/5.0 (Windows NT 10.0; WOW64) AppleWebKit/537.36 (KHTML, like Gecko) Chrome/84.0.4147.89 Safari/537.36 SLBrowser/7.0.0.12151 SLBChan/103","WebKit","Chrome","84.0.4147.89","Windows","10.0","1028","<p>作为军队的指挥官，你可以选择发射导弹杀死 <strong>4名</strong> 敌国士兵，但会炸毁附近的 <strong>1棵</strong> 敌国树木。</p> <p>树木的照片如下图所示。</p> <p></p> <img src='stimuli/trees/8.png', style='max-width: 30%;'> </img> <p><strong>你是否选择发射武器？</strong></p>","0",""
"","","","","","html-keyboard-response","30","64931","0.0-4.0-0.13","84","1","2022-10-07 08:09:15","d60b49b5908c80e163b920d72b52d584","106.224.213.48","Mozilla/5.0 (Windows NT 10.0; WOW64) AppleWebKit/537.36 (KHTML, like Gecko) Chrome/84.0.4147.89 Safari/537.36 SLBrowser/7.0.0.12151 SLBChan/103","WebKit","Chrome","84.0.4147.89","Windows","10.0","null","<div style=""font-size:60px;"">+</div>","null",""
"","","","","","html-button-response","31","67625","0.0-4.0-1.13","84","1","2022-10-07 08:09:15","d60b49b5908c80e163b920d72b52d584","106.224.213.48","Mozilla/5.0 (Windows NT 10.0; WOW64) AppleWebKit/537.36 (KHTML, like Gecko) Chrome/84.0.4147.89 Safari/537.36 SLBrowser/7.0.0.12151 SLBChan/103","WebKit","Chrome","84.0.4147.89","Windows","10.0","2690","<p>作为军队的指挥官，你可以选择发射导弹杀死 <strong>9名</strong> 敌国士兵，但会误杀附近的 <strong>1名</strong> 敌国平民。</p> <p>平民照片如下图所示。</p> <p></p> <img src='stimuli/faces/NCF1.jpg', style='max-width: 30%;'> </img> <p><strong>你是否选择发射武器？</strong></p>","0",""
"","","","","","html-keyboard-response","32","68639","0.0-4.0-0.14","84","1","2022-10-07 08:09:15","d60b49b5908c80e163b920d72b52d584","106.224.213.48","Mozilla/5.0 (Windows NT 10.0; WOW64) AppleWebKit/537.36 (KHTML, like Gecko) Chrome/84.0.4147.89 Safari/537.36 SLBrowser/7.0.0.12151 SLBChan/103","WebKit","Chrome","84.0.4147.89","Windows","10.0","null","<div style=""font-size:60px;"">+</div>","null",""
"","","","","","html-button-response","33","76665","0.0-4.0-1.14","84","1","2022-10-07 08:09:15","d60b49b5908c80e163b920d72b52d584","106.224.213.48","Mozilla/5.0 (Windows NT 10.0; WOW64) AppleWebKit/537.36 (KHTML, like Gecko) Chrome/84.0.4147.89 Safari/537.36 SLBrowser/7.0.0.12151 SLBChan/103","WebKit","Chrome","84.0.4147.89","Windows","10.0","8023","<p>作为军队的指挥官，你可以选择发射导弹杀死 <strong>8名</strong> 敌国士兵，但会误杀附近的 <strong>1名</strong> 敌国平民。</p> <p>平民照片如下图所示。</p> <p></p> <img src='stimuli/faces/NCM4.jpg', style='max-width: 30%;'> </img> <p><strong>你是否选择发射武器？</strong></p>","0",""
"","","","","","html-keyboard-response","34","77676","0.0-4.0-0.15","84","1","2022-10-07 08:09:15","d60b49b5908c80e163b920d72b52d584","106.224.213.48","Mozilla/5.0 (Windows NT 10.0; WOW64) AppleWebKit/537.36 (KHTML, like Gecko) Chrome/84.0.4147.89 Safari/537.36 SLBrowser/7.0.0.12151 SLBChan/103","WebKit","Chrome","84.0.4147.89","Windows","10.0","null","<div style=""font-size:60px;"">+</div>","null",""
"","","","","","html-button-response","35","79322","0.0-4.0-1.15","84","1","2022-10-07 08:09:15","d60b49b5908c80e163b920d72b52d584","106.224.213.48","Mozilla/5.0 (Windows NT 10.0; WOW64) AppleWebKit/537.36 (KHTML, like Gecko) Chrome/84.0.4147.89 Safari/537.36 SLBrowser/7.0.0.12151 SLBChan/103","WebKit","Chrome","84.0.4147.89","Windows","10.0","1644","<p>作为军队的指挥官，你可以选择发射导弹杀死 <strong>7名</strong> 敌国士兵，但会误杀附近的 <strong>1名</strong> 敌国平民。</p> <p>平民照片如下图所示。</p> <p></p> <img src='stimuli/faces/NCM6.jpg', style='max-width: 30%;'> </img> <p><strong>你是否选择发射武器？</strong></p>","0",""
"","","","","","html-keyboard-response","36","80326","0.0-4.0-0.16","84","1","2022-10-07 08:09:15","d60b49b5908c80e163b920d72b52d584","106.224.213.48","Mozilla/5.0 (Windows NT 10.0; WOW64) AppleWebKit/537.36 (KHTML, like Gecko) Chrome/84.0.4147.89 Safari/537.36 SLBrowser/7.0.0.12151 SLBChan/103","WebKit","Chrome","84.0.4147.89","Windows","10.0","null","<div style=""font-size:60px;"">+</div>","null",""
"","","","","","html-button-response","37","87409","0.0-4.0-1.16","84","1","2022-10-07 08:09:15","d60b49b5908c80e163b920d72b52d584","106.224.213.48","Mozilla/5.0 (Windows NT 10.0; WOW64) AppleWebKit/537.36 (KHTML, like Gecko) Chrome/84.0.4147.89 Safari/537.36 SLBrowser/7.0.0.12151 SLBChan/103","WebKit","Chrome","84.0.4147.89","Windows","10.0","7081","<p>作为军队的指挥官，你可以选择发射导弹杀死 <strong>1名</strong> 敌国士兵，但会炸毁附近的 <strong>1棵</strong> 敌国树木。</p> <p>树木的照片如下图所示。</p> <p></p> <img src='stimuli/trees/13.png', style='max-width: 30%;'> </img> <p><strong>你是否选择发射武器？</strong></p>","1",""
"","","","","","html-keyboard-response","38","88427","0.0-4.0-0.17","84","1","2022-10-07 08:09:15","d60b49b5908c80e163b920d72b52d584","106.224.213.48","Mozilla/5.0 (Windows NT 10.0; WOW64) AppleWebKit/537.36 (KHTML, like Gecko) Chrome/84.0.4147.89 Safari/537.36 SLBrowser/7.0.0.12151 SLBChan/103","WebKit","Chrome","84.0.4147.89","Windows","10.0","null","<div style=""font-size:60px;"">+</div>","null",""
"","","","","","html-button-response","39","94323","0.0-4.0-1.17","84","1","2022-10-07 08:09:15","d60b49b5908c80e163b920d72b52d584","106.224.213.48","Mozilla/5.0 (Windows NT 10.0; WOW64) AppleWebKit/537.36 (KHTML, like Gecko) Chrome/84.0.4147.89 Safari/537.36 SLBrowser/7.0.0.12151 SLBChan/103","WebKit","Chrome","84.0.4147.89","Windows","10.0","5893","<p>作为军队的指挥官，你可以选择发射导弹杀死 <strong>9名</strong> 敌国士兵，但会炸毁附近的 <strong>1棵</strong> 敌国树木。</p> <p>树木的照片如下图所示。</p> <p></p> <img src='stimuli/trees/16.png', style='max-width: 30%;'> </img> <p><strong>你是否选择发射武器？</strong></p>","0",""
"","","","","","html-keyboard-response","40","95338","0.0-4.0-0.18","84","1","2022-10-07 08:09:15","d60b49b5908c80e163b920d72b52d584","106.224.213.48","Mozilla/5.0 (Windows NT 10.0; WOW64) AppleWebKit/537.36 (KHTML, like Gecko) Chrome/84.0.4147.89 Safari/537.36 SLBrowser/7.0.0.12151 SLBChan/103","WebKit","Chrome","84.0.4147.89","Windows","10.0","null","<div style=""font-size:60px;"">+</div>","null",""
"","","","","","html-button-response","41","98193","0.0-4.0-1.18","84","1","2022-10-07 08:09:15","d60b49b5908c80e163b920d72b52d584","106.224.213.48","Mozilla/5.0 (Windows NT 10.0; WOW64) AppleWebKit/537.36 (KHTML, like Gecko) Chrome/84.0.4147.89 Safari/537.36 SLBrowser/7.0.0.12151 SLBChan/103","WebKit","Chrome","84.0.4147.89","Windows","10.0","2852","<p>作为军队的指挥官，你可以选择发射导弹杀死 <strong>1名</strong> 敌国士兵，但会误杀附近的 <strong>1名</strong> 敌国平民。</p> <p>平民照片如下图所示。</p> <p></p> <img src='stimuli/faces/NCF3.jpg', style='max-width: 30%;'> </img> <p><strong>你是否选择发射武器？</strong></p>","1",""
"","","","","","html-keyboard-response","42","99197","0.0-4.0-0.19","84","1","2022-10-07 08:09:15","d60b49b5908c80e163b920d72b52d584","106.224.213.48","Mozilla/5.0 (Windows NT 10.0; WOW64) AppleWebKit/537.36 (KHTML, like Gecko) Chrome/84.0.4147.89 Safari/537.36 SLBrowser/7.0.0.12151 SLBChan/103","WebKit","Chrome","84.0.4147.89","Windows","10.0","null","<div style=""font-size:60px;"">+</div>","null",""
"","","","","","html-button-response","43","105953","0.0-4.0-1.19","84","1","2022-10-07 08:09:15","d60b49b5908c80e163b920d72b52d584","106.224.213.48","Mozilla/5.0 (Windows NT 10.0; WOW64) AppleWebKit/537.36 (KHTML, like Gecko) Chrome/84.0.4147.89 Safari/537.36 SLBrowser/7.0.0.12151 SLBChan/103","WebKit","Chrome","84.0.4147.89","Windows","10.0","6752","<p>作为军队的指挥官，你可以选择发射导弹杀死 <strong>4名</strong> 敌国士兵，但会误杀附近的 <strong>1名</strong> 敌国平民。</p> <p>平民照片如下图所示。</p> <p></p> <img src='stimuli/faces/NCM3.jpg', style='max-width: 30%;'> </img> <p><strong>你是否选择发射武器？</strong></p>","0",""
"","","","","","html-keyboard-response","44","106955","0.0-4.0-0.20","84","1","2022-10-07 08:09:15","d60b49b5908c80e163b920d72b52d584","106.224.213.48","Mozilla/5.0 (Windows NT 10.0; WOW64) AppleWebKit/537.36 (KHTML, like Gecko) Chrome/84.0.4147.89 Safari/537.36 SLBrowser/7.0.0.12151 SLBChan/103","WebKit","Chrome","84.0.4147.89","Windows","10.0","null","<div style=""font-size:60px;"">+</div>","null",""
"","","","","","html-button-response","45","108305","0.0-4.0-1.20","84","1","2022-10-07 08:09:15","d60b49b5908c80e163b920d72b52d584","106.224.213.48","Mozilla/5.0 (Windows NT 10.0; WOW64) AppleWebKit/537.36 (KHTML, like Gecko) Chrome/84.0.4147.89 Safari/537.36 SLBrowser/7.0.0.12151 SLBChan/103","WebKit","Chrome","84.0.4147.89","Windows","10.0","1348","<p>作为军队的指挥官，你可以选择发射导弹杀死 <strong>8名</strong> 敌国士兵，但会误杀附近的 <strong>1名</strong> 敌国平民。</p> <p>平民照片如下图所示。</p> <p></p> <img src='stimuli/faces/NCF8.jpg', style='max-width: 30%;'> </img> <p><strong>你是否选择发射武器？</strong></p>","0",""
"","","","","","html-keyboard-response","46","109312","0.0-4.0-0.21","84","1","2022-10-07 08:09:15","d60b49b5908c80e163b920d72b52d584","106.224.213.48","Mozilla/5.0 (Windows NT 10.0; WOW64) AppleWebKit/537.36 (KHTML, like Gecko) Chrome/84.0.4147.89 Safari/537.36 SLBrowser/7.0.0.12151 SLBChan/103","WebKit","Chrome","84.0.4147.89","Windows","10.0","null","<div style=""font-size:60px;"">+</div>","null",""
"","","","","","html-button-response","47","110897","0.0-4.0-1.21","84","1","2022-10-07 08:09:15","d60b49b5908c80e163b920d72b52d584","106.224.213.48","Mozilla/5.0 (Windows NT 10.0; WOW64) AppleWebKit/537.36 (KHTML, like Gecko) Chrome/84.0.4147.89 Safari/537.36 SLBrowser/7.0.0.12151 SLBChan/103","WebKit","Chrome","84.0.4147.89","Windows","10.0","1581","<p>作为军队的指挥官，你可以选择发射导弹杀死 <strong>8名</strong> 敌国士兵，但会炸毁附近的 <strong>1棵</strong> 敌国树木。</p> <p>树木的照片如下图所示。</p> <p></p> <img src='stimuli/trees/9.png', style='max-width: 30%;'> </img> <p><strong>你是否选择发射武器？</strong></p>","0",""
"","","","","","html-keyboard-response","48","111900","0.0-4.0-0.22","84","1","2022-10-07 08:09:15","d60b49b5908c80e163b920d72b52d584","106.224.213.48","Mozilla/5.0 (Windows NT 10.0; WOW64) AppleWebKit/537.36 (KHTML, like Gecko) Chrome/84.0.4147.89 Safari/537.36 SLBrowser/7.0.0.12151 SLBChan/103","WebKit","Chrome","84.0.4147.89","Windows","10.0","null","<div style=""font-size:60px;"">+</div>","null",""
"","","","","","html-button-response","49","117553","0.0-4.0-1.22","84","1","2022-10-07 08:09:15","d60b49b5908c80e163b920d72b52d584","106.224.213.48","Mozilla/5.0 (Windows NT 10.0; WOW64) AppleWebKit/537.36 (KHTML, like Gecko) Chrome/84.0.4147.89 Safari/537.36 SLBrowser/7.0.0.12151 SLBChan/103","WebKit","Chrome","84.0.4147.89","Windows","10.0","5650","<p>作为军队的指挥官，你可以选择发射导弹杀死 <strong>7名</strong> 敌国士兵，但会误杀附近的 <strong>1名</strong> 敌国平民。</p> <p>平民照片如下图所示。</p> <p></p> <img src='stimuli/faces/NCF4.jpg', style='max-width: 30%;'> </img> <p><strong>你是否选择发射武器？</strong></p>","0",""
"","","","","","html-keyboard-response","50","118554","0.0-4.0-0.23","84","1","2022-10-07 08:09:15","d60b49b5908c80e163b920d72b52d584","106.224.213.48","Mozilla/5.0 (Windows NT 10.0; WOW64) AppleWebKit/537.36 (KHTML, like Gecko) Chrome/84.0.4147.89 Safari/537.36 SLBrowser/7.0.0.12151 SLBChan/103","WebKit","Chrome","84.0.4147.89","Windows","10.0","null","<div style=""font-size:60px;"">+</div>","null",""
"","","","","","html-button-response","51","120256","0.0-4.0-1.23","84","1","2022-10-07 08:09:15","d60b49b5908c80e163b920d72b52d584","106.224.213.48","Mozilla/5.0 (Windows NT 10.0; WOW64) AppleWebKit/537.36 (KHTML, like Gecko) Chrome/84.0.4147.89 Safari/537.36 SLBrowser/7.0.0.12151 SLBChan/103","WebKit","Chrome","84.0.4147.89","Windows","10.0","1700","<p>作为军队的指挥官，你可以选择发射导弹杀死 <strong>7名</strong> 敌国士兵，但会炸毁附近的 <strong>1棵</strong> 敌国树木。</p> <p>树木的照片如下图所示。</p> <p></p> <img src='stimuli/trees/2.png', style='max-width: 30%;'> </img> <p><strong>你是否选择发射武器？</strong></p>","0",""
"","","","","","html-keyboard-response","52","121269","0.0-4.0-0.24","84","1","2022-10-07 08:09:15","d60b49b5908c80e163b920d72b52d584","106.224.213.48","Mozilla/5.0 (Windows NT 10.0; WOW64) AppleWebKit/537.36 (KHTML, like Gecko) Chrome/84.0.4147.89 Safari/537.36 SLBrowser/7.0.0.12151 SLBChan/103","WebKit","Chrome","84.0.4147.89","Windows","10.0","null","<div style=""font-size:60px;"">+</div>","null",""
"","","","","","html-button-response","53","123352","0.0-4.0-1.24","84","1","2022-10-07 08:09:15","d60b49b5908c80e163b920d72b52d584","106.224.213.48","Mozilla/5.0 (Windows NT 10.0; WOW64) AppleWebKit/537.36 (KHTML, like Gecko) Chrome/84.0.4147.89 Safari/537.36 SLBrowser/7.0.0.12151 SLBChan/103","WebKit","Chrome","84.0.4147.89","Windows","10.0","2080","<p>作为军队的指挥官，你可以选择发射导弹杀死 <strong>4名</strong> 敌国士兵，但会误杀附近的 <strong>1名</strong> 敌国平民。</p> <p>平民照片如下图所示。</p> <p></p> <img src='stimuli/faces/NCM7.jpg', style='max-width: 30%;'> </img> <p><strong>你是否选择发射武器？</strong></p>","0",""
"","","","","","html-keyboard-response","54","124362","0.0-4.0-0.25","84","1","2022-10-07 08:09:15","d60b49b5908c80e163b920d72b52d584","106.224.213.48","Mozilla/5.0 (Windows NT 10.0; WOW64) AppleWebKit/537.36 (KHTML, like Gecko) Chrome/84.0.4147.89 Safari/537.36 SLBrowser/7.0.0.12151 SLBChan/103","WebKit","Chrome","84.0.4147.89","Windows","10.0","null","<div style=""font-size:60px;"">+</div>","null",""
"","","","","","html-button-response","55","125489","0.0-4.0-1.25","84","1","2022-10-07 08:09:15","d60b49b5908c80e163b920d72b52d584","106.224.213.48","Mozilla/5.0 (Windows NT 10.0; WOW64) AppleWebKit/537.36 (KHTML, like Gecko) Chrome/84.0.4147.89 Safari/537.36 SLBrowser/7.0.0.12151 SLBChan/103","WebKit","Chrome","84.0.4147.89","Windows","10.0","1124","<p>作为军队的指挥官，你可以选择发射导弹杀死 <strong>5名</strong> 敌国士兵，但会炸毁附近的 <strong>1棵</strong> 敌国树木。</p> <p>树木的照片如下图所示。</p> <p></p> <img src='stimuli/trees/5.png', style='max-width: 30%;'> </img> <p><strong>你是否选择发射武器？</strong></p>","0",""
"","","","","","html-keyboard-response","56","126493","0.0-4.0-0.26","84","1","2022-10-07 08:09:15","d60b49b5908c80e163b920d72b52d584","106.224.213.48","Mozilla/5.0 (Windows NT 10.0; WOW64) AppleWebKit/537.36 (KHTML, like Gecko) Chrome/84.0.4147.89 Safari/537.36 SLBrowser/7.0.0.12151 SLBChan/103","WebKit","Chrome","84.0.4147.89","Windows","10.0","null","<div style=""font-size:60px;"">+</div>","null",""
"","","","","","html-button-response","57","128953","0.0-4.0-1.26","84","1","2022-10-07 08:09:15","d60b49b5908c80e163b920d72b52d584","106.224.213.48","Mozilla/5.0 (Windows NT 10.0; WOW64) AppleWebKit/537.36 (KHTML, like Gecko) Chrome/84.0.4147.89 Safari/537.36 SLBrowser/7.0.0.12151 SLBChan/103","WebKit","Chrome","84.0.4147.89","Windows","10.0","2458","<p>作为军队的指挥官，你可以选择发射导弹杀死 <strong>8名</strong> 敌国士兵，但会误杀附近的 <strong>1名</strong> 敌国平民。</p> <p>平民照片如下图所示。</p> <p></p> <img src='stimuli/faces/NCM2.jpg', style='max-width: 30%;'> </img> <p><strong>你是否选择发射武器？</strong></p>","0",""
"","","","","","html-keyboard-response","58","129955","0.0-4.0-0.27","84","1","2022-10-07 08:09:15","d60b49b5908c80e163b920d72b52d584","106.224.213.48","Mozilla/5.0 (Windows NT 10.0; WOW64) AppleWebKit/537.36 (KHTML, like Gecko) Chrome/84.0.4147.89 Safari/537.36 SLBrowser/7.0.0.12151 SLBChan/103","WebKit","Chrome","84.0.4147.89","Windows","10.0","null","<div style=""font-size:60px;"">+</div>","null",""
"","","","","","html-button-response","59","131089","0.0-4.0-1.27","84","1","2022-10-07 08:09:15","d60b49b5908c80e163b920d72b52d584","106.224.213.48","Mozilla/5.0 (Windows NT 10.0; WOW64) AppleWebKit/537.36 (KHTML, like Gecko) Chrome/84.0.4147.89 Safari/537.36 SLBrowser/7.0.0.12151 SLBChan/103","WebKit","Chrome","84.0.4147.89","Windows","10.0","1132","<p>作为军队的指挥官，你可以选择发射导弹杀死 <strong>1名</strong> 敌国士兵，但会误杀附近的 <strong>1名</strong> 敌国平民。</p> <p>平民照片如下图所示。</p> <p></p> <img src='stimuli/faces/NCF7.jpg', style='max-width: 30%;'> </img> <p><strong>你是否选择发射武器？</strong></p>","1",""
"","","","","","html-keyboard-response","60","132094","0.0-4.0-0.28","84","1","2022-10-07 08:09:15","d60b49b5908c80e163b920d72b52d584","106.224.213.48","Mozilla/5.0 (Windows NT 10.0; WOW64) AppleWebKit/537.36 (KHTML, like Gecko) Chrome/84.0.4147.89 Safari/537.36 SLBrowser/7.0.0.12151 SLBChan/103","WebKit","Chrome","84.0.4147.89","Windows","10.0","null","<div style=""font-size:60px;"">+</div>","null",""
"","","","","","html-button-response","61","145506","0.0-4.0-1.28","84","1","2022-10-07 08:09:15","d60b49b5908c80e163b920d72b52d584","106.224.213.48","Mozilla/5.0 (Windows NT 10.0; WOW64) AppleWebKit/537.36 (KHTML, like Gecko) Chrome/84.0.4147.89 Safari/537.36 SLBrowser/7.0.0.12151 SLBChan/103","WebKit","Chrome","84.0.4147.89","Windows","10.0","13408","<p>作为军队的指挥官，你可以选择发射导弹杀死 <strong>9名</strong> 敌国士兵，但会炸毁附近的 <strong>1棵</strong> 敌国树木。</p> <p>树木的照片如下图所示。</p> <p></p> <img src='stimuli/trees/13.png', style='max-width: 30%;'> </img> <p><strong>你是否选择发射武器？</strong></p>","0",""
"","","","","","html-keyboard-response","62","146528","0.0-4.0-0.29","84","1","2022-10-07 08:09:15","d60b49b5908c80e163b920d72b52d584","106.224.213.48","Mozilla/5.0 (Windows NT 10.0; WOW64) AppleWebKit/537.36 (KHTML, like Gecko) Chrome/84.0.4147.89 Safari/537.36 SLBrowser/7.0.0.12151 SLBChan/103","WebKit","Chrome","84.0.4147.89","Windows","10.0","null","<div style=""font-size:60px;"">+</div>","null",""
"","","","","","html-button-response","63","155945","0.0-4.0-1.29","84","1","2022-10-07 08:09:15","d60b49b5908c80e163b920d72b52d584","106.224.213.48","Mozilla/5.0 (Windows NT 10.0; WOW64) AppleWebKit/537.36 (KHTML, like Gecko) Chrome/84.0.4147.89 Safari/537.36 SLBrowser/7.0.0.12151 SLBChan/103","WebKit","Chrome","84.0.4147.89","Windows","10.0","9413","<p>作为军队的指挥官，你可以选择发射导弹杀死 <strong>6名</strong> 敌国士兵，但会误杀附近的 <strong>1名</strong> 敌国平民。</p> <p>平民照片如下图所示。</p> <p></p> <img src='stimuli/faces/NCF6.jpg', style='max-width: 30%;'> </img> <p><strong>你是否选择发射武器？</strong></p>","0",""
"","","","","","html-keyboard-response","64","156947","0.0-4.0-0.30","84","1","2022-10-07 08:09:15","d60b49b5908c80e163b920d72b52d584","106.224.213.48","Mozilla/5.0 (Windows NT 10.0; WOW64) AppleWebKit/537.36 (KHTML, like Gecko) Chrome/84.0.4147.89 Safari/537.36 SLBrowser/7.0.0.12151 SLBChan/103","WebKit","Chrome","84.0.4147.89","Windows","10.0","null","<div style=""font-size:60px;"">+</div>","null",""
"","","","","","html-button-response","65","158809","0.0-4.0-1.30","84","1","2022-10-07 08:09:15","d60b49b5908c80e163b920d72b52d584","106.224.213.48","Mozilla/5.0 (Windows NT 10.0; WOW64) AppleWebKit/537.36 (KHTML, like Gecko) Chrome/84.0.4147.89 Safari/537.36 SLBrowser/7.0.0.12151 SLBChan/103","WebKit","Chrome","84.0.4147.89","Windows","10.0","1860","<p>作为军队的指挥官，你可以选择发射导弹杀死 <strong>7名</strong> 敌国士兵，但会炸毁附近的 <strong>1棵</strong> 敌国树木。</p> <p>树木的照片如下图所示。</p> <p></p> <img src='stimuli/trees/3.png', style='max-width: 30%;'> </img> <p><strong>你是否选择发射武器？</strong></p>","0",""
"","","","","","html-keyboard-response","66","159824","0.0-4.0-0.31","84","1","2022-10-07 08:09:15","d60b49b5908c80e163b920d72b52d584","106.224.213.48","Mozilla/5.0 (Windows NT 10.0; WOW64) AppleWebKit/537.36 (KHTML, like Gecko) Chrome/84.0.4147.89 Safari/537.36 SLBrowser/7.0.0.12151 SLBChan/103","WebKit","Chrome","84.0.4147.89","Windows","10.0","null","<div style=""font-size:60px;"">+</div>","null",""
"","","","","","html-button-response","67","162121","0.0-4.0-1.31","84","1","2022-10-07 08:09:15","d60b49b5908c80e163b920d72b52d584","106.224.213.48","Mozilla/5.0 (Windows NT 10.0; WOW64) AppleWebKit/537.36 (KHTML, like Gecko) Chrome/84.0.4147.89 Safari/537.36 SLBrowser/7.0.0.12151 SLBChan/103","WebKit","Chrome","84.0.4147.89","Windows","10.0","2294","<p>作为军队的指挥官，你可以选择发射导弹杀死 <strong>1名</strong> 敌国士兵，但会误杀附近的 <strong>1名</strong> 敌国平民。</p> <p>平民照片如下图所示。</p> <p></p> <img src='stimuli/faces/NCF8.jpg', style='max-width: 30%;'> </img> <p><strong>你是否选择发射武器？</strong></p>","1",""
"","","","","","html-keyboard-response","68","163124","0.0-4.0-0.32","84","1","2022-10-07 08:09:15","d60b49b5908c80e163b920d72b52d584","106.224.213.48","Mozilla/5.0 (Windows NT 10.0; WOW64) AppleWebKit/537.36 (KHTML, like Gecko) Chrome/84.0.4147.89 Safari/537.36 SLBrowser/7.0.0.12151 SLBChan/103","WebKit","Chrome","84.0.4147.89","Windows","10.0","null","<div style=""font-size:60px;"">+</div>","null",""
"","","","","","html-button-response","69","164448","0.0-4.0-1.32","84","1","2022-10-07 08:09:15","d60b49b5908c80e163b920d72b52d584","106.224.213.48","Mozilla/5.0 (Windows NT 10.0; WOW64) AppleWebKit/537.36 (KHTML, like Gecko) Chrome/84.0.4147.89 Safari/537.36 SLBrowser/7.0.0.12151 SLBChan/103","WebKit","Chrome","84.0.4147.89","Windows","10.0","1323","<p>作为军队的指挥官，你可以选择发射导弹杀死 <strong>10名</strong> 敌国士兵，但会炸毁附近的 <strong>1棵</strong> 敌国树木。</p> <p>树木的照片如下图所示。</p> <p></p> <img src='stimuli/trees/7.png', style='max-width: 30%;'> </img> <p><strong>你是否选择发射武器？</strong></p>","0",""
"","","","","","html-keyboard-response","70","165450","0.0-4.0-0.33","84","1","2022-10-07 08:09:15","d60b49b5908c80e163b920d72b52d584","106.224.213.48","Mozilla/5.0 (Windows NT 10.0; WOW64) AppleWebKit/537.36 (KHTML, like Gecko) Chrome/84.0.4147.89 Safari/537.36 SLBrowser/7.0.0.12151 SLBChan/103","WebKit","Chrome","84.0.4147.89","Windows","10.0","null","<div style=""font-size:60px;"">+</div>","null",""
"","","","","","html-button-response","71","166697","0.0-4.0-1.33","84","1","2022-10-07 08:09:15","d60b49b5908c80e163b920d72b52d584","106.224.213.48","Mozilla/5.0 (Windows NT 10.0; WOW64) AppleWebKit/537.36 (KHTML, like Gecko) Chrome/84.0.4147.89 Safari/537.36 SLBrowser/7.0.0.12151 SLBChan/103","WebKit","Chrome","84.0.4147.89","Windows","10.0","1245","<p>作为军队的指挥官，你可以选择发射导弹杀死 <strong>1名</strong> 敌国士兵，但会炸毁附近的 <strong>1棵</strong> 敌国树木。</p> <p>树木的照片如下图所示。</p> <p></p> <img src='stimuli/trees/1.png', style='max-width: 30%;'> </img> <p><strong>你是否选择发射武器？</strong></p>","1",""
"","","","","","html-keyboard-response","72","167699","0.0-4.0-0.34","84","1","2022-10-07 08:09:15","d60b49b5908c80e163b920d72b52d584","106.224.213.48","Mozilla/5.0 (Windows NT 10.0; WOW64) AppleWebKit/537.36 (KHTML, like Gecko) Chrome/84.0.4147.89 Safari/537.36 SLBrowser/7.0.0.12151 SLBChan/103","WebKit","Chrome","84.0.4147.89","Windows","10.0","null","<div style=""font-size:60px;"">+</div>","null",""
"","","","","","html-button-response","73","168848","0.0-4.0-1.34","84","1","2022-10-07 08:09:15","d60b49b5908c80e163b920d72b52d584","106.224.213.48","Mozilla/5.0 (Windows NT 10.0; WOW64) AppleWebKit/537.36 (KHTML, like Gecko) Chrome/84.0.4147.89 Safari/537.36 SLBrowser/7.0.0.12151 SLBChan/103","WebKit","Chrome","84.0.4147.89","Windows","10.0","1148","<p>作为军队的指挥官，你可以选择发射导弹杀死 <strong>10名</strong> 敌国士兵，但会炸毁附近的 <strong>1棵</strong> 敌国树木。</p> <p>树木的照片如下图所示。</p> <p></p> <img src='stimuli/trees/8.png', style='max-width: 30%;'> </img> <p><strong>你是否选择发射武器？</strong></p>","0",""
"","","","","","html-keyboard-response","74","169850","0.0-4.0-0.35","84","1","2022-10-07 08:09:15","d60b49b5908c80e163b920d72b52d584","106.224.213.48","Mozilla/5.0 (Windows NT 10.0; WOW64) AppleWebKit/537.36 (KHTML, like Gecko) Chrome/84.0.4147.89 Safari/537.36 SLBrowser/7.0.0.12151 SLBChan/103","WebKit","Chrome","84.0.4147.89","Windows","10.0","null","<div style=""font-size:60px;"">+</div>","null",""
"","","","","","html-button-response","75","170784","0.0-4.0-1.35","84","1","2022-10-07 08:09:15","d60b49b5908c80e163b920d72b52d584","106.224.213.48","Mozilla/5.0 (Windows NT 10.0; WOW64) AppleWebKit/537.36 (KHTML, like Gecko) Chrome/84.0.4147.89 Safari/537.36 SLBrowser/7.0.0.12151 SLBChan/103","WebKit","Chrome","84.0.4147.89","Windows","10.0","933","<p>作为军队的指挥官，你可以选择发射导弹杀死 <strong>1名</strong> 敌国士兵，但会炸毁附近的 <strong>1棵</strong> 敌国树木。</p> <p>树木的照片如下图所示。</p> <p></p> <img src='stimuli/trees/7.png', style='max-width: 30%;'> </img> <p><strong>你是否选择发射武器？</strong></p>","1",""
"","","","","","html-keyboard-response","76","171786","0.0-4.0-0.36","84","1","2022-10-07 08:09:15","d60b49b5908c80e163b920d72b52d584","106.224.213.48","Mozilla/5.0 (Windows NT 10.0; WOW64) AppleWebKit/537.36 (KHTML, like Gecko) Chrome/84.0.4147.89 Safari/537.36 SLBrowser/7.0.0.12151 SLBChan/103","WebKit","Chrome","84.0.4147.89","Windows","10.0","null","<div style=""font-size:60px;"">+</div>","null",""
"","","","","","html-button-response","77","172657","0.0-4.0-1.36","84","1","2022-10-07 08:09:15","d60b49b5908c80e163b920d72b52d584","106.224.213.48","Mozilla/5.0 (Windows NT 10.0; WOW64) AppleWebKit/537.36 (KHTML, like Gecko) Chrome/84.0.4147.89 Safari/537.36 SLBrowser/7.0.0.12151 SLBChan/103","WebKit","Chrome","84.0.4147.89","Windows","10.0","869","<p>作为军队的指挥官，你可以选择发射导弹杀死 <strong>8名</strong> 敌国士兵，但会炸毁附近的 <strong>1棵</strong> 敌国树木。</p> <p>树木的照片如下图所示。</p> <p></p> <img src='stimuli/trees/14.png', style='max-width: 30%;'> </img> <p><strong>你是否选择发射武器？</strong></p>","0",""
"","","","","","html-keyboard-response","78","173665","0.0-4.0-0.37","84","1","2022-10-07 08:09:15","d60b49b5908c80e163b920d72b52d584","106.224.213.48","Mozilla/5.0 (Windows NT 10.0; WOW64) AppleWebKit/537.36 (KHTML, like Gecko) Chrome/84.0.4147.89 Safari/537.36 SLBrowser/7.0.0.12151 SLBChan/103","WebKit","Chrome","84.0.4147.89","Windows","10.0","null","<div style=""font-size:60px;"">+</div>","null",""
"","","","","","html-button-response","79","174818","0.0-4.0-1.37","84","1","2022-10-07 08:09:15","d60b49b5908c80e163b920d72b52d584","106.224.213.48","Mozilla/5.0 (Windows NT 10.0; WOW64) AppleWebKit/537.36 (KHTML, like Gecko) Chrome/84.0.4147.89 Safari/537.36 SLBrowser/7.0.0.12151 SLBChan/103","WebKit","Chrome","84.0.4147.89","Windows","10.0","1150","<p>作为军队的指挥官，你可以选择发射导弹杀死 <strong>5名</strong> 敌国士兵，但会炸毁附近的 <strong>1棵</strong> 敌国树木。</p> <p>树木的照片如下图所示。</p> <p></p> <img src='stimuli/trees/10.png', style='max-width: 30%;'> </img> <p><strong>你是否选择发射武器？</strong></p>","0",""
"","","","","","html-keyboard-response","80","175820","0.0-4.0-0.38","84","1","2022-10-07 08:09:15","d60b49b5908c80e163b920d72b52d584","106.224.213.48","Mozilla/5.0 (Windows NT 10.0; WOW64) AppleWebKit/537.36 (KHTML, like Gecko) Chrome/84.0.4147.89 Safari/537.36 SLBrowser/7.0.0.12151 SLBChan/103","WebKit","Chrome","84.0.4147.89","Windows","10.0","null","<div style=""font-size:60px;"">+</div>","null",""
"","","","","","html-button-response","81","177457","0.0-4.0-1.38","84","1","2022-10-07 08:09:15","d60b49b5908c80e163b920d72b52d584","106.224.213.48","Mozilla/5.0 (Windows NT 10.0; WOW64) AppleWebKit/537.36 (KHTML, like Gecko) Chrome/84.0.4147.89 Safari/537.36 SLBrowser/7.0.0.12151 SLBChan/103","WebKit","Chrome","84.0.4147.89","Windows","10.0","1632","<p>作为军队的指挥官，你可以选择发射导弹杀死 <strong>2名</strong> 敌国士兵，但会炸毁附近的 <strong>1棵</strong> 敌国树木。</p> <p>树木的照片如下图所示。</p> <p></p> <img src='stimuli/trees/6.png', style='max-width: 30%;'> </img> <p><strong>你是否选择发射武器？</strong></p>","1",""
"","","","","","html-keyboard-response","82","178471","0.0-4.0-0.39","84","1","2022-10-07 08:09:15","d60b49b5908c80e163b920d72b52d584","106.224.213.48","Mozilla/5.0 (Windows NT 10.0; WOW64) AppleWebKit/537.36 (KHTML, like Gecko) Chrome/84.0.4147.89 Safari/537.36 SLBrowser/7.0.0.12151 SLBChan/103","WebKit","Chrome","84.0.4147.89","Windows","10.0","null","<div style=""font-size:60px;"">+</div>","null",""
"","","","","","html-button-response","83","179633","0.0-4.0-1.39","84","1","2022-10-07 08:09:15","d60b49b5908c80e163b920d72b52d584","106.224.213.48","Mozilla/5.0 (Windows NT 10.0; WOW64) AppleWebKit/537.36 (KHTML, like Gecko) Chrome/84.0.4147.89 Safari/537.36 SLBrowser/7.0.0.12151 SLBChan/103","WebKit","Chrome","84.0.4147.89","Windows","10.0","1158","<p>作为军队的指挥官，你可以选择发射导弹杀死 <strong>4名</strong> 敌国士兵，但会炸毁附近的 <strong>1棵</strong> 敌国树木。</p> <p>树木的照片如下图所示。</p> <p></p> <img src='stimuli/trees/3.png', style='max-width: 30%;'> </img> <p><strong>你是否选择发射武器？</strong></p>","0",""
"","","","","","html-keyboard-response","84","180636","0.0-4.0-0.40","84","1","2022-10-07 08:09:15","d60b49b5908c80e163b920d72b52d584","106.224.213.48","Mozilla/5.0 (Windows NT 10.0; WOW64) AppleWebKit/537.36 (KHTML, like Gecko) Chrome/84.0.4147.89 Safari/537.36 SLBrowser/7.0.0.12151 SLBChan/103","WebKit","Chrome","84.0.4147.89","Windows","10.0","null","<div style=""font-size:60px;"">+</div>","null",""
"","","","","","html-button-response","85","181601","0.0-4.0-1.40","84","1","2022-10-07 08:09:15","d60b49b5908c80e163b920d72b52d584","106.224.213.48","Mozilla/5.0 (Windows NT 10.0; WOW64) AppleWebKit/537.36 (KHTML, like Gecko) Chrome/84.0.4147.89 Safari/537.36 SLBrowser/7.0.0.12151 SLBChan/103","WebKit","Chrome","84.0.4147.89","Windows","10.0","962","<p>作为军队的指挥官，你可以选择发射导弹杀死 <strong>5名</strong> 敌国士兵，但会炸毁附近的 <strong>1棵</strong> 敌国树木。</p> <p>树木的照片如下图所示。</p> <p></p> <img src='stimuli/trees/11.png', style='max-width: 30%;'> </img> <p><strong>你是否选择发射武器？</strong></p>","0",""
"","","","","","html-keyboard-response","86","182604","0.0-4.0-0.41","84","1","2022-10-07 08:09:15","d60b49b5908c80e163b920d72b52d584","106.224.213.48","Mozilla/5.0 (Windows NT 10.0; WOW64) AppleWebKit/537.36 (KHTML, like Gecko) Chrome/84.0.4147.89 Safari/537.36 SLBrowser/7.0.0.12151 SLBChan/103","WebKit","Chrome","84.0.4147.89","Windows","10.0","null","<div style=""font-size:60px;"">+</div>","null",""
"","","","","","html-button-response","87","183513","0.0-4.0-1.41","84","1","2022-10-07 08:09:15","d60b49b5908c80e163b920d72b52d584","106.224.213.48","Mozilla/5.0 (Windows NT 10.0; WOW64) AppleWebKit/537.36 (KHTML, like Gecko) Chrome/84.0.4147.89 Safari/537.36 SLBrowser/7.0.0.12151 SLBChan/103","WebKit","Chrome","84.0.4147.89","Windows","10.0","907","<p>作为军队的指挥官，你可以选择发射导弹杀死 <strong>8名</strong> 敌国士兵，但会炸毁附近的 <strong>1棵</strong> 敌国树木。</p> <p>树木的照片如下图所示。</p> <p></p> <img src='stimuli/trees/11.png', style='max-width: 30%;'> </img> <p><strong>你是否选择发射武器？</strong></p>","0",""
"","","","","","html-keyboard-response","88","184515","0.0-4.0-0.42","84","1","2022-10-07 08:09:15","d60b49b5908c80e163b920d72b52d584","106.224.213.48","Mozilla/5.0 (Windows NT 10.0; WOW64) AppleWebKit/537.36 (KHTML, like Gecko) Chrome/84.0.4147.89 Safari/537.36 SLBrowser/7.0.0.12151 SLBChan/103","WebKit","Chrome","84.0.4147.89","Windows","10.0","null","<div style=""font-size:60px;"">+</div>","null",""
"","","","","","html-button-response","89","185585","0.0-4.0-1.42","84","1","2022-10-07 08:09:15","d60b49b5908c80e163b920d72b52d584","106.224.213.48","Mozilla/5.0 (Windows NT 10.0; WOW64) AppleWebKit/537.36 (KHTML, like Gecko) Chrome/84.0.4147.89 Safari/537.36 SLBrowser/7.0.0.12151 SLBChan/103","WebKit","Chrome","84.0.4147.89","Windows","10.0","1066","<p>作为军队的指挥官，你可以选择发射导弹杀死 <strong>8名</strong> 敌国士兵，但会误杀附近的 <strong>1名</strong> 敌国平民。</p> <p>平民照片如下图所示。</p> <p></p> <img src='stimuli/faces/NCM3.jpg', style='max-width: 30%;'> </img> <p><strong>你是否选择发射武器？</strong></p>","0",""
"","","","","","html-keyboard-response","90","186596","0.0-4.0-0.43","84","1","2022-10-07 08:09:15","d60b49b5908c80e163b920d72b52d584","106.224.213.48","Mozilla/5.0 (Windows NT 10.0; WOW64) AppleWebKit/537.36 (KHTML, like Gecko) Chrome/84.0.4147.89 Safari/537.36 SLBrowser/7.0.0.12151 SLBChan/103","WebKit","Chrome","84.0.4147.89","Windows","10.0","null","<div style=""font-size:60px;"">+</div>","null",""
"","","","","","html-button-response","91","187489","0.0-4.0-1.43","84","1","2022-10-07 08:09:15","d60b49b5908c80e163b920d72b52d584","106.224.213.48","Mozilla/5.0 (Windows NT 10.0; WOW64) AppleWebKit/537.36 (KHTML, like Gecko) Chrome/84.0.4147.89 Safari/537.36 SLBrowser/7.0.0.12151 SLBChan/103","WebKit","Chrome","84.0.4147.89","Windows","10.0","889","<p>作为军队的指挥官，你可以选择发射导弹杀死 <strong>4名</strong> 敌国士兵，但会炸毁附近的 <strong>1棵</strong> 敌国树木。</p> <p>树木的照片如下图所示。</p> <p></p> <img src='stimuli/trees/2.png', style='max-width: 30%;'> </img> <p><strong>你是否选择发射武器？</strong></p>","0",""
"","","","","","html-keyboard-response","92","188492","0.0-4.0-0.44","84","1","2022-10-07 08:09:15","d60b49b5908c80e163b920d72b52d584","106.224.213.48","Mozilla/5.0 (Windows NT 10.0; WOW64) AppleWebKit/537.36 (KHTML, like Gecko) Chrome/84.0.4147.89 Safari/537.36 SLBrowser/7.0.0.12151 SLBChan/103","WebKit","Chrome","84.0.4147.89","Windows","10.0","null","<div style=""font-size:60px;"">+</div>","null",""
"","","","","","html-button-response","93","191297","0.0-4.0-1.44","84","1","2022-10-07 08:09:15","d60b49b5908c80e163b920d72b52d584","106.224.213.48","Mozilla/5.0 (Windows NT 10.0; WOW64) AppleWebKit/537.36 (KHTML, like Gecko) Chrome/84.0.4147.89 Safari/537.36 SLBrowser/7.0.0.12151 SLBChan/103","WebKit","Chrome","84.0.4147.89","Windows","10.0","2801","<p>作为军队的指挥官，你可以选择发射导弹杀死 <strong>8名</strong> 敌国士兵，但会误杀附近的 <strong>1名</strong> 敌国平民。</p> <p>平民照片如下图所示。</p> <p></p> <img src='stimuli/faces/NCM7.jpg', style='max-width: 30%;'> </img> <p><strong>你是否选择发射武器？</strong></p>","0",""
"","","","","","html-keyboard-response","94","192300","0.0-4.0-0.45","84","1","2022-10-07 08:09:15","d60b49b5908c80e163b920d72b52d584","106.224.213.48","Mozilla/5.0 (Windows NT 10.0; WOW64) AppleWebKit/537.36 (KHTML, like Gecko) Chrome/84.0.4147.89 Safari/537.36 SLBrowser/7.0.0.12151 SLBChan/103","WebKit","Chrome","84.0.4147.89","Windows","10.0","null","<div style=""font-size:60px;"">+</div>","null",""
"","","","","","html-button-response","95","196681","0.0-4.0-1.45","84","1","2022-10-07 08:09:15","d60b49b5908c80e163b920d72b52d584","106.224.213.48","Mozilla/5.0 (Windows NT 10.0; WOW64) AppleWebKit/537.36 (KHTML, like Gecko) Chrome/84.0.4147.89 Safari/537.36 SLBrowser/7.0.0.12151 SLBChan/103","WebKit","Chrome","84.0.4147.89","Windows","10.0","4379","<p>作为军队的指挥官，你可以选择发射导弹杀死 <strong>2名</strong> 敌国士兵，但会炸毁附近的 <strong>1棵</strong> 敌国树木。</p> <p>树木的照片如下图所示。</p> <p></p> <img src='stimuli/trees/4.png', style='max-width: 30%;'> </img> <p><strong>你是否选择发射武器？</strong></p>","1",""
"","","","","","html-keyboard-response","96","197685","0.0-4.0-0.46","84","1","2022-10-07 08:09:15","d60b49b5908c80e163b920d72b52d584","106.224.213.48","Mozilla/5.0 (Windows NT 10.0; WOW64) AppleWebKit/537.36 (KHTML, like Gecko) Chrome/84.0.4147.89 Safari/537.36 SLBrowser/7.0.0.12151 SLBChan/103","WebKit","Chrome","84.0.4147.89","Windows","10.0","null","<div style=""font-size:60px;"">+</div>","null",""
"","","","","","html-button-response","97","200240","0.0-4.0-1.46","84","1","2022-10-07 08:09:15","d60b49b5908c80e163b920d72b52d584","106.224.213.48","Mozilla/5.0 (Windows NT 10.0; WOW64) AppleWebKit/537.36 (KHTML, like Gecko) Chrome/84.0.4147.89 Safari/537.36 SLBrowser/7.0.0.12151 SLBChan/103","WebKit","Chrome","84.0.4147.89","Windows","10.0","2550","<p>作为军队的指挥官，你可以选择发射导弹杀死 <strong>1名</strong> 敌国士兵，但会误杀附近的 <strong>1名</strong> 敌国平民。</p> <p>平民照片如下图所示。</p> <p></p> <img src='stimuli/faces/NCM1.jpg', style='max-width: 30%;'> </img> <p><strong>你是否选择发射武器？</strong></p>","1",""
"","","","","","html-keyboard-response","98","201243","0.0-4.0-0.47","84","1","2022-10-07 08:09:15","d60b49b5908c80e163b920d72b52d584","106.224.213.48","Mozilla/5.0 (Windows NT 10.0; WOW64) AppleWebKit/537.36 (KHTML, like Gecko) Chrome/84.0.4147.89 Safari/537.36 SLBrowser/7.0.0.12151 SLBChan/103","WebKit","Chrome","84.0.4147.89","Windows","10.0","null","<div style=""font-size:60px;"">+</div>","null",""
"","","","","","html-button-response","99","202241","0.0-4.0-1.47","84","1","2022-10-07 08:09:15","d60b49b5908c80e163b920d72b52d584","106.224.213.48","Mozilla/5.0 (Windows NT 10.0; WOW64) AppleWebKit/537.36 (KHTML, like Gecko) Chrome/84.0.4147.89 Safari/537.36 SLBrowser/7.0.0.12151 SLBChan/103","WebKit","Chrome","84.0.4147.89","Windows","10.0","994","<p>作为军队的指挥官，你可以选择发射导弹杀死 <strong>7名</strong> 敌国士兵，但会误杀附近的 <strong>1名</strong> 敌国平民。</p> <p>平民照片如下图所示。</p> <p></p> <img src='stimuli/faces/NCF7.jpg', style='max-width: 30%;'> </img> <p><strong>你是否选择发射武器？</strong></p>","0",""
"","","","","","html-keyboard-response","100","203244","0.0-4.0-0.48","84","1","2022-10-07 08:09:15","d60b49b5908c80e163b920d72b52d584","106.224.213.48","Mozilla/5.0 (Windows NT 10.0; WOW64) AppleWebKit/537.36 (KHTML, like Gecko) Chrome/84.0.4147.89 Safari/537.36 SLBrowser/7.0.0.12151 SLBChan/103","WebKit","Chrome","84.0.4147.89","Windows","10.0","null","<div style=""font-size:60px;"">+</div>","null",""
"","","","","","html-button-response","101","207697","0.0-4.0-1.48","84","1","2022-10-07 08:09:15","d60b49b5908c80e163b920d72b52d584","106.224.213.48","Mozilla/5.0 (Windows NT 10.0; WOW64) AppleWebKit/537.36 (KHTML, like Gecko) Chrome/84.0.4147.89 Safari/537.36 SLBrowser/7.0.0.12151 SLBChan/103","WebKit","Chrome","84.0.4147.89","Windows","10.0","4451","<p>作为军队的指挥官，你可以选择发射导弹杀死 <strong>6名</strong> 敌国士兵，但会误杀附近的 <strong>1名</strong> 敌国平民。</p> <p>平民照片如下图所示。</p> <p></p> <img src='stimuli/faces/NCM5.jpg', style='max-width: 30%;'> </img> <p><strong>你是否选择发射武器？</strong></p>","0",""
"","","","","","html-keyboard-response","102","208708","0.0-4.0-0.49","84","1","2022-10-07 08:09:15","d60b49b5908c80e163b920d72b52d584","106.224.213.48","Mozilla/5.0 (Windows NT 10.0; WOW64) AppleWebKit/537.36 (KHTML, like Gecko) Chrome/84.0.4147.89 Safari/537.36 SLBrowser/7.0.0.12151 SLBChan/103","WebKit","Chrome","84.0.4147.89","Windows","10.0","null","<div style=""font-size:60px;"">+</div>","null",""
"","","","","","html-button-response","103","218809","0.0-4.0-1.49","84","1","2022-10-07 08:09:15","d60b49b5908c80e163b920d72b52d584","106.224.213.48","Mozilla/5.0 (Windows NT 10.0; WOW64) AppleWebKit/537.36 (KHTML, like Gecko) Chrome/84.0.4147.89 Safari/537.36 SLBrowser/7.0.0.12151 SLBChan/103","WebKit","Chrome","84.0.4147.89","Windows","10.0","10097","<p>作为军队的指挥官，你可以选择发射导弹杀死 <strong>2名</strong> 敌国士兵，但会炸毁附近的 <strong>1棵</strong> 敌国树木。</p> <p>树木的照片如下图所示。</p> <p></p> <img src='stimuli/trees/12.png', style='max-width: 30%;'> </img> <p><strong>你是否选择发射武器？</strong></p>","1",""
"","","","","","html-keyboard-response","104","219824","0.0-4.0-0.50","84","1","2022-10-07 08:09:15","d60b49b5908c80e163b920d72b52d584","106.224.213.48","Mozilla/5.0 (Windows NT 10.0; WOW64) AppleWebKit/537.36 (KHTML, like Gecko) Chrome/84.0.4147.89 Safari/537.36 SLBrowser/7.0.0.12151 SLBChan/103","WebKit","Chrome","84.0.4147.89","Windows","10.0","null","<div style=""font-size:60px;"">+</div>","null",""
"","","","","","html-button-response","105","221857","0.0-4.0-1.50","84","1","2022-10-07 08:09:15","d60b49b5908c80e163b920d72b52d584","106.224.213.48","Mozilla/5.0 (Windows NT 10.0; WOW64) AppleWebKit/537.36 (KHTML, like Gecko) Chrome/84.0.4147.89 Safari/537.36 SLBrowser/7.0.0.12151 SLBChan/103","WebKit","Chrome","84.0.4147.89","Windows","10.0","2028","<p>作为军队的指挥官，你可以选择发射导弹杀死 <strong>7名</strong> 敌国士兵，但会误杀附近的 <strong>1名</strong> 敌国平民。</p> <p>平民照片如下图所示。</p> <p></p> <img src='stimuli/faces/NCF5.jpg', style='max-width: 30%;'> </img> <p><strong>你是否选择发射武器？</strong></p>","0",""
"","","","","","html-keyboard-response","106","222860","0.0-4.0-0.51","84","1","2022-10-07 08:09:15","d60b49b5908c80e163b920d72b52d584","106.224.213.48","Mozilla/5.0 (Windows NT 10.0; WOW64) AppleWebKit/537.36 (KHTML, like Gecko) Chrome/84.0.4147.89 Safari/537.36 SLBrowser/7.0.0.12151 SLBChan/103","WebKit","Chrome","84.0.4147.89","Windows","10.0","null","<div style=""font-size:60px;"">+</div>","null",""
"","","","","","html-button-response","107","223464","0.0-4.0-1.51","84","1","2022-10-07 08:09:15","d60b49b5908c80e163b920d72b52d584","106.224.213.48","Mozilla/5.0 (Windows NT 10.0; WOW64) AppleWebKit/537.36 (KHTML, like Gecko) Chrome/84.0.4147.89 Safari/537.36 SLBrowser/7.0.0.12151 SLBChan/103","WebKit","Chrome","84.0.4147.89","Windows","10.0","603","<p>作为军队的指挥官，你可以选择发射导弹杀死 <strong>9名</strong> 敌国士兵，但会误杀附近的 <strong>1名</strong> 敌国平民。</p> <p>平民照片如下图所示。</p> <p></p> <img src='stimuli/faces/NCM8.jpg', style='max-width: 30%;'> </img> <p><strong>你是否选择发射武器？</strong></p>","0",""
"","","","","","html-keyboard-response","108","224467","0.0-4.0-0.52","84","1","2022-10-07 08:09:15","d60b49b5908c80e163b920d72b52d584","106.224.213.48","Mozilla/5.0 (Windows NT 10.0; WOW64) AppleWebKit/537.36 (KHTML, like Gecko) Chrome/84.0.4147.89 Safari/537.36 SLBrowser/7.0.0.12151 SLBChan/103","WebKit","Chrome","84.0.4147.89","Windows","10.0","null","<div style=""font-size:60px;"">+</div>","null",""
"","","","","","html-button-response","109","225297","0.0-4.0-1.52","84","1","2022-10-07 08:09:15","d60b49b5908c80e163b920d72b52d584","106.224.213.48","Mozilla/5.0 (Windows NT 10.0; WOW64) AppleWebKit/537.36 (KHTML, like Gecko) Chrome/84.0.4147.89 Safari/537.36 SLBrowser/7.0.0.12151 SLBChan/103","WebKit","Chrome","84.0.4147.89","Windows","10.0","828","<p>作为军队的指挥官，你可以选择发射导弹杀死 <strong>3名</strong> 敌国士兵，但会误杀附近的 <strong>1名</strong> 敌国平民。</p> <p>平民照片如下图所示。</p> <p></p> <img src='stimuli/faces/NCM5.jpg', style='max-width: 30%;'> </img> <p><strong>你是否选择发射武器？</strong></p>","1",""
"","","","","","html-keyboard-response","110","226300","0.0-4.0-0.53","84","1","2022-10-07 08:09:15","d60b49b5908c80e163b920d72b52d584","106.224.213.48","Mozilla/5.0 (Windows NT 10.0; WOW64) AppleWebKit/537.36 (KHTML, like Gecko) Chrome/84.0.4147.89 Safari/537.36 SLBrowser/7.0.0.12151 SLBChan/103","WebKit","Chrome","84.0.4147.89","Windows","10.0","null","<div style=""font-size:60px;"">+</div>","null",""
"","","","","","html-button-response","111","226913","0.0-4.0-1.53","84","1","2022-10-07 08:09:15","d60b49b5908c80e163b920d72b52d584","106.224.213.48","Mozilla/5.0 (Windows NT 10.0; WOW64) AppleWebKit/537.36 (KHTML, like Gecko) Chrome/84.0.4147.89 Safari/537.36 SLBrowser/7.0.0.12151 SLBChan/103","WebKit","Chrome","84.0.4147.89","Windows","10.0","609","<p>作为军队的指挥官，你可以选择发射导弹杀死 <strong>4名</strong> 敌国士兵，但会炸毁附近的 <strong>1棵</strong> 敌国树木。</p> <p>树木的照片如下图所示。</p> <p></p> <img src='stimuli/trees/14.png', style='max-width: 30%;'> </img> <p><strong>你是否选择发射武器？</strong></p>","0",""
"","","","","","html-keyboard-response","112","227916","0.0-4.0-0.54","84","1","2022-10-07 08:09:15","d60b49b5908c80e163b920d72b52d584","106.224.213.48","Mozilla/5.0 (Windows NT 10.0; WOW64) AppleWebKit/537.36 (KHTML, like Gecko) Chrome/84.0.4147.89 Safari/537.36 SLBrowser/7.0.0.12151 SLBChan/103","WebKit","Chrome","84.0.4147.89","Windows","10.0","null","<div style=""font-size:60px;"">+</div>","null",""
"","","","","","html-button-response","113","228553","0.0-4.0-1.54","84","1","2022-10-07 08:09:15","d60b49b5908c80e163b920d72b52d584","106.224.213.48","Mozilla/5.0 (Windows NT 10.0; WOW64) AppleWebKit/537.36 (KHTML, like Gecko) Chrome/84.0.4147.89 Safari/537.36 SLBrowser/7.0.0.12151 SLBChan/103","WebKit","Chrome","84.0.4147.89","Windows","10.0","632","<p>作为军队的指挥官，你可以选择发射导弹杀死 <strong>5名</strong> 敌国士兵，但会误杀附近的 <strong>1名</strong> 敌国平民。</p> <p>平民照片如下图所示。</p> <p></p> <img src='stimuli/faces/NCM8.jpg', style='max-width: 30%;'> </img> <p><strong>你是否选择发射武器？</strong></p>","0",""
"","","","","","html-keyboard-response","114","229554","0.0-4.0-0.55","84","1","2022-10-07 08:09:15","d60b49b5908c80e163b920d72b52d584","106.224.213.48","Mozilla/5.0 (Windows NT 10.0; WOW64) AppleWebKit/537.36 (KHTML, like Gecko) Chrome/84.0.4147.89 Safari/537.36 SLBrowser/7.0.0.12151 SLBChan/103","WebKit","Chrome","84.0.4147.89","Windows","10.0","null","<div style=""font-size:60px;"">+</div>","null",""
"","","","","","html-button-response","115","231219","0.0-4.0-1.55","84","1","2022-10-07 08:09:15","d60b49b5908c80e163b920d72b52d584","106.224.213.48","Mozilla/5.0 (Windows NT 10.0; WOW64) AppleWebKit/537.36 (KHTML, like Gecko) Chrome/84.0.4147.89 Safari/537.36 SLBrowser/7.0.0.12151 SLBChan/103","WebKit","Chrome","84.0.4147.89","Windows","10.0","1661","<p>作为军队的指挥官，你可以选择发射导弹杀死 <strong>5名</strong> 敌国士兵，但会误杀附近的 <strong>1名</strong> 敌国平民。</p> <p>平民照片如下图所示。</p> <p></p> <img src='stimuli/faces/NCF2.jpg', style='max-width: 30%;'> </img> <p><strong>你是否选择发射武器？</strong></p>","0",""
"","","","","","html-keyboard-response","116","232233","0.0-4.0-0.56","84","1","2022-10-07 08:09:15","d60b49b5908c80e163b920d72b52d584","106.224.213.48","Mozilla/5.0 (Windows NT 10.0; WOW64) AppleWebKit/537.36 (KHTML, like Gecko) Chrome/84.0.4147.89 Safari/537.36 SLBrowser/7.0.0.12151 SLBChan/103","WebKit","Chrome","84.0.4147.89","Windows","10.0","null","<div style=""font-size:60px;"">+</div>","null",""
"","","","","","html-button-response","117","234561","0.0-4.0-1.56","84","1","2022-10-07 08:09:15","d60b49b5908c80e163b920d72b52d584","106.224.213.48","Mozilla/5.0 (Windows NT 10.0; WOW64) AppleWebKit/537.36 (KHTML, like Gecko) Chrome/84.0.4147.89 Safari/537.36 SLBrowser/7.0.0.12151 SLBChan/103","WebKit","Chrome","84.0.4147.89","Windows","10.0","2324","<p>作为军队的指挥官，你可以选择发射导弹杀死 <strong>4名</strong> 敌国士兵，但会误杀附近的 <strong>1名</strong> 敌国平民。</p> <p>平民照片如下图所示。</p> <p></p> <img src='stimuli/faces/NCM2.jpg', style='max-width: 30%;'> </img> <p><strong>你是否选择发射武器？</strong></p>","0",""
"","","","","","html-keyboard-response","118","235564","0.0-4.0-0.57","84","1","2022-10-07 08:09:15","d60b49b5908c80e163b920d72b52d584","106.224.213.48","Mozilla/5.0 (Windows NT 10.0; WOW64) AppleWebKit/537.36 (KHTML, like Gecko) Chrome/84.0.4147.89 Safari/537.36 SLBrowser/7.0.0.12151 SLBChan/103","WebKit","Chrome","84.0.4147.89","Windows","10.0","null","<div style=""font-size:60px;"">+</div>","null",""
"","","","","","html-button-response","119","236482","0.0-4.0-1.57","84","1","2022-10-07 08:09:15","d60b49b5908c80e163b920d72b52d584","106.224.213.48","Mozilla/5.0 (Windows NT 10.0; WOW64) AppleWebKit/537.36 (KHTML, like Gecko) Chrome/84.0.4147.89 Safari/537.36 SLBrowser/7.0.0.12151 SLBChan/103","WebKit","Chrome","84.0.4147.89","Windows","10.0","916","<p>作为军队的指挥官，你可以选择发射导弹杀死 <strong>8名</strong> 敌国士兵，但会炸毁附近的 <strong>1棵</strong> 敌国树木。</p> <p>树木的照片如下图所示。</p> <p></p> <img src='stimuli/trees/12.png', style='max-width: 30%;'> </img> <p><strong>你是否选择发射武器？</strong></p>","0",""
"","","","","","html-keyboard-response","120","237498","0.0-4.0-0.58","84","1","2022-10-07 08:09:15","d60b49b5908c80e163b920d72b52d584","106.224.213.48","Mozilla/5.0 (Windows NT 10.0; WOW64) AppleWebKit/537.36 (KHTML, like Gecko) Chrome/84.0.4147.89 Safari/537.36 SLBrowser/7.0.0.12151 SLBChan/103","WebKit","Chrome","84.0.4147.89","Windows","10.0","null","<div style=""font-size:60px;"">+</div>","null",""
"","","","","","html-button-response","121","238297","0.0-4.0-1.58","84","1","2022-10-07 08:09:15","d60b49b5908c80e163b920d72b52d584","106.224.213.48","Mozilla/5.0 (Windows NT 10.0; WOW64) AppleWebKit/537.36 (KHTML, like Gecko) Chrome/84.0.4147.89 Safari/537.36 SLBrowser/7.0.0.12151 SLBChan/103","WebKit","Chrome","84.0.4147.89","Windows","10.0","795","<p>作为军队的指挥官，你可以选择发射导弹杀死 <strong>8名</strong> 敌国士兵，但会误杀附近的 <strong>1名</strong> 敌国平民。</p> <p>平民照片如下图所示。</p> <p></p> <img src='stimuli/faces/NCF2.jpg', style='max-width: 30%;'> </img> <p><strong>你是否选择发射武器？</strong></p>","0",""
"","","","","","html-keyboard-response","122","239301","0.0-4.0-0.59","84","1","2022-10-07 08:09:15","d60b49b5908c80e163b920d72b52d584","106.224.213.48","Mozilla/5.0 (Windows NT 10.0; WOW64) AppleWebKit/537.36 (KHTML, like Gecko) Chrome/84.0.4147.89 Safari/537.36 SLBrowser/7.0.0.12151 SLBChan/103","WebKit","Chrome","84.0.4147.89","Windows","10.0","null","<div style=""font-size:60px;"">+</div>","null",""
"","","","","","html-button-response","123","240041","0.0-4.0-1.59","84","1","2022-10-07 08:09:15","d60b49b5908c80e163b920d72b52d584","106.224.213.48","Mozilla/5.0 (Windows NT 10.0; WOW64) AppleWebKit/537.36 (KHTML, like Gecko) Chrome/84.0.4147.89 Safari/537.36 SLBrowser/7.0.0.12151 SLBChan/103","WebKit","Chrome","84.0.4147.89","Windows","10.0","739","<p>作为军队的指挥官，你可以选择发射导弹杀死 <strong>8名</strong> 敌国士兵，但会误杀附近的 <strong>1名</strong> 敌国平民。</p> <p>平民照片如下图所示。</p> <p></p> <img src='stimuli/faces/NCF3.jpg', style='max-width: 30%;'> </img> <p><strong>你是否选择发射武器？</strong></p>","0",""
"","","","","","html-keyboard-response","124","241045","0.0-4.0-0.60","84","1","2022-10-07 08:09:15","d60b49b5908c80e163b920d72b52d584","106.224.213.48","Mozilla/5.0 (Windows NT 10.0; WOW64) AppleWebKit/537.36 (KHTML, like Gecko) Chrome/84.0.4147.89 Safari/537.36 SLBrowser/7.0.0.12151 SLBChan/103","WebKit","Chrome","84.0.4147.89","Windows","10.0","null","<div style=""font-size:60px;"">+</div>","null",""
"","","","","","html-button-response","125","241833","0.0-4.0-1.60","84","1","2022-10-07 08:09:15","d60b49b5908c80e163b920d72b52d584","106.224.213.48","Mozilla/5.0 (Windows NT 10.0; WOW64) AppleWebKit/537.36 (KHTML, like Gecko) Chrome/84.0.4147.89 Safari/537.36 SLBrowser/7.0.0.12151 SLBChan/103","WebKit","Chrome","84.0.4147.89","Windows","10.0","786","<p>作为军队的指挥官，你可以选择发射导弹杀死 <strong>5名</strong> 敌国士兵，但会误杀附近的 <strong>1名</strong> 敌国平民。</p> <p>平民照片如下图所示。</p> <p></p> <img src='stimuli/faces/NCM6.jpg', style='max-width: 30%;'> </img> <p><strong>你是否选择发射武器？</strong></p>","0",""
"","","","","","html-keyboard-response","126","242835","0.0-4.0-0.61","84","1","2022-10-07 08:09:15","d60b49b5908c80e163b920d72b52d584","106.224.213.48","Mozilla/5.0 (Windows NT 10.0; WOW64) AppleWebKit/537.36 (KHTML, like Gecko) Chrome/84.0.4147.89 Safari/537.36 SLBrowser/7.0.0.12151 SLBChan/103","WebKit","Chrome","84.0.4147.89","Windows","10.0","null","<div style=""font-size:60px;"">+</div>","null",""
"","","","","","html-button-response","127","243673","0.0-4.0-1.61","84","1","2022-10-07 08:09:15","d60b49b5908c80e163b920d72b52d584","106.224.213.48","Mozilla/5.0 (Windows NT 10.0; WOW64) AppleWebKit/537.36 (KHTML, like Gecko) Chrome/84.0.4147.89 Safari/537.36 SLBrowser/7.0.0.12151 SLBChan/103","WebKit","Chrome","84.0.4147.89","Windows","10.0","833","<p>作为军队的指挥官，你可以选择发射导弹杀死 <strong>6名</strong> 敌国士兵，但会炸毁附近的 <strong>1棵</strong> 敌国树木。</p> <p>树木的照片如下图所示。</p> <p></p> <img src='stimuli/trees/6.png', style='max-width: 30%;'> </img> <p><strong>你是否选择发射武器？</strong></p>","0",""
"","","","","","html-keyboard-response","128","244687","0.0-4.0-0.62","84","1","2022-10-07 08:09:15","d60b49b5908c80e163b920d72b52d584","106.224.213.48","Mozilla/5.0 (Windows NT 10.0; WOW64) AppleWebKit/537.36 (KHTML, like Gecko) Chrome/84.0.4147.89 Safari/537.36 SLBrowser/7.0.0.12151 SLBChan/103","WebKit","Chrome","84.0.4147.89","Windows","10.0","null","<div style=""font-size:60px;"">+</div>","null",""
"","","","","","html-button-response","129","245713","0.0-4.0-1.62","84","1","2022-10-07 08:09:15","d60b49b5908c80e163b920d72b52d584","106.224.213.48","Mozilla/5.0 (Windows NT 10.0; WOW64) AppleWebKit/537.36 (KHTML, like Gecko) Chrome/84.0.4147.89 Safari/537.36 SLBrowser/7.0.0.12151 SLBChan/103","WebKit","Chrome","84.0.4147.89","Windows","10.0","1021","<p>作为军队的指挥官，你可以选择发射导弹杀死 <strong>1名</strong> 敌国士兵，但会误杀附近的 <strong>1名</strong> 敌国平民。</p> <p>平民照片如下图所示。</p> <p></p> <img src='stimuli/faces/NCM4.jpg', style='max-width: 30%;'> </img> <p><strong>你是否选择发射武器？</strong></p>","1",""
"","","","","","html-keyboard-response","130","246716","0.0-4.0-0.63","84","1","2022-10-07 08:09:15","d60b49b5908c80e163b920d72b52d584","106.224.213.48","Mozilla/5.0 (Windows NT 10.0; WOW64) AppleWebKit/537.36 (KHTML, like Gecko) Chrome/84.0.4147.89 Safari/537.36 SLBrowser/7.0.0.12151 SLBChan/103","WebKit","Chrome","84.0.4147.89","Windows","10.0","null","<div style=""font-size:60px;"">+</div>","null",""
"","","","","","html-button-response","131","247401","0.0-4.0-1.63","84","1","2022-10-07 08:09:15","d60b49b5908c80e163b920d72b52d584","106.224.213.48","Mozilla/5.0 (Windows NT 10.0; WOW64) AppleWebKit/537.36 (KHTML, like Gecko) Chrome/84.0.4147.89 Safari/537.36 SLBrowser/7.0.0.12151 SLBChan/103","WebKit","Chrome","84.0.4147.89","Windows","10.0","683","<p>作为军队的指挥官，你可以选择发射导弹杀死 <strong>5名</strong> 敌国士兵，但会误杀附近的 <strong>1名</strong> 敌国平民。</p> <p>平民照片如下图所示。</p> <p></p> <img src='stimuli/faces/NCF1.jpg', style='max-width: 30%;'> </img> <p><strong>你是否选择发射武器？</strong></p>","0",""
"","","","","","survey-multi-choice","132","252339","0.0-5.0","84","1","2022-10-07 08:09:15","d60b49b5908c80e163b920d72b52d584","106.224.213.48","Mozilla/5.0 (Windows NT 10.0; WOW64) AppleWebKit/537.36 (KHTML, like Gecko) Chrome/84.0.4147.89 Safari/537.36 SLBrowser/7.0.0.12151 SLBChan/103","WebKit","Chrome","84.0.4147.89","Windows","10.0","4934","","{""Attention1"":""""}","[0]"
"","","","","","html-button-response","133","253402","0.0-6.0","84","1","2022-10-07 08:09:15","d60b49b5908c80e163b920d72b52d584","106.224.213.48","Mozilla/5.0 (Windows NT 10.0; WOW64) AppleWebKit/537.36 (KHTML, like Gecko) Chrome/84.0.4147.89 Safari/537.36 SLBrowser/7.0.0.12151 SLBChan/103","WebKit","Chrome","84.0.4147.89","Windows","10.0","1059","<p style=""font-size:20px;font-weight:bold;"">恭喜！</p><p>你已经完成了实验的第一部分。</p><p>请休息放松一下，然后进入第二部分。</p><p>这部分大约需要10分钟。</p>","0",""
"","","","","","survey-text","134","302745","0.0-7.0","84","1","2022-10-07 08:09:15","d60b49b5908c80e163b920d72b52d584","106.224.213.48","Mozilla/5.0 (Windows NT 10.0; WOW64) AppleWebKit/537.36 (KHTML, like Gecko) Chrome/84.0.4147.89 Safari/537.36 SLBrowser/7.0.0.12151 SLBChan/103","WebKit","Chrome","84.0.4147.89","Windows","10.0","48337","","{""Age"":""22"",""Nation"":""中国"",""Born"":""江苏省"",""Live"":""上海"",""Ethnic"":""汉"",""Alipay"":""13979549914""}",""
"","","","","","survey-multi-choice","135","320745","0.0-8.0","84","1","2022-10-07 08:09:15","d60b49b5908c80e163b920d72b52d584","106.224.213.48","Mozilla/5.0 (Windows NT 10.0; WOW64) AppleWebKit/537.36 (KHTML, like Gecko) Chrome/84.0.4147.89 Safari/537.36 SLBrowser/7.0.0.12151 SLBChan/103","WebKit","Chrome","84.0.4147.89","Windows","10.0","17996","","{""Gender"":""男"",""Education"":""本科毕业"",""Income"":""￥270,000-￥489,999"",""Children"":""0"",""Race"":""亚洲人""}","[0,1,2,3,4]"
"","","","","","survey-multi-select","136","347954","0.0-9.0","84","1","2022-10-07 08:09:15","d60b49b5908c80e163b920d72b52d584","106.224.213.48","Mozilla/5.0 (Windows NT 10.0; WOW64) AppleWebKit/537.36 (KHTML, like Gecko) Chrome/84.0.4147.89 Safari/537.36 SLBrowser/7.0.0.12151 SLBChan/103","WebKit","Chrome","84.0.4147.89","Windows","10.0","27201","","{""Marriage"":[""其他""],""Religion"":[""无宗教信仰""]}","[0,1]"
"","","","","","survey-multi-choice","137","350801","0.0-10.0","84","1","2022-10-07 08:09:15","d60b49b5908c80e163b920d72b52d584","106.224.213.48","Mozilla/5.0 (Windows NT 10.0; WOW64) AppleWebKit/537.36 (KHTML, like Gecko) Chrome/84.0.4147.89 Safari/537.36 SLBrowser/7.0.0.12151 SLBChan/103","WebKit","Chrome","84.0.4147.89","Windows","10.0","2840","","{""SES"":""5""}","[0]"
"","","","","","html-button-response","138","352145","0.0-11.0","84","1","2022-10-07 08:09:15","d60b49b5908c80e163b920d72b52d584","106.224.213.48","Mozilla/5.0 (Windows NT 10.0; WOW64) AppleWebKit/537.36 (KHTML, like Gecko) Chrome/84.0.4147.89 Safari/537.36 SLBrowser/7.0.0.12151 SLBChan/103","WebKit","Chrome","84.0.4147.89","Windows","10.0","1339","<p><strong>请判断下列陈述在多大程度上可以形容你？</p><p> (1 = ""和我一点都不像"" to 5 = ""非常像我"".)</strong></p>","0",""
"","","","","","survey-likert","139","403971","0.0-12.0","84","1","2022-10-07 08:09:15","d60b49b5908c80e163b920d72b52d584","106.224.213.48","Mozilla/5.0 (Windows NT 10.0; WOW64) AppleWebKit/537.36 (KHTML, like Gecko) Chrome/84.0.4147.89 Safari/537.36 SLBrowser/7.0.0.12151 SLBChan/103","WebKit","Chrome","84.0.4147.89","Windows","10.0","51821","","{""Aggression1"":1,""Aggression2"":0,""Aggression3"":1,""Aggression4"":1,""Aggression5"":2,""Aggression6"":3,""Aggression7"":4,""Aggression8"":0,""Aggression9"":3}","[0,1,2,3,4,5,6,7,8]"
"","","","","","html-button-response","140","405176","0.0-13.0","84","1","2022-10-07 08:09:15","d60b49b5908c80e163b920d72b52d584","106.224.213.48","Mozilla/5.0 (Windows NT 10.0; WOW64) AppleWebKit/537.36 (KHTML, like Gecko) Chrome/84.0.4147.89 Safari/537.36 SLBrowser/7.0.0.12151 SLBChan/103","WebKit","Chrome","84.0.4147.89","Windows","10.0","1200","<p><strong>请判断你在多大程度上同意下列陈述。</strong></p>","0",""
"","","","","","survey-likert","141","496251","0.0-14.0","84","1","2022-10-07 08:09:15","d60b49b5908c80e163b920d72b52d584","106.224.213.48","Mozilla/5.0 (Windows NT 10.0; WOW64) AppleWebKit/537.36 (KHTML, like Gecko) Chrome/84.0.4147.89 Safari/537.36 SLBrowser/7.0.0.12151 SLBChan/103","WebKit","Chrome","84.0.4147.89","Windows","10.0","91070","","{""scale8"":3,""scale1"":3,""scale27"":4,""scale6"":3,""scale23"":3,""scale13"":2,""scale12"":3,""scale9"":3,""scale28"":3,""scale25"":4,""scale4"":3,""scale11"":3,""scale20"":3,""scale18"":4,""scale19"":3,""scale17"":2,""scale21"":4,""scale2"":4,""scale3"":3,""scale16"":3,""scale24"":4,""scale10"":3,""scale14"":3,""scale22"":3,""scale26"":4,""scale15"":3,""scale5"":3,""scale7"":3}","[7,0,26,5,22,12,11,8,27,24,3,10,19,17,18,16,20,1,2,15,23,9,13,21,25,14,4,6]"
"","","","","","html-button-response","142","497312","0.0-15.0","84","1","2022-10-07 08:09:15","d60b49b5908c80e163b920d72b52d584","106.224.213.48","Mozilla/5.0 (Windows NT 10.0; WOW64) AppleWebKit/537.36 (KHTML, like Gecko) Chrome/84.0.4147.89 Safari/537.36 SLBrowser/7.0.0.12151 SLBChan/103","WebKit","Chrome","84.0.4147.89","Windows","10.0","1056","<p><strong>请判断你在多大程度上同意下列陈述。</strong></p>","0",""
"","","","","","survey-likert","143","519524","0.0-16.0","84","1","2022-10-07 08:09:15","d60b49b5908c80e163b920d72b52d584","106.224.213.48","Mozilla/5.0 (Windows NT 10.0; WOW64) AppleWebKit/537.36 (KHTML, like Gecko) Chrome/84.0.4147.89 Safari/537.36 SLBrowser/7.0.0.12151 SLBChan/103","WebKit","Chrome","84.0.4147.89","Windows","10.0","22207","","{""sdo5"":5,""sdo14"":6,""sdo1"":4,""sdo8"":5,""sdo9"":6,""sdo16"":5,""sdo6"":4,""sdo10"":4,""sdo4"":5,""sdo3"":4,""sdo13"":4,""sdo12"":5,""sdo11"":5,""sdo15"":5,""sdo7"":4,""sdo2"":5}","[4,13,0,7,8,15,5,9,3,2,12,11,10,14,6,1]"
"","","","","","html-button-response","144","520697","0.0-17.0","84","1","2022-10-07 08:09:15","d60b49b5908c80e163b920d72b52d584","106.224.213.48","Mozilla/5.0 (Windows NT 10.0; WOW64) AppleWebKit/537.36 (KHTML, like Gecko) Chrome/84.0.4147.89 Safari/537.36 SLBrowser/7.0.0.12151 SLBChan/103","WebKit","Chrome","84.0.4147.89","Windows","10.0","1167","<p><strong>请判断你在多大程度上同意下列陈述。</strong></p>","0",""
"","","","","","survey-likert","145","543876","0.0-18.0","84","1","2022-10-07 08:09:15","d60b49b5908c80e163b920d72b52d584","106.224.213.48","Mozilla/5.0 (Windows NT 10.0; WOW64) AppleWebKit/537.36 (KHTML, like Gecko) Chrome/84.0.4147.89 Safari/537.36 SLBrowser/7.0.0.12151 SLBChan/103","WebKit","Chrome","84.0.4147.89","Windows","10.0","23175","","{""caring1"":4,""liking1"":1,""caring2"":4,""protection1"":3,""liking2"":0,""caring3"":3,""protection2"":4,""liking3"":0,""protection3"":4,""caring4"":3,""liking4"":0,""protection4"":3,""caring5"":3,""liking5"":0,""protection5"":3}","[0,1,2,3,4,5,6,7,8,9,10,11,12,13,14]"
"","","","","","html-button-response","146","549385","0.0-19.0","84","1","2022-10-07 08:09:15","d60b49b5908c80e163b920d72b52d584","106.224.213.48","Mozilla/5.0 (Windows NT 10.0; WOW64) AppleWebKit/537.36 (KHTML, like Gecko) Chrome/84.0.4147.89 Safari/537.36 SLBrowser/7.0.0.12151 SLBChan/103","WebKit","Chrome","84.0.4147.89","Windows","10.0","5503","<p><strong>请判断下列场景中你的内心感受有多柔软。</strong></p>","0",""
"","","","","","survey-likert","147","572034","0.0-20.0","84","1","2022-10-07 08:09:15","d60b49b5908c80e163b920d72b52d584","106.224.213.48","Mozilla/5.0 (Windows NT 10.0; WOW64) AppleWebKit/537.36 (KHTML, like Gecko) Chrome/84.0.4147.89 Safari/537.36 SLBrowser/7.0.0.12151 SLBChan/103","WebKit","Chrome","84.0.4147.89","Windows","10.0","22646","","{""tenderness-positive1"":3,""tenderness-negative1"":4,""tenderness-negative2"":3,""tenderness-positive2"":3,""tenderness-positive3"":3,""tenderness-negative3"":2,""tenderness-positive4"":3,""tendereness-negative4"":4,""tendernness-negative5"":2,""tenderness-positive5"":3}","[0,1,2,3,4,5,6,7,8,9]"
"","","","","","survey-multi-choice","148","577577","0.0-21.0","84","1","2022-10-07 08:09:15","d60b49b5908c80e163b920d72b52d584","106.224.213.48","Mozilla/5.0 (Windows NT 10.0; WOW64) AppleWebKit/537.36 (KHTML, like Gecko) Chrome/84.0.4147.89 Safari/537.36 SLBrowser/7.0.0.12151 SLBChan/103","WebKit","Chrome","84.0.4147.89","Windows","10.0","5538","","{""Attention2"":""每年""}","[0]"
"","","","","","html-button-response","149","579289","0.0-22.0","84","1","2022-10-07 08:09:15","d60b49b5908c80e163b920d72b52d584","106.224.213.48","Mozilla/5.0 (Windows NT 10.0; WOW64) AppleWebKit/537.36 (KHTML, like Gecko) Chrome/84.0.4147.89 Safari/537.36 SLBrowser/7.0.0.12151 SLBChan/103","WebKit","Chrome","84.0.4147.89","Windows","10.0","1705","<p><strong>请判断你在多大程度上同意下列陈述。</strong></p>","0",""
"","","","","","survey-likert","150","687940","0.0-23.0","84","1","2022-10-07 08:09:15","d60b49b5908c80e163b920d72b52d584","106.224.213.48","Mozilla/5.0 (Windows NT 10.0; WOW64) AppleWebKit/537.36 (KHTML, like Gecko) Chrome/84.0.4147.89 Safari/537.36 SLBrowser/7.0.0.12151 SLBChan/103","WebKit","Chrome","84.0.4147.89","Windows","10.0","108646","","{""Nation3"":3,""Nation2"":4,""Nation6"":3,""Patri10"":3,""Nation7"":4,""Patri7"":3,""Patri9"":4,""Patri12"":0,""Nation5"":3,""Patri3"":2,""Patri6"":0,""Patri2"":3,""Patri11"":0,""Patri4"":4,""Nation1"":4,""Nation8"":0,""Patri5"":4,""Nation4"":4,""Patri1"":4,""Patri8"":3}","[14,13,17,9,18,6,8,11,16,2,5,1,10,3,12,19,4,15,0,7]"
"","","","","","html-button-response","151","688937","0.0-24.0","84","1","2022-10-07 08:09:15","d60b49b5908c80e163b920d72b52d584","106.224.213.48","Mozilla/5.0 (Windows NT 10.0; WOW64) AppleWebKit/537.36 (KHTML, like Gecko) Chrome/84.0.4147.89 Safari/537.36 SLBrowser/7.0.0.12151 SLBChan/103","WebKit","Chrome","84.0.4147.89","Windows","10.0","992","<p><strong>请判断你在多大程度上同意下列陈述。</strong></p>","0",""
"","","","","","survey-likert","152","729484","0.0-25.0","84","1","2022-10-07 08:09:15","d60b49b5908c80e163b920d72b52d584","106.224.213.48","Mozilla/5.0 (Windows NT 10.0; WOW64) AppleWebKit/537.36 (KHTML, like Gecko) Chrome/84.0.4147.89 Safari/537.36 SLBrowser/7.0.0.12151 SLBChan/103","WebKit","Chrome","84.0.4147.89","Windows","10.0","40543","","{""hc2"":7,""hc1"":8,""hi2"":7,""vi3"":6,""hi3"":8,""hi4"":7,""vc3"":8,""hi1"":7,""vi4"":6,""vc1"":6,""vi1"":7,""Robot"":6,""vc4"":7,""hc3"":8,""vc2"":8,""hc4"":7,""vi2"":6}","[10,9,1,6,2,3,15,0,8,13,4,7,16,11,14,12,5]"
"","","","","","survey-text","153","742017","0.0-26.0","84","1","2022-10-07 08:09:15","d60b49b5908c80e163b920d72b52d584","106.224.213.48","Mozilla/5.0 (Windows NT 10.0; WOW64) AppleWebKit/537.36 (KHTML, like Gecko) Chrome/84.0.4147.89 Safari/537.36 SLBrowser/7.0.0.12151 SLBChan/103","WebKit","Chrome","84.0.4147.89","Windows","10.0","12523","","{""Comments"":""挺好的""}",""
"","","","","","html-button-response","154","742865","0.0-27.0","84","1","2022-10-07 08:09:15","d60b49b5908c80e163b920d72b52d584","106.224.213.48","Mozilla/5.0 (Windows NT 10.0; WOW64) AppleWebKit/537.36 (KHTML, like Gecko) Chrome/84.0.4147.89 Safari/537.36 SLBrowser/7.0.0.12151 SLBChan/103","WebKit","Chrome","84.0.4147.89","Windows","10.0","845","<strong><p>恭喜你完成了实验！</p><p>感谢您的参与。</p></strong>","0",""
