"success","timeout","failed_images","failed_audio","failed_video","trial_type","trial_index","time_elapsed","internal_node_id","run_id","condition","recorded_at","source_code_version","ip","user_agent","device","browser","browser_version","platform","platform_version","rt","stimulus","response","question_order"
"true","false","[]","[]","[]","preload","0","255","0.0-0.0","86","1","2022-10-07 08:16:38","d60b49b5908c80e163b920d72b52d584","110.185.90.76","Mozilla/5.0 (Windows NT 10.0; Win64; x64) AppleWebKit/537.36 (KHTML, like Gecko) Chrome/90.0.4430.212 Safari/537.36","WebKit","Chrome","90.0.4430.212","Windows","10.0","","","",""
"true","","","","","fullscreen","1","14903","0.0-1.0","86","1","2022-10-07 08:16:38","d60b49b5908c80e163b920d72b52d584","110.185.90.76","Mozilla/5.0 (Windows NT 10.0; Win64; x64) AppleWebKit/537.36 (KHTML, like Gecko) Chrome/90.0.4430.212 Safari/537.36","WebKit","Chrome","90.0.4430.212","Windows","10.0","","","",""
"","","","","","html-button-response","2","25762","0.0-2.0","86","1","2022-10-07 08:16:38","d60b49b5908c80e163b920d72b52d584","110.185.90.76","Mozilla/5.0 (Windows NT 10.0; Win64; x64) AppleWebKit/537.36 (KHTML, like Gecko) Chrome/90.0.4430.212 Safari/537.36","WebKit","Chrome","90.0.4430.212","Windows","10.0","10856","<p style=""font-size:20px;font-weight:bold;"">实验知情同意书</p><p style=""text-align:left;""><strong>实验名称：</strong>社会冲突研究</p><p style=""text-align:left;""><strong>主要研究者：</strong>韩晓春副教授（北京师范大学心理学部）</p><p style=""text-align:left;""><strong>联系方式：</strong>发送邮件至xiaochun.han@bnu.edu.cn</p><p style=""text-align:left;""><strong>研究目的：</strong>研究旨在了解人类面对群体冲突时的决策方式，以及相关的心理学特质。实验调查大约需要20分钟。</p><p style=""text-align:left;""><strong>实验流程：</strong>实验包含两部分。第一部分呈现一系列群体冲突场景，请你决定如何对这些冲突进行反应，大约需要10分钟完成。第二部分包含一系列人口统计学信息收集和心理学问卷，大约需要10分钟完成。</p><p style=""text-align:left;""><strong>参加及退出规则：</strong>参加本实验完全取决于您的个人意愿。在参与过程中，您可以随时退出，并且不用承担任何后果。</p><p style=""text-align:left;""><strong>隐私：</strong>本实验完全匿名进行，不会收集您的姓名或其他能够识别您身份的信息。实验中收集的作答仅用作科学研究使用，可能会在学术期刊/书籍上发表，或者用于教学，您的数据未来可能会和其他研究者或实验室分享，但您的个人身份不会被识别。</p><p style=""text-align:left;""><strong>实验报酬：</strong>实验完成后，您将获得15元人民币报酬，以感谢您的时间和努力。调查问卷中包含几道题目用以测验您作答时的认真度。只有完成全部实验，并且正确回答认真度测验的被试才能获得实验报酬。实验报酬将通过支付宝转账发放。</p><p style=""text-align:left;font-size:20px;""><strong>如果您同意以上实验知情同意书的内容，请点击'同意并且开始实验'按钮；否则请关闭浏览器界面，退出实验。</strong></p>","0",""
"","","","","","html-button-response","3","37048","0.0-3.0","86","1","2022-10-07 08:16:38","d60b49b5908c80e163b920d72b52d584","110.185.90.76","Mozilla/5.0 (Windows NT 10.0; Win64; x64) AppleWebKit/537.36 (KHTML, like Gecko) Chrome/90.0.4430.212 Safari/537.36","WebKit","Chrome","90.0.4430.212","Windows","10.0","11284","<p ><strong>实验任务一：</strong></p><p>请想象你的国家与另一个国家发生了军事冲突。</p><p>你是国家军队的指挥官，你将如何在冲突中进行决策。</p><p>具体来说，作为军队指挥官，请你决定是否发射导弹进行打击。</p><p>接下来，你会面对一系列场景，请仔细阅读每个场景，然后进行决策。</p><p>这部分实验任务大约需要10分钟。</p><p><strong>实验过程中，请集中注意力。</strong></p>","0",""
"","","","","","html-keyboard-response","4","38051","0.0-4.0-0.0","86","1","2022-10-07 08:16:38","d60b49b5908c80e163b920d72b52d584","110.185.90.76","Mozilla/5.0 (Windows NT 10.0; Win64; x64) AppleWebKit/537.36 (KHTML, like Gecko) Chrome/90.0.4430.212 Safari/537.36","WebKit","Chrome","90.0.4430.212","Windows","10.0","null","<div style=""font-size:60px;"">+</div>","null",""
"","","","","","html-button-response","5","55080","0.0-4.0-1.0","86","1","2022-10-07 08:16:38","d60b49b5908c80e163b920d72b52d584","110.185.90.76","Mozilla/5.0 (Windows NT 10.0; Win64; x64) AppleWebKit/537.36 (KHTML, like Gecko) Chrome/90.0.4430.212 Safari/537.36","WebKit","Chrome","90.0.4430.212","Windows","10.0","17026","<p>作为军队的指挥官，你可以选择发射导弹杀死 <strong>1名</strong> 敌国士兵，但会炸毁附近的 <strong>1棵</strong> 敌国树木。</p> <p>树木的照片如下图所示。</p> <p></p> <img src='stimuli/trees/10.png', style='max-width: 30%;'> </img> <p><strong>你是否选择发射武器？</strong></p>","1",""
"","","","","","html-keyboard-response","6","56095","0.0-4.0-0.1","86","1","2022-10-07 08:16:38","d60b49b5908c80e163b920d72b52d584","110.185.90.76","Mozilla/5.0 (Windows NT 10.0; Win64; x64) AppleWebKit/537.36 (KHTML, like Gecko) Chrome/90.0.4430.212 Safari/537.36","WebKit","Chrome","90.0.4430.212","Windows","10.0","null","<div style=""font-size:60px;"">+</div>","null",""
"","","","","","html-button-response","7","65312","0.0-4.0-1.1","86","1","2022-10-07 08:16:38","d60b49b5908c80e163b920d72b52d584","110.185.90.76","Mozilla/5.0 (Windows NT 10.0; Win64; x64) AppleWebKit/537.36 (KHTML, like Gecko) Chrome/90.0.4430.212 Safari/537.36","WebKit","Chrome","90.0.4430.212","Windows","10.0","9215","<p>作为军队的指挥官，你可以选择发射导弹杀死 <strong>6名</strong> 敌国士兵，但会误杀附近的 <strong>1名</strong> 敌国平民。</p> <p>平民照片如下图所示。</p> <p></p> <img src='stimuli/faces/NCM6.jpg', style='max-width: 30%;'> </img> <p><strong>你是否选择发射武器？</strong></p>","1",""
"","","","","","html-keyboard-response","8","66313","0.0-4.0-0.2","86","1","2022-10-07 08:16:38","d60b49b5908c80e163b920d72b52d584","110.185.90.76","Mozilla/5.0 (Windows NT 10.0; Win64; x64) AppleWebKit/537.36 (KHTML, like Gecko) Chrome/90.0.4430.212 Safari/537.36","WebKit","Chrome","90.0.4430.212","Windows","10.0","null","<div style=""font-size:60px;"">+</div>","null",""
"","","","","","html-button-response","9","78535","0.0-4.0-1.2","86","1","2022-10-07 08:16:38","d60b49b5908c80e163b920d72b52d584","110.185.90.76","Mozilla/5.0 (Windows NT 10.0; Win64; x64) AppleWebKit/537.36 (KHTML, like Gecko) Chrome/90.0.4430.212 Safari/537.36","WebKit","Chrome","90.0.4430.212","Windows","10.0","12220","<p>作为军队的指挥官，你可以选择发射导弹杀死 <strong>7名</strong> 敌国士兵，但会炸毁附近的 <strong>1棵</strong> 敌国树木。</p> <p>树木的照片如下图所示。</p> <p></p> <img src='stimuli/trees/16.png', style='max-width: 30%;'> </img> <p><strong>你是否选择发射武器？</strong></p>","1",""
"","","","","","html-keyboard-response","10","79537","0.0-4.0-0.3","86","1","2022-10-07 08:16:38","d60b49b5908c80e163b920d72b52d584","110.185.90.76","Mozilla/5.0 (Windows NT 10.0; Win64; x64) AppleWebKit/537.36 (KHTML, like Gecko) Chrome/90.0.4430.212 Safari/537.36","WebKit","Chrome","90.0.4430.212","Windows","10.0","null","<div style=""font-size:60px;"">+</div>","null",""
"","","","","","html-button-response","11","82753","0.0-4.0-1.3","86","1","2022-10-07 08:16:38","d60b49b5908c80e163b920d72b52d584","110.185.90.76","Mozilla/5.0 (Windows NT 10.0; Win64; x64) AppleWebKit/537.36 (KHTML, like Gecko) Chrome/90.0.4430.212 Safari/537.36","WebKit","Chrome","90.0.4430.212","Windows","10.0","3214","<p>作为军队的指挥官，你可以选择发射导弹杀死 <strong>7名</strong> 敌国士兵，但会误杀附近的 <strong>1名</strong> 敌国平民。</p> <p>平民照片如下图所示。</p> <p></p> <img src='stimuli/faces/NCF1.jpg', style='max-width: 30%;'> </img> <p><strong>你是否选择发射武器？</strong></p>","1",""
"","","","","","html-keyboard-response","12","83755","0.0-4.0-0.4","86","1","2022-10-07 08:16:38","d60b49b5908c80e163b920d72b52d584","110.185.90.76","Mozilla/5.0 (Windows NT 10.0; Win64; x64) AppleWebKit/537.36 (KHTML, like Gecko) Chrome/90.0.4430.212 Safari/537.36","WebKit","Chrome","90.0.4430.212","Windows","10.0","null","<div style=""font-size:60px;"">+</div>","null",""
"","","","","","html-button-response","13","97992","0.0-4.0-1.4","86","1","2022-10-07 08:16:38","d60b49b5908c80e163b920d72b52d584","110.185.90.76","Mozilla/5.0 (Windows NT 10.0; Win64; x64) AppleWebKit/537.36 (KHTML, like Gecko) Chrome/90.0.4430.212 Safari/537.36","WebKit","Chrome","90.0.4430.212","Windows","10.0","14235","<p>作为军队的指挥官，你可以选择发射导弹杀死 <strong>6名</strong> 敌国士兵，但会炸毁附近的 <strong>1棵</strong> 敌国树木。</p> <p>树木的照片如下图所示。</p> <p></p> <img src='stimuli/trees/3.png', style='max-width: 30%;'> </img> <p><strong>你是否选择发射武器？</strong></p>","1",""
"","","","","","html-keyboard-response","14","98995","0.0-4.0-0.5","86","1","2022-10-07 08:16:38","d60b49b5908c80e163b920d72b52d584","110.185.90.76","Mozilla/5.0 (Windows NT 10.0; Win64; x64) AppleWebKit/537.36 (KHTML, like Gecko) Chrome/90.0.4430.212 Safari/537.36","WebKit","Chrome","90.0.4430.212","Windows","10.0","null","<div style=""font-size:60px;"">+</div>","null",""
"","","","","","html-button-response","15","102991","0.0-4.0-1.5","86","1","2022-10-07 08:16:38","d60b49b5908c80e163b920d72b52d584","110.185.90.76","Mozilla/5.0 (Windows NT 10.0; Win64; x64) AppleWebKit/537.36 (KHTML, like Gecko) Chrome/90.0.4430.212 Safari/537.36","WebKit","Chrome","90.0.4430.212","Windows","10.0","3994","<p>作为军队的指挥官，你可以选择发射导弹杀死 <strong>4名</strong> 敌国士兵，但会误杀附近的 <strong>1名</strong> 敌国平民。</p> <p>平民照片如下图所示。</p> <p></p> <img src='stimuli/faces/NCM3.jpg', style='max-width: 30%;'> </img> <p><strong>你是否选择发射武器？</strong></p>","1",""
"","","","","","html-keyboard-response","16","103993","0.0-4.0-0.6","86","1","2022-10-07 08:16:38","d60b49b5908c80e163b920d72b52d584","110.185.90.76","Mozilla/5.0 (Windows NT 10.0; Win64; x64) AppleWebKit/537.36 (KHTML, like Gecko) Chrome/90.0.4430.212 Safari/537.36","WebKit","Chrome","90.0.4430.212","Windows","10.0","null","<div style=""font-size:60px;"">+</div>","null",""
"","","","","","html-button-response","17","108567","0.0-4.0-1.6","86","1","2022-10-07 08:16:38","d60b49b5908c80e163b920d72b52d584","110.185.90.76","Mozilla/5.0 (Windows NT 10.0; Win64; x64) AppleWebKit/537.36 (KHTML, like Gecko) Chrome/90.0.4430.212 Safari/537.36","WebKit","Chrome","90.0.4430.212","Windows","10.0","4573","<p>作为军队的指挥官，你可以选择发射导弹杀死 <strong>10名</strong> 敌国士兵，但会炸毁附近的 <strong>1棵</strong> 敌国树木。</p> <p>树木的照片如下图所示。</p> <p></p> <img src='stimuli/trees/15.png', style='max-width: 30%;'> </img> <p><strong>你是否选择发射武器？</strong></p>","0",""
"","","","","","html-keyboard-response","18","109569","0.0-4.0-0.7","86","1","2022-10-07 08:16:38","d60b49b5908c80e163b920d72b52d584","110.185.90.76","Mozilla/5.0 (Windows NT 10.0; Win64; x64) AppleWebKit/537.36 (KHTML, like Gecko) Chrome/90.0.4430.212 Safari/537.36","WebKit","Chrome","90.0.4430.212","Windows","10.0","null","<div style=""font-size:60px;"">+</div>","null",""
"","","","","","html-button-response","19","113001","0.0-4.0-1.7","86","1","2022-10-07 08:16:38","d60b49b5908c80e163b920d72b52d584","110.185.90.76","Mozilla/5.0 (Windows NT 10.0; Win64; x64) AppleWebKit/537.36 (KHTML, like Gecko) Chrome/90.0.4430.212 Safari/537.36","WebKit","Chrome","90.0.4430.212","Windows","10.0","3430","<p>作为军队的指挥官，你可以选择发射导弹杀死 <strong>2名</strong> 敌国士兵，但会误杀附近的 <strong>1名</strong> 敌国平民。</p> <p>平民照片如下图所示。</p> <p></p> <img src='stimuli/faces/NCM5.jpg', style='max-width: 30%;'> </img> <p><strong>你是否选择发射武器？</strong></p>","0",""
"","","","","","html-keyboard-response","20","114003","0.0-4.0-0.8","86","1","2022-10-07 08:16:38","d60b49b5908c80e163b920d72b52d584","110.185.90.76","Mozilla/5.0 (Windows NT 10.0; Win64; x64) AppleWebKit/537.36 (KHTML, like Gecko) Chrome/90.0.4430.212 Safari/537.36","WebKit","Chrome","90.0.4430.212","Windows","10.0","null","<div style=""font-size:60px;"">+</div>","null",""
"","","","","","html-button-response","21","116488","0.0-4.0-1.8","86","1","2022-10-07 08:16:38","d60b49b5908c80e163b920d72b52d584","110.185.90.76","Mozilla/5.0 (Windows NT 10.0; Win64; x64) AppleWebKit/537.36 (KHTML, like Gecko) Chrome/90.0.4430.212 Safari/537.36","WebKit","Chrome","90.0.4430.212","Windows","10.0","2483","<p>作为军队的指挥官，你可以选择发射导弹杀死 <strong>8名</strong> 敌国士兵，但会炸毁附近的 <strong>1棵</strong> 敌国树木。</p> <p>树木的照片如下图所示。</p> <p></p> <img src='stimuli/trees/5.png', style='max-width: 30%;'> </img> <p><strong>你是否选择发射武器？</strong></p>","0",""
"","","","","","html-keyboard-response","22","117498","0.0-4.0-0.9","86","1","2022-10-07 08:16:38","d60b49b5908c80e163b920d72b52d584","110.185.90.76","Mozilla/5.0 (Windows NT 10.0; Win64; x64) AppleWebKit/537.36 (KHTML, like Gecko) Chrome/90.0.4430.212 Safari/537.36","WebKit","Chrome","90.0.4430.212","Windows","10.0","null","<div style=""font-size:60px;"">+</div>","null",""
"","","","","","html-button-response","23","121689","0.0-4.0-1.9","86","1","2022-10-07 08:16:38","d60b49b5908c80e163b920d72b52d584","110.185.90.76","Mozilla/5.0 (Windows NT 10.0; Win64; x64) AppleWebKit/537.36 (KHTML, like Gecko) Chrome/90.0.4430.212 Safari/537.36","WebKit","Chrome","90.0.4430.212","Windows","10.0","4189","<p>作为军队的指挥官，你可以选择发射导弹杀死 <strong>2名</strong> 敌国士兵，但会误杀附近的 <strong>1名</strong> 敌国平民。</p> <p>平民照片如下图所示。</p> <p></p> <img src='stimuli/faces/NCF5.jpg', style='max-width: 30%;'> </img> <p><strong>你是否选择发射武器？</strong></p>","1",""
"","","","","","html-keyboard-response","24","122690","0.0-4.0-0.10","86","1","2022-10-07 08:16:38","d60b49b5908c80e163b920d72b52d584","110.185.90.76","Mozilla/5.0 (Windows NT 10.0; Win64; x64) AppleWebKit/537.36 (KHTML, like Gecko) Chrome/90.0.4430.212 Safari/537.36","WebKit","Chrome","90.0.4430.212","Windows","10.0","null","<div style=""font-size:60px;"">+</div>","null",""
"","","","","","html-button-response","25","127248","0.0-4.0-1.10","86","1","2022-10-07 08:16:38","d60b49b5908c80e163b920d72b52d584","110.185.90.76","Mozilla/5.0 (Windows NT 10.0; Win64; x64) AppleWebKit/537.36 (KHTML, like Gecko) Chrome/90.0.4430.212 Safari/537.36","WebKit","Chrome","90.0.4430.212","Windows","10.0","4555","<p>作为军队的指挥官，你可以选择发射导弹杀死 <strong>5名</strong> 敌国士兵，但会炸毁附近的 <strong>1棵</strong> 敌国树木。</p> <p>树木的照片如下图所示。</p> <p></p> <img src='stimuli/trees/3.png', style='max-width: 30%;'> </img> <p><strong>你是否选择发射武器？</strong></p>","0",""
"","","","","","html-keyboard-response","26","128249","0.0-4.0-0.11","86","1","2022-10-07 08:16:38","d60b49b5908c80e163b920d72b52d584","110.185.90.76","Mozilla/5.0 (Windows NT 10.0; Win64; x64) AppleWebKit/537.36 (KHTML, like Gecko) Chrome/90.0.4430.212 Safari/537.36","WebKit","Chrome","90.0.4430.212","Windows","10.0","null","<div style=""font-size:60px;"">+</div>","null",""
"","","","","","html-button-response","27","132407","0.0-4.0-1.11","86","1","2022-10-07 08:16:38","d60b49b5908c80e163b920d72b52d584","110.185.90.76","Mozilla/5.0 (Windows NT 10.0; Win64; x64) AppleWebKit/537.36 (KHTML, like Gecko) Chrome/90.0.4430.212 Safari/537.36","WebKit","Chrome","90.0.4430.212","Windows","10.0","4156","<p>作为军队的指挥官，你可以选择发射导弹杀死 <strong>7名</strong> 敌国士兵，但会误杀附近的 <strong>1名</strong> 敌国平民。</p> <p>平民照片如下图所示。</p> <p></p> <img src='stimuli/faces/NCF3.jpg', style='max-width: 30%;'> </img> <p><strong>你是否选择发射武器？</strong></p>","1",""
"","","","","","html-keyboard-response","28","133409","0.0-4.0-0.12","86","1","2022-10-07 08:16:38","d60b49b5908c80e163b920d72b52d584","110.185.90.76","Mozilla/5.0 (Windows NT 10.0; Win64; x64) AppleWebKit/537.36 (KHTML, like Gecko) Chrome/90.0.4430.212 Safari/537.36","WebKit","Chrome","90.0.4430.212","Windows","10.0","null","<div style=""font-size:60px;"">+</div>","null",""
"","","","","","html-button-response","29","136039","0.0-4.0-1.12","86","1","2022-10-07 08:16:38","d60b49b5908c80e163b920d72b52d584","110.185.90.76","Mozilla/5.0 (Windows NT 10.0; Win64; x64) AppleWebKit/537.36 (KHTML, like Gecko) Chrome/90.0.4430.212 Safari/537.36","WebKit","Chrome","90.0.4430.212","Windows","10.0","2629","<p>作为军队的指挥官，你可以选择发射导弹杀死 <strong>1名</strong> 敌国士兵，但会误杀附近的 <strong>1名</strong> 敌国平民。</p> <p>平民照片如下图所示。</p> <p></p> <img src='stimuli/faces/NCM8.jpg', style='max-width: 30%;'> </img> <p><strong>你是否选择发射武器？</strong></p>","1",""
"","","","","","html-keyboard-response","30","137041","0.0-4.0-0.13","86","1","2022-10-07 08:16:38","d60b49b5908c80e163b920d72b52d584","110.185.90.76","Mozilla/5.0 (Windows NT 10.0; Win64; x64) AppleWebKit/537.36 (KHTML, like Gecko) Chrome/90.0.4430.212 Safari/537.36","WebKit","Chrome","90.0.4430.212","Windows","10.0","null","<div style=""font-size:60px;"">+</div>","null",""
"","","","","","html-button-response","31","138991","0.0-4.0-1.13","86","1","2022-10-07 08:16:38","d60b49b5908c80e163b920d72b52d584","110.185.90.76","Mozilla/5.0 (Windows NT 10.0; Win64; x64) AppleWebKit/537.36 (KHTML, like Gecko) Chrome/90.0.4430.212 Safari/537.36","WebKit","Chrome","90.0.4430.212","Windows","10.0","1949","<p>作为军队的指挥官，你可以选择发射导弹杀死 <strong>3名</strong> 敌国士兵，但会炸毁附近的 <strong>1棵</strong> 敌国树木。</p> <p>树木的照片如下图所示。</p> <p></p> <img src='stimuli/trees/15.png', style='max-width: 30%;'> </img> <p><strong>你是否选择发射武器？</strong></p>","0",""
"","","","","","html-keyboard-response","32","140007","0.0-4.0-0.14","86","1","2022-10-07 08:16:38","d60b49b5908c80e163b920d72b52d584","110.185.90.76","Mozilla/5.0 (Windows NT 10.0; Win64; x64) AppleWebKit/537.36 (KHTML, like Gecko) Chrome/90.0.4430.212 Safari/537.36","WebKit","Chrome","90.0.4430.212","Windows","10.0","null","<div style=""font-size:60px;"">+</div>","null",""
"","","","","","html-button-response","33","142279","0.0-4.0-1.14","86","1","2022-10-07 08:16:38","d60b49b5908c80e163b920d72b52d584","110.185.90.76","Mozilla/5.0 (Windows NT 10.0; Win64; x64) AppleWebKit/537.36 (KHTML, like Gecko) Chrome/90.0.4430.212 Safari/537.36","WebKit","Chrome","90.0.4430.212","Windows","10.0","2269","<p>作为军队的指挥官，你可以选择发射导弹杀死 <strong>4名</strong> 敌国士兵，但会炸毁附近的 <strong>1棵</strong> 敌国树木。</p> <p>树木的照片如下图所示。</p> <p></p> <img src='stimuli/trees/13.png', style='max-width: 30%;'> </img> <p><strong>你是否选择发射武器？</strong></p>","0",""
"","","","","","html-keyboard-response","34","143281","0.0-4.0-0.15","86","1","2022-10-07 08:16:38","d60b49b5908c80e163b920d72b52d584","110.185.90.76","Mozilla/5.0 (Windows NT 10.0; Win64; x64) AppleWebKit/537.36 (KHTML, like Gecko) Chrome/90.0.4430.212 Safari/537.36","WebKit","Chrome","90.0.4430.212","Windows","10.0","null","<div style=""font-size:60px;"">+</div>","null",""
"","","","","","html-button-response","35","146583","0.0-4.0-1.15","86","1","2022-10-07 08:16:38","d60b49b5908c80e163b920d72b52d584","110.185.90.76","Mozilla/5.0 (Windows NT 10.0; Win64; x64) AppleWebKit/537.36 (KHTML, like Gecko) Chrome/90.0.4430.212 Safari/537.36","WebKit","Chrome","90.0.4430.212","Windows","10.0","3301","<p>作为军队的指挥官，你可以选择发射导弹杀死 <strong>9名</strong> 敌国士兵，但会误杀附近的 <strong>1名</strong> 敌国平民。</p> <p>平民照片如下图所示。</p> <p></p> <img src='stimuli/faces/NCM8.jpg', style='max-width: 30%;'> </img> <p><strong>你是否选择发射武器？</strong></p>","0",""
"","","","","","html-keyboard-response","36","147586","0.0-4.0-0.16","86","1","2022-10-07 08:16:38","d60b49b5908c80e163b920d72b52d584","110.185.90.76","Mozilla/5.0 (Windows NT 10.0; Win64; x64) AppleWebKit/537.36 (KHTML, like Gecko) Chrome/90.0.4430.212 Safari/537.36","WebKit","Chrome","90.0.4430.212","Windows","10.0","null","<div style=""font-size:60px;"">+</div>","null",""
"","","","","","html-button-response","37","175783","0.0-4.0-1.16","86","1","2022-10-07 08:16:38","d60b49b5908c80e163b920d72b52d584","110.185.90.76","Mozilla/5.0 (Windows NT 10.0; Win64; x64) AppleWebKit/537.36 (KHTML, like Gecko) Chrome/90.0.4430.212 Safari/537.36","WebKit","Chrome","90.0.4430.212","Windows","10.0","28195","<p>作为军队的指挥官，你可以选择发射导弹杀死 <strong>4名</strong> 敌国士兵，但会误杀附近的 <strong>1名</strong> 敌国平民。</p> <p>平民照片如下图所示。</p> <p></p> <img src='stimuli/faces/NCM7.jpg', style='max-width: 30%;'> </img> <p><strong>你是否选择发射武器？</strong></p>","0",""
"","","","","","html-keyboard-response","38","176787","0.0-4.0-0.17","86","1","2022-10-07 08:16:38","d60b49b5908c80e163b920d72b52d584","110.185.90.76","Mozilla/5.0 (Windows NT 10.0; Win64; x64) AppleWebKit/537.36 (KHTML, like Gecko) Chrome/90.0.4430.212 Safari/537.36","WebKit","Chrome","90.0.4430.212","Windows","10.0","null","<div style=""font-size:60px;"">+</div>","null",""
"","","","","","html-button-response","39","178799","0.0-4.0-1.17","86","1","2022-10-07 08:16:38","d60b49b5908c80e163b920d72b52d584","110.185.90.76","Mozilla/5.0 (Windows NT 10.0; Win64; x64) AppleWebKit/537.36 (KHTML, like Gecko) Chrome/90.0.4430.212 Safari/537.36","WebKit","Chrome","90.0.4430.212","Windows","10.0","2011","<p>作为军队的指挥官，你可以选择发射导弹杀死 <strong>2名</strong> 敌国士兵，但会误杀附近的 <strong>1名</strong> 敌国平民。</p> <p>平民照片如下图所示。</p> <p></p> <img src='stimuli/faces/NCF3.jpg', style='max-width: 30%;'> </img> <p><strong>你是否选择发射武器？</strong></p>","0",""
"","","","","","html-keyboard-response","40","179803","0.0-4.0-0.18","86","1","2022-10-07 08:16:38","d60b49b5908c80e163b920d72b52d584","110.185.90.76","Mozilla/5.0 (Windows NT 10.0; Win64; x64) AppleWebKit/537.36 (KHTML, like Gecko) Chrome/90.0.4430.212 Safari/537.36","WebKit","Chrome","90.0.4430.212","Windows","10.0","null","<div style=""font-size:60px;"">+</div>","null",""
"","","","","","html-button-response","41","181697","0.0-4.0-1.18","86","1","2022-10-07 08:16:38","d60b49b5908c80e163b920d72b52d584","110.185.90.76","Mozilla/5.0 (Windows NT 10.0; Win64; x64) AppleWebKit/537.36 (KHTML, like Gecko) Chrome/90.0.4430.212 Safari/537.36","WebKit","Chrome","90.0.4430.212","Windows","10.0","1892","<p>作为军队的指挥官，你可以选择发射导弹杀死 <strong>8名</strong> 敌国士兵，但会炸毁附近的 <strong>1棵</strong> 敌国树木。</p> <p>树木的照片如下图所示。</p> <p></p> <img src='stimuli/trees/10.png', style='max-width: 30%;'> </img> <p><strong>你是否选择发射武器？</strong></p>","0",""
"","","","","","html-keyboard-response","42","182698","0.0-4.0-0.19","86","1","2022-10-07 08:16:38","d60b49b5908c80e163b920d72b52d584","110.185.90.76","Mozilla/5.0 (Windows NT 10.0; Win64; x64) AppleWebKit/537.36 (KHTML, like Gecko) Chrome/90.0.4430.212 Safari/537.36","WebKit","Chrome","90.0.4430.212","Windows","10.0","null","<div style=""font-size:60px;"">+</div>","null",""
"","","","","","html-button-response","43","184209","0.0-4.0-1.19","86","1","2022-10-07 08:16:38","d60b49b5908c80e163b920d72b52d584","110.185.90.76","Mozilla/5.0 (Windows NT 10.0; Win64; x64) AppleWebKit/537.36 (KHTML, like Gecko) Chrome/90.0.4430.212 Safari/537.36","WebKit","Chrome","90.0.4430.212","Windows","10.0","1509","<p>作为军队的指挥官，你可以选择发射导弹杀死 <strong>9名</strong> 敌国士兵，但会误杀附近的 <strong>1名</strong> 敌国平民。</p> <p>平民照片如下图所示。</p> <p></p> <img src='stimuli/faces/NCM5.jpg', style='max-width: 30%;'> </img> <p><strong>你是否选择发射武器？</strong></p>","0",""
"","","","","","html-keyboard-response","44","185211","0.0-4.0-0.20","86","1","2022-10-07 08:16:38","d60b49b5908c80e163b920d72b52d584","110.185.90.76","Mozilla/5.0 (Windows NT 10.0; Win64; x64) AppleWebKit/537.36 (KHTML, like Gecko) Chrome/90.0.4430.212 Safari/537.36","WebKit","Chrome","90.0.4430.212","Windows","10.0","null","<div style=""font-size:60px;"">+</div>","null",""
"","","","","","html-button-response","45","186847","0.0-4.0-1.20","86","1","2022-10-07 08:16:38","d60b49b5908c80e163b920d72b52d584","110.185.90.76","Mozilla/5.0 (Windows NT 10.0; Win64; x64) AppleWebKit/537.36 (KHTML, like Gecko) Chrome/90.0.4430.212 Safari/537.36","WebKit","Chrome","90.0.4430.212","Windows","10.0","1634","<p>作为军队的指挥官，你可以选择发射导弹杀死 <strong>3名</strong> 敌国士兵，但会炸毁附近的 <strong>1棵</strong> 敌国树木。</p> <p>树木的照片如下图所示。</p> <p></p> <img src='stimuli/trees/7.png', style='max-width: 30%;'> </img> <p><strong>你是否选择发射武器？</strong></p>","0",""
"","","","","","html-keyboard-response","46","187850","0.0-4.0-0.21","86","1","2022-10-07 08:16:38","d60b49b5908c80e163b920d72b52d584","110.185.90.76","Mozilla/5.0 (Windows NT 10.0; Win64; x64) AppleWebKit/537.36 (KHTML, like Gecko) Chrome/90.0.4430.212 Safari/537.36","WebKit","Chrome","90.0.4430.212","Windows","10.0","null","<div style=""font-size:60px;"">+</div>","null",""
"","","","","","html-button-response","47","190231","0.0-4.0-1.21","86","1","2022-10-07 08:16:38","d60b49b5908c80e163b920d72b52d584","110.185.90.76","Mozilla/5.0 (Windows NT 10.0; Win64; x64) AppleWebKit/537.36 (KHTML, like Gecko) Chrome/90.0.4430.212 Safari/537.36","WebKit","Chrome","90.0.4430.212","Windows","10.0","2380","<p>作为军队的指挥官，你可以选择发射导弹杀死 <strong>6名</strong> 敌国士兵，但会误杀附近的 <strong>1名</strong> 敌国平民。</p> <p>平民照片如下图所示。</p> <p></p> <img src='stimuli/faces/NCF7.jpg', style='max-width: 30%;'> </img> <p><strong>你是否选择发射武器？</strong></p>","1",""
"","","","","","html-keyboard-response","48","191235","0.0-4.0-0.22","86","1","2022-10-07 08:16:38","d60b49b5908c80e163b920d72b52d584","110.185.90.76","Mozilla/5.0 (Windows NT 10.0; Win64; x64) AppleWebKit/537.36 (KHTML, like Gecko) Chrome/90.0.4430.212 Safari/537.36","WebKit","Chrome","90.0.4430.212","Windows","10.0","null","<div style=""font-size:60px;"">+</div>","null",""
"","","","","","html-button-response","49","195455","0.0-4.0-1.22","86","1","2022-10-07 08:16:38","d60b49b5908c80e163b920d72b52d584","110.185.90.76","Mozilla/5.0 (Windows NT 10.0; Win64; x64) AppleWebKit/537.36 (KHTML, like Gecko) Chrome/90.0.4430.212 Safari/537.36","WebKit","Chrome","90.0.4430.212","Windows","10.0","4218","<p>作为军队的指挥官，你可以选择发射导弹杀死 <strong>1名</strong> 敌国士兵，但会炸毁附近的 <strong>1棵</strong> 敌国树木。</p> <p>树木的照片如下图所示。</p> <p></p> <img src='stimuli/trees/8.png', style='max-width: 30%;'> </img> <p><strong>你是否选择发射武器？</strong></p>","1",""
"","","","","","html-keyboard-response","50","196469","0.0-4.0-0.23","86","1","2022-10-07 08:16:38","d60b49b5908c80e163b920d72b52d584","110.185.90.76","Mozilla/5.0 (Windows NT 10.0; Win64; x64) AppleWebKit/537.36 (KHTML, like Gecko) Chrome/90.0.4430.212 Safari/537.36","WebKit","Chrome","90.0.4430.212","Windows","10.0","null","<div style=""font-size:60px;"">+</div>","null",""
"","","","","","html-button-response","51","198767","0.0-4.0-1.23","86","1","2022-10-07 08:16:38","d60b49b5908c80e163b920d72b52d584","110.185.90.76","Mozilla/5.0 (Windows NT 10.0; Win64; x64) AppleWebKit/537.36 (KHTML, like Gecko) Chrome/90.0.4430.212 Safari/537.36","WebKit","Chrome","90.0.4430.212","Windows","10.0","2294","<p>作为军队的指挥官，你可以选择发射导弹杀死 <strong>2名</strong> 敌国士兵，但会炸毁附近的 <strong>1棵</strong> 敌国树木。</p> <p>树木的照片如下图所示。</p> <p></p> <img src='stimuli/trees/9.png', style='max-width: 30%;'> </img> <p><strong>你是否选择发射武器？</strong></p>","0",""
"","","","","","html-keyboard-response","52","199781","0.0-4.0-0.24","86","1","2022-10-07 08:16:38","d60b49b5908c80e163b920d72b52d584","110.185.90.76","Mozilla/5.0 (Windows NT 10.0; Win64; x64) AppleWebKit/537.36 (KHTML, like Gecko) Chrome/90.0.4430.212 Safari/537.36","WebKit","Chrome","90.0.4430.212","Windows","10.0","null","<div style=""font-size:60px;"">+</div>","null",""
"","","","","","html-button-response","53","203128","0.0-4.0-1.24","86","1","2022-10-07 08:16:38","d60b49b5908c80e163b920d72b52d584","110.185.90.76","Mozilla/5.0 (Windows NT 10.0; Win64; x64) AppleWebKit/537.36 (KHTML, like Gecko) Chrome/90.0.4430.212 Safari/537.36","WebKit","Chrome","90.0.4430.212","Windows","10.0","3344","<p>作为军队的指挥官，你可以选择发射导弹杀死 <strong>1名</strong> 敌国士兵，但会炸毁附近的 <strong>1棵</strong> 敌国树木。</p> <p>树木的照片如下图所示。</p> <p></p> <img src='stimuli/trees/4.png', style='max-width: 30%;'> </img> <p><strong>你是否选择发射武器？</strong></p>","1",""
"","","","","","html-keyboard-response","54","204130","0.0-4.0-0.25","86","1","2022-10-07 08:16:38","d60b49b5908c80e163b920d72b52d584","110.185.90.76","Mozilla/5.0 (Windows NT 10.0; Win64; x64) AppleWebKit/537.36 (KHTML, like Gecko) Chrome/90.0.4430.212 Safari/537.36","WebKit","Chrome","90.0.4430.212","Windows","10.0","null","<div style=""font-size:60px;"">+</div>","null",""
"","","","","","html-button-response","55","205671","0.0-4.0-1.25","86","1","2022-10-07 08:16:38","d60b49b5908c80e163b920d72b52d584","110.185.90.76","Mozilla/5.0 (Windows NT 10.0; Win64; x64) AppleWebKit/537.36 (KHTML, like Gecko) Chrome/90.0.4430.212 Safari/537.36","WebKit","Chrome","90.0.4430.212","Windows","10.0","1539","<p>作为军队的指挥官，你可以选择发射导弹杀死 <strong>9名</strong> 敌国士兵，但会误杀附近的 <strong>1名</strong> 敌国平民。</p> <p>平民照片如下图所示。</p> <p></p> <img src='stimuli/faces/NCM3.jpg', style='max-width: 30%;'> </img> <p><strong>你是否选择发射武器？</strong></p>","0",""
"","","","","","html-keyboard-response","56","206683","0.0-4.0-0.26","86","1","2022-10-07 08:16:38","d60b49b5908c80e163b920d72b52d584","110.185.90.76","Mozilla/5.0 (Windows NT 10.0; Win64; x64) AppleWebKit/537.36 (KHTML, like Gecko) Chrome/90.0.4430.212 Safari/537.36","WebKit","Chrome","90.0.4430.212","Windows","10.0","null","<div style=""font-size:60px;"">+</div>","null",""
"","","","","","html-button-response","57","208783","0.0-4.0-1.26","86","1","2022-10-07 08:16:38","d60b49b5908c80e163b920d72b52d584","110.185.90.76","Mozilla/5.0 (Windows NT 10.0; Win64; x64) AppleWebKit/537.36 (KHTML, like Gecko) Chrome/90.0.4430.212 Safari/537.36","WebKit","Chrome","90.0.4430.212","Windows","10.0","2098","<p>作为军队的指挥官，你可以选择发射导弹杀死 <strong>6名</strong> 敌国士兵，但会误杀附近的 <strong>1名</strong> 敌国平民。</p> <p>平民照片如下图所示。</p> <p></p> <img src='stimuli/faces/NCF4.jpg', style='max-width: 30%;'> </img> <p><strong>你是否选择发射武器？</strong></p>","0",""
"","","","","","html-keyboard-response","58","209799","0.0-4.0-0.27","86","1","2022-10-07 08:16:38","d60b49b5908c80e163b920d72b52d584","110.185.90.76","Mozilla/5.0 (Windows NT 10.0; Win64; x64) AppleWebKit/537.36 (KHTML, like Gecko) Chrome/90.0.4430.212 Safari/537.36","WebKit","Chrome","90.0.4430.212","Windows","10.0","null","<div style=""font-size:60px;"">+</div>","null",""
"","","","","","html-button-response","59","211431","0.0-4.0-1.27","86","1","2022-10-07 08:16:38","d60b49b5908c80e163b920d72b52d584","110.185.90.76","Mozilla/5.0 (Windows NT 10.0; Win64; x64) AppleWebKit/537.36 (KHTML, like Gecko) Chrome/90.0.4430.212 Safari/537.36","WebKit","Chrome","90.0.4430.212","Windows","10.0","1628","<p>作为军队的指挥官，你可以选择发射导弹杀死 <strong>3名</strong> 敌国士兵，但会炸毁附近的 <strong>1棵</strong> 敌国树木。</p> <p>树木的照片如下图所示。</p> <p></p> <img src='stimuli/trees/11.png', style='max-width: 30%;'> </img> <p><strong>你是否选择发射武器？</strong></p>","0",""
"","","","","","html-keyboard-response","60","212447","0.0-4.0-0.28","86","1","2022-10-07 08:16:38","d60b49b5908c80e163b920d72b52d584","110.185.90.76","Mozilla/5.0 (Windows NT 10.0; Win64; x64) AppleWebKit/537.36 (KHTML, like Gecko) Chrome/90.0.4430.212 Safari/537.36","WebKit","Chrome","90.0.4430.212","Windows","10.0","null","<div style=""font-size:60px;"">+</div>","null",""
"","","","","","html-button-response","61","214360","0.0-4.0-1.28","86","1","2022-10-07 08:16:38","d60b49b5908c80e163b920d72b52d584","110.185.90.76","Mozilla/5.0 (Windows NT 10.0; Win64; x64) AppleWebKit/537.36 (KHTML, like Gecko) Chrome/90.0.4430.212 Safari/537.36","WebKit","Chrome","90.0.4430.212","Windows","10.0","1909","<p>作为军队的指挥官，你可以选择发射导弹杀死 <strong>9名</strong> 敌国士兵，但会误杀附近的 <strong>1名</strong> 敌国平民。</p> <p>平民照片如下图所示。</p> <p></p> <img src='stimuli/faces/NCF6.jpg', style='max-width: 30%;'> </img> <p><strong>你是否选择发射武器？</strong></p>","0",""
"","","","","","html-keyboard-response","62","215363","0.0-4.0-0.29","86","1","2022-10-07 08:16:38","d60b49b5908c80e163b920d72b52d584","110.185.90.76","Mozilla/5.0 (Windows NT 10.0; Win64; x64) AppleWebKit/537.36 (KHTML, like Gecko) Chrome/90.0.4430.212 Safari/537.36","WebKit","Chrome","90.0.4430.212","Windows","10.0","null","<div style=""font-size:60px;"">+</div>","null",""
"","","","","","html-button-response","63","216967","0.0-4.0-1.29","86","1","2022-10-07 08:16:38","d60b49b5908c80e163b920d72b52d584","110.185.90.76","Mozilla/5.0 (Windows NT 10.0; Win64; x64) AppleWebKit/537.36 (KHTML, like Gecko) Chrome/90.0.4430.212 Safari/537.36","WebKit","Chrome","90.0.4430.212","Windows","10.0","1602","<p>作为军队的指挥官，你可以选择发射导弹杀死 <strong>10名</strong> 敌国士兵，但会炸毁附近的 <strong>1棵</strong> 敌国树木。</p> <p>树木的照片如下图所示。</p> <p></p> <img src='stimuli/trees/13.png', style='max-width: 30%;'> </img> <p><strong>你是否选择发射武器？</strong></p>","0",""
"","","","","","html-keyboard-response","64","217970","0.0-4.0-0.30","86","1","2022-10-07 08:16:38","d60b49b5908c80e163b920d72b52d584","110.185.90.76","Mozilla/5.0 (Windows NT 10.0; Win64; x64) AppleWebKit/537.36 (KHTML, like Gecko) Chrome/90.0.4430.212 Safari/537.36","WebKit","Chrome","90.0.4430.212","Windows","10.0","null","<div style=""font-size:60px;"">+</div>","null",""
"","","","","","html-button-response","65","219503","0.0-4.0-1.30","86","1","2022-10-07 08:16:38","d60b49b5908c80e163b920d72b52d584","110.185.90.76","Mozilla/5.0 (Windows NT 10.0; Win64; x64) AppleWebKit/537.36 (KHTML, like Gecko) Chrome/90.0.4430.212 Safari/537.36","WebKit","Chrome","90.0.4430.212","Windows","10.0","1531","<p>作为军队的指挥官，你可以选择发射导弹杀死 <strong>10名</strong> 敌国士兵，但会误杀附近的 <strong>1名</strong> 敌国平民。</p> <p>平民照片如下图所示。</p> <p></p> <img src='stimuli/faces/NCM7.jpg', style='max-width: 30%;'> </img> <p><strong>你是否选择发射武器？</strong></p>","0",""
"","","","","","html-keyboard-response","66","220506","0.0-4.0-0.31","86","1","2022-10-07 08:16:38","d60b49b5908c80e163b920d72b52d584","110.185.90.76","Mozilla/5.0 (Windows NT 10.0; Win64; x64) AppleWebKit/537.36 (KHTML, like Gecko) Chrome/90.0.4430.212 Safari/537.36","WebKit","Chrome","90.0.4430.212","Windows","10.0","null","<div style=""font-size:60px;"">+</div>","null",""
"","","","","","html-button-response","67","222136","0.0-4.0-1.31","86","1","2022-10-07 08:16:38","d60b49b5908c80e163b920d72b52d584","110.185.90.76","Mozilla/5.0 (Windows NT 10.0; Win64; x64) AppleWebKit/537.36 (KHTML, like Gecko) Chrome/90.0.4430.212 Safari/537.36","WebKit","Chrome","90.0.4430.212","Windows","10.0","1627","<p>作为军队的指挥官，你可以选择发射导弹杀死 <strong>1名</strong> 敌国士兵，但会误杀附近的 <strong>1名</strong> 敌国平民。</p> <p>平民照片如下图所示。</p> <p></p> <img src='stimuli/faces/NCF2.jpg', style='max-width: 30%;'> </img> <p><strong>你是否选择发射武器？</strong></p>","1",""
"","","","","","html-keyboard-response","68","223139","0.0-4.0-0.32","86","1","2022-10-07 08:16:38","d60b49b5908c80e163b920d72b52d584","110.185.90.76","Mozilla/5.0 (Windows NT 10.0; Win64; x64) AppleWebKit/537.36 (KHTML, like Gecko) Chrome/90.0.4430.212 Safari/537.36","WebKit","Chrome","90.0.4430.212","Windows","10.0","null","<div style=""font-size:60px;"">+</div>","null",""
"","","","","","html-button-response","69","224839","0.0-4.0-1.32","86","1","2022-10-07 08:16:38","d60b49b5908c80e163b920d72b52d584","110.185.90.76","Mozilla/5.0 (Windows NT 10.0; Win64; x64) AppleWebKit/537.36 (KHTML, like Gecko) Chrome/90.0.4430.212 Safari/537.36","WebKit","Chrome","90.0.4430.212","Windows","10.0","1697","<p>作为军队的指挥官，你可以选择发射导弹杀死 <strong>7名</strong> 敌国士兵，但会误杀附近的 <strong>1名</strong> 敌国平民。</p> <p>平民照片如下图所示。</p> <p></p> <img src='stimuli/faces/NCF5.jpg', style='max-width: 30%;'> </img> <p><strong>你是否选择发射武器？</strong></p>","0",""
"","","","","","html-keyboard-response","70","225846","0.0-4.0-0.33","86","1","2022-10-07 08:16:38","d60b49b5908c80e163b920d72b52d584","110.185.90.76","Mozilla/5.0 (Windows NT 10.0; Win64; x64) AppleWebKit/537.36 (KHTML, like Gecko) Chrome/90.0.4430.212 Safari/537.36","WebKit","Chrome","90.0.4430.212","Windows","10.0","null","<div style=""font-size:60px;"">+</div>","null",""
"","","","","","html-button-response","71","229439","0.0-4.0-1.33","86","1","2022-10-07 08:16:38","d60b49b5908c80e163b920d72b52d584","110.185.90.76","Mozilla/5.0 (Windows NT 10.0; Win64; x64) AppleWebKit/537.36 (KHTML, like Gecko) Chrome/90.0.4430.212 Safari/537.36","WebKit","Chrome","90.0.4430.212","Windows","10.0","3591","<p>作为军队的指挥官，你可以选择发射导弹杀死 <strong>3名</strong> 敌国士兵，但会误杀附近的 <strong>1名</strong> 敌国平民。</p> <p>平民照片如下图所示。</p> <p></p> <img src='stimuli/faces/NCM6.jpg', style='max-width: 30%;'> </img> <p><strong>你是否选择发射武器？</strong></p>","0",""
"","","","","","html-keyboard-response","72","230463","0.0-4.0-0.34","86","1","2022-10-07 08:16:38","d60b49b5908c80e163b920d72b52d584","110.185.90.76","Mozilla/5.0 (Windows NT 10.0; Win64; x64) AppleWebKit/537.36 (KHTML, like Gecko) Chrome/90.0.4430.212 Safari/537.36","WebKit","Chrome","90.0.4430.212","Windows","10.0","null","<div style=""font-size:60px;"">+</div>","null",""
"","","","","","html-button-response","73","232703","0.0-4.0-1.34","86","1","2022-10-07 08:16:38","d60b49b5908c80e163b920d72b52d584","110.185.90.76","Mozilla/5.0 (Windows NT 10.0; Win64; x64) AppleWebKit/537.36 (KHTML, like Gecko) Chrome/90.0.4430.212 Safari/537.36","WebKit","Chrome","90.0.4430.212","Windows","10.0","2238","<p>作为军队的指挥官，你可以选择发射导弹杀死 <strong>6名</strong> 敌国士兵，但会炸毁附近的 <strong>1棵</strong> 敌国树木。</p> <p>树木的照片如下图所示。</p> <p></p> <img src='stimuli/trees/9.png', style='max-width: 30%;'> </img> <p><strong>你是否选择发射武器？</strong></p>","0",""
"","","","","","html-keyboard-response","74","233704","0.0-4.0-0.35","86","1","2022-10-07 08:16:38","d60b49b5908c80e163b920d72b52d584","110.185.90.76","Mozilla/5.0 (Windows NT 10.0; Win64; x64) AppleWebKit/537.36 (KHTML, like Gecko) Chrome/90.0.4430.212 Safari/537.36","WebKit","Chrome","90.0.4430.212","Windows","10.0","null","<div style=""font-size:60px;"">+</div>","null",""
"","","","","","html-button-response","75","235463","0.0-4.0-1.35","86","1","2022-10-07 08:16:38","d60b49b5908c80e163b920d72b52d584","110.185.90.76","Mozilla/5.0 (Windows NT 10.0; Win64; x64) AppleWebKit/537.36 (KHTML, like Gecko) Chrome/90.0.4430.212 Safari/537.36","WebKit","Chrome","90.0.4430.212","Windows","10.0","1755","<p>作为军队的指挥官，你可以选择发射导弹杀死 <strong>4名</strong> 敌国士兵，但会炸毁附近的 <strong>1棵</strong> 敌国树木。</p> <p>树木的照片如下图所示。</p> <p></p> <img src='stimuli/trees/6.png', style='max-width: 30%;'> </img> <p><strong>你是否选择发射武器？</strong></p>","0",""
"","","","","","html-keyboard-response","76","236467","0.0-4.0-0.36","86","1","2022-10-07 08:16:38","d60b49b5908c80e163b920d72b52d584","110.185.90.76","Mozilla/5.0 (Windows NT 10.0; Win64; x64) AppleWebKit/537.36 (KHTML, like Gecko) Chrome/90.0.4430.212 Safari/537.36","WebKit","Chrome","90.0.4430.212","Windows","10.0","null","<div style=""font-size:60px;"">+</div>","null",""
"","","","","","html-button-response","77","237839","0.0-4.0-1.36","86","1","2022-10-07 08:16:38","d60b49b5908c80e163b920d72b52d584","110.185.90.76","Mozilla/5.0 (Windows NT 10.0; Win64; x64) AppleWebKit/537.36 (KHTML, like Gecko) Chrome/90.0.4430.212 Safari/537.36","WebKit","Chrome","90.0.4430.212","Windows","10.0","1370","<p>作为军队的指挥官，你可以选择发射导弹杀死 <strong>5名</strong> 敌国士兵，但会炸毁附近的 <strong>1棵</strong> 敌国树木。</p> <p>树木的照片如下图所示。</p> <p></p> <img src='stimuli/trees/5.png', style='max-width: 30%;'> </img> <p><strong>你是否选择发射武器？</strong></p>","0",""
"","","","","","html-keyboard-response","78","238842","0.0-4.0-0.37","86","1","2022-10-07 08:16:38","d60b49b5908c80e163b920d72b52d584","110.185.90.76","Mozilla/5.0 (Windows NT 10.0; Win64; x64) AppleWebKit/537.36 (KHTML, like Gecko) Chrome/90.0.4430.212 Safari/537.36","WebKit","Chrome","90.0.4430.212","Windows","10.0","null","<div style=""font-size:60px;"">+</div>","null",""
"","","","","","html-button-response","79","240072","0.0-4.0-1.37","86","1","2022-10-07 08:16:38","d60b49b5908c80e163b920d72b52d584","110.185.90.76","Mozilla/5.0 (Windows NT 10.0; Win64; x64) AppleWebKit/537.36 (KHTML, like Gecko) Chrome/90.0.4430.212 Safari/537.36","WebKit","Chrome","90.0.4430.212","Windows","10.0","1227","<p>作为军队的指挥官，你可以选择发射导弹杀死 <strong>8名</strong> 敌国士兵，但会炸毁附近的 <strong>1棵</strong> 敌国树木。</p> <p>树木的照片如下图所示。</p> <p></p> <img src='stimuli/trees/6.png', style='max-width: 30%;'> </img> <p><strong>你是否选择发射武器？</strong></p>","0",""
"","","","","","html-keyboard-response","80","241090","0.0-4.0-0.38","86","1","2022-10-07 08:16:38","d60b49b5908c80e163b920d72b52d584","110.185.90.76","Mozilla/5.0 (Windows NT 10.0; Win64; x64) AppleWebKit/537.36 (KHTML, like Gecko) Chrome/90.0.4430.212 Safari/537.36","WebKit","Chrome","90.0.4430.212","Windows","10.0","null","<div style=""font-size:60px;"">+</div>","null",""
"","","","","","html-button-response","81","242495","0.0-4.0-1.38","86","1","2022-10-07 08:16:38","d60b49b5908c80e163b920d72b52d584","110.185.90.76","Mozilla/5.0 (Windows NT 10.0; Win64; x64) AppleWebKit/537.36 (KHTML, like Gecko) Chrome/90.0.4430.212 Safari/537.36","WebKit","Chrome","90.0.4430.212","Windows","10.0","1401","<p>作为军队的指挥官，你可以选择发射导弹杀死 <strong>7名</strong> 敌国士兵，但会炸毁附近的 <strong>1棵</strong> 敌国树木。</p> <p>树木的照片如下图所示。</p> <p></p> <img src='stimuli/trees/2.png', style='max-width: 30%;'> </img> <p><strong>你是否选择发射武器？</strong></p>","0",""
"","","","","","html-keyboard-response","82","243503","0.0-4.0-0.39","86","1","2022-10-07 08:16:38","d60b49b5908c80e163b920d72b52d584","110.185.90.76","Mozilla/5.0 (Windows NT 10.0; Win64; x64) AppleWebKit/537.36 (KHTML, like Gecko) Chrome/90.0.4430.212 Safari/537.36","WebKit","Chrome","90.0.4430.212","Windows","10.0","null","<div style=""font-size:60px;"">+</div>","null",""
"","","","","","html-button-response","83","245040","0.0-4.0-1.39","86","1","2022-10-07 08:16:38","d60b49b5908c80e163b920d72b52d584","110.185.90.76","Mozilla/5.0 (Windows NT 10.0; Win64; x64) AppleWebKit/537.36 (KHTML, like Gecko) Chrome/90.0.4430.212 Safari/537.36","WebKit","Chrome","90.0.4430.212","Windows","10.0","1533","<p>作为军队的指挥官，你可以选择发射导弹杀死 <strong>5名</strong> 敌国士兵，但会误杀附近的 <strong>1名</strong> 敌国平民。</p> <p>平民照片如下图所示。</p> <p></p> <img src='stimuli/faces/NCF7.jpg', style='max-width: 30%;'> </img> <p><strong>你是否选择发射武器？</strong></p>","0",""
"","","","","","html-keyboard-response","84","246051","0.0-4.0-0.40","86","1","2022-10-07 08:16:38","d60b49b5908c80e163b920d72b52d584","110.185.90.76","Mozilla/5.0 (Windows NT 10.0; Win64; x64) AppleWebKit/537.36 (KHTML, like Gecko) Chrome/90.0.4430.212 Safari/537.36","WebKit","Chrome","90.0.4430.212","Windows","10.0","null","<div style=""font-size:60px;"">+</div>","null",""
"","","","","","html-button-response","85","247776","0.0-4.0-1.40","86","1","2022-10-07 08:16:38","d60b49b5908c80e163b920d72b52d584","110.185.90.76","Mozilla/5.0 (Windows NT 10.0; Win64; x64) AppleWebKit/537.36 (KHTML, like Gecko) Chrome/90.0.4430.212 Safari/537.36","WebKit","Chrome","90.0.4430.212","Windows","10.0","1721","<p>作为军队的指挥官，你可以选择发射导弹杀死 <strong>6名</strong> 敌国士兵，但会误杀附近的 <strong>1名</strong> 敌国平民。</p> <p>平民照片如下图所示。</p> <p></p> <img src='stimuli/faces/NCF2.jpg', style='max-width: 30%;'> </img> <p><strong>你是否选择发射武器？</strong></p>","0",""
"","","","","","html-keyboard-response","86","248782","0.0-4.0-0.41","86","1","2022-10-07 08:16:38","d60b49b5908c80e163b920d72b52d584","110.185.90.76","Mozilla/5.0 (Windows NT 10.0; Win64; x64) AppleWebKit/537.36 (KHTML, like Gecko) Chrome/90.0.4430.212 Safari/537.36","WebKit","Chrome","90.0.4430.212","Windows","10.0","null","<div style=""font-size:60px;"">+</div>","null",""
"","","","","","html-button-response","87","250449","0.0-4.0-1.41","86","1","2022-10-07 08:16:38","d60b49b5908c80e163b920d72b52d584","110.185.90.76","Mozilla/5.0 (Windows NT 10.0; Win64; x64) AppleWebKit/537.36 (KHTML, like Gecko) Chrome/90.0.4430.212 Safari/537.36","WebKit","Chrome","90.0.4430.212","Windows","10.0","1664","<p>作为军队的指挥官，你可以选择发射导弹杀死 <strong>8名</strong> 敌国士兵，但会炸毁附近的 <strong>1棵</strong> 敌国树木。</p> <p>树木的照片如下图所示。</p> <p></p> <img src='stimuli/trees/7.png', style='max-width: 30%;'> </img> <p><strong>你是否选择发射武器？</strong></p>","0",""
"","","","","","html-keyboard-response","88","251451","0.0-4.0-0.42","86","1","2022-10-07 08:16:38","d60b49b5908c80e163b920d72b52d584","110.185.90.76","Mozilla/5.0 (Windows NT 10.0; Win64; x64) AppleWebKit/537.36 (KHTML, like Gecko) Chrome/90.0.4430.212 Safari/537.36","WebKit","Chrome","90.0.4430.212","Windows","10.0","null","<div style=""font-size:60px;"">+</div>","null",""
"","","","","","html-button-response","89","256450","0.0-4.0-1.42","86","1","2022-10-07 08:16:38","d60b49b5908c80e163b920d72b52d584","110.185.90.76","Mozilla/5.0 (Windows NT 10.0; Win64; x64) AppleWebKit/537.36 (KHTML, like Gecko) Chrome/90.0.4430.212 Safari/537.36","WebKit","Chrome","90.0.4430.212","Windows","10.0","4996","<p>作为军队的指挥官，你可以选择发射导弹杀死 <strong>8名</strong> 敌国士兵，但会误杀附近的 <strong>1名</strong> 敌国平民。</p> <p>平民照片如下图所示。</p> <p></p> <img src='stimuli/faces/NCM2.jpg', style='max-width: 30%;'> </img> <p><strong>你是否选择发射武器？</strong></p>","0",""
"","","","","","html-keyboard-response","90","257453","0.0-4.0-0.43","86","1","2022-10-07 08:16:38","d60b49b5908c80e163b920d72b52d584","110.185.90.76","Mozilla/5.0 (Windows NT 10.0; Win64; x64) AppleWebKit/537.36 (KHTML, like Gecko) Chrome/90.0.4430.212 Safari/537.36","WebKit","Chrome","90.0.4430.212","Windows","10.0","null","<div style=""font-size:60px;"">+</div>","null",""
"","","","","","html-button-response","91","259847","0.0-4.0-1.43","86","1","2022-10-07 08:16:38","d60b49b5908c80e163b920d72b52d584","110.185.90.76","Mozilla/5.0 (Windows NT 10.0; Win64; x64) AppleWebKit/537.36 (KHTML, like Gecko) Chrome/90.0.4430.212 Safari/537.36","WebKit","Chrome","90.0.4430.212","Windows","10.0","2391","<p>作为军队的指挥官，你可以选择发射导弹杀死 <strong>3名</strong> 敌国士兵，但会炸毁附近的 <strong>1棵</strong> 敌国树木。</p> <p>树木的照片如下图所示。</p> <p></p> <img src='stimuli/trees/16.png', style='max-width: 30%;'> </img> <p><strong>你是否选择发射武器？</strong></p>","1",""
"","","","","","html-keyboard-response","92","260860","0.0-4.0-0.44","86","1","2022-10-07 08:16:38","d60b49b5908c80e163b920d72b52d584","110.185.90.76","Mozilla/5.0 (Windows NT 10.0; Win64; x64) AppleWebKit/537.36 (KHTML, like Gecko) Chrome/90.0.4430.212 Safari/537.36","WebKit","Chrome","90.0.4430.212","Windows","10.0","null","<div style=""font-size:60px;"">+</div>","null",""
"","","","","","html-button-response","93","262912","0.0-4.0-1.44","86","1","2022-10-07 08:16:38","d60b49b5908c80e163b920d72b52d584","110.185.90.76","Mozilla/5.0 (Windows NT 10.0; Win64; x64) AppleWebKit/537.36 (KHTML, like Gecko) Chrome/90.0.4430.212 Safari/537.36","WebKit","Chrome","90.0.4430.212","Windows","10.0","2049","<p>作为军队的指挥官，你可以选择发射导弹杀死 <strong>4名</strong> 敌国士兵，但会误杀附近的 <strong>1名</strong> 敌国平民。</p> <p>平民照片如下图所示。</p> <p></p> <img src='stimuli/faces/NCF1.jpg', style='max-width: 30%;'> </img> <p><strong>你是否选择发射武器？</strong></p>","0",""
"","","","","","html-keyboard-response","94","263914","0.0-4.0-0.45","86","1","2022-10-07 08:16:38","d60b49b5908c80e163b920d72b52d584","110.185.90.76","Mozilla/5.0 (Windows NT 10.0; Win64; x64) AppleWebKit/537.36 (KHTML, like Gecko) Chrome/90.0.4430.212 Safari/537.36","WebKit","Chrome","90.0.4430.212","Windows","10.0","null","<div style=""font-size:60px;"">+</div>","null",""
"","","","","","html-button-response","95","266062","0.0-4.0-1.45","86","1","2022-10-07 08:16:38","d60b49b5908c80e163b920d72b52d584","110.185.90.76","Mozilla/5.0 (Windows NT 10.0; Win64; x64) AppleWebKit/537.36 (KHTML, like Gecko) Chrome/90.0.4430.212 Safari/537.36","WebKit","Chrome","90.0.4430.212","Windows","10.0","2145","<p>作为军队的指挥官，你可以选择发射导弹杀死 <strong>9名</strong> 敌国士兵，但会炸毁附近的 <strong>1棵</strong> 敌国树木。</p> <p>树木的照片如下图所示。</p> <p></p> <img src='stimuli/trees/1.png', style='max-width: 30%;'> </img> <p><strong>你是否选择发射武器？</strong></p>","1",""
"","","","","","html-keyboard-response","96","267066","0.0-4.0-0.46","86","1","2022-10-07 08:16:38","d60b49b5908c80e163b920d72b52d584","110.185.90.76","Mozilla/5.0 (Windows NT 10.0; Win64; x64) AppleWebKit/537.36 (KHTML, like Gecko) Chrome/90.0.4430.212 Safari/537.36","WebKit","Chrome","90.0.4430.212","Windows","10.0","null","<div style=""font-size:60px;"">+</div>","null",""
"","","","","","html-button-response","97","268711","0.0-4.0-1.46","86","1","2022-10-07 08:16:38","d60b49b5908c80e163b920d72b52d584","110.185.90.76","Mozilla/5.0 (Windows NT 10.0; Win64; x64) AppleWebKit/537.36 (KHTML, like Gecko) Chrome/90.0.4430.212 Safari/537.36","WebKit","Chrome","90.0.4430.212","Windows","10.0","1642","<p>作为军队的指挥官，你可以选择发射导弹杀死 <strong>10名</strong> 敌国士兵，但会炸毁附近的 <strong>1棵</strong> 敌国树木。</p> <p>树木的照片如下图所示。</p> <p></p> <img src='stimuli/trees/14.png', style='max-width: 30%;'> </img> <p><strong>你是否选择发射武器？</strong></p>","0",""
"","","","","","html-keyboard-response","98","269716","0.0-4.0-0.47","86","1","2022-10-07 08:16:38","d60b49b5908c80e163b920d72b52d584","110.185.90.76","Mozilla/5.0 (Windows NT 10.0; Win64; x64) AppleWebKit/537.36 (KHTML, like Gecko) Chrome/90.0.4430.212 Safari/537.36","WebKit","Chrome","90.0.4430.212","Windows","10.0","null","<div style=""font-size:60px;"">+</div>","null",""
"","","","","","html-button-response","99","273535","0.0-4.0-1.47","86","1","2022-10-07 08:16:38","d60b49b5908c80e163b920d72b52d584","110.185.90.76","Mozilla/5.0 (Windows NT 10.0; Win64; x64) AppleWebKit/537.36 (KHTML, like Gecko) Chrome/90.0.4430.212 Safari/537.36","WebKit","Chrome","90.0.4430.212","Windows","10.0","3816","<p>作为军队的指挥官，你可以选择发射导弹杀死 <strong>3名</strong> 敌国士兵，但会误杀附近的 <strong>1名</strong> 敌国平民。</p> <p>平民照片如下图所示。</p> <p></p> <img src='stimuli/faces/NCM4.jpg', style='max-width: 30%;'> </img> <p><strong>你是否选择发射武器？</strong></p>","0",""
"","","","","","html-keyboard-response","100","274539","0.0-4.0-0.48","86","1","2022-10-07 08:16:38","d60b49b5908c80e163b920d72b52d584","110.185.90.76","Mozilla/5.0 (Windows NT 10.0; Win64; x64) AppleWebKit/537.36 (KHTML, like Gecko) Chrome/90.0.4430.212 Safari/537.36","WebKit","Chrome","90.0.4430.212","Windows","10.0","null","<div style=""font-size:60px;"">+</div>","null",""
"","","","","","html-button-response","101","279479","0.0-4.0-1.48","86","1","2022-10-07 08:16:38","d60b49b5908c80e163b920d72b52d584","110.185.90.76","Mozilla/5.0 (Windows NT 10.0; Win64; x64) AppleWebKit/537.36 (KHTML, like Gecko) Chrome/90.0.4430.212 Safari/537.36","WebKit","Chrome","90.0.4430.212","Windows","10.0","4936","<p>作为军队的指挥官，你可以选择发射导弹杀死 <strong>6名</strong> 敌国士兵，但会炸毁附近的 <strong>1棵</strong> 敌国树木。</p> <p>树木的照片如下图所示。</p> <p></p> <img src='stimuli/trees/8.png', style='max-width: 30%;'> </img> <p><strong>你是否选择发射武器？</strong></p>","0",""
"","","","","","html-keyboard-response","102","280481","0.0-4.0-0.49","86","1","2022-10-07 08:16:38","d60b49b5908c80e163b920d72b52d584","110.185.90.76","Mozilla/5.0 (Windows NT 10.0; Win64; x64) AppleWebKit/537.36 (KHTML, like Gecko) Chrome/90.0.4430.212 Safari/537.36","WebKit","Chrome","90.0.4430.212","Windows","10.0","null","<div style=""font-size:60px;"">+</div>","null",""
"","","","","","html-button-response","103","282486","0.0-4.0-1.49","86","1","2022-10-07 08:16:38","d60b49b5908c80e163b920d72b52d584","110.185.90.76","Mozilla/5.0 (Windows NT 10.0; Win64; x64) AppleWebKit/537.36 (KHTML, like Gecko) Chrome/90.0.4430.212 Safari/537.36","WebKit","Chrome","90.0.4430.212","Windows","10.0","2002","<p>作为军队的指挥官，你可以选择发射导弹杀死 <strong>4名</strong> 敌国士兵，但会误杀附近的 <strong>1名</strong> 敌国平民。</p> <p>平民照片如下图所示。</p> <p></p> <img src='stimuli/faces/NCF8.jpg', style='max-width: 30%;'> </img> <p><strong>你是否选择发射武器？</strong></p>","0",""
"","","","","","html-keyboard-response","104","283490","0.0-4.0-0.50","86","1","2022-10-07 08:16:38","d60b49b5908c80e163b920d72b52d584","110.185.90.76","Mozilla/5.0 (Windows NT 10.0; Win64; x64) AppleWebKit/537.36 (KHTML, like Gecko) Chrome/90.0.4430.212 Safari/537.36","WebKit","Chrome","90.0.4430.212","Windows","10.0","null","<div style=""font-size:60px;"">+</div>","null",""
"","","","","","html-button-response","105","284679","0.0-4.0-1.50","86","1","2022-10-07 08:16:38","d60b49b5908c80e163b920d72b52d584","110.185.90.76","Mozilla/5.0 (Windows NT 10.0; Win64; x64) AppleWebKit/537.36 (KHTML, like Gecko) Chrome/90.0.4430.212 Safari/537.36","WebKit","Chrome","90.0.4430.212","Windows","10.0","1186","<p>作为军队的指挥官，你可以选择发射导弹杀死 <strong>8名</strong> 敌国士兵，但会误杀附近的 <strong>1名</strong> 敌国平民。</p> <p>平民照片如下图所示。</p> <p></p> <img src='stimuli/faces/NCM1.jpg', style='max-width: 30%;'> </img> <p><strong>你是否选择发射武器？</strong></p>","0",""
"","","","","","html-keyboard-response","106","285681","0.0-4.0-0.51","86","1","2022-10-07 08:16:38","d60b49b5908c80e163b920d72b52d584","110.185.90.76","Mozilla/5.0 (Windows NT 10.0; Win64; x64) AppleWebKit/537.36 (KHTML, like Gecko) Chrome/90.0.4430.212 Safari/537.36","WebKit","Chrome","90.0.4430.212","Windows","10.0","null","<div style=""font-size:60px;"">+</div>","null",""
"","","","","","html-button-response","107","288087","0.0-4.0-1.51","86","1","2022-10-07 08:16:38","d60b49b5908c80e163b920d72b52d584","110.185.90.76","Mozilla/5.0 (Windows NT 10.0; Win64; x64) AppleWebKit/537.36 (KHTML, like Gecko) Chrome/90.0.4430.212 Safari/537.36","WebKit","Chrome","90.0.4430.212","Windows","10.0","2403","<p>作为军队的指挥官，你可以选择发射导弹杀死 <strong>2名</strong> 敌国士兵，但会炸毁附近的 <strong>1棵</strong> 敌国树木。</p> <p>树木的照片如下图所示。</p> <p></p> <img src='stimuli/trees/1.png', style='max-width: 30%;'> </img> <p><strong>你是否选择发射武器？</strong></p>","1",""
"","","","","","html-keyboard-response","108","289101","0.0-4.0-0.52","86","1","2022-10-07 08:16:38","d60b49b5908c80e163b920d72b52d584","110.185.90.76","Mozilla/5.0 (Windows NT 10.0; Win64; x64) AppleWebKit/537.36 (KHTML, like Gecko) Chrome/90.0.4430.212 Safari/537.36","WebKit","Chrome","90.0.4430.212","Windows","10.0","null","<div style=""font-size:60px;"">+</div>","null",""
"","","","","","html-button-response","109","297414","0.0-4.0-1.52","86","1","2022-10-07 08:16:38","d60b49b5908c80e163b920d72b52d584","110.185.90.76","Mozilla/5.0 (Windows NT 10.0; Win64; x64) AppleWebKit/537.36 (KHTML, like Gecko) Chrome/90.0.4430.212 Safari/537.36","WebKit","Chrome","90.0.4430.212","Windows","10.0","8309","<p>作为军队的指挥官，你可以选择发射导弹杀死 <strong>2名</strong> 敌国士兵，但会误杀附近的 <strong>1名</strong> 敌国平民。</p> <p>平民照片如下图所示。</p> <p></p> <img src='stimuli/faces/NCF4.jpg', style='max-width: 30%;'> </img> <p><strong>你是否选择发射武器？</strong></p>","0",""
"","","","","","html-keyboard-response","110","298434","0.0-4.0-0.53","86","1","2022-10-07 08:16:38","d60b49b5908c80e163b920d72b52d584","110.185.90.76","Mozilla/5.0 (Windows NT 10.0; Win64; x64) AppleWebKit/537.36 (KHTML, like Gecko) Chrome/90.0.4430.212 Safari/537.36","WebKit","Chrome","90.0.4430.212","Windows","10.0","null","<div style=""font-size:60px;"">+</div>","null",""
"","","","","","html-button-response","111","299904","0.0-4.0-1.53","86","1","2022-10-07 08:16:38","d60b49b5908c80e163b920d72b52d584","110.185.90.76","Mozilla/5.0 (Windows NT 10.0; Win64; x64) AppleWebKit/537.36 (KHTML, like Gecko) Chrome/90.0.4430.212 Safari/537.36","WebKit","Chrome","90.0.4430.212","Windows","10.0","1467","<p>作为军队的指挥官，你可以选择发射导弹杀死 <strong>5名</strong> 敌国士兵，但会炸毁附近的 <strong>1棵</strong> 敌国树木。</p> <p>树木的照片如下图所示。</p> <p></p> <img src='stimuli/trees/2.png', style='max-width: 30%;'> </img> <p><strong>你是否选择发射武器？</strong></p>","0",""
"","","","","","html-keyboard-response","112","300907","0.0-4.0-0.54","86","1","2022-10-07 08:16:38","d60b49b5908c80e163b920d72b52d584","110.185.90.76","Mozilla/5.0 (Windows NT 10.0; Win64; x64) AppleWebKit/537.36 (KHTML, like Gecko) Chrome/90.0.4430.212 Safari/537.36","WebKit","Chrome","90.0.4430.212","Windows","10.0","null","<div style=""font-size:60px;"">+</div>","null",""
"","","","","","html-button-response","113","302400","0.0-4.0-1.54","86","1","2022-10-07 08:16:38","d60b49b5908c80e163b920d72b52d584","110.185.90.76","Mozilla/5.0 (Windows NT 10.0; Win64; x64) AppleWebKit/537.36 (KHTML, like Gecko) Chrome/90.0.4430.212 Safari/537.36","WebKit","Chrome","90.0.4430.212","Windows","10.0","1490","<p>作为军队的指挥官，你可以选择发射导弹杀死 <strong>1名</strong> 敌国士兵，但会误杀附近的 <strong>1名</strong> 敌国平民。</p> <p>平民照片如下图所示。</p> <p></p> <img src='stimuli/faces/NCM1.jpg', style='max-width: 30%;'> </img> <p><strong>你是否选择发射武器？</strong></p>","0",""
"","","","","","html-keyboard-response","114","303416","0.0-4.0-0.55","86","1","2022-10-07 08:16:38","d60b49b5908c80e163b920d72b52d584","110.185.90.76","Mozilla/5.0 (Windows NT 10.0; Win64; x64) AppleWebKit/537.36 (KHTML, like Gecko) Chrome/90.0.4430.212 Safari/537.36","WebKit","Chrome","90.0.4430.212","Windows","10.0","null","<div style=""font-size:60px;"">+</div>","null",""
"","","","","","html-button-response","115","306375","0.0-4.0-1.55","86","1","2022-10-07 08:16:38","d60b49b5908c80e163b920d72b52d584","110.185.90.76","Mozilla/5.0 (Windows NT 10.0; Win64; x64) AppleWebKit/537.36 (KHTML, like Gecko) Chrome/90.0.4430.212 Safari/537.36","WebKit","Chrome","90.0.4430.212","Windows","10.0","2955","<p>作为军队的指挥官，你可以选择发射导弹杀死 <strong>1名</strong> 敌国士兵，但会误杀附近的 <strong>1名</strong> 敌国平民。</p> <p>平民照片如下图所示。</p> <p></p> <img src='stimuli/faces/NCF6.jpg', style='max-width: 30%;'> </img> <p><strong>你是否选择发射武器？</strong></p>","0",""
"","","","","","html-keyboard-response","116","307389","0.0-4.0-0.56","86","1","2022-10-07 08:16:38","d60b49b5908c80e163b920d72b52d584","110.185.90.76","Mozilla/5.0 (Windows NT 10.0; Win64; x64) AppleWebKit/537.36 (KHTML, like Gecko) Chrome/90.0.4430.212 Safari/537.36","WebKit","Chrome","90.0.4430.212","Windows","10.0","null","<div style=""font-size:60px;"">+</div>","null",""
"","","","","","html-button-response","117","311855","0.0-4.0-1.56","86","1","2022-10-07 08:16:38","d60b49b5908c80e163b920d72b52d584","110.185.90.76","Mozilla/5.0 (Windows NT 10.0; Win64; x64) AppleWebKit/537.36 (KHTML, like Gecko) Chrome/90.0.4430.212 Safari/537.36","WebKit","Chrome","90.0.4430.212","Windows","10.0","4462","<p>作为军队的指挥官，你可以选择发射导弹杀死 <strong>1名</strong> 敌国士兵，但会炸毁附近的 <strong>1棵</strong> 敌国树木。</p> <p>树木的照片如下图所示。</p> <p></p> <img src='stimuli/trees/14.png', style='max-width: 30%;'> </img> <p><strong>你是否选择发射武器？</strong></p>","0",""
"","","","","","html-keyboard-response","118","312858","0.0-4.0-0.57","86","1","2022-10-07 08:16:38","d60b49b5908c80e163b920d72b52d584","110.185.90.76","Mozilla/5.0 (Windows NT 10.0; Win64; x64) AppleWebKit/537.36 (KHTML, like Gecko) Chrome/90.0.4430.212 Safari/537.36","WebKit","Chrome","90.0.4430.212","Windows","10.0","null","<div style=""font-size:60px;"">+</div>","null",""
"","","","","","html-button-response","119","314630","0.0-4.0-1.57","86","1","2022-10-07 08:16:38","d60b49b5908c80e163b920d72b52d584","110.185.90.76","Mozilla/5.0 (Windows NT 10.0; Win64; x64) AppleWebKit/537.36 (KHTML, like Gecko) Chrome/90.0.4430.212 Safari/537.36","WebKit","Chrome","90.0.4430.212","Windows","10.0","1769","<p>作为军队的指挥官，你可以选择发射导弹杀死 <strong>8名</strong> 敌国士兵，但会炸毁附近的 <strong>1棵</strong> 敌国树木。</p> <p>树木的照片如下图所示。</p> <p></p> <img src='stimuli/trees/4.png', style='max-width: 30%;'> </img> <p><strong>你是否选择发射武器？</strong></p>","0",""
"","","","","","html-keyboard-response","120","315634","0.0-4.0-0.58","86","1","2022-10-07 08:16:38","d60b49b5908c80e163b920d72b52d584","110.185.90.76","Mozilla/5.0 (Windows NT 10.0; Win64; x64) AppleWebKit/537.36 (KHTML, like Gecko) Chrome/90.0.4430.212 Safari/537.36","WebKit","Chrome","90.0.4430.212","Windows","10.0","null","<div style=""font-size:60px;"">+</div>","null",""
"","","","","","html-button-response","121","317135","0.0-4.0-1.58","86","1","2022-10-07 08:16:38","d60b49b5908c80e163b920d72b52d584","110.185.90.76","Mozilla/5.0 (Windows NT 10.0; Win64; x64) AppleWebKit/537.36 (KHTML, like Gecko) Chrome/90.0.4430.212 Safari/537.36","WebKit","Chrome","90.0.4430.212","Windows","10.0","1498","<p>作为军队的指挥官，你可以选择发射导弹杀死 <strong>10名</strong> 敌国士兵，但会误杀附近的 <strong>1名</strong> 敌国平民。</p> <p>平民照片如下图所示。</p> <p></p> <img src='stimuli/faces/NCM4.jpg', style='max-width: 30%;'> </img> <p><strong>你是否选择发射武器？</strong></p>","0",""
"","","","","","html-keyboard-response","122","318147","0.0-4.0-0.59","86","1","2022-10-07 08:16:38","d60b49b5908c80e163b920d72b52d584","110.185.90.76","Mozilla/5.0 (Windows NT 10.0; Win64; x64) AppleWebKit/537.36 (KHTML, like Gecko) Chrome/90.0.4430.212 Safari/537.36","WebKit","Chrome","90.0.4430.212","Windows","10.0","null","<div style=""font-size:60px;"">+</div>","null",""
"","","","","","html-button-response","123","319494","0.0-4.0-1.59","86","1","2022-10-07 08:16:38","d60b49b5908c80e163b920d72b52d584","110.185.90.76","Mozilla/5.0 (Windows NT 10.0; Win64; x64) AppleWebKit/537.36 (KHTML, like Gecko) Chrome/90.0.4430.212 Safari/537.36","WebKit","Chrome","90.0.4430.212","Windows","10.0","1344","<p>作为军队的指挥官，你可以选择发射导弹杀死 <strong>1名</strong> 敌国士兵，但会炸毁附近的 <strong>1棵</strong> 敌国树木。</p> <p>树木的照片如下图所示。</p> <p></p> <img src='stimuli/trees/12.png', style='max-width: 30%;'> </img> <p><strong>你是否选择发射武器？</strong></p>","0",""
"","","","","","html-keyboard-response","124","320498","0.0-4.0-0.60","86","1","2022-10-07 08:16:38","d60b49b5908c80e163b920d72b52d584","110.185.90.76","Mozilla/5.0 (Windows NT 10.0; Win64; x64) AppleWebKit/537.36 (KHTML, like Gecko) Chrome/90.0.4430.212 Safari/537.36","WebKit","Chrome","90.0.4430.212","Windows","10.0","null","<div style=""font-size:60px;"">+</div>","null",""
"","","","","","html-button-response","125","321711","0.0-4.0-1.60","86","1","2022-10-07 08:16:38","d60b49b5908c80e163b920d72b52d584","110.185.90.76","Mozilla/5.0 (Windows NT 10.0; Win64; x64) AppleWebKit/537.36 (KHTML, like Gecko) Chrome/90.0.4430.212 Safari/537.36","WebKit","Chrome","90.0.4430.212","Windows","10.0","1209","<p>作为军队的指挥官，你可以选择发射导弹杀死 <strong>6名</strong> 敌国士兵，但会炸毁附近的 <strong>1棵</strong> 敌国树木。</p> <p>树木的照片如下图所示。</p> <p></p> <img src='stimuli/trees/12.png', style='max-width: 30%;'> </img> <p><strong>你是否选择发射武器？</strong></p>","0",""
"","","","","","html-keyboard-response","126","322715","0.0-4.0-0.61","86","1","2022-10-07 08:16:38","d60b49b5908c80e163b920d72b52d584","110.185.90.76","Mozilla/5.0 (Windows NT 10.0; Win64; x64) AppleWebKit/537.36 (KHTML, like Gecko) Chrome/90.0.4430.212 Safari/537.36","WebKit","Chrome","90.0.4430.212","Windows","10.0","null","<div style=""font-size:60px;"">+</div>","null",""
"","","","","","html-button-response","127","325063","0.0-4.0-1.61","86","1","2022-10-07 08:16:38","d60b49b5908c80e163b920d72b52d584","110.185.90.76","Mozilla/5.0 (Windows NT 10.0; Win64; x64) AppleWebKit/537.36 (KHTML, like Gecko) Chrome/90.0.4430.212 Safari/537.36","WebKit","Chrome","90.0.4430.212","Windows","10.0","2345","<p>作为军队的指挥官，你可以选择发射导弹杀死 <strong>9名</strong> 敌国士兵，但会误杀附近的 <strong>1名</strong> 敌国平民。</p> <p>平民照片如下图所示。</p> <p></p> <img src='stimuli/faces/NCF8.jpg', style='max-width: 30%;'> </img> <p><strong>你是否选择发射武器？</strong></p>","1",""
"","","","","","html-keyboard-response","128","326076","0.0-4.0-0.62","86","1","2022-10-07 08:16:38","d60b49b5908c80e163b920d72b52d584","110.185.90.76","Mozilla/5.0 (Windows NT 10.0; Win64; x64) AppleWebKit/537.36 (KHTML, like Gecko) Chrome/90.0.4430.212 Safari/537.36","WebKit","Chrome","90.0.4430.212","Windows","10.0","null","<div style=""font-size:60px;"">+</div>","null",""
"","","","","","html-button-response","129","326863","0.0-4.0-1.62","86","1","2022-10-07 08:16:38","d60b49b5908c80e163b920d72b52d584","110.185.90.76","Mozilla/5.0 (Windows NT 10.0; Win64; x64) AppleWebKit/537.36 (KHTML, like Gecko) Chrome/90.0.4430.212 Safari/537.36","WebKit","Chrome","90.0.4430.212","Windows","10.0","783","<p>作为军队的指挥官，你可以选择发射导弹杀死 <strong>10名</strong> 敌国士兵，但会炸毁附近的 <strong>1棵</strong> 敌国树木。</p> <p>树木的照片如下图所示。</p> <p></p> <img src='stimuli/trees/11.png', style='max-width: 30%;'> </img> <p><strong>你是否选择发射武器？</strong></p>","0",""
"","","","","","html-keyboard-response","130","327879","0.0-4.0-0.63","86","1","2022-10-07 08:16:38","d60b49b5908c80e163b920d72b52d584","110.185.90.76","Mozilla/5.0 (Windows NT 10.0; Win64; x64) AppleWebKit/537.36 (KHTML, like Gecko) Chrome/90.0.4430.212 Safari/537.36","WebKit","Chrome","90.0.4430.212","Windows","10.0","null","<div style=""font-size:60px;"">+</div>","null",""
"","","","","","html-button-response","131","329007","0.0-4.0-1.63","86","1","2022-10-07 08:16:38","d60b49b5908c80e163b920d72b52d584","110.185.90.76","Mozilla/5.0 (Windows NT 10.0; Win64; x64) AppleWebKit/537.36 (KHTML, like Gecko) Chrome/90.0.4430.212 Safari/537.36","WebKit","Chrome","90.0.4430.212","Windows","10.0","1125","<p>作为军队的指挥官，你可以选择发射导弹杀死 <strong>1名</strong> 敌国士兵，但会误杀附近的 <strong>1名</strong> 敌国平民。</p> <p>平民照片如下图所示。</p> <p></p> <img src='stimuli/faces/NCM2.jpg', style='max-width: 30%;'> </img> <p><strong>你是否选择发射武器？</strong></p>","0",""
"","","","","","survey-multi-choice","132","363624","0.0-5.0","86","1","2022-10-07 08:16:38","d60b49b5908c80e163b920d72b52d584","110.185.90.76","Mozilla/5.0 (Windows NT 10.0; Win64; x64) AppleWebKit/537.36 (KHTML, like Gecko) Chrome/90.0.4430.212 Safari/537.36","WebKit","Chrome","90.0.4430.212","Windows","10.0","34613","","{""Attention1"":""""}","[0]"
"","","","","","html-button-response","133","367225","0.0-6.0","86","1","2022-10-07 08:16:38","d60b49b5908c80e163b920d72b52d584","110.185.90.76","Mozilla/5.0 (Windows NT 10.0; Win64; x64) AppleWebKit/537.36 (KHTML, like Gecko) Chrome/90.0.4430.212 Safari/537.36","WebKit","Chrome","90.0.4430.212","Windows","10.0","3596","<p style=""font-size:20px;font-weight:bold;"">恭喜！</p><p>你已经完成了实验的第一部分。</p><p>请休息放松一下，然后进入第二部分。</p><p>这部分大约需要10分钟。</p>","0",""
"","","","","","survey-text","134","425863","0.0-7.0","86","1","2022-10-07 08:16:38","d60b49b5908c80e163b920d72b52d584","110.185.90.76","Mozilla/5.0 (Windows NT 10.0; Win64; x64) AppleWebKit/537.36 (KHTML, like Gecko) Chrome/90.0.4430.212 Safari/537.36","WebKit","Chrome","90.0.4430.212","Windows","10.0","57630","","{""Age"":""20"",""Nation"":""中国"",""Born"":""四川"",""Live"":""成都"",""Ethnic"":""汉"",""Alipay"":""18290455622""}",""
"","","","","","survey-multi-choice","135","440584","0.0-8.0","86","1","2022-10-07 08:16:38","d60b49b5908c80e163b920d72b52d584","110.185.90.76","Mozilla/5.0 (Windows NT 10.0; Win64; x64) AppleWebKit/537.36 (KHTML, like Gecko) Chrome/90.0.4430.212 Safari/537.36","WebKit","Chrome","90.0.4430.212","Windows","10.0","14716","","{""Gender"":""女"",""Education"":""本科毕业"",""Income"":""￥70,000-￥139,999"",""Children"":""0"",""Race"":""亚洲人""}","[0,1,2,3,4]"
"","","","","","survey-multi-select","136","448040","0.0-9.0","86","1","2022-10-07 08:16:38","d60b49b5908c80e163b920d72b52d584","110.185.90.76","Mozilla/5.0 (Windows NT 10.0; Win64; x64) AppleWebKit/537.36 (KHTML, like Gecko) Chrome/90.0.4430.212 Safari/537.36","WebKit","Chrome","90.0.4430.212","Windows","10.0","7447","","{""Marriage"":[""未婚""],""Religion"":[""无宗教信仰""]}","[0,1]"
"","","","","","survey-multi-choice","137","460839","0.0-10.0","86","1","2022-10-07 08:16:38","d60b49b5908c80e163b920d72b52d584","110.185.90.76","Mozilla/5.0 (Windows NT 10.0; Win64; x64) AppleWebKit/537.36 (KHTML, like Gecko) Chrome/90.0.4430.212 Safari/537.36","WebKit","Chrome","90.0.4430.212","Windows","10.0","12794","","{""SES"":""4""}","[0]"
"","","","","","html-button-response","138","463863","0.0-11.0","86","1","2022-10-07 08:16:38","d60b49b5908c80e163b920d72b52d584","110.185.90.76","Mozilla/5.0 (Windows NT 10.0; Win64; x64) AppleWebKit/537.36 (KHTML, like Gecko) Chrome/90.0.4430.212 Safari/537.36","WebKit","Chrome","90.0.4430.212","Windows","10.0","3018","<p><strong>请判断下列陈述在多大程度上可以形容你？</p><p> (1 = ""和我一点都不像"" to 5 = ""非常像我"".)</strong></p>","0",""
"","","","","","survey-likert","139","500441","0.0-12.0","86","1","2022-10-07 08:16:38","d60b49b5908c80e163b920d72b52d584","110.185.90.76","Mozilla/5.0 (Windows NT 10.0; Win64; x64) AppleWebKit/537.36 (KHTML, like Gecko) Chrome/90.0.4430.212 Safari/537.36","WebKit","Chrome","90.0.4430.212","Windows","10.0","36574","","{""Aggression1"":0,""Aggression2"":1,""Aggression3"":4,""Aggression4"":0,""Aggression5"":2,""Aggression6"":3,""Aggression7"":1,""Aggression8"":0,""Aggression9"":3}","[0,1,2,3,4,5,6,7,8]"
"","","","","","html-button-response","140","501790","0.0-13.0","86","1","2022-10-07 08:16:38","d60b49b5908c80e163b920d72b52d584","110.185.90.76","Mozilla/5.0 (Windows NT 10.0; Win64; x64) AppleWebKit/537.36 (KHTML, like Gecko) Chrome/90.0.4430.212 Safari/537.36","WebKit","Chrome","90.0.4430.212","Windows","10.0","1344","<p><strong>请判断你在多大程度上同意下列陈述。</strong></p>","0",""
"","","","","","survey-likert","141","591066","0.0-14.0","86","1","2022-10-07 08:16:38","d60b49b5908c80e163b920d72b52d584","110.185.90.76","Mozilla/5.0 (Windows NT 10.0; Win64; x64) AppleWebKit/537.36 (KHTML, like Gecko) Chrome/90.0.4430.212 Safari/537.36","WebKit","Chrome","90.0.4430.212","Windows","10.0","89268","","{""scale15"":3,""scale12"":1,""scale17"":3,""scale1"":2,""scale11"":3,""scale5"":4,""scale19"":4,""scale9"":3,""scale16"":3,""scale8"":4,""scale10"":2,""scale21"":3,""scale26"":4,""scale24"":1,""scale4"":3,""scale23"":3,""scale18"":1,""scale6"":2,""scale3"":1,""scale22"":3,""scale13"":1,""scale2"":3,""scale25"":3,""scale20"":3,""scale27"":1,""scale7"":1,""scale14"":1,""scale28"":4}","[14,11,16,0,10,4,18,8,15,7,9,20,25,23,3,22,17,5,2,21,12,1,24,19,26,6,13,27]"
"","","","","","html-button-response","142","592911","0.0-15.0","86","1","2022-10-07 08:16:38","d60b49b5908c80e163b920d72b52d584","110.185.90.76","Mozilla/5.0 (Windows NT 10.0; Win64; x64) AppleWebKit/537.36 (KHTML, like Gecko) Chrome/90.0.4430.212 Safari/537.36","WebKit","Chrome","90.0.4430.212","Windows","10.0","1840","<p><strong>请判断你在多大程度上同意下列陈述。</strong></p>","0",""
"","","","","","survey-likert","143","665947","0.0-16.0","86","1","2022-10-07 08:16:38","d60b49b5908c80e163b920d72b52d584","110.185.90.76","Mozilla/5.0 (Windows NT 10.0; Win64; x64) AppleWebKit/537.36 (KHTML, like Gecko) Chrome/90.0.4430.212 Safari/537.36","WebKit","Chrome","90.0.4430.212","Windows","10.0","73031","","{""sdo7"":1,""sdo6"":0,""sdo14"":5,""sdo8"":2,""sdo12"":6,""sdo11"":6,""sdo13"":6,""sdo10"":6,""sdo15"":6,""sdo3"":4,""sdo1"":0,""sdo2"":1,""sdo5"":2,""sdo16"":5,""sdo9"":6,""sdo4"":0}","[6,5,13,7,11,10,12,9,14,2,0,1,4,15,8,3]"
"","","","","","html-button-response","144","667303","0.0-17.0","86","1","2022-10-07 08:16:38","d60b49b5908c80e163b920d72b52d584","110.185.90.76","Mozilla/5.0 (Windows NT 10.0; Win64; x64) AppleWebKit/537.36 (KHTML, like Gecko) Chrome/90.0.4430.212 Safari/537.36","WebKit","Chrome","90.0.4430.212","Windows","10.0","1351","<p><strong>请判断你在多大程度上同意下列陈述。</strong></p>","0",""
"","","","","","survey-likert","145","709969","0.0-18.0","86","1","2022-10-07 08:16:38","d60b49b5908c80e163b920d72b52d584","110.185.90.76","Mozilla/5.0 (Windows NT 10.0; Win64; x64) AppleWebKit/537.36 (KHTML, like Gecko) Chrome/90.0.4430.212 Safari/537.36","WebKit","Chrome","90.0.4430.212","Windows","10.0","42660","","{""caring1"":3,""liking1"":1,""caring2"":4,""protection1"":4,""liking2"":1,""caring3"":4,""protection2"":3,""liking3"":0,""protection3"":4,""caring4"":4,""liking4"":0,""protection4"":3,""caring5"":4,""liking5"":3,""protection5"":2}","[0,1,2,3,4,5,6,7,8,9,10,11,12,13,14]"
"","","","","","html-button-response","146","711248","0.0-19.0","86","1","2022-10-07 08:16:38","d60b49b5908c80e163b920d72b52d584","110.185.90.76","Mozilla/5.0 (Windows NT 10.0; Win64; x64) AppleWebKit/537.36 (KHTML, like Gecko) Chrome/90.0.4430.212 Safari/537.36","WebKit","Chrome","90.0.4430.212","Windows","10.0","1274","<p><strong>请判断下列场景中你的内心感受有多柔软。</strong></p>","0",""
"","","","","","survey-likert","147","751177","0.0-20.0","86","1","2022-10-07 08:16:38","d60b49b5908c80e163b920d72b52d584","110.185.90.76","Mozilla/5.0 (Windows NT 10.0; Win64; x64) AppleWebKit/537.36 (KHTML, like Gecko) Chrome/90.0.4430.212 Safari/537.36","WebKit","Chrome","90.0.4430.212","Windows","10.0","39925","","{""tenderness-positive1"":4,""tenderness-negative1"":3,""tenderness-negative2"":1,""tenderness-positive2"":3,""tenderness-positive3"":3,""tenderness-negative3"":4,""tenderness-positive4"":4,""tendereness-negative4"":4,""tendernness-negative5"":4,""tenderness-positive5"":4}","[0,1,2,3,4,5,6,7,8,9]"
"","","","","","survey-multi-choice","148","763160","0.0-21.0","86","1","2022-10-07 08:16:38","d60b49b5908c80e163b920d72b52d584","110.185.90.76","Mozilla/5.0 (Windows NT 10.0; Win64; x64) AppleWebKit/537.36 (KHTML, like Gecko) Chrome/90.0.4430.212 Safari/537.36","WebKit","Chrome","90.0.4430.212","Windows","10.0","11977","","{""Attention2"":""其他""}","[0]"
"","","","","","html-button-response","149","764511","0.0-22.0","86","1","2022-10-07 08:16:38","d60b49b5908c80e163b920d72b52d584","110.185.90.76","Mozilla/5.0 (Windows NT 10.0; Win64; x64) AppleWebKit/537.36 (KHTML, like Gecko) Chrome/90.0.4430.212 Safari/537.36","WebKit","Chrome","90.0.4430.212","Windows","10.0","1346","<p><strong>请判断你在多大程度上同意下列陈述。</strong></p>","0",""
"","","","","","survey-likert","150","839026","0.0-23.0","86","1","2022-10-07 08:16:38","d60b49b5908c80e163b920d72b52d584","110.185.90.76","Mozilla/5.0 (Windows NT 10.0; Win64; x64) AppleWebKit/537.36 (KHTML, like Gecko) Chrome/90.0.4430.212 Safari/537.36","WebKit","Chrome","90.0.4430.212","Windows","10.0","74510","","{""Patri11"":0,""Patri1"":4,""Patri5"":4,""Nation5"":4,""Nation3"":3,""Patri8"":4,""Nation1"":4,""Patri3"":4,""Patri7"":4,""Nation4"":3,""Patri10"":0,""Nation8"":1,""Patri2"":4,""Patri4"":4,""Nation7"":4,""Patri6"":1,""Nation2"":4,""Nation6"":4,""Patri9"":0,""Patri12"":0}","[10,0,4,16,14,7,12,2,6,15,9,19,1,3,18,5,13,17,8,11]"
"","","","","","html-button-response","151","840248","0.0-24.0","86","1","2022-10-07 08:16:38","d60b49b5908c80e163b920d72b52d584","110.185.90.76","Mozilla/5.0 (Windows NT 10.0; Win64; x64) AppleWebKit/537.36 (KHTML, like Gecko) Chrome/90.0.4430.212 Safari/537.36","WebKit","Chrome","90.0.4430.212","Windows","10.0","1216","<p><strong>请判断你在多大程度上同意下列陈述。</strong></p>","0",""
"","","","","","survey-likert","152","888825","0.0-25.0","86","1","2022-10-07 08:16:38","d60b49b5908c80e163b920d72b52d584","110.185.90.76","Mozilla/5.0 (Windows NT 10.0; Win64; x64) AppleWebKit/537.36 (KHTML, like Gecko) Chrome/90.0.4430.212 Safari/537.36","WebKit","Chrome","90.0.4430.212","Windows","10.0","48572","","{""Robot"":6,""vc2"":8,""hi4"":8,""vc4"":7,""hc4"":7,""hc1"":7,""vi3"":8,""vi2"":5,""hc2"":6,""hi1"":6,""hi2"":7,""hi3"":5,""vi1"":2,""vc1"":8,""vc3"":7,""vi4"":1,""hc3"":7}","[7,14,3,16,12,9,6,5,10,0,1,2,4,13,15,8,11]"
"","","","","","survey-text","153","897896","0.0-26.0","86","1","2022-10-07 08:16:38","d60b49b5908c80e163b920d72b52d584","110.185.90.76","Mozilla/5.0 (Windows NT 10.0; Win64; x64) AppleWebKit/537.36 (KHTML, like Gecko) Chrome/90.0.4430.212 Safari/537.36","WebKit","Chrome","90.0.4430.212","Windows","10.0","9054","","{""Comments"":""无""}",""
"","","","","","html-button-response","154","899855","0.0-27.0","86","1","2022-10-07 08:16:38","d60b49b5908c80e163b920d72b52d584","110.185.90.76","Mozilla/5.0 (Windows NT 10.0; Win64; x64) AppleWebKit/537.36 (KHTML, like Gecko) Chrome/90.0.4430.212 Safari/537.36","WebKit","Chrome","90.0.4430.212","Windows","10.0","1955","<strong><p>恭喜你完成了实验！</p><p>感谢您的参与。</p></strong>","0",""
