"success","timeout","failed_images","failed_audio","failed_video","trial_type","trial_index","time_elapsed","internal_node_id","run_id","condition","recorded_at","source_code_version","ip","user_agent","device","browser","browser_version","platform","platform_version","rt","stimulus","response","question_order"
"true","false","[]","[]","[]","preload","0","3717","0.0-0.0","87","1","2022-10-07 08:28:41","d60b49b5908c80e163b920d72b52d584","182.102.133.39","Mozilla/5.0 (Windows NT 10.0; Win64; x64) AppleWebKit/537.36 (KHTML, like Gecko) Chrome/106.0.0.0 Safari/537.36 Edg/106.0.1370.34","WebKit","Edge","106.0.1370.34","Windows","10.0","","","",""
"true","","","","","fullscreen","1","8194","0.0-1.0","87","1","2022-10-07 08:28:41","d60b49b5908c80e163b920d72b52d584","182.102.133.39","Mozilla/5.0 (Windows NT 10.0; Win64; x64) AppleWebKit/537.36 (KHTML, like Gecko) Chrome/106.0.0.0 Safari/537.36 Edg/106.0.1370.34","WebKit","Edge","106.0.1370.34","Windows","10.0","","","",""
"","","","","","html-button-response","2","12293","0.0-2.0","87","1","2022-10-07 08:28:41","d60b49b5908c80e163b920d72b52d584","182.102.133.39","Mozilla/5.0 (Windows NT 10.0; Win64; x64) AppleWebKit/537.36 (KHTML, like Gecko) Chrome/106.0.0.0 Safari/537.36 Edg/106.0.1370.34","WebKit","Edge","106.0.1370.34","Windows","10.0","4097","<p style=""font-size:20px;font-weight:bold;"">实验知情同意书</p><p style=""text-align:left;""><strong>实验名称：</strong>社会冲突研究</p><p style=""text-align:left;""><strong>主要研究者：</strong>韩晓春副教授（北京师范大学心理学部）</p><p style=""text-align:left;""><strong>联系方式：</strong>发送邮件至xiaochun.han@bnu.edu.cn</p><p style=""text-align:left;""><strong>研究目的：</strong>研究旨在了解人类面对群体冲突时的决策方式，以及相关的心理学特质。实验调查大约需要20分钟。</p><p style=""text-align:left;""><strong>实验流程：</strong>实验包含两部分。第一部分呈现一系列群体冲突场景，请你决定如何对这些冲突进行反应，大约需要10分钟完成。第二部分包含一系列人口统计学信息收集和心理学问卷，大约需要10分钟完成。</p><p style=""text-align:left;""><strong>参加及退出规则：</strong>参加本实验完全取决于您的个人意愿。在参与过程中，您可以随时退出，并且不用承担任何后果。</p><p style=""text-align:left;""><strong>隐私：</strong>本实验完全匿名进行，不会收集您的姓名或其他能够识别您身份的信息。实验中收集的作答仅用作科学研究使用，可能会在学术期刊/书籍上发表，或者用于教学，您的数据未来可能会和其他研究者或实验室分享，但您的个人身份不会被识别。</p><p style=""text-align:left;""><strong>实验报酬：</strong>实验完成后，您将获得15元人民币报酬，以感谢您的时间和努力。调查问卷中包含几道题目用以测验您作答时的认真度。只有完成全部实验，并且正确回答认真度测验的被试才能获得实验报酬。实验报酬将通过支付宝转账发放。</p><p style=""text-align:left;font-size:20px;""><strong>如果您同意以上实验知情同意书的内容，请点击'同意并且开始实验'按钮；否则请关闭浏览器界面，退出实验。</strong></p>","0",""
"","","","","","html-button-response","3","13173","0.0-3.0","87","1","2022-10-07 08:28:41","d60b49b5908c80e163b920d72b52d584","182.102.133.39","Mozilla/5.0 (Windows NT 10.0; Win64; x64) AppleWebKit/537.36 (KHTML, like Gecko) Chrome/106.0.0.0 Safari/537.36 Edg/106.0.1370.34","WebKit","Edge","106.0.1370.34","Windows","10.0","879","<p ><strong>实验任务一：</strong></p><p>请想象你的国家与另一个国家发生了军事冲突。</p><p>你是国家军队的指挥官，你将如何在冲突中进行决策。</p><p>具体来说，作为军队指挥官，请你决定是否发射导弹进行打击。</p><p>接下来，你会面对一系列场景，请仔细阅读每个场景，然后进行决策。</p><p>这部分实验任务大约需要10分钟。</p><p><strong>实验过程中，请集中注意力。</strong></p>","0",""
"","","","","","html-keyboard-response","4","14189","0.0-4.0-0.0","87","1","2022-10-07 08:28:41","d60b49b5908c80e163b920d72b52d584","182.102.133.39","Mozilla/5.0 (Windows NT 10.0; Win64; x64) AppleWebKit/537.36 (KHTML, like Gecko) Chrome/106.0.0.0 Safari/537.36 Edg/106.0.1370.34","WebKit","Edge","106.0.1370.34","Windows","10.0","null","<div style=""font-size:60px;"">+</div>","null",""
"","","","","","html-button-response","5","42333","0.0-4.0-1.0","87","1","2022-10-07 08:28:41","d60b49b5908c80e163b920d72b52d584","182.102.133.39","Mozilla/5.0 (Windows NT 10.0; Win64; x64) AppleWebKit/537.36 (KHTML, like Gecko) Chrome/106.0.0.0 Safari/537.36 Edg/106.0.1370.34","WebKit","Edge","106.0.1370.34","Windows","10.0","28141","<p>作为军队的指挥官，你可以选择发射导弹杀死 <strong>7名</strong> 敌国士兵，但会炸毁附近的 <strong>1棵</strong> 敌国树木。</p> <p>树木的照片如下图所示。</p> <p></p> <img src='stimuli/trees/9.png', style='max-width: 30%;'> </img> <p><strong>你是否选择发射武器？</strong></p>","0",""
"","","","","","html-keyboard-response","6","43335","0.0-4.0-0.1","87","1","2022-10-07 08:28:41","d60b49b5908c80e163b920d72b52d584","182.102.133.39","Mozilla/5.0 (Windows NT 10.0; Win64; x64) AppleWebKit/537.36 (KHTML, like Gecko) Chrome/106.0.0.0 Safari/537.36 Edg/106.0.1370.34","WebKit","Edge","106.0.1370.34","Windows","10.0","null","<div style=""font-size:60px;"">+</div>","null",""
"","","","","","html-button-response","7","44318","0.0-4.0-1.1","87","1","2022-10-07 08:28:41","d60b49b5908c80e163b920d72b52d584","182.102.133.39","Mozilla/5.0 (Windows NT 10.0; Win64; x64) AppleWebKit/537.36 (KHTML, like Gecko) Chrome/106.0.0.0 Safari/537.36 Edg/106.0.1370.34","WebKit","Edge","106.0.1370.34","Windows","10.0","982","<p>作为军队的指挥官，你可以选择发射导弹杀死 <strong>9名</strong> 敌国士兵，但会炸毁附近的 <strong>1棵</strong> 敌国树木。</p> <p>树木的照片如下图所示。</p> <p></p> <img src='stimuli/trees/1.png', style='max-width: 30%;'> </img> <p><strong>你是否选择发射武器？</strong></p>","0",""
"","","","","","html-keyboard-response","8","45330","0.0-4.0-0.2","87","1","2022-10-07 08:28:41","d60b49b5908c80e163b920d72b52d584","182.102.133.39","Mozilla/5.0 (Windows NT 10.0; Win64; x64) AppleWebKit/537.36 (KHTML, like Gecko) Chrome/106.0.0.0 Safari/537.36 Edg/106.0.1370.34","WebKit","Edge","106.0.1370.34","Windows","10.0","null","<div style=""font-size:60px;"">+</div>","null",""
"","","","","","html-button-response","9","46180","0.0-4.0-1.2","87","1","2022-10-07 08:28:41","d60b49b5908c80e163b920d72b52d584","182.102.133.39","Mozilla/5.0 (Windows NT 10.0; Win64; x64) AppleWebKit/537.36 (KHTML, like Gecko) Chrome/106.0.0.0 Safari/537.36 Edg/106.0.1370.34","WebKit","Edge","106.0.1370.34","Windows","10.0","848","<p>作为军队的指挥官，你可以选择发射导弹杀死 <strong>9名</strong> 敌国士兵，但会误杀附近的 <strong>1名</strong> 敌国平民。</p> <p>平民照片如下图所示。</p> <p></p> <img src='stimuli/faces/NCM2.jpg', style='max-width: 30%;'> </img> <p><strong>你是否选择发射武器？</strong></p>","0",""
"","","","","","html-keyboard-response","10","47197","0.0-4.0-0.3","87","1","2022-10-07 08:28:41","d60b49b5908c80e163b920d72b52d584","182.102.133.39","Mozilla/5.0 (Windows NT 10.0; Win64; x64) AppleWebKit/537.36 (KHTML, like Gecko) Chrome/106.0.0.0 Safari/537.36 Edg/106.0.1370.34","WebKit","Edge","106.0.1370.34","Windows","10.0","null","<div style=""font-size:60px;"">+</div>","null",""
"","","","","","html-button-response","11","49788","0.0-4.0-1.3","87","1","2022-10-07 08:28:41","d60b49b5908c80e163b920d72b52d584","182.102.133.39","Mozilla/5.0 (Windows NT 10.0; Win64; x64) AppleWebKit/537.36 (KHTML, like Gecko) Chrome/106.0.0.0 Safari/537.36 Edg/106.0.1370.34","WebKit","Edge","106.0.1370.34","Windows","10.0","2589","<p>作为军队的指挥官，你可以选择发射导弹杀死 <strong>3名</strong> 敌国士兵，但会误杀附近的 <strong>1名</strong> 敌国平民。</p> <p>平民照片如下图所示。</p> <p></p> <img src='stimuli/faces/NCF7.jpg', style='max-width: 30%;'> </img> <p><strong>你是否选择发射武器？</strong></p>","0",""
"","","","","","html-keyboard-response","12","50802","0.0-4.0-0.4","87","1","2022-10-07 08:28:41","d60b49b5908c80e163b920d72b52d584","182.102.133.39","Mozilla/5.0 (Windows NT 10.0; Win64; x64) AppleWebKit/537.36 (KHTML, like Gecko) Chrome/106.0.0.0 Safari/537.36 Edg/106.0.1370.34","WebKit","Edge","106.0.1370.34","Windows","10.0","null","<div style=""font-size:60px;"">+</div>","null",""
"","","","","","html-button-response","13","56500","0.0-4.0-1.4","87","1","2022-10-07 08:28:41","d60b49b5908c80e163b920d72b52d584","182.102.133.39","Mozilla/5.0 (Windows NT 10.0; Win64; x64) AppleWebKit/537.36 (KHTML, like Gecko) Chrome/106.0.0.0 Safari/537.36 Edg/106.0.1370.34","WebKit","Edge","106.0.1370.34","Windows","10.0","5696","<p>作为军队的指挥官，你可以选择发射导弹杀死 <strong>3名</strong> 敌国士兵，但会炸毁附近的 <strong>1棵</strong> 敌国树木。</p> <p>树木的照片如下图所示。</p> <p></p> <img src='stimuli/trees/7.png', style='max-width: 30%;'> </img> <p><strong>你是否选择发射武器？</strong></p>","1",""
"","","","","","html-keyboard-response","14","57506","0.0-4.0-0.5","87","1","2022-10-07 08:28:41","d60b49b5908c80e163b920d72b52d584","182.102.133.39","Mozilla/5.0 (Windows NT 10.0; Win64; x64) AppleWebKit/537.36 (KHTML, like Gecko) Chrome/106.0.0.0 Safari/537.36 Edg/106.0.1370.34","WebKit","Edge","106.0.1370.34","Windows","10.0","null","<div style=""font-size:60px;"">+</div>","null",""
"","","","","","html-button-response","15","60204","0.0-4.0-1.5","87","1","2022-10-07 08:28:41","d60b49b5908c80e163b920d72b52d584","182.102.133.39","Mozilla/5.0 (Windows NT 10.0; Win64; x64) AppleWebKit/537.36 (KHTML, like Gecko) Chrome/106.0.0.0 Safari/537.36 Edg/106.0.1370.34","WebKit","Edge","106.0.1370.34","Windows","10.0","2696","<p>作为军队的指挥官，你可以选择发射导弹杀死 <strong>3名</strong> 敌国士兵，但会炸毁附近的 <strong>1棵</strong> 敌国树木。</p> <p>树木的照片如下图所示。</p> <p></p> <img src='stimuli/trees/16.png', style='max-width: 30%;'> </img> <p><strong>你是否选择发射武器？</strong></p>","1",""
"","","","","","html-keyboard-response","16","61216","0.0-4.0-0.6","87","1","2022-10-07 08:28:41","d60b49b5908c80e163b920d72b52d584","182.102.133.39","Mozilla/5.0 (Windows NT 10.0; Win64; x64) AppleWebKit/537.36 (KHTML, like Gecko) Chrome/106.0.0.0 Safari/537.36 Edg/106.0.1370.34","WebKit","Edge","106.0.1370.34","Windows","10.0","null","<div style=""font-size:60px;"">+</div>","null",""
"","","","","","html-button-response","17","66845","0.0-4.0-1.6","87","1","2022-10-07 08:28:41","d60b49b5908c80e163b920d72b52d584","182.102.133.39","Mozilla/5.0 (Windows NT 10.0; Win64; x64) AppleWebKit/537.36 (KHTML, like Gecko) Chrome/106.0.0.0 Safari/537.36 Edg/106.0.1370.34","WebKit","Edge","106.0.1370.34","Windows","10.0","5626","<p>作为军队的指挥官，你可以选择发射导弹杀死 <strong>4名</strong> 敌国士兵，但会误杀附近的 <strong>1名</strong> 敌国平民。</p> <p>平民照片如下图所示。</p> <p></p> <img src='stimuli/faces/NCF8.jpg', style='max-width: 30%;'> </img> <p><strong>你是否选择发射武器？</strong></p>","0",""
"","","","","","html-keyboard-response","18","67849","0.0-4.0-0.7","87","1","2022-10-07 08:28:41","d60b49b5908c80e163b920d72b52d584","182.102.133.39","Mozilla/5.0 (Windows NT 10.0; Win64; x64) AppleWebKit/537.36 (KHTML, like Gecko) Chrome/106.0.0.0 Safari/537.36 Edg/106.0.1370.34","WebKit","Edge","106.0.1370.34","Windows","10.0","null","<div style=""font-size:60px;"">+</div>","null",""
"","","","","","html-button-response","19","69692","0.0-4.0-1.7","87","1","2022-10-07 08:28:41","d60b49b5908c80e163b920d72b52d584","182.102.133.39","Mozilla/5.0 (Windows NT 10.0; Win64; x64) AppleWebKit/537.36 (KHTML, like Gecko) Chrome/106.0.0.0 Safari/537.36 Edg/106.0.1370.34","WebKit","Edge","106.0.1370.34","Windows","10.0","1842","<p>作为军队的指挥官，你可以选择发射导弹杀死 <strong>6名</strong> 敌国士兵，但会误杀附近的 <strong>1名</strong> 敌国平民。</p> <p>平民照片如下图所示。</p> <p></p> <img src='stimuli/faces/NCM1.jpg', style='max-width: 30%;'> </img> <p><strong>你是否选择发射武器？</strong></p>","0",""
"","","","","","html-keyboard-response","20","70701","0.0-4.0-0.8","87","1","2022-10-07 08:28:41","d60b49b5908c80e163b920d72b52d584","182.102.133.39","Mozilla/5.0 (Windows NT 10.0; Win64; x64) AppleWebKit/537.36 (KHTML, like Gecko) Chrome/106.0.0.0 Safari/537.36 Edg/106.0.1370.34","WebKit","Edge","106.0.1370.34","Windows","10.0","null","<div style=""font-size:60px;"">+</div>","null",""
"","","","","","html-button-response","21","74351","0.0-4.0-1.8","87","1","2022-10-07 08:28:41","d60b49b5908c80e163b920d72b52d584","182.102.133.39","Mozilla/5.0 (Windows NT 10.0; Win64; x64) AppleWebKit/537.36 (KHTML, like Gecko) Chrome/106.0.0.0 Safari/537.36 Edg/106.0.1370.34","WebKit","Edge","106.0.1370.34","Windows","10.0","3648","<p>作为军队的指挥官，你可以选择发射导弹杀死 <strong>3名</strong> 敌国士兵，但会炸毁附近的 <strong>1棵</strong> 敌国树木。</p> <p>树木的照片如下图所示。</p> <p></p> <img src='stimuli/trees/15.png', style='max-width: 30%;'> </img> <p><strong>你是否选择发射武器？</strong></p>","1",""
"","","","","","html-keyboard-response","22","75352","0.0-4.0-0.9","87","1","2022-10-07 08:28:41","d60b49b5908c80e163b920d72b52d584","182.102.133.39","Mozilla/5.0 (Windows NT 10.0; Win64; x64) AppleWebKit/537.36 (KHTML, like Gecko) Chrome/106.0.0.0 Safari/537.36 Edg/106.0.1370.34","WebKit","Edge","106.0.1370.34","Windows","10.0","null","<div style=""font-size:60px;"">+</div>","null",""
"","","","","","html-button-response","23","75956","0.0-4.0-1.9","87","1","2022-10-07 08:28:41","d60b49b5908c80e163b920d72b52d584","182.102.133.39","Mozilla/5.0 (Windows NT 10.0; Win64; x64) AppleWebKit/537.36 (KHTML, like Gecko) Chrome/106.0.0.0 Safari/537.36 Edg/106.0.1370.34","WebKit","Edge","106.0.1370.34","Windows","10.0","603","<p>作为军队的指挥官，你可以选择发射导弹杀死 <strong>6名</strong> 敌国士兵，但会炸毁附近的 <strong>1棵</strong> 敌国树木。</p> <p>树木的照片如下图所示。</p> <p></p> <img src='stimuli/trees/4.png', style='max-width: 30%;'> </img> <p><strong>你是否选择发射武器？</strong></p>","0",""
"","","","","","html-keyboard-response","24","76959","0.0-4.0-0.10","87","1","2022-10-07 08:28:41","d60b49b5908c80e163b920d72b52d584","182.102.133.39","Mozilla/5.0 (Windows NT 10.0; Win64; x64) AppleWebKit/537.36 (KHTML, like Gecko) Chrome/106.0.0.0 Safari/537.36 Edg/106.0.1370.34","WebKit","Edge","106.0.1370.34","Windows","10.0","null","<div style=""font-size:60px;"">+</div>","null",""
"","","","","","html-button-response","25","77836","0.0-4.0-1.10","87","1","2022-10-07 08:28:41","d60b49b5908c80e163b920d72b52d584","182.102.133.39","Mozilla/5.0 (Windows NT 10.0; Win64; x64) AppleWebKit/537.36 (KHTML, like Gecko) Chrome/106.0.0.0 Safari/537.36 Edg/106.0.1370.34","WebKit","Edge","106.0.1370.34","Windows","10.0","875","<p>作为军队的指挥官，你可以选择发射导弹杀死 <strong>4名</strong> 敌国士兵，但会误杀附近的 <strong>1名</strong> 敌国平民。</p> <p>平民照片如下图所示。</p> <p></p> <img src='stimuli/faces/NCF3.jpg', style='max-width: 30%;'> </img> <p><strong>你是否选择发射武器？</strong></p>","0",""
"","","","","","html-keyboard-response","26","78847","0.0-4.0-0.11","87","1","2022-10-07 08:28:41","d60b49b5908c80e163b920d72b52d584","182.102.133.39","Mozilla/5.0 (Windows NT 10.0; Win64; x64) AppleWebKit/537.36 (KHTML, like Gecko) Chrome/106.0.0.0 Safari/537.36 Edg/106.0.1370.34","WebKit","Edge","106.0.1370.34","Windows","10.0","null","<div style=""font-size:60px;"">+</div>","null",""
"","","","","","html-button-response","27","84804","0.0-4.0-1.11","87","1","2022-10-07 08:28:41","d60b49b5908c80e163b920d72b52d584","182.102.133.39","Mozilla/5.0 (Windows NT 10.0; Win64; x64) AppleWebKit/537.36 (KHTML, like Gecko) Chrome/106.0.0.0 Safari/537.36 Edg/106.0.1370.34","WebKit","Edge","106.0.1370.34","Windows","10.0","5955","<p>作为军队的指挥官，你可以选择发射导弹杀死 <strong>4名</strong> 敌国士兵，但会误杀附近的 <strong>1名</strong> 敌国平民。</p> <p>平民照片如下图所示。</p> <p></p> <img src='stimuli/faces/NCF4.jpg', style='max-width: 30%;'> </img> <p><strong>你是否选择发射武器？</strong></p>","0",""
"","","","","","html-keyboard-response","28","85806","0.0-4.0-0.12","87","1","2022-10-07 08:28:41","d60b49b5908c80e163b920d72b52d584","182.102.133.39","Mozilla/5.0 (Windows NT 10.0; Win64; x64) AppleWebKit/537.36 (KHTML, like Gecko) Chrome/106.0.0.0 Safari/537.36 Edg/106.0.1370.34","WebKit","Edge","106.0.1370.34","Windows","10.0","null","<div style=""font-size:60px;"">+</div>","null",""
"","","","","","html-button-response","29","88732","0.0-4.0-1.12","87","1","2022-10-07 08:28:41","d60b49b5908c80e163b920d72b52d584","182.102.133.39","Mozilla/5.0 (Windows NT 10.0; Win64; x64) AppleWebKit/537.36 (KHTML, like Gecko) Chrome/106.0.0.0 Safari/537.36 Edg/106.0.1370.34","WebKit","Edge","106.0.1370.34","Windows","10.0","2923","<p>作为军队的指挥官，你可以选择发射导弹杀死 <strong>9名</strong> 敌国士兵，但会误杀附近的 <strong>1名</strong> 敌国平民。</p> <p>平民照片如下图所示。</p> <p></p> <img src='stimuli/faces/NCM3.jpg', style='max-width: 30%;'> </img> <p><strong>你是否选择发射武器？</strong></p>","0",""
"","","","","","html-keyboard-response","30","89739","0.0-4.0-0.13","87","1","2022-10-07 08:28:41","d60b49b5908c80e163b920d72b52d584","182.102.133.39","Mozilla/5.0 (Windows NT 10.0; Win64; x64) AppleWebKit/537.36 (KHTML, like Gecko) Chrome/106.0.0.0 Safari/537.36 Edg/106.0.1370.34","WebKit","Edge","106.0.1370.34","Windows","10.0","null","<div style=""font-size:60px;"">+</div>","null",""
"","","","","","html-button-response","31","90772","0.0-4.0-1.13","87","1","2022-10-07 08:28:41","d60b49b5908c80e163b920d72b52d584","182.102.133.39","Mozilla/5.0 (Windows NT 10.0; Win64; x64) AppleWebKit/537.36 (KHTML, like Gecko) Chrome/106.0.0.0 Safari/537.36 Edg/106.0.1370.34","WebKit","Edge","106.0.1370.34","Windows","10.0","1031","<p>作为军队的指挥官，你可以选择发射导弹杀死 <strong>7名</strong> 敌国士兵，但会炸毁附近的 <strong>1棵</strong> 敌国树木。</p> <p>树木的照片如下图所示。</p> <p></p> <img src='stimuli/trees/3.png', style='max-width: 30%;'> </img> <p><strong>你是否选择发射武器？</strong></p>","0",""
"","","","","","html-keyboard-response","32","91788","0.0-4.0-0.14","87","1","2022-10-07 08:28:41","d60b49b5908c80e163b920d72b52d584","182.102.133.39","Mozilla/5.0 (Windows NT 10.0; Win64; x64) AppleWebKit/537.36 (KHTML, like Gecko) Chrome/106.0.0.0 Safari/537.36 Edg/106.0.1370.34","WebKit","Edge","106.0.1370.34","Windows","10.0","null","<div style=""font-size:60px;"">+</div>","null",""
"","","","","","html-button-response","33","94956","0.0-4.0-1.14","87","1","2022-10-07 08:28:41","d60b49b5908c80e163b920d72b52d584","182.102.133.39","Mozilla/5.0 (Windows NT 10.0; Win64; x64) AppleWebKit/537.36 (KHTML, like Gecko) Chrome/106.0.0.0 Safari/537.36 Edg/106.0.1370.34","WebKit","Edge","106.0.1370.34","Windows","10.0","3165","<p>作为军队的指挥官，你可以选择发射导弹杀死 <strong>4名</strong> 敌国士兵，但会误杀附近的 <strong>1名</strong> 敌国平民。</p> <p>平民照片如下图所示。</p> <p></p> <img src='stimuli/faces/NCM2.jpg', style='max-width: 30%;'> </img> <p><strong>你是否选择发射武器？</strong></p>","1",""
"","","","","","html-keyboard-response","34","95963","0.0-4.0-0.15","87","1","2022-10-07 08:28:41","d60b49b5908c80e163b920d72b52d584","182.102.133.39","Mozilla/5.0 (Windows NT 10.0; Win64; x64) AppleWebKit/537.36 (KHTML, like Gecko) Chrome/106.0.0.0 Safari/537.36 Edg/106.0.1370.34","WebKit","Edge","106.0.1370.34","Windows","10.0","null","<div style=""font-size:60px;"">+</div>","null",""
"","","","","","html-button-response","35","96996","0.0-4.0-1.15","87","1","2022-10-07 08:28:41","d60b49b5908c80e163b920d72b52d584","182.102.133.39","Mozilla/5.0 (Windows NT 10.0; Win64; x64) AppleWebKit/537.36 (KHTML, like Gecko) Chrome/106.0.0.0 Safari/537.36 Edg/106.0.1370.34","WebKit","Edge","106.0.1370.34","Windows","10.0","1032","<p>作为军队的指挥官，你可以选择发射导弹杀死 <strong>9名</strong> 敌国士兵，但会误杀附近的 <strong>1名</strong> 敌国平民。</p> <p>平民照片如下图所示。</p> <p></p> <img src='stimuli/faces/NCF6.jpg', style='max-width: 30%;'> </img> <p><strong>你是否选择发射武器？</strong></p>","0",""
"","","","","","html-keyboard-response","36","98010","0.0-4.0-0.16","87","1","2022-10-07 08:28:41","d60b49b5908c80e163b920d72b52d584","182.102.133.39","Mozilla/5.0 (Windows NT 10.0; Win64; x64) AppleWebKit/537.36 (KHTML, like Gecko) Chrome/106.0.0.0 Safari/537.36 Edg/106.0.1370.34","WebKit","Edge","106.0.1370.34","Windows","10.0","null","<div style=""font-size:60px;"">+</div>","null",""
"","","","","","html-button-response","37","98692","0.0-4.0-1.16","87","1","2022-10-07 08:28:41","d60b49b5908c80e163b920d72b52d584","182.102.133.39","Mozilla/5.0 (Windows NT 10.0; Win64; x64) AppleWebKit/537.36 (KHTML, like Gecko) Chrome/106.0.0.0 Safari/537.36 Edg/106.0.1370.34","WebKit","Edge","106.0.1370.34","Windows","10.0","680","<p>作为军队的指挥官，你可以选择发射导弹杀死 <strong>4名</strong> 敌国士兵，但会误杀附近的 <strong>1名</strong> 敌国平民。</p> <p>平民照片如下图所示。</p> <p></p> <img src='stimuli/faces/NCM4.jpg', style='max-width: 30%;'> </img> <p><strong>你是否选择发射武器？</strong></p>","1",""
"","","","","","html-keyboard-response","38","99695","0.0-4.0-0.17","87","1","2022-10-07 08:28:41","d60b49b5908c80e163b920d72b52d584","182.102.133.39","Mozilla/5.0 (Windows NT 10.0; Win64; x64) AppleWebKit/537.36 (KHTML, like Gecko) Chrome/106.0.0.0 Safari/537.36 Edg/106.0.1370.34","WebKit","Edge","106.0.1370.34","Windows","10.0","null","<div style=""font-size:60px;"">+</div>","null",""
"","","","","","html-button-response","39","100348","0.0-4.0-1.17","87","1","2022-10-07 08:28:41","d60b49b5908c80e163b920d72b52d584","182.102.133.39","Mozilla/5.0 (Windows NT 10.0; Win64; x64) AppleWebKit/537.36 (KHTML, like Gecko) Chrome/106.0.0.0 Safari/537.36 Edg/106.0.1370.34","WebKit","Edge","106.0.1370.34","Windows","10.0","652","<p>作为军队的指挥官，你可以选择发射导弹杀死 <strong>10名</strong> 敌国士兵，但会炸毁附近的 <strong>1棵</strong> 敌国树木。</p> <p>树木的照片如下图所示。</p> <p></p> <img src='stimuli/trees/15.png', style='max-width: 30%;'> </img> <p><strong>你是否选择发射武器？</strong></p>","0",""
"","","","","","html-keyboard-response","40","101356","0.0-4.0-0.18","87","1","2022-10-07 08:28:41","d60b49b5908c80e163b920d72b52d584","182.102.133.39","Mozilla/5.0 (Windows NT 10.0; Win64; x64) AppleWebKit/537.36 (KHTML, like Gecko) Chrome/106.0.0.0 Safari/537.36 Edg/106.0.1370.34","WebKit","Edge","106.0.1370.34","Windows","10.0","null","<div style=""font-size:60px;"">+</div>","null",""
"","","","","","html-button-response","41","102340","0.0-4.0-1.18","87","1","2022-10-07 08:28:41","d60b49b5908c80e163b920d72b52d584","182.102.133.39","Mozilla/5.0 (Windows NT 10.0; Win64; x64) AppleWebKit/537.36 (KHTML, like Gecko) Chrome/106.0.0.0 Safari/537.36 Edg/106.0.1370.34","WebKit","Edge","106.0.1370.34","Windows","10.0","982","<p>作为军队的指挥官，你可以选择发射导弹杀死 <strong>6名</strong> 敌国士兵，但会误杀附近的 <strong>1名</strong> 敌国平民。</p> <p>平民照片如下图所示。</p> <p></p> <img src='stimuli/faces/NCF1.jpg', style='max-width: 30%;'> </img> <p><strong>你是否选择发射武器？</strong></p>","0",""
"","","","","","html-keyboard-response","42","103352","0.0-4.0-0.19","87","1","2022-10-07 08:28:41","d60b49b5908c80e163b920d72b52d584","182.102.133.39","Mozilla/5.0 (Windows NT 10.0; Win64; x64) AppleWebKit/537.36 (KHTML, like Gecko) Chrome/106.0.0.0 Safari/537.36 Edg/106.0.1370.34","WebKit","Edge","106.0.1370.34","Windows","10.0","null","<div style=""font-size:60px;"">+</div>","null",""
"","","","","","html-button-response","43","104381","0.0-4.0-1.19","87","1","2022-10-07 08:28:41","d60b49b5908c80e163b920d72b52d584","182.102.133.39","Mozilla/5.0 (Windows NT 10.0; Win64; x64) AppleWebKit/537.36 (KHTML, like Gecko) Chrome/106.0.0.0 Safari/537.36 Edg/106.0.1370.34","WebKit","Edge","106.0.1370.34","Windows","10.0","1026","<p>作为军队的指挥官，你可以选择发射导弹杀死 <strong>10名</strong> 敌国士兵，但会误杀附近的 <strong>1名</strong> 敌国平民。</p> <p>平民照片如下图所示。</p> <p></p> <img src='stimuli/faces/NCF3.jpg', style='max-width: 30%;'> </img> <p><strong>你是否选择发射武器？</strong></p>","0",""
"","","","","","html-keyboard-response","44","105394","0.0-4.0-0.20","87","1","2022-10-07 08:28:41","d60b49b5908c80e163b920d72b52d584","182.102.133.39","Mozilla/5.0 (Windows NT 10.0; Win64; x64) AppleWebKit/537.36 (KHTML, like Gecko) Chrome/106.0.0.0 Safari/537.36 Edg/106.0.1370.34","WebKit","Edge","106.0.1370.34","Windows","10.0","null","<div style=""font-size:60px;"">+</div>","null",""
"","","","","","html-button-response","45","106998","0.0-4.0-1.20","87","1","2022-10-07 08:28:41","d60b49b5908c80e163b920d72b52d584","182.102.133.39","Mozilla/5.0 (Windows NT 10.0; Win64; x64) AppleWebKit/537.36 (KHTML, like Gecko) Chrome/106.0.0.0 Safari/537.36 Edg/106.0.1370.34","WebKit","Edge","106.0.1370.34","Windows","10.0","1601","<p>作为军队的指挥官，你可以选择发射导弹杀死 <strong>4名</strong> 敌国士兵，但会炸毁附近的 <strong>1棵</strong> 敌国树木。</p> <p>树木的照片如下图所示。</p> <p></p> <img src='stimuli/trees/14.png', style='max-width: 30%;'> </img> <p><strong>你是否选择发射武器？</strong></p>","0",""
"","","","","","html-keyboard-response","46","108001","0.0-4.0-0.21","87","1","2022-10-07 08:28:41","d60b49b5908c80e163b920d72b52d584","182.102.133.39","Mozilla/5.0 (Windows NT 10.0; Win64; x64) AppleWebKit/537.36 (KHTML, like Gecko) Chrome/106.0.0.0 Safari/537.36 Edg/106.0.1370.34","WebKit","Edge","106.0.1370.34","Windows","10.0","null","<div style=""font-size:60px;"">+</div>","null",""
"","","","","","html-button-response","47","108669","0.0-4.0-1.21","87","1","2022-10-07 08:28:41","d60b49b5908c80e163b920d72b52d584","182.102.133.39","Mozilla/5.0 (Windows NT 10.0; Win64; x64) AppleWebKit/537.36 (KHTML, like Gecko) Chrome/106.0.0.0 Safari/537.36 Edg/106.0.1370.34","WebKit","Edge","106.0.1370.34","Windows","10.0","665","<p>作为军队的指挥官，你可以选择发射导弹杀死 <strong>2名</strong> 敌国士兵，但会误杀附近的 <strong>1名</strong> 敌国平民。</p> <p>平民照片如下图所示。</p> <p></p> <img src='stimuli/faces/NCM5.jpg', style='max-width: 30%;'> </img> <p><strong>你是否选择发射武器？</strong></p>","1",""
"","","","","","html-keyboard-response","48","109674","0.0-4.0-0.22","87","1","2022-10-07 08:28:41","d60b49b5908c80e163b920d72b52d584","182.102.133.39","Mozilla/5.0 (Windows NT 10.0; Win64; x64) AppleWebKit/537.36 (KHTML, like Gecko) Chrome/106.0.0.0 Safari/537.36 Edg/106.0.1370.34","WebKit","Edge","106.0.1370.34","Windows","10.0","null","<div style=""font-size:60px;"">+</div>","null",""
"","","","","","html-button-response","49","110589","0.0-4.0-1.22","87","1","2022-10-07 08:28:41","d60b49b5908c80e163b920d72b52d584","182.102.133.39","Mozilla/5.0 (Windows NT 10.0; Win64; x64) AppleWebKit/537.36 (KHTML, like Gecko) Chrome/106.0.0.0 Safari/537.36 Edg/106.0.1370.34","WebKit","Edge","106.0.1370.34","Windows","10.0","911","<p>作为军队的指挥官，你可以选择发射导弹杀死 <strong>8名</strong> 敌国士兵，但会炸毁附近的 <strong>1棵</strong> 敌国树木。</p> <p>树木的照片如下图所示。</p> <p></p> <img src='stimuli/trees/5.png', style='max-width: 30%;'> </img> <p><strong>你是否选择发射武器？</strong></p>","0",""
"","","","","","html-keyboard-response","50","111604","0.0-4.0-0.23","87","1","2022-10-07 08:28:41","d60b49b5908c80e163b920d72b52d584","182.102.133.39","Mozilla/5.0 (Windows NT 10.0; Win64; x64) AppleWebKit/537.36 (KHTML, like Gecko) Chrome/106.0.0.0 Safari/537.36 Edg/106.0.1370.34","WebKit","Edge","106.0.1370.34","Windows","10.0","null","<div style=""font-size:60px;"">+</div>","null",""
"","","","","","html-button-response","51","113093","0.0-4.0-1.23","87","1","2022-10-07 08:28:41","d60b49b5908c80e163b920d72b52d584","182.102.133.39","Mozilla/5.0 (Windows NT 10.0; Win64; x64) AppleWebKit/537.36 (KHTML, like Gecko) Chrome/106.0.0.0 Safari/537.36 Edg/106.0.1370.34","WebKit","Edge","106.0.1370.34","Windows","10.0","1486","<p>作为军队的指挥官，你可以选择发射导弹杀死 <strong>6名</strong> 敌国士兵，但会误杀附近的 <strong>1名</strong> 敌国平民。</p> <p>平民照片如下图所示。</p> <p></p> <img src='stimuli/faces/NCM6.jpg', style='max-width: 30%;'> </img> <p><strong>你是否选择发射武器？</strong></p>","0",""
"","","","","","html-keyboard-response","52","114099","0.0-4.0-0.24","87","1","2022-10-07 08:28:41","d60b49b5908c80e163b920d72b52d584","182.102.133.39","Mozilla/5.0 (Windows NT 10.0; Win64; x64) AppleWebKit/537.36 (KHTML, like Gecko) Chrome/106.0.0.0 Safari/537.36 Edg/106.0.1370.34","WebKit","Edge","106.0.1370.34","Windows","10.0","null","<div style=""font-size:60px;"">+</div>","null",""
"","","","","","html-button-response","53","115349","0.0-4.0-1.24","87","1","2022-10-07 08:28:41","d60b49b5908c80e163b920d72b52d584","182.102.133.39","Mozilla/5.0 (Windows NT 10.0; Win64; x64) AppleWebKit/537.36 (KHTML, like Gecko) Chrome/106.0.0.0 Safari/537.36 Edg/106.0.1370.34","WebKit","Edge","106.0.1370.34","Windows","10.0","1247","<p>作为军队的指挥官，你可以选择发射导弹杀死 <strong>1名</strong> 敌国士兵，但会炸毁附近的 <strong>1棵</strong> 敌国树木。</p> <p>树木的照片如下图所示。</p> <p></p> <img src='stimuli/trees/8.png', style='max-width: 30%;'> </img> <p><strong>你是否选择发射武器？</strong></p>","1",""
"","","","","","html-keyboard-response","54","116350","0.0-4.0-0.25","87","1","2022-10-07 08:28:41","d60b49b5908c80e163b920d72b52d584","182.102.133.39","Mozilla/5.0 (Windows NT 10.0; Win64; x64) AppleWebKit/537.36 (KHTML, like Gecko) Chrome/106.0.0.0 Safari/537.36 Edg/106.0.1370.34","WebKit","Edge","106.0.1370.34","Windows","10.0","null","<div style=""font-size:60px;"">+</div>","null",""
"","","","","","html-button-response","55","117613","0.0-4.0-1.25","87","1","2022-10-07 08:28:41","d60b49b5908c80e163b920d72b52d584","182.102.133.39","Mozilla/5.0 (Windows NT 10.0; Win64; x64) AppleWebKit/537.36 (KHTML, like Gecko) Chrome/106.0.0.0 Safari/537.36 Edg/106.0.1370.34","WebKit","Edge","106.0.1370.34","Windows","10.0","1262","<p>作为军队的指挥官，你可以选择发射导弹杀死 <strong>3名</strong> 敌国士兵，但会炸毁附近的 <strong>1棵</strong> 敌国树木。</p> <p>树木的照片如下图所示。</p> <p></p> <img src='stimuli/trees/2.png', style='max-width: 30%;'> </img> <p><strong>你是否选择发射武器？</strong></p>","1",""
"","","","","","html-keyboard-response","56","118629","0.0-4.0-0.26","87","1","2022-10-07 08:28:41","d60b49b5908c80e163b920d72b52d584","182.102.133.39","Mozilla/5.0 (Windows NT 10.0; Win64; x64) AppleWebKit/537.36 (KHTML, like Gecko) Chrome/106.0.0.0 Safari/537.36 Edg/106.0.1370.34","WebKit","Edge","106.0.1370.34","Windows","10.0","null","<div style=""font-size:60px;"">+</div>","null",""
"","","","","","html-button-response","57","119525","0.0-4.0-1.26","87","1","2022-10-07 08:28:41","d60b49b5908c80e163b920d72b52d584","182.102.133.39","Mozilla/5.0 (Windows NT 10.0; Win64; x64) AppleWebKit/537.36 (KHTML, like Gecko) Chrome/106.0.0.0 Safari/537.36 Edg/106.0.1370.34","WebKit","Edge","106.0.1370.34","Windows","10.0","892","<p>作为军队的指挥官，你可以选择发射导弹杀死 <strong>5名</strong> 敌国士兵，但会炸毁附近的 <strong>1棵</strong> 敌国树木。</p> <p>树木的照片如下图所示。</p> <p></p> <img src='stimuli/trees/10.png', style='max-width: 30%;'> </img> <p><strong>你是否选择发射武器？</strong></p>","0",""
"","","","","","html-keyboard-response","58","120540","0.0-4.0-0.27","87","1","2022-10-07 08:28:41","d60b49b5908c80e163b920d72b52d584","182.102.133.39","Mozilla/5.0 (Windows NT 10.0; Win64; x64) AppleWebKit/537.36 (KHTML, like Gecko) Chrome/106.0.0.0 Safari/537.36 Edg/106.0.1370.34","WebKit","Edge","106.0.1370.34","Windows","10.0","null","<div style=""font-size:60px;"">+</div>","null",""
"","","","","","html-button-response","59","124052","0.0-4.0-1.27","87","1","2022-10-07 08:28:41","d60b49b5908c80e163b920d72b52d584","182.102.133.39","Mozilla/5.0 (Windows NT 10.0; Win64; x64) AppleWebKit/537.36 (KHTML, like Gecko) Chrome/106.0.0.0 Safari/537.36 Edg/106.0.1370.34","WebKit","Edge","106.0.1370.34","Windows","10.0","3508","<p>作为军队的指挥官，你可以选择发射导弹杀死 <strong>3名</strong> 敌国士兵，但会炸毁附近的 <strong>1棵</strong> 敌国树木。</p> <p>树木的照片如下图所示。</p> <p></p> <img src='stimuli/trees/1.png', style='max-width: 30%;'> </img> <p><strong>你是否选择发射武器？</strong></p>","1",""
"","","","","","html-keyboard-response","60","125055","0.0-4.0-0.28","87","1","2022-10-07 08:28:41","d60b49b5908c80e163b920d72b52d584","182.102.133.39","Mozilla/5.0 (Windows NT 10.0; Win64; x64) AppleWebKit/537.36 (KHTML, like Gecko) Chrome/106.0.0.0 Safari/537.36 Edg/106.0.1370.34","WebKit","Edge","106.0.1370.34","Windows","10.0","null","<div style=""font-size:60px;"">+</div>","null",""
"","","","","","html-button-response","61","127716","0.0-4.0-1.28","87","1","2022-10-07 08:28:41","d60b49b5908c80e163b920d72b52d584","182.102.133.39","Mozilla/5.0 (Windows NT 10.0; Win64; x64) AppleWebKit/537.36 (KHTML, like Gecko) Chrome/106.0.0.0 Safari/537.36 Edg/106.0.1370.34","WebKit","Edge","106.0.1370.34","Windows","10.0","2659","<p>作为军队的指挥官，你可以选择发射导弹杀死 <strong>9名</strong> 敌国士兵，但会误杀附近的 <strong>1名</strong> 敌国平民。</p> <p>平民照片如下图所示。</p> <p></p> <img src='stimuli/faces/NCM5.jpg', style='max-width: 30%;'> </img> <p><strong>你是否选择发射武器？</strong></p>","0",""
"","","","","","html-keyboard-response","62","128728","0.0-4.0-0.29","87","1","2022-10-07 08:28:41","d60b49b5908c80e163b920d72b52d584","182.102.133.39","Mozilla/5.0 (Windows NT 10.0; Win64; x64) AppleWebKit/537.36 (KHTML, like Gecko) Chrome/106.0.0.0 Safari/537.36 Edg/106.0.1370.34","WebKit","Edge","106.0.1370.34","Windows","10.0","null","<div style=""font-size:60px;"">+</div>","null",""
"","","","","","html-button-response","63","130876","0.0-4.0-1.29","87","1","2022-10-07 08:28:41","d60b49b5908c80e163b920d72b52d584","182.102.133.39","Mozilla/5.0 (Windows NT 10.0; Win64; x64) AppleWebKit/537.36 (KHTML, like Gecko) Chrome/106.0.0.0 Safari/537.36 Edg/106.0.1370.34","WebKit","Edge","106.0.1370.34","Windows","10.0","2146","<p>作为军队的指挥官，你可以选择发射导弹杀死 <strong>7名</strong> 敌国士兵，但会误杀附近的 <strong>1名</strong> 敌国平民。</p> <p>平民照片如下图所示。</p> <p></p> <img src='stimuli/faces/NCM4.jpg', style='max-width: 30%;'> </img> <p><strong>你是否选择发射武器？</strong></p>","0",""
"","","","","","html-keyboard-response","64","131878","0.0-4.0-0.30","87","1","2022-10-07 08:28:41","d60b49b5908c80e163b920d72b52d584","182.102.133.39","Mozilla/5.0 (Windows NT 10.0; Win64; x64) AppleWebKit/537.36 (KHTML, like Gecko) Chrome/106.0.0.0 Safari/537.36 Edg/106.0.1370.34","WebKit","Edge","106.0.1370.34","Windows","10.0","null","<div style=""font-size:60px;"">+</div>","null",""
"","","","","","html-button-response","65","133588","0.0-4.0-1.30","87","1","2022-10-07 08:28:41","d60b49b5908c80e163b920d72b52d584","182.102.133.39","Mozilla/5.0 (Windows NT 10.0; Win64; x64) AppleWebKit/537.36 (KHTML, like Gecko) Chrome/106.0.0.0 Safari/537.36 Edg/106.0.1370.34","WebKit","Edge","106.0.1370.34","Windows","10.0","1708","<p>作为军队的指挥官，你可以选择发射导弹杀死 <strong>10名</strong> 敌国士兵，但会炸毁附近的 <strong>1棵</strong> 敌国树木。</p> <p>树木的照片如下图所示。</p> <p></p> <img src='stimuli/trees/14.png', style='max-width: 30%;'> </img> <p><strong>你是否选择发射武器？</strong></p>","0",""
"","","","","","html-keyboard-response","66","134599","0.0-4.0-0.31","87","1","2022-10-07 08:28:41","d60b49b5908c80e163b920d72b52d584","182.102.133.39","Mozilla/5.0 (Windows NT 10.0; Win64; x64) AppleWebKit/537.36 (KHTML, like Gecko) Chrome/106.0.0.0 Safari/537.36 Edg/106.0.1370.34","WebKit","Edge","106.0.1370.34","Windows","10.0","null","<div style=""font-size:60px;"">+</div>","null",""
"","","","","","html-button-response","67","135300","0.0-4.0-1.31","87","1","2022-10-07 08:28:41","d60b49b5908c80e163b920d72b52d584","182.102.133.39","Mozilla/5.0 (Windows NT 10.0; Win64; x64) AppleWebKit/537.36 (KHTML, like Gecko) Chrome/106.0.0.0 Safari/537.36 Edg/106.0.1370.34","WebKit","Edge","106.0.1370.34","Windows","10.0","697","<p>作为军队的指挥官，你可以选择发射导弹杀死 <strong>8名</strong> 敌国士兵，但会误杀附近的 <strong>1名</strong> 敌国平民。</p> <p>平民照片如下图所示。</p> <p></p> <img src='stimuli/faces/NCF5.jpg', style='max-width: 30%;'> </img> <p><strong>你是否选择发射武器？</strong></p>","0",""
"","","","","","html-keyboard-response","68","136306","0.0-4.0-0.32","87","1","2022-10-07 08:28:41","d60b49b5908c80e163b920d72b52d584","182.102.133.39","Mozilla/5.0 (Windows NT 10.0; Win64; x64) AppleWebKit/537.36 (KHTML, like Gecko) Chrome/106.0.0.0 Safari/537.36 Edg/106.0.1370.34","WebKit","Edge","106.0.1370.34","Windows","10.0","null","<div style=""font-size:60px;"">+</div>","null",""
"","","","","","html-button-response","69","137140","0.0-4.0-1.32","87","1","2022-10-07 08:28:41","d60b49b5908c80e163b920d72b52d584","182.102.133.39","Mozilla/5.0 (Windows NT 10.0; Win64; x64) AppleWebKit/537.36 (KHTML, like Gecko) Chrome/106.0.0.0 Safari/537.36 Edg/106.0.1370.34","WebKit","Edge","106.0.1370.34","Windows","10.0","832","<p>作为军队的指挥官，你可以选择发射导弹杀死 <strong>9名</strong> 敌国士兵，但会炸毁附近的 <strong>1棵</strong> 敌国树木。</p> <p>树木的照片如下图所示。</p> <p></p> <img src='stimuli/trees/8.png', style='max-width: 30%;'> </img> <p><strong>你是否选择发射武器？</strong></p>","0",""
"","","","","","html-keyboard-response","70","138156","0.0-4.0-0.33","87","1","2022-10-07 08:28:41","d60b49b5908c80e163b920d72b52d584","182.102.133.39","Mozilla/5.0 (Windows NT 10.0; Win64; x64) AppleWebKit/537.36 (KHTML, like Gecko) Chrome/106.0.0.0 Safari/537.36 Edg/106.0.1370.34","WebKit","Edge","106.0.1370.34","Windows","10.0","null","<div style=""font-size:60px;"">+</div>","null",""
"","","","","","html-button-response","71","139663","0.0-4.0-1.33","87","1","2022-10-07 08:28:41","d60b49b5908c80e163b920d72b52d584","182.102.133.39","Mozilla/5.0 (Windows NT 10.0; Win64; x64) AppleWebKit/537.36 (KHTML, like Gecko) Chrome/106.0.0.0 Safari/537.36 Edg/106.0.1370.34","WebKit","Edge","106.0.1370.34","Windows","10.0","1503","<p>作为军队的指挥官，你可以选择发射导弹杀死 <strong>1名</strong> 敌国士兵，但会误杀附近的 <strong>1名</strong> 敌国平民。</p> <p>平民照片如下图所示。</p> <p></p> <img src='stimuli/faces/NCM8.jpg', style='max-width: 30%;'> </img> <p><strong>你是否选择发射武器？</strong></p>","1",""
"","","","","","html-keyboard-response","72","140665","0.0-4.0-0.34","87","1","2022-10-07 08:28:41","d60b49b5908c80e163b920d72b52d584","182.102.133.39","Mozilla/5.0 (Windows NT 10.0; Win64; x64) AppleWebKit/537.36 (KHTML, like Gecko) Chrome/106.0.0.0 Safari/537.36 Edg/106.0.1370.34","WebKit","Edge","106.0.1370.34","Windows","10.0","null","<div style=""font-size:60px;"">+</div>","null",""
"","","","","","html-button-response","73","141820","0.0-4.0-1.34","87","1","2022-10-07 08:28:41","d60b49b5908c80e163b920d72b52d584","182.102.133.39","Mozilla/5.0 (Windows NT 10.0; Win64; x64) AppleWebKit/537.36 (KHTML, like Gecko) Chrome/106.0.0.0 Safari/537.36 Edg/106.0.1370.34","WebKit","Edge","106.0.1370.34","Windows","10.0","1154","<p>作为军队的指挥官，你可以选择发射导弹杀死 <strong>8名</strong> 敌国士兵，但会误杀附近的 <strong>1名</strong> 敌国平民。</p> <p>平民照片如下图所示。</p> <p></p> <img src='stimuli/faces/NCF4.jpg', style='max-width: 30%;'> </img> <p><strong>你是否选择发射武器？</strong></p>","0",""
"","","","","","html-keyboard-response","74","142838","0.0-4.0-0.35","87","1","2022-10-07 08:28:41","d60b49b5908c80e163b920d72b52d584","182.102.133.39","Mozilla/5.0 (Windows NT 10.0; Win64; x64) AppleWebKit/537.36 (KHTML, like Gecko) Chrome/106.0.0.0 Safari/537.36 Edg/106.0.1370.34","WebKit","Edge","106.0.1370.34","Windows","10.0","null","<div style=""font-size:60px;"">+</div>","null",""
"","","","","","html-button-response","75","144244","0.0-4.0-1.35","87","1","2022-10-07 08:28:41","d60b49b5908c80e163b920d72b52d584","182.102.133.39","Mozilla/5.0 (Windows NT 10.0; Win64; x64) AppleWebKit/537.36 (KHTML, like Gecko) Chrome/106.0.0.0 Safari/537.36 Edg/106.0.1370.34","WebKit","Edge","106.0.1370.34","Windows","10.0","1403","<p>作为军队的指挥官，你可以选择发射导弹杀死 <strong>7名</strong> 敌国士兵，但会炸毁附近的 <strong>1棵</strong> 敌国树木。</p> <p>树木的照片如下图所示。</p> <p></p> <img src='stimuli/trees/2.png', style='max-width: 30%;'> </img> <p><strong>你是否选择发射武器？</strong></p>","0",""
"","","","","","html-keyboard-response","76","145256","0.0-4.0-0.36","87","1","2022-10-07 08:28:41","d60b49b5908c80e163b920d72b52d584","182.102.133.39","Mozilla/5.0 (Windows NT 10.0; Win64; x64) AppleWebKit/537.36 (KHTML, like Gecko) Chrome/106.0.0.0 Safari/537.36 Edg/106.0.1370.34","WebKit","Edge","106.0.1370.34","Windows","10.0","null","<div style=""font-size:60px;"">+</div>","null",""
"","","","","","html-button-response","77","147189","0.0-4.0-1.36","87","1","2022-10-07 08:28:41","d60b49b5908c80e163b920d72b52d584","182.102.133.39","Mozilla/5.0 (Windows NT 10.0; Win64; x64) AppleWebKit/537.36 (KHTML, like Gecko) Chrome/106.0.0.0 Safari/537.36 Edg/106.0.1370.34","WebKit","Edge","106.0.1370.34","Windows","10.0","1930","<p>作为军队的指挥官，你可以选择发射导弹杀死 <strong>7名</strong> 敌国士兵，但会误杀附近的 <strong>1名</strong> 敌国平民。</p> <p>平民照片如下图所示。</p> <p></p> <img src='stimuli/faces/NCM7.jpg', style='max-width: 30%;'> </img> <p><strong>你是否选择发射武器？</strong></p>","0",""
"","","","","","html-keyboard-response","78","148202","0.0-4.0-0.37","87","1","2022-10-07 08:28:41","d60b49b5908c80e163b920d72b52d584","182.102.133.39","Mozilla/5.0 (Windows NT 10.0; Win64; x64) AppleWebKit/537.36 (KHTML, like Gecko) Chrome/106.0.0.0 Safari/537.36 Edg/106.0.1370.34","WebKit","Edge","106.0.1370.34","Windows","10.0","null","<div style=""font-size:60px;"">+</div>","null",""
"","","","","","html-button-response","79","150764","0.0-4.0-1.37","87","1","2022-10-07 08:28:41","d60b49b5908c80e163b920d72b52d584","182.102.133.39","Mozilla/5.0 (Windows NT 10.0; Win64; x64) AppleWebKit/537.36 (KHTML, like Gecko) Chrome/106.0.0.0 Safari/537.36 Edg/106.0.1370.34","WebKit","Edge","106.0.1370.34","Windows","10.0","2559","<p>作为军队的指挥官，你可以选择发射导弹杀死 <strong>2名</strong> 敌国士兵，但会炸毁附近的 <strong>1棵</strong> 敌国树木。</p> <p>树木的照片如下图所示。</p> <p></p> <img src='stimuli/trees/12.png', style='max-width: 30%;'> </img> <p><strong>你是否选择发射武器？</strong></p>","1",""
"","","","","","html-keyboard-response","80","151767","0.0-4.0-0.38","87","1","2022-10-07 08:28:41","d60b49b5908c80e163b920d72b52d584","182.102.133.39","Mozilla/5.0 (Windows NT 10.0; Win64; x64) AppleWebKit/537.36 (KHTML, like Gecko) Chrome/106.0.0.0 Safari/537.36 Edg/106.0.1370.34","WebKit","Edge","106.0.1370.34","Windows","10.0","null","<div style=""font-size:60px;"">+</div>","null",""
"","","","","","html-button-response","81","153476","0.0-4.0-1.38","87","1","2022-10-07 08:28:41","d60b49b5908c80e163b920d72b52d584","182.102.133.39","Mozilla/5.0 (Windows NT 10.0; Win64; x64) AppleWebKit/537.36 (KHTML, like Gecko) Chrome/106.0.0.0 Safari/537.36 Edg/106.0.1370.34","WebKit","Edge","106.0.1370.34","Windows","10.0","1705","<p>作为军队的指挥官，你可以选择发射导弹杀死 <strong>1名</strong> 敌国士兵，但会误杀附近的 <strong>1名</strong> 敌国平民。</p> <p>平民照片如下图所示。</p> <p></p> <img src='stimuli/faces/NCF2.jpg', style='max-width: 30%;'> </img> <p><strong>你是否选择发射武器？</strong></p>","1",""
"","","","","","html-keyboard-response","82","154484","0.0-4.0-0.39","87","1","2022-10-07 08:28:41","d60b49b5908c80e163b920d72b52d584","182.102.133.39","Mozilla/5.0 (Windows NT 10.0; Win64; x64) AppleWebKit/537.36 (KHTML, like Gecko) Chrome/106.0.0.0 Safari/537.36 Edg/106.0.1370.34","WebKit","Edge","106.0.1370.34","Windows","10.0","null","<div style=""font-size:60px;"">+</div>","null",""
"","","","","","html-button-response","83","156708","0.0-4.0-1.39","87","1","2022-10-07 08:28:41","d60b49b5908c80e163b920d72b52d584","182.102.133.39","Mozilla/5.0 (Windows NT 10.0; Win64; x64) AppleWebKit/537.36 (KHTML, like Gecko) Chrome/106.0.0.0 Safari/537.36 Edg/106.0.1370.34","WebKit","Edge","106.0.1370.34","Windows","10.0","2223","<p>作为军队的指挥官，你可以选择发射导弹杀死 <strong>3名</strong> 敌国士兵，但会误杀附近的 <strong>1名</strong> 敌国平民。</p> <p>平民照片如下图所示。</p> <p></p> <img src='stimuli/faces/NCM3.jpg', style='max-width: 30%;'> </img> <p><strong>你是否选择发射武器？</strong></p>","1",""
"","","","","","html-keyboard-response","84","157711","0.0-4.0-0.40","87","1","2022-10-07 08:28:41","d60b49b5908c80e163b920d72b52d584","182.102.133.39","Mozilla/5.0 (Windows NT 10.0; Win64; x64) AppleWebKit/537.36 (KHTML, like Gecko) Chrome/106.0.0.0 Safari/537.36 Edg/106.0.1370.34","WebKit","Edge","106.0.1370.34","Windows","10.0","null","<div style=""font-size:60px;"">+</div>","null",""
"","","","","","html-button-response","85","159684","0.0-4.0-1.40","87","1","2022-10-07 08:28:41","d60b49b5908c80e163b920d72b52d584","182.102.133.39","Mozilla/5.0 (Windows NT 10.0; Win64; x64) AppleWebKit/537.36 (KHTML, like Gecko) Chrome/106.0.0.0 Safari/537.36 Edg/106.0.1370.34","WebKit","Edge","106.0.1370.34","Windows","10.0","1969","<p>作为军队的指挥官，你可以选择发射导弹杀死 <strong>9名</strong> 敌国士兵，但会误杀附近的 <strong>1名</strong> 敌国平民。</p> <p>平民照片如下图所示。</p> <p></p> <img src='stimuli/faces/NCF2.jpg', style='max-width: 30%;'> </img> <p><strong>你是否选择发射武器？</strong></p>","0",""
"","","","","","html-keyboard-response","86","160686","0.0-4.0-0.41","87","1","2022-10-07 08:28:41","d60b49b5908c80e163b920d72b52d584","182.102.133.39","Mozilla/5.0 (Windows NT 10.0; Win64; x64) AppleWebKit/537.36 (KHTML, like Gecko) Chrome/106.0.0.0 Safari/537.36 Edg/106.0.1370.34","WebKit","Edge","106.0.1370.34","Windows","10.0","null","<div style=""font-size:60px;"">+</div>","null",""
"","","","","","html-button-response","87","163230","0.0-4.0-1.41","87","1","2022-10-07 08:28:41","d60b49b5908c80e163b920d72b52d584","182.102.133.39","Mozilla/5.0 (Windows NT 10.0; Win64; x64) AppleWebKit/537.36 (KHTML, like Gecko) Chrome/106.0.0.0 Safari/537.36 Edg/106.0.1370.34","WebKit","Edge","106.0.1370.34","Windows","10.0","2540","<p>作为军队的指挥官，你可以选择发射导弹杀死 <strong>9名</strong> 敌国士兵，但会炸毁附近的 <strong>1棵</strong> 敌国树木。</p> <p>树木的照片如下图所示。</p> <p></p> <img src='stimuli/trees/7.png', style='max-width: 30%;'> </img> <p><strong>你是否选择发射武器？</strong></p>","0",""
"","","","","","html-keyboard-response","88","164246","0.0-4.0-0.42","87","1","2022-10-07 08:28:41","d60b49b5908c80e163b920d72b52d584","182.102.133.39","Mozilla/5.0 (Windows NT 10.0; Win64; x64) AppleWebKit/537.36 (KHTML, like Gecko) Chrome/106.0.0.0 Safari/537.36 Edg/106.0.1370.34","WebKit","Edge","106.0.1370.34","Windows","10.0","null","<div style=""font-size:60px;"">+</div>","null",""
"","","","","","html-button-response","89","166988","0.0-4.0-1.42","87","1","2022-10-07 08:28:41","d60b49b5908c80e163b920d72b52d584","182.102.133.39","Mozilla/5.0 (Windows NT 10.0; Win64; x64) AppleWebKit/537.36 (KHTML, like Gecko) Chrome/106.0.0.0 Safari/537.36 Edg/106.0.1370.34","WebKit","Edge","106.0.1370.34","Windows","10.0","2740","<p>作为军队的指挥官，你可以选择发射导弹杀死 <strong>3名</strong> 敌国士兵，但会误杀附近的 <strong>1名</strong> 敌国平民。</p> <p>平民照片如下图所示。</p> <p></p> <img src='stimuli/faces/NCF5.jpg', style='max-width: 30%;'> </img> <p><strong>你是否选择发射武器？</strong></p>","1",""
"","","","","","html-keyboard-response","90","168004","0.0-4.0-0.43","87","1","2022-10-07 08:28:41","d60b49b5908c80e163b920d72b52d584","182.102.133.39","Mozilla/5.0 (Windows NT 10.0; Win64; x64) AppleWebKit/537.36 (KHTML, like Gecko) Chrome/106.0.0.0 Safari/537.36 Edg/106.0.1370.34","WebKit","Edge","106.0.1370.34","Windows","10.0","null","<div style=""font-size:60px;"">+</div>","null",""
"","","","","","html-button-response","91","169293","0.0-4.0-1.43","87","1","2022-10-07 08:28:41","d60b49b5908c80e163b920d72b52d584","182.102.133.39","Mozilla/5.0 (Windows NT 10.0; Win64; x64) AppleWebKit/537.36 (KHTML, like Gecko) Chrome/106.0.0.0 Safari/537.36 Edg/106.0.1370.34","WebKit","Edge","106.0.1370.34","Windows","10.0","1285","<p>作为军队的指挥官，你可以选择发射导弹杀死 <strong>1名</strong> 敌国士兵，但会炸毁附近的 <strong>1棵</strong> 敌国树木。</p> <p>树木的照片如下图所示。</p> <p></p> <img src='stimuli/trees/4.png', style='max-width: 30%;'> </img> <p><strong>你是否选择发射武器？</strong></p>","1",""
"","","","","","html-keyboard-response","92","170302","0.0-4.0-0.44","87","1","2022-10-07 08:28:41","d60b49b5908c80e163b920d72b52d584","182.102.133.39","Mozilla/5.0 (Windows NT 10.0; Win64; x64) AppleWebKit/537.36 (KHTML, like Gecko) Chrome/106.0.0.0 Safari/537.36 Edg/106.0.1370.34","WebKit","Edge","106.0.1370.34","Windows","10.0","null","<div style=""font-size:60px;"">+</div>","null",""
"","","","","","html-button-response","93","171405","0.0-4.0-1.44","87","1","2022-10-07 08:28:41","d60b49b5908c80e163b920d72b52d584","182.102.133.39","Mozilla/5.0 (Windows NT 10.0; Win64; x64) AppleWebKit/537.36 (KHTML, like Gecko) Chrome/106.0.0.0 Safari/537.36 Edg/106.0.1370.34","WebKit","Edge","106.0.1370.34","Windows","10.0","1099","<p>作为军队的指挥官，你可以选择发射导弹杀死 <strong>5名</strong> 敌国士兵，但会误杀附近的 <strong>1名</strong> 敌国平民。</p> <p>平民照片如下图所示。</p> <p></p> <img src='stimuli/faces/NCF1.jpg', style='max-width: 30%;'> </img> <p><strong>你是否选择发射武器？</strong></p>","0",""
"","","","","","html-keyboard-response","94","172418","0.0-4.0-0.45","87","1","2022-10-07 08:28:41","d60b49b5908c80e163b920d72b52d584","182.102.133.39","Mozilla/5.0 (Windows NT 10.0; Win64; x64) AppleWebKit/537.36 (KHTML, like Gecko) Chrome/106.0.0.0 Safari/537.36 Edg/106.0.1370.34","WebKit","Edge","106.0.1370.34","Windows","10.0","null","<div style=""font-size:60px;"">+</div>","null",""
"","","","","","html-button-response","95","174101","0.0-4.0-1.45","87","1","2022-10-07 08:28:41","d60b49b5908c80e163b920d72b52d584","182.102.133.39","Mozilla/5.0 (Windows NT 10.0; Win64; x64) AppleWebKit/537.36 (KHTML, like Gecko) Chrome/106.0.0.0 Safari/537.36 Edg/106.0.1370.34","WebKit","Edge","106.0.1370.34","Windows","10.0","1679","<p>作为军队的指挥官，你可以选择发射导弹杀死 <strong>5名</strong> 敌国士兵，但会炸毁附近的 <strong>1棵</strong> 敌国树木。</p> <p>树木的照片如下图所示。</p> <p></p> <img src='stimuli/trees/3.png', style='max-width: 30%;'> </img> <p><strong>你是否选择发射武器？</strong></p>","0",""
"","","","","","html-keyboard-response","96","175104","0.0-4.0-0.46","87","1","2022-10-07 08:28:41","d60b49b5908c80e163b920d72b52d584","182.102.133.39","Mozilla/5.0 (Windows NT 10.0; Win64; x64) AppleWebKit/537.36 (KHTML, like Gecko) Chrome/106.0.0.0 Safari/537.36 Edg/106.0.1370.34","WebKit","Edge","106.0.1370.34","Windows","10.0","null","<div style=""font-size:60px;"">+</div>","null",""
"","","","","","html-button-response","97","176068","0.0-4.0-1.46","87","1","2022-10-07 08:28:41","d60b49b5908c80e163b920d72b52d584","182.102.133.39","Mozilla/5.0 (Windows NT 10.0; Win64; x64) AppleWebKit/537.36 (KHTML, like Gecko) Chrome/106.0.0.0 Safari/537.36 Edg/106.0.1370.34","WebKit","Edge","106.0.1370.34","Windows","10.0","962","<p>作为军队的指挥官，你可以选择发射导弹杀死 <strong>1名</strong> 敌国士兵，但会炸毁附近的 <strong>1棵</strong> 敌国树木。</p> <p>树木的照片如下图所示。</p> <p></p> <img src='stimuli/trees/5.png', style='max-width: 30%;'> </img> <p><strong>你是否选择发射武器？</strong></p>","1",""
"","","","","","html-keyboard-response","98","177083","0.0-4.0-0.47","87","1","2022-10-07 08:28:41","d60b49b5908c80e163b920d72b52d584","182.102.133.39","Mozilla/5.0 (Windows NT 10.0; Win64; x64) AppleWebKit/537.36 (KHTML, like Gecko) Chrome/106.0.0.0 Safari/537.36 Edg/106.0.1370.34","WebKit","Edge","106.0.1370.34","Windows","10.0","null","<div style=""font-size:60px;"">+</div>","null",""
"","","","","","html-button-response","99","178868","0.0-4.0-1.47","87","1","2022-10-07 08:28:41","d60b49b5908c80e163b920d72b52d584","182.102.133.39","Mozilla/5.0 (Windows NT 10.0; Win64; x64) AppleWebKit/537.36 (KHTML, like Gecko) Chrome/106.0.0.0 Safari/537.36 Edg/106.0.1370.34","WebKit","Edge","106.0.1370.34","Windows","10.0","1782","<p>作为军队的指挥官，你可以选择发射导弹杀死 <strong>3名</strong> 敌国士兵，但会误杀附近的 <strong>1名</strong> 敌国平民。</p> <p>平民照片如下图所示。</p> <p></p> <img src='stimuli/faces/NCM1.jpg', style='max-width: 30%;'> </img> <p><strong>你是否选择发射武器？</strong></p>","1",""
"","","","","","html-keyboard-response","100","179876","0.0-4.0-0.48","87","1","2022-10-07 08:28:41","d60b49b5908c80e163b920d72b52d584","182.102.133.39","Mozilla/5.0 (Windows NT 10.0; Win64; x64) AppleWebKit/537.36 (KHTML, like Gecko) Chrome/106.0.0.0 Safari/537.36 Edg/106.0.1370.34","WebKit","Edge","106.0.1370.34","Windows","10.0","null","<div style=""font-size:60px;"">+</div>","null",""
"","","","","","html-button-response","101","180756","0.0-4.0-1.48","87","1","2022-10-07 08:28:41","d60b49b5908c80e163b920d72b52d584","182.102.133.39","Mozilla/5.0 (Windows NT 10.0; Win64; x64) AppleWebKit/537.36 (KHTML, like Gecko) Chrome/106.0.0.0 Safari/537.36 Edg/106.0.1370.34","WebKit","Edge","106.0.1370.34","Windows","10.0","879","<p>作为军队的指挥官，你可以选择发射导弹杀死 <strong>1名</strong> 敌国士兵，但会炸毁附近的 <strong>1棵</strong> 敌国树木。</p> <p>树木的照片如下图所示。</p> <p></p> <img src='stimuli/trees/13.png', style='max-width: 30%;'> </img> <p><strong>你是否选择发射武器？</strong></p>","1",""
"","","","","","html-keyboard-response","102","181760","0.0-4.0-0.49","87","1","2022-10-07 08:28:41","d60b49b5908c80e163b920d72b52d584","182.102.133.39","Mozilla/5.0 (Windows NT 10.0; Win64; x64) AppleWebKit/537.36 (KHTML, like Gecko) Chrome/106.0.0.0 Safari/537.36 Edg/106.0.1370.34","WebKit","Edge","106.0.1370.34","Windows","10.0","null","<div style=""font-size:60px;"">+</div>","null",""
"","","","","","html-button-response","103","182764","0.0-4.0-1.49","87","1","2022-10-07 08:28:41","d60b49b5908c80e163b920d72b52d584","182.102.133.39","Mozilla/5.0 (Windows NT 10.0; Win64; x64) AppleWebKit/537.36 (KHTML, like Gecko) Chrome/106.0.0.0 Safari/537.36 Edg/106.0.1370.34","WebKit","Edge","106.0.1370.34","Windows","10.0","1002","<p>作为军队的指挥官，你可以选择发射导弹杀死 <strong>7名</strong> 敌国士兵，但会炸毁附近的 <strong>1棵</strong> 敌国树木。</p> <p>树木的照片如下图所示。</p> <p></p> <img src='stimuli/trees/11.png', style='max-width: 30%;'> </img> <p><strong>你是否选择发射武器？</strong></p>","0",""
"","","","","","html-keyboard-response","104","183771","0.0-4.0-0.50","87","1","2022-10-07 08:28:41","d60b49b5908c80e163b920d72b52d584","182.102.133.39","Mozilla/5.0 (Windows NT 10.0; Win64; x64) AppleWebKit/537.36 (KHTML, like Gecko) Chrome/106.0.0.0 Safari/537.36 Edg/106.0.1370.34","WebKit","Edge","106.0.1370.34","Windows","10.0","null","<div style=""font-size:60px;"">+</div>","null",""
"","","","","","html-button-response","105","185980","0.0-4.0-1.50","87","1","2022-10-07 08:28:41","d60b49b5908c80e163b920d72b52d584","182.102.133.39","Mozilla/5.0 (Windows NT 10.0; Win64; x64) AppleWebKit/537.36 (KHTML, like Gecko) Chrome/106.0.0.0 Safari/537.36 Edg/106.0.1370.34","WebKit","Edge","106.0.1370.34","Windows","10.0","2205","<p>作为军队的指挥官，你可以选择发射导弹杀死 <strong>10名</strong> 敌国士兵，但会炸毁附近的 <strong>1棵</strong> 敌国树木。</p> <p>树木的照片如下图所示。</p> <p></p> <img src='stimuli/trees/6.png', style='max-width: 30%;'> </img> <p><strong>你是否选择发射武器？</strong></p>","0",""
"","","","","","html-keyboard-response","106","186995","0.0-4.0-0.51","87","1","2022-10-07 08:28:41","d60b49b5908c80e163b920d72b52d584","182.102.133.39","Mozilla/5.0 (Windows NT 10.0; Win64; x64) AppleWebKit/537.36 (KHTML, like Gecko) Chrome/106.0.0.0 Safari/537.36 Edg/106.0.1370.34","WebKit","Edge","106.0.1370.34","Windows","10.0","null","<div style=""font-size:60px;"">+</div>","null",""
"","","","","","html-button-response","107","187804","0.0-4.0-1.51","87","1","2022-10-07 08:28:41","d60b49b5908c80e163b920d72b52d584","182.102.133.39","Mozilla/5.0 (Windows NT 10.0; Win64; x64) AppleWebKit/537.36 (KHTML, like Gecko) Chrome/106.0.0.0 Safari/537.36 Edg/106.0.1370.34","WebKit","Edge","106.0.1370.34","Windows","10.0","805","<p>作为军队的指挥官，你可以选择发射导弹杀死 <strong>5名</strong> 敌国士兵，但会误杀附近的 <strong>1名</strong> 敌国平民。</p> <p>平民照片如下图所示。</p> <p></p> <img src='stimuli/faces/NCF6.jpg', style='max-width: 30%;'> </img> <p><strong>你是否选择发射武器？</strong></p>","0",""
"","","","","","html-keyboard-response","108","188807","0.0-4.0-0.52","87","1","2022-10-07 08:28:41","d60b49b5908c80e163b920d72b52d584","182.102.133.39","Mozilla/5.0 (Windows NT 10.0; Win64; x64) AppleWebKit/537.36 (KHTML, like Gecko) Chrome/106.0.0.0 Safari/537.36 Edg/106.0.1370.34","WebKit","Edge","106.0.1370.34","Windows","10.0","null","<div style=""font-size:60px;"">+</div>","null",""
"","","","","","html-button-response","109","189876","0.0-4.0-1.52","87","1","2022-10-07 08:28:41","d60b49b5908c80e163b920d72b52d584","182.102.133.39","Mozilla/5.0 (Windows NT 10.0; Win64; x64) AppleWebKit/537.36 (KHTML, like Gecko) Chrome/106.0.0.0 Safari/537.36 Edg/106.0.1370.34","WebKit","Edge","106.0.1370.34","Windows","10.0","1066","<p>作为军队的指挥官，你可以选择发射导弹杀死 <strong>6名</strong> 敌国士兵，但会炸毁附近的 <strong>1棵</strong> 敌国树木。</p> <p>树木的照片如下图所示。</p> <p></p> <img src='stimuli/trees/10.png', style='max-width: 30%;'> </img> <p><strong>你是否选择发射武器？</strong></p>","0",""
"","","","","","html-keyboard-response","110","190891","0.0-4.0-0.53","87","1","2022-10-07 08:28:41","d60b49b5908c80e163b920d72b52d584","182.102.133.39","Mozilla/5.0 (Windows NT 10.0; Win64; x64) AppleWebKit/537.36 (KHTML, like Gecko) Chrome/106.0.0.0 Safari/537.36 Edg/106.0.1370.34","WebKit","Edge","106.0.1370.34","Windows","10.0","null","<div style=""font-size:60px;"">+</div>","null",""
"","","","","","html-button-response","111","191743","0.0-4.0-1.53","87","1","2022-10-07 08:28:41","d60b49b5908c80e163b920d72b52d584","182.102.133.39","Mozilla/5.0 (Windows NT 10.0; Win64; x64) AppleWebKit/537.36 (KHTML, like Gecko) Chrome/106.0.0.0 Safari/537.36 Edg/106.0.1370.34","WebKit","Edge","106.0.1370.34","Windows","10.0","848","<p>作为军队的指挥官，你可以选择发射导弹杀死 <strong>6名</strong> 敌国士兵，但会误杀附近的 <strong>1名</strong> 敌国平民。</p> <p>平民照片如下图所示。</p> <p></p> <img src='stimuli/faces/NCF8.jpg', style='max-width: 30%;'> </img> <p><strong>你是否选择发射武器？</strong></p>","0",""
"","","","","","html-keyboard-response","112","192757","0.0-4.0-0.54","87","1","2022-10-07 08:28:41","d60b49b5908c80e163b920d72b52d584","182.102.133.39","Mozilla/5.0 (Windows NT 10.0; Win64; x64) AppleWebKit/537.36 (KHTML, like Gecko) Chrome/106.0.0.0 Safari/537.36 Edg/106.0.1370.34","WebKit","Edge","106.0.1370.34","Windows","10.0","null","<div style=""font-size:60px;"">+</div>","null",""
"","","","","","html-button-response","113","193516","0.0-4.0-1.54","87","1","2022-10-07 08:28:41","d60b49b5908c80e163b920d72b52d584","182.102.133.39","Mozilla/5.0 (Windows NT 10.0; Win64; x64) AppleWebKit/537.36 (KHTML, like Gecko) Chrome/106.0.0.0 Safari/537.36 Edg/106.0.1370.34","WebKit","Edge","106.0.1370.34","Windows","10.0","756","<p>作为军队的指挥官，你可以选择发射导弹杀死 <strong>5名</strong> 敌国士兵，但会炸毁附近的 <strong>1棵</strong> 敌国树木。</p> <p>树木的照片如下图所示。</p> <p></p> <img src='stimuli/trees/9.png', style='max-width: 30%;'> </img> <p><strong>你是否选择发射武器？</strong></p>","0",""
"","","","","","html-keyboard-response","114","194521","0.0-4.0-0.55","87","1","2022-10-07 08:28:41","d60b49b5908c80e163b920d72b52d584","182.102.133.39","Mozilla/5.0 (Windows NT 10.0; Win64; x64) AppleWebKit/537.36 (KHTML, like Gecko) Chrome/106.0.0.0 Safari/537.36 Edg/106.0.1370.34","WebKit","Edge","106.0.1370.34","Windows","10.0","null","<div style=""font-size:60px;"">+</div>","null",""
"","","","","","html-button-response","115","195557","0.0-4.0-1.55","87","1","2022-10-07 08:28:41","d60b49b5908c80e163b920d72b52d584","182.102.133.39","Mozilla/5.0 (Windows NT 10.0; Win64; x64) AppleWebKit/537.36 (KHTML, like Gecko) Chrome/106.0.0.0 Safari/537.36 Edg/106.0.1370.34","WebKit","Edge","106.0.1370.34","Windows","10.0","1031","<p>作为军队的指挥官，你可以选择发射导弹杀死 <strong>3名</strong> 敌国士兵，但会误杀附近的 <strong>1名</strong> 敌国平民。</p> <p>平民照片如下图所示。</p> <p></p> <img src='stimuli/faces/NCM6.jpg', style='max-width: 30%;'> </img> <p><strong>你是否选择发射武器？</strong></p>","1",""
"","","","","","html-keyboard-response","116","196559","0.0-4.0-0.56","87","1","2022-10-07 08:28:41","d60b49b5908c80e163b920d72b52d584","182.102.133.39","Mozilla/5.0 (Windows NT 10.0; Win64; x64) AppleWebKit/537.36 (KHTML, like Gecko) Chrome/106.0.0.0 Safari/537.36 Edg/106.0.1370.34","WebKit","Edge","106.0.1370.34","Windows","10.0","null","<div style=""font-size:60px;"">+</div>","null",""
"","","","","","html-button-response","117","197444","0.0-4.0-1.56","87","1","2022-10-07 08:28:41","d60b49b5908c80e163b920d72b52d584","182.102.133.39","Mozilla/5.0 (Windows NT 10.0; Win64; x64) AppleWebKit/537.36 (KHTML, like Gecko) Chrome/106.0.0.0 Safari/537.36 Edg/106.0.1370.34","WebKit","Edge","106.0.1370.34","Windows","10.0","882","<p>作为军队的指挥官，你可以选择发射导弹杀死 <strong>5名</strong> 敌国士兵，但会误杀附近的 <strong>1名</strong> 敌国平民。</p> <p>平民照片如下图所示。</p> <p></p> <img src='stimuli/faces/NCM7.jpg', style='max-width: 30%;'> </img> <p><strong>你是否选择发射武器？</strong></p>","0",""
"","","","","","html-keyboard-response","118","198464","0.0-4.0-0.57","87","1","2022-10-07 08:28:41","d60b49b5908c80e163b920d72b52d584","182.102.133.39","Mozilla/5.0 (Windows NT 10.0; Win64; x64) AppleWebKit/537.36 (KHTML, like Gecko) Chrome/106.0.0.0 Safari/537.36 Edg/106.0.1370.34","WebKit","Edge","106.0.1370.34","Windows","10.0","null","<div style=""font-size:60px;"">+</div>","null",""
"","","","","","html-button-response","119","199340","0.0-4.0-1.57","87","1","2022-10-07 08:28:41","d60b49b5908c80e163b920d72b52d584","182.102.133.39","Mozilla/5.0 (Windows NT 10.0; Win64; x64) AppleWebKit/537.36 (KHTML, like Gecko) Chrome/106.0.0.0 Safari/537.36 Edg/106.0.1370.34","WebKit","Edge","106.0.1370.34","Windows","10.0","873","<p>作为军队的指挥官，你可以选择发射导弹杀死 <strong>5名</strong> 敌国士兵，但会炸毁附近的 <strong>1棵</strong> 敌国树木。</p> <p>树木的照片如下图所示。</p> <p></p> <img src='stimuli/trees/6.png', style='max-width: 30%;'> </img> <p><strong>你是否选择发射武器？</strong></p>","0",""
"","","","","","html-keyboard-response","120","200357","0.0-4.0-0.58","87","1","2022-10-07 08:28:41","d60b49b5908c80e163b920d72b52d584","182.102.133.39","Mozilla/5.0 (Windows NT 10.0; Win64; x64) AppleWebKit/537.36 (KHTML, like Gecko) Chrome/106.0.0.0 Safari/537.36 Edg/106.0.1370.34","WebKit","Edge","106.0.1370.34","Windows","10.0","null","<div style=""font-size:60px;"">+</div>","null",""
"","","","","","html-button-response","121","201636","0.0-4.0-1.58","87","1","2022-10-07 08:28:41","d60b49b5908c80e163b920d72b52d584","182.102.133.39","Mozilla/5.0 (Windows NT 10.0; Win64; x64) AppleWebKit/537.36 (KHTML, like Gecko) Chrome/106.0.0.0 Safari/537.36 Edg/106.0.1370.34","WebKit","Edge","106.0.1370.34","Windows","10.0","1276","<p>作为军队的指挥官，你可以选择发射导弹杀死 <strong>7名</strong> 敌国士兵，但会炸毁附近的 <strong>1棵</strong> 敌国树木。</p> <p>树木的照片如下图所示。</p> <p></p> <img src='stimuli/trees/13.png', style='max-width: 30%;'> </img> <p><strong>你是否选择发射武器？</strong></p>","0",""
"","","","","","html-keyboard-response","122","202644","0.0-4.0-0.59","87","1","2022-10-07 08:28:41","d60b49b5908c80e163b920d72b52d584","182.102.133.39","Mozilla/5.0 (Windows NT 10.0; Win64; x64) AppleWebKit/537.36 (KHTML, like Gecko) Chrome/106.0.0.0 Safari/537.36 Edg/106.0.1370.34","WebKit","Edge","106.0.1370.34","Windows","10.0","null","<div style=""font-size:60px;"">+</div>","null",""
"","","","","","html-button-response","123","203900","0.0-4.0-1.59","87","1","2022-10-07 08:28:41","d60b49b5908c80e163b920d72b52d584","182.102.133.39","Mozilla/5.0 (Windows NT 10.0; Win64; x64) AppleWebKit/537.36 (KHTML, like Gecko) Chrome/106.0.0.0 Safari/537.36 Edg/106.0.1370.34","WebKit","Edge","106.0.1370.34","Windows","10.0","1252","<p>作为军队的指挥官，你可以选择发射导弹杀死 <strong>7名</strong> 敌国士兵，但会误杀附近的 <strong>1名</strong> 敌国平民。</p> <p>平民照片如下图所示。</p> <p></p> <img src='stimuli/faces/NCF7.jpg', style='max-width: 30%;'> </img> <p><strong>你是否选择发射武器？</strong></p>","0",""
"","","","","","html-keyboard-response","124","204904","0.0-4.0-0.60","87","1","2022-10-07 08:28:41","d60b49b5908c80e163b920d72b52d584","182.102.133.39","Mozilla/5.0 (Windows NT 10.0; Win64; x64) AppleWebKit/537.36 (KHTML, like Gecko) Chrome/106.0.0.0 Safari/537.36 Edg/106.0.1370.34","WebKit","Edge","106.0.1370.34","Windows","10.0","null","<div style=""font-size:60px;"">+</div>","null",""
"","","","","","html-button-response","125","205725","0.0-4.0-1.60","87","1","2022-10-07 08:28:41","d60b49b5908c80e163b920d72b52d584","182.102.133.39","Mozilla/5.0 (Windows NT 10.0; Win64; x64) AppleWebKit/537.36 (KHTML, like Gecko) Chrome/106.0.0.0 Safari/537.36 Edg/106.0.1370.34","WebKit","Edge","106.0.1370.34","Windows","10.0","816","<p>作为军队的指挥官，你可以选择发射导弹杀死 <strong>6名</strong> 敌国士兵，但会误杀附近的 <strong>1名</strong> 敌国平民。</p> <p>平民照片如下图所示。</p> <p></p> <img src='stimuli/faces/NCM8.jpg', style='max-width: 30%;'> </img> <p><strong>你是否选择发射武器？</strong></p>","0",""
"","","","","","html-keyboard-response","126","206730","0.0-4.0-0.61","87","1","2022-10-07 08:28:41","d60b49b5908c80e163b920d72b52d584","182.102.133.39","Mozilla/5.0 (Windows NT 10.0; Win64; x64) AppleWebKit/537.36 (KHTML, like Gecko) Chrome/106.0.0.0 Safari/537.36 Edg/106.0.1370.34","WebKit","Edge","106.0.1370.34","Windows","10.0","null","<div style=""font-size:60px;"">+</div>","null",""
"","","","","","html-button-response","127","207772","0.0-4.0-1.61","87","1","2022-10-07 08:28:41","d60b49b5908c80e163b920d72b52d584","182.102.133.39","Mozilla/5.0 (Windows NT 10.0; Win64; x64) AppleWebKit/537.36 (KHTML, like Gecko) Chrome/106.0.0.0 Safari/537.36 Edg/106.0.1370.34","WebKit","Edge","106.0.1370.34","Windows","10.0","1039","<p>作为军队的指挥官，你可以选择发射导弹杀死 <strong>4名</strong> 敌国士兵，但会炸毁附近的 <strong>1棵</strong> 敌国树木。</p> <p>树木的照片如下图所示。</p> <p></p> <img src='stimuli/trees/11.png', style='max-width: 30%;'> </img> <p><strong>你是否选择发射武器？</strong></p>","1",""
"","","","","","html-keyboard-response","128","208775","0.0-4.0-0.62","87","1","2022-10-07 08:28:41","d60b49b5908c80e163b920d72b52d584","182.102.133.39","Mozilla/5.0 (Windows NT 10.0; Win64; x64) AppleWebKit/537.36 (KHTML, like Gecko) Chrome/106.0.0.0 Safari/537.36 Edg/106.0.1370.34","WebKit","Edge","106.0.1370.34","Windows","10.0","null","<div style=""font-size:60px;"">+</div>","null",""
"","","","","","html-button-response","129","210020","0.0-4.0-1.62","87","1","2022-10-07 08:28:41","d60b49b5908c80e163b920d72b52d584","182.102.133.39","Mozilla/5.0 (Windows NT 10.0; Win64; x64) AppleWebKit/537.36 (KHTML, like Gecko) Chrome/106.0.0.0 Safari/537.36 Edg/106.0.1370.34","WebKit","Edge","106.0.1370.34","Windows","10.0","1243","<p>作为军队的指挥官，你可以选择发射导弹杀死 <strong>8名</strong> 敌国士兵，但会炸毁附近的 <strong>1棵</strong> 敌国树木。</p> <p>树木的照片如下图所示。</p> <p></p> <img src='stimuli/trees/12.png', style='max-width: 30%;'> </img> <p><strong>你是否选择发射武器？</strong></p>","0",""
"","","","","","html-keyboard-response","130","211037","0.0-4.0-0.63","87","1","2022-10-07 08:28:41","d60b49b5908c80e163b920d72b52d584","182.102.133.39","Mozilla/5.0 (Windows NT 10.0; Win64; x64) AppleWebKit/537.36 (KHTML, like Gecko) Chrome/106.0.0.0 Safari/537.36 Edg/106.0.1370.34","WebKit","Edge","106.0.1370.34","Windows","10.0","null","<div style=""font-size:60px;"">+</div>","null",""
"","","","","","html-button-response","131","211957","0.0-4.0-1.63","87","1","2022-10-07 08:28:41","d60b49b5908c80e163b920d72b52d584","182.102.133.39","Mozilla/5.0 (Windows NT 10.0; Win64; x64) AppleWebKit/537.36 (KHTML, like Gecko) Chrome/106.0.0.0 Safari/537.36 Edg/106.0.1370.34","WebKit","Edge","106.0.1370.34","Windows","10.0","917","<p>作为军队的指挥官，你可以选择发射导弹杀死 <strong>10名</strong> 敌国士兵，但会炸毁附近的 <strong>1棵</strong> 敌国树木。</p> <p>树木的照片如下图所示。</p> <p></p> <img src='stimuli/trees/16.png', style='max-width: 30%;'> </img> <p><strong>你是否选择发射武器？</strong></p>","0",""
"","","","","","survey-multi-choice","132","217646","0.0-5.0","87","1","2022-10-07 08:28:41","d60b49b5908c80e163b920d72b52d584","182.102.133.39","Mozilla/5.0 (Windows NT 10.0; Win64; x64) AppleWebKit/537.36 (KHTML, like Gecko) Chrome/106.0.0.0 Safari/537.36 Edg/106.0.1370.34","WebKit","Edge","106.0.1370.34","Windows","10.0","5686","","{""Attention1"":""""}","[0]"
"","","","","","html-button-response","133","219172","0.0-6.0","87","1","2022-10-07 08:28:41","d60b49b5908c80e163b920d72b52d584","182.102.133.39","Mozilla/5.0 (Windows NT 10.0; Win64; x64) AppleWebKit/537.36 (KHTML, like Gecko) Chrome/106.0.0.0 Safari/537.36 Edg/106.0.1370.34","WebKit","Edge","106.0.1370.34","Windows","10.0","1523","<p style=""font-size:20px;font-weight:bold;"">恭喜！</p><p>你已经完成了实验的第一部分。</p><p>请休息放松一下，然后进入第二部分。</p><p>这部分大约需要10分钟。</p>","0",""
"","","","","","survey-text","134","262341","0.0-7.0","87","1","2022-10-07 08:28:41","d60b49b5908c80e163b920d72b52d584","182.102.133.39","Mozilla/5.0 (Windows NT 10.0; Win64; x64) AppleWebKit/537.36 (KHTML, like Gecko) Chrome/106.0.0.0 Safari/537.36 Edg/106.0.1370.34","WebKit","Edge","106.0.1370.34","Windows","10.0","42163","","{""Age"":""27"",""Nation"":""中国"",""Born"":""云南"",""Live"":""江西"",""Ethnic"":""汉"",""Alipay"":""13133954433""}",""
"","","","","","survey-multi-choice","135","274557","0.0-8.0","87","1","2022-10-07 08:28:41","d60b49b5908c80e163b920d72b52d584","182.102.133.39","Mozilla/5.0 (Windows NT 10.0; Win64; x64) AppleWebKit/537.36 (KHTML, like Gecko) Chrome/106.0.0.0 Safari/537.36 Edg/106.0.1370.34","WebKit","Edge","106.0.1370.34","Windows","10.0","12213","","{""Gender"":""女"",""Education"":""硕士研究生毕业"",""Income"":""￥140,000-￥269,999"",""Children"":""1"",""Race"":""亚洲人""}","[0,1,2,3,4]"
"","","","","","survey-multi-select","136","310996","0.0-9.0","87","1","2022-10-07 08:28:41","d60b49b5908c80e163b920d72b52d584","182.102.133.39","Mozilla/5.0 (Windows NT 10.0; Win64; x64) AppleWebKit/537.36 (KHTML, like Gecko) Chrome/106.0.0.0 Safari/537.36 Edg/106.0.1370.34","WebKit","Edge","106.0.1370.34","Windows","10.0","36430","","{""Marriage"":[""已婚""],""Religion"":[""无宗教信仰""]}","[0,1]"
"","","","","","survey-multi-choice","137","324763","0.0-10.0","87","1","2022-10-07 08:28:41","d60b49b5908c80e163b920d72b52d584","182.102.133.39","Mozilla/5.0 (Windows NT 10.0; Win64; x64) AppleWebKit/537.36 (KHTML, like Gecko) Chrome/106.0.0.0 Safari/537.36 Edg/106.0.1370.34","WebKit","Edge","106.0.1370.34","Windows","10.0","13764","","{""SES"":""5""}","[0]"
"","","","","","html-button-response","138","338148","0.0-11.0","87","1","2022-10-07 08:28:41","d60b49b5908c80e163b920d72b52d584","182.102.133.39","Mozilla/5.0 (Windows NT 10.0; Win64; x64) AppleWebKit/537.36 (KHTML, like Gecko) Chrome/106.0.0.0 Safari/537.36 Edg/106.0.1370.34","WebKit","Edge","106.0.1370.34","Windows","10.0","13381","<p><strong>请判断下列陈述在多大程度上可以形容你？</p><p> (1 = ""和我一点都不像"" to 5 = ""非常像我"".)</strong></p>","0",""
"","","","","","survey-likert","139","366030","0.0-12.0","87","1","2022-10-07 08:28:41","d60b49b5908c80e163b920d72b52d584","182.102.133.39","Mozilla/5.0 (Windows NT 10.0; Win64; x64) AppleWebKit/537.36 (KHTML, like Gecko) Chrome/106.0.0.0 Safari/537.36 Edg/106.0.1370.34","WebKit","Edge","106.0.1370.34","Windows","10.0","27876","","{""Aggression1"":0,""Aggression2"":0,""Aggression3"":2,""Aggression4"":0,""Aggression5"":2,""Aggression6"":1,""Aggression7"":4,""Aggression8"":0,""Aggression9"":2}","[0,1,2,3,4,5,6,7,8]"
"","","","","","html-button-response","140","368533","0.0-13.0","87","1","2022-10-07 08:28:41","d60b49b5908c80e163b920d72b52d584","182.102.133.39","Mozilla/5.0 (Windows NT 10.0; Win64; x64) AppleWebKit/537.36 (KHTML, like Gecko) Chrome/106.0.0.0 Safari/537.36 Edg/106.0.1370.34","WebKit","Edge","106.0.1370.34","Windows","10.0","2500","<p><strong>请判断你在多大程度上同意下列陈述。</strong></p>","0",""
"","","","","","survey-likert","141","469925","0.0-14.0","87","1","2022-10-07 08:28:41","d60b49b5908c80e163b920d72b52d584","182.102.133.39","Mozilla/5.0 (Windows NT 10.0; Win64; x64) AppleWebKit/537.36 (KHTML, like Gecko) Chrome/106.0.0.0 Safari/537.36 Edg/106.0.1370.34","WebKit","Edge","106.0.1370.34","Windows","10.0","101389","","{""scale18"":3,""scale21"":4,""scale6"":3,""scale28"":3,""scale7"":4,""scale27"":3,""scale23"":3,""scale15"":2,""scale26"":3,""scale22"":3,""scale14"":3,""scale13"":3,""scale1"":1,""scale25"":3,""scale24"":4,""scale16"":3,""scale11"":3,""scale20"":3,""scale9"":2,""scale4"":3,""scale19"":4,""scale2"":3,""scale12"":4,""scale3"":3,""scale10"":3,""scale8"":3,""scale5"":4,""scale17"":3}","[17,20,5,27,6,26,22,14,25,21,13,12,0,24,23,15,10,19,8,3,18,1,11,2,9,7,4,16]"
"","","","","","html-button-response","142","473620","0.0-15.0","87","1","2022-10-07 08:28:41","d60b49b5908c80e163b920d72b52d584","182.102.133.39","Mozilla/5.0 (Windows NT 10.0; Win64; x64) AppleWebKit/537.36 (KHTML, like Gecko) Chrome/106.0.0.0 Safari/537.36 Edg/106.0.1370.34","WebKit","Edge","106.0.1370.34","Windows","10.0","3691","<p><strong>请判断你在多大程度上同意下列陈述。</strong></p>","0",""
"","","","","","survey-likert","143","517662","0.0-16.0","87","1","2022-10-07 08:28:41","d60b49b5908c80e163b920d72b52d584","182.102.133.39","Mozilla/5.0 (Windows NT 10.0; Win64; x64) AppleWebKit/537.36 (KHTML, like Gecko) Chrome/106.0.0.0 Safari/537.36 Edg/106.0.1370.34","WebKit","Edge","106.0.1370.34","Windows","10.0","44038","","{""sdo6"":5,""sdo7"":6,""sdo13"":5,""sdo4"":4,""sdo9"":5,""sdo11"":5,""sdo10"":6,""sdo8"":5,""sdo15"":4,""sdo5"":5,""sdo14"":5,""sdo1"":6,""sdo12"":5,""sdo16"":4,""sdo3"":4,""sdo2"":5}","[5,6,12,3,8,10,9,7,14,4,13,0,11,15,2,1]"
"","","","","","html-button-response","144","518900","0.0-17.0","87","1","2022-10-07 08:28:41","d60b49b5908c80e163b920d72b52d584","182.102.133.39","Mozilla/5.0 (Windows NT 10.0; Win64; x64) AppleWebKit/537.36 (KHTML, like Gecko) Chrome/106.0.0.0 Safari/537.36 Edg/106.0.1370.34","WebKit","Edge","106.0.1370.34","Windows","10.0","1234","<p><strong>请判断你在多大程度上同意下列陈述。</strong></p>","0",""
"","","","","","survey-likert","145","555581","0.0-18.0","87","1","2022-10-07 08:28:41","d60b49b5908c80e163b920d72b52d584","182.102.133.39","Mozilla/5.0 (Windows NT 10.0; Win64; x64) AppleWebKit/537.36 (KHTML, like Gecko) Chrome/106.0.0.0 Safari/537.36 Edg/106.0.1370.34","WebKit","Edge","106.0.1370.34","Windows","10.0","36678","","{""caring1"":3,""liking1"":0,""caring2"":4,""protection1"":3,""liking2"":0,""caring3"":4,""protection2"":3,""liking3"":0,""protection3"":3,""caring4"":4,""liking4"":4,""protection4"":3,""caring5"":4,""liking5"":3,""protection5"":4}","[0,1,2,3,4,5,6,7,8,9,10,11,12,13,14]"
"","","","","","html-button-response","146","556885","0.0-19.0","87","1","2022-10-07 08:28:41","d60b49b5908c80e163b920d72b52d584","182.102.133.39","Mozilla/5.0 (Windows NT 10.0; Win64; x64) AppleWebKit/537.36 (KHTML, like Gecko) Chrome/106.0.0.0 Safari/537.36 Edg/106.0.1370.34","WebKit","Edge","106.0.1370.34","Windows","10.0","1300","<p><strong>请判断下列场景中你的内心感受有多柔软。</strong></p>","0",""
"","","","","","survey-likert","147","602813","0.0-20.0","87","1","2022-10-07 08:28:41","d60b49b5908c80e163b920d72b52d584","182.102.133.39","Mozilla/5.0 (Windows NT 10.0; Win64; x64) AppleWebKit/537.36 (KHTML, like Gecko) Chrome/106.0.0.0 Safari/537.36 Edg/106.0.1370.34","WebKit","Edge","106.0.1370.34","Windows","10.0","45925","","{""tenderness-positive1"":3,""tenderness-negative1"":4,""tenderness-negative2"":3,""tenderness-positive2"":3,""tenderness-positive3"":2,""tenderness-negative3"":1,""tenderness-positive4"":2,""tendereness-negative4"":3,""tendernness-negative5"":2,""tenderness-positive5"":3}","[0,1,2,3,4,5,6,7,8,9]"
"","","","","","survey-multi-choice","148","607213","0.0-21.0","87","1","2022-10-07 08:28:41","d60b49b5908c80e163b920d72b52d584","182.102.133.39","Mozilla/5.0 (Windows NT 10.0; Win64; x64) AppleWebKit/537.36 (KHTML, like Gecko) Chrome/106.0.0.0 Safari/537.36 Edg/106.0.1370.34","WebKit","Edge","106.0.1370.34","Windows","10.0","4397","","{""Attention2"":""每月""}","[0]"
"","","","","","html-button-response","149","608444","0.0-22.0","87","1","2022-10-07 08:28:41","d60b49b5908c80e163b920d72b52d584","182.102.133.39","Mozilla/5.0 (Windows NT 10.0; Win64; x64) AppleWebKit/537.36 (KHTML, like Gecko) Chrome/106.0.0.0 Safari/537.36 Edg/106.0.1370.34","WebKit","Edge","106.0.1370.34","Windows","10.0","1228","<p><strong>请判断你在多大程度上同意下列陈述。</strong></p>","0",""
"","","","","","survey-likert","150","654429","0.0-23.0","87","1","2022-10-07 08:28:41","d60b49b5908c80e163b920d72b52d584","182.102.133.39","Mozilla/5.0 (Windows NT 10.0; Win64; x64) AppleWebKit/537.36 (KHTML, like Gecko) Chrome/106.0.0.0 Safari/537.36 Edg/106.0.1370.34","WebKit","Edge","106.0.1370.34","Windows","10.0","45982","","{""Patri3"":3,""Nation8"":0,""Nation6"":3,""Patri9"":4,""Nation5"":3,""Nation7"":4,""Patri2"":3,""Nation1"":4,""Patri4"":3,""Patri8"":4,""Patri5"":4,""Patri12"":0,""Nation2"":3,""Patri7"":4,""Patri11"":0,""Patri10"":0,""Nation4"":4,""Patri1"":4,""Patri6"":0,""Nation3"":2}","[2,19,17,8,16,18,1,12,3,7,4,11,13,6,10,9,15,0,5,14]"
"","","","","","html-button-response","151","655372","0.0-24.0","87","1","2022-10-07 08:28:41","d60b49b5908c80e163b920d72b52d584","182.102.133.39","Mozilla/5.0 (Windows NT 10.0; Win64; x64) AppleWebKit/537.36 (KHTML, like Gecko) Chrome/106.0.0.0 Safari/537.36 Edg/106.0.1370.34","WebKit","Edge","106.0.1370.34","Windows","10.0","939","<p><strong>请判断你在多大程度上同意下列陈述。</strong></p>","0",""
"","","","","","survey-likert","152","682839","0.0-25.0","87","1","2022-10-07 08:28:41","d60b49b5908c80e163b920d72b52d584","182.102.133.39","Mozilla/5.0 (Windows NT 10.0; Win64; x64) AppleWebKit/537.36 (KHTML, like Gecko) Chrome/106.0.0.0 Safari/537.36 Edg/106.0.1370.34","WebKit","Edge","106.0.1370.34","Windows","10.0","27461","","{""Robot"":6,""vi2"":7,""vi1"":8,""hi2"":6,""hi1"":6,""hi4"":7,""hc3"":8,""hc1"":6,""vc4"":6,""hi3"":4,""vc1"":7,""vi3"":8,""vi4"":7,""vc2"":7,""hc2"":8,""hc4"":7,""vc3"":7}","[7,5,4,1,0,3,11,9,16,2,13,6,8,14,10,12,15]"
"","","","","","survey-text","153","701589","0.0-26.0","87","1","2022-10-07 08:28:41","d60b49b5908c80e163b920d72b52d584","182.102.133.39","Mozilla/5.0 (Windows NT 10.0; Win64; x64) AppleWebKit/537.36 (KHTML, like Gecko) Chrome/106.0.0.0 Safari/537.36 Edg/106.0.1370.34","WebKit","Edge","106.0.1370.34","Windows","10.0","18742","","{""Comments"":""加油""}",""
"","","","","","html-button-response","154","702364","0.0-27.0","87","1","2022-10-07 08:28:41","d60b49b5908c80e163b920d72b52d584","182.102.133.39","Mozilla/5.0 (Windows NT 10.0; Win64; x64) AppleWebKit/537.36 (KHTML, like Gecko) Chrome/106.0.0.0 Safari/537.36 Edg/106.0.1370.34","WebKit","Edge","106.0.1370.34","Windows","10.0","772","<strong><p>恭喜你完成了实验！</p><p>感谢您的参与。</p></strong>","0",""
