"success","timeout","failed_images","failed_audio","failed_video","trial_type","trial_index","time_elapsed","internal_node_id","run_id","condition","recorded_at","source_code_version","ip","user_agent","device","browser","browser_version","platform","platform_version","rt","stimulus","response","question_order"
"true","false","[]","[]","[]","preload","0","201","0.0-0.0","88","1","2022-10-07 08:47:11","d60b49b5908c80e163b920d72b52d584","39.144.82.80","Mozilla/5.0 (Macintosh; Intel Mac OS X 10_15_5) AppleWebKit/537.36 (KHTML, like Gecko) Chrome/105.0.0.0 Safari/537.36","Macintosh","Chrome","105.0.0.0","OS X","10_15_5","","","",""
"true","","","","","fullscreen","1","3123","0.0-1.0","88","1","2022-10-07 08:47:11","d60b49b5908c80e163b920d72b52d584","39.144.82.80","Mozilla/5.0 (Macintosh; Intel Mac OS X 10_15_5) AppleWebKit/537.36 (KHTML, like Gecko) Chrome/105.0.0.0 Safari/537.36","Macintosh","Chrome","105.0.0.0","OS X","10_15_5","","","",""
"","","","","","html-button-response","2","4878","0.0-2.0","88","1","2022-10-07 08:47:11","d60b49b5908c80e163b920d72b52d584","39.144.82.80","Mozilla/5.0 (Macintosh; Intel Mac OS X 10_15_5) AppleWebKit/537.36 (KHTML, like Gecko) Chrome/105.0.0.0 Safari/537.36","Macintosh","Chrome","105.0.0.0","OS X","10_15_5","1754","<p style=""font-size:20px;font-weight:bold;"">实验知情同意书</p><p style=""text-align:left;""><strong>实验名称：</strong>社会冲突研究</p><p style=""text-align:left;""><strong>主要研究者：</strong>韩晓春副教授（北京师范大学心理学部）</p><p style=""text-align:left;""><strong>联系方式：</strong>发送邮件至xiaochun.han@bnu.edu.cn</p><p style=""text-align:left;""><strong>研究目的：</strong>研究旨在了解人类面对群体冲突时的决策方式，以及相关的心理学特质。实验调查大约需要20分钟。</p><p style=""text-align:left;""><strong>实验流程：</strong>实验包含两部分。第一部分呈现一系列群体冲突场景，请你决定如何对这些冲突进行反应，大约需要10分钟完成。第二部分包含一系列人口统计学信息收集和心理学问卷，大约需要10分钟完成。</p><p style=""text-align:left;""><strong>参加及退出规则：</strong>参加本实验完全取决于您的个人意愿。在参与过程中，您可以随时退出，并且不用承担任何后果。</p><p style=""text-align:left;""><strong>隐私：</strong>本实验完全匿名进行，不会收集您的姓名或其他能够识别您身份的信息。实验中收集的作答仅用作科学研究使用，可能会在学术期刊/书籍上发表，或者用于教学，您的数据未来可能会和其他研究者或实验室分享，但您的个人身份不会被识别。</p><p style=""text-align:left;""><strong>实验报酬：</strong>实验完成后，您将获得15元人民币报酬，以感谢您的时间和努力。调查问卷中包含几道题目用以测验您作答时的认真度。只有完成全部实验，并且正确回答认真度测验的被试才能获得实验报酬。实验报酬将通过支付宝转账发放。</p><p style=""text-align:left;font-size:20px;""><strong>如果您同意以上实验知情同意书的内容，请点击'同意并且开始实验'按钮；否则请关闭浏览器界面，退出实验。</strong></p>","0",""
"","","","","","html-button-response","3","8613","0.0-3.0","88","1","2022-10-07 08:47:11","d60b49b5908c80e163b920d72b52d584","39.144.82.80","Mozilla/5.0 (Macintosh; Intel Mac OS X 10_15_5) AppleWebKit/537.36 (KHTML, like Gecko) Chrome/105.0.0.0 Safari/537.36","Macintosh","Chrome","105.0.0.0","OS X","10_15_5","3733","<p ><strong>实验任务一：</strong></p><p>请想象你的国家与另一个国家发生了军事冲突。</p><p>你是国家军队的指挥官，你将如何在冲突中进行决策。</p><p>具体来说，作为军队指挥官，请你决定是否发射导弹进行打击。</p><p>接下来，你会面对一系列场景，请仔细阅读每个场景，然后进行决策。</p><p>这部分实验任务大约需要10分钟。</p><p><strong>实验过程中，请集中注意力。</strong></p>","0",""
"","","","","","html-keyboard-response","4","9618","0.0-4.0-0.0","88","1","2022-10-07 08:47:11","d60b49b5908c80e163b920d72b52d584","39.144.82.80","Mozilla/5.0 (Macintosh; Intel Mac OS X 10_15_5) AppleWebKit/537.36 (KHTML, like Gecko) Chrome/105.0.0.0 Safari/537.36","Macintosh","Chrome","105.0.0.0","OS X","10_15_5","null","<div style=""font-size:60px;"">+</div>","null",""
"","","","","","html-button-response","5","14092","0.0-4.0-1.0","88","1","2022-10-07 08:47:11","d60b49b5908c80e163b920d72b52d584","39.144.82.80","Mozilla/5.0 (Macintosh; Intel Mac OS X 10_15_5) AppleWebKit/537.36 (KHTML, like Gecko) Chrome/105.0.0.0 Safari/537.36","Macintosh","Chrome","105.0.0.0","OS X","10_15_5","4471","<p>作为军队的指挥官，你可以选择发射导弹杀死 <strong>10名</strong> 敌国士兵，但会炸毁附近的 <strong>1棵</strong> 敌国树木。</p> <p>树木的照片如下图所示。</p> <p></p> <img src='stimuli/trees/1.png', style='max-width: 30%;'> </img> <p><strong>你是否选择发射武器？</strong></p>","0",""
"","","","","","html-keyboard-response","6","15097","0.0-4.0-0.1","88","1","2022-10-07 08:47:11","d60b49b5908c80e163b920d72b52d584","39.144.82.80","Mozilla/5.0 (Macintosh; Intel Mac OS X 10_15_5) AppleWebKit/537.36 (KHTML, like Gecko) Chrome/105.0.0.0 Safari/537.36","Macintosh","Chrome","105.0.0.0","OS X","10_15_5","null","<div style=""font-size:60px;"">+</div>","null",""
"","","","","","html-button-response","7","16544","0.0-4.0-1.1","88","1","2022-10-07 08:47:11","d60b49b5908c80e163b920d72b52d584","39.144.82.80","Mozilla/5.0 (Macintosh; Intel Mac OS X 10_15_5) AppleWebKit/537.36 (KHTML, like Gecko) Chrome/105.0.0.0 Safari/537.36","Macintosh","Chrome","105.0.0.0","OS X","10_15_5","1444","<p>作为军队的指挥官，你可以选择发射导弹杀死 <strong>1名</strong> 敌国士兵，但会炸毁附近的 <strong>1棵</strong> 敌国树木。</p> <p>树木的照片如下图所示。</p> <p></p> <img src='stimuli/trees/3.png', style='max-width: 30%;'> </img> <p><strong>你是否选择发射武器？</strong></p>","1",""
"","","","","","html-keyboard-response","8","17545","0.0-4.0-0.2","88","1","2022-10-07 08:47:11","d60b49b5908c80e163b920d72b52d584","39.144.82.80","Mozilla/5.0 (Macintosh; Intel Mac OS X 10_15_5) AppleWebKit/537.36 (KHTML, like Gecko) Chrome/105.0.0.0 Safari/537.36","Macintosh","Chrome","105.0.0.0","OS X","10_15_5","null","<div style=""font-size:60px;"">+</div>","null",""
"","","","","","html-button-response","9","20290","0.0-4.0-1.2","88","1","2022-10-07 08:47:11","d60b49b5908c80e163b920d72b52d584","39.144.82.80","Mozilla/5.0 (Macintosh; Intel Mac OS X 10_15_5) AppleWebKit/537.36 (KHTML, like Gecko) Chrome/105.0.0.0 Safari/537.36","Macintosh","Chrome","105.0.0.0","OS X","10_15_5","2743","<p>作为军队的指挥官，你可以选择发射导弹杀死 <strong>7名</strong> 敌国士兵，但会炸毁附近的 <strong>1棵</strong> 敌国树木。</p> <p>树木的照片如下图所示。</p> <p></p> <img src='stimuli/trees/9.png', style='max-width: 30%;'> </img> <p><strong>你是否选择发射武器？</strong></p>","0",""
"","","","","","html-keyboard-response","10","21294","0.0-4.0-0.3","88","1","2022-10-07 08:47:11","d60b49b5908c80e163b920d72b52d584","39.144.82.80","Mozilla/5.0 (Macintosh; Intel Mac OS X 10_15_5) AppleWebKit/537.36 (KHTML, like Gecko) Chrome/105.0.0.0 Safari/537.36","Macintosh","Chrome","105.0.0.0","OS X","10_15_5","null","<div style=""font-size:60px;"">+</div>","null",""
"","","","","","html-button-response","11","22990","0.0-4.0-1.3","88","1","2022-10-07 08:47:11","d60b49b5908c80e163b920d72b52d584","39.144.82.80","Mozilla/5.0 (Macintosh; Intel Mac OS X 10_15_5) AppleWebKit/537.36 (KHTML, like Gecko) Chrome/105.0.0.0 Safari/537.36","Macintosh","Chrome","105.0.0.0","OS X","10_15_5","1694","<p>作为军队的指挥官，你可以选择发射导弹杀死 <strong>1名</strong> 敌国士兵，但会炸毁附近的 <strong>1棵</strong> 敌国树木。</p> <p>树木的照片如下图所示。</p> <p></p> <img src='stimuli/trees/1.png', style='max-width: 30%;'> </img> <p><strong>你是否选择发射武器？</strong></p>","1",""
"","","","","","html-keyboard-response","12","23992","0.0-4.0-0.4","88","1","2022-10-07 08:47:11","d60b49b5908c80e163b920d72b52d584","39.144.82.80","Mozilla/5.0 (Macintosh; Intel Mac OS X 10_15_5) AppleWebKit/537.36 (KHTML, like Gecko) Chrome/105.0.0.0 Safari/537.36","Macintosh","Chrome","105.0.0.0","OS X","10_15_5","null","<div style=""font-size:60px;"">+</div>","null",""
"","","","","","html-button-response","13","25161","0.0-4.0-1.4","88","1","2022-10-07 08:47:11","d60b49b5908c80e163b920d72b52d584","39.144.82.80","Mozilla/5.0 (Macintosh; Intel Mac OS X 10_15_5) AppleWebKit/537.36 (KHTML, like Gecko) Chrome/105.0.0.0 Safari/537.36","Macintosh","Chrome","105.0.0.0","OS X","10_15_5","1167","<p>作为军队的指挥官，你可以选择发射导弹杀死 <strong>8名</strong> 敌国士兵，但会炸毁附近的 <strong>1棵</strong> 敌国树木。</p> <p>树木的照片如下图所示。</p> <p></p> <img src='stimuli/trees/4.png', style='max-width: 30%;'> </img> <p><strong>你是否选择发射武器？</strong></p>","0",""
"","","","","","html-keyboard-response","14","26168","0.0-4.0-0.5","88","1","2022-10-07 08:47:11","d60b49b5908c80e163b920d72b52d584","39.144.82.80","Mozilla/5.0 (Macintosh; Intel Mac OS X 10_15_5) AppleWebKit/537.36 (KHTML, like Gecko) Chrome/105.0.0.0 Safari/537.36","Macintosh","Chrome","105.0.0.0","OS X","10_15_5","null","<div style=""font-size:60px;"">+</div>","null",""
"","","","","","html-button-response","15","28908","0.0-4.0-1.5","88","1","2022-10-07 08:47:11","d60b49b5908c80e163b920d72b52d584","39.144.82.80","Mozilla/5.0 (Macintosh; Intel Mac OS X 10_15_5) AppleWebKit/537.36 (KHTML, like Gecko) Chrome/105.0.0.0 Safari/537.36","Macintosh","Chrome","105.0.0.0","OS X","10_15_5","2738","<p>作为军队的指挥官，你可以选择发射导弹杀死 <strong>6名</strong> 敌国士兵，但会误杀附近的 <strong>1名</strong> 敌国平民。</p> <p>平民照片如下图所示。</p> <p></p> <img src='stimuli/faces/NCF1.jpg', style='max-width: 30%;'> </img> <p><strong>你是否选择发射武器？</strong></p>","1",""
"","","","","","html-keyboard-response","16","29915","0.0-4.0-0.6","88","1","2022-10-07 08:47:11","d60b49b5908c80e163b920d72b52d584","39.144.82.80","Mozilla/5.0 (Macintosh; Intel Mac OS X 10_15_5) AppleWebKit/537.36 (KHTML, like Gecko) Chrome/105.0.0.0 Safari/537.36","Macintosh","Chrome","105.0.0.0","OS X","10_15_5","null","<div style=""font-size:60px;"">+</div>","null",""
"","","","","","html-button-response","17","32496","0.0-4.0-1.6","88","1","2022-10-07 08:47:11","d60b49b5908c80e163b920d72b52d584","39.144.82.80","Mozilla/5.0 (Macintosh; Intel Mac OS X 10_15_5) AppleWebKit/537.36 (KHTML, like Gecko) Chrome/105.0.0.0 Safari/537.36","Macintosh","Chrome","105.0.0.0","OS X","10_15_5","2579","<p>作为军队的指挥官，你可以选择发射导弹杀死 <strong>6名</strong> 敌国士兵，但会炸毁附近的 <strong>1棵</strong> 敌国树木。</p> <p>树木的照片如下图所示。</p> <p></p> <img src='stimuli/trees/15.png', style='max-width: 30%;'> </img> <p><strong>你是否选择发射武器？</strong></p>","0",""
"","","","","","html-keyboard-response","18","33498","0.0-4.0-0.7","88","1","2022-10-07 08:47:11","d60b49b5908c80e163b920d72b52d584","39.144.82.80","Mozilla/5.0 (Macintosh; Intel Mac OS X 10_15_5) AppleWebKit/537.36 (KHTML, like Gecko) Chrome/105.0.0.0 Safari/537.36","Macintosh","Chrome","105.0.0.0","OS X","10_15_5","null","<div style=""font-size:60px;"">+</div>","null",""
"","","","","","html-button-response","19","35893","0.0-4.0-1.7","88","1","2022-10-07 08:47:11","d60b49b5908c80e163b920d72b52d584","39.144.82.80","Mozilla/5.0 (Macintosh; Intel Mac OS X 10_15_5) AppleWebKit/537.36 (KHTML, like Gecko) Chrome/105.0.0.0 Safari/537.36","Macintosh","Chrome","105.0.0.0","OS X","10_15_5","2394","<p>作为军队的指挥官，你可以选择发射导弹杀死 <strong>8名</strong> 敌国士兵，但会误杀附近的 <strong>1名</strong> 敌国平民。</p> <p>平民照片如下图所示。</p> <p></p> <img src='stimuli/faces/NCM5.jpg', style='max-width: 30%;'> </img> <p><strong>你是否选择发射武器？</strong></p>","0",""
"","","","","","html-keyboard-response","20","36899","0.0-4.0-0.8","88","1","2022-10-07 08:47:11","d60b49b5908c80e163b920d72b52d584","39.144.82.80","Mozilla/5.0 (Macintosh; Intel Mac OS X 10_15_5) AppleWebKit/537.36 (KHTML, like Gecko) Chrome/105.0.0.0 Safari/537.36","Macintosh","Chrome","105.0.0.0","OS X","10_15_5","null","<div style=""font-size:60px;"">+</div>","null",""
"","","","","","html-button-response","21","138512","0.0-4.0-1.8","88","1","2022-10-07 08:47:11","d60b49b5908c80e163b920d72b52d584","39.144.82.80","Mozilla/5.0 (Macintosh; Intel Mac OS X 10_15_5) AppleWebKit/537.36 (KHTML, like Gecko) Chrome/105.0.0.0 Safari/537.36","Macintosh","Chrome","105.0.0.0","OS X","10_15_5","101609","<p>作为军队的指挥官，你可以选择发射导弹杀死 <strong>6名</strong> 敌国士兵，但会误杀附近的 <strong>1名</strong> 敌国平民。</p> <p>平民照片如下图所示。</p> <p></p> <img src='stimuli/faces/NCF5.jpg', style='max-width: 30%;'> </img> <p><strong>你是否选择发射武器？</strong></p>","1",""
"","","","","","html-keyboard-response","22","139514","0.0-4.0-0.9","88","1","2022-10-07 08:47:11","d60b49b5908c80e163b920d72b52d584","39.144.82.80","Mozilla/5.0 (Macintosh; Intel Mac OS X 10_15_5) AppleWebKit/537.36 (KHTML, like Gecko) Chrome/105.0.0.0 Safari/537.36","Macintosh","Chrome","105.0.0.0","OS X","10_15_5","null","<div style=""font-size:60px;"">+</div>","null",""
"","","","","","html-button-response","23","141269","0.0-4.0-1.9","88","1","2022-10-07 08:47:11","d60b49b5908c80e163b920d72b52d584","39.144.82.80","Mozilla/5.0 (Macintosh; Intel Mac OS X 10_15_5) AppleWebKit/537.36 (KHTML, like Gecko) Chrome/105.0.0.0 Safari/537.36","Macintosh","Chrome","105.0.0.0","OS X","10_15_5","1751","<p>作为军队的指挥官，你可以选择发射导弹杀死 <strong>2名</strong> 敌国士兵，但会误杀附近的 <strong>1名</strong> 敌国平民。</p> <p>平民照片如下图所示。</p> <p></p> <img src='stimuli/faces/NCF8.jpg', style='max-width: 30%;'> </img> <p><strong>你是否选择发射武器？</strong></p>","1",""
"","","","","","html-keyboard-response","24","142274","0.0-4.0-0.10","88","1","2022-10-07 08:47:11","d60b49b5908c80e163b920d72b52d584","39.144.82.80","Mozilla/5.0 (Macintosh; Intel Mac OS X 10_15_5) AppleWebKit/537.36 (KHTML, like Gecko) Chrome/105.0.0.0 Safari/537.36","Macintosh","Chrome","105.0.0.0","OS X","10_15_5","null","<div style=""font-size:60px;"">+</div>","null",""
"","","","","","html-button-response","25","144047","0.0-4.0-1.10","88","1","2022-10-07 08:47:11","d60b49b5908c80e163b920d72b52d584","39.144.82.80","Mozilla/5.0 (Macintosh; Intel Mac OS X 10_15_5) AppleWebKit/537.36 (KHTML, like Gecko) Chrome/105.0.0.0 Safari/537.36","Macintosh","Chrome","105.0.0.0","OS X","10_15_5","1771","<p>作为军队的指挥官，你可以选择发射导弹杀死 <strong>6名</strong> 敌国士兵，但会误杀附近的 <strong>1名</strong> 敌国平民。</p> <p>平民照片如下图所示。</p> <p></p> <img src='stimuli/faces/NCM7.jpg', style='max-width: 30%;'> </img> <p><strong>你是否选择发射武器？</strong></p>","1",""
"","","","","","html-keyboard-response","26","145049","0.0-4.0-0.11","88","1","2022-10-07 08:47:11","d60b49b5908c80e163b920d72b52d584","39.144.82.80","Mozilla/5.0 (Macintosh; Intel Mac OS X 10_15_5) AppleWebKit/537.36 (KHTML, like Gecko) Chrome/105.0.0.0 Safari/537.36","Macintosh","Chrome","105.0.0.0","OS X","10_15_5","null","<div style=""font-size:60px;"">+</div>","null",""
"","","","","","html-button-response","27","146219","0.0-4.0-1.11","88","1","2022-10-07 08:47:11","d60b49b5908c80e163b920d72b52d584","39.144.82.80","Mozilla/5.0 (Macintosh; Intel Mac OS X 10_15_5) AppleWebKit/537.36 (KHTML, like Gecko) Chrome/105.0.0.0 Safari/537.36","Macintosh","Chrome","105.0.0.0","OS X","10_15_5","1167","<p>作为军队的指挥官，你可以选择发射导弹杀死 <strong>9名</strong> 敌国士兵，但会误杀附近的 <strong>1名</strong> 敌国平民。</p> <p>平民照片如下图所示。</p> <p></p> <img src='stimuli/faces/NCM3.jpg', style='max-width: 30%;'> </img> <p><strong>你是否选择发射武器？</strong></p>","0",""
"","","","","","html-keyboard-response","28","147221","0.0-4.0-0.12","88","1","2022-10-07 08:47:11","d60b49b5908c80e163b920d72b52d584","39.144.82.80","Mozilla/5.0 (Macintosh; Intel Mac OS X 10_15_5) AppleWebKit/537.36 (KHTML, like Gecko) Chrome/105.0.0.0 Safari/537.36","Macintosh","Chrome","105.0.0.0","OS X","10_15_5","null","<div style=""font-size:60px;"">+</div>","null",""
"","","","","","html-button-response","29","148761","0.0-4.0-1.12","88","1","2022-10-07 08:47:11","d60b49b5908c80e163b920d72b52d584","39.144.82.80","Mozilla/5.0 (Macintosh; Intel Mac OS X 10_15_5) AppleWebKit/537.36 (KHTML, like Gecko) Chrome/105.0.0.0 Safari/537.36","Macintosh","Chrome","105.0.0.0","OS X","10_15_5","1538","<p>作为军队的指挥官，你可以选择发射导弹杀死 <strong>1名</strong> 敌国士兵，但会误杀附近的 <strong>1名</strong> 敌国平民。</p> <p>平民照片如下图所示。</p> <p></p> <img src='stimuli/faces/NCM4.jpg', style='max-width: 30%;'> </img> <p><strong>你是否选择发射武器？</strong></p>","1",""
"","","","","","html-keyboard-response","30","149763","0.0-4.0-0.13","88","1","2022-10-07 08:47:11","d60b49b5908c80e163b920d72b52d584","39.144.82.80","Mozilla/5.0 (Macintosh; Intel Mac OS X 10_15_5) AppleWebKit/537.36 (KHTML, like Gecko) Chrome/105.0.0.0 Safari/537.36","Macintosh","Chrome","105.0.0.0","OS X","10_15_5","null","<div style=""font-size:60px;"">+</div>","null",""
"","","","","","html-button-response","31","151236","0.0-4.0-1.13","88","1","2022-10-07 08:47:11","d60b49b5908c80e163b920d72b52d584","39.144.82.80","Mozilla/5.0 (Macintosh; Intel Mac OS X 10_15_5) AppleWebKit/537.36 (KHTML, like Gecko) Chrome/105.0.0.0 Safari/537.36","Macintosh","Chrome","105.0.0.0","OS X","10_15_5","1471","<p>作为军队的指挥官，你可以选择发射导弹杀死 <strong>3名</strong> 敌国士兵，但会炸毁附近的 <strong>1棵</strong> 敌国树木。</p> <p>树木的照片如下图所示。</p> <p></p> <img src='stimuli/trees/7.png', style='max-width: 30%;'> </img> <p><strong>你是否选择发射武器？</strong></p>","0",""
"","","","","","html-keyboard-response","32","152238","0.0-4.0-0.14","88","1","2022-10-07 08:47:11","d60b49b5908c80e163b920d72b52d584","39.144.82.80","Mozilla/5.0 (Macintosh; Intel Mac OS X 10_15_5) AppleWebKit/537.36 (KHTML, like Gecko) Chrome/105.0.0.0 Safari/537.36","Macintosh","Chrome","105.0.0.0","OS X","10_15_5","null","<div style=""font-size:60px;"">+</div>","null",""
"","","","","","html-button-response","33","153845","0.0-4.0-1.14","88","1","2022-10-07 08:47:11","d60b49b5908c80e163b920d72b52d584","39.144.82.80","Mozilla/5.0 (Macintosh; Intel Mac OS X 10_15_5) AppleWebKit/537.36 (KHTML, like Gecko) Chrome/105.0.0.0 Safari/537.36","Macintosh","Chrome","105.0.0.0","OS X","10_15_5","1605","<p>作为军队的指挥官，你可以选择发射导弹杀死 <strong>10名</strong> 敌国士兵，但会误杀附近的 <strong>1名</strong> 敌国平民。</p> <p>平民照片如下图所示。</p> <p></p> <img src='stimuli/faces/NCM2.jpg', style='max-width: 30%;'> </img> <p><strong>你是否选择发射武器？</strong></p>","0",""
"","","","","","html-keyboard-response","34","154848","0.0-4.0-0.15","88","1","2022-10-07 08:47:11","d60b49b5908c80e163b920d72b52d584","39.144.82.80","Mozilla/5.0 (Macintosh; Intel Mac OS X 10_15_5) AppleWebKit/537.36 (KHTML, like Gecko) Chrome/105.0.0.0 Safari/537.36","Macintosh","Chrome","105.0.0.0","OS X","10_15_5","null","<div style=""font-size:60px;"">+</div>","null",""
"","","","","","html-button-response","35","156388","0.0-4.0-1.15","88","1","2022-10-07 08:47:11","d60b49b5908c80e163b920d72b52d584","39.144.82.80","Mozilla/5.0 (Macintosh; Intel Mac OS X 10_15_5) AppleWebKit/537.36 (KHTML, like Gecko) Chrome/105.0.0.0 Safari/537.36","Macintosh","Chrome","105.0.0.0","OS X","10_15_5","1538","<p>作为军队的指挥官，你可以选择发射导弹杀死 <strong>4名</strong> 敌国士兵，但会炸毁附近的 <strong>1棵</strong> 敌国树木。</p> <p>树木的照片如下图所示。</p> <p></p> <img src='stimuli/trees/6.png', style='max-width: 30%;'> </img> <p><strong>你是否选择发射武器？</strong></p>","0",""
"","","","","","html-keyboard-response","36","157390","0.0-4.0-0.16","88","1","2022-10-07 08:47:11","d60b49b5908c80e163b920d72b52d584","39.144.82.80","Mozilla/5.0 (Macintosh; Intel Mac OS X 10_15_5) AppleWebKit/537.36 (KHTML, like Gecko) Chrome/105.0.0.0 Safari/537.36","Macintosh","Chrome","105.0.0.0","OS X","10_15_5","null","<div style=""font-size:60px;"">+</div>","null",""
"","","","","","html-button-response","37","159077","0.0-4.0-1.16","88","1","2022-10-07 08:47:11","d60b49b5908c80e163b920d72b52d584","39.144.82.80","Mozilla/5.0 (Macintosh; Intel Mac OS X 10_15_5) AppleWebKit/537.36 (KHTML, like Gecko) Chrome/105.0.0.0 Safari/537.36","Macintosh","Chrome","105.0.0.0","OS X","10_15_5","1684","<p>作为军队的指挥官，你可以选择发射导弹杀死 <strong>6名</strong> 敌国士兵，但会误杀附近的 <strong>1名</strong> 敌国平民。</p> <p>平民照片如下图所示。</p> <p></p> <img src='stimuli/faces/NCF3.jpg', style='max-width: 30%;'> </img> <p><strong>你是否选择发射武器？</strong></p>","1",""
"","","","","","html-keyboard-response","38","160079","0.0-4.0-0.17","88","1","2022-10-07 08:47:11","d60b49b5908c80e163b920d72b52d584","39.144.82.80","Mozilla/5.0 (Macintosh; Intel Mac OS X 10_15_5) AppleWebKit/537.36 (KHTML, like Gecko) Chrome/105.0.0.0 Safari/537.36","Macintosh","Chrome","105.0.0.0","OS X","10_15_5","null","<div style=""font-size:60px;"">+</div>","null",""
"","","","","","html-button-response","39","162261","0.0-4.0-1.17","88","1","2022-10-07 08:47:11","d60b49b5908c80e163b920d72b52d584","39.144.82.80","Mozilla/5.0 (Macintosh; Intel Mac OS X 10_15_5) AppleWebKit/537.36 (KHTML, like Gecko) Chrome/105.0.0.0 Safari/537.36","Macintosh","Chrome","105.0.0.0","OS X","10_15_5","2179","<p>作为军队的指挥官，你可以选择发射导弹杀死 <strong>6名</strong> 敌国士兵，但会炸毁附近的 <strong>1棵</strong> 敌国树木。</p> <p>树木的照片如下图所示。</p> <p></p> <img src='stimuli/trees/6.png', style='max-width: 30%;'> </img> <p><strong>你是否选择发射武器？</strong></p>","0",""
"","","","","","html-keyboard-response","40","163262","0.0-4.0-0.18","88","1","2022-10-07 08:47:11","d60b49b5908c80e163b920d72b52d584","39.144.82.80","Mozilla/5.0 (Macintosh; Intel Mac OS X 10_15_5) AppleWebKit/537.36 (KHTML, like Gecko) Chrome/105.0.0.0 Safari/537.36","Macintosh","Chrome","105.0.0.0","OS X","10_15_5","null","<div style=""font-size:60px;"">+</div>","null",""
"","","","","","html-button-response","41","166344","0.0-4.0-1.18","88","1","2022-10-07 08:47:11","d60b49b5908c80e163b920d72b52d584","39.144.82.80","Mozilla/5.0 (Macintosh; Intel Mac OS X 10_15_5) AppleWebKit/537.36 (KHTML, like Gecko) Chrome/105.0.0.0 Safari/537.36","Macintosh","Chrome","105.0.0.0","OS X","10_15_5","3079","<p>作为军队的指挥官，你可以选择发射导弹杀死 <strong>8名</strong> 敌国士兵，但会炸毁附近的 <strong>1棵</strong> 敌国树木。</p> <p>树木的照片如下图所示。</p> <p></p> <img src='stimuli/trees/3.png', style='max-width: 30%;'> </img> <p><strong>你是否选择发射武器？</strong></p>","0",""
"","","","","","html-keyboard-response","42","167348","0.0-4.0-0.19","88","1","2022-10-07 08:47:11","d60b49b5908c80e163b920d72b52d584","39.144.82.80","Mozilla/5.0 (Macintosh; Intel Mac OS X 10_15_5) AppleWebKit/537.36 (KHTML, like Gecko) Chrome/105.0.0.0 Safari/537.36","Macintosh","Chrome","105.0.0.0","OS X","10_15_5","null","<div style=""font-size:60px;"">+</div>","null",""
"","","","","","html-button-response","43","169056","0.0-4.0-1.19","88","1","2022-10-07 08:47:11","d60b49b5908c80e163b920d72b52d584","39.144.82.80","Mozilla/5.0 (Macintosh; Intel Mac OS X 10_15_5) AppleWebKit/537.36 (KHTML, like Gecko) Chrome/105.0.0.0 Safari/537.36","Macintosh","Chrome","105.0.0.0","OS X","10_15_5","1705","<p>作为军队的指挥官，你可以选择发射导弹杀死 <strong>3名</strong> 敌国士兵，但会误杀附近的 <strong>1名</strong> 敌国平民。</p> <p>平民照片如下图所示。</p> <p></p> <img src='stimuli/faces/NCF5.jpg', style='max-width: 30%;'> </img> <p><strong>你是否选择发射武器？</strong></p>","1",""
"","","","","","html-keyboard-response","44","170060","0.0-4.0-0.20","88","1","2022-10-07 08:47:11","d60b49b5908c80e163b920d72b52d584","39.144.82.80","Mozilla/5.0 (Macintosh; Intel Mac OS X 10_15_5) AppleWebKit/537.36 (KHTML, like Gecko) Chrome/105.0.0.0 Safari/537.36","Macintosh","Chrome","105.0.0.0","OS X","10_15_5","null","<div style=""font-size:60px;"">+</div>","null",""
"","","","","","html-button-response","45","171599","0.0-4.0-1.20","88","1","2022-10-07 08:47:11","d60b49b5908c80e163b920d72b52d584","39.144.82.80","Mozilla/5.0 (Macintosh; Intel Mac OS X 10_15_5) AppleWebKit/537.36 (KHTML, like Gecko) Chrome/105.0.0.0 Safari/537.36","Macintosh","Chrome","105.0.0.0","OS X","10_15_5","1536","<p>作为军队的指挥官，你可以选择发射导弹杀死 <strong>1名</strong> 敌国士兵，但会炸毁附近的 <strong>1棵</strong> 敌国树木。</p> <p>树木的照片如下图所示。</p> <p></p> <img src='stimuli/trees/9.png', style='max-width: 30%;'> </img> <p><strong>你是否选择发射武器？</strong></p>","1",""
"","","","","","html-keyboard-response","46","172602","0.0-4.0-0.21","88","1","2022-10-07 08:47:11","d60b49b5908c80e163b920d72b52d584","39.144.82.80","Mozilla/5.0 (Macintosh; Intel Mac OS X 10_15_5) AppleWebKit/537.36 (KHTML, like Gecko) Chrome/105.0.0.0 Safari/537.36","Macintosh","Chrome","105.0.0.0","OS X","10_15_5","null","<div style=""font-size:60px;"">+</div>","null",""
"","","","","","html-button-response","47","174063","0.0-4.0-1.21","88","1","2022-10-07 08:47:11","d60b49b5908c80e163b920d72b52d584","39.144.82.80","Mozilla/5.0 (Macintosh; Intel Mac OS X 10_15_5) AppleWebKit/537.36 (KHTML, like Gecko) Chrome/105.0.0.0 Safari/537.36","Macintosh","Chrome","105.0.0.0","OS X","10_15_5","1458","<p>作为军队的指挥官，你可以选择发射导弹杀死 <strong>5名</strong> 敌国士兵，但会误杀附近的 <strong>1名</strong> 敌国平民。</p> <p>平民照片如下图所示。</p> <p></p> <img src='stimuli/faces/NCF6.jpg', style='max-width: 30%;'> </img> <p><strong>你是否选择发射武器？</strong></p>","1",""
"","","","","","html-keyboard-response","48","175068","0.0-4.0-0.22","88","1","2022-10-07 08:47:11","d60b49b5908c80e163b920d72b52d584","39.144.82.80","Mozilla/5.0 (Macintosh; Intel Mac OS X 10_15_5) AppleWebKit/537.36 (KHTML, like Gecko) Chrome/105.0.0.0 Safari/537.36","Macintosh","Chrome","105.0.0.0","OS X","10_15_5","null","<div style=""font-size:60px;"">+</div>","null",""
"","","","","","html-button-response","49","176536","0.0-4.0-1.22","88","1","2022-10-07 08:47:11","d60b49b5908c80e163b920d72b52d584","39.144.82.80","Mozilla/5.0 (Macintosh; Intel Mac OS X 10_15_5) AppleWebKit/537.36 (KHTML, like Gecko) Chrome/105.0.0.0 Safari/537.36","Macintosh","Chrome","105.0.0.0","OS X","10_15_5","1464","<p>作为军队的指挥官，你可以选择发射导弹杀死 <strong>4名</strong> 敌国士兵，但会误杀附近的 <strong>1名</strong> 敌国平民。</p> <p>平民照片如下图所示。</p> <p></p> <img src='stimuli/faces/NCF2.jpg', style='max-width: 30%;'> </img> <p><strong>你是否选择发射武器？</strong></p>","1",""
"","","","","","html-keyboard-response","50","177539","0.0-4.0-0.23","88","1","2022-10-07 08:47:11","d60b49b5908c80e163b920d72b52d584","39.144.82.80","Mozilla/5.0 (Macintosh; Intel Mac OS X 10_15_5) AppleWebKit/537.36 (KHTML, like Gecko) Chrome/105.0.0.0 Safari/537.36","Macintosh","Chrome","105.0.0.0","OS X","10_15_5","null","<div style=""font-size:60px;"">+</div>","null",""
"","","","","","html-button-response","51","178764","0.0-4.0-1.23","88","1","2022-10-07 08:47:11","d60b49b5908c80e163b920d72b52d584","39.144.82.80","Mozilla/5.0 (Macintosh; Intel Mac OS X 10_15_5) AppleWebKit/537.36 (KHTML, like Gecko) Chrome/105.0.0.0 Safari/537.36","Macintosh","Chrome","105.0.0.0","OS X","10_15_5","1222","<p>作为军队的指挥官，你可以选择发射导弹杀死 <strong>9名</strong> 敌国士兵，但会炸毁附近的 <strong>1棵</strong> 敌国树木。</p> <p>树木的照片如下图所示。</p> <p></p> <img src='stimuli/trees/16.png', style='max-width: 30%;'> </img> <p><strong>你是否选择发射武器？</strong></p>","0",""
"","","","","","html-keyboard-response","52","179766","0.0-4.0-0.24","88","1","2022-10-07 08:47:11","d60b49b5908c80e163b920d72b52d584","39.144.82.80","Mozilla/5.0 (Macintosh; Intel Mac OS X 10_15_5) AppleWebKit/537.36 (KHTML, like Gecko) Chrome/105.0.0.0 Safari/537.36","Macintosh","Chrome","105.0.0.0","OS X","10_15_5","null","<div style=""font-size:60px;"">+</div>","null",""
"","","","","","html-button-response","53","194749","0.0-4.0-1.24","88","1","2022-10-07 08:47:11","d60b49b5908c80e163b920d72b52d584","39.144.82.80","Mozilla/5.0 (Macintosh; Intel Mac OS X 10_15_5) AppleWebKit/537.36 (KHTML, like Gecko) Chrome/105.0.0.0 Safari/537.36","Macintosh","Chrome","105.0.0.0","OS X","10_15_5","14980","<p>作为军队的指挥官，你可以选择发射导弹杀死 <strong>2名</strong> 敌国士兵，但会炸毁附近的 <strong>1棵</strong> 敌国树木。</p> <p>树木的照片如下图所示。</p> <p></p> <img src='stimuli/trees/12.png', style='max-width: 30%;'> </img> <p><strong>你是否选择发射武器？</strong></p>","0",""
"","","","","","html-keyboard-response","54","195757","0.0-4.0-0.25","88","1","2022-10-07 08:47:11","d60b49b5908c80e163b920d72b52d584","39.144.82.80","Mozilla/5.0 (Macintosh; Intel Mac OS X 10_15_5) AppleWebKit/537.36 (KHTML, like Gecko) Chrome/105.0.0.0 Safari/537.36","Macintosh","Chrome","105.0.0.0","OS X","10_15_5","null","<div style=""font-size:60px;"">+</div>","null",""
"","","","","","html-button-response","55","196560","0.0-4.0-1.25","88","1","2022-10-07 08:47:11","d60b49b5908c80e163b920d72b52d584","39.144.82.80","Mozilla/5.0 (Macintosh; Intel Mac OS X 10_15_5) AppleWebKit/537.36 (KHTML, like Gecko) Chrome/105.0.0.0 Safari/537.36","Macintosh","Chrome","105.0.0.0","OS X","10_15_5","800","<p>作为军队的指挥官，你可以选择发射导弹杀死 <strong>9名</strong> 敌国士兵，但会炸毁附近的 <strong>1棵</strong> 敌国树木。</p> <p>树木的照片如下图所示。</p> <p></p> <img src='stimuli/trees/8.png', style='max-width: 30%;'> </img> <p><strong>你是否选择发射武器？</strong></p>","0",""
"","","","","","html-keyboard-response","56","197567","0.0-4.0-0.26","88","1","2022-10-07 08:47:11","d60b49b5908c80e163b920d72b52d584","39.144.82.80","Mozilla/5.0 (Macintosh; Intel Mac OS X 10_15_5) AppleWebKit/537.36 (KHTML, like Gecko) Chrome/105.0.0.0 Safari/537.36","Macintosh","Chrome","105.0.0.0","OS X","10_15_5","null","<div style=""font-size:60px;"">+</div>","null",""
"","","","","","html-button-response","57","198518","0.0-4.0-1.26","88","1","2022-10-07 08:47:11","d60b49b5908c80e163b920d72b52d584","39.144.82.80","Mozilla/5.0 (Macintosh; Intel Mac OS X 10_15_5) AppleWebKit/537.36 (KHTML, like Gecko) Chrome/105.0.0.0 Safari/537.36","Macintosh","Chrome","105.0.0.0","OS X","10_15_5","948","<p>作为军队的指挥官，你可以选择发射导弹杀死 <strong>5名</strong> 敌国士兵，但会炸毁附近的 <strong>1棵</strong> 敌国树木。</p> <p>树木的照片如下图所示。</p> <p></p> <img src='stimuli/trees/10.png', style='max-width: 30%;'> </img> <p><strong>你是否选择发射武器？</strong></p>","0",""
"","","","","","html-keyboard-response","58","199526","0.0-4.0-0.27","88","1","2022-10-07 08:47:11","d60b49b5908c80e163b920d72b52d584","39.144.82.80","Mozilla/5.0 (Macintosh; Intel Mac OS X 10_15_5) AppleWebKit/537.36 (KHTML, like Gecko) Chrome/105.0.0.0 Safari/537.36","Macintosh","Chrome","105.0.0.0","OS X","10_15_5","null","<div style=""font-size:60px;"">+</div>","null",""
"","","","","","html-button-response","59","200160","0.0-4.0-1.27","88","1","2022-10-07 08:47:11","d60b49b5908c80e163b920d72b52d584","39.144.82.80","Mozilla/5.0 (Macintosh; Intel Mac OS X 10_15_5) AppleWebKit/537.36 (KHTML, like Gecko) Chrome/105.0.0.0 Safari/537.36","Macintosh","Chrome","105.0.0.0","OS X","10_15_5","631","<p>作为军队的指挥官，你可以选择发射导弹杀死 <strong>4名</strong> 敌国士兵，但会炸毁附近的 <strong>1棵</strong> 敌国树木。</p> <p>树木的照片如下图所示。</p> <p></p> <img src='stimuli/trees/8.png', style='max-width: 30%;'> </img> <p><strong>你是否选择发射武器？</strong></p>","0",""
"","","","","","html-keyboard-response","60","201163","0.0-4.0-0.28","88","1","2022-10-07 08:47:11","d60b49b5908c80e163b920d72b52d584","39.144.82.80","Mozilla/5.0 (Macintosh; Intel Mac OS X 10_15_5) AppleWebKit/537.36 (KHTML, like Gecko) Chrome/105.0.0.0 Safari/537.36","Macintosh","Chrome","105.0.0.0","OS X","10_15_5","null","<div style=""font-size:60px;"">+</div>","null",""
"","","","","","html-button-response","61","202332","0.0-4.0-1.28","88","1","2022-10-07 08:47:11","d60b49b5908c80e163b920d72b52d584","39.144.82.80","Mozilla/5.0 (Macintosh; Intel Mac OS X 10_15_5) AppleWebKit/537.36 (KHTML, like Gecko) Chrome/105.0.0.0 Safari/537.36","Macintosh","Chrome","105.0.0.0","OS X","10_15_5","1165","<p>作为军队的指挥官，你可以选择发射导弹杀死 <strong>1名</strong> 敌国士兵，但会误杀附近的 <strong>1名</strong> 敌国平民。</p> <p>平民照片如下图所示。</p> <p></p> <img src='stimuli/faces/NCM6.jpg', style='max-width: 30%;'> </img> <p><strong>你是否选择发射武器？</strong></p>","1",""
"","","","","","html-keyboard-response","62","203336","0.0-4.0-0.29","88","1","2022-10-07 08:47:11","d60b49b5908c80e163b920d72b52d584","39.144.82.80","Mozilla/5.0 (Macintosh; Intel Mac OS X 10_15_5) AppleWebKit/537.36 (KHTML, like Gecko) Chrome/105.0.0.0 Safari/537.36","Macintosh","Chrome","105.0.0.0","OS X","10_15_5","null","<div style=""font-size:60px;"">+</div>","null",""
"","","","","","html-button-response","63","204716","0.0-4.0-1.29","88","1","2022-10-07 08:47:11","d60b49b5908c80e163b920d72b52d584","39.144.82.80","Mozilla/5.0 (Macintosh; Intel Mac OS X 10_15_5) AppleWebKit/537.36 (KHTML, like Gecko) Chrome/105.0.0.0 Safari/537.36","Macintosh","Chrome","105.0.0.0","OS X","10_15_5","1377","<p>作为军队的指挥官，你可以选择发射导弹杀死 <strong>10名</strong> 敌国士兵，但会误杀附近的 <strong>1名</strong> 敌国平民。</p> <p>平民照片如下图所示。</p> <p></p> <img src='stimuli/faces/NCF8.jpg', style='max-width: 30%;'> </img> <p><strong>你是否选择发射武器？</strong></p>","0",""
"","","","","","html-keyboard-response","64","205718","0.0-4.0-0.30","88","1","2022-10-07 08:47:11","d60b49b5908c80e163b920d72b52d584","39.144.82.80","Mozilla/5.0 (Macintosh; Intel Mac OS X 10_15_5) AppleWebKit/537.36 (KHTML, like Gecko) Chrome/105.0.0.0 Safari/537.36","Macintosh","Chrome","105.0.0.0","OS X","10_15_5","null","<div style=""font-size:60px;"">+</div>","null",""
"","","","","","html-button-response","65","207023","0.0-4.0-1.30","88","1","2022-10-07 08:47:11","d60b49b5908c80e163b920d72b52d584","39.144.82.80","Mozilla/5.0 (Macintosh; Intel Mac OS X 10_15_5) AppleWebKit/537.36 (KHTML, like Gecko) Chrome/105.0.0.0 Safari/537.36","Macintosh","Chrome","105.0.0.0","OS X","10_15_5","1301","<p>作为军队的指挥官，你可以选择发射导弹杀死 <strong>6名</strong> 敌国士兵，但会误杀附近的 <strong>1名</strong> 敌国平民。</p> <p>平民照片如下图所示。</p> <p></p> <img src='stimuli/faces/NCM4.jpg', style='max-width: 30%;'> </img> <p><strong>你是否选择发射武器？</strong></p>","1",""
"","","","","","html-keyboard-response","66","208027","0.0-4.0-0.31","88","1","2022-10-07 08:47:11","d60b49b5908c80e163b920d72b52d584","39.144.82.80","Mozilla/5.0 (Macintosh; Intel Mac OS X 10_15_5) AppleWebKit/537.36 (KHTML, like Gecko) Chrome/105.0.0.0 Safari/537.36","Macintosh","Chrome","105.0.0.0","OS X","10_15_5","null","<div style=""font-size:60px;"">+</div>","null",""
"","","","","","html-button-response","67","209059","0.0-4.0-1.31","88","1","2022-10-07 08:47:11","d60b49b5908c80e163b920d72b52d584","39.144.82.80","Mozilla/5.0 (Macintosh; Intel Mac OS X 10_15_5) AppleWebKit/537.36 (KHTML, like Gecko) Chrome/105.0.0.0 Safari/537.36","Macintosh","Chrome","105.0.0.0","OS X","10_15_5","1028","<p>作为军队的指挥官，你可以选择发射导弹杀死 <strong>6名</strong> 敌国士兵，但会误杀附近的 <strong>1名</strong> 敌国平民。</p> <p>平民照片如下图所示。</p> <p></p> <img src='stimuli/faces/NCM6.jpg', style='max-width: 30%;'> </img> <p><strong>你是否选择发射武器？</strong></p>","1",""
"","","","","","html-keyboard-response","68","210067","0.0-4.0-0.32","88","1","2022-10-07 08:47:11","d60b49b5908c80e163b920d72b52d584","39.144.82.80","Mozilla/5.0 (Macintosh; Intel Mac OS X 10_15_5) AppleWebKit/537.36 (KHTML, like Gecko) Chrome/105.0.0.0 Safari/537.36","Macintosh","Chrome","105.0.0.0","OS X","10_15_5","null","<div style=""font-size:60px;"">+</div>","null",""
"","","","","","html-button-response","69","211152","0.0-4.0-1.32","88","1","2022-10-07 08:47:11","d60b49b5908c80e163b920d72b52d584","39.144.82.80","Mozilla/5.0 (Macintosh; Intel Mac OS X 10_15_5) AppleWebKit/537.36 (KHTML, like Gecko) Chrome/105.0.0.0 Safari/537.36","Macintosh","Chrome","105.0.0.0","OS X","10_15_5","1082","<p>作为军队的指挥官，你可以选择发射导弹杀死 <strong>1名</strong> 敌国士兵，但会误杀附近的 <strong>1名</strong> 敌国平民。</p> <p>平民照片如下图所示。</p> <p></p> <img src='stimuli/faces/NCM1.jpg', style='max-width: 30%;'> </img> <p><strong>你是否选择发射武器？</strong></p>","1",""
"","","","","","html-keyboard-response","70","212156","0.0-4.0-0.33","88","1","2022-10-07 08:47:11","d60b49b5908c80e163b920d72b52d584","39.144.82.80","Mozilla/5.0 (Macintosh; Intel Mac OS X 10_15_5) AppleWebKit/537.36 (KHTML, like Gecko) Chrome/105.0.0.0 Safari/537.36","Macintosh","Chrome","105.0.0.0","OS X","10_15_5","null","<div style=""font-size:60px;"">+</div>","null",""
"","","","","","html-button-response","71","213199","0.0-4.0-1.33","88","1","2022-10-07 08:47:11","d60b49b5908c80e163b920d72b52d584","39.144.82.80","Mozilla/5.0 (Macintosh; Intel Mac OS X 10_15_5) AppleWebKit/537.36 (KHTML, like Gecko) Chrome/105.0.0.0 Safari/537.36","Macintosh","Chrome","105.0.0.0","OS X","10_15_5","1040","<p>作为军队的指挥官，你可以选择发射导弹杀死 <strong>2名</strong> 敌国士兵，但会炸毁附近的 <strong>1棵</strong> 敌国树木。</p> <p>树木的照片如下图所示。</p> <p></p> <img src='stimuli/trees/2.png', style='max-width: 30%;'> </img> <p><strong>你是否选择发射武器？</strong></p>","0",""
"","","","","","html-keyboard-response","72","214204","0.0-4.0-0.34","88","1","2022-10-07 08:47:11","d60b49b5908c80e163b920d72b52d584","39.144.82.80","Mozilla/5.0 (Macintosh; Intel Mac OS X 10_15_5) AppleWebKit/537.36 (KHTML, like Gecko) Chrome/105.0.0.0 Safari/537.36","Macintosh","Chrome","105.0.0.0","OS X","10_15_5","null","<div style=""font-size:60px;"">+</div>","null",""
"","","","","","html-button-response","73","215449","0.0-4.0-1.34","88","1","2022-10-07 08:47:11","d60b49b5908c80e163b920d72b52d584","39.144.82.80","Mozilla/5.0 (Macintosh; Intel Mac OS X 10_15_5) AppleWebKit/537.36 (KHTML, like Gecko) Chrome/105.0.0.0 Safari/537.36","Macintosh","Chrome","105.0.0.0","OS X","10_15_5","1241","<p>作为军队的指挥官，你可以选择发射导弹杀死 <strong>9名</strong> 敌国士兵，但会炸毁附近的 <strong>1棵</strong> 敌国树木。</p> <p>树木的照片如下图所示。</p> <p></p> <img src='stimuli/trees/14.png', style='max-width: 30%;'> </img> <p><strong>你是否选择发射武器？</strong></p>","0",""
"","","","","","html-keyboard-response","74","216456","0.0-4.0-0.35","88","1","2022-10-07 08:47:11","d60b49b5908c80e163b920d72b52d584","39.144.82.80","Mozilla/5.0 (Macintosh; Intel Mac OS X 10_15_5) AppleWebKit/537.36 (KHTML, like Gecko) Chrome/105.0.0.0 Safari/537.36","Macintosh","Chrome","105.0.0.0","OS X","10_15_5","null","<div style=""font-size:60px;"">+</div>","null",""
"","","","","","html-button-response","75","217541","0.0-4.0-1.35","88","1","2022-10-07 08:47:11","d60b49b5908c80e163b920d72b52d584","39.144.82.80","Mozilla/5.0 (Macintosh; Intel Mac OS X 10_15_5) AppleWebKit/537.36 (KHTML, like Gecko) Chrome/105.0.0.0 Safari/537.36","Macintosh","Chrome","105.0.0.0","OS X","10_15_5","1081","<p>作为军队的指挥官，你可以选择发射导弹杀死 <strong>5名</strong> 敌国士兵，但会炸毁附近的 <strong>1棵</strong> 敌国树木。</p> <p>树木的照片如下图所示。</p> <p></p> <img src='stimuli/trees/15.png', style='max-width: 30%;'> </img> <p><strong>你是否选择发射武器？</strong></p>","0",""
"","","","","","html-keyboard-response","76","218547","0.0-4.0-0.36","88","1","2022-10-07 08:47:11","d60b49b5908c80e163b920d72b52d584","39.144.82.80","Mozilla/5.0 (Macintosh; Intel Mac OS X 10_15_5) AppleWebKit/537.36 (KHTML, like Gecko) Chrome/105.0.0.0 Safari/537.36","Macintosh","Chrome","105.0.0.0","OS X","10_15_5","null","<div style=""font-size:60px;"">+</div>","null",""
"","","","","","html-button-response","77","219240","0.0-4.0-1.36","88","1","2022-10-07 08:47:11","d60b49b5908c80e163b920d72b52d584","39.144.82.80","Mozilla/5.0 (Macintosh; Intel Mac OS X 10_15_5) AppleWebKit/537.36 (KHTML, like Gecko) Chrome/105.0.0.0 Safari/537.36","Macintosh","Chrome","105.0.0.0","OS X","10_15_5","690","<p>作为军队的指挥官，你可以选择发射导弹杀死 <strong>3名</strong> 敌国士兵，但会炸毁附近的 <strong>1棵</strong> 敌国树木。</p> <p>树木的照片如下图所示。</p> <p></p> <img src='stimuli/trees/16.png', style='max-width: 30%;'> </img> <p><strong>你是否选择发射武器？</strong></p>","0",""
"","","","","","html-keyboard-response","78","220248","0.0-4.0-0.37","88","1","2022-10-07 08:47:11","d60b49b5908c80e163b920d72b52d584","39.144.82.80","Mozilla/5.0 (Macintosh; Intel Mac OS X 10_15_5) AppleWebKit/537.36 (KHTML, like Gecko) Chrome/105.0.0.0 Safari/537.36","Macintosh","Chrome","105.0.0.0","OS X","10_15_5","null","<div style=""font-size:60px;"">+</div>","null",""
"","","","","","html-button-response","79","221107","0.0-4.0-1.37","88","1","2022-10-07 08:47:11","d60b49b5908c80e163b920d72b52d584","39.144.82.80","Mozilla/5.0 (Macintosh; Intel Mac OS X 10_15_5) AppleWebKit/537.36 (KHTML, like Gecko) Chrome/105.0.0.0 Safari/537.36","Macintosh","Chrome","105.0.0.0","OS X","10_15_5","856","<p>作为军队的指挥官，你可以选择发射导弹杀死 <strong>7名</strong> 敌国士兵，但会炸毁附近的 <strong>1棵</strong> 敌国树木。</p> <p>树木的照片如下图所示。</p> <p></p> <img src='stimuli/trees/11.png', style='max-width: 30%;'> </img> <p><strong>你是否选择发射武器？</strong></p>","0",""
"","","","","","html-keyboard-response","80","222116","0.0-4.0-0.38","88","1","2022-10-07 08:47:11","d60b49b5908c80e163b920d72b52d584","39.144.82.80","Mozilla/5.0 (Macintosh; Intel Mac OS X 10_15_5) AppleWebKit/537.36 (KHTML, like Gecko) Chrome/105.0.0.0 Safari/537.36","Macintosh","Chrome","105.0.0.0","OS X","10_15_5","null","<div style=""font-size:60px;"">+</div>","null",""
"","","","","","html-button-response","81","223717","0.0-4.0-1.38","88","1","2022-10-07 08:47:11","d60b49b5908c80e163b920d72b52d584","39.144.82.80","Mozilla/5.0 (Macintosh; Intel Mac OS X 10_15_5) AppleWebKit/537.36 (KHTML, like Gecko) Chrome/105.0.0.0 Safari/537.36","Macintosh","Chrome","105.0.0.0","OS X","10_15_5","1597","<p>作为军队的指挥官，你可以选择发射导弹杀死 <strong>9名</strong> 敌国士兵，但会误杀附近的 <strong>1名</strong> 敌国平民。</p> <p>平民照片如下图所示。</p> <p></p> <img src='stimuli/faces/NCF7.jpg', style='max-width: 30%;'> </img> <p><strong>你是否选择发射武器？</strong></p>","0",""
"","","","","","html-keyboard-response","82","224722","0.0-4.0-0.39","88","1","2022-10-07 08:47:11","d60b49b5908c80e163b920d72b52d584","39.144.82.80","Mozilla/5.0 (Macintosh; Intel Mac OS X 10_15_5) AppleWebKit/537.36 (KHTML, like Gecko) Chrome/105.0.0.0 Safari/537.36","Macintosh","Chrome","105.0.0.0","OS X","10_15_5","null","<div style=""font-size:60px;"">+</div>","null",""
"","","","","","html-button-response","83","225584","0.0-4.0-1.39","88","1","2022-10-07 08:47:11","d60b49b5908c80e163b920d72b52d584","39.144.82.80","Mozilla/5.0 (Macintosh; Intel Mac OS X 10_15_5) AppleWebKit/537.36 (KHTML, like Gecko) Chrome/105.0.0.0 Safari/537.36","Macintosh","Chrome","105.0.0.0","OS X","10_15_5","859","<p>作为军队的指挥官，你可以选择发射导弹杀死 <strong>7名</strong> 敌国士兵，但会炸毁附近的 <strong>1棵</strong> 敌国树木。</p> <p>树木的照片如下图所示。</p> <p></p> <img src='stimuli/trees/5.png', style='max-width: 30%;'> </img> <p><strong>你是否选择发射武器？</strong></p>","0",""
"","","","","","html-keyboard-response","84","226589","0.0-4.0-0.40","88","1","2022-10-07 08:47:11","d60b49b5908c80e163b920d72b52d584","39.144.82.80","Mozilla/5.0 (Macintosh; Intel Mac OS X 10_15_5) AppleWebKit/537.36 (KHTML, like Gecko) Chrome/105.0.0.0 Safari/537.36","Macintosh","Chrome","105.0.0.0","OS X","10_15_5","null","<div style=""font-size:60px;"">+</div>","null",""
"","","","","","html-button-response","85","228251","0.0-4.0-1.40","88","1","2022-10-07 08:47:11","d60b49b5908c80e163b920d72b52d584","39.144.82.80","Mozilla/5.0 (Macintosh; Intel Mac OS X 10_15_5) AppleWebKit/537.36 (KHTML, like Gecko) Chrome/105.0.0.0 Safari/537.36","Macintosh","Chrome","105.0.0.0","OS X","10_15_5","1658","<p>作为军队的指挥官，你可以选择发射导弹杀死 <strong>3名</strong> 敌国士兵，但会误杀附近的 <strong>1名</strong> 敌国平民。</p> <p>平民照片如下图所示。</p> <p></p> <img src='stimuli/faces/NCF7.jpg', style='max-width: 30%;'> </img> <p><strong>你是否选择发射武器？</strong></p>","1",""
"","","","","","html-keyboard-response","86","229255","0.0-4.0-0.41","88","1","2022-10-07 08:47:11","d60b49b5908c80e163b920d72b52d584","39.144.82.80","Mozilla/5.0 (Macintosh; Intel Mac OS X 10_15_5) AppleWebKit/537.36 (KHTML, like Gecko) Chrome/105.0.0.0 Safari/537.36","Macintosh","Chrome","105.0.0.0","OS X","10_15_5","null","<div style=""font-size:60px;"">+</div>","null",""
"","","","","","html-button-response","87","230355","0.0-4.0-1.41","88","1","2022-10-07 08:47:11","d60b49b5908c80e163b920d72b52d584","39.144.82.80","Mozilla/5.0 (Macintosh; Intel Mac OS X 10_15_5) AppleWebKit/537.36 (KHTML, like Gecko) Chrome/105.0.0.0 Safari/537.36","Macintosh","Chrome","105.0.0.0","OS X","10_15_5","1096","<p>作为军队的指挥官，你可以选择发射导弹杀死 <strong>8名</strong> 敌国士兵，但会误杀附近的 <strong>1名</strong> 敌国平民。</p> <p>平民照片如下图所示。</p> <p></p> <img src='stimuli/faces/NCF4.jpg', style='max-width: 30%;'> </img> <p><strong>你是否选择发射武器？</strong></p>","0",""
"","","","","","html-keyboard-response","88","231358","0.0-4.0-0.42","88","1","2022-10-07 08:47:11","d60b49b5908c80e163b920d72b52d584","39.144.82.80","Mozilla/5.0 (Macintosh; Intel Mac OS X 10_15_5) AppleWebKit/537.36 (KHTML, like Gecko) Chrome/105.0.0.0 Safari/537.36","Macintosh","Chrome","105.0.0.0","OS X","10_15_5","null","<div style=""font-size:60px;"">+</div>","null",""
"","","","","","html-button-response","89","233471","0.0-4.0-1.42","88","1","2022-10-07 08:47:11","d60b49b5908c80e163b920d72b52d584","39.144.82.80","Mozilla/5.0 (Macintosh; Intel Mac OS X 10_15_5) AppleWebKit/537.36 (KHTML, like Gecko) Chrome/105.0.0.0 Safari/537.36","Macintosh","Chrome","105.0.0.0","OS X","10_15_5","2108","<p>作为军队的指挥官，你可以选择发射导弹杀死 <strong>5名</strong> 敌国士兵，但会误杀附近的 <strong>1名</strong> 敌国平民。</p> <p>平民照片如下图所示。</p> <p></p> <img src='stimuli/faces/NCM5.jpg', style='max-width: 30%;'> </img> <p><strong>你是否选择发射武器？</strong></p>","1",""
"","","","","","html-keyboard-response","90","234479","0.0-4.0-0.43","88","1","2022-10-07 08:47:11","d60b49b5908c80e163b920d72b52d584","39.144.82.80","Mozilla/5.0 (Macintosh; Intel Mac OS X 10_15_5) AppleWebKit/537.36 (KHTML, like Gecko) Chrome/105.0.0.0 Safari/537.36","Macintosh","Chrome","105.0.0.0","OS X","10_15_5","null","<div style=""font-size:60px;"">+</div>","null",""
"","","","","","html-button-response","91","235338","0.0-4.0-1.43","88","1","2022-10-07 08:47:11","d60b49b5908c80e163b920d72b52d584","39.144.82.80","Mozilla/5.0 (Macintosh; Intel Mac OS X 10_15_5) AppleWebKit/537.36 (KHTML, like Gecko) Chrome/105.0.0.0 Safari/537.36","Macintosh","Chrome","105.0.0.0","OS X","10_15_5","854","<p>作为军队的指挥官，你可以选择发射导弹杀死 <strong>4名</strong> 敌国士兵，但会误杀附近的 <strong>1名</strong> 敌国平民。</p> <p>平民照片如下图所示。</p> <p></p> <img src='stimuli/faces/NCM3.jpg', style='max-width: 30%;'> </img> <p><strong>你是否选择发射武器？</strong></p>","1",""
"","","","","","html-keyboard-response","92","236343","0.0-4.0-0.44","88","1","2022-10-07 08:47:11","d60b49b5908c80e163b920d72b52d584","39.144.82.80","Mozilla/5.0 (Macintosh; Intel Mac OS X 10_15_5) AppleWebKit/537.36 (KHTML, like Gecko) Chrome/105.0.0.0 Safari/537.36","Macintosh","Chrome","105.0.0.0","OS X","10_15_5","null","<div style=""font-size:60px;"">+</div>","null",""
"","","","","","html-button-response","93","237442","0.0-4.0-1.44","88","1","2022-10-07 08:47:11","d60b49b5908c80e163b920d72b52d584","39.144.82.80","Mozilla/5.0 (Macintosh; Intel Mac OS X 10_15_5) AppleWebKit/537.36 (KHTML, like Gecko) Chrome/105.0.0.0 Safari/537.36","Macintosh","Chrome","105.0.0.0","OS X","10_15_5","1096","<p>作为军队的指挥官，你可以选择发射导弹杀死 <strong>1名</strong> 敌国士兵，但会误杀附近的 <strong>1名</strong> 敌国平民。</p> <p>平民照片如下图所示。</p> <p></p> <img src='stimuli/faces/NCF4.jpg', style='max-width: 30%;'> </img> <p><strong>你是否选择发射武器？</strong></p>","1",""
"","","","","","html-keyboard-response","94","238450","0.0-4.0-0.45","88","1","2022-10-07 08:47:11","d60b49b5908c80e163b920d72b52d584","39.144.82.80","Mozilla/5.0 (Macintosh; Intel Mac OS X 10_15_5) AppleWebKit/537.36 (KHTML, like Gecko) Chrome/105.0.0.0 Safari/537.36","Macintosh","Chrome","105.0.0.0","OS X","10_15_5","null","<div style=""font-size:60px;"">+</div>","null",""
"","","","","","html-button-response","95","239602","0.0-4.0-1.45","88","1","2022-10-07 08:47:11","d60b49b5908c80e163b920d72b52d584","39.144.82.80","Mozilla/5.0 (Macintosh; Intel Mac OS X 10_15_5) AppleWebKit/537.36 (KHTML, like Gecko) Chrome/105.0.0.0 Safari/537.36","Macintosh","Chrome","105.0.0.0","OS X","10_15_5","1148","<p>作为军队的指挥官，你可以选择发射导弹杀死 <strong>9名</strong> 敌国士兵，但会误杀附近的 <strong>1名</strong> 敌国平民。</p> <p>平民照片如下图所示。</p> <p></p> <img src='stimuli/faces/NCM1.jpg', style='max-width: 30%;'> </img> <p><strong>你是否选择发射武器？</strong></p>","0",""
"","","","","","html-keyboard-response","96","240609","0.0-4.0-0.46","88","1","2022-10-07 08:47:11","d60b49b5908c80e163b920d72b52d584","39.144.82.80","Mozilla/5.0 (Macintosh; Intel Mac OS X 10_15_5) AppleWebKit/537.36 (KHTML, like Gecko) Chrome/105.0.0.0 Safari/537.36","Macintosh","Chrome","105.0.0.0","OS X","10_15_5","null","<div style=""font-size:60px;"">+</div>","null",""
"","","","","","html-button-response","97","241705","0.0-4.0-1.46","88","1","2022-10-07 08:47:11","d60b49b5908c80e163b920d72b52d584","39.144.82.80","Mozilla/5.0 (Macintosh; Intel Mac OS X 10_15_5) AppleWebKit/537.36 (KHTML, like Gecko) Chrome/105.0.0.0 Safari/537.36","Macintosh","Chrome","105.0.0.0","OS X","10_15_5","1093","<p>作为军队的指挥官，你可以选择发射导弹杀死 <strong>9名</strong> 敌国士兵，但会误杀附近的 <strong>1名</strong> 敌国平民。</p> <p>平民照片如下图所示。</p> <p></p> <img src='stimuli/faces/NCM8.jpg', style='max-width: 30%;'> </img> <p><strong>你是否选择发射武器？</strong></p>","0",""
"","","","","","html-keyboard-response","98","242712","0.0-4.0-0.47","88","1","2022-10-07 08:47:11","d60b49b5908c80e163b920d72b52d584","39.144.82.80","Mozilla/5.0 (Macintosh; Intel Mac OS X 10_15_5) AppleWebKit/537.36 (KHTML, like Gecko) Chrome/105.0.0.0 Safari/537.36","Macintosh","Chrome","105.0.0.0","OS X","10_15_5","null","<div style=""font-size:60px;"">+</div>","null",""
"","","","","","html-button-response","99","243922","0.0-4.0-1.47","88","1","2022-10-07 08:47:11","d60b49b5908c80e163b920d72b52d584","39.144.82.80","Mozilla/5.0 (Macintosh; Intel Mac OS X 10_15_5) AppleWebKit/537.36 (KHTML, like Gecko) Chrome/105.0.0.0 Safari/537.36","Macintosh","Chrome","105.0.0.0","OS X","10_15_5","1205","<p>作为军队的指挥官，你可以选择发射导弹杀死 <strong>3名</strong> 敌国士兵，但会误杀附近的 <strong>1名</strong> 敌国平民。</p> <p>平民照片如下图所示。</p> <p></p> <img src='stimuli/faces/NCM2.jpg', style='max-width: 30%;'> </img> <p><strong>你是否选择发射武器？</strong></p>","1",""
"","","","","","html-keyboard-response","100","244926","0.0-4.0-0.48","88","1","2022-10-07 08:47:11","d60b49b5908c80e163b920d72b52d584","39.144.82.80","Mozilla/5.0 (Macintosh; Intel Mac OS X 10_15_5) AppleWebKit/537.36 (KHTML, like Gecko) Chrome/105.0.0.0 Safari/537.36","Macintosh","Chrome","105.0.0.0","OS X","10_15_5","null","<div style=""font-size:60px;"">+</div>","null",""
"","","","","","html-button-response","101","246115","0.0-4.0-1.48","88","1","2022-10-07 08:47:11","d60b49b5908c80e163b920d72b52d584","39.144.82.80","Mozilla/5.0 (Macintosh; Intel Mac OS X 10_15_5) AppleWebKit/537.36 (KHTML, like Gecko) Chrome/105.0.0.0 Safari/537.36","Macintosh","Chrome","105.0.0.0","OS X","10_15_5","1185","<p>作为军队的指挥官，你可以选择发射导弹杀死 <strong>10名</strong> 敌国士兵，但会误杀附近的 <strong>1名</strong> 敌国平民。</p> <p>平民照片如下图所示。</p> <p></p> <img src='stimuli/faces/NCF2.jpg', style='max-width: 30%;'> </img> <p><strong>你是否选择发射武器？</strong></p>","0",""
"","","","","","html-keyboard-response","102","247121","0.0-4.0-0.49","88","1","2022-10-07 08:47:11","d60b49b5908c80e163b920d72b52d584","39.144.82.80","Mozilla/5.0 (Macintosh; Intel Mac OS X 10_15_5) AppleWebKit/537.36 (KHTML, like Gecko) Chrome/105.0.0.0 Safari/537.36","Macintosh","Chrome","105.0.0.0","OS X","10_15_5","null","<div style=""font-size:60px;"">+</div>","null",""
"","","","","","html-button-response","103","248703","0.0-4.0-1.49","88","1","2022-10-07 08:47:11","d60b49b5908c80e163b920d72b52d584","39.144.82.80","Mozilla/5.0 (Macintosh; Intel Mac OS X 10_15_5) AppleWebKit/537.36 (KHTML, like Gecko) Chrome/105.0.0.0 Safari/537.36","Macintosh","Chrome","105.0.0.0","OS X","10_15_5","1577","<p>作为军队的指挥官，你可以选择发射导弹杀死 <strong>3名</strong> 敌国士兵，但会误杀附近的 <strong>1名</strong> 敌国平民。</p> <p>平民照片如下图所示。</p> <p></p> <img src='stimuli/faces/NCM7.jpg', style='max-width: 30%;'> </img> <p><strong>你是否选择发射武器？</strong></p>","1",""
"","","","","","html-keyboard-response","104","249711","0.0-4.0-0.50","88","1","2022-10-07 08:47:11","d60b49b5908c80e163b920d72b52d584","39.144.82.80","Mozilla/5.0 (Macintosh; Intel Mac OS X 10_15_5) AppleWebKit/537.36 (KHTML, like Gecko) Chrome/105.0.0.0 Safari/537.36","Macintosh","Chrome","105.0.0.0","OS X","10_15_5","null","<div style=""font-size:60px;"">+</div>","null",""
"","","","","","html-button-response","105","252291","0.0-4.0-1.50","88","1","2022-10-07 08:47:11","d60b49b5908c80e163b920d72b52d584","39.144.82.80","Mozilla/5.0 (Macintosh; Intel Mac OS X 10_15_5) AppleWebKit/537.36 (KHTML, like Gecko) Chrome/105.0.0.0 Safari/537.36","Macintosh","Chrome","105.0.0.0","OS X","10_15_5","2576","<p>作为军队的指挥官，你可以选择发射导弹杀死 <strong>4名</strong> 敌国士兵，但会炸毁附近的 <strong>1棵</strong> 敌国树木。</p> <p>树木的照片如下图所示。</p> <p></p> <img src='stimuli/trees/14.png', style='max-width: 30%;'> </img> <p><strong>你是否选择发射武器？</strong></p>","0",""
"","","","","","html-keyboard-response","106","253296","0.0-4.0-0.51","88","1","2022-10-07 08:47:11","d60b49b5908c80e163b920d72b52d584","39.144.82.80","Mozilla/5.0 (Macintosh; Intel Mac OS X 10_15_5) AppleWebKit/537.36 (KHTML, like Gecko) Chrome/105.0.0.0 Safari/537.36","Macintosh","Chrome","105.0.0.0","OS X","10_15_5","null","<div style=""font-size:60px;"">+</div>","null",""
"","","","","","html-button-response","107","255014","0.0-4.0-1.51","88","1","2022-10-07 08:47:11","d60b49b5908c80e163b920d72b52d584","39.144.82.80","Mozilla/5.0 (Macintosh; Intel Mac OS X 10_15_5) AppleWebKit/537.36 (KHTML, like Gecko) Chrome/105.0.0.0 Safari/537.36","Macintosh","Chrome","105.0.0.0","OS X","10_15_5","1713","<p>作为军队的指挥官，你可以选择发射导弹杀死 <strong>5名</strong> 敌国士兵，但会误杀附近的 <strong>1名</strong> 敌国平民。</p> <p>平民照片如下图所示。</p> <p></p> <img src='stimuli/faces/NCF3.jpg', style='max-width: 30%;'> </img> <p><strong>你是否选择发射武器？</strong></p>","1",""
"","","","","","html-keyboard-response","108","256018","0.0-4.0-0.52","88","1","2022-10-07 08:47:11","d60b49b5908c80e163b920d72b52d584","39.144.82.80","Mozilla/5.0 (Macintosh; Intel Mac OS X 10_15_5) AppleWebKit/537.36 (KHTML, like Gecko) Chrome/105.0.0.0 Safari/537.36","Macintosh","Chrome","105.0.0.0","OS X","10_15_5","null","<div style=""font-size:60px;"">+</div>","null",""
"","","","","","html-button-response","109","257196","0.0-4.0-1.52","88","1","2022-10-07 08:47:11","d60b49b5908c80e163b920d72b52d584","39.144.82.80","Mozilla/5.0 (Macintosh; Intel Mac OS X 10_15_5) AppleWebKit/537.36 (KHTML, like Gecko) Chrome/105.0.0.0 Safari/537.36","Macintosh","Chrome","105.0.0.0","OS X","10_15_5","1174","<p>作为军队的指挥官，你可以选择发射导弹杀死 <strong>1名</strong> 敌国士兵，但会炸毁附近的 <strong>1棵</strong> 敌国树木。</p> <p>树木的照片如下图所示。</p> <p></p> <img src='stimuli/trees/11.png', style='max-width: 30%;'> </img> <p><strong>你是否选择发射武器？</strong></p>","0",""
"","","","","","html-keyboard-response","110","258201","0.0-4.0-0.53","88","1","2022-10-07 08:47:11","d60b49b5908c80e163b920d72b52d584","39.144.82.80","Mozilla/5.0 (Macintosh; Intel Mac OS X 10_15_5) AppleWebKit/537.36 (KHTML, like Gecko) Chrome/105.0.0.0 Safari/537.36","Macintosh","Chrome","105.0.0.0","OS X","10_15_5","null","<div style=""font-size:60px;"">+</div>","null",""
"","","","","","html-button-response","111","258951","0.0-4.0-1.53","88","1","2022-10-07 08:47:11","d60b49b5908c80e163b920d72b52d584","39.144.82.80","Mozilla/5.0 (Macintosh; Intel Mac OS X 10_15_5) AppleWebKit/537.36 (KHTML, like Gecko) Chrome/105.0.0.0 Safari/537.36","Macintosh","Chrome","105.0.0.0","OS X","10_15_5","746","<p>作为军队的指挥官，你可以选择发射导弹杀死 <strong>10名</strong> 敌国士兵，但会炸毁附近的 <strong>1棵</strong> 敌国树木。</p> <p>树木的照片如下图所示。</p> <p></p> <img src='stimuli/trees/2.png', style='max-width: 30%;'> </img> <p><strong>你是否选择发射武器？</strong></p>","0",""
"","","","","","html-keyboard-response","112","259956","0.0-4.0-0.54","88","1","2022-10-07 08:47:11","d60b49b5908c80e163b920d72b52d584","39.144.82.80","Mozilla/5.0 (Macintosh; Intel Mac OS X 10_15_5) AppleWebKit/537.36 (KHTML, like Gecko) Chrome/105.0.0.0 Safari/537.36","Macintosh","Chrome","105.0.0.0","OS X","10_15_5","null","<div style=""font-size:60px;"">+</div>","null",""
"","","","","","html-button-response","113","261741","0.0-4.0-1.54","88","1","2022-10-07 08:47:11","d60b49b5908c80e163b920d72b52d584","39.144.82.80","Mozilla/5.0 (Macintosh; Intel Mac OS X 10_15_5) AppleWebKit/537.36 (KHTML, like Gecko) Chrome/105.0.0.0 Safari/537.36","Macintosh","Chrome","105.0.0.0","OS X","10_15_5","1781","<p>作为军队的指挥官，你可以选择发射导弹杀死 <strong>2名</strong> 敌国士兵，但会炸毁附近的 <strong>1棵</strong> 敌国树木。</p> <p>树木的照片如下图所示。</p> <p></p> <img src='stimuli/trees/4.png', style='max-width: 30%;'> </img> <p><strong>你是否选择发射武器？</strong></p>","0",""
"","","","","","html-keyboard-response","114","262746","0.0-4.0-0.55","88","1","2022-10-07 08:47:11","d60b49b5908c80e163b920d72b52d584","39.144.82.80","Mozilla/5.0 (Macintosh; Intel Mac OS X 10_15_5) AppleWebKit/537.36 (KHTML, like Gecko) Chrome/105.0.0.0 Safari/537.36","Macintosh","Chrome","105.0.0.0","OS X","10_15_5","null","<div style=""font-size:60px;"">+</div>","null",""
"","","","","","html-button-response","115","263687","0.0-4.0-1.55","88","1","2022-10-07 08:47:11","d60b49b5908c80e163b920d72b52d584","39.144.82.80","Mozilla/5.0 (Macintosh; Intel Mac OS X 10_15_5) AppleWebKit/537.36 (KHTML, like Gecko) Chrome/105.0.0.0 Safari/537.36","Macintosh","Chrome","105.0.0.0","OS X","10_15_5","938","<p>作为军队的指挥官，你可以选择发射导弹杀死 <strong>9名</strong> 敌国士兵，但会误杀附近的 <strong>1名</strong> 敌国平民。</p> <p>平民照片如下图所示。</p> <p></p> <img src='stimuli/faces/NCF6.jpg', style='max-width: 30%;'> </img> <p><strong>你是否选择发射武器？</strong></p>","0",""
"","","","","","html-keyboard-response","116","264692","0.0-4.0-0.56","88","1","2022-10-07 08:47:11","d60b49b5908c80e163b920d72b52d584","39.144.82.80","Mozilla/5.0 (Macintosh; Intel Mac OS X 10_15_5) AppleWebKit/537.36 (KHTML, like Gecko) Chrome/105.0.0.0 Safari/537.36","Macintosh","Chrome","105.0.0.0","OS X","10_15_5","null","<div style=""font-size:60px;"">+</div>","null",""
"","","","","","html-button-response","117","265476","0.0-4.0-1.56","88","1","2022-10-07 08:47:11","d60b49b5908c80e163b920d72b52d584","39.144.82.80","Mozilla/5.0 (Macintosh; Intel Mac OS X 10_15_5) AppleWebKit/537.36 (KHTML, like Gecko) Chrome/105.0.0.0 Safari/537.36","Macintosh","Chrome","105.0.0.0","OS X","10_15_5","779","<p>作为军队的指挥官，你可以选择发射导弹杀死 <strong>9名</strong> 敌国士兵，但会炸毁附近的 <strong>1棵</strong> 敌国树木。</p> <p>树木的照片如下图所示。</p> <p></p> <img src='stimuli/trees/10.png', style='max-width: 30%;'> </img> <p><strong>你是否选择发射武器？</strong></p>","0",""
"","","","","","html-keyboard-response","118","266484","0.0-4.0-0.57","88","1","2022-10-07 08:47:11","d60b49b5908c80e163b920d72b52d584","39.144.82.80","Mozilla/5.0 (Macintosh; Intel Mac OS X 10_15_5) AppleWebKit/537.36 (KHTML, like Gecko) Chrome/105.0.0.0 Safari/537.36","Macintosh","Chrome","105.0.0.0","OS X","10_15_5","null","<div style=""font-size:60px;"">+</div>","null",""
"","","","","","html-button-response","119","267208","0.0-4.0-1.57","88","1","2022-10-07 08:47:11","d60b49b5908c80e163b920d72b52d584","39.144.82.80","Mozilla/5.0 (Macintosh; Intel Mac OS X 10_15_5) AppleWebKit/537.36 (KHTML, like Gecko) Chrome/105.0.0.0 Safari/537.36","Macintosh","Chrome","105.0.0.0","OS X","10_15_5","719","<p>作为军队的指挥官，你可以选择发射导弹杀死 <strong>10名</strong> 敌国士兵，但会炸毁附近的 <strong>1棵</strong> 敌国树木。</p> <p>树木的照片如下图所示。</p> <p></p> <img src='stimuli/trees/7.png', style='max-width: 30%;'> </img> <p><strong>你是否选择发射武器？</strong></p>","0",""
"","","","","","html-keyboard-response","120","268214","0.0-4.0-0.58","88","1","2022-10-07 08:47:11","d60b49b5908c80e163b920d72b52d584","39.144.82.80","Mozilla/5.0 (Macintosh; Intel Mac OS X 10_15_5) AppleWebKit/537.36 (KHTML, like Gecko) Chrome/105.0.0.0 Safari/537.36","Macintosh","Chrome","105.0.0.0","OS X","10_15_5","null","<div style=""font-size:60px;"">+</div>","null",""
"","","","","","html-button-response","121","269031","0.0-4.0-1.58","88","1","2022-10-07 08:47:11","d60b49b5908c80e163b920d72b52d584","39.144.82.80","Mozilla/5.0 (Macintosh; Intel Mac OS X 10_15_5) AppleWebKit/537.36 (KHTML, like Gecko) Chrome/105.0.0.0 Safari/537.36","Macintosh","Chrome","105.0.0.0","OS X","10_15_5","812","<p>作为军队的指挥官，你可以选择发射导弹杀死 <strong>2名</strong> 敌国士兵，但会炸毁附近的 <strong>1棵</strong> 敌国树木。</p> <p>树木的照片如下图所示。</p> <p></p> <img src='stimuli/trees/5.png', style='max-width: 30%;'> </img> <p><strong>你是否选择发射武器？</strong></p>","0",""
"","","","","","html-keyboard-response","122","270038","0.0-4.0-0.59","88","1","2022-10-07 08:47:11","d60b49b5908c80e163b920d72b52d584","39.144.82.80","Mozilla/5.0 (Macintosh; Intel Mac OS X 10_15_5) AppleWebKit/537.36 (KHTML, like Gecko) Chrome/105.0.0.0 Safari/537.36","Macintosh","Chrome","105.0.0.0","OS X","10_15_5","null","<div style=""font-size:60px;"">+</div>","null",""
"","","","","","html-button-response","123","271359","0.0-4.0-1.59","88","1","2022-10-07 08:47:11","d60b49b5908c80e163b920d72b52d584","39.144.82.80","Mozilla/5.0 (Macintosh; Intel Mac OS X 10_15_5) AppleWebKit/537.36 (KHTML, like Gecko) Chrome/105.0.0.0 Safari/537.36","Macintosh","Chrome","105.0.0.0","OS X","10_15_5","1317","<p>作为军队的指挥官，你可以选择发射导弹杀死 <strong>3名</strong> 敌国士兵，但会误杀附近的 <strong>1名</strong> 敌国平民。</p> <p>平民照片如下图所示。</p> <p></p> <img src='stimuli/faces/NCM8.jpg', style='max-width: 30%;'> </img> <p><strong>你是否选择发射武器？</strong></p>","1",""
"","","","","","html-keyboard-response","124","272364","0.0-4.0-0.60","88","1","2022-10-07 08:47:11","d60b49b5908c80e163b920d72b52d584","39.144.82.80","Mozilla/5.0 (Macintosh; Intel Mac OS X 10_15_5) AppleWebKit/537.36 (KHTML, like Gecko) Chrome/105.0.0.0 Safari/537.36","Macintosh","Chrome","105.0.0.0","OS X","10_15_5","null","<div style=""font-size:60px;"">+</div>","null",""
"","","","","","html-button-response","125","273419","0.0-4.0-1.60","88","1","2022-10-07 08:47:11","d60b49b5908c80e163b920d72b52d584","39.144.82.80","Mozilla/5.0 (Macintosh; Intel Mac OS X 10_15_5) AppleWebKit/537.36 (KHTML, like Gecko) Chrome/105.0.0.0 Safari/537.36","Macintosh","Chrome","105.0.0.0","OS X","10_15_5","1051","<p>作为军队的指挥官，你可以选择发射导弹杀死 <strong>7名</strong> 敌国士兵，但会炸毁附近的 <strong>1棵</strong> 敌国树木。</p> <p>树木的照片如下图所示。</p> <p></p> <img src='stimuli/trees/13.png', style='max-width: 30%;'> </img> <p><strong>你是否选择发射武器？</strong></p>","0",""
"","","","","","html-keyboard-response","126","274423","0.0-4.0-0.61","88","1","2022-10-07 08:47:11","d60b49b5908c80e163b920d72b52d584","39.144.82.80","Mozilla/5.0 (Macintosh; Intel Mac OS X 10_15_5) AppleWebKit/537.36 (KHTML, like Gecko) Chrome/105.0.0.0 Safari/537.36","Macintosh","Chrome","105.0.0.0","OS X","10_15_5","null","<div style=""font-size:60px;"">+</div>","null",""
"","","","","","html-button-response","127","275331","0.0-4.0-1.61","88","1","2022-10-07 08:47:11","d60b49b5908c80e163b920d72b52d584","39.144.82.80","Mozilla/5.0 (Macintosh; Intel Mac OS X 10_15_5) AppleWebKit/537.36 (KHTML, like Gecko) Chrome/105.0.0.0 Safari/537.36","Macintosh","Chrome","105.0.0.0","OS X","10_15_5","903","<p>作为军队的指挥官，你可以选择发射导弹杀死 <strong>4名</strong> 敌国士兵，但会炸毁附近的 <strong>1棵</strong> 敌国树木。</p> <p>树木的照片如下图所示。</p> <p></p> <img src='stimuli/trees/13.png', style='max-width: 30%;'> </img> <p><strong>你是否选择发射武器？</strong></p>","0",""
"","","","","","html-keyboard-response","128","276335","0.0-4.0-0.62","88","1","2022-10-07 08:47:11","d60b49b5908c80e163b920d72b52d584","39.144.82.80","Mozilla/5.0 (Macintosh; Intel Mac OS X 10_15_5) AppleWebKit/537.36 (KHTML, like Gecko) Chrome/105.0.0.0 Safari/537.36","Macintosh","Chrome","105.0.0.0","OS X","10_15_5","null","<div style=""font-size:60px;"">+</div>","null",""
"","","","","","html-button-response","129","277367","0.0-4.0-1.62","88","1","2022-10-07 08:47:11","d60b49b5908c80e163b920d72b52d584","39.144.82.80","Mozilla/5.0 (Macintosh; Intel Mac OS X 10_15_5) AppleWebKit/537.36 (KHTML, like Gecko) Chrome/105.0.0.0 Safari/537.36","Macintosh","Chrome","105.0.0.0","OS X","10_15_5","1028","<p>作为军队的指挥官，你可以选择发射导弹杀死 <strong>2名</strong> 敌国士兵，但会误杀附近的 <strong>1名</strong> 敌国平民。</p> <p>平民照片如下图所示。</p> <p></p> <img src='stimuli/faces/NCF1.jpg', style='max-width: 30%;'> </img> <p><strong>你是否选择发射武器？</strong></p>","1",""
"","","","","","html-keyboard-response","130","278371","0.0-4.0-0.63","88","1","2022-10-07 08:47:11","d60b49b5908c80e163b920d72b52d584","39.144.82.80","Mozilla/5.0 (Macintosh; Intel Mac OS X 10_15_5) AppleWebKit/537.36 (KHTML, like Gecko) Chrome/105.0.0.0 Safari/537.36","Macintosh","Chrome","105.0.0.0","OS X","10_15_5","null","<div style=""font-size:60px;"">+</div>","null",""
"","","","","","html-button-response","131","280922","0.0-4.0-1.63","88","1","2022-10-07 08:47:11","d60b49b5908c80e163b920d72b52d584","39.144.82.80","Mozilla/5.0 (Macintosh; Intel Mac OS X 10_15_5) AppleWebKit/537.36 (KHTML, like Gecko) Chrome/105.0.0.0 Safari/537.36","Macintosh","Chrome","105.0.0.0","OS X","10_15_5","2547","<p>作为军队的指挥官，你可以选择发射导弹杀死 <strong>10名</strong> 敌国士兵，但会炸毁附近的 <strong>1棵</strong> 敌国树木。</p> <p>树木的照片如下图所示。</p> <p></p> <img src='stimuli/trees/12.png', style='max-width: 30%;'> </img> <p><strong>你是否选择发射武器？</strong></p>","0",""
"","","","","","survey-multi-choice","132","284691","0.0-5.0","88","1","2022-10-07 08:47:11","d60b49b5908c80e163b920d72b52d584","39.144.82.80","Mozilla/5.0 (Macintosh; Intel Mac OS X 10_15_5) AppleWebKit/537.36 (KHTML, like Gecko) Chrome/105.0.0.0 Safari/537.36","Macintosh","Chrome","105.0.0.0","OS X","10_15_5","3761","","{""Attention1"":""""}","[0]"
"","","","","","html-button-response","133","336697","0.0-6.0","88","1","2022-10-07 08:47:11","d60b49b5908c80e163b920d72b52d584","39.144.82.80","Mozilla/5.0 (Macintosh; Intel Mac OS X 10_15_5) AppleWebKit/537.36 (KHTML, like Gecko) Chrome/105.0.0.0 Safari/537.36","Macintosh","Chrome","105.0.0.0","OS X","10_15_5","51998","<p style=""font-size:20px;font-weight:bold;"">恭喜！</p><p>你已经完成了实验的第一部分。</p><p>请休息放松一下，然后进入第二部分。</p><p>这部分大约需要10分钟。</p>","0",""
"","","","","","survey-text","134","389628","0.0-7.0","88","1","2022-10-07 08:47:11","d60b49b5908c80e163b920d72b52d584","39.144.82.80","Mozilla/5.0 (Macintosh; Intel Mac OS X 10_15_5) AppleWebKit/537.36 (KHTML, like Gecko) Chrome/105.0.0.0 Safari/537.36","Macintosh","Chrome","105.0.0.0","OS X","10_15_5","51918","","{""Age"":""26"",""Nation"":""中国"",""Born"":""河北省唐山市"",""Live"":""河北省唐山市"",""Ethnic"":""汉族"",""Alipay"":""15632536031""}",""
"","","","","","survey-multi-choice","135","425774","0.0-8.0","88","1","2022-10-07 08:47:11","d60b49b5908c80e163b920d72b52d584","39.144.82.80","Mozilla/5.0 (Macintosh; Intel Mac OS X 10_15_5) AppleWebKit/537.36 (KHTML, like Gecko) Chrome/105.0.0.0 Safari/537.36","Macintosh","Chrome","105.0.0.0","OS X","10_15_5","36141","","{""Gender"":""女"",""Education"":""硕士研究生毕业"",""Income"":""￥700,000-￥874,999"",""Children"":""0"",""Race"":""亚洲人""}","[0,1,2,3,4]"
"","","","","","survey-multi-select","136","438721","0.0-9.0","88","1","2022-10-07 08:47:11","d60b49b5908c80e163b920d72b52d584","39.144.82.80","Mozilla/5.0 (Macintosh; Intel Mac OS X 10_15_5) AppleWebKit/537.36 (KHTML, like Gecko) Chrome/105.0.0.0 Safari/537.36","Macintosh","Chrome","105.0.0.0","OS X","10_15_5","12931","","{""Marriage"":[""未婚""],""Religion"":[""无宗教信仰""]}","[0,1]"
"","","","","","survey-multi-choice","137","446438","0.0-10.0","88","1","2022-10-07 08:47:11","d60b49b5908c80e163b920d72b52d584","39.144.82.80","Mozilla/5.0 (Macintosh; Intel Mac OS X 10_15_5) AppleWebKit/537.36 (KHTML, like Gecko) Chrome/105.0.0.0 Safari/537.36","Macintosh","Chrome","105.0.0.0","OS X","10_15_5","7710","","{""SES"":""7""}","[0]"
"","","","","","html-button-response","138","448744","0.0-11.0","88","1","2022-10-07 08:47:11","d60b49b5908c80e163b920d72b52d584","39.144.82.80","Mozilla/5.0 (Macintosh; Intel Mac OS X 10_15_5) AppleWebKit/537.36 (KHTML, like Gecko) Chrome/105.0.0.0 Safari/537.36","Macintosh","Chrome","105.0.0.0","OS X","10_15_5","2300","<p><strong>请判断下列陈述在多大程度上可以形容你？</p><p> (1 = ""和我一点都不像"" to 5 = ""非常像我"".)</strong></p>","0",""
"","","","","","survey-likert","139","491978","0.0-12.0","88","1","2022-10-07 08:47:11","d60b49b5908c80e163b920d72b52d584","39.144.82.80","Mozilla/5.0 (Macintosh; Intel Mac OS X 10_15_5) AppleWebKit/537.36 (KHTML, like Gecko) Chrome/105.0.0.0 Safari/537.36","Macintosh","Chrome","105.0.0.0","OS X","10_15_5","43227","","{""Aggression1"":0,""Aggression2"":0,""Aggression3"":4,""Aggression4"":0,""Aggression5"":2,""Aggression6"":3,""Aggression7"":4,""Aggression8"":0,""Aggression9"":0}","[0,1,2,3,4,5,6,7,8]"
"","","","","","html-button-response","140","528650","0.0-13.0","88","1","2022-10-07 08:47:11","d60b49b5908c80e163b920d72b52d584","39.144.82.80","Mozilla/5.0 (Macintosh; Intel Mac OS X 10_15_5) AppleWebKit/537.36 (KHTML, like Gecko) Chrome/105.0.0.0 Safari/537.36","Macintosh","Chrome","105.0.0.0","OS X","10_15_5","36666","<p><strong>请判断你在多大程度上同意下列陈述。</strong></p>","0",""
"","","","","","survey-likert","141","845015","0.0-14.0","88","1","2022-10-07 08:47:11","d60b49b5908c80e163b920d72b52d584","39.144.82.80","Mozilla/5.0 (Macintosh; Intel Mac OS X 10_15_5) AppleWebKit/537.36 (KHTML, like Gecko) Chrome/105.0.0.0 Safari/537.36","Macintosh","Chrome","105.0.0.0","OS X","10_15_5","316331","","{""scale26"":1,""scale12"":3,""scale3"":2,""scale10"":2,""scale13"":2,""scale5"":1,""scale6"":3,""scale8"":2,""scale23"":1,""scale11"":3,""scale25"":2,""scale20"":1,""scale17"":2,""scale28"":3,""scale15"":3,""scale21"":2,""scale18"":2,""scale24"":0,""scale2"":1,""scale1"":0,""scale9"":1,""scale16"":0,""scale22"":1,""scale4"":3,""scale27"":1,""scale14"":2,""scale7"":3,""scale19"":3}","[25,11,2,9,12,4,5,7,22,10,24,19,16,27,14,20,17,23,1,0,8,15,21,3,26,13,6,18]"
"","","","","","html-button-response","142","846327","0.0-15.0","88","1","2022-10-07 08:47:11","d60b49b5908c80e163b920d72b52d584","39.144.82.80","Mozilla/5.0 (Macintosh; Intel Mac OS X 10_15_5) AppleWebKit/537.36 (KHTML, like Gecko) Chrome/105.0.0.0 Safari/537.36","Macintosh","Chrome","105.0.0.0","OS X","10_15_5","1306","<p><strong>请判断你在多大程度上同意下列陈述。</strong></p>","0",""
"","","","","","survey-likert","143","952381","0.0-16.0","88","1","2022-10-07 08:47:11","d60b49b5908c80e163b920d72b52d584","39.144.82.80","Mozilla/5.0 (Macintosh; Intel Mac OS X 10_15_5) AppleWebKit/537.36 (KHTML, like Gecko) Chrome/105.0.0.0 Safari/537.36","Macintosh","Chrome","105.0.0.0","OS X","10_15_5","106044","","{""sdo12"":4,""sdo15"":1,""sdo7"":2,""sdo14"":4,""sdo9"":1,""sdo13"":4,""sdo4"":1,""sdo2"":2,""sdo6"":4,""sdo3"":5,""sdo16"":6,""sdo1"":4,""sdo11"":2,""sdo8"":5,""sdo10"":2,""sdo5"":4}","[11,14,6,13,8,12,3,1,5,2,15,0,10,7,9,4]"
"","","","","","html-button-response","144","954010","0.0-17.0","88","1","2022-10-07 08:47:11","d60b49b5908c80e163b920d72b52d584","39.144.82.80","Mozilla/5.0 (Macintosh; Intel Mac OS X 10_15_5) AppleWebKit/537.36 (KHTML, like Gecko) Chrome/105.0.0.0 Safari/537.36","Macintosh","Chrome","105.0.0.0","OS X","10_15_5","1624","<p><strong>请判断你在多大程度上同意下列陈述。</strong></p>","0",""
"","","","","","survey-likert","145","1055620","0.0-18.0","88","1","2022-10-07 08:47:11","d60b49b5908c80e163b920d72b52d584","39.144.82.80","Mozilla/5.0 (Macintosh; Intel Mac OS X 10_15_5) AppleWebKit/537.36 (KHTML, like Gecko) Chrome/105.0.0.0 Safari/537.36","Macintosh","Chrome","105.0.0.0","OS X","10_15_5","101600","","{""caring1"":2,""liking1"":1,""caring2"":3,""protection1"":1,""liking2"":1,""caring3"":3,""protection2"":0,""liking3"":3,""protection3"":3,""caring4"":3,""liking4"":2,""protection4"":3,""caring5"":2,""liking5"":0,""protection5"":3}","[0,1,2,3,4,5,6,7,8,9,10,11,12,13,14]"
"","","","","","html-button-response","146","1091291","0.0-19.0","88","1","2022-10-07 08:47:11","d60b49b5908c80e163b920d72b52d584","39.144.82.80","Mozilla/5.0 (Macintosh; Intel Mac OS X 10_15_5) AppleWebKit/537.36 (KHTML, like Gecko) Chrome/105.0.0.0 Safari/537.36","Macintosh","Chrome","105.0.0.0","OS X","10_15_5","35665","<p><strong>请判断下列场景中你的内心感受有多柔软。</strong></p>","0",""
"","","","","","survey-likert","147","1188299","0.0-20.0","88","1","2022-10-07 08:47:11","d60b49b5908c80e163b920d72b52d584","39.144.82.80","Mozilla/5.0 (Macintosh; Intel Mac OS X 10_15_5) AppleWebKit/537.36 (KHTML, like Gecko) Chrome/105.0.0.0 Safari/537.36","Macintosh","Chrome","105.0.0.0","OS X","10_15_5","96999","","{""tenderness-positive1"":3,""tenderness-negative1"":3,""tenderness-negative2"":0,""tenderness-positive2"":4,""tenderness-positive3"":3,""tenderness-negative3"":1,""tenderness-positive4"":4,""tendereness-negative4"":3,""tendernness-negative5"":3,""tenderness-positive5"":4}","[0,1,2,3,4,5,6,7,8,9]"
"","","","","","survey-multi-choice","148","1192145","0.0-21.0","88","1","2022-10-07 08:47:11","d60b49b5908c80e163b920d72b52d584","39.144.82.80","Mozilla/5.0 (Macintosh; Intel Mac OS X 10_15_5) AppleWebKit/537.36 (KHTML, like Gecko) Chrome/105.0.0.0 Safari/537.36","Macintosh","Chrome","105.0.0.0","OS X","10_15_5","3840","","{""Attention2"":""其他""}","[0]"
"","","","","","html-button-response","149","1193304","0.0-22.0","88","1","2022-10-07 08:47:11","d60b49b5908c80e163b920d72b52d584","39.144.82.80","Mozilla/5.0 (Macintosh; Intel Mac OS X 10_15_5) AppleWebKit/537.36 (KHTML, like Gecko) Chrome/105.0.0.0 Safari/537.36","Macintosh","Chrome","105.0.0.0","OS X","10_15_5","1151","<p><strong>请判断你在多大程度上同意下列陈述。</strong></p>","0",""
"","","","","","survey-likert","150","1420300","0.0-23.0","88","1","2022-10-07 08:47:11","d60b49b5908c80e163b920d72b52d584","39.144.82.80","Mozilla/5.0 (Macintosh; Intel Mac OS X 10_15_5) AppleWebKit/537.36 (KHTML, like Gecko) Chrome/105.0.0.0 Safari/537.36","Macintosh","Chrome","105.0.0.0","OS X","10_15_5","226953","","{""Patri6"":0,""Patri4"":3,""Patri7"":4,""Patri1"":4,""Nation6"":2,""Patri11"":0,""Nation4"":1,""Patri9"":0,""Nation3"":3,""Nation1"":3,""Patri12"":1,""Patri3"":3,""Patri5"":4,""Nation2"":4,""Nation5"":1,""Nation7"":4,""Nation8"":2,""Patri2"":4,""Patri10"":0,""Patri8"":4}","[5,3,6,0,17,10,15,8,14,12,11,2,4,13,16,18,19,1,9,7]"
"","","","","","html-button-response","151","1430130","0.0-24.0","88","1","2022-10-07 08:47:11","d60b49b5908c80e163b920d72b52d584","39.144.82.80","Mozilla/5.0 (Macintosh; Intel Mac OS X 10_15_5) AppleWebKit/537.36 (KHTML, like Gecko) Chrome/105.0.0.0 Safari/537.36","Macintosh","Chrome","105.0.0.0","OS X","10_15_5","9822","<p><strong>请判断你在多大程度上同意下列陈述。</strong></p>","0",""
"","","","","","survey-likert","152","1522820","0.0-25.0","88","1","2022-10-07 08:47:11","d60b49b5908c80e163b920d72b52d584","39.144.82.80","Mozilla/5.0 (Macintosh; Intel Mac OS X 10_15_5) AppleWebKit/537.36 (KHTML, like Gecko) Chrome/105.0.0.0 Safari/537.36","Macintosh","Chrome","105.0.0.0","OS X","10_15_5","92680","","{""Robot"":6,""vc1"":8,""hi1"":7,""hi2"":7,""hc1"":8,""hc2"":7,""hc3"":7,""vc2"":6,""hi3"":1,""vi3"":8,""vi1"":6,""vc4"":7,""hc4"":7,""vc3"":8,""vi4"":5,""vi2"":1,""hi4"":7}","[7,13,0,1,9,10,11,14,2,6,4,16,12,15,8,5,3]"
"","","","","","survey-text","153","1573957","0.0-26.0","88","1","2022-10-07 08:47:11","d60b49b5908c80e163b920d72b52d584","39.144.82.80","Mozilla/5.0 (Macintosh; Intel Mac OS X 10_15_5) AppleWebKit/537.36 (KHTML, like Gecko) Chrome/105.0.0.0 Safari/537.36","Macintosh","Chrome","105.0.0.0","OS X","10_15_5","51124","","{""Comments"":""无""}",""
"","","","","","html-button-response","154","1575540","0.0-27.0","88","1","2022-10-07 08:47:11","d60b49b5908c80e163b920d72b52d584","39.144.82.80","Mozilla/5.0 (Macintosh; Intel Mac OS X 10_15_5) AppleWebKit/537.36 (KHTML, like Gecko) Chrome/105.0.0.0 Safari/537.36","Macintosh","Chrome","105.0.0.0","OS X","10_15_5","1578","<strong><p>恭喜你完成了实验！</p><p>感谢您的参与。</p></strong>","0",""
