"success","timeout","failed_images","failed_audio","failed_video","trial_type","trial_index","time_elapsed","internal_node_id","run_id","condition","recorded_at","source_code_version","ip","user_agent","device","browser","browser_version","platform","platform_version","rt","stimulus","response","question_order"
"true","false","[]","[]","[]","preload","0","3358","0.0-0.0","89","1","2022-10-07 08:57:19","d60b49b5908c80e163b920d72b52d584","27.189.211.25","Mozilla/5.0 (Windows; U; Windows NT 5.2; en-US) AppleWebKit/537.36 (KHTML, like Gecko) Safari/537.36 VivoBrowser/11.5.10.0 Chrome/87.0.4280.141","WebKit","Chrome","87.0.4280.141","Windows","5.2","","","",""
"true","","","","","fullscreen","1","7405","0.0-1.0","89","1","2022-10-07 08:57:19","d60b49b5908c80e163b920d72b52d584","27.189.211.25","Mozilla/5.0 (Windows; U; Windows NT 5.2; en-US) AppleWebKit/537.36 (KHTML, like Gecko) Safari/537.36 VivoBrowser/11.5.10.0 Chrome/87.0.4280.141","WebKit","Chrome","87.0.4280.141","Windows","5.2","","","",""
"","","","","","html-button-response","2","12293","0.0-2.0","89","1","2022-10-07 08:57:19","d60b49b5908c80e163b920d72b52d584","27.189.211.25","Mozilla/5.0 (Windows; U; Windows NT 5.2; en-US) AppleWebKit/537.36 (KHTML, like Gecko) Safari/537.36 VivoBrowser/11.5.10.0 Chrome/87.0.4280.141","WebKit","Chrome","87.0.4280.141","Windows","5.2","4874","<p style=""font-size:20px;font-weight:bold;"">实验知情同意书</p><p style=""text-align:left;""><strong>实验名称：</strong>社会冲突研究</p><p style=""text-align:left;""><strong>主要研究者：</strong>韩晓春副教授（北京师范大学心理学部）</p><p style=""text-align:left;""><strong>联系方式：</strong>发送邮件至xiaochun.han@bnu.edu.cn</p><p style=""text-align:left;""><strong>研究目的：</strong>研究旨在了解人类面对群体冲突时的决策方式，以及相关的心理学特质。实验调查大约需要20分钟。</p><p style=""text-align:left;""><strong>实验流程：</strong>实验包含两部分。第一部分呈现一系列群体冲突场景，请你决定如何对这些冲突进行反应，大约需要10分钟完成。第二部分包含一系列人口统计学信息收集和心理学问卷，大约需要10分钟完成。</p><p style=""text-align:left;""><strong>参加及退出规则：</strong>参加本实验完全取决于您的个人意愿。在参与过程中，您可以随时退出，并且不用承担任何后果。</p><p style=""text-align:left;""><strong>隐私：</strong>本实验完全匿名进行，不会收集您的姓名或其他能够识别您身份的信息。实验中收集的作答仅用作科学研究使用，可能会在学术期刊/书籍上发表，或者用于教学，您的数据未来可能会和其他研究者或实验室分享，但您的个人身份不会被识别。</p><p style=""text-align:left;""><strong>实验报酬：</strong>实验完成后，您将获得15元人民币报酬，以感谢您的时间和努力。调查问卷中包含几道题目用以测验您作答时的认真度。只有完成全部实验，并且正确回答认真度测验的被试才能获得实验报酬。实验报酬将通过支付宝转账发放。</p><p style=""text-align:left;font-size:20px;""><strong>如果您同意以上实验知情同意书的内容，请点击'同意并且开始实验'按钮；否则请关闭浏览器界面，退出实验。</strong></p>","0",""
"","","","","","html-button-response","3","25761","0.0-3.0","89","1","2022-10-07 08:57:19","d60b49b5908c80e163b920d72b52d584","27.189.211.25","Mozilla/5.0 (Windows; U; Windows NT 5.2; en-US) AppleWebKit/537.36 (KHTML, like Gecko) Safari/537.36 VivoBrowser/11.5.10.0 Chrome/87.0.4280.141","WebKit","Chrome","87.0.4280.141","Windows","5.2","13456","<p ><strong>实验任务一：</strong></p><p>请想象你的国家与另一个国家发生了军事冲突。</p><p>你是国家军队的指挥官，你将如何在冲突中进行决策。</p><p>具体来说，作为军队指挥官，请你决定是否发射导弹进行打击。</p><p>接下来，你会面对一系列场景，请仔细阅读每个场景，然后进行决策。</p><p>这部分实验任务大约需要10分钟。</p><p><strong>实验过程中，请集中注意力。</strong></p>","0",""
"","","","","","html-keyboard-response","4","26772","0.0-4.0-0.0","89","1","2022-10-07 08:57:19","d60b49b5908c80e163b920d72b52d584","27.189.211.25","Mozilla/5.0 (Windows; U; Windows NT 5.2; en-US) AppleWebKit/537.36 (KHTML, like Gecko) Safari/537.36 VivoBrowser/11.5.10.0 Chrome/87.0.4280.141","WebKit","Chrome","87.0.4280.141","Windows","5.2","null","<div style=""font-size:60px;"">+</div>","null",""
"","","","","","html-button-response","5","39112","0.0-4.0-1.0","89","1","2022-10-07 08:57:19","d60b49b5908c80e163b920d72b52d584","27.189.211.25","Mozilla/5.0 (Windows; U; Windows NT 5.2; en-US) AppleWebKit/537.36 (KHTML, like Gecko) Safari/537.36 VivoBrowser/11.5.10.0 Chrome/87.0.4280.141","WebKit","Chrome","87.0.4280.141","Windows","5.2","12314","<p>作为军队的指挥官，你可以选择发射导弹杀死 <strong>7名</strong> 敌国士兵，但会炸毁附近的 <strong>1棵</strong> 敌国树木。</p> <p>树木的照片如下图所示。</p> <p></p> <img src='stimuli/trees/16.png', style='max-width: 30%;'> </img> <p><strong>你是否选择发射武器？</strong></p>","0",""
"","","","","","html-keyboard-response","6","40127","0.0-4.0-0.1","89","1","2022-10-07 08:57:19","d60b49b5908c80e163b920d72b52d584","27.189.211.25","Mozilla/5.0 (Windows; U; Windows NT 5.2; en-US) AppleWebKit/537.36 (KHTML, like Gecko) Safari/537.36 VivoBrowser/11.5.10.0 Chrome/87.0.4280.141","WebKit","Chrome","87.0.4280.141","Windows","5.2","null","<div style=""font-size:60px;"">+</div>","null",""
"","","","","","html-button-response","7","46202","0.0-4.0-1.1","89","1","2022-10-07 08:57:19","d60b49b5908c80e163b920d72b52d584","27.189.211.25","Mozilla/5.0 (Windows; U; Windows NT 5.2; en-US) AppleWebKit/537.36 (KHTML, like Gecko) Safari/537.36 VivoBrowser/11.5.10.0 Chrome/87.0.4280.141","WebKit","Chrome","87.0.4280.141","Windows","5.2","6065","<p>作为军队的指挥官，你可以选择发射导弹杀死 <strong>7名</strong> 敌国士兵，但会误杀附近的 <strong>1名</strong> 敌国平民。</p> <p>平民照片如下图所示。</p> <p></p> <img src='stimuli/faces/NCF4.jpg', style='max-width: 30%;'> </img> <p><strong>你是否选择发射武器？</strong></p>","1",""
"","","","","","html-keyboard-response","8","47208","0.0-4.0-0.2","89","1","2022-10-07 08:57:19","d60b49b5908c80e163b920d72b52d584","27.189.211.25","Mozilla/5.0 (Windows; U; Windows NT 5.2; en-US) AppleWebKit/537.36 (KHTML, like Gecko) Safari/537.36 VivoBrowser/11.5.10.0 Chrome/87.0.4280.141","WebKit","Chrome","87.0.4280.141","Windows","5.2","null","<div style=""font-size:60px;"">+</div>","null",""
"","","","","","html-button-response","9","49989","0.0-4.0-1.2","89","1","2022-10-07 08:57:19","d60b49b5908c80e163b920d72b52d584","27.189.211.25","Mozilla/5.0 (Windows; U; Windows NT 5.2; en-US) AppleWebKit/537.36 (KHTML, like Gecko) Safari/537.36 VivoBrowser/11.5.10.0 Chrome/87.0.4280.141","WebKit","Chrome","87.0.4280.141","Windows","5.2","2758","<p>作为军队的指挥官，你可以选择发射导弹杀死 <strong>8名</strong> 敌国士兵，但会炸毁附近的 <strong>1棵</strong> 敌国树木。</p> <p>树木的照片如下图所示。</p> <p></p> <img src='stimuli/trees/11.png', style='max-width: 30%;'> </img> <p><strong>你是否选择发射武器？</strong></p>","0",""
"","","","","","html-keyboard-response","10","50998","0.0-4.0-0.3","89","1","2022-10-07 08:57:19","d60b49b5908c80e163b920d72b52d584","27.189.211.25","Mozilla/5.0 (Windows; U; Windows NT 5.2; en-US) AppleWebKit/537.36 (KHTML, like Gecko) Safari/537.36 VivoBrowser/11.5.10.0 Chrome/87.0.4280.141","WebKit","Chrome","87.0.4280.141","Windows","5.2","null","<div style=""font-size:60px;"">+</div>","null",""
"","","","","","html-button-response","11","54286","0.0-4.0-1.3","89","1","2022-10-07 08:57:19","d60b49b5908c80e163b920d72b52d584","27.189.211.25","Mozilla/5.0 (Windows; U; Windows NT 5.2; en-US) AppleWebKit/537.36 (KHTML, like Gecko) Safari/537.36 VivoBrowser/11.5.10.0 Chrome/87.0.4280.141","WebKit","Chrome","87.0.4280.141","Windows","5.2","3249","<p>作为军队的指挥官，你可以选择发射导弹杀死 <strong>8名</strong> 敌国士兵，但会炸毁附近的 <strong>1棵</strong> 敌国树木。</p> <p>树木的照片如下图所示。</p> <p></p> <img src='stimuli/trees/9.png', style='max-width: 30%;'> </img> <p><strong>你是否选择发射武器？</strong></p>","0",""
"","","","","","html-keyboard-response","12","55298","0.0-4.0-0.4","89","1","2022-10-07 08:57:19","d60b49b5908c80e163b920d72b52d584","27.189.211.25","Mozilla/5.0 (Windows; U; Windows NT 5.2; en-US) AppleWebKit/537.36 (KHTML, like Gecko) Safari/537.36 VivoBrowser/11.5.10.0 Chrome/87.0.4280.141","WebKit","Chrome","87.0.4280.141","Windows","5.2","null","<div style=""font-size:60px;"">+</div>","null",""
"","","","","","html-button-response","13","56985","0.0-4.0-1.4","89","1","2022-10-07 08:57:19","d60b49b5908c80e163b920d72b52d584","27.189.211.25","Mozilla/5.0 (Windows; U; Windows NT 5.2; en-US) AppleWebKit/537.36 (KHTML, like Gecko) Safari/537.36 VivoBrowser/11.5.10.0 Chrome/87.0.4280.141","WebKit","Chrome","87.0.4280.141","Windows","5.2","1673","<p>作为军队的指挥官，你可以选择发射导弹杀死 <strong>2名</strong> 敌国士兵，但会炸毁附近的 <strong>1棵</strong> 敌国树木。</p> <p>树木的照片如下图所示。</p> <p></p> <img src='stimuli/trees/10.png', style='max-width: 30%;'> </img> <p><strong>你是否选择发射武器？</strong></p>","0",""
"","","","","","html-keyboard-response","14","57997","0.0-4.0-0.5","89","1","2022-10-07 08:57:19","d60b49b5908c80e163b920d72b52d584","27.189.211.25","Mozilla/5.0 (Windows; U; Windows NT 5.2; en-US) AppleWebKit/537.36 (KHTML, like Gecko) Safari/537.36 VivoBrowser/11.5.10.0 Chrome/87.0.4280.141","WebKit","Chrome","87.0.4280.141","Windows","5.2","null","<div style=""font-size:60px;"">+</div>","null",""
"","","","","","html-button-response","15","60939","0.0-4.0-1.5","89","1","2022-10-07 08:57:19","d60b49b5908c80e163b920d72b52d584","27.189.211.25","Mozilla/5.0 (Windows; U; Windows NT 5.2; en-US) AppleWebKit/537.36 (KHTML, like Gecko) Safari/537.36 VivoBrowser/11.5.10.0 Chrome/87.0.4280.141","WebKit","Chrome","87.0.4280.141","Windows","5.2","2915","<p>作为军队的指挥官，你可以选择发射导弹杀死 <strong>4名</strong> 敌国士兵，但会炸毁附近的 <strong>1棵</strong> 敌国树木。</p> <p>树木的照片如下图所示。</p> <p></p> <img src='stimuli/trees/8.png', style='max-width: 30%;'> </img> <p><strong>你是否选择发射武器？</strong></p>","0",""
"","","","","","html-keyboard-response","16","61954","0.0-4.0-0.6","89","1","2022-10-07 08:57:19","d60b49b5908c80e163b920d72b52d584","27.189.211.25","Mozilla/5.0 (Windows; U; Windows NT 5.2; en-US) AppleWebKit/537.36 (KHTML, like Gecko) Safari/537.36 VivoBrowser/11.5.10.0 Chrome/87.0.4280.141","WebKit","Chrome","87.0.4280.141","Windows","5.2","null","<div style=""font-size:60px;"">+</div>","null",""
"","","","","","html-button-response","17","63673","0.0-4.0-1.6","89","1","2022-10-07 08:57:19","d60b49b5908c80e163b920d72b52d584","27.189.211.25","Mozilla/5.0 (Windows; U; Windows NT 5.2; en-US) AppleWebKit/537.36 (KHTML, like Gecko) Safari/537.36 VivoBrowser/11.5.10.0 Chrome/87.0.4280.141","WebKit","Chrome","87.0.4280.141","Windows","5.2","1554","<p>作为军队的指挥官，你可以选择发射导弹杀死 <strong>8名</strong> 敌国士兵，但会炸毁附近的 <strong>1棵</strong> 敌国树木。</p> <p>树木的照片如下图所示。</p> <p></p> <img src='stimuli/trees/13.png', style='max-width: 30%;'> </img> <p><strong>你是否选择发射武器？</strong></p>","0",""
"","","","","","html-keyboard-response","18","64680","0.0-4.0-0.7","89","1","2022-10-07 08:57:19","d60b49b5908c80e163b920d72b52d584","27.189.211.25","Mozilla/5.0 (Windows; U; Windows NT 5.2; en-US) AppleWebKit/537.36 (KHTML, like Gecko) Safari/537.36 VivoBrowser/11.5.10.0 Chrome/87.0.4280.141","WebKit","Chrome","87.0.4280.141","Windows","5.2","null","<div style=""font-size:60px;"">+</div>","null",""
"","","","","","html-button-response","19","67076","0.0-4.0-1.7","89","1","2022-10-07 08:57:19","d60b49b5908c80e163b920d72b52d584","27.189.211.25","Mozilla/5.0 (Windows; U; Windows NT 5.2; en-US) AppleWebKit/537.36 (KHTML, like Gecko) Safari/537.36 VivoBrowser/11.5.10.0 Chrome/87.0.4280.141","WebKit","Chrome","87.0.4280.141","Windows","5.2","2374","<p>作为军队的指挥官，你可以选择发射导弹杀死 <strong>1名</strong> 敌国士兵，但会炸毁附近的 <strong>1棵</strong> 敌国树木。</p> <p>树木的照片如下图所示。</p> <p></p> <img src='stimuli/trees/1.png', style='max-width: 30%;'> </img> <p><strong>你是否选择发射武器？</strong></p>","1",""
"","","","","","html-keyboard-response","20","68084","0.0-4.0-0.8","89","1","2022-10-07 08:57:19","d60b49b5908c80e163b920d72b52d584","27.189.211.25","Mozilla/5.0 (Windows; U; Windows NT 5.2; en-US) AppleWebKit/537.36 (KHTML, like Gecko) Safari/537.36 VivoBrowser/11.5.10.0 Chrome/87.0.4280.141","WebKit","Chrome","87.0.4280.141","Windows","5.2","null","<div style=""font-size:60px;"">+</div>","null",""
"","","","","","html-button-response","21","71113","0.0-4.0-1.8","89","1","2022-10-07 08:57:19","d60b49b5908c80e163b920d72b52d584","27.189.211.25","Mozilla/5.0 (Windows; U; Windows NT 5.2; en-US) AppleWebKit/537.36 (KHTML, like Gecko) Safari/537.36 VivoBrowser/11.5.10.0 Chrome/87.0.4280.141","WebKit","Chrome","87.0.4280.141","Windows","5.2","3006","<p>作为军队的指挥官，你可以选择发射导弹杀死 <strong>3名</strong> 敌国士兵，但会误杀附近的 <strong>1名</strong> 敌国平民。</p> <p>平民照片如下图所示。</p> <p></p> <img src='stimuli/faces/NCM7.jpg', style='max-width: 30%;'> </img> <p><strong>你是否选择发射武器？</strong></p>","1",""
"","","","","","html-keyboard-response","22","72133","0.0-4.0-0.9","89","1","2022-10-07 08:57:19","d60b49b5908c80e163b920d72b52d584","27.189.211.25","Mozilla/5.0 (Windows; U; Windows NT 5.2; en-US) AppleWebKit/537.36 (KHTML, like Gecko) Safari/537.36 VivoBrowser/11.5.10.0 Chrome/87.0.4280.141","WebKit","Chrome","87.0.4280.141","Windows","5.2","null","<div style=""font-size:60px;"">+</div>","null",""
"","","","","","html-button-response","23","73743","0.0-4.0-1.9","89","1","2022-10-07 08:57:19","d60b49b5908c80e163b920d72b52d584","27.189.211.25","Mozilla/5.0 (Windows; U; Windows NT 5.2; en-US) AppleWebKit/537.36 (KHTML, like Gecko) Safari/537.36 VivoBrowser/11.5.10.0 Chrome/87.0.4280.141","WebKit","Chrome","87.0.4280.141","Windows","5.2","1590","<p>作为军队的指挥官，你可以选择发射导弹杀死 <strong>10名</strong> 敌国士兵，但会误杀附近的 <strong>1名</strong> 敌国平民。</p> <p>平民照片如下图所示。</p> <p></p> <img src='stimuli/faces/NCM7.jpg', style='max-width: 30%;'> </img> <p><strong>你是否选择发射武器？</strong></p>","0",""
"","","","","","html-keyboard-response","24","74760","0.0-4.0-0.10","89","1","2022-10-07 08:57:19","d60b49b5908c80e163b920d72b52d584","27.189.211.25","Mozilla/5.0 (Windows; U; Windows NT 5.2; en-US) AppleWebKit/537.36 (KHTML, like Gecko) Safari/537.36 VivoBrowser/11.5.10.0 Chrome/87.0.4280.141","WebKit","Chrome","87.0.4280.141","Windows","5.2","null","<div style=""font-size:60px;"">+</div>","null",""
"","","","","","html-button-response","25","76445","0.0-4.0-1.10","89","1","2022-10-07 08:57:19","d60b49b5908c80e163b920d72b52d584","27.189.211.25","Mozilla/5.0 (Windows; U; Windows NT 5.2; en-US) AppleWebKit/537.36 (KHTML, like Gecko) Safari/537.36 VivoBrowser/11.5.10.0 Chrome/87.0.4280.141","WebKit","Chrome","87.0.4280.141","Windows","5.2","1664","<p>作为军队的指挥官，你可以选择发射导弹杀死 <strong>8名</strong> 敌国士兵，但会炸毁附近的 <strong>1棵</strong> 敌国树木。</p> <p>树木的照片如下图所示。</p> <p></p> <img src='stimuli/trees/8.png', style='max-width: 30%;'> </img> <p><strong>你是否选择发射武器？</strong></p>","0",""
"","","","","","html-keyboard-response","26","77458","0.0-4.0-0.11","89","1","2022-10-07 08:57:19","d60b49b5908c80e163b920d72b52d584","27.189.211.25","Mozilla/5.0 (Windows; U; Windows NT 5.2; en-US) AppleWebKit/537.36 (KHTML, like Gecko) Safari/537.36 VivoBrowser/11.5.10.0 Chrome/87.0.4280.141","WebKit","Chrome","87.0.4280.141","Windows","5.2","null","<div style=""font-size:60px;"">+</div>","null",""
"","","","","","html-button-response","27","79384","0.0-4.0-1.11","89","1","2022-10-07 08:57:19","d60b49b5908c80e163b920d72b52d584","27.189.211.25","Mozilla/5.0 (Windows; U; Windows NT 5.2; en-US) AppleWebKit/537.36 (KHTML, like Gecko) Safari/537.36 VivoBrowser/11.5.10.0 Chrome/87.0.4280.141","WebKit","Chrome","87.0.4280.141","Windows","5.2","1915","<p>作为军队的指挥官，你可以选择发射导弹杀死 <strong>1名</strong> 敌国士兵，但会误杀附近的 <strong>1名</strong> 敌国平民。</p> <p>平民照片如下图所示。</p> <p></p> <img src='stimuli/faces/NCF5.jpg', style='max-width: 30%;'> </img> <p><strong>你是否选择发射武器？</strong></p>","1",""
"","","","","","html-keyboard-response","28","80397","0.0-4.0-0.12","89","1","2022-10-07 08:57:19","d60b49b5908c80e163b920d72b52d584","27.189.211.25","Mozilla/5.0 (Windows; U; Windows NT 5.2; en-US) AppleWebKit/537.36 (KHTML, like Gecko) Safari/537.36 VivoBrowser/11.5.10.0 Chrome/87.0.4280.141","WebKit","Chrome","87.0.4280.141","Windows","5.2","null","<div style=""font-size:60px;"">+</div>","null",""
"","","","","","html-button-response","29","82554","0.0-4.0-1.12","89","1","2022-10-07 08:57:19","d60b49b5908c80e163b920d72b52d584","27.189.211.25","Mozilla/5.0 (Windows; U; Windows NT 5.2; en-US) AppleWebKit/537.36 (KHTML, like Gecko) Safari/537.36 VivoBrowser/11.5.10.0 Chrome/87.0.4280.141","WebKit","Chrome","87.0.4280.141","Windows","5.2","2145","<p>作为军队的指挥官，你可以选择发射导弹杀死 <strong>6名</strong> 敌国士兵，但会误杀附近的 <strong>1名</strong> 敌国平民。</p> <p>平民照片如下图所示。</p> <p></p> <img src='stimuli/faces/NCM1.jpg', style='max-width: 30%;'> </img> <p><strong>你是否选择发射武器？</strong></p>","1",""
"","","","","","html-keyboard-response","30","83570","0.0-4.0-0.13","89","1","2022-10-07 08:57:19","d60b49b5908c80e163b920d72b52d584","27.189.211.25","Mozilla/5.0 (Windows; U; Windows NT 5.2; en-US) AppleWebKit/537.36 (KHTML, like Gecko) Safari/537.36 VivoBrowser/11.5.10.0 Chrome/87.0.4280.141","WebKit","Chrome","87.0.4280.141","Windows","5.2","null","<div style=""font-size:60px;"">+</div>","null",""
"","","","","","html-button-response","31","85251","0.0-4.0-1.13","89","1","2022-10-07 08:57:19","d60b49b5908c80e163b920d72b52d584","27.189.211.25","Mozilla/5.0 (Windows; U; Windows NT 5.2; en-US) AppleWebKit/537.36 (KHTML, like Gecko) Safari/537.36 VivoBrowser/11.5.10.0 Chrome/87.0.4280.141","WebKit","Chrome","87.0.4280.141","Windows","5.2","1665","<p>作为军队的指挥官，你可以选择发射导弹杀死 <strong>7名</strong> 敌国士兵，但会误杀附近的 <strong>1名</strong> 敌国平民。</p> <p>平民照片如下图所示。</p> <p></p> <img src='stimuli/faces/NCM2.jpg', style='max-width: 30%;'> </img> <p><strong>你是否选择发射武器？</strong></p>","1",""
"","","","","","html-keyboard-response","32","86258","0.0-4.0-0.14","89","1","2022-10-07 08:57:19","d60b49b5908c80e163b920d72b52d584","27.189.211.25","Mozilla/5.0 (Windows; U; Windows NT 5.2; en-US) AppleWebKit/537.36 (KHTML, like Gecko) Safari/537.36 VivoBrowser/11.5.10.0 Chrome/87.0.4280.141","WebKit","Chrome","87.0.4280.141","Windows","5.2","null","<div style=""font-size:60px;"">+</div>","null",""
"","","","","","html-button-response","33","88197","0.0-4.0-1.14","89","1","2022-10-07 08:57:19","d60b49b5908c80e163b920d72b52d584","27.189.211.25","Mozilla/5.0 (Windows; U; Windows NT 5.2; en-US) AppleWebKit/537.36 (KHTML, like Gecko) Safari/537.36 VivoBrowser/11.5.10.0 Chrome/87.0.4280.141","WebKit","Chrome","87.0.4280.141","Windows","5.2","1927","<p>作为军队的指挥官，你可以选择发射导弹杀死 <strong>4名</strong> 敌国士兵，但会炸毁附近的 <strong>1棵</strong> 敌国树木。</p> <p>树木的照片如下图所示。</p> <p></p> <img src='stimuli/trees/7.png', style='max-width: 30%;'> </img> <p><strong>你是否选择发射武器？</strong></p>","0",""
"","","","","","html-keyboard-response","34","89206","0.0-4.0-0.15","89","1","2022-10-07 08:57:19","d60b49b5908c80e163b920d72b52d584","27.189.211.25","Mozilla/5.0 (Windows; U; Windows NT 5.2; en-US) AppleWebKit/537.36 (KHTML, like Gecko) Safari/537.36 VivoBrowser/11.5.10.0 Chrome/87.0.4280.141","WebKit","Chrome","87.0.4280.141","Windows","5.2","null","<div style=""font-size:60px;"">+</div>","null",""
"","","","","","html-button-response","35","90437","0.0-4.0-1.15","89","1","2022-10-07 08:57:19","d60b49b5908c80e163b920d72b52d584","27.189.211.25","Mozilla/5.0 (Windows; U; Windows NT 5.2; en-US) AppleWebKit/537.36 (KHTML, like Gecko) Safari/537.36 VivoBrowser/11.5.10.0 Chrome/87.0.4280.141","WebKit","Chrome","87.0.4280.141","Windows","5.2","1222","<p>作为军队的指挥官，你可以选择发射导弹杀死 <strong>1名</strong> 敌国士兵，但会炸毁附近的 <strong>1棵</strong> 敌国树木。</p> <p>树木的照片如下图所示。</p> <p></p> <img src='stimuli/trees/15.png', style='max-width: 30%;'> </img> <p><strong>你是否选择发射武器？</strong></p>","1",""
"","","","","","html-keyboard-response","36","91444","0.0-4.0-0.16","89","1","2022-10-07 08:57:19","d60b49b5908c80e163b920d72b52d584","27.189.211.25","Mozilla/5.0 (Windows; U; Windows NT 5.2; en-US) AppleWebKit/537.36 (KHTML, like Gecko) Safari/537.36 VivoBrowser/11.5.10.0 Chrome/87.0.4280.141","WebKit","Chrome","87.0.4280.141","Windows","5.2","null","<div style=""font-size:60px;"">+</div>","null",""
"","","","","","html-button-response","37","93642","0.0-4.0-1.16","89","1","2022-10-07 08:57:19","d60b49b5908c80e163b920d72b52d584","27.189.211.25","Mozilla/5.0 (Windows; U; Windows NT 5.2; en-US) AppleWebKit/537.36 (KHTML, like Gecko) Safari/537.36 VivoBrowser/11.5.10.0 Chrome/87.0.4280.141","WebKit","Chrome","87.0.4280.141","Windows","5.2","2189","<p>作为军队的指挥官，你可以选择发射导弹杀死 <strong>9名</strong> 敌国士兵，但会炸毁附近的 <strong>1棵</strong> 敌国树木。</p> <p>树木的照片如下图所示。</p> <p></p> <img src='stimuli/trees/14.png', style='max-width: 30%;'> </img> <p><strong>你是否选择发射武器？</strong></p>","0",""
"","","","","","html-keyboard-response","38","94650","0.0-4.0-0.17","89","1","2022-10-07 08:57:19","d60b49b5908c80e163b920d72b52d584","27.189.211.25","Mozilla/5.0 (Windows; U; Windows NT 5.2; en-US) AppleWebKit/537.36 (KHTML, like Gecko) Safari/537.36 VivoBrowser/11.5.10.0 Chrome/87.0.4280.141","WebKit","Chrome","87.0.4280.141","Windows","5.2","null","<div style=""font-size:60px;"">+</div>","null",""
"","","","","","html-button-response","39","96669","0.0-4.0-1.17","89","1","2022-10-07 08:57:19","d60b49b5908c80e163b920d72b52d584","27.189.211.25","Mozilla/5.0 (Windows; U; Windows NT 5.2; en-US) AppleWebKit/537.36 (KHTML, like Gecko) Safari/537.36 VivoBrowser/11.5.10.0 Chrome/87.0.4280.141","WebKit","Chrome","87.0.4280.141","Windows","5.2","2007","<p>作为军队的指挥官，你可以选择发射导弹杀死 <strong>6名</strong> 敌国士兵，但会误杀附近的 <strong>1名</strong> 敌国平民。</p> <p>平民照片如下图所示。</p> <p></p> <img src='stimuli/faces/NCF1.jpg', style='max-width: 30%;'> </img> <p><strong>你是否选择发射武器？</strong></p>","1",""
"","","","","","html-keyboard-response","40","97680","0.0-4.0-0.18","89","1","2022-10-07 08:57:19","d60b49b5908c80e163b920d72b52d584","27.189.211.25","Mozilla/5.0 (Windows; U; Windows NT 5.2; en-US) AppleWebKit/537.36 (KHTML, like Gecko) Safari/537.36 VivoBrowser/11.5.10.0 Chrome/87.0.4280.141","WebKit","Chrome","87.0.4280.141","Windows","5.2","null","<div style=""font-size:60px;"">+</div>","null",""
"","","","","","html-button-response","41","98879","0.0-4.0-1.18","89","1","2022-10-07 08:57:19","d60b49b5908c80e163b920d72b52d584","27.189.211.25","Mozilla/5.0 (Windows; U; Windows NT 5.2; en-US) AppleWebKit/537.36 (KHTML, like Gecko) Safari/537.36 VivoBrowser/11.5.10.0 Chrome/87.0.4280.141","WebKit","Chrome","87.0.4280.141","Windows","5.2","1189","<p>作为军队的指挥官，你可以选择发射导弹杀死 <strong>10名</strong> 敌国士兵，但会误杀附近的 <strong>1名</strong> 敌国平民。</p> <p>平民照片如下图所示。</p> <p></p> <img src='stimuli/faces/NCF3.jpg', style='max-width: 30%;'> </img> <p><strong>你是否选择发射武器？</strong></p>","0",""
"","","","","","html-keyboard-response","42","99888","0.0-4.0-0.19","89","1","2022-10-07 08:57:19","d60b49b5908c80e163b920d72b52d584","27.189.211.25","Mozilla/5.0 (Windows; U; Windows NT 5.2; en-US) AppleWebKit/537.36 (KHTML, like Gecko) Safari/537.36 VivoBrowser/11.5.10.0 Chrome/87.0.4280.141","WebKit","Chrome","87.0.4280.141","Windows","5.2","null","<div style=""font-size:60px;"">+</div>","null",""
"","","","","","html-button-response","43","101458","0.0-4.0-1.19","89","1","2022-10-07 08:57:19","d60b49b5908c80e163b920d72b52d584","27.189.211.25","Mozilla/5.0 (Windows; U; Windows NT 5.2; en-US) AppleWebKit/537.36 (KHTML, like Gecko) Safari/537.36 VivoBrowser/11.5.10.0 Chrome/87.0.4280.141","WebKit","Chrome","87.0.4280.141","Windows","5.2","1545","<p>作为军队的指挥官，你可以选择发射导弹杀死 <strong>3名</strong> 敌国士兵，但会炸毁附近的 <strong>1棵</strong> 敌国树木。</p> <p>树木的照片如下图所示。</p> <p></p> <img src='stimuli/trees/14.png', style='max-width: 30%;'> </img> <p><strong>你是否选择发射武器？</strong></p>","0",""
"","","","","","html-keyboard-response","44","102468","0.0-4.0-0.20","89","1","2022-10-07 08:57:19","d60b49b5908c80e163b920d72b52d584","27.189.211.25","Mozilla/5.0 (Windows; U; Windows NT 5.2; en-US) AppleWebKit/537.36 (KHTML, like Gecko) Safari/537.36 VivoBrowser/11.5.10.0 Chrome/87.0.4280.141","WebKit","Chrome","87.0.4280.141","Windows","5.2","null","<div style=""font-size:60px;"">+</div>","null",""
"","","","","","html-button-response","45","103708","0.0-4.0-1.20","89","1","2022-10-07 08:57:19","d60b49b5908c80e163b920d72b52d584","27.189.211.25","Mozilla/5.0 (Windows; U; Windows NT 5.2; en-US) AppleWebKit/537.36 (KHTML, like Gecko) Safari/537.36 VivoBrowser/11.5.10.0 Chrome/87.0.4280.141","WebKit","Chrome","87.0.4280.141","Windows","5.2","1210","<p>作为军队的指挥官，你可以选择发射导弹杀死 <strong>2名</strong> 敌国士兵，但会误杀附近的 <strong>1名</strong> 敌国平民。</p> <p>平民照片如下图所示。</p> <p></p> <img src='stimuli/faces/NCF4.jpg', style='max-width: 30%;'> </img> <p><strong>你是否选择发射武器？</strong></p>","1",""
"","","","","","html-keyboard-response","46","104720","0.0-4.0-0.21","89","1","2022-10-07 08:57:19","d60b49b5908c80e163b920d72b52d584","27.189.211.25","Mozilla/5.0 (Windows; U; Windows NT 5.2; en-US) AppleWebKit/537.36 (KHTML, like Gecko) Safari/537.36 VivoBrowser/11.5.10.0 Chrome/87.0.4280.141","WebKit","Chrome","87.0.4280.141","Windows","5.2","null","<div style=""font-size:60px;"">+</div>","null",""
"","","","","","html-button-response","47","106340","0.0-4.0-1.21","89","1","2022-10-07 08:57:19","d60b49b5908c80e163b920d72b52d584","27.189.211.25","Mozilla/5.0 (Windows; U; Windows NT 5.2; en-US) AppleWebKit/537.36 (KHTML, like Gecko) Safari/537.36 VivoBrowser/11.5.10.0 Chrome/87.0.4280.141","WebKit","Chrome","87.0.4280.141","Windows","5.2","1607","<p>作为军队的指挥官，你可以选择发射导弹杀死 <strong>4名</strong> 敌国士兵，但会误杀附近的 <strong>1名</strong> 敌国平民。</p> <p>平民照片如下图所示。</p> <p></p> <img src='stimuli/faces/NCM8.jpg', style='max-width: 30%;'> </img> <p><strong>你是否选择发射武器？</strong></p>","1",""
"","","","","","html-keyboard-response","48","107357","0.0-4.0-0.22","89","1","2022-10-07 08:57:19","d60b49b5908c80e163b920d72b52d584","27.189.211.25","Mozilla/5.0 (Windows; U; Windows NT 5.2; en-US) AppleWebKit/537.36 (KHTML, like Gecko) Safari/537.36 VivoBrowser/11.5.10.0 Chrome/87.0.4280.141","WebKit","Chrome","87.0.4280.141","Windows","5.2","null","<div style=""font-size:60px;"">+</div>","null",""
"","","","","","html-button-response","49","108583","0.0-4.0-1.22","89","1","2022-10-07 08:57:19","d60b49b5908c80e163b920d72b52d584","27.189.211.25","Mozilla/5.0 (Windows; U; Windows NT 5.2; en-US) AppleWebKit/537.36 (KHTML, like Gecko) Safari/537.36 VivoBrowser/11.5.10.0 Chrome/87.0.4280.141","WebKit","Chrome","87.0.4280.141","Windows","5.2","1194","<p>作为军队的指挥官，你可以选择发射导弹杀死 <strong>5名</strong> 敌国士兵，但会炸毁附近的 <strong>1棵</strong> 敌国树木。</p> <p>树木的照片如下图所示。</p> <p></p> <img src='stimuli/trees/13.png', style='max-width: 30%;'> </img> <p><strong>你是否选择发射武器？</strong></p>","0",""
"","","","","","html-keyboard-response","50","109599","0.0-4.0-0.23","89","1","2022-10-07 08:57:19","d60b49b5908c80e163b920d72b52d584","27.189.211.25","Mozilla/5.0 (Windows; U; Windows NT 5.2; en-US) AppleWebKit/537.36 (KHTML, like Gecko) Safari/537.36 VivoBrowser/11.5.10.0 Chrome/87.0.4280.141","WebKit","Chrome","87.0.4280.141","Windows","5.2","null","<div style=""font-size:60px;"">+</div>","null",""
"","","","","","html-button-response","51","110680","0.0-4.0-1.23","89","1","2022-10-07 08:57:19","d60b49b5908c80e163b920d72b52d584","27.189.211.25","Mozilla/5.0 (Windows; U; Windows NT 5.2; en-US) AppleWebKit/537.36 (KHTML, like Gecko) Safari/537.36 VivoBrowser/11.5.10.0 Chrome/87.0.4280.141","WebKit","Chrome","87.0.4280.141","Windows","5.2","1056","<p>作为军队的指挥官，你可以选择发射导弹杀死 <strong>7名</strong> 敌国士兵，但会炸毁附近的 <strong>1棵</strong> 敌国树木。</p> <p>树木的照片如下图所示。</p> <p></p> <img src='stimuli/trees/3.png', style='max-width: 30%;'> </img> <p><strong>你是否选择发射武器？</strong></p>","0",""
"","","","","","html-keyboard-response","52","111693","0.0-4.0-0.24","89","1","2022-10-07 08:57:19","d60b49b5908c80e163b920d72b52d584","27.189.211.25","Mozilla/5.0 (Windows; U; Windows NT 5.2; en-US) AppleWebKit/537.36 (KHTML, like Gecko) Safari/537.36 VivoBrowser/11.5.10.0 Chrome/87.0.4280.141","WebKit","Chrome","87.0.4280.141","Windows","5.2","null","<div style=""font-size:60px;"">+</div>","null",""
"","","","","","html-button-response","53","112810","0.0-4.0-1.24","89","1","2022-10-07 08:57:19","d60b49b5908c80e163b920d72b52d584","27.189.211.25","Mozilla/5.0 (Windows; U; Windows NT 5.2; en-US) AppleWebKit/537.36 (KHTML, like Gecko) Safari/537.36 VivoBrowser/11.5.10.0 Chrome/87.0.4280.141","WebKit","Chrome","87.0.4280.141","Windows","5.2","1085","<p>作为军队的指挥官，你可以选择发射导弹杀死 <strong>2名</strong> 敌国士兵，但会误杀附近的 <strong>1名</strong> 敌国平民。</p> <p>平民照片如下图所示。</p> <p></p> <img src='stimuli/faces/NCF8.jpg', style='max-width: 30%;'> </img> <p><strong>你是否选择发射武器？</strong></p>","1",""
"","","","","","html-keyboard-response","54","113823","0.0-4.0-0.25","89","1","2022-10-07 08:57:19","d60b49b5908c80e163b920d72b52d584","27.189.211.25","Mozilla/5.0 (Windows; U; Windows NT 5.2; en-US) AppleWebKit/537.36 (KHTML, like Gecko) Safari/537.36 VivoBrowser/11.5.10.0 Chrome/87.0.4280.141","WebKit","Chrome","87.0.4280.141","Windows","5.2","null","<div style=""font-size:60px;"">+</div>","null",""
"","","","","","html-button-response","55","115051","0.0-4.0-1.25","89","1","2022-10-07 08:57:19","d60b49b5908c80e163b920d72b52d584","27.189.211.25","Mozilla/5.0 (Windows; U; Windows NT 5.2; en-US) AppleWebKit/537.36 (KHTML, like Gecko) Safari/537.36 VivoBrowser/11.5.10.0 Chrome/87.0.4280.141","WebKit","Chrome","87.0.4280.141","Windows","5.2","1200","<p>作为军队的指挥官，你可以选择发射导弹杀死 <strong>6名</strong> 敌国士兵，但会误杀附近的 <strong>1名</strong> 敌国平民。</p> <p>平民照片如下图所示。</p> <p></p> <img src='stimuli/faces/NCF2.jpg', style='max-width: 30%;'> </img> <p><strong>你是否选择发射武器？</strong></p>","0",""
"","","","","","html-keyboard-response","56","116076","0.0-4.0-0.26","89","1","2022-10-07 08:57:19","d60b49b5908c80e163b920d72b52d584","27.189.211.25","Mozilla/5.0 (Windows; U; Windows NT 5.2; en-US) AppleWebKit/537.36 (KHTML, like Gecko) Safari/537.36 VivoBrowser/11.5.10.0 Chrome/87.0.4280.141","WebKit","Chrome","87.0.4280.141","Windows","5.2","null","<div style=""font-size:60px;"">+</div>","null",""
"","","","","","html-button-response","57","117155","0.0-4.0-1.26","89","1","2022-10-07 08:57:19","d60b49b5908c80e163b920d72b52d584","27.189.211.25","Mozilla/5.0 (Windows; U; Windows NT 5.2; en-US) AppleWebKit/537.36 (KHTML, like Gecko) Safari/537.36 VivoBrowser/11.5.10.0 Chrome/87.0.4280.141","WebKit","Chrome","87.0.4280.141","Windows","5.2","1055","<p>作为军队的指挥官，你可以选择发射导弹杀死 <strong>10名</strong> 敌国士兵，但会炸毁附近的 <strong>1棵</strong> 敌国树木。</p> <p>树木的照片如下图所示。</p> <p></p> <img src='stimuli/trees/7.png', style='max-width: 30%;'> </img> <p><strong>你是否选择发射武器？</strong></p>","0",""
"","","","","","html-keyboard-response","58","118167","0.0-4.0-0.27","89","1","2022-10-07 08:57:19","d60b49b5908c80e163b920d72b52d584","27.189.211.25","Mozilla/5.0 (Windows; U; Windows NT 5.2; en-US) AppleWebKit/537.36 (KHTML, like Gecko) Safari/537.36 VivoBrowser/11.5.10.0 Chrome/87.0.4280.141","WebKit","Chrome","87.0.4280.141","Windows","5.2","null","<div style=""font-size:60px;"">+</div>","null",""
"","","","","","html-button-response","59","119239","0.0-4.0-1.27","89","1","2022-10-07 08:57:19","d60b49b5908c80e163b920d72b52d584","27.189.211.25","Mozilla/5.0 (Windows; U; Windows NT 5.2; en-US) AppleWebKit/537.36 (KHTML, like Gecko) Safari/537.36 VivoBrowser/11.5.10.0 Chrome/87.0.4280.141","WebKit","Chrome","87.0.4280.141","Windows","5.2","1038","<p>作为军队的指挥官，你可以选择发射导弹杀死 <strong>9名</strong> 敌国士兵，但会误杀附近的 <strong>1名</strong> 敌国平民。</p> <p>平民照片如下图所示。</p> <p></p> <img src='stimuli/faces/NCF6.jpg', style='max-width: 30%;'> </img> <p><strong>你是否选择发射武器？</strong></p>","0",""
"","","","","","html-keyboard-response","60","120261","0.0-4.0-0.28","89","1","2022-10-07 08:57:19","d60b49b5908c80e163b920d72b52d584","27.189.211.25","Mozilla/5.0 (Windows; U; Windows NT 5.2; en-US) AppleWebKit/537.36 (KHTML, like Gecko) Safari/537.36 VivoBrowser/11.5.10.0 Chrome/87.0.4280.141","WebKit","Chrome","87.0.4280.141","Windows","5.2","null","<div style=""font-size:60px;"">+</div>","null",""
"","","","","","html-button-response","61","121705","0.0-4.0-1.28","89","1","2022-10-07 08:57:19","d60b49b5908c80e163b920d72b52d584","27.189.211.25","Mozilla/5.0 (Windows; U; Windows NT 5.2; en-US) AppleWebKit/537.36 (KHTML, like Gecko) Safari/537.36 VivoBrowser/11.5.10.0 Chrome/87.0.4280.141","WebKit","Chrome","87.0.4280.141","Windows","5.2","1413","<p>作为军队的指挥官，你可以选择发射导弹杀死 <strong>5名</strong> 敌国士兵，但会炸毁附近的 <strong>1棵</strong> 敌国树木。</p> <p>树木的照片如下图所示。</p> <p></p> <img src='stimuli/trees/11.png', style='max-width: 30%;'> </img> <p><strong>你是否选择发射武器？</strong></p>","0",""
"","","","","","html-keyboard-response","62","122722","0.0-4.0-0.29","89","1","2022-10-07 08:57:19","d60b49b5908c80e163b920d72b52d584","27.189.211.25","Mozilla/5.0 (Windows; U; Windows NT 5.2; en-US) AppleWebKit/537.36 (KHTML, like Gecko) Safari/537.36 VivoBrowser/11.5.10.0 Chrome/87.0.4280.141","WebKit","Chrome","87.0.4280.141","Windows","5.2","null","<div style=""font-size:60px;"">+</div>","null",""
"","","","","","html-button-response","63","123842","0.0-4.0-1.29","89","1","2022-10-07 08:57:19","d60b49b5908c80e163b920d72b52d584","27.189.211.25","Mozilla/5.0 (Windows; U; Windows NT 5.2; en-US) AppleWebKit/537.36 (KHTML, like Gecko) Safari/537.36 VivoBrowser/11.5.10.0 Chrome/87.0.4280.141","WebKit","Chrome","87.0.4280.141","Windows","5.2","1094","<p>作为军队的指挥官，你可以选择发射导弹杀死 <strong>9名</strong> 敌国士兵，但会误杀附近的 <strong>1名</strong> 敌国平民。</p> <p>平民照片如下图所示。</p> <p></p> <img src='stimuli/faces/NCM5.jpg', style='max-width: 30%;'> </img> <p><strong>你是否选择发射武器？</strong></p>","0",""
"","","","","","html-keyboard-response","64","124885","0.0-4.0-0.30","89","1","2022-10-07 08:57:19","d60b49b5908c80e163b920d72b52d584","27.189.211.25","Mozilla/5.0 (Windows; U; Windows NT 5.2; en-US) AppleWebKit/537.36 (KHTML, like Gecko) Safari/537.36 VivoBrowser/11.5.10.0 Chrome/87.0.4280.141","WebKit","Chrome","87.0.4280.141","Windows","5.2","null","<div style=""font-size:60px;"">+</div>","null",""
"","","","","","html-button-response","65","125898","0.0-4.0-1.30","89","1","2022-10-07 08:57:19","d60b49b5908c80e163b920d72b52d584","27.189.211.25","Mozilla/5.0 (Windows; U; Windows NT 5.2; en-US) AppleWebKit/537.36 (KHTML, like Gecko) Safari/537.36 VivoBrowser/11.5.10.0 Chrome/87.0.4280.141","WebKit","Chrome","87.0.4280.141","Windows","5.2","999","<p>作为军队的指挥官，你可以选择发射导弹杀死 <strong>2名</strong> 敌国士兵，但会误杀附近的 <strong>1名</strong> 敌国平民。</p> <p>平民照片如下图所示。</p> <p></p> <img src='stimuli/faces/NCF7.jpg', style='max-width: 30%;'> </img> <p><strong>你是否选择发射武器？</strong></p>","1",""
"","","","","","html-keyboard-response","66","126920","0.0-4.0-0.31","89","1","2022-10-07 08:57:19","d60b49b5908c80e163b920d72b52d584","27.189.211.25","Mozilla/5.0 (Windows; U; Windows NT 5.2; en-US) AppleWebKit/537.36 (KHTML, like Gecko) Safari/537.36 VivoBrowser/11.5.10.0 Chrome/87.0.4280.141","WebKit","Chrome","87.0.4280.141","Windows","5.2","null","<div style=""font-size:60px;"">+</div>","null",""
"","","","","","html-button-response","67","128326","0.0-4.0-1.31","89","1","2022-10-07 08:57:19","d60b49b5908c80e163b920d72b52d584","27.189.211.25","Mozilla/5.0 (Windows; U; Windows NT 5.2; en-US) AppleWebKit/537.36 (KHTML, like Gecko) Safari/537.36 VivoBrowser/11.5.10.0 Chrome/87.0.4280.141","WebKit","Chrome","87.0.4280.141","Windows","5.2","1370","<p>作为军队的指挥官，你可以选择发射导弹杀死 <strong>3名</strong> 敌国士兵，但会误杀附近的 <strong>1名</strong> 敌国平民。</p> <p>平民照片如下图所示。</p> <p></p> <img src='stimuli/faces/NCM1.jpg', style='max-width: 30%;'> </img> <p><strong>你是否选择发射武器？</strong></p>","1",""
"","","","","","html-keyboard-response","68","129344","0.0-4.0-0.32","89","1","2022-10-07 08:57:19","d60b49b5908c80e163b920d72b52d584","27.189.211.25","Mozilla/5.0 (Windows; U; Windows NT 5.2; en-US) AppleWebKit/537.36 (KHTML, like Gecko) Safari/537.36 VivoBrowser/11.5.10.0 Chrome/87.0.4280.141","WebKit","Chrome","87.0.4280.141","Windows","5.2","null","<div style=""font-size:60px;"">+</div>","null",""
"","","","","","html-button-response","69","130578","0.0-4.0-1.32","89","1","2022-10-07 08:57:19","d60b49b5908c80e163b920d72b52d584","27.189.211.25","Mozilla/5.0 (Windows; U; Windows NT 5.2; en-US) AppleWebKit/537.36 (KHTML, like Gecko) Safari/537.36 VivoBrowser/11.5.10.0 Chrome/87.0.4280.141","WebKit","Chrome","87.0.4280.141","Windows","5.2","1202","<p>作为军队的指挥官，你可以选择发射导弹杀死 <strong>4名</strong> 敌国士兵，但会误杀附近的 <strong>1名</strong> 敌国平民。</p> <p>平民照片如下图所示。</p> <p></p> <img src='stimuli/faces/NCM2.jpg', style='max-width: 30%;'> </img> <p><strong>你是否选择发射武器？</strong></p>","1",""
"","","","","","html-keyboard-response","70","131602","0.0-4.0-0.33","89","1","2022-10-07 08:57:19","d60b49b5908c80e163b920d72b52d584","27.189.211.25","Mozilla/5.0 (Windows; U; Windows NT 5.2; en-US) AppleWebKit/537.36 (KHTML, like Gecko) Safari/537.36 VivoBrowser/11.5.10.0 Chrome/87.0.4280.141","WebKit","Chrome","87.0.4280.141","Windows","5.2","null","<div style=""font-size:60px;"">+</div>","null",""
"","","","","","html-button-response","71","132864","0.0-4.0-1.33","89","1","2022-10-07 08:57:19","d60b49b5908c80e163b920d72b52d584","27.189.211.25","Mozilla/5.0 (Windows; U; Windows NT 5.2; en-US) AppleWebKit/537.36 (KHTML, like Gecko) Safari/537.36 VivoBrowser/11.5.10.0 Chrome/87.0.4280.141","WebKit","Chrome","87.0.4280.141","Windows","5.2","1237","<p>作为军队的指挥官，你可以选择发射导弹杀死 <strong>5名</strong> 敌国士兵，但会炸毁附近的 <strong>1棵</strong> 敌国树木。</p> <p>树木的照片如下图所示。</p> <p></p> <img src='stimuli/trees/2.png', style='max-width: 30%;'> </img> <p><strong>你是否选择发射武器？</strong></p>","0",""
"","","","","","html-keyboard-response","72","133884","0.0-4.0-0.34","89","1","2022-10-07 08:57:19","d60b49b5908c80e163b920d72b52d584","27.189.211.25","Mozilla/5.0 (Windows; U; Windows NT 5.2; en-US) AppleWebKit/537.36 (KHTML, like Gecko) Safari/537.36 VivoBrowser/11.5.10.0 Chrome/87.0.4280.141","WebKit","Chrome","87.0.4280.141","Windows","5.2","null","<div style=""font-size:60px;"">+</div>","null",""
"","","","","","html-button-response","73","135847","0.0-4.0-1.34","89","1","2022-10-07 08:57:19","d60b49b5908c80e163b920d72b52d584","27.189.211.25","Mozilla/5.0 (Windows; U; Windows NT 5.2; en-US) AppleWebKit/537.36 (KHTML, like Gecko) Safari/537.36 VivoBrowser/11.5.10.0 Chrome/87.0.4280.141","WebKit","Chrome","87.0.4280.141","Windows","5.2","1930","<p>作为军队的指挥官，你可以选择发射导弹杀死 <strong>6名</strong> 敌国士兵，但会误杀附近的 <strong>1名</strong> 敌国平民。</p> <p>平民照片如下图所示。</p> <p></p> <img src='stimuli/faces/NCM4.jpg', style='max-width: 30%;'> </img> <p><strong>你是否选择发射武器？</strong></p>","1",""
"","","","","","html-keyboard-response","74","136865","0.0-4.0-0.35","89","1","2022-10-07 08:57:19","d60b49b5908c80e163b920d72b52d584","27.189.211.25","Mozilla/5.0 (Windows; U; Windows NT 5.2; en-US) AppleWebKit/537.36 (KHTML, like Gecko) Safari/537.36 VivoBrowser/11.5.10.0 Chrome/87.0.4280.141","WebKit","Chrome","87.0.4280.141","Windows","5.2","null","<div style=""font-size:60px;"">+</div>","null",""
"","","","","","html-button-response","75","137832","0.0-4.0-1.35","89","1","2022-10-07 08:57:19","d60b49b5908c80e163b920d72b52d584","27.189.211.25","Mozilla/5.0 (Windows; U; Windows NT 5.2; en-US) AppleWebKit/537.36 (KHTML, like Gecko) Safari/537.36 VivoBrowser/11.5.10.0 Chrome/87.0.4280.141","WebKit","Chrome","87.0.4280.141","Windows","5.2","932","<p>作为军队的指挥官，你可以选择发射导弹杀死 <strong>9名</strong> 敌国士兵，但会误杀附近的 <strong>1名</strong> 敌国平民。</p> <p>平民照片如下图所示。</p> <p></p> <img src='stimuli/faces/NCM6.jpg', style='max-width: 30%;'> </img> <p><strong>你是否选择发射武器？</strong></p>","0",""
"","","","","","html-keyboard-response","76","138857","0.0-4.0-0.36","89","1","2022-10-07 08:57:19","d60b49b5908c80e163b920d72b52d584","27.189.211.25","Mozilla/5.0 (Windows; U; Windows NT 5.2; en-US) AppleWebKit/537.36 (KHTML, like Gecko) Safari/537.36 VivoBrowser/11.5.10.0 Chrome/87.0.4280.141","WebKit","Chrome","87.0.4280.141","Windows","5.2","null","<div style=""font-size:60px;"">+</div>","null",""
"","","","","","html-button-response","77","140884","0.0-4.0-1.36","89","1","2022-10-07 08:57:19","d60b49b5908c80e163b920d72b52d584","27.189.211.25","Mozilla/5.0 (Windows; U; Windows NT 5.2; en-US) AppleWebKit/537.36 (KHTML, like Gecko) Safari/537.36 VivoBrowser/11.5.10.0 Chrome/87.0.4280.141","WebKit","Chrome","87.0.4280.141","Windows","5.2","1991","<p>作为军队的指挥官，你可以选择发射导弹杀死 <strong>4名</strong> 敌国士兵，但会炸毁附近的 <strong>1棵</strong> 敌国树木。</p> <p>树木的照片如下图所示。</p> <p></p> <img src='stimuli/trees/9.png', style='max-width: 30%;'> </img> <p><strong>你是否选择发射武器？</strong></p>","0",""
"","","","","","html-keyboard-response","78","141908","0.0-4.0-0.37","89","1","2022-10-07 08:57:19","d60b49b5908c80e163b920d72b52d584","27.189.211.25","Mozilla/5.0 (Windows; U; Windows NT 5.2; en-US) AppleWebKit/537.36 (KHTML, like Gecko) Safari/537.36 VivoBrowser/11.5.10.0 Chrome/87.0.4280.141","WebKit","Chrome","87.0.4280.141","Windows","5.2","null","<div style=""font-size:60px;"">+</div>","null",""
"","","","","","html-button-response","79","143071","0.0-4.0-1.37","89","1","2022-10-07 08:57:19","d60b49b5908c80e163b920d72b52d584","27.189.211.25","Mozilla/5.0 (Windows; U; Windows NT 5.2; en-US) AppleWebKit/537.36 (KHTML, like Gecko) Safari/537.36 VivoBrowser/11.5.10.0 Chrome/87.0.4280.141","WebKit","Chrome","87.0.4280.141","Windows","5.2","1131","<p>作为军队的指挥官，你可以选择发射导弹杀死 <strong>2名</strong> 敌国士兵，但会炸毁附近的 <strong>1棵</strong> 敌国树木。</p> <p>树木的照片如下图所示。</p> <p></p> <img src='stimuli/trees/4.png', style='max-width: 30%;'> </img> <p><strong>你是否选择发射武器？</strong></p>","1",""
"","","","","","html-keyboard-response","80","144095","0.0-4.0-0.38","89","1","2022-10-07 08:57:19","d60b49b5908c80e163b920d72b52d584","27.189.211.25","Mozilla/5.0 (Windows; U; Windows NT 5.2; en-US) AppleWebKit/537.36 (KHTML, like Gecko) Safari/537.36 VivoBrowser/11.5.10.0 Chrome/87.0.4280.141","WebKit","Chrome","87.0.4280.141","Windows","5.2","null","<div style=""font-size:60px;"">+</div>","null",""
"","","","","","html-button-response","81","145019","0.0-4.0-1.38","89","1","2022-10-07 08:57:19","d60b49b5908c80e163b920d72b52d584","27.189.211.25","Mozilla/5.0 (Windows; U; Windows NT 5.2; en-US) AppleWebKit/537.36 (KHTML, like Gecko) Safari/537.36 VivoBrowser/11.5.10.0 Chrome/87.0.4280.141","WebKit","Chrome","87.0.4280.141","Windows","5.2","904","<p>作为军队的指挥官，你可以选择发射导弹杀死 <strong>7名</strong> 敌国士兵，但会炸毁附近的 <strong>1棵</strong> 敌国树木。</p> <p>树木的照片如下图所示。</p> <p></p> <img src='stimuli/trees/1.png', style='max-width: 30%;'> </img> <p><strong>你是否选择发射武器？</strong></p>","0",""
"","","","","","html-keyboard-response","82","146042","0.0-4.0-0.39","89","1","2022-10-07 08:57:19","d60b49b5908c80e163b920d72b52d584","27.189.211.25","Mozilla/5.0 (Windows; U; Windows NT 5.2; en-US) AppleWebKit/537.36 (KHTML, like Gecko) Safari/537.36 VivoBrowser/11.5.10.0 Chrome/87.0.4280.141","WebKit","Chrome","87.0.4280.141","Windows","5.2","null","<div style=""font-size:60px;"">+</div>","null",""
"","","","","","html-button-response","83","147908","0.0-4.0-1.39","89","1","2022-10-07 08:57:19","d60b49b5908c80e163b920d72b52d584","27.189.211.25","Mozilla/5.0 (Windows; U; Windows NT 5.2; en-US) AppleWebKit/537.36 (KHTML, like Gecko) Safari/537.36 VivoBrowser/11.5.10.0 Chrome/87.0.4280.141","WebKit","Chrome","87.0.4280.141","Windows","5.2","1830","<p>作为军队的指挥官，你可以选择发射导弹杀死 <strong>7名</strong> 敌国士兵，但会误杀附近的 <strong>1名</strong> 敌国平民。</p> <p>平民照片如下图所示。</p> <p></p> <img src='stimuli/faces/NCF7.jpg', style='max-width: 30%;'> </img> <p><strong>你是否选择发射武器？</strong></p>","0",""
"","","","","","html-keyboard-response","84","148923","0.0-4.0-0.40","89","1","2022-10-07 08:57:19","d60b49b5908c80e163b920d72b52d584","27.189.211.25","Mozilla/5.0 (Windows; U; Windows NT 5.2; en-US) AppleWebKit/537.36 (KHTML, like Gecko) Safari/537.36 VivoBrowser/11.5.10.0 Chrome/87.0.4280.141","WebKit","Chrome","87.0.4280.141","Windows","5.2","null","<div style=""font-size:60px;"">+</div>","null",""
"","","","","","html-button-response","85","151372","0.0-4.0-1.40","89","1","2022-10-07 08:57:19","d60b49b5908c80e163b920d72b52d584","27.189.211.25","Mozilla/5.0 (Windows; U; Windows NT 5.2; en-US) AppleWebKit/537.36 (KHTML, like Gecko) Safari/537.36 VivoBrowser/11.5.10.0 Chrome/87.0.4280.141","WebKit","Chrome","87.0.4280.141","Windows","5.2","2405","<p>作为军队的指挥官，你可以选择发射导弹杀死 <strong>3名</strong> 敌国士兵，但会炸毁附近的 <strong>1棵</strong> 敌国树木。</p> <p>树木的照片如下图所示。</p> <p></p> <img src='stimuli/trees/6.png', style='max-width: 30%;'> </img> <p><strong>你是否选择发射武器？</strong></p>","0",""
"","","","","","html-keyboard-response","86","152390","0.0-4.0-0.41","89","1","2022-10-07 08:57:19","d60b49b5908c80e163b920d72b52d584","27.189.211.25","Mozilla/5.0 (Windows; U; Windows NT 5.2; en-US) AppleWebKit/537.36 (KHTML, like Gecko) Safari/537.36 VivoBrowser/11.5.10.0 Chrome/87.0.4280.141","WebKit","Chrome","87.0.4280.141","Windows","5.2","null","<div style=""font-size:60px;"">+</div>","null",""
"","","","","","html-button-response","87","153387","0.0-4.0-1.41","89","1","2022-10-07 08:57:19","d60b49b5908c80e163b920d72b52d584","27.189.211.25","Mozilla/5.0 (Windows; U; Windows NT 5.2; en-US) AppleWebKit/537.36 (KHTML, like Gecko) Safari/537.36 VivoBrowser/11.5.10.0 Chrome/87.0.4280.141","WebKit","Chrome","87.0.4280.141","Windows","5.2","963","<p>作为军队的指挥官，你可以选择发射导弹杀死 <strong>9名</strong> 敌国士兵，但会误杀附近的 <strong>1名</strong> 敌国平民。</p> <p>平民照片如下图所示。</p> <p></p> <img src='stimuli/faces/NCF8.jpg', style='max-width: 30%;'> </img> <p><strong>你是否选择发射武器？</strong></p>","0",""
"","","","","","html-keyboard-response","88","154407","0.0-4.0-0.42","89","1","2022-10-07 08:57:19","d60b49b5908c80e163b920d72b52d584","27.189.211.25","Mozilla/5.0 (Windows; U; Windows NT 5.2; en-US) AppleWebKit/537.36 (KHTML, like Gecko) Safari/537.36 VivoBrowser/11.5.10.0 Chrome/87.0.4280.141","WebKit","Chrome","87.0.4280.141","Windows","5.2","null","<div style=""font-size:60px;"">+</div>","null",""
"","","","","","html-button-response","89","155606","0.0-4.0-1.42","89","1","2022-10-07 08:57:19","d60b49b5908c80e163b920d72b52d584","27.189.211.25","Mozilla/5.0 (Windows; U; Windows NT 5.2; en-US) AppleWebKit/537.36 (KHTML, like Gecko) Safari/537.36 VivoBrowser/11.5.10.0 Chrome/87.0.4280.141","WebKit","Chrome","87.0.4280.141","Windows","5.2","1164","<p>作为军队的指挥官，你可以选择发射导弹杀死 <strong>7名</strong> 敌国士兵，但会炸毁附近的 <strong>1棵</strong> 敌国树木。</p> <p>树木的照片如下图所示。</p> <p></p> <img src='stimuli/trees/6.png', style='max-width: 30%;'> </img> <p><strong>你是否选择发射武器？</strong></p>","0",""
"","","","","","html-keyboard-response","90","156633","0.0-4.0-0.43","89","1","2022-10-07 08:57:19","d60b49b5908c80e163b920d72b52d584","27.189.211.25","Mozilla/5.0 (Windows; U; Windows NT 5.2; en-US) AppleWebKit/537.36 (KHTML, like Gecko) Safari/537.36 VivoBrowser/11.5.10.0 Chrome/87.0.4280.141","WebKit","Chrome","87.0.4280.141","Windows","5.2","null","<div style=""font-size:60px;"">+</div>","null",""
"","","","","","html-button-response","91","157564","0.0-4.0-1.43","89","1","2022-10-07 08:57:19","d60b49b5908c80e163b920d72b52d584","27.189.211.25","Mozilla/5.0 (Windows; U; Windows NT 5.2; en-US) AppleWebKit/537.36 (KHTML, like Gecko) Safari/537.36 VivoBrowser/11.5.10.0 Chrome/87.0.4280.141","WebKit","Chrome","87.0.4280.141","Windows","5.2","910","<p>作为军队的指挥官，你可以选择发射导弹杀死 <strong>3名</strong> 敌国士兵，但会误杀附近的 <strong>1名</strong> 敌国平民。</p> <p>平民照片如下图所示。</p> <p></p> <img src='stimuli/faces/NCF6.jpg', style='max-width: 30%;'> </img> <p><strong>你是否选择发射武器？</strong></p>","1",""
"","","","","","html-keyboard-response","92","158584","0.0-4.0-0.44","89","1","2022-10-07 08:57:19","d60b49b5908c80e163b920d72b52d584","27.189.211.25","Mozilla/5.0 (Windows; U; Windows NT 5.2; en-US) AppleWebKit/537.36 (KHTML, like Gecko) Safari/537.36 VivoBrowser/11.5.10.0 Chrome/87.0.4280.141","WebKit","Chrome","87.0.4280.141","Windows","5.2","null","<div style=""font-size:60px;"">+</div>","null",""
"","","","","","html-button-response","93","159508","0.0-4.0-1.44","89","1","2022-10-07 08:57:19","d60b49b5908c80e163b920d72b52d584","27.189.211.25","Mozilla/5.0 (Windows; U; Windows NT 5.2; en-US) AppleWebKit/537.36 (KHTML, like Gecko) Safari/537.36 VivoBrowser/11.5.10.0 Chrome/87.0.4280.141","WebKit","Chrome","87.0.4280.141","Windows","5.2","889","<p>作为军队的指挥官，你可以选择发射导弹杀死 <strong>1名</strong> 敌国士兵，但会误杀附近的 <strong>1名</strong> 敌国平民。</p> <p>平民照片如下图所示。</p> <p></p> <img src='stimuli/faces/NCF1.jpg', style='max-width: 30%;'> </img> <p><strong>你是否选择发射武器？</strong></p>","1",""
"","","","","","html-keyboard-response","94","160535","0.0-4.0-0.45","89","1","2022-10-07 08:57:19","d60b49b5908c80e163b920d72b52d584","27.189.211.25","Mozilla/5.0 (Windows; U; Windows NT 5.2; en-US) AppleWebKit/537.36 (KHTML, like Gecko) Safari/537.36 VivoBrowser/11.5.10.0 Chrome/87.0.4280.141","WebKit","Chrome","87.0.4280.141","Windows","5.2","null","<div style=""font-size:60px;"">+</div>","null",""
"","","","","","html-button-response","95","161871","0.0-4.0-1.45","89","1","2022-10-07 08:57:19","d60b49b5908c80e163b920d72b52d584","27.189.211.25","Mozilla/5.0 (Windows; U; Windows NT 5.2; en-US) AppleWebKit/537.36 (KHTML, like Gecko) Safari/537.36 VivoBrowser/11.5.10.0 Chrome/87.0.4280.141","WebKit","Chrome","87.0.4280.141","Windows","5.2","1309","<p>作为军队的指挥官，你可以选择发射导弹杀死 <strong>4名</strong> 敌国士兵，但会炸毁附近的 <strong>1棵</strong> 敌国树木。</p> <p>树木的照片如下图所示。</p> <p></p> <img src='stimuli/trees/16.png', style='max-width: 30%;'> </img> <p><strong>你是否选择发射武器？</strong></p>","0",""
"","","","","","html-keyboard-response","96","162884","0.0-4.0-0.46","89","1","2022-10-07 08:57:19","d60b49b5908c80e163b920d72b52d584","27.189.211.25","Mozilla/5.0 (Windows; U; Windows NT 5.2; en-US) AppleWebKit/537.36 (KHTML, like Gecko) Safari/537.36 VivoBrowser/11.5.10.0 Chrome/87.0.4280.141","WebKit","Chrome","87.0.4280.141","Windows","5.2","null","<div style=""font-size:60px;"">+</div>","null",""
"","","","","","html-button-response","97","164364","0.0-4.0-1.46","89","1","2022-10-07 08:57:19","d60b49b5908c80e163b920d72b52d584","27.189.211.25","Mozilla/5.0 (Windows; U; Windows NT 5.2; en-US) AppleWebKit/537.36 (KHTML, like Gecko) Safari/537.36 VivoBrowser/11.5.10.0 Chrome/87.0.4280.141","WebKit","Chrome","87.0.4280.141","Windows","5.2","1442","<p>作为军队的指挥官，你可以选择发射导弹杀死 <strong>5名</strong> 敌国士兵，但会误杀附近的 <strong>1名</strong> 敌国平民。</p> <p>平民照片如下图所示。</p> <p></p> <img src='stimuli/faces/NCF3.jpg', style='max-width: 30%;'> </img> <p><strong>你是否选择发射武器？</strong></p>","1",""
"","","","","","html-keyboard-response","98","165392","0.0-4.0-0.47","89","1","2022-10-07 08:57:19","d60b49b5908c80e163b920d72b52d584","27.189.211.25","Mozilla/5.0 (Windows; U; Windows NT 5.2; en-US) AppleWebKit/537.36 (KHTML, like Gecko) Safari/537.36 VivoBrowser/11.5.10.0 Chrome/87.0.4280.141","WebKit","Chrome","87.0.4280.141","Windows","5.2","null","<div style=""font-size:60px;"">+</div>","null",""
"","","","","","html-button-response","99","166215","0.0-4.0-1.47","89","1","2022-10-07 08:57:19","d60b49b5908c80e163b920d72b52d584","27.189.211.25","Mozilla/5.0 (Windows; U; Windows NT 5.2; en-US) AppleWebKit/537.36 (KHTML, like Gecko) Safari/537.36 VivoBrowser/11.5.10.0 Chrome/87.0.4280.141","WebKit","Chrome","87.0.4280.141","Windows","5.2","785","<p>作为军队的指挥官，你可以选择发射导弹杀死 <strong>2名</strong> 敌国士兵，但会误杀附近的 <strong>1名</strong> 敌国平民。</p> <p>平民照片如下图所示。</p> <p></p> <img src='stimuli/faces/NCM4.jpg', style='max-width: 30%;'> </img> <p><strong>你是否选择发射武器？</strong></p>","1",""
"","","","","","html-keyboard-response","100","167240","0.0-4.0-0.48","89","1","2022-10-07 08:57:19","d60b49b5908c80e163b920d72b52d584","27.189.211.25","Mozilla/5.0 (Windows; U; Windows NT 5.2; en-US) AppleWebKit/537.36 (KHTML, like Gecko) Safari/537.36 VivoBrowser/11.5.10.0 Chrome/87.0.4280.141","WebKit","Chrome","87.0.4280.141","Windows","5.2","null","<div style=""font-size:60px;"">+</div>","null",""
"","","","","","html-button-response","101","168135","0.0-4.0-1.48","89","1","2022-10-07 08:57:19","d60b49b5908c80e163b920d72b52d584","27.189.211.25","Mozilla/5.0 (Windows; U; Windows NT 5.2; en-US) AppleWebKit/537.36 (KHTML, like Gecko) Safari/537.36 VivoBrowser/11.5.10.0 Chrome/87.0.4280.141","WebKit","Chrome","87.0.4280.141","Windows","5.2","864","<p>作为军队的指挥官，你可以选择发射导弹杀死 <strong>8名</strong> 敌国士兵，但会炸毁附近的 <strong>1棵</strong> 敌国树木。</p> <p>树木的照片如下图所示。</p> <p></p> <img src='stimuli/trees/5.png', style='max-width: 30%;'> </img> <p><strong>你是否选择发射武器？</strong></p>","0",""
"","","","","","html-keyboard-response","102","169163","0.0-4.0-0.49","89","1","2022-10-07 08:57:19","d60b49b5908c80e163b920d72b52d584","27.189.211.25","Mozilla/5.0 (Windows; U; Windows NT 5.2; en-US) AppleWebKit/537.36 (KHTML, like Gecko) Safari/537.36 VivoBrowser/11.5.10.0 Chrome/87.0.4280.141","WebKit","Chrome","87.0.4280.141","Windows","5.2","null","<div style=""font-size:60px;"">+</div>","null",""
"","","","","","html-button-response","103","170555","0.0-4.0-1.49","89","1","2022-10-07 08:57:19","d60b49b5908c80e163b920d72b52d584","27.189.211.25","Mozilla/5.0 (Windows; U; Windows NT 5.2; en-US) AppleWebKit/537.36 (KHTML, like Gecko) Safari/537.36 VivoBrowser/11.5.10.0 Chrome/87.0.4280.141","WebKit","Chrome","87.0.4280.141","Windows","5.2","1356","<p>作为军队的指挥官，你可以选择发射导弹杀死 <strong>5名</strong> 敌国士兵，但会误杀附近的 <strong>1名</strong> 敌国平民。</p> <p>平民照片如下图所示。</p> <p></p> <img src='stimuli/faces/NCF2.jpg', style='max-width: 30%;'> </img> <p><strong>你是否选择发射武器？</strong></p>","1",""
"","","","","","html-keyboard-response","104","171569","0.0-4.0-0.50","89","1","2022-10-07 08:57:19","d60b49b5908c80e163b920d72b52d584","27.189.211.25","Mozilla/5.0 (Windows; U; Windows NT 5.2; en-US) AppleWebKit/537.36 (KHTML, like Gecko) Safari/537.36 VivoBrowser/11.5.10.0 Chrome/87.0.4280.141","WebKit","Chrome","87.0.4280.141","Windows","5.2","null","<div style=""font-size:60px;"">+</div>","null",""
"","","","","","html-button-response","105","172614","0.0-4.0-1.50","89","1","2022-10-07 08:57:19","d60b49b5908c80e163b920d72b52d584","27.189.211.25","Mozilla/5.0 (Windows; U; Windows NT 5.2; en-US) AppleWebKit/537.36 (KHTML, like Gecko) Safari/537.36 VivoBrowser/11.5.10.0 Chrome/87.0.4280.141","WebKit","Chrome","87.0.4280.141","Windows","5.2","1002","<p>作为军队的指挥官，你可以选择发射导弹杀死 <strong>9名</strong> 敌国士兵，但会误杀附近的 <strong>1名</strong> 敌国平民。</p> <p>平民照片如下图所示。</p> <p></p> <img src='stimuli/faces/NCM3.jpg', style='max-width: 30%;'> </img> <p><strong>你是否选择发射武器？</strong></p>","0",""
"","","","","","html-keyboard-response","106","173633","0.0-4.0-0.51","89","1","2022-10-07 08:57:19","d60b49b5908c80e163b920d72b52d584","27.189.211.25","Mozilla/5.0 (Windows; U; Windows NT 5.2; en-US) AppleWebKit/537.36 (KHTML, like Gecko) Safari/537.36 VivoBrowser/11.5.10.0 Chrome/87.0.4280.141","WebKit","Chrome","87.0.4280.141","Windows","5.2","null","<div style=""font-size:60px;"">+</div>","null",""
"","","","","","html-button-response","107","174537","0.0-4.0-1.51","89","1","2022-10-07 08:57:19","d60b49b5908c80e163b920d72b52d584","27.189.211.25","Mozilla/5.0 (Windows; U; Windows NT 5.2; en-US) AppleWebKit/537.36 (KHTML, like Gecko) Safari/537.36 VivoBrowser/11.5.10.0 Chrome/87.0.4280.141","WebKit","Chrome","87.0.4280.141","Windows","5.2","872","<p>作为军队的指挥官，你可以选择发射导弹杀死 <strong>4名</strong> 敌国士兵，但会误杀附近的 <strong>1名</strong> 敌国平民。</p> <p>平民照片如下图所示。</p> <p></p> <img src='stimuli/faces/NCM5.jpg', style='max-width: 30%;'> </img> <p><strong>你是否选择发射武器？</strong></p>","1",""
"","","","","","html-keyboard-response","108","175565","0.0-4.0-0.52","89","1","2022-10-07 08:57:19","d60b49b5908c80e163b920d72b52d584","27.189.211.25","Mozilla/5.0 (Windows; U; Windows NT 5.2; en-US) AppleWebKit/537.36 (KHTML, like Gecko) Safari/537.36 VivoBrowser/11.5.10.0 Chrome/87.0.4280.141","WebKit","Chrome","87.0.4280.141","Windows","5.2","null","<div style=""font-size:60px;"">+</div>","null",""
"","","","","","html-button-response","109","176900","0.0-4.0-1.52","89","1","2022-10-07 08:57:19","d60b49b5908c80e163b920d72b52d584","27.189.211.25","Mozilla/5.0 (Windows; U; Windows NT 5.2; en-US) AppleWebKit/537.36 (KHTML, like Gecko) Safari/537.36 VivoBrowser/11.5.10.0 Chrome/87.0.4280.141","WebKit","Chrome","87.0.4280.141","Windows","5.2","1303","<p>作为军队的指挥官，你可以选择发射导弹杀死 <strong>3名</strong> 敌国士兵，但会炸毁附近的 <strong>1棵</strong> 敌国树木。</p> <p>树木的照片如下图所示。</p> <p></p> <img src='stimuli/trees/5.png', style='max-width: 30%;'> </img> <p><strong>你是否选择发射武器？</strong></p>","0",""
"","","","","","html-keyboard-response","110","177928","0.0-4.0-0.53","89","1","2022-10-07 08:57:19","d60b49b5908c80e163b920d72b52d584","27.189.211.25","Mozilla/5.0 (Windows; U; Windows NT 5.2; en-US) AppleWebKit/537.36 (KHTML, like Gecko) Safari/537.36 VivoBrowser/11.5.10.0 Chrome/87.0.4280.141","WebKit","Chrome","87.0.4280.141","Windows","5.2","null","<div style=""font-size:60px;"">+</div>","null",""
"","","","","","html-button-response","111","178717","0.0-4.0-1.53","89","1","2022-10-07 08:57:19","d60b49b5908c80e163b920d72b52d584","27.189.211.25","Mozilla/5.0 (Windows; U; Windows NT 5.2; en-US) AppleWebKit/537.36 (KHTML, like Gecko) Safari/537.36 VivoBrowser/11.5.10.0 Chrome/87.0.4280.141","WebKit","Chrome","87.0.4280.141","Windows","5.2","755","<p>作为军队的指挥官，你可以选择发射导弹杀死 <strong>10名</strong> 敌国士兵，但会炸毁附近的 <strong>1棵</strong> 敌国树木。</p> <p>树木的照片如下图所示。</p> <p></p> <img src='stimuli/trees/12.png', style='max-width: 30%;'> </img> <p><strong>你是否选择发射武器？</strong></p>","0",""
"","","","","","html-keyboard-response","112","179737","0.0-4.0-0.54","89","1","2022-10-07 08:57:19","d60b49b5908c80e163b920d72b52d584","27.189.211.25","Mozilla/5.0 (Windows; U; Windows NT 5.2; en-US) AppleWebKit/537.36 (KHTML, like Gecko) Safari/537.36 VivoBrowser/11.5.10.0 Chrome/87.0.4280.141","WebKit","Chrome","87.0.4280.141","Windows","5.2","null","<div style=""font-size:60px;"">+</div>","null",""
"","","","","","html-button-response","113","180858","0.0-4.0-1.54","89","1","2022-10-07 08:57:19","d60b49b5908c80e163b920d72b52d584","27.189.211.25","Mozilla/5.0 (Windows; U; Windows NT 5.2; en-US) AppleWebKit/537.36 (KHTML, like Gecko) Safari/537.36 VivoBrowser/11.5.10.0 Chrome/87.0.4280.141","WebKit","Chrome","87.0.4280.141","Windows","5.2","1079","<p>作为军队的指挥官，你可以选择发射导弹杀死 <strong>3名</strong> 敌国士兵，但会炸毁附近的 <strong>1棵</strong> 敌国树木。</p> <p>树木的照片如下图所示。</p> <p></p> <img src='stimuli/trees/3.png', style='max-width: 30%;'> </img> <p><strong>你是否选择发射武器？</strong></p>","0",""
"","","","","","html-keyboard-response","114","181886","0.0-4.0-0.55","89","1","2022-10-07 08:57:19","d60b49b5908c80e163b920d72b52d584","27.189.211.25","Mozilla/5.0 (Windows; U; Windows NT 5.2; en-US) AppleWebKit/537.36 (KHTML, like Gecko) Safari/537.36 VivoBrowser/11.5.10.0 Chrome/87.0.4280.141","WebKit","Chrome","87.0.4280.141","Windows","5.2","null","<div style=""font-size:60px;"">+</div>","null",""
"","","","","","html-button-response","115","183014","0.0-4.0-1.55","89","1","2022-10-07 08:57:19","d60b49b5908c80e163b920d72b52d584","27.189.211.25","Mozilla/5.0 (Windows; U; Windows NT 5.2; en-US) AppleWebKit/537.36 (KHTML, like Gecko) Safari/537.36 VivoBrowser/11.5.10.0 Chrome/87.0.4280.141","WebKit","Chrome","87.0.4280.141","Windows","5.2","1090","<p>作为军队的指挥官，你可以选择发射导弹杀死 <strong>8名</strong> 敌国士兵，但会炸毁附近的 <strong>1棵</strong> 敌国树木。</p> <p>树木的照片如下图所示。</p> <p></p> <img src='stimuli/trees/2.png', style='max-width: 30%;'> </img> <p><strong>你是否选择发射武器？</strong></p>","0",""
"","","","","","html-keyboard-response","116","184034","0.0-4.0-0.56","89","1","2022-10-07 08:57:19","d60b49b5908c80e163b920d72b52d584","27.189.211.25","Mozilla/5.0 (Windows; U; Windows NT 5.2; en-US) AppleWebKit/537.36 (KHTML, like Gecko) Safari/537.36 VivoBrowser/11.5.10.0 Chrome/87.0.4280.141","WebKit","Chrome","87.0.4280.141","Windows","5.2","null","<div style=""font-size:60px;"">+</div>","null",""
"","","","","","html-button-response","117","189279","0.0-4.0-1.56","89","1","2022-10-07 08:57:19","d60b49b5908c80e163b920d72b52d584","27.189.211.25","Mozilla/5.0 (Windows; U; Windows NT 5.2; en-US) AppleWebKit/537.36 (KHTML, like Gecko) Safari/537.36 VivoBrowser/11.5.10.0 Chrome/87.0.4280.141","WebKit","Chrome","87.0.4280.141","Windows","5.2","5211","<p>作为军队的指挥官，你可以选择发射导弹杀死 <strong>10名</strong> 敌国士兵，但会炸毁附近的 <strong>1棵</strong> 敌国树木。</p> <p>树木的照片如下图所示。</p> <p></p> <img src='stimuli/trees/4.png', style='max-width: 30%;'> </img> <p><strong>你是否选择发射武器？</strong></p>","0",""
"","","","","","html-keyboard-response","118","190294","0.0-4.0-0.57","89","1","2022-10-07 08:57:19","d60b49b5908c80e163b920d72b52d584","27.189.211.25","Mozilla/5.0 (Windows; U; Windows NT 5.2; en-US) AppleWebKit/537.36 (KHTML, like Gecko) Safari/537.36 VivoBrowser/11.5.10.0 Chrome/87.0.4280.141","WebKit","Chrome","87.0.4280.141","Windows","5.2","null","<div style=""font-size:60px;"">+</div>","null",""
"","","","","","html-button-response","119","192370","0.0-4.0-1.57","89","1","2022-10-07 08:57:19","d60b49b5908c80e163b920d72b52d584","27.189.211.25","Mozilla/5.0 (Windows; U; Windows NT 5.2; en-US) AppleWebKit/537.36 (KHTML, like Gecko) Safari/537.36 VivoBrowser/11.5.10.0 Chrome/87.0.4280.141","WebKit","Chrome","87.0.4280.141","Windows","5.2","2041","<p>作为军队的指挥官，你可以选择发射导弹杀死 <strong>5名</strong> 敌国士兵，但会误杀附近的 <strong>1名</strong> 敌国平民。</p> <p>平民照片如下图所示。</p> <p></p> <img src='stimuli/faces/NCM3.jpg', style='max-width: 30%;'> </img> <p><strong>你是否选择发射武器？</strong></p>","0",""
"","","","","","html-keyboard-response","120","193386","0.0-4.0-0.58","89","1","2022-10-07 08:57:19","d60b49b5908c80e163b920d72b52d584","27.189.211.25","Mozilla/5.0 (Windows; U; Windows NT 5.2; en-US) AppleWebKit/537.36 (KHTML, like Gecko) Safari/537.36 VivoBrowser/11.5.10.0 Chrome/87.0.4280.141","WebKit","Chrome","87.0.4280.141","Windows","5.2","null","<div style=""font-size:60px;"">+</div>","null",""
"","","","","","html-button-response","121","194234","0.0-4.0-1.58","89","1","2022-10-07 08:57:19","d60b49b5908c80e163b920d72b52d584","27.189.211.25","Mozilla/5.0 (Windows; U; Windows NT 5.2; en-US) AppleWebKit/537.36 (KHTML, like Gecko) Safari/537.36 VivoBrowser/11.5.10.0 Chrome/87.0.4280.141","WebKit","Chrome","87.0.4280.141","Windows","5.2","794","<p>作为军队的指挥官，你可以选择发射导弹杀死 <strong>1名</strong> 敌国士兵，但会炸毁附近的 <strong>1棵</strong> 敌国树木。</p> <p>树木的照片如下图所示。</p> <p></p> <img src='stimuli/trees/12.png', style='max-width: 30%;'> </img> <p><strong>你是否选择发射武器？</strong></p>","0",""
"","","","","","html-keyboard-response","122","195256","0.0-4.0-0.59","89","1","2022-10-07 08:57:19","d60b49b5908c80e163b920d72b52d584","27.189.211.25","Mozilla/5.0 (Windows; U; Windows NT 5.2; en-US) AppleWebKit/537.36 (KHTML, like Gecko) Safari/537.36 VivoBrowser/11.5.10.0 Chrome/87.0.4280.141","WebKit","Chrome","87.0.4280.141","Windows","5.2","null","<div style=""font-size:60px;"">+</div>","null",""
"","","","","","html-button-response","123","197188","0.0-4.0-1.59","89","1","2022-10-07 08:57:19","d60b49b5908c80e163b920d72b52d584","27.189.211.25","Mozilla/5.0 (Windows; U; Windows NT 5.2; en-US) AppleWebKit/537.36 (KHTML, like Gecko) Safari/537.36 VivoBrowser/11.5.10.0 Chrome/87.0.4280.141","WebKit","Chrome","87.0.4280.141","Windows","5.2","1887","<p>作为军队的指挥官，你可以选择发射导弹杀死 <strong>9名</strong> 敌国士兵，但会误杀附近的 <strong>1名</strong> 敌国平民。</p> <p>平民照片如下图所示。</p> <p></p> <img src='stimuli/faces/NCM8.jpg', style='max-width: 30%;'> </img> <p><strong>你是否选择发射武器？</strong></p>","0",""
"","","","","","html-keyboard-response","124","198211","0.0-4.0-0.60","89","1","2022-10-07 08:57:19","d60b49b5908c80e163b920d72b52d584","27.189.211.25","Mozilla/5.0 (Windows; U; Windows NT 5.2; en-US) AppleWebKit/537.36 (KHTML, like Gecko) Safari/537.36 VivoBrowser/11.5.10.0 Chrome/87.0.4280.141","WebKit","Chrome","87.0.4280.141","Windows","5.2","null","<div style=""font-size:60px;"">+</div>","null",""
"","","","","","html-button-response","125","199669","0.0-4.0-1.60","89","1","2022-10-07 08:57:19","d60b49b5908c80e163b920d72b52d584","27.189.211.25","Mozilla/5.0 (Windows; U; Windows NT 5.2; en-US) AppleWebKit/537.36 (KHTML, like Gecko) Safari/537.36 VivoBrowser/11.5.10.0 Chrome/87.0.4280.141","WebKit","Chrome","87.0.4280.141","Windows","5.2","1421","<p>作为军队的指挥官，你可以选择发射导弹杀死 <strong>6名</strong> 敌国士兵，但会误杀附近的 <strong>1名</strong> 敌国平民。</p> <p>平民照片如下图所示。</p> <p></p> <img src='stimuli/faces/NCF5.jpg', style='max-width: 30%;'> </img> <p><strong>你是否选择发射武器？</strong></p>","1",""
"","","","","","html-keyboard-response","126","200692","0.0-4.0-0.61","89","1","2022-10-07 08:57:19","d60b49b5908c80e163b920d72b52d584","27.189.211.25","Mozilla/5.0 (Windows; U; Windows NT 5.2; en-US) AppleWebKit/537.36 (KHTML, like Gecko) Safari/537.36 VivoBrowser/11.5.10.0 Chrome/87.0.4280.141","WebKit","Chrome","87.0.4280.141","Windows","5.2","null","<div style=""font-size:60px;"">+</div>","null",""
"","","","","","html-button-response","127","201712","0.0-4.0-1.61","89","1","2022-10-07 08:57:19","d60b49b5908c80e163b920d72b52d584","27.189.211.25","Mozilla/5.0 (Windows; U; Windows NT 5.2; en-US) AppleWebKit/537.36 (KHTML, like Gecko) Safari/537.36 VivoBrowser/11.5.10.0 Chrome/87.0.4280.141","WebKit","Chrome","87.0.4280.141","Windows","5.2","982","<p>作为军队的指挥官，你可以选择发射导弹杀死 <strong>6名</strong> 敌国士兵，但会炸毁附近的 <strong>1棵</strong> 敌国树木。</p> <p>树木的照片如下图所示。</p> <p></p> <img src='stimuli/trees/15.png', style='max-width: 30%;'> </img> <p><strong>你是否选择发射武器？</strong></p>","0",""
"","","","","","html-keyboard-response","128","202747","0.0-4.0-0.62","89","1","2022-10-07 08:57:19","d60b49b5908c80e163b920d72b52d584","27.189.211.25","Mozilla/5.0 (Windows; U; Windows NT 5.2; en-US) AppleWebKit/537.36 (KHTML, like Gecko) Safari/537.36 VivoBrowser/11.5.10.0 Chrome/87.0.4280.141","WebKit","Chrome","87.0.4280.141","Windows","5.2","null","<div style=""font-size:60px;"">+</div>","null",""
"","","","","","html-button-response","129","204018","0.0-4.0-1.62","89","1","2022-10-07 08:57:19","d60b49b5908c80e163b920d72b52d584","27.189.211.25","Mozilla/5.0 (Windows; U; Windows NT 5.2; en-US) AppleWebKit/537.36 (KHTML, like Gecko) Safari/537.36 VivoBrowser/11.5.10.0 Chrome/87.0.4280.141","WebKit","Chrome","87.0.4280.141","Windows","5.2","1237","<p>作为军队的指挥官，你可以选择发射导弹杀死 <strong>8名</strong> 敌国士兵，但会炸毁附近的 <strong>1棵</strong> 敌国树木。</p> <p>树木的照片如下图所示。</p> <p></p> <img src='stimuli/trees/10.png', style='max-width: 30%;'> </img> <p><strong>你是否选择发射武器？</strong></p>","0",""
"","","","","","html-keyboard-response","130","205046","0.0-4.0-0.63","89","1","2022-10-07 08:57:19","d60b49b5908c80e163b920d72b52d584","27.189.211.25","Mozilla/5.0 (Windows; U; Windows NT 5.2; en-US) AppleWebKit/537.36 (KHTML, like Gecko) Safari/537.36 VivoBrowser/11.5.10.0 Chrome/87.0.4280.141","WebKit","Chrome","87.0.4280.141","Windows","5.2","null","<div style=""font-size:60px;"">+</div>","null",""
"","","","","","html-button-response","131","206673","0.0-4.0-1.63","89","1","2022-10-07 08:57:19","d60b49b5908c80e163b920d72b52d584","27.189.211.25","Mozilla/5.0 (Windows; U; Windows NT 5.2; en-US) AppleWebKit/537.36 (KHTML, like Gecko) Safari/537.36 VivoBrowser/11.5.10.0 Chrome/87.0.4280.141","WebKit","Chrome","87.0.4280.141","Windows","5.2","1578","<p>作为军队的指挥官，你可以选择发射导弹杀死 <strong>3名</strong> 敌国士兵，但会误杀附近的 <strong>1名</strong> 敌国平民。</p> <p>平民照片如下图所示。</p> <p></p> <img src='stimuli/faces/NCM6.jpg', style='max-width: 30%;'> </img> <p><strong>你是否选择发射武器？</strong></p>","1",""
"","","","","","survey-multi-choice","132","236441","0.0-5.0","89","1","2022-10-07 08:57:19","d60b49b5908c80e163b920d72b52d584","27.189.211.25","Mozilla/5.0 (Windows; U; Windows NT 5.2; en-US) AppleWebKit/537.36 (KHTML, like Gecko) Safari/537.36 VivoBrowser/11.5.10.0 Chrome/87.0.4280.141","WebKit","Chrome","87.0.4280.141","Windows","5.2","29679","","{""Attention1"":""""}","[0]"
"","","","","","html-button-response","133","241837","0.0-6.0","89","1","2022-10-07 08:57:19","d60b49b5908c80e163b920d72b52d584","27.189.211.25","Mozilla/5.0 (Windows; U; Windows NT 5.2; en-US) AppleWebKit/537.36 (KHTML, like Gecko) Safari/537.36 VivoBrowser/11.5.10.0 Chrome/87.0.4280.141","WebKit","Chrome","87.0.4280.141","Windows","5.2","5325","<p style=""font-size:20px;font-weight:bold;"">恭喜！</p><p>你已经完成了实验的第一部分。</p><p>请休息放松一下，然后进入第二部分。</p><p>这部分大约需要10分钟。</p>","0",""
"","","","","","survey-text","134","264386","0.0-7.0","89","1","2022-10-07 08:57:19","d60b49b5908c80e163b920d72b52d584","27.189.211.25","Mozilla/5.0 (Windows; U; Windows NT 5.2; en-US) AppleWebKit/537.36 (KHTML, like Gecko) Safari/537.36 VivoBrowser/11.5.10.0 Chrome/87.0.4280.141","WebKit","Chrome","87.0.4280.141","Windows","5.2","21267","","{""Age"":""22"",""Nation"":""中国"",""Born"":""北京"",""Live"":""北京"",""Ethnic"":""汉族"",""Alipay"":""15369662953""}",""
"","","","","","survey-multi-choice","135","343346","0.0-8.0","89","1","2022-10-07 08:57:19","d60b49b5908c80e163b920d72b52d584","27.189.211.25","Mozilla/5.0 (Windows; U; Windows NT 5.2; en-US) AppleWebKit/537.36 (KHTML, like Gecko) Safari/537.36 VivoBrowser/11.5.10.0 Chrome/87.0.4280.141","WebKit","Chrome","87.0.4280.141","Windows","5.2","78901","","{""Gender"":""女"",""Education"":""本科毕业"",""Income"":""￥700,000-￥874,999"",""Children"":""0"",""Race"":""亚洲人""}","[0,1,2,3,4]"
"","","","","","survey-multi-select","136","359992","0.0-9.0","89","1","2022-10-07 08:57:19","d60b49b5908c80e163b920d72b52d584","27.189.211.25","Mozilla/5.0 (Windows; U; Windows NT 5.2; en-US) AppleWebKit/537.36 (KHTML, like Gecko) Safari/537.36 VivoBrowser/11.5.10.0 Chrome/87.0.4280.141","WebKit","Chrome","87.0.4280.141","Windows","5.2","16529","","{""Marriage"":[""已婚""],""Religion"":[""无宗教信仰""]}","[0,1]"
"","","","","","survey-multi-choice","137","373846","0.0-10.0","89","1","2022-10-07 08:57:19","d60b49b5908c80e163b920d72b52d584","27.189.211.25","Mozilla/5.0 (Windows; U; Windows NT 5.2; en-US) AppleWebKit/537.36 (KHTML, like Gecko) Safari/537.36 VivoBrowser/11.5.10.0 Chrome/87.0.4280.141","WebKit","Chrome","87.0.4280.141","Windows","5.2","13806","","{""SES"":""8""}","[0]"
"","","","","","html-button-response","138","377768","0.0-11.0","89","1","2022-10-07 08:57:19","d60b49b5908c80e163b920d72b52d584","27.189.211.25","Mozilla/5.0 (Windows; U; Windows NT 5.2; en-US) AppleWebKit/537.36 (KHTML, like Gecko) Safari/537.36 VivoBrowser/11.5.10.0 Chrome/87.0.4280.141","WebKit","Chrome","87.0.4280.141","Windows","5.2","3863","<p><strong>请判断下列陈述在多大程度上可以形容你？</p><p> (1 = ""和我一点都不像"" to 5 = ""非常像我"".)</strong></p>","0",""
"","","","","","survey-likert","139","415489","0.0-12.0","89","1","2022-10-07 08:57:19","d60b49b5908c80e163b920d72b52d584","27.189.211.25","Mozilla/5.0 (Windows; U; Windows NT 5.2; en-US) AppleWebKit/537.36 (KHTML, like Gecko) Safari/537.36 VivoBrowser/11.5.10.0 Chrome/87.0.4280.141","WebKit","Chrome","87.0.4280.141","Windows","5.2","37668","","{""Aggression1"":0,""Aggression2"":4,""Aggression3"":4,""Aggression4"":0,""Aggression5"":4,""Aggression6"":4,""Aggression7"":0,""Aggression8"":0,""Aggression9"":0}","[0,1,2,3,4,5,6,7,8]"
"","","","","","html-button-response","140","418042","0.0-13.0","89","1","2022-10-07 08:57:19","d60b49b5908c80e163b920d72b52d584","27.189.211.25","Mozilla/5.0 (Windows; U; Windows NT 5.2; en-US) AppleWebKit/537.36 (KHTML, like Gecko) Safari/537.36 VivoBrowser/11.5.10.0 Chrome/87.0.4280.141","WebKit","Chrome","87.0.4280.141","Windows","5.2","2497","<p><strong>请判断你在多大程度上同意下列陈述。</strong></p>","0",""
"","","","","","survey-likert","141","523930","0.0-14.0","89","1","2022-10-07 08:57:19","d60b49b5908c80e163b920d72b52d584","27.189.211.25","Mozilla/5.0 (Windows; U; Windows NT 5.2; en-US) AppleWebKit/537.36 (KHTML, like Gecko) Safari/537.36 VivoBrowser/11.5.10.0 Chrome/87.0.4280.141","WebKit","Chrome","87.0.4280.141","Windows","5.2","105805","","{""scale7"":4,""scale4"":0,""scale28"":4,""scale17"":0,""scale24"":0,""scale12"":3,""scale10"":0,""scale25"":4,""scale15"":0,""scale22"":3,""scale9"":4,""scale16"":0,""scale3"":0,""scale2"":4,""scale14"":0,""scale18"":0,""scale26"":1,""scale23"":1,""scale6"":0,""scale5"":0,""scale11"":4,""scale19"":4,""scale27"":0,""scale21"":4,""scale8"":4,""scale20"":1,""scale13"":1,""scale1"":0}","[6,3,27,16,23,11,9,24,14,21,8,15,2,1,13,17,25,22,5,4,10,18,26,20,7,19,12,0]"
"","","","","","html-button-response","142","525328","0.0-15.0","89","1","2022-10-07 08:57:19","d60b49b5908c80e163b920d72b52d584","27.189.211.25","Mozilla/5.0 (Windows; U; Windows NT 5.2; en-US) AppleWebKit/537.36 (KHTML, like Gecko) Safari/537.36 VivoBrowser/11.5.10.0 Chrome/87.0.4280.141","WebKit","Chrome","87.0.4280.141","Windows","5.2","1349","<p><strong>请判断你在多大程度上同意下列陈述。</strong></p>","0",""
"","","","","","survey-likert","143","599794","0.0-16.0","89","1","2022-10-07 08:57:19","d60b49b5908c80e163b920d72b52d584","27.189.211.25","Mozilla/5.0 (Windows; U; Windows NT 5.2; en-US) AppleWebKit/537.36 (KHTML, like Gecko) Safari/537.36 VivoBrowser/11.5.10.0 Chrome/87.0.4280.141","WebKit","Chrome","87.0.4280.141","Windows","5.2","74407","","{""sdo13"":6,""sdo14"":6,""sdo2"":0,""sdo15"":6,""sdo1"":4,""sdo7"":5,""sdo10"":6,""sdo12"":6,""sdo16"":6,""sdo9"":6,""sdo4"":0,""sdo3"":1,""sdo11"":6,""sdo6"":0,""sdo5"":4,""sdo8"":4}","[12,13,1,14,0,6,9,11,15,8,3,2,10,5,4,7]"
"","","","","","html-button-response","144","601168","0.0-17.0","89","1","2022-10-07 08:57:19","d60b49b5908c80e163b920d72b52d584","27.189.211.25","Mozilla/5.0 (Windows; U; Windows NT 5.2; en-US) AppleWebKit/537.36 (KHTML, like Gecko) Safari/537.36 VivoBrowser/11.5.10.0 Chrome/87.0.4280.141","WebKit","Chrome","87.0.4280.141","Windows","5.2","1312","<p><strong>请判断你在多大程度上同意下列陈述。</strong></p>","0",""
"","","","","","survey-likert","145","635838","0.0-18.0","89","1","2022-10-07 08:57:19","d60b49b5908c80e163b920d72b52d584","27.189.211.25","Mozilla/5.0 (Windows; U; Windows NT 5.2; en-US) AppleWebKit/537.36 (KHTML, like Gecko) Safari/537.36 VivoBrowser/11.5.10.0 Chrome/87.0.4280.141","WebKit","Chrome","87.0.4280.141","Windows","5.2","34618","","{""caring1"":4,""liking1"":0,""caring2"":4,""protection1"":0,""liking2"":0,""caring3"":4,""protection2"":0,""liking3"":0,""protection3"":4,""caring4"":4,""liking4"":0,""protection4"":4,""caring5"":4,""liking5"":0,""protection5"":3}","[0,1,2,3,4,5,6,7,8,9,10,11,12,13,14]"
"","","","","","html-button-response","146","636896","0.0-19.0","89","1","2022-10-07 08:57:19","d60b49b5908c80e163b920d72b52d584","27.189.211.25","Mozilla/5.0 (Windows; U; Windows NT 5.2; en-US) AppleWebKit/537.36 (KHTML, like Gecko) Safari/537.36 VivoBrowser/11.5.10.0 Chrome/87.0.4280.141","WebKit","Chrome","87.0.4280.141","Windows","5.2","1011","<p><strong>请判断下列场景中你的内心感受有多柔软。</strong></p>","0",""
"","","","","","survey-likert","147","665385","0.0-20.0","89","1","2022-10-07 08:57:19","d60b49b5908c80e163b920d72b52d584","27.189.211.25","Mozilla/5.0 (Windows; U; Windows NT 5.2; en-US) AppleWebKit/537.36 (KHTML, like Gecko) Safari/537.36 VivoBrowser/11.5.10.0 Chrome/87.0.4280.141","WebKit","Chrome","87.0.4280.141","Windows","5.2","28433","","{""tenderness-positive1"":4,""tenderness-negative1"":4,""tenderness-negative2"":3,""tenderness-positive2"":4,""tenderness-positive3"":4,""tenderness-negative3"":1,""tenderness-positive4"":4,""tendereness-negative4"":1,""tendernness-negative5"":1,""tenderness-positive5"":4}","[0,1,2,3,4,5,6,7,8,9]"
"","","","","","survey-multi-choice","148","684961","0.0-21.0","89","1","2022-10-07 08:57:19","d60b49b5908c80e163b920d72b52d584","27.189.211.25","Mozilla/5.0 (Windows; U; Windows NT 5.2; en-US) AppleWebKit/537.36 (KHTML, like Gecko) Safari/537.36 VivoBrowser/11.5.10.0 Chrome/87.0.4280.141","WebKit","Chrome","87.0.4280.141","Windows","5.2","19496","","{""Attention2"":""其他""}","[0]"
"","","","","","html-button-response","149","686443","0.0-22.0","89","1","2022-10-07 08:57:19","d60b49b5908c80e163b920d72b52d584","27.189.211.25","Mozilla/5.0 (Windows; U; Windows NT 5.2; en-US) AppleWebKit/537.36 (KHTML, like Gecko) Safari/537.36 VivoBrowser/11.5.10.0 Chrome/87.0.4280.141","WebKit","Chrome","87.0.4280.141","Windows","5.2","1380","<p><strong>请判断你在多大程度上同意下列陈述。</strong></p>","0",""
"","","","","","survey-likert","150","763727","0.0-23.0","89","1","2022-10-07 08:57:19","d60b49b5908c80e163b920d72b52d584","27.189.211.25","Mozilla/5.0 (Windows; U; Windows NT 5.2; en-US) AppleWebKit/537.36 (KHTML, like Gecko) Safari/537.36 VivoBrowser/11.5.10.0 Chrome/87.0.4280.141","WebKit","Chrome","87.0.4280.141","Windows","5.2","77192","","{""Nation7"":4,""Nation1"":0,""Nation3"":3,""Nation2"":4,""Patri3"":4,""Patri9"":0,""Patri10"":0,""Patri11"":0,""Nation8"":0,""Patri7"":4,""Patri1"":4,""Nation5"":4,""Patri5"":4,""Nation6"":3,""Patri4"":4,""Patri6"":0,""Patri8"":4,""Patri2"":4,""Patri12"":0,""Nation4"":4}","[18,12,14,13,2,8,9,10,19,6,0,16,4,17,3,5,7,1,11,15]"
"","","","","","html-button-response","151","765042","0.0-24.0","89","1","2022-10-07 08:57:19","d60b49b5908c80e163b920d72b52d584","27.189.211.25","Mozilla/5.0 (Windows; U; Windows NT 5.2; en-US) AppleWebKit/537.36 (KHTML, like Gecko) Safari/537.36 VivoBrowser/11.5.10.0 Chrome/87.0.4280.141","WebKit","Chrome","87.0.4280.141","Windows","5.2","1270","<p><strong>请判断你在多大程度上同意下列陈述。</strong></p>","0",""
"","","","","","survey-likert","152","887823","0.0-25.0","89","1","2022-10-07 08:57:19","d60b49b5908c80e163b920d72b52d584","27.189.211.25","Mozilla/5.0 (Windows; U; Windows NT 5.2; en-US) AppleWebKit/537.36 (KHTML, like Gecko) Safari/537.36 VivoBrowser/11.5.10.0 Chrome/87.0.4280.141","WebKit","Chrome","87.0.4280.141","Windows","5.2","122708","","{""vc4"":8,""hc2"":8,""vi4"":0,""vi2"":0,""vi3"":1,""hi2"":0,""vc2"":8,""vc1"":8,""vc3"":8,""hi1"":8,""hi4"":0,""vi1"":0,""Robot"":6,""hc1"":8,""hi3"":0,""hc3"":8,""hc4"":8}","[16,10,8,5,6,1,14,13,15,0,3,4,7,9,2,11,12]"
"","","","","","survey-text","153","893543","0.0-26.0","89","1","2022-10-07 08:57:19","d60b49b5908c80e163b920d72b52d584","27.189.211.25","Mozilla/5.0 (Windows; U; Windows NT 5.2; en-US) AppleWebKit/537.36 (KHTML, like Gecko) Safari/537.36 VivoBrowser/11.5.10.0 Chrome/87.0.4280.141","WebKit","Chrome","87.0.4280.141","Windows","5.2","5628","","{""Comments"":""无""}",""
"","","","","","html-button-response","154","894734","0.0-27.0","89","1","2022-10-07 08:57:19","d60b49b5908c80e163b920d72b52d584","27.189.211.25","Mozilla/5.0 (Windows; U; Windows NT 5.2; en-US) AppleWebKit/537.36 (KHTML, like Gecko) Safari/537.36 VivoBrowser/11.5.10.0 Chrome/87.0.4280.141","WebKit","Chrome","87.0.4280.141","Windows","5.2","1157","<strong><p>恭喜你完成了实验！</p><p>感谢您的参与。</p></strong>","0",""
