"success","timeout","failed_images","failed_audio","failed_video","trial_type","trial_index","time_elapsed","internal_node_id","run_id","condition","recorded_at","source_code_version","ip","user_agent","device","browser","browser_version","platform","platform_version","rt","stimulus","response","question_order"
"true","false","[]","[]","[]","preload","0","3229","0.0-0.0","94","1","2022-10-07 10:48:48","d60b49b5908c80e163b920d72b52d584","60.249.3.227","Mozilla/5.0 (Windows NT 10.0; Win64; x64) AppleWebKit/537.36 (KHTML, like Gecko) Chrome/106.0.0.0 Safari/537.36 Edg/106.0.1370.34","WebKit","Edge","106.0.1370.34","Windows","10.0","","","",""
"true","","","","","fullscreen","1","53438","0.0-1.0","94","1","2022-10-07 10:48:48","d60b49b5908c80e163b920d72b52d584","60.249.3.227","Mozilla/5.0 (Windows NT 10.0; Win64; x64) AppleWebKit/537.36 (KHTML, like Gecko) Chrome/106.0.0.0 Safari/537.36 Edg/106.0.1370.34","WebKit","Edge","106.0.1370.34","Windows","10.0","","","",""
"","","","","","html-button-response","2","108619","0.0-2.0","94","1","2022-10-07 10:48:48","d60b49b5908c80e163b920d72b52d584","60.249.3.227","Mozilla/5.0 (Windows NT 10.0; Win64; x64) AppleWebKit/537.36 (KHTML, like Gecko) Chrome/106.0.0.0 Safari/537.36 Edg/106.0.1370.34","WebKit","Edge","106.0.1370.34","Windows","10.0","55180","<p style=""font-size:20px;font-weight:bold;"">实验知情同意书</p><p style=""text-align:left;""><strong>实验名称：</strong>社会冲突研究</p><p style=""text-align:left;""><strong>主要研究者：</strong>韩晓春副教授（北京师范大学心理学部）</p><p style=""text-align:left;""><strong>联系方式：</strong>发送邮件至xiaochun.han@bnu.edu.cn</p><p style=""text-align:left;""><strong>研究目的：</strong>研究旨在了解人类面对群体冲突时的决策方式，以及相关的心理学特质。实验调查大约需要20分钟。</p><p style=""text-align:left;""><strong>实验流程：</strong>实验包含两部分。第一部分呈现一系列群体冲突场景，请你决定如何对这些冲突进行反应，大约需要10分钟完成。第二部分包含一系列人口统计学信息收集和心理学问卷，大约需要10分钟完成。</p><p style=""text-align:left;""><strong>参加及退出规则：</strong>参加本实验完全取决于您的个人意愿。在参与过程中，您可以随时退出，并且不用承担任何后果。</p><p style=""text-align:left;""><strong>隐私：</strong>本实验完全匿名进行，不会收集您的姓名或其他能够识别您身份的信息。实验中收集的作答仅用作科学研究使用，可能会在学术期刊/书籍上发表，或者用于教学，您的数据未来可能会和其他研究者或实验室分享，但您的个人身份不会被识别。</p><p style=""text-align:left;""><strong>实验报酬：</strong>实验完成后，您将获得15元人民币报酬，以感谢您的时间和努力。调查问卷中包含几道题目用以测验您作答时的认真度。只有完成全部实验，并且正确回答认真度测验的被试才能获得实验报酬。实验报酬将通过支付宝转账发放。</p><p style=""text-align:left;font-size:20px;""><strong>如果您同意以上实验知情同意书的内容，请点击'同意并且开始实验'按钮；否则请关闭浏览器界面，退出实验。</strong></p>","0",""
"","","","","","html-button-response","3","132088","0.0-3.0","94","1","2022-10-07 10:48:48","d60b49b5908c80e163b920d72b52d584","60.249.3.227","Mozilla/5.0 (Windows NT 10.0; Win64; x64) AppleWebKit/537.36 (KHTML, like Gecko) Chrome/106.0.0.0 Safari/537.36 Edg/106.0.1370.34","WebKit","Edge","106.0.1370.34","Windows","10.0","23468","<p ><strong>实验任务一：</strong></p><p>请想象你的国家与另一个国家发生了军事冲突。</p><p>你是国家军队的指挥官，你将如何在冲突中进行决策。</p><p>具体来说，作为军队指挥官，请你决定是否发射导弹进行打击。</p><p>接下来，你会面对一系列场景，请仔细阅读每个场景，然后进行决策。</p><p>这部分实验任务大约需要10分钟。</p><p><strong>实验过程中，请集中注意力。</strong></p>","0",""
"","","","","","html-keyboard-response","4","133098","0.0-4.0-0.0","94","1","2022-10-07 10:48:48","d60b49b5908c80e163b920d72b52d584","60.249.3.227","Mozilla/5.0 (Windows NT 10.0; Win64; x64) AppleWebKit/537.36 (KHTML, like Gecko) Chrome/106.0.0.0 Safari/537.36 Edg/106.0.1370.34","WebKit","Edge","106.0.1370.34","Windows","10.0","null","<div style=""font-size:60px;"">+</div>","null",""
"","","","","","html-button-response","5","146033","0.0-4.0-1.0","94","1","2022-10-07 10:48:48","d60b49b5908c80e163b920d72b52d584","60.249.3.227","Mozilla/5.0 (Windows NT 10.0; Win64; x64) AppleWebKit/537.36 (KHTML, like Gecko) Chrome/106.0.0.0 Safari/537.36 Edg/106.0.1370.34","WebKit","Edge","106.0.1370.34","Windows","10.0","12932","<p>作为军队的指挥官，你可以选择发射导弹杀死 <strong>1名</strong> 敌国士兵，但会炸毁附近的 <strong>1棵</strong> 敌国树木。</p> <p>树木的照片如下图所示。</p> <p></p> <img src='stimuli/trees/4.png', style='max-width: 30%;'> </img> <p><strong>你是否选择发射武器？</strong></p>","0",""
"","","","","","html-keyboard-response","6","147036","0.0-4.0-0.1","94","1","2022-10-07 10:48:48","d60b49b5908c80e163b920d72b52d584","60.249.3.227","Mozilla/5.0 (Windows NT 10.0; Win64; x64) AppleWebKit/537.36 (KHTML, like Gecko) Chrome/106.0.0.0 Safari/537.36 Edg/106.0.1370.34","WebKit","Edge","106.0.1370.34","Windows","10.0","null","<div style=""font-size:60px;"">+</div>","null",""
"","","","","","html-button-response","7","154223","0.0-4.0-1.1","94","1","2022-10-07 10:48:48","d60b49b5908c80e163b920d72b52d584","60.249.3.227","Mozilla/5.0 (Windows NT 10.0; Win64; x64) AppleWebKit/537.36 (KHTML, like Gecko) Chrome/106.0.0.0 Safari/537.36 Edg/106.0.1370.34","WebKit","Edge","106.0.1370.34","Windows","10.0","7185","<p>作为军队的指挥官，你可以选择发射导弹杀死 <strong>10名</strong> 敌国士兵，但会误杀附近的 <strong>1名</strong> 敌国平民。</p> <p>平民照片如下图所示。</p> <p></p> <img src='stimuli/faces/NCM5.jpg', style='max-width: 30%;'> </img> <p><strong>你是否选择发射武器？</strong></p>","1",""
"","","","","","html-keyboard-response","8","155231","0.0-4.0-0.2","94","1","2022-10-07 10:48:48","d60b49b5908c80e163b920d72b52d584","60.249.3.227","Mozilla/5.0 (Windows NT 10.0; Win64; x64) AppleWebKit/537.36 (KHTML, like Gecko) Chrome/106.0.0.0 Safari/537.36 Edg/106.0.1370.34","WebKit","Edge","106.0.1370.34","Windows","10.0","null","<div style=""font-size:60px;"">+</div>","null",""
"","","","","","html-button-response","9","161304","0.0-4.0-1.2","94","1","2022-10-07 10:48:48","d60b49b5908c80e163b920d72b52d584","60.249.3.227","Mozilla/5.0 (Windows NT 10.0; Win64; x64) AppleWebKit/537.36 (KHTML, like Gecko) Chrome/106.0.0.0 Safari/537.36 Edg/106.0.1370.34","WebKit","Edge","106.0.1370.34","Windows","10.0","6072","<p>作为军队的指挥官，你可以选择发射导弹杀死 <strong>9名</strong> 敌国士兵，但会炸毁附近的 <strong>1棵</strong> 敌国树木。</p> <p>树木的照片如下图所示。</p> <p></p> <img src='stimuli/trees/12.png', style='max-width: 30%;'> </img> <p><strong>你是否选择发射武器？</strong></p>","0",""
"","","","","","html-keyboard-response","10","162306","0.0-4.0-0.3","94","1","2022-10-07 10:48:48","d60b49b5908c80e163b920d72b52d584","60.249.3.227","Mozilla/5.0 (Windows NT 10.0; Win64; x64) AppleWebKit/537.36 (KHTML, like Gecko) Chrome/106.0.0.0 Safari/537.36 Edg/106.0.1370.34","WebKit","Edge","106.0.1370.34","Windows","10.0","null","<div style=""font-size:60px;"">+</div>","null",""
"","","","","","html-button-response","11","166715","0.0-4.0-1.3","94","1","2022-10-07 10:48:48","d60b49b5908c80e163b920d72b52d584","60.249.3.227","Mozilla/5.0 (Windows NT 10.0; Win64; x64) AppleWebKit/537.36 (KHTML, like Gecko) Chrome/106.0.0.0 Safari/537.36 Edg/106.0.1370.34","WebKit","Edge","106.0.1370.34","Windows","10.0","4407","<p>作为军队的指挥官，你可以选择发射导弹杀死 <strong>6名</strong> 敌国士兵，但会误杀附近的 <strong>1名</strong> 敌国平民。</p> <p>平民照片如下图所示。</p> <p></p> <img src='stimuli/faces/NCM2.jpg', style='max-width: 30%;'> </img> <p><strong>你是否选择发射武器？</strong></p>","1",""
"","","","","","html-keyboard-response","12","167720","0.0-4.0-0.4","94","1","2022-10-07 10:48:48","d60b49b5908c80e163b920d72b52d584","60.249.3.227","Mozilla/5.0 (Windows NT 10.0; Win64; x64) AppleWebKit/537.36 (KHTML, like Gecko) Chrome/106.0.0.0 Safari/537.36 Edg/106.0.1370.34","WebKit","Edge","106.0.1370.34","Windows","10.0","null","<div style=""font-size:60px;"">+</div>","null",""
"","","","","","html-button-response","13","175536","0.0-4.0-1.4","94","1","2022-10-07 10:48:48","d60b49b5908c80e163b920d72b52d584","60.249.3.227","Mozilla/5.0 (Windows NT 10.0; Win64; x64) AppleWebKit/537.36 (KHTML, like Gecko) Chrome/106.0.0.0 Safari/537.36 Edg/106.0.1370.34","WebKit","Edge","106.0.1370.34","Windows","10.0","7814","<p>作为军队的指挥官，你可以选择发射导弹杀死 <strong>8名</strong> 敌国士兵，但会炸毁附近的 <strong>1棵</strong> 敌国树木。</p> <p>树木的照片如下图所示。</p> <p></p> <img src='stimuli/trees/3.png', style='max-width: 30%;'> </img> <p><strong>你是否选择发射武器？</strong></p>","0",""
"","","","","","html-keyboard-response","14","176544","0.0-4.0-0.5","94","1","2022-10-07 10:48:48","d60b49b5908c80e163b920d72b52d584","60.249.3.227","Mozilla/5.0 (Windows NT 10.0; Win64; x64) AppleWebKit/537.36 (KHTML, like Gecko) Chrome/106.0.0.0 Safari/537.36 Edg/106.0.1370.34","WebKit","Edge","106.0.1370.34","Windows","10.0","null","<div style=""font-size:60px;"">+</div>","null",""
"","","","","","html-button-response","15","180703","0.0-4.0-1.5","94","1","2022-10-07 10:48:48","d60b49b5908c80e163b920d72b52d584","60.249.3.227","Mozilla/5.0 (Windows NT 10.0; Win64; x64) AppleWebKit/537.36 (KHTML, like Gecko) Chrome/106.0.0.0 Safari/537.36 Edg/106.0.1370.34","WebKit","Edge","106.0.1370.34","Windows","10.0","4156","<p>作为军队的指挥官，你可以选择发射导弹杀死 <strong>9名</strong> 敌国士兵，但会误杀附近的 <strong>1名</strong> 敌国平民。</p> <p>平民照片如下图所示。</p> <p></p> <img src='stimuli/faces/NCF1.jpg', style='max-width: 30%;'> </img> <p><strong>你是否选择发射武器？</strong></p>","1",""
"","","","","","html-keyboard-response","16","181708","0.0-4.0-0.6","94","1","2022-10-07 10:48:48","d60b49b5908c80e163b920d72b52d584","60.249.3.227","Mozilla/5.0 (Windows NT 10.0; Win64; x64) AppleWebKit/537.36 (KHTML, like Gecko) Chrome/106.0.0.0 Safari/537.36 Edg/106.0.1370.34","WebKit","Edge","106.0.1370.34","Windows","10.0","null","<div style=""font-size:60px;"">+</div>","null",""
"","","","","","html-button-response","17","184897","0.0-4.0-1.6","94","1","2022-10-07 10:48:48","d60b49b5908c80e163b920d72b52d584","60.249.3.227","Mozilla/5.0 (Windows NT 10.0; Win64; x64) AppleWebKit/537.36 (KHTML, like Gecko) Chrome/106.0.0.0 Safari/537.36 Edg/106.0.1370.34","WebKit","Edge","106.0.1370.34","Windows","10.0","3187","<p>作为军队的指挥官，你可以选择发射导弹杀死 <strong>3名</strong> 敌国士兵，但会误杀附近的 <strong>1名</strong> 敌国平民。</p> <p>平民照片如下图所示。</p> <p></p> <img src='stimuli/faces/NCM3.jpg', style='max-width: 30%;'> </img> <p><strong>你是否选择发射武器？</strong></p>","1",""
"","","","","","html-keyboard-response","18","185904","0.0-4.0-0.7","94","1","2022-10-07 10:48:48","d60b49b5908c80e163b920d72b52d584","60.249.3.227","Mozilla/5.0 (Windows NT 10.0; Win64; x64) AppleWebKit/537.36 (KHTML, like Gecko) Chrome/106.0.0.0 Safari/537.36 Edg/106.0.1370.34","WebKit","Edge","106.0.1370.34","Windows","10.0","null","<div style=""font-size:60px;"">+</div>","null",""
"","","","","","html-button-response","19","192867","0.0-4.0-1.7","94","1","2022-10-07 10:48:48","d60b49b5908c80e163b920d72b52d584","60.249.3.227","Mozilla/5.0 (Windows NT 10.0; Win64; x64) AppleWebKit/537.36 (KHTML, like Gecko) Chrome/106.0.0.0 Safari/537.36 Edg/106.0.1370.34","WebKit","Edge","106.0.1370.34","Windows","10.0","6961","<p>作为军队的指挥官，你可以选择发射导弹杀死 <strong>8名</strong> 敌国士兵，但会炸毁附近的 <strong>1棵</strong> 敌国树木。</p> <p>树木的照片如下图所示。</p> <p></p> <img src='stimuli/trees/5.png', style='max-width: 30%;'> </img> <p><strong>你是否选择发射武器？</strong></p>","0",""
"","","","","","html-keyboard-response","20","193869","0.0-4.0-0.8","94","1","2022-10-07 10:48:48","d60b49b5908c80e163b920d72b52d584","60.249.3.227","Mozilla/5.0 (Windows NT 10.0; Win64; x64) AppleWebKit/537.36 (KHTML, like Gecko) Chrome/106.0.0.0 Safari/537.36 Edg/106.0.1370.34","WebKit","Edge","106.0.1370.34","Windows","10.0","null","<div style=""font-size:60px;"">+</div>","null",""
"","","","","","html-button-response","21","199691","0.0-4.0-1.8","94","1","2022-10-07 10:48:48","d60b49b5908c80e163b920d72b52d584","60.249.3.227","Mozilla/5.0 (Windows NT 10.0; Win64; x64) AppleWebKit/537.36 (KHTML, like Gecko) Chrome/106.0.0.0 Safari/537.36 Edg/106.0.1370.34","WebKit","Edge","106.0.1370.34","Windows","10.0","5820","<p>作为军队的指挥官，你可以选择发射导弹杀死 <strong>1名</strong> 敌国士兵，但会误杀附近的 <strong>1名</strong> 敌国平民。</p> <p>平民照片如下图所示。</p> <p></p> <img src='stimuli/faces/NCF4.jpg', style='max-width: 30%;'> </img> <p><strong>你是否选择发射武器？</strong></p>","1",""
"","","","","","html-keyboard-response","22","200708","0.0-4.0-0.9","94","1","2022-10-07 10:48:48","d60b49b5908c80e163b920d72b52d584","60.249.3.227","Mozilla/5.0 (Windows NT 10.0; Win64; x64) AppleWebKit/537.36 (KHTML, like Gecko) Chrome/106.0.0.0 Safari/537.36 Edg/106.0.1370.34","WebKit","Edge","106.0.1370.34","Windows","10.0","null","<div style=""font-size:60px;"">+</div>","null",""
"","","","","","html-button-response","23","206333","0.0-4.0-1.9","94","1","2022-10-07 10:48:48","d60b49b5908c80e163b920d72b52d584","60.249.3.227","Mozilla/5.0 (Windows NT 10.0; Win64; x64) AppleWebKit/537.36 (KHTML, like Gecko) Chrome/106.0.0.0 Safari/537.36 Edg/106.0.1370.34","WebKit","Edge","106.0.1370.34","Windows","10.0","5622","<p>作为军队的指挥官，你可以选择发射导弹杀死 <strong>6名</strong> 敌国士兵，但会误杀附近的 <strong>1名</strong> 敌国平民。</p> <p>平民照片如下图所示。</p> <p></p> <img src='stimuli/faces/NCM3.jpg', style='max-width: 30%;'> </img> <p><strong>你是否选择发射武器？</strong></p>","1",""
"","","","","","html-keyboard-response","24","207341","0.0-4.0-0.10","94","1","2022-10-07 10:48:48","d60b49b5908c80e163b920d72b52d584","60.249.3.227","Mozilla/5.0 (Windows NT 10.0; Win64; x64) AppleWebKit/537.36 (KHTML, like Gecko) Chrome/106.0.0.0 Safari/537.36 Edg/106.0.1370.34","WebKit","Edge","106.0.1370.34","Windows","10.0","null","<div style=""font-size:60px;"">+</div>","null",""
"","","","","","html-button-response","25","212215","0.0-4.0-1.10","94","1","2022-10-07 10:48:48","d60b49b5908c80e163b920d72b52d584","60.249.3.227","Mozilla/5.0 (Windows NT 10.0; Win64; x64) AppleWebKit/537.36 (KHTML, like Gecko) Chrome/106.0.0.0 Safari/537.36 Edg/106.0.1370.34","WebKit","Edge","106.0.1370.34","Windows","10.0","4872","<p>作为军队的指挥官，你可以选择发射导弹杀死 <strong>10名</strong> 敌国士兵，但会炸毁附近的 <strong>1棵</strong> 敌国树木。</p> <p>树木的照片如下图所示。</p> <p></p> <img src='stimuli/trees/11.png', style='max-width: 30%;'> </img> <p><strong>你是否选择发射武器？</strong></p>","0",""
"","","","","","html-keyboard-response","26","213231","0.0-4.0-0.11","94","1","2022-10-07 10:48:48","d60b49b5908c80e163b920d72b52d584","60.249.3.227","Mozilla/5.0 (Windows NT 10.0; Win64; x64) AppleWebKit/537.36 (KHTML, like Gecko) Chrome/106.0.0.0 Safari/537.36 Edg/106.0.1370.34","WebKit","Edge","106.0.1370.34","Windows","10.0","null","<div style=""font-size:60px;"">+</div>","null",""
"","","","","","html-button-response","27","219725","0.0-4.0-1.11","94","1","2022-10-07 10:48:48","d60b49b5908c80e163b920d72b52d584","60.249.3.227","Mozilla/5.0 (Windows NT 10.0; Win64; x64) AppleWebKit/537.36 (KHTML, like Gecko) Chrome/106.0.0.0 Safari/537.36 Edg/106.0.1370.34","WebKit","Edge","106.0.1370.34","Windows","10.0","6492","<p>作为军队的指挥官，你可以选择发射导弹杀死 <strong>5名</strong> 敌国士兵，但会误杀附近的 <strong>1名</strong> 敌国平民。</p> <p>平民照片如下图所示。</p> <p></p> <img src='stimuli/faces/NCF1.jpg', style='max-width: 30%;'> </img> <p><strong>你是否选择发射武器？</strong></p>","1",""
"","","","","","html-keyboard-response","28","220742","0.0-4.0-0.12","94","1","2022-10-07 10:48:48","d60b49b5908c80e163b920d72b52d584","60.249.3.227","Mozilla/5.0 (Windows NT 10.0; Win64; x64) AppleWebKit/537.36 (KHTML, like Gecko) Chrome/106.0.0.0 Safari/537.36 Edg/106.0.1370.34","WebKit","Edge","106.0.1370.34","Windows","10.0","null","<div style=""font-size:60px;"">+</div>","null",""
"","","","","","html-button-response","29","238995","0.0-4.0-1.12","94","1","2022-10-07 10:48:48","d60b49b5908c80e163b920d72b52d584","60.249.3.227","Mozilla/5.0 (Windows NT 10.0; Win64; x64) AppleWebKit/537.36 (KHTML, like Gecko) Chrome/106.0.0.0 Safari/537.36 Edg/106.0.1370.34","WebKit","Edge","106.0.1370.34","Windows","10.0","18250","<p>作为军队的指挥官，你可以选择发射导弹杀死 <strong>1名</strong> 敌国士兵，但会炸毁附近的 <strong>1棵</strong> 敌国树木。</p> <p>树木的照片如下图所示。</p> <p></p> <img src='stimuli/trees/1.png', style='max-width: 30%;'> </img> <p><strong>你是否选择发射武器？</strong></p>","1",""
"","","","","","html-keyboard-response","30","240010","0.0-4.0-0.13","94","1","2022-10-07 10:48:48","d60b49b5908c80e163b920d72b52d584","60.249.3.227","Mozilla/5.0 (Windows NT 10.0; Win64; x64) AppleWebKit/537.36 (KHTML, like Gecko) Chrome/106.0.0.0 Safari/537.36 Edg/106.0.1370.34","WebKit","Edge","106.0.1370.34","Windows","10.0","null","<div style=""font-size:60px;"">+</div>","null",""
"","","","","","html-button-response","31","244545","0.0-4.0-1.13","94","1","2022-10-07 10:48:48","d60b49b5908c80e163b920d72b52d584","60.249.3.227","Mozilla/5.0 (Windows NT 10.0; Win64; x64) AppleWebKit/537.36 (KHTML, like Gecko) Chrome/106.0.0.0 Safari/537.36 Edg/106.0.1370.34","WebKit","Edge","106.0.1370.34","Windows","10.0","4533","<p>作为军队的指挥官，你可以选择发射导弹杀死 <strong>3名</strong> 敌国士兵，但会炸毁附近的 <strong>1棵</strong> 敌国树木。</p> <p>树木的照片如下图所示。</p> <p></p> <img src='stimuli/trees/16.png', style='max-width: 30%;'> </img> <p><strong>你是否选择发射武器？</strong></p>","0",""
"","","","","","html-keyboard-response","32","245547","0.0-4.0-0.14","94","1","2022-10-07 10:48:48","d60b49b5908c80e163b920d72b52d584","60.249.3.227","Mozilla/5.0 (Windows NT 10.0; Win64; x64) AppleWebKit/537.36 (KHTML, like Gecko) Chrome/106.0.0.0 Safari/537.36 Edg/106.0.1370.34","WebKit","Edge","106.0.1370.34","Windows","10.0","null","<div style=""font-size:60px;"">+</div>","null",""
"","","","","","html-button-response","33","247996","0.0-4.0-1.14","94","1","2022-10-07 10:48:48","d60b49b5908c80e163b920d72b52d584","60.249.3.227","Mozilla/5.0 (Windows NT 10.0; Win64; x64) AppleWebKit/537.36 (KHTML, like Gecko) Chrome/106.0.0.0 Safari/537.36 Edg/106.0.1370.34","WebKit","Edge","106.0.1370.34","Windows","10.0","2447","<p>作为军队的指挥官，你可以选择发射导弹杀死 <strong>8名</strong> 敌国士兵，但会误杀附近的 <strong>1名</strong> 敌国平民。</p> <p>平民照片如下图所示。</p> <p></p> <img src='stimuli/faces/NCF3.jpg', style='max-width: 30%;'> </img> <p><strong>你是否选择发射武器？</strong></p>","1",""
"","","","","","html-keyboard-response","34","249007","0.0-4.0-0.15","94","1","2022-10-07 10:48:48","d60b49b5908c80e163b920d72b52d584","60.249.3.227","Mozilla/5.0 (Windows NT 10.0; Win64; x64) AppleWebKit/537.36 (KHTML, like Gecko) Chrome/106.0.0.0 Safari/537.36 Edg/106.0.1370.34","WebKit","Edge","106.0.1370.34","Windows","10.0","null","<div style=""font-size:60px;"">+</div>","null",""
"","","","","","html-button-response","35","253299","0.0-4.0-1.15","94","1","2022-10-07 10:48:48","d60b49b5908c80e163b920d72b52d584","60.249.3.227","Mozilla/5.0 (Windows NT 10.0; Win64; x64) AppleWebKit/537.36 (KHTML, like Gecko) Chrome/106.0.0.0 Safari/537.36 Edg/106.0.1370.34","WebKit","Edge","106.0.1370.34","Windows","10.0","4290","<p>作为军队的指挥官，你可以选择发射导弹杀死 <strong>10名</strong> 敌国士兵，但会误杀附近的 <strong>1名</strong> 敌国平民。</p> <p>平民照片如下图所示。</p> <p></p> <img src='stimuli/faces/NCM6.jpg', style='max-width: 30%;'> </img> <p><strong>你是否选择发射武器？</strong></p>","1",""
"","","","","","html-keyboard-response","36","254301","0.0-4.0-0.16","94","1","2022-10-07 10:48:48","d60b49b5908c80e163b920d72b52d584","60.249.3.227","Mozilla/5.0 (Windows NT 10.0; Win64; x64) AppleWebKit/537.36 (KHTML, like Gecko) Chrome/106.0.0.0 Safari/537.36 Edg/106.0.1370.34","WebKit","Edge","106.0.1370.34","Windows","10.0","null","<div style=""font-size:60px;"">+</div>","null",""
"","","","","","html-button-response","37","259078","0.0-4.0-1.16","94","1","2022-10-07 10:48:48","d60b49b5908c80e163b920d72b52d584","60.249.3.227","Mozilla/5.0 (Windows NT 10.0; Win64; x64) AppleWebKit/537.36 (KHTML, like Gecko) Chrome/106.0.0.0 Safari/537.36 Edg/106.0.1370.34","WebKit","Edge","106.0.1370.34","Windows","10.0","4776","<p>作为军队的指挥官，你可以选择发射导弹杀死 <strong>2名</strong> 敌国士兵，但会炸毁附近的 <strong>1棵</strong> 敌国树木。</p> <p>树木的照片如下图所示。</p> <p></p> <img src='stimuli/trees/5.png', style='max-width: 30%;'> </img> <p><strong>你是否选择发射武器？</strong></p>","0",""
"","","","","","html-keyboard-response","38","260093","0.0-4.0-0.17","94","1","2022-10-07 10:48:48","d60b49b5908c80e163b920d72b52d584","60.249.3.227","Mozilla/5.0 (Windows NT 10.0; Win64; x64) AppleWebKit/537.36 (KHTML, like Gecko) Chrome/106.0.0.0 Safari/537.36 Edg/106.0.1370.34","WebKit","Edge","106.0.1370.34","Windows","10.0","null","<div style=""font-size:60px;"">+</div>","null",""
"","","","","","html-button-response","39","264373","0.0-4.0-1.17","94","1","2022-10-07 10:48:48","d60b49b5908c80e163b920d72b52d584","60.249.3.227","Mozilla/5.0 (Windows NT 10.0; Win64; x64) AppleWebKit/537.36 (KHTML, like Gecko) Chrome/106.0.0.0 Safari/537.36 Edg/106.0.1370.34","WebKit","Edge","106.0.1370.34","Windows","10.0","4278","<p>作为军队的指挥官，你可以选择发射导弹杀死 <strong>4名</strong> 敌国士兵，但会误杀附近的 <strong>1名</strong> 敌国平民。</p> <p>平民照片如下图所示。</p> <p></p> <img src='stimuli/faces/NCM4.jpg', style='max-width: 30%;'> </img> <p><strong>你是否选择发射武器？</strong></p>","1",""
"","","","","","html-keyboard-response","40","265375","0.0-4.0-0.18","94","1","2022-10-07 10:48:48","d60b49b5908c80e163b920d72b52d584","60.249.3.227","Mozilla/5.0 (Windows NT 10.0; Win64; x64) AppleWebKit/537.36 (KHTML, like Gecko) Chrome/106.0.0.0 Safari/537.36 Edg/106.0.1370.34","WebKit","Edge","106.0.1370.34","Windows","10.0","null","<div style=""font-size:60px;"">+</div>","null",""
"","","","","","html-button-response","41","270623","0.0-4.0-1.18","94","1","2022-10-07 10:48:48","d60b49b5908c80e163b920d72b52d584","60.249.3.227","Mozilla/5.0 (Windows NT 10.0; Win64; x64) AppleWebKit/537.36 (KHTML, like Gecko) Chrome/106.0.0.0 Safari/537.36 Edg/106.0.1370.34","WebKit","Edge","106.0.1370.34","Windows","10.0","5245","<p>作为军队的指挥官，你可以选择发射导弹杀死 <strong>2名</strong> 敌国士兵，但会误杀附近的 <strong>1名</strong> 敌国平民。</p> <p>平民照片如下图所示。</p> <p></p> <img src='stimuli/faces/NCM5.jpg', style='max-width: 30%;'> </img> <p><strong>你是否选择发射武器？</strong></p>","1",""
"","","","","","html-keyboard-response","42","271624","0.0-4.0-0.19","94","1","2022-10-07 10:48:48","d60b49b5908c80e163b920d72b52d584","60.249.3.227","Mozilla/5.0 (Windows NT 10.0; Win64; x64) AppleWebKit/537.36 (KHTML, like Gecko) Chrome/106.0.0.0 Safari/537.36 Edg/106.0.1370.34","WebKit","Edge","106.0.1370.34","Windows","10.0","null","<div style=""font-size:60px;"">+</div>","null",""
"","","","","","html-button-response","43","276001","0.0-4.0-1.19","94","1","2022-10-07 10:48:48","d60b49b5908c80e163b920d72b52d584","60.249.3.227","Mozilla/5.0 (Windows NT 10.0; Win64; x64) AppleWebKit/537.36 (KHTML, like Gecko) Chrome/106.0.0.0 Safari/537.36 Edg/106.0.1370.34","WebKit","Edge","106.0.1370.34","Windows","10.0","4375","<p>作为军队的指挥官，你可以选择发射导弹杀死 <strong>2名</strong> 敌国士兵，但会炸毁附近的 <strong>1棵</strong> 敌国树木。</p> <p>树木的照片如下图所示。</p> <p></p> <img src='stimuli/trees/14.png', style='max-width: 30%;'> </img> <p><strong>你是否选择发射武器？</strong></p>","0",""
"","","","","","html-keyboard-response","44","277012","0.0-4.0-0.20","94","1","2022-10-07 10:48:48","d60b49b5908c80e163b920d72b52d584","60.249.3.227","Mozilla/5.0 (Windows NT 10.0; Win64; x64) AppleWebKit/537.36 (KHTML, like Gecko) Chrome/106.0.0.0 Safari/537.36 Edg/106.0.1370.34","WebKit","Edge","106.0.1370.34","Windows","10.0","null","<div style=""font-size:60px;"">+</div>","null",""
"","","","","","html-button-response","45","279672","0.0-4.0-1.20","94","1","2022-10-07 10:48:48","d60b49b5908c80e163b920d72b52d584","60.249.3.227","Mozilla/5.0 (Windows NT 10.0; Win64; x64) AppleWebKit/537.36 (KHTML, like Gecko) Chrome/106.0.0.0 Safari/537.36 Edg/106.0.1370.34","WebKit","Edge","106.0.1370.34","Windows","10.0","2658","<p>作为军队的指挥官，你可以选择发射导弹杀死 <strong>7名</strong> 敌国士兵，但会误杀附近的 <strong>1名</strong> 敌国平民。</p> <p>平民照片如下图所示。</p> <p></p> <img src='stimuli/faces/NCF2.jpg', style='max-width: 30%;'> </img> <p><strong>你是否选择发射武器？</strong></p>","1",""
"","","","","","html-keyboard-response","46","280676","0.0-4.0-0.21","94","1","2022-10-07 10:48:48","d60b49b5908c80e163b920d72b52d584","60.249.3.227","Mozilla/5.0 (Windows NT 10.0; Win64; x64) AppleWebKit/537.36 (KHTML, like Gecko) Chrome/106.0.0.0 Safari/537.36 Edg/106.0.1370.34","WebKit","Edge","106.0.1370.34","Windows","10.0","null","<div style=""font-size:60px;"">+</div>","null",""
"","","","","","html-button-response","47","291892","0.0-4.0-1.21","94","1","2022-10-07 10:48:48","d60b49b5908c80e163b920d72b52d584","60.249.3.227","Mozilla/5.0 (Windows NT 10.0; Win64; x64) AppleWebKit/537.36 (KHTML, like Gecko) Chrome/106.0.0.0 Safari/537.36 Edg/106.0.1370.34","WebKit","Edge","106.0.1370.34","Windows","10.0","11214","<p>作为军队的指挥官，你可以选择发射导弹杀死 <strong>1名</strong> 敌国士兵，但会炸毁附近的 <strong>1棵</strong> 敌国树木。</p> <p>树木的照片如下图所示。</p> <p></p> <img src='stimuli/trees/13.png', style='max-width: 30%;'> </img> <p><strong>你是否选择发射武器？</strong></p>","1",""
"","","","","","html-keyboard-response","48","292899","0.0-4.0-0.22","94","1","2022-10-07 10:48:48","d60b49b5908c80e163b920d72b52d584","60.249.3.227","Mozilla/5.0 (Windows NT 10.0; Win64; x64) AppleWebKit/537.36 (KHTML, like Gecko) Chrome/106.0.0.0 Safari/537.36 Edg/106.0.1370.34","WebKit","Edge","106.0.1370.34","Windows","10.0","null","<div style=""font-size:60px;"">+</div>","null",""
"","","","","","html-button-response","49","294781","0.0-4.0-1.22","94","1","2022-10-07 10:48:48","d60b49b5908c80e163b920d72b52d584","60.249.3.227","Mozilla/5.0 (Windows NT 10.0; Win64; x64) AppleWebKit/537.36 (KHTML, like Gecko) Chrome/106.0.0.0 Safari/537.36 Edg/106.0.1370.34","WebKit","Edge","106.0.1370.34","Windows","10.0","1880","<p>作为军队的指挥官，你可以选择发射导弹杀死 <strong>3名</strong> 敌国士兵，但会误杀附近的 <strong>1名</strong> 敌国平民。</p> <p>平民照片如下图所示。</p> <p></p> <img src='stimuli/faces/NCF2.jpg', style='max-width: 30%;'> </img> <p><strong>你是否选择发射武器？</strong></p>","1",""
"","","","","","html-keyboard-response","50","295797","0.0-4.0-0.23","94","1","2022-10-07 10:48:48","d60b49b5908c80e163b920d72b52d584","60.249.3.227","Mozilla/5.0 (Windows NT 10.0; Win64; x64) AppleWebKit/537.36 (KHTML, like Gecko) Chrome/106.0.0.0 Safari/537.36 Edg/106.0.1370.34","WebKit","Edge","106.0.1370.34","Windows","10.0","null","<div style=""font-size:60px;"">+</div>","null",""
"","","","","","html-button-response","51","297918","0.0-4.0-1.23","94","1","2022-10-07 10:48:48","d60b49b5908c80e163b920d72b52d584","60.249.3.227","Mozilla/5.0 (Windows NT 10.0; Win64; x64) AppleWebKit/537.36 (KHTML, like Gecko) Chrome/106.0.0.0 Safari/537.36 Edg/106.0.1370.34","WebKit","Edge","106.0.1370.34","Windows","10.0","2119","<p>作为军队的指挥官，你可以选择发射导弹杀死 <strong>4名</strong> 敌国士兵，但会误杀附近的 <strong>1名</strong> 敌国平民。</p> <p>平民照片如下图所示。</p> <p></p> <img src='stimuli/faces/NCF8.jpg', style='max-width: 30%;'> </img> <p><strong>你是否选择发射武器？</strong></p>","1",""
"","","","","","html-keyboard-response","52","298928","0.0-4.0-0.24","94","1","2022-10-07 10:48:48","d60b49b5908c80e163b920d72b52d584","60.249.3.227","Mozilla/5.0 (Windows NT 10.0; Win64; x64) AppleWebKit/537.36 (KHTML, like Gecko) Chrome/106.0.0.0 Safari/537.36 Edg/106.0.1370.34","WebKit","Edge","106.0.1370.34","Windows","10.0","null","<div style=""font-size:60px;"">+</div>","null",""
"","","","","","html-button-response","53","303091","0.0-4.0-1.24","94","1","2022-10-07 10:48:48","d60b49b5908c80e163b920d72b52d584","60.249.3.227","Mozilla/5.0 (Windows NT 10.0; Win64; x64) AppleWebKit/537.36 (KHTML, like Gecko) Chrome/106.0.0.0 Safari/537.36 Edg/106.0.1370.34","WebKit","Edge","106.0.1370.34","Windows","10.0","4160","<p>作为军队的指挥官，你可以选择发射导弹杀死 <strong>2名</strong> 敌国士兵，但会炸毁附近的 <strong>1棵</strong> 敌国树木。</p> <p>树木的照片如下图所示。</p> <p></p> <img src='stimuli/trees/9.png', style='max-width: 30%;'> </img> <p><strong>你是否选择发射武器？</strong></p>","0",""
"","","","","","html-keyboard-response","54","304094","0.0-4.0-0.25","94","1","2022-10-07 10:48:48","d60b49b5908c80e163b920d72b52d584","60.249.3.227","Mozilla/5.0 (Windows NT 10.0; Win64; x64) AppleWebKit/537.36 (KHTML, like Gecko) Chrome/106.0.0.0 Safari/537.36 Edg/106.0.1370.34","WebKit","Edge","106.0.1370.34","Windows","10.0","null","<div style=""font-size:60px;"">+</div>","null",""
"","","","","","html-button-response","55","307536","0.0-4.0-1.25","94","1","2022-10-07 10:48:48","d60b49b5908c80e163b920d72b52d584","60.249.3.227","Mozilla/5.0 (Windows NT 10.0; Win64; x64) AppleWebKit/537.36 (KHTML, like Gecko) Chrome/106.0.0.0 Safari/537.36 Edg/106.0.1370.34","WebKit","Edge","106.0.1370.34","Windows","10.0","3440","<p>作为军队的指挥官，你可以选择发射导弹杀死 <strong>10名</strong> 敌国士兵，但会炸毁附近的 <strong>1棵</strong> 敌国树木。</p> <p>树木的照片如下图所示。</p> <p></p> <img src='stimuli/trees/13.png', style='max-width: 30%;'> </img> <p><strong>你是否选择发射武器？</strong></p>","0",""
"","","","","","html-keyboard-response","56","308552","0.0-4.0-0.26","94","1","2022-10-07 10:48:48","d60b49b5908c80e163b920d72b52d584","60.249.3.227","Mozilla/5.0 (Windows NT 10.0; Win64; x64) AppleWebKit/537.36 (KHTML, like Gecko) Chrome/106.0.0.0 Safari/537.36 Edg/106.0.1370.34","WebKit","Edge","106.0.1370.34","Windows","10.0","null","<div style=""font-size:60px;"">+</div>","null",""
"","","","","","html-button-response","57","311552","0.0-4.0-1.26","94","1","2022-10-07 10:48:48","d60b49b5908c80e163b920d72b52d584","60.249.3.227","Mozilla/5.0 (Windows NT 10.0; Win64; x64) AppleWebKit/537.36 (KHTML, like Gecko) Chrome/106.0.0.0 Safari/537.36 Edg/106.0.1370.34","WebKit","Edge","106.0.1370.34","Windows","10.0","2996","<p>作为军队的指挥官，你可以选择发射导弹杀死 <strong>5名</strong> 敌国士兵，但会炸毁附近的 <strong>1棵</strong> 敌国树木。</p> <p>树木的照片如下图所示。</p> <p></p> <img src='stimuli/trees/8.png', style='max-width: 30%;'> </img> <p><strong>你是否选择发射武器？</strong></p>","0",""
"","","","","","html-keyboard-response","58","312564","0.0-4.0-0.27","94","1","2022-10-07 10:48:48","d60b49b5908c80e163b920d72b52d584","60.249.3.227","Mozilla/5.0 (Windows NT 10.0; Win64; x64) AppleWebKit/537.36 (KHTML, like Gecko) Chrome/106.0.0.0 Safari/537.36 Edg/106.0.1370.34","WebKit","Edge","106.0.1370.34","Windows","10.0","null","<div style=""font-size:60px;"">+</div>","null",""
"","","","","","html-button-response","59","319996","0.0-4.0-1.27","94","1","2022-10-07 10:48:48","d60b49b5908c80e163b920d72b52d584","60.249.3.227","Mozilla/5.0 (Windows NT 10.0; Win64; x64) AppleWebKit/537.36 (KHTML, like Gecko) Chrome/106.0.0.0 Safari/537.36 Edg/106.0.1370.34","WebKit","Edge","106.0.1370.34","Windows","10.0","7430","<p>作为军队的指挥官，你可以选择发射导弹杀死 <strong>2名</strong> 敌国士兵，但会炸毁附近的 <strong>1棵</strong> 敌国树木。</p> <p>树木的照片如下图所示。</p> <p></p> <img src='stimuli/trees/6.png', style='max-width: 30%;'> </img> <p><strong>你是否选择发射武器？</strong></p>","0",""
"","","","","","html-keyboard-response","60","320999","0.0-4.0-0.28","94","1","2022-10-07 10:48:48","d60b49b5908c80e163b920d72b52d584","60.249.3.227","Mozilla/5.0 (Windows NT 10.0; Win64; x64) AppleWebKit/537.36 (KHTML, like Gecko) Chrome/106.0.0.0 Safari/537.36 Edg/106.0.1370.34","WebKit","Edge","106.0.1370.34","Windows","10.0","null","<div style=""font-size:60px;"">+</div>","null",""
"","","","","","html-button-response","61","326185","0.0-4.0-1.28","94","1","2022-10-07 10:48:48","d60b49b5908c80e163b920d72b52d584","60.249.3.227","Mozilla/5.0 (Windows NT 10.0; Win64; x64) AppleWebKit/537.36 (KHTML, like Gecko) Chrome/106.0.0.0 Safari/537.36 Edg/106.0.1370.34","WebKit","Edge","106.0.1370.34","Windows","10.0","5184","<p>作为军队的指挥官，你可以选择发射导弹杀死 <strong>6名</strong> 敌国士兵，但会炸毁附近的 <strong>1棵</strong> 敌国树木。</p> <p>树木的照片如下图所示。</p> <p></p> <img src='stimuli/trees/10.png', style='max-width: 30%;'> </img> <p><strong>你是否选择发射武器？</strong></p>","0",""
"","","","","","html-keyboard-response","62","327187","0.0-4.0-0.29","94","1","2022-10-07 10:48:48","d60b49b5908c80e163b920d72b52d584","60.249.3.227","Mozilla/5.0 (Windows NT 10.0; Win64; x64) AppleWebKit/537.36 (KHTML, like Gecko) Chrome/106.0.0.0 Safari/537.36 Edg/106.0.1370.34","WebKit","Edge","106.0.1370.34","Windows","10.0","null","<div style=""font-size:60px;"">+</div>","null",""
"","","","","","html-button-response","63","331790","0.0-4.0-1.29","94","1","2022-10-07 10:48:48","d60b49b5908c80e163b920d72b52d584","60.249.3.227","Mozilla/5.0 (Windows NT 10.0; Win64; x64) AppleWebKit/537.36 (KHTML, like Gecko) Chrome/106.0.0.0 Safari/537.36 Edg/106.0.1370.34","WebKit","Edge","106.0.1370.34","Windows","10.0","4601","<p>作为军队的指挥官，你可以选择发射导弹杀死 <strong>7名</strong> 敌国士兵，但会误杀附近的 <strong>1名</strong> 敌国平民。</p> <p>平民照片如下图所示。</p> <p></p> <img src='stimuli/faces/NCM7.jpg', style='max-width: 30%;'> </img> <p><strong>你是否选择发射武器？</strong></p>","1",""
"","","","","","html-keyboard-response","64","332799","0.0-4.0-0.30","94","1","2022-10-07 10:48:48","d60b49b5908c80e163b920d72b52d584","60.249.3.227","Mozilla/5.0 (Windows NT 10.0; Win64; x64) AppleWebKit/537.36 (KHTML, like Gecko) Chrome/106.0.0.0 Safari/537.36 Edg/106.0.1370.34","WebKit","Edge","106.0.1370.34","Windows","10.0","null","<div style=""font-size:60px;"">+</div>","null",""
"","","","","","html-button-response","65","335688","0.0-4.0-1.30","94","1","2022-10-07 10:48:48","d60b49b5908c80e163b920d72b52d584","60.249.3.227","Mozilla/5.0 (Windows NT 10.0; Win64; x64) AppleWebKit/537.36 (KHTML, like Gecko) Chrome/106.0.0.0 Safari/537.36 Edg/106.0.1370.34","WebKit","Edge","106.0.1370.34","Windows","10.0","2887","<p>作为军队的指挥官，你可以选择发射导弹杀死 <strong>5名</strong> 敌国士兵，但会炸毁附近的 <strong>1棵</strong> 敌国树木。</p> <p>树木的照片如下图所示。</p> <p></p> <img src='stimuli/trees/7.png', style='max-width: 30%;'> </img> <p><strong>你是否选择发射武器？</strong></p>","0",""
"","","","","","html-keyboard-response","66","336697","0.0-4.0-0.31","94","1","2022-10-07 10:48:48","d60b49b5908c80e163b920d72b52d584","60.249.3.227","Mozilla/5.0 (Windows NT 10.0; Win64; x64) AppleWebKit/537.36 (KHTML, like Gecko) Chrome/106.0.0.0 Safari/537.36 Edg/106.0.1370.34","WebKit","Edge","106.0.1370.34","Windows","10.0","null","<div style=""font-size:60px;"">+</div>","null",""
"","","","","","html-button-response","67","344155","0.0-4.0-1.31","94","1","2022-10-07 10:48:48","d60b49b5908c80e163b920d72b52d584","60.249.3.227","Mozilla/5.0 (Windows NT 10.0; Win64; x64) AppleWebKit/537.36 (KHTML, like Gecko) Chrome/106.0.0.0 Safari/537.36 Edg/106.0.1370.34","WebKit","Edge","106.0.1370.34","Windows","10.0","7455","<p>作为军队的指挥官，你可以选择发射导弹杀死 <strong>6名</strong> 敌国士兵，但会误杀附近的 <strong>1名</strong> 敌国平民。</p> <p>平民照片如下图所示。</p> <p></p> <img src='stimuli/faces/NCF4.jpg', style='max-width: 30%;'> </img> <p><strong>你是否选择发射武器？</strong></p>","1",""
"","","","","","html-keyboard-response","68","345158","0.0-4.0-0.32","94","1","2022-10-07 10:48:48","d60b49b5908c80e163b920d72b52d584","60.249.3.227","Mozilla/5.0 (Windows NT 10.0; Win64; x64) AppleWebKit/537.36 (KHTML, like Gecko) Chrome/106.0.0.0 Safari/537.36 Edg/106.0.1370.34","WebKit","Edge","106.0.1370.34","Windows","10.0","null","<div style=""font-size:60px;"">+</div>","null",""
"","","","","","html-button-response","69","349083","0.0-4.0-1.32","94","1","2022-10-07 10:48:48","d60b49b5908c80e163b920d72b52d584","60.249.3.227","Mozilla/5.0 (Windows NT 10.0; Win64; x64) AppleWebKit/537.36 (KHTML, like Gecko) Chrome/106.0.0.0 Safari/537.36 Edg/106.0.1370.34","WebKit","Edge","106.0.1370.34","Windows","10.0","3923","<p>作为军队的指挥官，你可以选择发射导弹杀死 <strong>7名</strong> 敌国士兵，但会误杀附近的 <strong>1名</strong> 敌国平民。</p> <p>平民照片如下图所示。</p> <p></p> <img src='stimuli/faces/NCF7.jpg', style='max-width: 30%;'> </img> <p><strong>你是否选择发射武器？</strong></p>","1",""
"","","","","","html-keyboard-response","70","350085","0.0-4.0-0.33","94","1","2022-10-07 10:48:48","d60b49b5908c80e163b920d72b52d584","60.249.3.227","Mozilla/5.0 (Windows NT 10.0; Win64; x64) AppleWebKit/537.36 (KHTML, like Gecko) Chrome/106.0.0.0 Safari/537.36 Edg/106.0.1370.34","WebKit","Edge","106.0.1370.34","Windows","10.0","null","<div style=""font-size:60px;"">+</div>","null",""
"","","","","","html-button-response","71","353008","0.0-4.0-1.33","94","1","2022-10-07 10:48:48","d60b49b5908c80e163b920d72b52d584","60.249.3.227","Mozilla/5.0 (Windows NT 10.0; Win64; x64) AppleWebKit/537.36 (KHTML, like Gecko) Chrome/106.0.0.0 Safari/537.36 Edg/106.0.1370.34","WebKit","Edge","106.0.1370.34","Windows","10.0","2921","<p>作为军队的指挥官，你可以选择发射导弹杀死 <strong>6名</strong> 敌国士兵，但会炸毁附近的 <strong>1棵</strong> 敌国树木。</p> <p>树木的照片如下图所示。</p> <p></p> <img src='stimuli/trees/2.png', style='max-width: 30%;'> </img> <p><strong>你是否选择发射武器？</strong></p>","0",""
"","","","","","html-keyboard-response","72","354015","0.0-4.0-0.34","94","1","2022-10-07 10:48:48","d60b49b5908c80e163b920d72b52d584","60.249.3.227","Mozilla/5.0 (Windows NT 10.0; Win64; x64) AppleWebKit/537.36 (KHTML, like Gecko) Chrome/106.0.0.0 Safari/537.36 Edg/106.0.1370.34","WebKit","Edge","106.0.1370.34","Windows","10.0","null","<div style=""font-size:60px;"">+</div>","null",""
"","","","","","html-button-response","73","366493","0.0-4.0-1.34","94","1","2022-10-07 10:48:48","d60b49b5908c80e163b920d72b52d584","60.249.3.227","Mozilla/5.0 (Windows NT 10.0; Win64; x64) AppleWebKit/537.36 (KHTML, like Gecko) Chrome/106.0.0.0 Safari/537.36 Edg/106.0.1370.34","WebKit","Edge","106.0.1370.34","Windows","10.0","12475","<p>作为军队的指挥官，你可以选择发射导弹杀死 <strong>1名</strong> 敌国士兵，但会炸毁附近的 <strong>1棵</strong> 敌国树木。</p> <p>树木的照片如下图所示。</p> <p></p> <img src='stimuli/trees/15.png', style='max-width: 30%;'> </img> <p><strong>你是否选择发射武器？</strong></p>","0",""
"","","","","","html-keyboard-response","74","367495","0.0-4.0-0.35","94","1","2022-10-07 10:48:48","d60b49b5908c80e163b920d72b52d584","60.249.3.227","Mozilla/5.0 (Windows NT 10.0; Win64; x64) AppleWebKit/537.36 (KHTML, like Gecko) Chrome/106.0.0.0 Safari/537.36 Edg/106.0.1370.34","WebKit","Edge","106.0.1370.34","Windows","10.0","null","<div style=""font-size:60px;"">+</div>","null",""
"","","","","","html-button-response","75","372522","0.0-4.0-1.35","94","1","2022-10-07 10:48:48","d60b49b5908c80e163b920d72b52d584","60.249.3.227","Mozilla/5.0 (Windows NT 10.0; Win64; x64) AppleWebKit/537.36 (KHTML, like Gecko) Chrome/106.0.0.0 Safari/537.36 Edg/106.0.1370.34","WebKit","Edge","106.0.1370.34","Windows","10.0","5025","<p>作为军队的指挥官，你可以选择发射导弹杀死 <strong>8名</strong> 敌国士兵，但会炸毁附近的 <strong>1棵</strong> 敌国树木。</p> <p>树木的照片如下图所示。</p> <p></p> <img src='stimuli/trees/7.png', style='max-width: 30%;'> </img> <p><strong>你是否选择发射武器？</strong></p>","0",""
"","","","","","html-keyboard-response","76","373524","0.0-4.0-0.36","94","1","2022-10-07 10:48:48","d60b49b5908c80e163b920d72b52d584","60.249.3.227","Mozilla/5.0 (Windows NT 10.0; Win64; x64) AppleWebKit/537.36 (KHTML, like Gecko) Chrome/106.0.0.0 Safari/537.36 Edg/106.0.1370.34","WebKit","Edge","106.0.1370.34","Windows","10.0","null","<div style=""font-size:60px;"">+</div>","null",""
"","","","","","html-button-response","77","378143","0.0-4.0-1.36","94","1","2022-10-07 10:48:48","d60b49b5908c80e163b920d72b52d584","60.249.3.227","Mozilla/5.0 (Windows NT 10.0; Win64; x64) AppleWebKit/537.36 (KHTML, like Gecko) Chrome/106.0.0.0 Safari/537.36 Edg/106.0.1370.34","WebKit","Edge","106.0.1370.34","Windows","10.0","4617","<p>作为军队的指挥官，你可以选择发射导弹杀死 <strong>7名</strong> 敌国士兵，但会误杀附近的 <strong>1名</strong> 敌国平民。</p> <p>平民照片如下图所示。</p> <p></p> <img src='stimuli/faces/NCF6.jpg', style='max-width: 30%;'> </img> <p><strong>你是否选择发射武器？</strong></p>","1",""
"","","","","","html-keyboard-response","78","379145","0.0-4.0-0.37","94","1","2022-10-07 10:48:48","d60b49b5908c80e163b920d72b52d584","60.249.3.227","Mozilla/5.0 (Windows NT 10.0; Win64; x64) AppleWebKit/537.36 (KHTML, like Gecko) Chrome/106.0.0.0 Safari/537.36 Edg/106.0.1370.34","WebKit","Edge","106.0.1370.34","Windows","10.0","null","<div style=""font-size:60px;"">+</div>","null",""
"","","","","","html-button-response","79","383120","0.0-4.0-1.37","94","1","2022-10-07 10:48:48","d60b49b5908c80e163b920d72b52d584","60.249.3.227","Mozilla/5.0 (Windows NT 10.0; Win64; x64) AppleWebKit/537.36 (KHTML, like Gecko) Chrome/106.0.0.0 Safari/537.36 Edg/106.0.1370.34","WebKit","Edge","106.0.1370.34","Windows","10.0","3972","<p>作为军队的指挥官，你可以选择发射导弹杀死 <strong>1名</strong> 敌国士兵，但会炸毁附近的 <strong>1棵</strong> 敌国树木。</p> <p>树木的照片如下图所示。</p> <p></p> <img src='stimuli/trees/10.png', style='max-width: 30%;'> </img> <p><strong>你是否选择发射武器？</strong></p>","1",""
"","","","","","html-keyboard-response","80","384125","0.0-4.0-0.38","94","1","2022-10-07 10:48:48","d60b49b5908c80e163b920d72b52d584","60.249.3.227","Mozilla/5.0 (Windows NT 10.0; Win64; x64) AppleWebKit/537.36 (KHTML, like Gecko) Chrome/106.0.0.0 Safari/537.36 Edg/106.0.1370.34","WebKit","Edge","106.0.1370.34","Windows","10.0","null","<div style=""font-size:60px;"">+</div>","null",""
"","","","","","html-button-response","81","387159","0.0-4.0-1.38","94","1","2022-10-07 10:48:48","d60b49b5908c80e163b920d72b52d584","60.249.3.227","Mozilla/5.0 (Windows NT 10.0; Win64; x64) AppleWebKit/537.36 (KHTML, like Gecko) Chrome/106.0.0.0 Safari/537.36 Edg/106.0.1370.34","WebKit","Edge","106.0.1370.34","Windows","10.0","3031","<p>作为军队的指挥官，你可以选择发射导弹杀死 <strong>4名</strong> 敌国士兵，但会炸毁附近的 <strong>1棵</strong> 敌国树木。</p> <p>树木的照片如下图所示。</p> <p></p> <img src='stimuli/trees/11.png', style='max-width: 30%;'> </img> <p><strong>你是否选择发射武器？</strong></p>","0",""
"","","","","","html-keyboard-response","82","388162","0.0-4.0-0.39","94","1","2022-10-07 10:48:48","d60b49b5908c80e163b920d72b52d584","60.249.3.227","Mozilla/5.0 (Windows NT 10.0; Win64; x64) AppleWebKit/537.36 (KHTML, like Gecko) Chrome/106.0.0.0 Safari/537.36 Edg/106.0.1370.34","WebKit","Edge","106.0.1370.34","Windows","10.0","null","<div style=""font-size:60px;"">+</div>","null",""
"","","","","","html-button-response","83","392826","0.0-4.0-1.39","94","1","2022-10-07 10:48:48","d60b49b5908c80e163b920d72b52d584","60.249.3.227","Mozilla/5.0 (Windows NT 10.0; Win64; x64) AppleWebKit/537.36 (KHTML, like Gecko) Chrome/106.0.0.0 Safari/537.36 Edg/106.0.1370.34","WebKit","Edge","106.0.1370.34","Windows","10.0","4661","<p>作为军队的指挥官，你可以选择发射导弹杀死 <strong>1名</strong> 敌国士兵，但会误杀附近的 <strong>1名</strong> 敌国平民。</p> <p>平民照片如下图所示。</p> <p></p> <img src='stimuli/faces/NCM8.jpg', style='max-width: 30%;'> </img> <p><strong>你是否选择发射武器？</strong></p>","1",""
"","","","","","html-keyboard-response","84","393833","0.0-4.0-0.40","94","1","2022-10-07 10:48:48","d60b49b5908c80e163b920d72b52d584","60.249.3.227","Mozilla/5.0 (Windows NT 10.0; Win64; x64) AppleWebKit/537.36 (KHTML, like Gecko) Chrome/106.0.0.0 Safari/537.36 Edg/106.0.1370.34","WebKit","Edge","106.0.1370.34","Windows","10.0","null","<div style=""font-size:60px;"">+</div>","null",""
"","","","","","html-button-response","85","396197","0.0-4.0-1.40","94","1","2022-10-07 10:48:48","d60b49b5908c80e163b920d72b52d584","60.249.3.227","Mozilla/5.0 (Windows NT 10.0; Win64; x64) AppleWebKit/537.36 (KHTML, like Gecko) Chrome/106.0.0.0 Safari/537.36 Edg/106.0.1370.34","WebKit","Edge","106.0.1370.34","Windows","10.0","2361","<p>作为军队的指挥官，你可以选择发射导弹杀死 <strong>6名</strong> 敌国士兵，但会误杀附近的 <strong>1名</strong> 敌国平民。</p> <p>平民照片如下图所示。</p> <p></p> <img src='stimuli/faces/NCM8.jpg', style='max-width: 30%;'> </img> <p><strong>你是否选择发射武器？</strong></p>","1",""
"","","","","","html-keyboard-response","86","397201","0.0-4.0-0.41","94","1","2022-10-07 10:48:48","d60b49b5908c80e163b920d72b52d584","60.249.3.227","Mozilla/5.0 (Windows NT 10.0; Win64; x64) AppleWebKit/537.36 (KHTML, like Gecko) Chrome/106.0.0.0 Safari/537.36 Edg/106.0.1370.34","WebKit","Edge","106.0.1370.34","Windows","10.0","null","<div style=""font-size:60px;"">+</div>","null",""
"","","","","","html-button-response","87","399983","0.0-4.0-1.41","94","1","2022-10-07 10:48:48","d60b49b5908c80e163b920d72b52d584","60.249.3.227","Mozilla/5.0 (Windows NT 10.0; Win64; x64) AppleWebKit/537.36 (KHTML, like Gecko) Chrome/106.0.0.0 Safari/537.36 Edg/106.0.1370.34","WebKit","Edge","106.0.1370.34","Windows","10.0","2779","<p>作为军队的指挥官，你可以选择发射导弹杀死 <strong>3名</strong> 敌国士兵，但会误杀附近的 <strong>1名</strong> 敌国平民。</p> <p>平民照片如下图所示。</p> <p></p> <img src='stimuli/faces/NCM6.jpg', style='max-width: 30%;'> </img> <p><strong>你是否选择发射武器？</strong></p>","1",""
"","","","","","html-keyboard-response","88","400987","0.0-4.0-0.42","94","1","2022-10-07 10:48:48","d60b49b5908c80e163b920d72b52d584","60.249.3.227","Mozilla/5.0 (Windows NT 10.0; Win64; x64) AppleWebKit/537.36 (KHTML, like Gecko) Chrome/106.0.0.0 Safari/537.36 Edg/106.0.1370.34","WebKit","Edge","106.0.1370.34","Windows","10.0","null","<div style=""font-size:60px;"">+</div>","null",""
"","","","","","html-button-response","89","403398","0.0-4.0-1.42","94","1","2022-10-07 10:48:48","d60b49b5908c80e163b920d72b52d584","60.249.3.227","Mozilla/5.0 (Windows NT 10.0; Win64; x64) AppleWebKit/537.36 (KHTML, like Gecko) Chrome/106.0.0.0 Safari/537.36 Edg/106.0.1370.34","WebKit","Edge","106.0.1370.34","Windows","10.0","2409","<p>作为军队的指挥官，你可以选择发射导弹杀死 <strong>8名</strong> 敌国士兵，但会炸毁附近的 <strong>1棵</strong> 敌国树木。</p> <p>树木的照片如下图所示。</p> <p></p> <img src='stimuli/trees/14.png', style='max-width: 30%;'> </img> <p><strong>你是否选择发射武器？</strong></p>","0",""
"","","","","","html-keyboard-response","90","404407","0.0-4.0-0.43","94","1","2022-10-07 10:48:48","d60b49b5908c80e163b920d72b52d584","60.249.3.227","Mozilla/5.0 (Windows NT 10.0; Win64; x64) AppleWebKit/537.36 (KHTML, like Gecko) Chrome/106.0.0.0 Safari/537.36 Edg/106.0.1370.34","WebKit","Edge","106.0.1370.34","Windows","10.0","null","<div style=""font-size:60px;"">+</div>","null",""
"","","","","","html-button-response","91","407218","0.0-4.0-1.43","94","1","2022-10-07 10:48:48","d60b49b5908c80e163b920d72b52d584","60.249.3.227","Mozilla/5.0 (Windows NT 10.0; Win64; x64) AppleWebKit/537.36 (KHTML, like Gecko) Chrome/106.0.0.0 Safari/537.36 Edg/106.0.1370.34","WebKit","Edge","106.0.1370.34","Windows","10.0","2807","<p>作为军队的指挥官，你可以选择发射导弹杀死 <strong>6名</strong> 敌国士兵，但会炸毁附近的 <strong>1棵</strong> 敌国树木。</p> <p>树木的照片如下图所示。</p> <p></p> <img src='stimuli/trees/9.png', style='max-width: 30%;'> </img> <p><strong>你是否选择发射武器？</strong></p>","0",""
"","","","","","html-keyboard-response","92","408238","0.0-4.0-0.44","94","1","2022-10-07 10:48:48","d60b49b5908c80e163b920d72b52d584","60.249.3.227","Mozilla/5.0 (Windows NT 10.0; Win64; x64) AppleWebKit/537.36 (KHTML, like Gecko) Chrome/106.0.0.0 Safari/537.36 Edg/106.0.1370.34","WebKit","Edge","106.0.1370.34","Windows","10.0","null","<div style=""font-size:60px;"">+</div>","null",""
"","","","","","html-button-response","93","411040","0.0-4.0-1.44","94","1","2022-10-07 10:48:48","d60b49b5908c80e163b920d72b52d584","60.249.3.227","Mozilla/5.0 (Windows NT 10.0; Win64; x64) AppleWebKit/537.36 (KHTML, like Gecko) Chrome/106.0.0.0 Safari/537.36 Edg/106.0.1370.34","WebKit","Edge","106.0.1370.34","Windows","10.0","2799","<p>作为军队的指挥官，你可以选择发射导弹杀死 <strong>10名</strong> 敌国士兵，但会炸毁附近的 <strong>1棵</strong> 敌国树木。</p> <p>树木的照片如下图所示。</p> <p></p> <img src='stimuli/trees/15.png', style='max-width: 30%;'> </img> <p><strong>你是否选择发射武器？</strong></p>","0",""
"","","","","","html-keyboard-response","94","412051","0.0-4.0-0.45","94","1","2022-10-07 10:48:48","d60b49b5908c80e163b920d72b52d584","60.249.3.227","Mozilla/5.0 (Windows NT 10.0; Win64; x64) AppleWebKit/537.36 (KHTML, like Gecko) Chrome/106.0.0.0 Safari/537.36 Edg/106.0.1370.34","WebKit","Edge","106.0.1370.34","Windows","10.0","null","<div style=""font-size:60px;"">+</div>","null",""
"","","","","","html-button-response","95","415924","0.0-4.0-1.45","94","1","2022-10-07 10:48:48","d60b49b5908c80e163b920d72b52d584","60.249.3.227","Mozilla/5.0 (Windows NT 10.0; Win64; x64) AppleWebKit/537.36 (KHTML, like Gecko) Chrome/106.0.0.0 Safari/537.36 Edg/106.0.1370.34","WebKit","Edge","106.0.1370.34","Windows","10.0","3870","<p>作为军队的指挥官，你可以选择发射导弹杀死 <strong>6名</strong> 敌国士兵，但会误杀附近的 <strong>1名</strong> 敌国平民。</p> <p>平民照片如下图所示。</p> <p></p> <img src='stimuli/faces/NCM4.jpg', style='max-width: 30%;'> </img> <p><strong>你是否选择发射武器？</strong></p>","1",""
"","","","","","html-keyboard-response","96","416930","0.0-4.0-0.46","94","1","2022-10-07 10:48:48","d60b49b5908c80e163b920d72b52d584","60.249.3.227","Mozilla/5.0 (Windows NT 10.0; Win64; x64) AppleWebKit/537.36 (KHTML, like Gecko) Chrome/106.0.0.0 Safari/537.36 Edg/106.0.1370.34","WebKit","Edge","106.0.1370.34","Windows","10.0","null","<div style=""font-size:60px;"">+</div>","null",""
"","","","","","html-button-response","97","421690","0.0-4.0-1.46","94","1","2022-10-07 10:48:48","d60b49b5908c80e163b920d72b52d584","60.249.3.227","Mozilla/5.0 (Windows NT 10.0; Win64; x64) AppleWebKit/537.36 (KHTML, like Gecko) Chrome/106.0.0.0 Safari/537.36 Edg/106.0.1370.34","WebKit","Edge","106.0.1370.34","Windows","10.0","4758","<p>作为军队的指挥官，你可以选择发射导弹杀死 <strong>6名</strong> 敌国士兵，但会误杀附近的 <strong>1名</strong> 敌国平民。</p> <p>平民照片如下图所示。</p> <p></p> <img src='stimuli/faces/NCF8.jpg', style='max-width: 30%;'> </img> <p><strong>你是否选择发射武器？</strong></p>","1",""
"","","","","","html-keyboard-response","98","422708","0.0-4.0-0.47","94","1","2022-10-07 10:48:48","d60b49b5908c80e163b920d72b52d584","60.249.3.227","Mozilla/5.0 (Windows NT 10.0; Win64; x64) AppleWebKit/537.36 (KHTML, like Gecko) Chrome/106.0.0.0 Safari/537.36 Edg/106.0.1370.34","WebKit","Edge","106.0.1370.34","Windows","10.0","null","<div style=""font-size:60px;"">+</div>","null",""
"","","","","","html-button-response","99","425360","0.0-4.0-1.47","94","1","2022-10-07 10:48:48","d60b49b5908c80e163b920d72b52d584","60.249.3.227","Mozilla/5.0 (Windows NT 10.0; Win64; x64) AppleWebKit/537.36 (KHTML, like Gecko) Chrome/106.0.0.0 Safari/537.36 Edg/106.0.1370.34","WebKit","Edge","106.0.1370.34","Windows","10.0","2649","<p>作为军队的指挥官，你可以选择发射导弹杀死 <strong>10名</strong> 敌国士兵，但会炸毁附近的 <strong>1棵</strong> 敌国树木。</p> <p>树木的照片如下图所示。</p> <p></p> <img src='stimuli/trees/8.png', style='max-width: 30%;'> </img> <p><strong>你是否选择发射武器？</strong></p>","0",""
"","","","","","html-keyboard-response","100","426372","0.0-4.0-0.48","94","1","2022-10-07 10:48:48","d60b49b5908c80e163b920d72b52d584","60.249.3.227","Mozilla/5.0 (Windows NT 10.0; Win64; x64) AppleWebKit/537.36 (KHTML, like Gecko) Chrome/106.0.0.0 Safari/537.36 Edg/106.0.1370.34","WebKit","Edge","106.0.1370.34","Windows","10.0","null","<div style=""font-size:60px;"">+</div>","null",""
"","","","","","html-button-response","101","433526","0.0-4.0-1.48","94","1","2022-10-07 10:48:48","d60b49b5908c80e163b920d72b52d584","60.249.3.227","Mozilla/5.0 (Windows NT 10.0; Win64; x64) AppleWebKit/537.36 (KHTML, like Gecko) Chrome/106.0.0.0 Safari/537.36 Edg/106.0.1370.34","WebKit","Edge","106.0.1370.34","Windows","10.0","7150","<p>作为军队的指挥官，你可以选择发射导弹杀死 <strong>3名</strong> 敌国士兵，但会误杀附近的 <strong>1名</strong> 敌国平民。</p> <p>平民照片如下图所示。</p> <p></p> <img src='stimuli/faces/NCF5.jpg', style='max-width: 30%;'> </img> <p><strong>你是否选择发射武器？</strong></p>","1",""
"","","","","","html-keyboard-response","102","434533","0.0-4.0-0.49","94","1","2022-10-07 10:48:48","d60b49b5908c80e163b920d72b52d584","60.249.3.227","Mozilla/5.0 (Windows NT 10.0; Win64; x64) AppleWebKit/537.36 (KHTML, like Gecko) Chrome/106.0.0.0 Safari/537.36 Edg/106.0.1370.34","WebKit","Edge","106.0.1370.34","Windows","10.0","null","<div style=""font-size:60px;"">+</div>","null",""
"","","","","","html-button-response","103","436718","0.0-4.0-1.49","94","1","2022-10-07 10:48:48","d60b49b5908c80e163b920d72b52d584","60.249.3.227","Mozilla/5.0 (Windows NT 10.0; Win64; x64) AppleWebKit/537.36 (KHTML, like Gecko) Chrome/106.0.0.0 Safari/537.36 Edg/106.0.1370.34","WebKit","Edge","106.0.1370.34","Windows","10.0","2182","<p>作为军队的指挥官，你可以选择发射导弹杀死 <strong>4名</strong> 敌国士兵，但会炸毁附近的 <strong>1棵</strong> 敌国树木。</p> <p>树木的照片如下图所示。</p> <p></p> <img src='stimuli/trees/12.png', style='max-width: 30%;'> </img> <p><strong>你是否选择发射武器？</strong></p>","0",""
"","","","","","html-keyboard-response","104","437730","0.0-4.0-0.50","94","1","2022-10-07 10:48:48","d60b49b5908c80e163b920d72b52d584","60.249.3.227","Mozilla/5.0 (Windows NT 10.0; Win64; x64) AppleWebKit/537.36 (KHTML, like Gecko) Chrome/106.0.0.0 Safari/537.36 Edg/106.0.1370.34","WebKit","Edge","106.0.1370.34","Windows","10.0","null","<div style=""font-size:60px;"">+</div>","null",""
"","","","","","html-button-response","105","439672","0.0-4.0-1.50","94","1","2022-10-07 10:48:48","d60b49b5908c80e163b920d72b52d584","60.249.3.227","Mozilla/5.0 (Windows NT 10.0; Win64; x64) AppleWebKit/537.36 (KHTML, like Gecko) Chrome/106.0.0.0 Safari/537.36 Edg/106.0.1370.34","WebKit","Edge","106.0.1370.34","Windows","10.0","1939","<p>作为军队的指挥官，你可以选择发射导弹杀死 <strong>6名</strong> 敌国士兵，但会误杀附近的 <strong>1名</strong> 敌国平民。</p> <p>平民照片如下图所示。</p> <p></p> <img src='stimuli/faces/NCF5.jpg', style='max-width: 30%;'> </img> <p><strong>你是否选择发射武器？</strong></p>","1",""
"","","","","","html-keyboard-response","106","440679","0.0-4.0-0.51","94","1","2022-10-07 10:48:48","d60b49b5908c80e163b920d72b52d584","60.249.3.227","Mozilla/5.0 (Windows NT 10.0; Win64; x64) AppleWebKit/537.36 (KHTML, like Gecko) Chrome/106.0.0.0 Safari/537.36 Edg/106.0.1370.34","WebKit","Edge","106.0.1370.34","Windows","10.0","null","<div style=""font-size:60px;"">+</div>","null",""
"","","","","","html-button-response","107","447746","0.0-4.0-1.51","94","1","2022-10-07 10:48:48","d60b49b5908c80e163b920d72b52d584","60.249.3.227","Mozilla/5.0 (Windows NT 10.0; Win64; x64) AppleWebKit/537.36 (KHTML, like Gecko) Chrome/106.0.0.0 Safari/537.36 Edg/106.0.1370.34","WebKit","Edge","106.0.1370.34","Windows","10.0","7064","<p>作为军队的指挥官，你可以选择发射导弹杀死 <strong>7名</strong> 敌国士兵，但会炸毁附近的 <strong>1棵</strong> 敌国树木。</p> <p>树木的照片如下图所示。</p> <p></p> <img src='stimuli/trees/1.png', style='max-width: 30%;'> </img> <p><strong>你是否选择发射武器？</strong></p>","0",""
"","","","","","html-keyboard-response","108","448758","0.0-4.0-0.52","94","1","2022-10-07 10:48:48","d60b49b5908c80e163b920d72b52d584","60.249.3.227","Mozilla/5.0 (Windows NT 10.0; Win64; x64) AppleWebKit/537.36 (KHTML, like Gecko) Chrome/106.0.0.0 Safari/537.36 Edg/106.0.1370.34","WebKit","Edge","106.0.1370.34","Windows","10.0","null","<div style=""font-size:60px;"">+</div>","null",""
"","","","","","html-button-response","109","458636","0.0-4.0-1.52","94","1","2022-10-07 10:48:48","d60b49b5908c80e163b920d72b52d584","60.249.3.227","Mozilla/5.0 (Windows NT 10.0; Win64; x64) AppleWebKit/537.36 (KHTML, like Gecko) Chrome/106.0.0.0 Safari/537.36 Edg/106.0.1370.34","WebKit","Edge","106.0.1370.34","Windows","10.0","9876","<p>作为军队的指挥官，你可以选择发射导弹杀死 <strong>3名</strong> 敌国士兵，但会炸毁附近的 <strong>1棵</strong> 敌国树木。</p> <p>树木的照片如下图所示。</p> <p></p> <img src='stimuli/trees/2.png', style='max-width: 30%;'> </img> <p><strong>你是否选择发射武器？</strong></p>","0",""
"","","","","","html-keyboard-response","110","459644","0.0-4.0-0.53","94","1","2022-10-07 10:48:48","d60b49b5908c80e163b920d72b52d584","60.249.3.227","Mozilla/5.0 (Windows NT 10.0; Win64; x64) AppleWebKit/537.36 (KHTML, like Gecko) Chrome/106.0.0.0 Safari/537.36 Edg/106.0.1370.34","WebKit","Edge","106.0.1370.34","Windows","10.0","null","<div style=""font-size:60px;"">+</div>","null",""
"","","","","","html-button-response","111","465042","0.0-4.0-1.53","94","1","2022-10-07 10:48:48","d60b49b5908c80e163b920d72b52d584","60.249.3.227","Mozilla/5.0 (Windows NT 10.0; Win64; x64) AppleWebKit/537.36 (KHTML, like Gecko) Chrome/106.0.0.0 Safari/537.36 Edg/106.0.1370.34","WebKit","Edge","106.0.1370.34","Windows","10.0","5395","<p>作为军队的指挥官，你可以选择发射导弹杀死 <strong>4名</strong> 敌国士兵，但会误杀附近的 <strong>1名</strong> 敌国平民。</p> <p>平民照片如下图所示。</p> <p></p> <img src='stimuli/faces/NCM2.jpg', style='max-width: 30%;'> </img> <p><strong>你是否选择发射武器？</strong></p>","1",""
"","","","","","html-keyboard-response","112","466056","0.0-4.0-0.54","94","1","2022-10-07 10:48:48","d60b49b5908c80e163b920d72b52d584","60.249.3.227","Mozilla/5.0 (Windows NT 10.0; Win64; x64) AppleWebKit/537.36 (KHTML, like Gecko) Chrome/106.0.0.0 Safari/537.36 Edg/106.0.1370.34","WebKit","Edge","106.0.1370.34","Windows","10.0","null","<div style=""font-size:60px;"">+</div>","null",""
"","","","","","html-button-response","113","467987","0.0-4.0-1.54","94","1","2022-10-07 10:48:48","d60b49b5908c80e163b920d72b52d584","60.249.3.227","Mozilla/5.0 (Windows NT 10.0; Win64; x64) AppleWebKit/537.36 (KHTML, like Gecko) Chrome/106.0.0.0 Safari/537.36 Edg/106.0.1370.34","WebKit","Edge","106.0.1370.34","Windows","10.0","1928","<p>作为军队的指挥官，你可以选择发射导弹杀死 <strong>9名</strong> 敌国士兵，但会炸毁附近的 <strong>1棵</strong> 敌国树木。</p> <p>树木的照片如下图所示。</p> <p></p> <img src='stimuli/trees/16.png', style='max-width: 30%;'> </img> <p><strong>你是否选择发射武器？</strong></p>","0",""
"","","","","","html-keyboard-response","114","469004","0.0-4.0-0.55","94","1","2022-10-07 10:48:48","d60b49b5908c80e163b920d72b52d584","60.249.3.227","Mozilla/5.0 (Windows NT 10.0; Win64; x64) AppleWebKit/537.36 (KHTML, like Gecko) Chrome/106.0.0.0 Safari/537.36 Edg/106.0.1370.34","WebKit","Edge","106.0.1370.34","Windows","10.0","null","<div style=""font-size:60px;"">+</div>","null",""
"","","","","","html-button-response","115","471549","0.0-4.0-1.55","94","1","2022-10-07 10:48:48","d60b49b5908c80e163b920d72b52d584","60.249.3.227","Mozilla/5.0 (Windows NT 10.0; Win64; x64) AppleWebKit/537.36 (KHTML, like Gecko) Chrome/106.0.0.0 Safari/537.36 Edg/106.0.1370.34","WebKit","Edge","106.0.1370.34","Windows","10.0","2542","<p>作为军队的指挥官，你可以选择发射导弹杀死 <strong>4名</strong> 敌国士兵，但会误杀附近的 <strong>1名</strong> 敌国平民。</p> <p>平民照片如下图所示。</p> <p></p> <img src='stimuli/faces/NCF3.jpg', style='max-width: 30%;'> </img> <p><strong>你是否选择发射武器？</strong></p>","1",""
"","","","","","html-keyboard-response","116","472567","0.0-4.0-0.56","94","1","2022-10-07 10:48:48","d60b49b5908c80e163b920d72b52d584","60.249.3.227","Mozilla/5.0 (Windows NT 10.0; Win64; x64) AppleWebKit/537.36 (KHTML, like Gecko) Chrome/106.0.0.0 Safari/537.36 Edg/106.0.1370.34","WebKit","Edge","106.0.1370.34","Windows","10.0","null","<div style=""font-size:60px;"">+</div>","null",""
"","","","","","html-button-response","117","475461","0.0-4.0-1.56","94","1","2022-10-07 10:48:48","d60b49b5908c80e163b920d72b52d584","60.249.3.227","Mozilla/5.0 (Windows NT 10.0; Win64; x64) AppleWebKit/537.36 (KHTML, like Gecko) Chrome/106.0.0.0 Safari/537.36 Edg/106.0.1370.34","WebKit","Edge","106.0.1370.34","Windows","10.0","2890","<p>作为军队的指挥官，你可以选择发射导弹杀死 <strong>2名</strong> 敌国士兵，但会炸毁附近的 <strong>1棵</strong> 敌国树木。</p> <p>树木的照片如下图所示。</p> <p></p> <img src='stimuli/trees/3.png', style='max-width: 30%;'> </img> <p><strong>你是否选择发射武器？</strong></p>","0",""
"","","","","","html-keyboard-response","118","476465","0.0-4.0-0.57","94","1","2022-10-07 10:48:48","d60b49b5908c80e163b920d72b52d584","60.249.3.227","Mozilla/5.0 (Windows NT 10.0; Win64; x64) AppleWebKit/537.36 (KHTML, like Gecko) Chrome/106.0.0.0 Safari/537.36 Edg/106.0.1370.34","WebKit","Edge","106.0.1370.34","Windows","10.0","null","<div style=""font-size:60px;"">+</div>","null",""
"","","","","","html-button-response","119","477779","0.0-4.0-1.57","94","1","2022-10-07 10:48:48","d60b49b5908c80e163b920d72b52d584","60.249.3.227","Mozilla/5.0 (Windows NT 10.0; Win64; x64) AppleWebKit/537.36 (KHTML, like Gecko) Chrome/106.0.0.0 Safari/537.36 Edg/106.0.1370.34","WebKit","Edge","106.0.1370.34","Windows","10.0","1311","<p>作为军队的指挥官，你可以选择发射导弹杀死 <strong>2名</strong> 敌国士兵，但会误杀附近的 <strong>1名</strong> 敌国平民。</p> <p>平民照片如下图所示。</p> <p></p> <img src='stimuli/faces/NCF7.jpg', style='max-width: 30%;'> </img> <p><strong>你是否选择发射武器？</strong></p>","1",""
"","","","","","html-keyboard-response","120","478795","0.0-4.0-0.58","94","1","2022-10-07 10:48:48","d60b49b5908c80e163b920d72b52d584","60.249.3.227","Mozilla/5.0 (Windows NT 10.0; Win64; x64) AppleWebKit/537.36 (KHTML, like Gecko) Chrome/106.0.0.0 Safari/537.36 Edg/106.0.1370.34","WebKit","Edge","106.0.1370.34","Windows","10.0","null","<div style=""font-size:60px;"">+</div>","null",""
"","","","","","html-button-response","121","480527","0.0-4.0-1.58","94","1","2022-10-07 10:48:48","d60b49b5908c80e163b920d72b52d584","60.249.3.227","Mozilla/5.0 (Windows NT 10.0; Win64; x64) AppleWebKit/537.36 (KHTML, like Gecko) Chrome/106.0.0.0 Safari/537.36 Edg/106.0.1370.34","WebKit","Edge","106.0.1370.34","Windows","10.0","1728","<p>作为军队的指挥官，你可以选择发射导弹杀死 <strong>4名</strong> 敌国士兵，但会误杀附近的 <strong>1名</strong> 敌国平民。</p> <p>平民照片如下图所示。</p> <p></p> <img src='stimuli/faces/NCM7.jpg', style='max-width: 30%;'> </img> <p><strong>你是否选择发射武器？</strong></p>","1",""
"","","","","","html-keyboard-response","122","481543","0.0-4.0-0.59","94","1","2022-10-07 10:48:48","d60b49b5908c80e163b920d72b52d584","60.249.3.227","Mozilla/5.0 (Windows NT 10.0; Win64; x64) AppleWebKit/537.36 (KHTML, like Gecko) Chrome/106.0.0.0 Safari/537.36 Edg/106.0.1370.34","WebKit","Edge","106.0.1370.34","Windows","10.0","null","<div style=""font-size:60px;"">+</div>","null",""
"","","","","","html-button-response","123","484105","0.0-4.0-1.59","94","1","2022-10-07 10:48:48","d60b49b5908c80e163b920d72b52d584","60.249.3.227","Mozilla/5.0 (Windows NT 10.0; Win64; x64) AppleWebKit/537.36 (KHTML, like Gecko) Chrome/106.0.0.0 Safari/537.36 Edg/106.0.1370.34","WebKit","Edge","106.0.1370.34","Windows","10.0","2557","<p>作为军队的指挥官，你可以选择发射导弹杀死 <strong>6名</strong> 敌国士兵，但会炸毁附近的 <strong>1棵</strong> 敌国树木。</p> <p>树木的照片如下图所示。</p> <p></p> <img src='stimuli/trees/4.png', style='max-width: 30%;'> </img> <p><strong>你是否选择发射武器？</strong></p>","0",""
"","","","","","html-keyboard-response","124","485124","0.0-4.0-0.60","94","1","2022-10-07 10:48:48","d60b49b5908c80e163b920d72b52d584","60.249.3.227","Mozilla/5.0 (Windows NT 10.0; Win64; x64) AppleWebKit/537.36 (KHTML, like Gecko) Chrome/106.0.0.0 Safari/537.36 Edg/106.0.1370.34","WebKit","Edge","106.0.1370.34","Windows","10.0","null","<div style=""font-size:60px;"">+</div>","null",""
"","","","","","html-button-response","125","487480","0.0-4.0-1.60","94","1","2022-10-07 10:48:48","d60b49b5908c80e163b920d72b52d584","60.249.3.227","Mozilla/5.0 (Windows NT 10.0; Win64; x64) AppleWebKit/537.36 (KHTML, like Gecko) Chrome/106.0.0.0 Safari/537.36 Edg/106.0.1370.34","WebKit","Edge","106.0.1370.34","Windows","10.0","2353","<p>作为军队的指挥官，你可以选择发射导弹杀死 <strong>2名</strong> 敌国士兵，但会误杀附近的 <strong>1名</strong> 敌国平民。</p> <p>平民照片如下图所示。</p> <p></p> <img src='stimuli/faces/NCM1.jpg', style='max-width: 30%;'> </img> <p><strong>你是否选择发射武器？</strong></p>","1",""
"","","","","","html-keyboard-response","126","488488","0.0-4.0-0.61","94","1","2022-10-07 10:48:48","d60b49b5908c80e163b920d72b52d584","60.249.3.227","Mozilla/5.0 (Windows NT 10.0; Win64; x64) AppleWebKit/537.36 (KHTML, like Gecko) Chrome/106.0.0.0 Safari/537.36 Edg/106.0.1370.34","WebKit","Edge","106.0.1370.34","Windows","10.0","null","<div style=""font-size:60px;"">+</div>","null",""
"","","","","","html-button-response","127","490300","0.0-4.0-1.61","94","1","2022-10-07 10:48:48","d60b49b5908c80e163b920d72b52d584","60.249.3.227","Mozilla/5.0 (Windows NT 10.0; Win64; x64) AppleWebKit/537.36 (KHTML, like Gecko) Chrome/106.0.0.0 Safari/537.36 Edg/106.0.1370.34","WebKit","Edge","106.0.1370.34","Windows","10.0","1808","<p>作为军队的指挥官，你可以选择发射导弹杀死 <strong>10名</strong> 敌国士兵，但会炸毁附近的 <strong>1棵</strong> 敌国树木。</p> <p>树木的照片如下图所示。</p> <p></p> <img src='stimuli/trees/6.png', style='max-width: 30%;'> </img> <p><strong>你是否选择发射武器？</strong></p>","0",""
"","","","","","html-keyboard-response","128","491305","0.0-4.0-0.62","94","1","2022-10-07 10:48:48","d60b49b5908c80e163b920d72b52d584","60.249.3.227","Mozilla/5.0 (Windows NT 10.0; Win64; x64) AppleWebKit/537.36 (KHTML, like Gecko) Chrome/106.0.0.0 Safari/537.36 Edg/106.0.1370.34","WebKit","Edge","106.0.1370.34","Windows","10.0","null","<div style=""font-size:60px;"">+</div>","null",""
"","","","","","html-button-response","129","500984","0.0-4.0-1.62","94","1","2022-10-07 10:48:48","d60b49b5908c80e163b920d72b52d584","60.249.3.227","Mozilla/5.0 (Windows NT 10.0; Win64; x64) AppleWebKit/537.36 (KHTML, like Gecko) Chrome/106.0.0.0 Safari/537.36 Edg/106.0.1370.34","WebKit","Edge","106.0.1370.34","Windows","10.0","9676","<p>作为军队的指挥官，你可以选择发射导弹杀死 <strong>2名</strong> 敌国士兵，但会误杀附近的 <strong>1名</strong> 敌国平民。</p> <p>平民照片如下图所示。</p> <p></p> <img src='stimuli/faces/NCF6.jpg', style='max-width: 30%;'> </img> <p><strong>你是否选择发射武器？</strong></p>","1",""
"","","","","","html-keyboard-response","130","501994","0.0-4.0-0.63","94","1","2022-10-07 10:48:48","d60b49b5908c80e163b920d72b52d584","60.249.3.227","Mozilla/5.0 (Windows NT 10.0; Win64; x64) AppleWebKit/537.36 (KHTML, like Gecko) Chrome/106.0.0.0 Safari/537.36 Edg/106.0.1370.34","WebKit","Edge","106.0.1370.34","Windows","10.0","null","<div style=""font-size:60px;"">+</div>","null",""
"","","","","","html-button-response","131","503128","0.0-4.0-1.63","94","1","2022-10-07 10:48:48","d60b49b5908c80e163b920d72b52d584","60.249.3.227","Mozilla/5.0 (Windows NT 10.0; Win64; x64) AppleWebKit/537.36 (KHTML, like Gecko) Chrome/106.0.0.0 Safari/537.36 Edg/106.0.1370.34","WebKit","Edge","106.0.1370.34","Windows","10.0","1131","<p>作为军队的指挥官，你可以选择发射导弹杀死 <strong>6名</strong> 敌国士兵，但会误杀附近的 <strong>1名</strong> 敌国平民。</p> <p>平民照片如下图所示。</p> <p></p> <img src='stimuli/faces/NCM1.jpg', style='max-width: 30%;'> </img> <p><strong>你是否选择发射武器？</strong></p>","1",""
"","","","","","survey-multi-choice","132","547785","0.0-5.0","94","1","2022-10-07 10:48:48","d60b49b5908c80e163b920d72b52d584","60.249.3.227","Mozilla/5.0 (Windows NT 10.0; Win64; x64) AppleWebKit/537.36 (KHTML, like Gecko) Chrome/106.0.0.0 Safari/537.36 Edg/106.0.1370.34","WebKit","Edge","106.0.1370.34","Windows","10.0","44652","","{""Attention1"":""""}","[0]"
"","","","","","html-button-response","133","552955","0.0-6.0","94","1","2022-10-07 10:48:48","d60b49b5908c80e163b920d72b52d584","60.249.3.227","Mozilla/5.0 (Windows NT 10.0; Win64; x64) AppleWebKit/537.36 (KHTML, like Gecko) Chrome/106.0.0.0 Safari/537.36 Edg/106.0.1370.34","WebKit","Edge","106.0.1370.34","Windows","10.0","5166","<p style=""font-size:20px;font-weight:bold;"">恭喜！</p><p>你已经完成了实验的第一部分。</p><p>请休息放松一下，然后进入第二部分。</p><p>这部分大约需要10分钟。</p>","0",""
"","","","","","survey-text","134","603653","0.0-7.0","94","1","2022-10-07 10:48:48","d60b49b5908c80e163b920d72b52d584","60.249.3.227","Mozilla/5.0 (Windows NT 10.0; Win64; x64) AppleWebKit/537.36 (KHTML, like Gecko) Chrome/106.0.0.0 Safari/537.36 Edg/106.0.1370.34","WebKit","Edge","106.0.1370.34","Windows","10.0","49674","","{""Age"":""23"",""Nation"":""中国"",""Born"":""广东"",""Live"":""广东"",""Ethnic"":""汉"",""Alipay"":""14718580615""}",""
"","","","","","survey-multi-choice","135","630888","0.0-8.0","94","1","2022-10-07 10:48:48","d60b49b5908c80e163b920d72b52d584","60.249.3.227","Mozilla/5.0 (Windows NT 10.0; Win64; x64) AppleWebKit/537.36 (KHTML, like Gecko) Chrome/106.0.0.0 Safari/537.36 Edg/106.0.1370.34","WebKit","Edge","106.0.1370.34","Windows","10.0","27231","","{""Gender"":""女"",""Education"":""本科毕业"",""Income"":""￥70,000-￥139,999"",""Children"":""0"",""Race"":""亚洲人""}","[0,1,2,3,4]"
"","","","","","survey-multi-select","136","639597","0.0-9.0","94","1","2022-10-07 10:48:48","d60b49b5908c80e163b920d72b52d584","60.249.3.227","Mozilla/5.0 (Windows NT 10.0; Win64; x64) AppleWebKit/537.36 (KHTML, like Gecko) Chrome/106.0.0.0 Safari/537.36 Edg/106.0.1370.34","WebKit","Edge","106.0.1370.34","Windows","10.0","8698","","{""Marriage"":[""未婚"",""其他""],""Religion"":[""无宗教信仰""]}","[0,1]"
"","","","","","survey-multi-choice","137","667084","0.0-10.0","94","1","2022-10-07 10:48:48","d60b49b5908c80e163b920d72b52d584","60.249.3.227","Mozilla/5.0 (Windows NT 10.0; Win64; x64) AppleWebKit/537.36 (KHTML, like Gecko) Chrome/106.0.0.0 Safari/537.36 Edg/106.0.1370.34","WebKit","Edge","106.0.1370.34","Windows","10.0","27483","","{""SES"":""4""}","[0]"
"","","","","","html-button-response","138","688574","0.0-11.0","94","1","2022-10-07 10:48:48","d60b49b5908c80e163b920d72b52d584","60.249.3.227","Mozilla/5.0 (Windows NT 10.0; Win64; x64) AppleWebKit/537.36 (KHTML, like Gecko) Chrome/106.0.0.0 Safari/537.36 Edg/106.0.1370.34","WebKit","Edge","106.0.1370.34","Windows","10.0","21485","<p><strong>请判断下列陈述在多大程度上可以形容你？</p><p> (1 = ""和我一点都不像"" to 5 = ""非常像我"".)</strong></p>","0",""
"","","","","","survey-likert","139","763919","0.0-12.0","94","1","2022-10-07 10:48:48","d60b49b5908c80e163b920d72b52d584","60.249.3.227","Mozilla/5.0 (Windows NT 10.0; Win64; x64) AppleWebKit/537.36 (KHTML, like Gecko) Chrome/106.0.0.0 Safari/537.36 Edg/106.0.1370.34","WebKit","Edge","106.0.1370.34","Windows","10.0","75341","","{""Aggression1"":0,""Aggression2"":0,""Aggression3"":1,""Aggression4"":0,""Aggression5"":2,""Aggression6"":1,""Aggression7"":3,""Aggression8"":1,""Aggression9"":3}","[0,1,2,3,4,5,6,7,8]"
"","","","","","html-button-response","140","765979","0.0-13.0","94","1","2022-10-07 10:48:48","d60b49b5908c80e163b920d72b52d584","60.249.3.227","Mozilla/5.0 (Windows NT 10.0; Win64; x64) AppleWebKit/537.36 (KHTML, like Gecko) Chrome/106.0.0.0 Safari/537.36 Edg/106.0.1370.34","WebKit","Edge","106.0.1370.34","Windows","10.0","2056","<p><strong>请判断你在多大程度上同意下列陈述。</strong></p>","0",""
"","","","","","survey-likert","141","975900","0.0-14.0","94","1","2022-10-07 10:48:48","d60b49b5908c80e163b920d72b52d584","60.249.3.227","Mozilla/5.0 (Windows NT 10.0; Win64; x64) AppleWebKit/537.36 (KHTML, like Gecko) Chrome/106.0.0.0 Safari/537.36 Edg/106.0.1370.34","WebKit","Edge","106.0.1370.34","Windows","10.0","209916","","{""scale3"":2,""scale11"":3,""scale22"":3,""scale9"":3,""scale13"":1,""scale27"":1,""scale7"":0,""scale17"":3,""scale26"":1,""scale1"":2,""scale14"":2,""scale20"":3,""scale2"":3,""scale10"":3,""scale16"":1,""scale8"":3,""scale18"":1,""scale4"":1,""scale23"":1,""scale28"":2,""scale5"":3,""scale24"":1,""scale6"":3,""scale15"":1,""scale21"":2,""scale12"":1,""scale19"":2,""scale25"":2}","[2,10,21,8,12,26,6,16,25,0,13,19,1,9,15,7,17,3,22,27,4,23,5,14,20,11,18,24]"
"","","","","","html-button-response","142","977144","0.0-15.0","94","1","2022-10-07 10:48:48","d60b49b5908c80e163b920d72b52d584","60.249.3.227","Mozilla/5.0 (Windows NT 10.0; Win64; x64) AppleWebKit/537.36 (KHTML, like Gecko) Chrome/106.0.0.0 Safari/537.36 Edg/106.0.1370.34","WebKit","Edge","106.0.1370.34","Windows","10.0","1240","<p><strong>请判断你在多大程度上同意下列陈述。</strong></p>","0",""
"","","","","","survey-likert","143","1079371","0.0-16.0","94","1","2022-10-07 10:48:48","d60b49b5908c80e163b920d72b52d584","60.249.3.227","Mozilla/5.0 (Windows NT 10.0; Win64; x64) AppleWebKit/537.36 (KHTML, like Gecko) Chrome/106.0.0.0 Safari/537.36 Edg/106.0.1370.34","WebKit","Edge","106.0.1370.34","Windows","10.0","102223","","{""sdo5"":5,""sdo6"":2,""sdo16"":5,""sdo14"":5,""sdo11"":5,""sdo4"":4,""sdo3"":3,""sdo13"":5,""sdo9"":4,""sdo2"":1,""sdo12"":5,""sdo15"":2,""sdo10"":4,""sdo8"":3,""sdo7"":3,""sdo1"":2}","[4,5,15,13,10,3,2,12,8,1,11,14,9,7,6,0]"
"","","","","","html-button-response","144","1080754","0.0-17.0","94","1","2022-10-07 10:48:48","d60b49b5908c80e163b920d72b52d584","60.249.3.227","Mozilla/5.0 (Windows NT 10.0; Win64; x64) AppleWebKit/537.36 (KHTML, like Gecko) Chrome/106.0.0.0 Safari/537.36 Edg/106.0.1370.34","WebKit","Edge","106.0.1370.34","Windows","10.0","1378","<p><strong>请判断你在多大程度上同意下列陈述。</strong></p>","0",""
"","","","","","survey-likert","145","1225939","0.0-18.0","94","1","2022-10-07 10:48:48","d60b49b5908c80e163b920d72b52d584","60.249.3.227","Mozilla/5.0 (Windows NT 10.0; Win64; x64) AppleWebKit/537.36 (KHTML, like Gecko) Chrome/106.0.0.0 Safari/537.36 Edg/106.0.1370.34","WebKit","Edge","106.0.1370.34","Windows","10.0","145181","","{""caring1"":3,""liking1"":3,""caring2"":3,""protection1"":3,""liking2"":1,""caring3"":2,""protection2"":2,""liking3"":3,""protection3"":3,""caring4"":3,""liking4"":2,""protection4"":2,""caring5"":1,""liking5"":2,""protection5"":1}","[0,1,2,3,4,5,6,7,8,9,10,11,12,13,14]"
"","","","","","html-button-response","146","1227795","0.0-19.0","94","1","2022-10-07 10:48:48","d60b49b5908c80e163b920d72b52d584","60.249.3.227","Mozilla/5.0 (Windows NT 10.0; Win64; x64) AppleWebKit/537.36 (KHTML, like Gecko) Chrome/106.0.0.0 Safari/537.36 Edg/106.0.1370.34","WebKit","Edge","106.0.1370.34","Windows","10.0","1851","<p><strong>请判断下列场景中你的内心感受有多柔软。</strong></p>","0",""
"","","","","","survey-likert","147","1258326","0.0-20.0","94","1","2022-10-07 10:48:48","d60b49b5908c80e163b920d72b52d584","60.249.3.227","Mozilla/5.0 (Windows NT 10.0; Win64; x64) AppleWebKit/537.36 (KHTML, like Gecko) Chrome/106.0.0.0 Safari/537.36 Edg/106.0.1370.34","WebKit","Edge","106.0.1370.34","Windows","10.0","30528","","{""tenderness-positive1"":3,""tenderness-negative1"":1,""tenderness-negative2"":0,""tenderness-positive2"":3,""tenderness-positive3"":4,""tenderness-negative3"":1,""tenderness-positive4"":4,""tendereness-negative4"":1,""tendernness-negative5"":1,""tenderness-positive5"":4}","[0,1,2,3,4,5,6,7,8,9]"
"","","","","","survey-multi-choice","148","1312547","0.0-21.0","94","1","2022-10-07 10:48:48","d60b49b5908c80e163b920d72b52d584","60.249.3.227","Mozilla/5.0 (Windows NT 10.0; Win64; x64) AppleWebKit/537.36 (KHTML, like Gecko) Chrome/106.0.0.0 Safari/537.36 Edg/106.0.1370.34","WebKit","Edge","106.0.1370.34","Windows","10.0","54217","","{""Attention2"":""从来没有""}","[0]"
"","","","","","html-button-response","149","1313994","0.0-22.0","94","1","2022-10-07 10:48:48","d60b49b5908c80e163b920d72b52d584","60.249.3.227","Mozilla/5.0 (Windows NT 10.0; Win64; x64) AppleWebKit/537.36 (KHTML, like Gecko) Chrome/106.0.0.0 Safari/537.36 Edg/106.0.1370.34","WebKit","Edge","106.0.1370.34","Windows","10.0","1442","<p><strong>请判断你在多大程度上同意下列陈述。</strong></p>","0",""
"","","","","","survey-likert","150","1435036","0.0-23.0","94","1","2022-10-07 10:48:48","d60b49b5908c80e163b920d72b52d584","60.249.3.227","Mozilla/5.0 (Windows NT 10.0; Win64; x64) AppleWebKit/537.36 (KHTML, like Gecko) Chrome/106.0.0.0 Safari/537.36 Edg/106.0.1370.34","WebKit","Edge","106.0.1370.34","Windows","10.0","118843","","{""Nation5"":1,""Nation2"":4,""Patri12"":1,""Patri7"":4,""Patri5"":4,""Patri9"":1,""Nation7"":3,""Patri11"":1,""Patri10"":0,""Nation6"":3,""Patri3"":3,""Nation1"":1,""Patri2"":3,""Nation3"":1,""Patri6"":1,""Nation4"":1,""Patri8"":4,""Patri4"":4,""Nation8"":1,""Patri1"":4}","[16,13,11,6,4,8,18,10,9,17,2,12,1,14,5,15,7,3,19,0]"
"","","","","","html-button-response","151","1436192","0.0-24.0","94","1","2022-10-07 10:48:48","d60b49b5908c80e163b920d72b52d584","60.249.3.227","Mozilla/5.0 (Windows NT 10.0; Win64; x64) AppleWebKit/537.36 (KHTML, like Gecko) Chrome/106.0.0.0 Safari/537.36 Edg/106.0.1370.34","WebKit","Edge","106.0.1370.34","Windows","10.0","1152","<p><strong>请判断你在多大程度上同意下列陈述。</strong></p>","0",""
"","","","","","survey-likert","152","1526686","0.0-25.0","94","1","2022-10-07 10:48:48","d60b49b5908c80e163b920d72b52d584","60.249.3.227","Mozilla/5.0 (Windows NT 10.0; Win64; x64) AppleWebKit/537.36 (KHTML, like Gecko) Chrome/106.0.0.0 Safari/537.36 Edg/106.0.1370.34","WebKit","Edge","106.0.1370.34","Windows","10.0","90489","","{""vi2"":6,""Robot"":6,""hi4"":5,""hi3"":5,""vi4"":5,""vc3"":5,""vc1"":6,""vi1"":7,""hc1"":6,""vi3"":6,""hc3"":5,""hi1"":7,""hc4"":6,""vc2"":5,""hc2"":5,""vc4"":4,""hi2"":5}","[5,7,3,2,8,15,13,4,9,6,11,0,12,14,10,16,1]"
"","","","","","survey-text","153","1530521","0.0-26.0","94","1","2022-10-07 10:48:48","d60b49b5908c80e163b920d72b52d584","60.249.3.227","Mozilla/5.0 (Windows NT 10.0; Win64; x64) AppleWebKit/537.36 (KHTML, like Gecko) Chrome/106.0.0.0 Safari/537.36 Edg/106.0.1370.34","WebKit","Edge","106.0.1370.34","Windows","10.0","3827","","{""Comments"":""无""}",""
"","","","","","html-button-response","154","1531820","0.0-27.0","94","1","2022-10-07 10:48:48","d60b49b5908c80e163b920d72b52d584","60.249.3.227","Mozilla/5.0 (Windows NT 10.0; Win64; x64) AppleWebKit/537.36 (KHTML, like Gecko) Chrome/106.0.0.0 Safari/537.36 Edg/106.0.1370.34","WebKit","Edge","106.0.1370.34","Windows","10.0","1297","<strong><p>恭喜你完成了实验！</p><p>感谢您的参与。</p></strong>","0",""
