"success","timeout","failed_images","failed_audio","failed_video","trial_type","trial_index","time_elapsed","internal_node_id","run_id","condition","recorded_at","source_code_version","ip","user_agent","device","browser","browser_version","platform","platform_version","rt","stimulus","response","question_order"
"true","false","[]","[]","[]","preload","0","770","0.0-0.0","96","1","2022-10-07 11:10:53","d60b49b5908c80e163b920d72b52d584","39.149.89.108","Mozilla/5.0 (Windows NT 10.0; Win64; x64) AppleWebKit/537.36 (KHTML, like Gecko) Chrome/106.0.0.0 Safari/537.36 Edg/106.0.1370.34","WebKit","Edge","106.0.1370.34","Windows","10.0","","","",""
"true","","","","","fullscreen","1","3046","0.0-1.0","96","1","2022-10-07 11:10:53","d60b49b5908c80e163b920d72b52d584","39.149.89.108","Mozilla/5.0 (Windows NT 10.0; Win64; x64) AppleWebKit/537.36 (KHTML, like Gecko) Chrome/106.0.0.0 Safari/537.36 Edg/106.0.1370.34","WebKit","Edge","106.0.1370.34","Windows","10.0","","","",""
"","","","","","html-button-response","2","5077","0.0-2.0","96","1","2022-10-07 11:10:53","d60b49b5908c80e163b920d72b52d584","39.149.89.108","Mozilla/5.0 (Windows NT 10.0; Win64; x64) AppleWebKit/537.36 (KHTML, like Gecko) Chrome/106.0.0.0 Safari/537.36 Edg/106.0.1370.34","WebKit","Edge","106.0.1370.34","Windows","10.0","2030","<p style=""font-size:20px;font-weight:bold;"">实验知情同意书</p><p style=""text-align:left;""><strong>实验名称：</strong>社会冲突研究</p><p style=""text-align:left;""><strong>主要研究者：</strong>韩晓春副教授（北京师范大学心理学部）</p><p style=""text-align:left;""><strong>联系方式：</strong>发送邮件至xiaochun.han@bnu.edu.cn</p><p style=""text-align:left;""><strong>研究目的：</strong>研究旨在了解人类面对群体冲突时的决策方式，以及相关的心理学特质。实验调查大约需要20分钟。</p><p style=""text-align:left;""><strong>实验流程：</strong>实验包含两部分。第一部分呈现一系列群体冲突场景，请你决定如何对这些冲突进行反应，大约需要10分钟完成。第二部分包含一系列人口统计学信息收集和心理学问卷，大约需要10分钟完成。</p><p style=""text-align:left;""><strong>参加及退出规则：</strong>参加本实验完全取决于您的个人意愿。在参与过程中，您可以随时退出，并且不用承担任何后果。</p><p style=""text-align:left;""><strong>隐私：</strong>本实验完全匿名进行，不会收集您的姓名或其他能够识别您身份的信息。实验中收集的作答仅用作科学研究使用，可能会在学术期刊/书籍上发表，或者用于教学，您的数据未来可能会和其他研究者或实验室分享，但您的个人身份不会被识别。</p><p style=""text-align:left;""><strong>实验报酬：</strong>实验完成后，您将获得15元人民币报酬，以感谢您的时间和努力。调查问卷中包含几道题目用以测验您作答时的认真度。只有完成全部实验，并且正确回答认真度测验的被试才能获得实验报酬。实验报酬将通过支付宝转账发放。</p><p style=""text-align:left;font-size:20px;""><strong>如果您同意以上实验知情同意书的内容，请点击'同意并且开始实验'按钮；否则请关闭浏览器界面，退出实验。</strong></p>","0",""
"","","","","","html-button-response","3","36917","0.0-3.0","96","1","2022-10-07 11:10:53","d60b49b5908c80e163b920d72b52d584","39.149.89.108","Mozilla/5.0 (Windows NT 10.0; Win64; x64) AppleWebKit/537.36 (KHTML, like Gecko) Chrome/106.0.0.0 Safari/537.36 Edg/106.0.1370.34","WebKit","Edge","106.0.1370.34","Windows","10.0","31838","<p ><strong>实验任务一：</strong></p><p>请想象你的国家与另一个国家发生了军事冲突。</p><p>你是国家军队的指挥官，你将如何在冲突中进行决策。</p><p>具体来说，作为军队指挥官，请你决定是否发射导弹进行打击。</p><p>接下来，你会面对一系列场景，请仔细阅读每个场景，然后进行决策。</p><p>这部分实验任务大约需要10分钟。</p><p><strong>实验过程中，请集中注意力。</strong></p>","0",""
"","","","","","html-keyboard-response","4","37928","0.0-4.0-0.0","96","1","2022-10-07 11:10:53","d60b49b5908c80e163b920d72b52d584","39.149.89.108","Mozilla/5.0 (Windows NT 10.0; Win64; x64) AppleWebKit/537.36 (KHTML, like Gecko) Chrome/106.0.0.0 Safari/537.36 Edg/106.0.1370.34","WebKit","Edge","106.0.1370.34","Windows","10.0","null","<div style=""font-size:60px;"">+</div>","null",""
"","","","","","html-button-response","5","62494","0.0-4.0-1.0","96","1","2022-10-07 11:10:53","d60b49b5908c80e163b920d72b52d584","39.149.89.108","Mozilla/5.0 (Windows NT 10.0; Win64; x64) AppleWebKit/537.36 (KHTML, like Gecko) Chrome/106.0.0.0 Safari/537.36 Edg/106.0.1370.34","WebKit","Edge","106.0.1370.34","Windows","10.0","24563","<p>作为军队的指挥官，你可以选择发射导弹杀死 <strong>9名</strong> 敌国士兵，但会误杀附近的 <strong>1名</strong> 敌国平民。</p> <p>平民照片如下图所示。</p> <p></p> <img src='stimuli/faces/NCF1.jpg', style='max-width: 30%;'> </img> <p><strong>你是否选择发射武器？</strong></p>","1",""
"","","","","","html-keyboard-response","6","63496","0.0-4.0-0.1","96","1","2022-10-07 11:10:53","d60b49b5908c80e163b920d72b52d584","39.149.89.108","Mozilla/5.0 (Windows NT 10.0; Win64; x64) AppleWebKit/537.36 (KHTML, like Gecko) Chrome/106.0.0.0 Safari/537.36 Edg/106.0.1370.34","WebKit","Edge","106.0.1370.34","Windows","10.0","null","<div style=""font-size:60px;"">+</div>","null",""
"","","","","","html-button-response","7","69222","0.0-4.0-1.1","96","1","2022-10-07 11:10:53","d60b49b5908c80e163b920d72b52d584","39.149.89.108","Mozilla/5.0 (Windows NT 10.0; Win64; x64) AppleWebKit/537.36 (KHTML, like Gecko) Chrome/106.0.0.0 Safari/537.36 Edg/106.0.1370.34","WebKit","Edge","106.0.1370.34","Windows","10.0","5724","<p>作为军队的指挥官，你可以选择发射导弹杀死 <strong>9名</strong> 敌国士兵，但会炸毁附近的 <strong>1棵</strong> 敌国树木。</p> <p>树木的照片如下图所示。</p> <p></p> <img src='stimuli/trees/3.png', style='max-width: 30%;'> </img> <p><strong>你是否选择发射武器？</strong></p>","0",""
"","","","","","html-keyboard-response","8","70224","0.0-4.0-0.2","96","1","2022-10-07 11:10:53","d60b49b5908c80e163b920d72b52d584","39.149.89.108","Mozilla/5.0 (Windows NT 10.0; Win64; x64) AppleWebKit/537.36 (KHTML, like Gecko) Chrome/106.0.0.0 Safari/537.36 Edg/106.0.1370.34","WebKit","Edge","106.0.1370.34","Windows","10.0","null","<div style=""font-size:60px;"">+</div>","null",""
"","","","","","html-button-response","9","76044","0.0-4.0-1.2","96","1","2022-10-07 11:10:53","d60b49b5908c80e163b920d72b52d584","39.149.89.108","Mozilla/5.0 (Windows NT 10.0; Win64; x64) AppleWebKit/537.36 (KHTML, like Gecko) Chrome/106.0.0.0 Safari/537.36 Edg/106.0.1370.34","WebKit","Edge","106.0.1370.34","Windows","10.0","5819","<p>作为军队的指挥官，你可以选择发射导弹杀死 <strong>1名</strong> 敌国士兵，但会炸毁附近的 <strong>1棵</strong> 敌国树木。</p> <p>树木的照片如下图所示。</p> <p></p> <img src='stimuli/trees/15.png', style='max-width: 30%;'> </img> <p><strong>你是否选择发射武器？</strong></p>","0",""
"","","","","","html-keyboard-response","10","77045","0.0-4.0-0.3","96","1","2022-10-07 11:10:53","d60b49b5908c80e163b920d72b52d584","39.149.89.108","Mozilla/5.0 (Windows NT 10.0; Win64; x64) AppleWebKit/537.36 (KHTML, like Gecko) Chrome/106.0.0.0 Safari/537.36 Edg/106.0.1370.34","WebKit","Edge","106.0.1370.34","Windows","10.0","null","<div style=""font-size:60px;"">+</div>","null",""
"","","","","","html-button-response","11","82925","0.0-4.0-1.3","96","1","2022-10-07 11:10:53","d60b49b5908c80e163b920d72b52d584","39.149.89.108","Mozilla/5.0 (Windows NT 10.0; Win64; x64) AppleWebKit/537.36 (KHTML, like Gecko) Chrome/106.0.0.0 Safari/537.36 Edg/106.0.1370.34","WebKit","Edge","106.0.1370.34","Windows","10.0","5877","<p>作为军队的指挥官，你可以选择发射导弹杀死 <strong>8名</strong> 敌国士兵，但会炸毁附近的 <strong>1棵</strong> 敌国树木。</p> <p>树木的照片如下图所示。</p> <p></p> <img src='stimuli/trees/7.png', style='max-width: 30%;'> </img> <p><strong>你是否选择发射武器？</strong></p>","0",""
"","","","","","html-keyboard-response","12","83927","0.0-4.0-0.4","96","1","2022-10-07 11:10:53","d60b49b5908c80e163b920d72b52d584","39.149.89.108","Mozilla/5.0 (Windows NT 10.0; Win64; x64) AppleWebKit/537.36 (KHTML, like Gecko) Chrome/106.0.0.0 Safari/537.36 Edg/106.0.1370.34","WebKit","Edge","106.0.1370.34","Windows","10.0","null","<div style=""font-size:60px;"">+</div>","null",""
"","","","","","html-button-response","13","92534","0.0-4.0-1.4","96","1","2022-10-07 11:10:53","d60b49b5908c80e163b920d72b52d584","39.149.89.108","Mozilla/5.0 (Windows NT 10.0; Win64; x64) AppleWebKit/537.36 (KHTML, like Gecko) Chrome/106.0.0.0 Safari/537.36 Edg/106.0.1370.34","WebKit","Edge","106.0.1370.34","Windows","10.0","8605","<p>作为军队的指挥官，你可以选择发射导弹杀死 <strong>3名</strong> 敌国士兵，但会误杀附近的 <strong>1名</strong> 敌国平民。</p> <p>平民照片如下图所示。</p> <p></p> <img src='stimuli/faces/NCM5.jpg', style='max-width: 30%;'> </img> <p><strong>你是否选择发射武器？</strong></p>","0",""
"","","","","","html-keyboard-response","14","93549","0.0-4.0-0.5","96","1","2022-10-07 11:10:53","d60b49b5908c80e163b920d72b52d584","39.149.89.108","Mozilla/5.0 (Windows NT 10.0; Win64; x64) AppleWebKit/537.36 (KHTML, like Gecko) Chrome/106.0.0.0 Safari/537.36 Edg/106.0.1370.34","WebKit","Edge","106.0.1370.34","Windows","10.0","null","<div style=""font-size:60px;"">+</div>","null",""
"","","","","","html-button-response","15","99525","0.0-4.0-1.5","96","1","2022-10-07 11:10:53","d60b49b5908c80e163b920d72b52d584","39.149.89.108","Mozilla/5.0 (Windows NT 10.0; Win64; x64) AppleWebKit/537.36 (KHTML, like Gecko) Chrome/106.0.0.0 Safari/537.36 Edg/106.0.1370.34","WebKit","Edge","106.0.1370.34","Windows","10.0","5973","<p>作为军队的指挥官，你可以选择发射导弹杀死 <strong>2名</strong> 敌国士兵，但会误杀附近的 <strong>1名</strong> 敌国平民。</p> <p>平民照片如下图所示。</p> <p></p> <img src='stimuli/faces/NCM4.jpg', style='max-width: 30%;'> </img> <p><strong>你是否选择发射武器？</strong></p>","1",""
"","","","","","html-keyboard-response","16","100527","0.0-4.0-0.6","96","1","2022-10-07 11:10:53","d60b49b5908c80e163b920d72b52d584","39.149.89.108","Mozilla/5.0 (Windows NT 10.0; Win64; x64) AppleWebKit/537.36 (KHTML, like Gecko) Chrome/106.0.0.0 Safari/537.36 Edg/106.0.1370.34","WebKit","Edge","106.0.1370.34","Windows","10.0","null","<div style=""font-size:60px;"">+</div>","null",""
"","","","","","html-button-response","17","115518","0.0-4.0-1.6","96","1","2022-10-07 11:10:53","d60b49b5908c80e163b920d72b52d584","39.149.89.108","Mozilla/5.0 (Windows NT 10.0; Win64; x64) AppleWebKit/537.36 (KHTML, like Gecko) Chrome/106.0.0.0 Safari/537.36 Edg/106.0.1370.34","WebKit","Edge","106.0.1370.34","Windows","10.0","14989","<p>作为军队的指挥官，你可以选择发射导弹杀死 <strong>3名</strong> 敌国士兵，但会炸毁附近的 <strong>1棵</strong> 敌国树木。</p> <p>树木的照片如下图所示。</p> <p></p> <img src='stimuli/trees/12.png', style='max-width: 30%;'> </img> <p><strong>你是否选择发射武器？</strong></p>","0",""
"","","","","","html-keyboard-response","18","116520","0.0-4.0-0.7","96","1","2022-10-07 11:10:53","d60b49b5908c80e163b920d72b52d584","39.149.89.108","Mozilla/5.0 (Windows NT 10.0; Win64; x64) AppleWebKit/537.36 (KHTML, like Gecko) Chrome/106.0.0.0 Safari/537.36 Edg/106.0.1370.34","WebKit","Edge","106.0.1370.34","Windows","10.0","null","<div style=""font-size:60px;"">+</div>","null",""
"","","","","","html-button-response","19","121436","0.0-4.0-1.7","96","1","2022-10-07 11:10:53","d60b49b5908c80e163b920d72b52d584","39.149.89.108","Mozilla/5.0 (Windows NT 10.0; Win64; x64) AppleWebKit/537.36 (KHTML, like Gecko) Chrome/106.0.0.0 Safari/537.36 Edg/106.0.1370.34","WebKit","Edge","106.0.1370.34","Windows","10.0","4916","<p>作为军队的指挥官，你可以选择发射导弹杀死 <strong>6名</strong> 敌国士兵，但会炸毁附近的 <strong>1棵</strong> 敌国树木。</p> <p>树木的照片如下图所示。</p> <p></p> <img src='stimuli/trees/12.png', style='max-width: 30%;'> </img> <p><strong>你是否选择发射武器？</strong></p>","0",""
"","","","","","html-keyboard-response","20","122438","0.0-4.0-0.8","96","1","2022-10-07 11:10:53","d60b49b5908c80e163b920d72b52d584","39.149.89.108","Mozilla/5.0 (Windows NT 10.0; Win64; x64) AppleWebKit/537.36 (KHTML, like Gecko) Chrome/106.0.0.0 Safari/537.36 Edg/106.0.1370.34","WebKit","Edge","106.0.1370.34","Windows","10.0","null","<div style=""font-size:60px;"">+</div>","null",""
"","","","","","html-button-response","21","126525","0.0-4.0-1.8","96","1","2022-10-07 11:10:53","d60b49b5908c80e163b920d72b52d584","39.149.89.108","Mozilla/5.0 (Windows NT 10.0; Win64; x64) AppleWebKit/537.36 (KHTML, like Gecko) Chrome/106.0.0.0 Safari/537.36 Edg/106.0.1370.34","WebKit","Edge","106.0.1370.34","Windows","10.0","4086","<p>作为军队的指挥官，你可以选择发射导弹杀死 <strong>3名</strong> 敌国士兵，但会炸毁附近的 <strong>1棵</strong> 敌国树木。</p> <p>树木的照片如下图所示。</p> <p></p> <img src='stimuli/trees/13.png', style='max-width: 30%;'> </img> <p><strong>你是否选择发射武器？</strong></p>","1",""
"","","","","","html-keyboard-response","22","127527","0.0-4.0-0.9","96","1","2022-10-07 11:10:53","d60b49b5908c80e163b920d72b52d584","39.149.89.108","Mozilla/5.0 (Windows NT 10.0; Win64; x64) AppleWebKit/537.36 (KHTML, like Gecko) Chrome/106.0.0.0 Safari/537.36 Edg/106.0.1370.34","WebKit","Edge","106.0.1370.34","Windows","10.0","null","<div style=""font-size:60px;"">+</div>","null",""
"","","","","","html-button-response","23","134062","0.0-4.0-1.9","96","1","2022-10-07 11:10:53","d60b49b5908c80e163b920d72b52d584","39.149.89.108","Mozilla/5.0 (Windows NT 10.0; Win64; x64) AppleWebKit/537.36 (KHTML, like Gecko) Chrome/106.0.0.0 Safari/537.36 Edg/106.0.1370.34","WebKit","Edge","106.0.1370.34","Windows","10.0","6533","<p>作为军队的指挥官，你可以选择发射导弹杀死 <strong>8名</strong> 敌国士兵，但会误杀附近的 <strong>1名</strong> 敌国平民。</p> <p>平民照片如下图所示。</p> <p></p> <img src='stimuli/faces/NCM4.jpg', style='max-width: 30%;'> </img> <p><strong>你是否选择发射武器？</strong></p>","0",""
"","","","","","html-keyboard-response","24","135063","0.0-4.0-0.10","96","1","2022-10-07 11:10:53","d60b49b5908c80e163b920d72b52d584","39.149.89.108","Mozilla/5.0 (Windows NT 10.0; Win64; x64) AppleWebKit/537.36 (KHTML, like Gecko) Chrome/106.0.0.0 Safari/537.36 Edg/106.0.1370.34","WebKit","Edge","106.0.1370.34","Windows","10.0","null","<div style=""font-size:60px;"">+</div>","null",""
"","","","","","html-button-response","25","142356","0.0-4.0-1.10","96","1","2022-10-07 11:10:53","d60b49b5908c80e163b920d72b52d584","39.149.89.108","Mozilla/5.0 (Windows NT 10.0; Win64; x64) AppleWebKit/537.36 (KHTML, like Gecko) Chrome/106.0.0.0 Safari/537.36 Edg/106.0.1370.34","WebKit","Edge","106.0.1370.34","Windows","10.0","7292","<p>作为军队的指挥官，你可以选择发射导弹杀死 <strong>6名</strong> 敌国士兵，但会炸毁附近的 <strong>1棵</strong> 敌国树木。</p> <p>树木的照片如下图所示。</p> <p></p> <img src='stimuli/trees/14.png', style='max-width: 30%;'> </img> <p><strong>你是否选择发射武器？</strong></p>","0",""
"","","","","","html-keyboard-response","26","143362","0.0-4.0-0.11","96","1","2022-10-07 11:10:53","d60b49b5908c80e163b920d72b52d584","39.149.89.108","Mozilla/5.0 (Windows NT 10.0; Win64; x64) AppleWebKit/537.36 (KHTML, like Gecko) Chrome/106.0.0.0 Safari/537.36 Edg/106.0.1370.34","WebKit","Edge","106.0.1370.34","Windows","10.0","null","<div style=""font-size:60px;"">+</div>","null",""
"","","","","","html-button-response","27","149246","0.0-4.0-1.11","96","1","2022-10-07 11:10:53","d60b49b5908c80e163b920d72b52d584","39.149.89.108","Mozilla/5.0 (Windows NT 10.0; Win64; x64) AppleWebKit/537.36 (KHTML, like Gecko) Chrome/106.0.0.0 Safari/537.36 Edg/106.0.1370.34","WebKit","Edge","106.0.1370.34","Windows","10.0","5880","<p>作为军队的指挥官，你可以选择发射导弹杀死 <strong>5名</strong> 敌国士兵，但会误杀附近的 <strong>1名</strong> 敌国平民。</p> <p>平民照片如下图所示。</p> <p></p> <img src='stimuli/faces/NCF1.jpg', style='max-width: 30%;'> </img> <p><strong>你是否选择发射武器？</strong></p>","1",""
"","","","","","html-keyboard-response","28","150263","0.0-4.0-0.12","96","1","2022-10-07 11:10:53","d60b49b5908c80e163b920d72b52d584","39.149.89.108","Mozilla/5.0 (Windows NT 10.0; Win64; x64) AppleWebKit/537.36 (KHTML, like Gecko) Chrome/106.0.0.0 Safari/537.36 Edg/106.0.1370.34","WebKit","Edge","106.0.1370.34","Windows","10.0","null","<div style=""font-size:60px;"">+</div>","null",""
"","","","","","html-button-response","29","153182","0.0-4.0-1.12","96","1","2022-10-07 11:10:53","d60b49b5908c80e163b920d72b52d584","39.149.89.108","Mozilla/5.0 (Windows NT 10.0; Win64; x64) AppleWebKit/537.36 (KHTML, like Gecko) Chrome/106.0.0.0 Safari/537.36 Edg/106.0.1370.34","WebKit","Edge","106.0.1370.34","Windows","10.0","2916","<p>作为军队的指挥官，你可以选择发射导弹杀死 <strong>10名</strong> 敌国士兵，但会炸毁附近的 <strong>1棵</strong> 敌国树木。</p> <p>树木的照片如下图所示。</p> <p></p> <img src='stimuli/trees/16.png', style='max-width: 30%;'> </img> <p><strong>你是否选择发射武器？</strong></p>","1",""
"","","","","","html-keyboard-response","30","154184","0.0-4.0-0.13","96","1","2022-10-07 11:10:53","d60b49b5908c80e163b920d72b52d584","39.149.89.108","Mozilla/5.0 (Windows NT 10.0; Win64; x64) AppleWebKit/537.36 (KHTML, like Gecko) Chrome/106.0.0.0 Safari/537.36 Edg/106.0.1370.34","WebKit","Edge","106.0.1370.34","Windows","10.0","null","<div style=""font-size:60px;"">+</div>","null",""
"","","","","","html-button-response","31","156893","0.0-4.0-1.13","96","1","2022-10-07 11:10:53","d60b49b5908c80e163b920d72b52d584","39.149.89.108","Mozilla/5.0 (Windows NT 10.0; Win64; x64) AppleWebKit/537.36 (KHTML, like Gecko) Chrome/106.0.0.0 Safari/537.36 Edg/106.0.1370.34","WebKit","Edge","106.0.1370.34","Windows","10.0","2708","<p>作为军队的指挥官，你可以选择发射导弹杀死 <strong>2名</strong> 敌国士兵，但会误杀附近的 <strong>1名</strong> 敌国平民。</p> <p>平民照片如下图所示。</p> <p></p> <img src='stimuli/faces/NCM8.jpg', style='max-width: 30%;'> </img> <p><strong>你是否选择发射武器？</strong></p>","0",""
"","","","","","html-keyboard-response","32","157895","0.0-4.0-0.14","96","1","2022-10-07 11:10:53","d60b49b5908c80e163b920d72b52d584","39.149.89.108","Mozilla/5.0 (Windows NT 10.0; Win64; x64) AppleWebKit/537.36 (KHTML, like Gecko) Chrome/106.0.0.0 Safari/537.36 Edg/106.0.1370.34","WebKit","Edge","106.0.1370.34","Windows","10.0","null","<div style=""font-size:60px;"">+</div>","null",""
"","","","","","html-button-response","33","160836","0.0-4.0-1.14","96","1","2022-10-07 11:10:53","d60b49b5908c80e163b920d72b52d584","39.149.89.108","Mozilla/5.0 (Windows NT 10.0; Win64; x64) AppleWebKit/537.36 (KHTML, like Gecko) Chrome/106.0.0.0 Safari/537.36 Edg/106.0.1370.34","WebKit","Edge","106.0.1370.34","Windows","10.0","2940","<p>作为军队的指挥官，你可以选择发射导弹杀死 <strong>4名</strong> 敌国士兵，但会炸毁附近的 <strong>1棵</strong> 敌国树木。</p> <p>树木的照片如下图所示。</p> <p></p> <img src='stimuli/trees/7.png', style='max-width: 30%;'> </img> <p><strong>你是否选择发射武器？</strong></p>","0",""
"","","","","","html-keyboard-response","34","161838","0.0-4.0-0.15","96","1","2022-10-07 11:10:53","d60b49b5908c80e163b920d72b52d584","39.149.89.108","Mozilla/5.0 (Windows NT 10.0; Win64; x64) AppleWebKit/537.36 (KHTML, like Gecko) Chrome/106.0.0.0 Safari/537.36 Edg/106.0.1370.34","WebKit","Edge","106.0.1370.34","Windows","10.0","null","<div style=""font-size:60px;"">+</div>","null",""
"","","","","","html-button-response","35","165629","0.0-4.0-1.15","96","1","2022-10-07 11:10:53","d60b49b5908c80e163b920d72b52d584","39.149.89.108","Mozilla/5.0 (Windows NT 10.0; Win64; x64) AppleWebKit/537.36 (KHTML, like Gecko) Chrome/106.0.0.0 Safari/537.36 Edg/106.0.1370.34","WebKit","Edge","106.0.1370.34","Windows","10.0","3789","<p>作为军队的指挥官，你可以选择发射导弹杀死 <strong>7名</strong> 敌国士兵，但会误杀附近的 <strong>1名</strong> 敌国平民。</p> <p>平民照片如下图所示。</p> <p></p> <img src='stimuli/faces/NCM7.jpg', style='max-width: 30%;'> </img> <p><strong>你是否选择发射武器？</strong></p>","0",""
"","","","","","html-keyboard-response","36","166631","0.0-4.0-0.16","96","1","2022-10-07 11:10:53","d60b49b5908c80e163b920d72b52d584","39.149.89.108","Mozilla/5.0 (Windows NT 10.0; Win64; x64) AppleWebKit/537.36 (KHTML, like Gecko) Chrome/106.0.0.0 Safari/537.36 Edg/106.0.1370.34","WebKit","Edge","106.0.1370.34","Windows","10.0","null","<div style=""font-size:60px;"">+</div>","null",""
"","","","","","html-button-response","37","171709","0.0-4.0-1.16","96","1","2022-10-07 11:10:53","d60b49b5908c80e163b920d72b52d584","39.149.89.108","Mozilla/5.0 (Windows NT 10.0; Win64; x64) AppleWebKit/537.36 (KHTML, like Gecko) Chrome/106.0.0.0 Safari/537.36 Edg/106.0.1370.34","WebKit","Edge","106.0.1370.34","Windows","10.0","5077","<p>作为军队的指挥官，你可以选择发射导弹杀死 <strong>10名</strong> 敌国士兵，但会误杀附近的 <strong>1名</strong> 敌国平民。</p> <p>平民照片如下图所示。</p> <p></p> <img src='stimuli/faces/NCM1.jpg', style='max-width: 30%;'> </img> <p><strong>你是否选择发射武器？</strong></p>","1",""
"","","","","","html-keyboard-response","38","172711","0.0-4.0-0.17","96","1","2022-10-07 11:10:53","d60b49b5908c80e163b920d72b52d584","39.149.89.108","Mozilla/5.0 (Windows NT 10.0; Win64; x64) AppleWebKit/537.36 (KHTML, like Gecko) Chrome/106.0.0.0 Safari/537.36 Edg/106.0.1370.34","WebKit","Edge","106.0.1370.34","Windows","10.0","null","<div style=""font-size:60px;"">+</div>","null",""
"","","","","","html-button-response","39","175748","0.0-4.0-1.17","96","1","2022-10-07 11:10:53","d60b49b5908c80e163b920d72b52d584","39.149.89.108","Mozilla/5.0 (Windows NT 10.0; Win64; x64) AppleWebKit/537.36 (KHTML, like Gecko) Chrome/106.0.0.0 Safari/537.36 Edg/106.0.1370.34","WebKit","Edge","106.0.1370.34","Windows","10.0","3035","<p>作为军队的指挥官，你可以选择发射导弹杀死 <strong>8名</strong> 敌国士兵，但会误杀附近的 <strong>1名</strong> 敌国平民。</p> <p>平民照片如下图所示。</p> <p></p> <img src='stimuli/faces/NCM2.jpg', style='max-width: 30%;'> </img> <p><strong>你是否选择发射武器？</strong></p>","0",""
"","","","","","html-keyboard-response","40","176750","0.0-4.0-0.18","96","1","2022-10-07 11:10:53","d60b49b5908c80e163b920d72b52d584","39.149.89.108","Mozilla/5.0 (Windows NT 10.0; Win64; x64) AppleWebKit/537.36 (KHTML, like Gecko) Chrome/106.0.0.0 Safari/537.36 Edg/106.0.1370.34","WebKit","Edge","106.0.1370.34","Windows","10.0","null","<div style=""font-size:60px;"">+</div>","null",""
"","","","","","html-button-response","41","179709","0.0-4.0-1.18","96","1","2022-10-07 11:10:53","d60b49b5908c80e163b920d72b52d584","39.149.89.108","Mozilla/5.0 (Windows NT 10.0; Win64; x64) AppleWebKit/537.36 (KHTML, like Gecko) Chrome/106.0.0.0 Safari/537.36 Edg/106.0.1370.34","WebKit","Edge","106.0.1370.34","Windows","10.0","2957","<p>作为军队的指挥官，你可以选择发射导弹杀死 <strong>3名</strong> 敌国士兵，但会炸毁附近的 <strong>1棵</strong> 敌国树木。</p> <p>树木的照片如下图所示。</p> <p></p> <img src='stimuli/trees/5.png', style='max-width: 30%;'> </img> <p><strong>你是否选择发射武器？</strong></p>","1",""
"","","","","","html-keyboard-response","42","180710","0.0-4.0-0.19","96","1","2022-10-07 11:10:53","d60b49b5908c80e163b920d72b52d584","39.149.89.108","Mozilla/5.0 (Windows NT 10.0; Win64; x64) AppleWebKit/537.36 (KHTML, like Gecko) Chrome/106.0.0.0 Safari/537.36 Edg/106.0.1370.34","WebKit","Edge","106.0.1370.34","Windows","10.0","null","<div style=""font-size:60px;"">+</div>","null",""
"","","","","","html-button-response","43","182646","0.0-4.0-1.19","96","1","2022-10-07 11:10:53","d60b49b5908c80e163b920d72b52d584","39.149.89.108","Mozilla/5.0 (Windows NT 10.0; Win64; x64) AppleWebKit/537.36 (KHTML, like Gecko) Chrome/106.0.0.0 Safari/537.36 Edg/106.0.1370.34","WebKit","Edge","106.0.1370.34","Windows","10.0","1934","<p>作为军队的指挥官，你可以选择发射导弹杀死 <strong>3名</strong> 敌国士兵，但会误杀附近的 <strong>1名</strong> 敌国平民。</p> <p>平民照片如下图所示。</p> <p></p> <img src='stimuli/faces/NCF8.jpg', style='max-width: 30%;'> </img> <p><strong>你是否选择发射武器？</strong></p>","1",""
"","","","","","html-keyboard-response","44","183648","0.0-4.0-0.20","96","1","2022-10-07 11:10:53","d60b49b5908c80e163b920d72b52d584","39.149.89.108","Mozilla/5.0 (Windows NT 10.0; Win64; x64) AppleWebKit/537.36 (KHTML, like Gecko) Chrome/106.0.0.0 Safari/537.36 Edg/106.0.1370.34","WebKit","Edge","106.0.1370.34","Windows","10.0","null","<div style=""font-size:60px;"">+</div>","null",""
"","","","","","html-button-response","45","186966","0.0-4.0-1.20","96","1","2022-10-07 11:10:53","d60b49b5908c80e163b920d72b52d584","39.149.89.108","Mozilla/5.0 (Windows NT 10.0; Win64; x64) AppleWebKit/537.36 (KHTML, like Gecko) Chrome/106.0.0.0 Safari/537.36 Edg/106.0.1370.34","WebKit","Edge","106.0.1370.34","Windows","10.0","3316","<p>作为军队的指挥官，你可以选择发射导弹杀死 <strong>1名</strong> 敌国士兵，但会炸毁附近的 <strong>1棵</strong> 敌国树木。</p> <p>树木的照片如下图所示。</p> <p></p> <img src='stimuli/trees/6.png', style='max-width: 30%;'> </img> <p><strong>你是否选择发射武器？</strong></p>","1",""
"","","","","","html-keyboard-response","46","187968","0.0-4.0-0.21","96","1","2022-10-07 11:10:53","d60b49b5908c80e163b920d72b52d584","39.149.89.108","Mozilla/5.0 (Windows NT 10.0; Win64; x64) AppleWebKit/537.36 (KHTML, like Gecko) Chrome/106.0.0.0 Safari/537.36 Edg/106.0.1370.34","WebKit","Edge","106.0.1370.34","Windows","10.0","null","<div style=""font-size:60px;"">+</div>","null",""
"","","","","","html-button-response","47","191197","0.0-4.0-1.21","96","1","2022-10-07 11:10:53","d60b49b5908c80e163b920d72b52d584","39.149.89.108","Mozilla/5.0 (Windows NT 10.0; Win64; x64) AppleWebKit/537.36 (KHTML, like Gecko) Chrome/106.0.0.0 Safari/537.36 Edg/106.0.1370.34","WebKit","Edge","106.0.1370.34","Windows","10.0","3228","<p>作为军队的指挥官，你可以选择发射导弹杀死 <strong>8名</strong> 敌国士兵，但会误杀附近的 <strong>1名</strong> 敌国平民。</p> <p>平民照片如下图所示。</p> <p></p> <img src='stimuli/faces/NCF4.jpg', style='max-width: 30%;'> </img> <p><strong>你是否选择发射武器？</strong></p>","1",""
"","","","","","html-keyboard-response","48","192199","0.0-4.0-0.22","96","1","2022-10-07 11:10:53","d60b49b5908c80e163b920d72b52d584","39.149.89.108","Mozilla/5.0 (Windows NT 10.0; Win64; x64) AppleWebKit/537.36 (KHTML, like Gecko) Chrome/106.0.0.0 Safari/537.36 Edg/106.0.1370.34","WebKit","Edge","106.0.1370.34","Windows","10.0","null","<div style=""font-size:60px;"">+</div>","null",""
"","","","","","html-button-response","49","194917","0.0-4.0-1.22","96","1","2022-10-07 11:10:53","d60b49b5908c80e163b920d72b52d584","39.149.89.108","Mozilla/5.0 (Windows NT 10.0; Win64; x64) AppleWebKit/537.36 (KHTML, like Gecko) Chrome/106.0.0.0 Safari/537.36 Edg/106.0.1370.34","WebKit","Edge","106.0.1370.34","Windows","10.0","2716","<p>作为军队的指挥官，你可以选择发射导弹杀死 <strong>4名</strong> 敌国士兵，但会误杀附近的 <strong>1名</strong> 敌国平民。</p> <p>平民照片如下图所示。</p> <p></p> <img src='stimuli/faces/NCM2.jpg', style='max-width: 30%;'> </img> <p><strong>你是否选择发射武器？</strong></p>","0",""
"","","","","","html-keyboard-response","50","195919","0.0-4.0-0.23","96","1","2022-10-07 11:10:53","d60b49b5908c80e163b920d72b52d584","39.149.89.108","Mozilla/5.0 (Windows NT 10.0; Win64; x64) AppleWebKit/537.36 (KHTML, like Gecko) Chrome/106.0.0.0 Safari/537.36 Edg/106.0.1370.34","WebKit","Edge","106.0.1370.34","Windows","10.0","null","<div style=""font-size:60px;"">+</div>","null",""
"","","","","","html-button-response","51","205637","0.0-4.0-1.23","96","1","2022-10-07 11:10:53","d60b49b5908c80e163b920d72b52d584","39.149.89.108","Mozilla/5.0 (Windows NT 10.0; Win64; x64) AppleWebKit/537.36 (KHTML, like Gecko) Chrome/106.0.0.0 Safari/537.36 Edg/106.0.1370.34","WebKit","Edge","106.0.1370.34","Windows","10.0","9716","<p>作为军队的指挥官，你可以选择发射导弹杀死 <strong>5名</strong> 敌国士兵，但会炸毁附近的 <strong>1棵</strong> 敌国树木。</p> <p>树木的照片如下图所示。</p> <p></p> <img src='stimuli/trees/11.png', style='max-width: 30%;'> </img> <p><strong>你是否选择发射武器？</strong></p>","1",""
"","","","","","html-keyboard-response","52","206660","0.0-4.0-0.24","96","1","2022-10-07 11:10:53","d60b49b5908c80e163b920d72b52d584","39.149.89.108","Mozilla/5.0 (Windows NT 10.0; Win64; x64) AppleWebKit/537.36 (KHTML, like Gecko) Chrome/106.0.0.0 Safari/537.36 Edg/106.0.1370.34","WebKit","Edge","106.0.1370.34","Windows","10.0","null","<div style=""font-size:60px;"">+</div>","null",""
"","","","","","html-button-response","53","210581","0.0-4.0-1.24","96","1","2022-10-07 11:10:53","d60b49b5908c80e163b920d72b52d584","39.149.89.108","Mozilla/5.0 (Windows NT 10.0; Win64; x64) AppleWebKit/537.36 (KHTML, like Gecko) Chrome/106.0.0.0 Safari/537.36 Edg/106.0.1370.34","WebKit","Edge","106.0.1370.34","Windows","10.0","3919","<p>作为军队的指挥官，你可以选择发射导弹杀死 <strong>4名</strong> 敌国士兵，但会误杀附近的 <strong>1名</strong> 敌国平民。</p> <p>平民照片如下图所示。</p> <p></p> <img src='stimuli/faces/NCM1.jpg', style='max-width: 30%;'> </img> <p><strong>你是否选择发射武器？</strong></p>","1",""
"","","","","","html-keyboard-response","54","211598","0.0-4.0-0.25","96","1","2022-10-07 11:10:53","d60b49b5908c80e163b920d72b52d584","39.149.89.108","Mozilla/5.0 (Windows NT 10.0; Win64; x64) AppleWebKit/537.36 (KHTML, like Gecko) Chrome/106.0.0.0 Safari/537.36 Edg/106.0.1370.34","WebKit","Edge","106.0.1370.34","Windows","10.0","null","<div style=""font-size:60px;"">+</div>","null",""
"","","","","","html-button-response","55","213621","0.0-4.0-1.25","96","1","2022-10-07 11:10:53","d60b49b5908c80e163b920d72b52d584","39.149.89.108","Mozilla/5.0 (Windows NT 10.0; Win64; x64) AppleWebKit/537.36 (KHTML, like Gecko) Chrome/106.0.0.0 Safari/537.36 Edg/106.0.1370.34","WebKit","Edge","106.0.1370.34","Windows","10.0","2019","<p>作为军队的指挥官，你可以选择发射导弹杀死 <strong>7名</strong> 敌国士兵，但会炸毁附近的 <strong>1棵</strong> 敌国树木。</p> <p>树木的照片如下图所示。</p> <p></p> <img src='stimuli/trees/9.png', style='max-width: 30%;'> </img> <p><strong>你是否选择发射武器？</strong></p>","0",""
"","","","","","html-keyboard-response","56","214623","0.0-4.0-0.26","96","1","2022-10-07 11:10:53","d60b49b5908c80e163b920d72b52d584","39.149.89.108","Mozilla/5.0 (Windows NT 10.0; Win64; x64) AppleWebKit/537.36 (KHTML, like Gecko) Chrome/106.0.0.0 Safari/537.36 Edg/106.0.1370.34","WebKit","Edge","106.0.1370.34","Windows","10.0","null","<div style=""font-size:60px;"">+</div>","null",""
"","","","","","html-button-response","57","217988","0.0-4.0-1.26","96","1","2022-10-07 11:10:53","d60b49b5908c80e163b920d72b52d584","39.149.89.108","Mozilla/5.0 (Windows NT 10.0; Win64; x64) AppleWebKit/537.36 (KHTML, like Gecko) Chrome/106.0.0.0 Safari/537.36 Edg/106.0.1370.34","WebKit","Edge","106.0.1370.34","Windows","10.0","3365","<p>作为军队的指挥官，你可以选择发射导弹杀死 <strong>7名</strong> 敌国士兵，但会炸毁附近的 <strong>1棵</strong> 敌国树木。</p> <p>树木的照片如下图所示。</p> <p></p> <img src='stimuli/trees/6.png', style='max-width: 30%;'> </img> <p><strong>你是否选择发射武器？</strong></p>","1",""
"","","","","","html-keyboard-response","58","218997","0.0-4.0-0.27","96","1","2022-10-07 11:10:53","d60b49b5908c80e163b920d72b52d584","39.149.89.108","Mozilla/5.0 (Windows NT 10.0; Win64; x64) AppleWebKit/537.36 (KHTML, like Gecko) Chrome/106.0.0.0 Safari/537.36 Edg/106.0.1370.34","WebKit","Edge","106.0.1370.34","Windows","10.0","null","<div style=""font-size:60px;"">+</div>","null",""
"","","","","","html-button-response","59","222133","0.0-4.0-1.27","96","1","2022-10-07 11:10:53","d60b49b5908c80e163b920d72b52d584","39.149.89.108","Mozilla/5.0 (Windows NT 10.0; Win64; x64) AppleWebKit/537.36 (KHTML, like Gecko) Chrome/106.0.0.0 Safari/537.36 Edg/106.0.1370.34","WebKit","Edge","106.0.1370.34","Windows","10.0","3134","<p>作为军队的指挥官，你可以选择发射导弹杀死 <strong>8名</strong> 敌国士兵，但会误杀附近的 <strong>1名</strong> 敌国平民。</p> <p>平民照片如下图所示。</p> <p></p> <img src='stimuli/faces/NCM5.jpg', style='max-width: 30%;'> </img> <p><strong>你是否选择发射武器？</strong></p>","0",""
"","","","","","html-keyboard-response","60","223136","0.0-4.0-0.28","96","1","2022-10-07 11:10:53","d60b49b5908c80e163b920d72b52d584","39.149.89.108","Mozilla/5.0 (Windows NT 10.0; Win64; x64) AppleWebKit/537.36 (KHTML, like Gecko) Chrome/106.0.0.0 Safari/537.36 Edg/106.0.1370.34","WebKit","Edge","106.0.1370.34","Windows","10.0","null","<div style=""font-size:60px;"">+</div>","null",""
"","","","","","html-button-response","61","228325","0.0-4.0-1.28","96","1","2022-10-07 11:10:53","d60b49b5908c80e163b920d72b52d584","39.149.89.108","Mozilla/5.0 (Windows NT 10.0; Win64; x64) AppleWebKit/537.36 (KHTML, like Gecko) Chrome/106.0.0.0 Safari/537.36 Edg/106.0.1370.34","WebKit","Edge","106.0.1370.34","Windows","10.0","5187","<p>作为军队的指挥官，你可以选择发射导弹杀死 <strong>6名</strong> 敌国士兵，但会误杀附近的 <strong>1名</strong> 敌国平民。</p> <p>平民照片如下图所示。</p> <p></p> <img src='stimuli/faces/NCF2.jpg', style='max-width: 30%;'> </img> <p><strong>你是否选择发射武器？</strong></p>","1",""
"","","","","","html-keyboard-response","62","229327","0.0-4.0-0.29","96","1","2022-10-07 11:10:53","d60b49b5908c80e163b920d72b52d584","39.149.89.108","Mozilla/5.0 (Windows NT 10.0; Win64; x64) AppleWebKit/537.36 (KHTML, like Gecko) Chrome/106.0.0.0 Safari/537.36 Edg/106.0.1370.34","WebKit","Edge","106.0.1370.34","Windows","10.0","null","<div style=""font-size:60px;"">+</div>","null",""
"","","","","","html-button-response","63","231285","0.0-4.0-1.29","96","1","2022-10-07 11:10:53","d60b49b5908c80e163b920d72b52d584","39.149.89.108","Mozilla/5.0 (Windows NT 10.0; Win64; x64) AppleWebKit/537.36 (KHTML, like Gecko) Chrome/106.0.0.0 Safari/537.36 Edg/106.0.1370.34","WebKit","Edge","106.0.1370.34","Windows","10.0","1956","<p>作为军队的指挥官，你可以选择发射导弹杀死 <strong>4名</strong> 敌国士兵，但会炸毁附近的 <strong>1棵</strong> 敌国树木。</p> <p>树木的照片如下图所示。</p> <p></p> <img src='stimuli/trees/4.png', style='max-width: 30%;'> </img> <p><strong>你是否选择发射武器？</strong></p>","0",""
"","","","","","html-keyboard-response","64","232302","0.0-4.0-0.30","96","1","2022-10-07 11:10:53","d60b49b5908c80e163b920d72b52d584","39.149.89.108","Mozilla/5.0 (Windows NT 10.0; Win64; x64) AppleWebKit/537.36 (KHTML, like Gecko) Chrome/106.0.0.0 Safari/537.36 Edg/106.0.1370.34","WebKit","Edge","106.0.1370.34","Windows","10.0","null","<div style=""font-size:60px;"">+</div>","null",""
"","","","","","html-button-response","65","234328","0.0-4.0-1.30","96","1","2022-10-07 11:10:53","d60b49b5908c80e163b920d72b52d584","39.149.89.108","Mozilla/5.0 (Windows NT 10.0; Win64; x64) AppleWebKit/537.36 (KHTML, like Gecko) Chrome/106.0.0.0 Safari/537.36 Edg/106.0.1370.34","WebKit","Edge","106.0.1370.34","Windows","10.0","2026","<p>作为军队的指挥官，你可以选择发射导弹杀死 <strong>7名</strong> 敌国士兵，但会误杀附近的 <strong>1名</strong> 敌国平民。</p> <p>平民照片如下图所示。</p> <p></p> <img src='stimuli/faces/NCM3.jpg', style='max-width: 30%;'> </img> <p><strong>你是否选择发射武器？</strong></p>","0",""
"","","","","","html-keyboard-response","66","235331","0.0-4.0-0.31","96","1","2022-10-07 11:10:53","d60b49b5908c80e163b920d72b52d584","39.149.89.108","Mozilla/5.0 (Windows NT 10.0; Win64; x64) AppleWebKit/537.36 (KHTML, like Gecko) Chrome/106.0.0.0 Safari/537.36 Edg/106.0.1370.34","WebKit","Edge","106.0.1370.34","Windows","10.0","null","<div style=""font-size:60px;"">+</div>","null",""
"","","","","","html-button-response","67","236733","0.0-4.0-1.31","96","1","2022-10-07 11:10:53","d60b49b5908c80e163b920d72b52d584","39.149.89.108","Mozilla/5.0 (Windows NT 10.0; Win64; x64) AppleWebKit/537.36 (KHTML, like Gecko) Chrome/106.0.0.0 Safari/537.36 Edg/106.0.1370.34","WebKit","Edge","106.0.1370.34","Windows","10.0","1396","<p>作为军队的指挥官，你可以选择发射导弹杀死 <strong>2名</strong> 敌国士兵，但会误杀附近的 <strong>1名</strong> 敌国平民。</p> <p>平民照片如下图所示。</p> <p></p> <img src='stimuli/faces/NCF3.jpg', style='max-width: 30%;'> </img> <p><strong>你是否选择发射武器？</strong></p>","1",""
"","","","","","html-keyboard-response","68","237734","0.0-4.0-0.32","96","1","2022-10-07 11:10:53","d60b49b5908c80e163b920d72b52d584","39.149.89.108","Mozilla/5.0 (Windows NT 10.0; Win64; x64) AppleWebKit/537.36 (KHTML, like Gecko) Chrome/106.0.0.0 Safari/537.36 Edg/106.0.1370.34","WebKit","Edge","106.0.1370.34","Windows","10.0","null","<div style=""font-size:60px;"">+</div>","null",""
"","","","","","html-button-response","69","240109","0.0-4.0-1.32","96","1","2022-10-07 11:10:53","d60b49b5908c80e163b920d72b52d584","39.149.89.108","Mozilla/5.0 (Windows NT 10.0; Win64; x64) AppleWebKit/537.36 (KHTML, like Gecko) Chrome/106.0.0.0 Safari/537.36 Edg/106.0.1370.34","WebKit","Edge","106.0.1370.34","Windows","10.0","2373","<p>作为军队的指挥官，你可以选择发射导弹杀死 <strong>2名</strong> 敌国士兵，但会误杀附近的 <strong>1名</strong> 敌国平民。</p> <p>平民照片如下图所示。</p> <p></p> <img src='stimuli/faces/NCM7.jpg', style='max-width: 30%;'> </img> <p><strong>你是否选择发射武器？</strong></p>","1",""
"","","","","","html-keyboard-response","70","241119","0.0-4.0-0.33","96","1","2022-10-07 11:10:53","d60b49b5908c80e163b920d72b52d584","39.149.89.108","Mozilla/5.0 (Windows NT 10.0; Win64; x64) AppleWebKit/537.36 (KHTML, like Gecko) Chrome/106.0.0.0 Safari/537.36 Edg/106.0.1370.34","WebKit","Edge","106.0.1370.34","Windows","10.0","null","<div style=""font-size:60px;"">+</div>","null",""
"","","","","","html-button-response","71","242741","0.0-4.0-1.33","96","1","2022-10-07 11:10:53","d60b49b5908c80e163b920d72b52d584","39.149.89.108","Mozilla/5.0 (Windows NT 10.0; Win64; x64) AppleWebKit/537.36 (KHTML, like Gecko) Chrome/106.0.0.0 Safari/537.36 Edg/106.0.1370.34","WebKit","Edge","106.0.1370.34","Windows","10.0","1619","<p>作为军队的指挥官，你可以选择发射导弹杀死 <strong>8名</strong> 敌国士兵，但会误杀附近的 <strong>1名</strong> 敌国平民。</p> <p>平民照片如下图所示。</p> <p></p> <img src='stimuli/faces/NCF7.jpg', style='max-width: 30%;'> </img> <p><strong>你是否选择发射武器？</strong></p>","1",""
"","","","","","html-keyboard-response","72","243743","0.0-4.0-0.34","96","1","2022-10-07 11:10:53","d60b49b5908c80e163b920d72b52d584","39.149.89.108","Mozilla/5.0 (Windows NT 10.0; Win64; x64) AppleWebKit/537.36 (KHTML, like Gecko) Chrome/106.0.0.0 Safari/537.36 Edg/106.0.1370.34","WebKit","Edge","106.0.1370.34","Windows","10.0","null","<div style=""font-size:60px;"">+</div>","null",""
"","","","","","html-button-response","73","245597","0.0-4.0-1.34","96","1","2022-10-07 11:10:53","d60b49b5908c80e163b920d72b52d584","39.149.89.108","Mozilla/5.0 (Windows NT 10.0; Win64; x64) AppleWebKit/537.36 (KHTML, like Gecko) Chrome/106.0.0.0 Safari/537.36 Edg/106.0.1370.34","WebKit","Edge","106.0.1370.34","Windows","10.0","1852","<p>作为军队的指挥官，你可以选择发射导弹杀死 <strong>9名</strong> 敌国士兵，但会炸毁附近的 <strong>1棵</strong> 敌国树木。</p> <p>树木的照片如下图所示。</p> <p></p> <img src='stimuli/trees/4.png', style='max-width: 30%;'> </img> <p><strong>你是否选择发射武器？</strong></p>","0",""
"","","","","","html-keyboard-response","74","246599","0.0-4.0-0.35","96","1","2022-10-07 11:10:53","d60b49b5908c80e163b920d72b52d584","39.149.89.108","Mozilla/5.0 (Windows NT 10.0; Win64; x64) AppleWebKit/537.36 (KHTML, like Gecko) Chrome/106.0.0.0 Safari/537.36 Edg/106.0.1370.34","WebKit","Edge","106.0.1370.34","Windows","10.0","null","<div style=""font-size:60px;"">+</div>","null",""
"","","","","","html-button-response","75","249885","0.0-4.0-1.35","96","1","2022-10-07 11:10:53","d60b49b5908c80e163b920d72b52d584","39.149.89.108","Mozilla/5.0 (Windows NT 10.0; Win64; x64) AppleWebKit/537.36 (KHTML, like Gecko) Chrome/106.0.0.0 Safari/537.36 Edg/106.0.1370.34","WebKit","Edge","106.0.1370.34","Windows","10.0","3284","<p>作为军队的指挥官，你可以选择发射导弹杀死 <strong>2名</strong> 敌国士兵，但会炸毁附近的 <strong>1棵</strong> 敌国树木。</p> <p>树木的照片如下图所示。</p> <p></p> <img src='stimuli/trees/14.png', style='max-width: 30%;'> </img> <p><strong>你是否选择发射武器？</strong></p>","1",""
"","","","","","html-keyboard-response","76","250896","0.0-4.0-0.36","96","1","2022-10-07 11:10:53","d60b49b5908c80e163b920d72b52d584","39.149.89.108","Mozilla/5.0 (Windows NT 10.0; Win64; x64) AppleWebKit/537.36 (KHTML, like Gecko) Chrome/106.0.0.0 Safari/537.36 Edg/106.0.1370.34","WebKit","Edge","106.0.1370.34","Windows","10.0","null","<div style=""font-size:60px;"">+</div>","null",""
"","","","","","html-button-response","77","253075","0.0-4.0-1.36","96","1","2022-10-07 11:10:53","d60b49b5908c80e163b920d72b52d584","39.149.89.108","Mozilla/5.0 (Windows NT 10.0; Win64; x64) AppleWebKit/537.36 (KHTML, like Gecko) Chrome/106.0.0.0 Safari/537.36 Edg/106.0.1370.34","WebKit","Edge","106.0.1370.34","Windows","10.0","2177","<p>作为军队的指挥官，你可以选择发射导弹杀死 <strong>5名</strong> 敌国士兵，但会误杀附近的 <strong>1名</strong> 敌国平民。</p> <p>平民照片如下图所示。</p> <p></p> <img src='stimuli/faces/NCM3.jpg', style='max-width: 30%;'> </img> <p><strong>你是否选择发射武器？</strong></p>","0",""
"","","","","","html-keyboard-response","78","254078","0.0-4.0-0.37","96","1","2022-10-07 11:10:53","d60b49b5908c80e163b920d72b52d584","39.149.89.108","Mozilla/5.0 (Windows NT 10.0; Win64; x64) AppleWebKit/537.36 (KHTML, like Gecko) Chrome/106.0.0.0 Safari/537.36 Edg/106.0.1370.34","WebKit","Edge","106.0.1370.34","Windows","10.0","null","<div style=""font-size:60px;"">+</div>","null",""
"","","","","","html-button-response","79","255749","0.0-4.0-1.37","96","1","2022-10-07 11:10:53","d60b49b5908c80e163b920d72b52d584","39.149.89.108","Mozilla/5.0 (Windows NT 10.0; Win64; x64) AppleWebKit/537.36 (KHTML, like Gecko) Chrome/106.0.0.0 Safari/537.36 Edg/106.0.1370.34","WebKit","Edge","106.0.1370.34","Windows","10.0","1668","<p>作为军队的指挥官，你可以选择发射导弹杀死 <strong>1名</strong> 敌国士兵，但会误杀附近的 <strong>1名</strong> 敌国平民。</p> <p>平民照片如下图所示。</p> <p></p> <img src='stimuli/faces/NCM6.jpg', style='max-width: 30%;'> </img> <p><strong>你是否选择发射武器？</strong></p>","1",""
"","","","","","html-keyboard-response","80","256753","0.0-4.0-0.38","96","1","2022-10-07 11:10:53","d60b49b5908c80e163b920d72b52d584","39.149.89.108","Mozilla/5.0 (Windows NT 10.0; Win64; x64) AppleWebKit/537.36 (KHTML, like Gecko) Chrome/106.0.0.0 Safari/537.36 Edg/106.0.1370.34","WebKit","Edge","106.0.1370.34","Windows","10.0","null","<div style=""font-size:60px;"">+</div>","null",""
"","","","","","html-button-response","81","258501","0.0-4.0-1.38","96","1","2022-10-07 11:10:53","d60b49b5908c80e163b920d72b52d584","39.149.89.108","Mozilla/5.0 (Windows NT 10.0; Win64; x64) AppleWebKit/537.36 (KHTML, like Gecko) Chrome/106.0.0.0 Safari/537.36 Edg/106.0.1370.34","WebKit","Edge","106.0.1370.34","Windows","10.0","1746","<p>作为军队的指挥官，你可以选择发射导弹杀死 <strong>9名</strong> 敌国士兵，但会误杀附近的 <strong>1名</strong> 敌国平民。</p> <p>平民照片如下图所示。</p> <p></p> <img src='stimuli/faces/NCM6.jpg', style='max-width: 30%;'> </img> <p><strong>你是否选择发射武器？</strong></p>","0",""
"","","","","","html-keyboard-response","82","259504","0.0-4.0-0.39","96","1","2022-10-07 11:10:53","d60b49b5908c80e163b920d72b52d584","39.149.89.108","Mozilla/5.0 (Windows NT 10.0; Win64; x64) AppleWebKit/537.36 (KHTML, like Gecko) Chrome/106.0.0.0 Safari/537.36 Edg/106.0.1370.34","WebKit","Edge","106.0.1370.34","Windows","10.0","null","<div style=""font-size:60px;"">+</div>","null",""
"","","","","","html-button-response","83","261085","0.0-4.0-1.39","96","1","2022-10-07 11:10:53","d60b49b5908c80e163b920d72b52d584","39.149.89.108","Mozilla/5.0 (Windows NT 10.0; Win64; x64) AppleWebKit/537.36 (KHTML, like Gecko) Chrome/106.0.0.0 Safari/537.36 Edg/106.0.1370.34","WebKit","Edge","106.0.1370.34","Windows","10.0","1579","<p>作为军队的指挥官，你可以选择发射导弹杀死 <strong>2名</strong> 敌国士兵，但会炸毁附近的 <strong>1棵</strong> 敌国树木。</p> <p>树木的照片如下图所示。</p> <p></p> <img src='stimuli/trees/3.png', style='max-width: 30%;'> </img> <p><strong>你是否选择发射武器？</strong></p>","1",""
"","","","","","html-keyboard-response","84","262088","0.0-4.0-0.40","96","1","2022-10-07 11:10:53","d60b49b5908c80e163b920d72b52d584","39.149.89.108","Mozilla/5.0 (Windows NT 10.0; Win64; x64) AppleWebKit/537.36 (KHTML, like Gecko) Chrome/106.0.0.0 Safari/537.36 Edg/106.0.1370.34","WebKit","Edge","106.0.1370.34","Windows","10.0","null","<div style=""font-size:60px;"">+</div>","null",""
"","","","","","html-button-response","85","264220","0.0-4.0-1.40","96","1","2022-10-07 11:10:53","d60b49b5908c80e163b920d72b52d584","39.149.89.108","Mozilla/5.0 (Windows NT 10.0; Win64; x64) AppleWebKit/537.36 (KHTML, like Gecko) Chrome/106.0.0.0 Safari/537.36 Edg/106.0.1370.34","WebKit","Edge","106.0.1370.34","Windows","10.0","2130","<p>作为军队的指挥官，你可以选择发射导弹杀死 <strong>8名</strong> 敌国士兵，但会误杀附近的 <strong>1名</strong> 敌国平民。</p> <p>平民照片如下图所示。</p> <p></p> <img src='stimuli/faces/NCM8.jpg', style='max-width: 30%;'> </img> <p><strong>你是否选择发射武器？</strong></p>","0",""
"","","","","","html-keyboard-response","86","265223","0.0-4.0-0.41","96","1","2022-10-07 11:10:53","d60b49b5908c80e163b920d72b52d584","39.149.89.108","Mozilla/5.0 (Windows NT 10.0; Win64; x64) AppleWebKit/537.36 (KHTML, like Gecko) Chrome/106.0.0.0 Safari/537.36 Edg/106.0.1370.34","WebKit","Edge","106.0.1370.34","Windows","10.0","null","<div style=""font-size:60px;"">+</div>","null",""
"","","","","","html-button-response","87","267062","0.0-4.0-1.41","96","1","2022-10-07 11:10:53","d60b49b5908c80e163b920d72b52d584","39.149.89.108","Mozilla/5.0 (Windows NT 10.0; Win64; x64) AppleWebKit/537.36 (KHTML, like Gecko) Chrome/106.0.0.0 Safari/537.36 Edg/106.0.1370.34","WebKit","Edge","106.0.1370.34","Windows","10.0","1837","<p>作为军队的指挥官，你可以选择发射导弹杀死 <strong>2名</strong> 敌国士兵，但会炸毁附近的 <strong>1棵</strong> 敌国树木。</p> <p>树木的照片如下图所示。</p> <p></p> <img src='stimuli/trees/1.png', style='max-width: 30%;'> </img> <p><strong>你是否选择发射武器？</strong></p>","1",""
"","","","","","html-keyboard-response","88","268063","0.0-4.0-0.42","96","1","2022-10-07 11:10:53","d60b49b5908c80e163b920d72b52d584","39.149.89.108","Mozilla/5.0 (Windows NT 10.0; Win64; x64) AppleWebKit/537.36 (KHTML, like Gecko) Chrome/106.0.0.0 Safari/537.36 Edg/106.0.1370.34","WebKit","Edge","106.0.1370.34","Windows","10.0","null","<div style=""font-size:60px;"">+</div>","null",""
"","","","","","html-button-response","89","269717","0.0-4.0-1.42","96","1","2022-10-07 11:10:53","d60b49b5908c80e163b920d72b52d584","39.149.89.108","Mozilla/5.0 (Windows NT 10.0; Win64; x64) AppleWebKit/537.36 (KHTML, like Gecko) Chrome/106.0.0.0 Safari/537.36 Edg/106.0.1370.34","WebKit","Edge","106.0.1370.34","Windows","10.0","1652","<p>作为军队的指挥官，你可以选择发射导弹杀死 <strong>9名</strong> 敌国士兵，但会炸毁附近的 <strong>1棵</strong> 敌国树木。</p> <p>树木的照片如下图所示。</p> <p></p> <img src='stimuli/trees/2.png', style='max-width: 30%;'> </img> <p><strong>你是否选择发射武器？</strong></p>","0",""
"","","","","","html-keyboard-response","90","270720","0.0-4.0-0.43","96","1","2022-10-07 11:10:53","d60b49b5908c80e163b920d72b52d584","39.149.89.108","Mozilla/5.0 (Windows NT 10.0; Win64; x64) AppleWebKit/537.36 (KHTML, like Gecko) Chrome/106.0.0.0 Safari/537.36 Edg/106.0.1370.34","WebKit","Edge","106.0.1370.34","Windows","10.0","null","<div style=""font-size:60px;"">+</div>","null",""
"","","","","","html-button-response","91","272549","0.0-4.0-1.43","96","1","2022-10-07 11:10:53","d60b49b5908c80e163b920d72b52d584","39.149.89.108","Mozilla/5.0 (Windows NT 10.0; Win64; x64) AppleWebKit/537.36 (KHTML, like Gecko) Chrome/106.0.0.0 Safari/537.36 Edg/106.0.1370.34","WebKit","Edge","106.0.1370.34","Windows","10.0","1827","<p>作为军队的指挥官，你可以选择发射导弹杀死 <strong>9名</strong> 敌国士兵，但会误杀附近的 <strong>1名</strong> 敌国平民。</p> <p>平民照片如下图所示。</p> <p></p> <img src='stimuli/faces/NCF8.jpg', style='max-width: 30%;'> </img> <p><strong>你是否选择发射武器？</strong></p>","1",""
"","","","","","html-keyboard-response","92","273556","0.0-4.0-0.44","96","1","2022-10-07 11:10:53","d60b49b5908c80e163b920d72b52d584","39.149.89.108","Mozilla/5.0 (Windows NT 10.0; Win64; x64) AppleWebKit/537.36 (KHTML, like Gecko) Chrome/106.0.0.0 Safari/537.36 Edg/106.0.1370.34","WebKit","Edge","106.0.1370.34","Windows","10.0","null","<div style=""font-size:60px;"">+</div>","null",""
"","","","","","html-button-response","93","276597","0.0-4.0-1.44","96","1","2022-10-07 11:10:53","d60b49b5908c80e163b920d72b52d584","39.149.89.108","Mozilla/5.0 (Windows NT 10.0; Win64; x64) AppleWebKit/537.36 (KHTML, like Gecko) Chrome/106.0.0.0 Safari/537.36 Edg/106.0.1370.34","WebKit","Edge","106.0.1370.34","Windows","10.0","3038","<p>作为军队的指挥官，你可以选择发射导弹杀死 <strong>10名</strong> 敌国士兵，但会炸毁附近的 <strong>1棵</strong> 敌国树木。</p> <p>树木的照片如下图所示。</p> <p></p> <img src='stimuli/trees/15.png', style='max-width: 30%;'> </img> <p><strong>你是否选择发射武器？</strong></p>","0",""
"","","","","","html-keyboard-response","94","277599","0.0-4.0-0.45","96","1","2022-10-07 11:10:53","d60b49b5908c80e163b920d72b52d584","39.149.89.108","Mozilla/5.0 (Windows NT 10.0; Win64; x64) AppleWebKit/537.36 (KHTML, like Gecko) Chrome/106.0.0.0 Safari/537.36 Edg/106.0.1370.34","WebKit","Edge","106.0.1370.34","Windows","10.0","null","<div style=""font-size:60px;"">+</div>","null",""
"","","","","","html-button-response","95","282109","0.0-4.0-1.45","96","1","2022-10-07 11:10:53","d60b49b5908c80e163b920d72b52d584","39.149.89.108","Mozilla/5.0 (Windows NT 10.0; Win64; x64) AppleWebKit/537.36 (KHTML, like Gecko) Chrome/106.0.0.0 Safari/537.36 Edg/106.0.1370.34","WebKit","Edge","106.0.1370.34","Windows","10.0","4508","<p>作为军队的指挥官，你可以选择发射导弹杀死 <strong>10名</strong> 敌国士兵，但会炸毁附近的 <strong>1棵</strong> 敌国树木。</p> <p>树木的照片如下图所示。</p> <p></p> <img src='stimuli/trees/10.png', style='max-width: 30%;'> </img> <p><strong>你是否选择发射武器？</strong></p>","0",""
"","","","","","html-keyboard-response","96","283112","0.0-4.0-0.46","96","1","2022-10-07 11:10:53","d60b49b5908c80e163b920d72b52d584","39.149.89.108","Mozilla/5.0 (Windows NT 10.0; Win64; x64) AppleWebKit/537.36 (KHTML, like Gecko) Chrome/106.0.0.0 Safari/537.36 Edg/106.0.1370.34","WebKit","Edge","106.0.1370.34","Windows","10.0","null","<div style=""font-size:60px;"">+</div>","null",""
"","","","","","html-button-response","97","286022","0.0-4.0-1.46","96","1","2022-10-07 11:10:53","d60b49b5908c80e163b920d72b52d584","39.149.89.108","Mozilla/5.0 (Windows NT 10.0; Win64; x64) AppleWebKit/537.36 (KHTML, like Gecko) Chrome/106.0.0.0 Safari/537.36 Edg/106.0.1370.34","WebKit","Edge","106.0.1370.34","Windows","10.0","2907","<p>作为军队的指挥官，你可以选择发射导弹杀死 <strong>5名</strong> 敌国士兵，但会误杀附近的 <strong>1名</strong> 敌国平民。</p> <p>平民照片如下图所示。</p> <p></p> <img src='stimuli/faces/NCF5.jpg', style='max-width: 30%;'> </img> <p><strong>你是否选择发射武器？</strong></p>","1",""
"","","","","","html-keyboard-response","98","287024","0.0-4.0-0.47","96","1","2022-10-07 11:10:53","d60b49b5908c80e163b920d72b52d584","39.149.89.108","Mozilla/5.0 (Windows NT 10.0; Win64; x64) AppleWebKit/537.36 (KHTML, like Gecko) Chrome/106.0.0.0 Safari/537.36 Edg/106.0.1370.34","WebKit","Edge","106.0.1370.34","Windows","10.0","null","<div style=""font-size:60px;"">+</div>","null",""
"","","","","","html-button-response","99","289133","0.0-4.0-1.47","96","1","2022-10-07 11:10:53","d60b49b5908c80e163b920d72b52d584","39.149.89.108","Mozilla/5.0 (Windows NT 10.0; Win64; x64) AppleWebKit/537.36 (KHTML, like Gecko) Chrome/106.0.0.0 Safari/537.36 Edg/106.0.1370.34","WebKit","Edge","106.0.1370.34","Windows","10.0","2107","<p>作为军队的指挥官，你可以选择发射导弹杀死 <strong>2名</strong> 敌国士兵，但会炸毁附近的 <strong>1棵</strong> 敌国树木。</p> <p>树木的照片如下图所示。</p> <p></p> <img src='stimuli/trees/10.png', style='max-width: 30%;'> </img> <p><strong>你是否选择发射武器？</strong></p>","1",""
"","","","","","html-keyboard-response","100","290140","0.0-4.0-0.48","96","1","2022-10-07 11:10:53","d60b49b5908c80e163b920d72b52d584","39.149.89.108","Mozilla/5.0 (Windows NT 10.0; Win64; x64) AppleWebKit/537.36 (KHTML, like Gecko) Chrome/106.0.0.0 Safari/537.36 Edg/106.0.1370.34","WebKit","Edge","106.0.1370.34","Windows","10.0","null","<div style=""font-size:60px;"">+</div>","null",""
"","","","","","html-button-response","101","293221","0.0-4.0-1.48","96","1","2022-10-07 11:10:53","d60b49b5908c80e163b920d72b52d584","39.149.89.108","Mozilla/5.0 (Windows NT 10.0; Win64; x64) AppleWebKit/537.36 (KHTML, like Gecko) Chrome/106.0.0.0 Safari/537.36 Edg/106.0.1370.34","WebKit","Edge","106.0.1370.34","Windows","10.0","3078","<p>作为军队的指挥官，你可以选择发射导弹杀死 <strong>9名</strong> 敌国士兵，但会炸毁附近的 <strong>1棵</strong> 敌国树木。</p> <p>树木的照片如下图所示。</p> <p></p> <img src='stimuli/trees/8.png', style='max-width: 30%;'> </img> <p><strong>你是否选择发射武器？</strong></p>","1",""
"","","","","","html-keyboard-response","102","294224","0.0-4.0-0.49","96","1","2022-10-07 11:10:53","d60b49b5908c80e163b920d72b52d584","39.149.89.108","Mozilla/5.0 (Windows NT 10.0; Win64; x64) AppleWebKit/537.36 (KHTML, like Gecko) Chrome/106.0.0.0 Safari/537.36 Edg/106.0.1370.34","WebKit","Edge","106.0.1370.34","Windows","10.0","null","<div style=""font-size:60px;"">+</div>","null",""
"","","","","","html-button-response","103","298229","0.0-4.0-1.49","96","1","2022-10-07 11:10:53","d60b49b5908c80e163b920d72b52d584","39.149.89.108","Mozilla/5.0 (Windows NT 10.0; Win64; x64) AppleWebKit/537.36 (KHTML, like Gecko) Chrome/106.0.0.0 Safari/537.36 Edg/106.0.1370.34","WebKit","Edge","106.0.1370.34","Windows","10.0","4002","<p>作为军队的指挥官，你可以选择发射导弹杀死 <strong>8名</strong> 敌国士兵，但会误杀附近的 <strong>1名</strong> 敌国平民。</p> <p>平民照片如下图所示。</p> <p></p> <img src='stimuli/faces/NCF3.jpg', style='max-width: 30%;'> </img> <p><strong>你是否选择发射武器？</strong></p>","1",""
"","","","","","html-keyboard-response","104","299231","0.0-4.0-0.50","96","1","2022-10-07 11:10:53","d60b49b5908c80e163b920d72b52d584","39.149.89.108","Mozilla/5.0 (Windows NT 10.0; Win64; x64) AppleWebKit/537.36 (KHTML, like Gecko) Chrome/106.0.0.0 Safari/537.36 Edg/106.0.1370.34","WebKit","Edge","106.0.1370.34","Windows","10.0","null","<div style=""font-size:60px;"">+</div>","null",""
"","","","","","html-button-response","105","303805","0.0-4.0-1.50","96","1","2022-10-07 11:10:53","d60b49b5908c80e163b920d72b52d584","39.149.89.108","Mozilla/5.0 (Windows NT 10.0; Win64; x64) AppleWebKit/537.36 (KHTML, like Gecko) Chrome/106.0.0.0 Safari/537.36 Edg/106.0.1370.34","WebKit","Edge","106.0.1370.34","Windows","10.0","4573","<p>作为军队的指挥官，你可以选择发射导弹杀死 <strong>3名</strong> 敌国士兵，但会误杀附近的 <strong>1名</strong> 敌国平民。</p> <p>平民照片如下图所示。</p> <p></p> <img src='stimuli/faces/NCF7.jpg', style='max-width: 30%;'> </img> <p><strong>你是否选择发射武器？</strong></p>","1",""
"","","","","","html-keyboard-response","106","304809","0.0-4.0-0.51","96","1","2022-10-07 11:10:53","d60b49b5908c80e163b920d72b52d584","39.149.89.108","Mozilla/5.0 (Windows NT 10.0; Win64; x64) AppleWebKit/537.36 (KHTML, like Gecko) Chrome/106.0.0.0 Safari/537.36 Edg/106.0.1370.34","WebKit","Edge","106.0.1370.34","Windows","10.0","null","<div style=""font-size:60px;"">+</div>","null",""
"","","","","","html-button-response","107","306645","0.0-4.0-1.51","96","1","2022-10-07 11:10:53","d60b49b5908c80e163b920d72b52d584","39.149.89.108","Mozilla/5.0 (Windows NT 10.0; Win64; x64) AppleWebKit/537.36 (KHTML, like Gecko) Chrome/106.0.0.0 Safari/537.36 Edg/106.0.1370.34","WebKit","Edge","106.0.1370.34","Windows","10.0","1834","<p>作为军队的指挥官，你可以选择发射导弹杀死 <strong>3名</strong> 敌国士兵，但会误杀附近的 <strong>1名</strong> 敌国平民。</p> <p>平民照片如下图所示。</p> <p></p> <img src='stimuli/faces/NCF6.jpg', style='max-width: 30%;'> </img> <p><strong>你是否选择发射武器？</strong></p>","1",""
"","","","","","html-keyboard-response","108","307662","0.0-4.0-0.52","96","1","2022-10-07 11:10:53","d60b49b5908c80e163b920d72b52d584","39.149.89.108","Mozilla/5.0 (Windows NT 10.0; Win64; x64) AppleWebKit/537.36 (KHTML, like Gecko) Chrome/106.0.0.0 Safari/537.36 Edg/106.0.1370.34","WebKit","Edge","106.0.1370.34","Windows","10.0","null","<div style=""font-size:60px;"">+</div>","null",""
"","","","","","html-button-response","109","310174","0.0-4.0-1.52","96","1","2022-10-07 11:10:53","d60b49b5908c80e163b920d72b52d584","39.149.89.108","Mozilla/5.0 (Windows NT 10.0; Win64; x64) AppleWebKit/537.36 (KHTML, like Gecko) Chrome/106.0.0.0 Safari/537.36 Edg/106.0.1370.34","WebKit","Edge","106.0.1370.34","Windows","10.0","2507","<p>作为军队的指挥官，你可以选择发射导弹杀死 <strong>1名</strong> 敌国士兵，但会炸毁附近的 <strong>1棵</strong> 敌国树木。</p> <p>树木的照片如下图所示。</p> <p></p> <img src='stimuli/trees/8.png', style='max-width: 30%;'> </img> <p><strong>你是否选择发射武器？</strong></p>","1",""
"","","","","","html-keyboard-response","110","311176","0.0-4.0-0.53","96","1","2022-10-07 11:10:53","d60b49b5908c80e163b920d72b52d584","39.149.89.108","Mozilla/5.0 (Windows NT 10.0; Win64; x64) AppleWebKit/537.36 (KHTML, like Gecko) Chrome/106.0.0.0 Safari/537.36 Edg/106.0.1370.34","WebKit","Edge","106.0.1370.34","Windows","10.0","null","<div style=""font-size:60px;"">+</div>","null",""
"","","","","","html-button-response","111","314126","0.0-4.0-1.53","96","1","2022-10-07 11:10:53","d60b49b5908c80e163b920d72b52d584","39.149.89.108","Mozilla/5.0 (Windows NT 10.0; Win64; x64) AppleWebKit/537.36 (KHTML, like Gecko) Chrome/106.0.0.0 Safari/537.36 Edg/106.0.1370.34","WebKit","Edge","106.0.1370.34","Windows","10.0","2948","<p>作为军队的指挥官，你可以选择发射导弹杀死 <strong>10名</strong> 敌国士兵，但会炸毁附近的 <strong>1棵</strong> 敌国树木。</p> <p>树木的照片如下图所示。</p> <p></p> <img src='stimuli/trees/13.png', style='max-width: 30%;'> </img> <p><strong>你是否选择发射武器？</strong></p>","1",""
"","","","","","html-keyboard-response","112","315135","0.0-4.0-0.54","96","1","2022-10-07 11:10:53","d60b49b5908c80e163b920d72b52d584","39.149.89.108","Mozilla/5.0 (Windows NT 10.0; Win64; x64) AppleWebKit/537.36 (KHTML, like Gecko) Chrome/106.0.0.0 Safari/537.36 Edg/106.0.1370.34","WebKit","Edge","106.0.1370.34","Windows","10.0","null","<div style=""font-size:60px;"">+</div>","null",""
"","","","","","html-button-response","113","319822","0.0-4.0-1.54","96","1","2022-10-07 11:10:53","d60b49b5908c80e163b920d72b52d584","39.149.89.108","Mozilla/5.0 (Windows NT 10.0; Win64; x64) AppleWebKit/537.36 (KHTML, like Gecko) Chrome/106.0.0.0 Safari/537.36 Edg/106.0.1370.34","WebKit","Edge","106.0.1370.34","Windows","10.0","4682","<p>作为军队的指挥官，你可以选择发射导弹杀死 <strong>3名</strong> 敌国士兵，但会误杀附近的 <strong>1名</strong> 敌国平民。</p> <p>平民照片如下图所示。</p> <p></p> <img src='stimuli/faces/NCF2.jpg', style='max-width: 30%;'> </img> <p><strong>你是否选择发射武器？</strong></p>","1",""
"","","","","","html-keyboard-response","114","320833","0.0-4.0-0.55","96","1","2022-10-07 11:10:53","d60b49b5908c80e163b920d72b52d584","39.149.89.108","Mozilla/5.0 (Windows NT 10.0; Win64; x64) AppleWebKit/537.36 (KHTML, like Gecko) Chrome/106.0.0.0 Safari/537.36 Edg/106.0.1370.34","WebKit","Edge","106.0.1370.34","Windows","10.0","null","<div style=""font-size:60px;"">+</div>","null",""
"","","","","","html-button-response","115","324021","0.0-4.0-1.55","96","1","2022-10-07 11:10:53","d60b49b5908c80e163b920d72b52d584","39.149.89.108","Mozilla/5.0 (Windows NT 10.0; Win64; x64) AppleWebKit/537.36 (KHTML, like Gecko) Chrome/106.0.0.0 Safari/537.36 Edg/106.0.1370.34","WebKit","Edge","106.0.1370.34","Windows","10.0","3185","<p>作为军队的指挥官，你可以选择发射导弹杀死 <strong>1名</strong> 敌国士兵，但会炸毁附近的 <strong>1棵</strong> 敌国树木。</p> <p>树木的照片如下图所示。</p> <p></p> <img src='stimuli/trees/9.png', style='max-width: 30%;'> </img> <p><strong>你是否选择发射武器？</strong></p>","0",""
"","","","","","html-keyboard-response","116","325027","0.0-4.0-0.56","96","1","2022-10-07 11:10:53","d60b49b5908c80e163b920d72b52d584","39.149.89.108","Mozilla/5.0 (Windows NT 10.0; Win64; x64) AppleWebKit/537.36 (KHTML, like Gecko) Chrome/106.0.0.0 Safari/537.36 Edg/106.0.1370.34","WebKit","Edge","106.0.1370.34","Windows","10.0","null","<div style=""font-size:60px;"">+</div>","null",""
"","","","","","html-button-response","117","326324","0.0-4.0-1.56","96","1","2022-10-07 11:10:53","d60b49b5908c80e163b920d72b52d584","39.149.89.108","Mozilla/5.0 (Windows NT 10.0; Win64; x64) AppleWebKit/537.36 (KHTML, like Gecko) Chrome/106.0.0.0 Safari/537.36 Edg/106.0.1370.34","WebKit","Edge","106.0.1370.34","Windows","10.0","1294","<p>作为军队的指挥官，你可以选择发射导弹杀死 <strong>4名</strong> 敌国士兵，但会炸毁附近的 <strong>1棵</strong> 敌国树木。</p> <p>树木的照片如下图所示。</p> <p></p> <img src='stimuli/trees/2.png', style='max-width: 30%;'> </img> <p><strong>你是否选择发射武器？</strong></p>","0",""
"","","","","","html-keyboard-response","118","327326","0.0-4.0-0.57","96","1","2022-10-07 11:10:53","d60b49b5908c80e163b920d72b52d584","39.149.89.108","Mozilla/5.0 (Windows NT 10.0; Win64; x64) AppleWebKit/537.36 (KHTML, like Gecko) Chrome/106.0.0.0 Safari/537.36 Edg/106.0.1370.34","WebKit","Edge","106.0.1370.34","Windows","10.0","null","<div style=""font-size:60px;"">+</div>","null",""
"","","","","","html-button-response","119","328509","0.0-4.0-1.57","96","1","2022-10-07 11:10:53","d60b49b5908c80e163b920d72b52d584","39.149.89.108","Mozilla/5.0 (Windows NT 10.0; Win64; x64) AppleWebKit/537.36 (KHTML, like Gecko) Chrome/106.0.0.0 Safari/537.36 Edg/106.0.1370.34","WebKit","Edge","106.0.1370.34","Windows","10.0","1180","<p>作为军队的指挥官，你可以选择发射导弹杀死 <strong>7名</strong> 敌国士兵，但会炸毁附近的 <strong>1棵</strong> 敌国树木。</p> <p>树木的照片如下图所示。</p> <p></p> <img src='stimuli/trees/5.png', style='max-width: 30%;'> </img> <p><strong>你是否选择发射武器？</strong></p>","1",""
"","","","","","html-keyboard-response","120","329512","0.0-4.0-0.58","96","1","2022-10-07 11:10:53","d60b49b5908c80e163b920d72b52d584","39.149.89.108","Mozilla/5.0 (Windows NT 10.0; Win64; x64) AppleWebKit/537.36 (KHTML, like Gecko) Chrome/106.0.0.0 Safari/537.36 Edg/106.0.1370.34","WebKit","Edge","106.0.1370.34","Windows","10.0","null","<div style=""font-size:60px;"">+</div>","null",""
"","","","","","html-button-response","121","330693","0.0-4.0-1.58","96","1","2022-10-07 11:10:53","d60b49b5908c80e163b920d72b52d584","39.149.89.108","Mozilla/5.0 (Windows NT 10.0; Win64; x64) AppleWebKit/537.36 (KHTML, like Gecko) Chrome/106.0.0.0 Safari/537.36 Edg/106.0.1370.34","WebKit","Edge","106.0.1370.34","Windows","10.0","1178","<p>作为军队的指挥官，你可以选择发射导弹杀死 <strong>6名</strong> 敌国士兵，但会误杀附近的 <strong>1名</strong> 敌国平民。</p> <p>平民照片如下图所示。</p> <p></p> <img src='stimuli/faces/NCF5.jpg', style='max-width: 30%;'> </img> <p><strong>你是否选择发射武器？</strong></p>","1",""
"","","","","","html-keyboard-response","122","331704","0.0-4.0-0.59","96","1","2022-10-07 11:10:53","d60b49b5908c80e163b920d72b52d584","39.149.89.108","Mozilla/5.0 (Windows NT 10.0; Win64; x64) AppleWebKit/537.36 (KHTML, like Gecko) Chrome/106.0.0.0 Safari/537.36 Edg/106.0.1370.34","WebKit","Edge","106.0.1370.34","Windows","10.0","null","<div style=""font-size:60px;"">+</div>","null",""
"","","","","","html-button-response","123","333077","0.0-4.0-1.59","96","1","2022-10-07 11:10:53","d60b49b5908c80e163b920d72b52d584","39.149.89.108","Mozilla/5.0 (Windows NT 10.0; Win64; x64) AppleWebKit/537.36 (KHTML, like Gecko) Chrome/106.0.0.0 Safari/537.36 Edg/106.0.1370.34","WebKit","Edge","106.0.1370.34","Windows","10.0","1368","<p>作为军队的指挥官，你可以选择发射导弹杀死 <strong>1名</strong> 敌国士兵，但会误杀附近的 <strong>1名</strong> 敌国平民。</p> <p>平民照片如下图所示。</p> <p></p> <img src='stimuli/faces/NCF4.jpg', style='max-width: 30%;'> </img> <p><strong>你是否选择发射武器？</strong></p>","1",""
"","","","","","html-keyboard-response","124","334081","0.0-4.0-0.60","96","1","2022-10-07 11:10:53","d60b49b5908c80e163b920d72b52d584","39.149.89.108","Mozilla/5.0 (Windows NT 10.0; Win64; x64) AppleWebKit/537.36 (KHTML, like Gecko) Chrome/106.0.0.0 Safari/537.36 Edg/106.0.1370.34","WebKit","Edge","106.0.1370.34","Windows","10.0","null","<div style=""font-size:60px;"">+</div>","null",""
"","","","","","html-button-response","125","335053","0.0-4.0-1.60","96","1","2022-10-07 11:10:53","d60b49b5908c80e163b920d72b52d584","39.149.89.108","Mozilla/5.0 (Windows NT 10.0; Win64; x64) AppleWebKit/537.36 (KHTML, like Gecko) Chrome/106.0.0.0 Safari/537.36 Edg/106.0.1370.34","WebKit","Edge","106.0.1370.34","Windows","10.0","968","<p>作为军队的指挥官，你可以选择发射导弹杀死 <strong>7名</strong> 敌国士兵，但会炸毁附近的 <strong>1棵</strong> 敌国树木。</p> <p>树木的照片如下图所示。</p> <p></p> <img src='stimuli/trees/11.png', style='max-width: 30%;'> </img> <p><strong>你是否选择发射武器？</strong></p>","1",""
"","","","","","html-keyboard-response","126","336080","0.0-4.0-0.61","96","1","2022-10-07 11:10:53","d60b49b5908c80e163b920d72b52d584","39.149.89.108","Mozilla/5.0 (Windows NT 10.0; Win64; x64) AppleWebKit/537.36 (KHTML, like Gecko) Chrome/106.0.0.0 Safari/537.36 Edg/106.0.1370.34","WebKit","Edge","106.0.1370.34","Windows","10.0","null","<div style=""font-size:60px;"">+</div>","null",""
"","","","","","html-button-response","127","337062","0.0-4.0-1.61","96","1","2022-10-07 11:10:53","d60b49b5908c80e163b920d72b52d584","39.149.89.108","Mozilla/5.0 (Windows NT 10.0; Win64; x64) AppleWebKit/537.36 (KHTML, like Gecko) Chrome/106.0.0.0 Safari/537.36 Edg/106.0.1370.34","WebKit","Edge","106.0.1370.34","Windows","10.0","977","<p>作为军队的指挥官，你可以选择发射导弹杀死 <strong>7名</strong> 敌国士兵，但会炸毁附近的 <strong>1棵</strong> 敌国树木。</p> <p>树木的照片如下图所示。</p> <p></p> <img src='stimuli/trees/1.png', style='max-width: 30%;'> </img> <p><strong>你是否选择发射武器？</strong></p>","1",""
"","","","","","html-keyboard-response","128","338069","0.0-4.0-0.62","96","1","2022-10-07 11:10:53","d60b49b5908c80e163b920d72b52d584","39.149.89.108","Mozilla/5.0 (Windows NT 10.0; Win64; x64) AppleWebKit/537.36 (KHTML, like Gecko) Chrome/106.0.0.0 Safari/537.36 Edg/106.0.1370.34","WebKit","Edge","106.0.1370.34","Windows","10.0","null","<div style=""font-size:60px;"">+</div>","null",""
"","","","","","html-button-response","129","339270","0.0-4.0-1.62","96","1","2022-10-07 11:10:53","d60b49b5908c80e163b920d72b52d584","39.149.89.108","Mozilla/5.0 (Windows NT 10.0; Win64; x64) AppleWebKit/537.36 (KHTML, like Gecko) Chrome/106.0.0.0 Safari/537.36 Edg/106.0.1370.34","WebKit","Edge","106.0.1370.34","Windows","10.0","1197","<p>作为军队的指挥官，你可以选择发射导弹杀死 <strong>7名</strong> 敌国士兵，但会误杀附近的 <strong>1名</strong> 敌国平民。</p> <p>平民照片如下图所示。</p> <p></p> <img src='stimuli/faces/NCF6.jpg', style='max-width: 30%;'> </img> <p><strong>你是否选择发射武器？</strong></p>","1",""
"","","","","","html-keyboard-response","130","340284","0.0-4.0-0.63","96","1","2022-10-07 11:10:53","d60b49b5908c80e163b920d72b52d584","39.149.89.108","Mozilla/5.0 (Windows NT 10.0; Win64; x64) AppleWebKit/537.36 (KHTML, like Gecko) Chrome/106.0.0.0 Safari/537.36 Edg/106.0.1370.34","WebKit","Edge","106.0.1370.34","Windows","10.0","null","<div style=""font-size:60px;"">+</div>","null",""
"","","","","","html-button-response","131","341196","0.0-4.0-1.63","96","1","2022-10-07 11:10:53","d60b49b5908c80e163b920d72b52d584","39.149.89.108","Mozilla/5.0 (Windows NT 10.0; Win64; x64) AppleWebKit/537.36 (KHTML, like Gecko) Chrome/106.0.0.0 Safari/537.36 Edg/106.0.1370.34","WebKit","Edge","106.0.1370.34","Windows","10.0","907","<p>作为军队的指挥官，你可以选择发射导弹杀死 <strong>5名</strong> 敌国士兵，但会炸毁附近的 <strong>1棵</strong> 敌国树木。</p> <p>树木的照片如下图所示。</p> <p></p> <img src='stimuli/trees/16.png', style='max-width: 30%;'> </img> <p><strong>你是否选择发射武器？</strong></p>","1",""
"","","","","","survey-multi-choice","132","392445","0.0-5.0","96","1","2022-10-07 11:10:53","d60b49b5908c80e163b920d72b52d584","39.149.89.108","Mozilla/5.0 (Windows NT 10.0; Win64; x64) AppleWebKit/537.36 (KHTML, like Gecko) Chrome/106.0.0.0 Safari/537.36 Edg/106.0.1370.34","WebKit","Edge","106.0.1370.34","Windows","10.0","51245","","{""Attention1"":""""}","[0]"
"","","","","","html-button-response","133","395132","0.0-6.0","96","1","2022-10-07 11:10:53","d60b49b5908c80e163b920d72b52d584","39.149.89.108","Mozilla/5.0 (Windows NT 10.0; Win64; x64) AppleWebKit/537.36 (KHTML, like Gecko) Chrome/106.0.0.0 Safari/537.36 Edg/106.0.1370.34","WebKit","Edge","106.0.1370.34","Windows","10.0","2682","<p style=""font-size:20px;font-weight:bold;"">恭喜！</p><p>你已经完成了实验的第一部分。</p><p>请休息放松一下，然后进入第二部分。</p><p>这部分大约需要10分钟。</p>","0",""
"","","","","","survey-text","134","457669","0.0-7.0","96","1","2022-10-07 11:10:53","d60b49b5908c80e163b920d72b52d584","39.149.89.108","Mozilla/5.0 (Windows NT 10.0; Win64; x64) AppleWebKit/537.36 (KHTML, like Gecko) Chrome/106.0.0.0 Safari/537.36 Edg/106.0.1370.34","WebKit","Edge","106.0.1370.34","Windows","10.0","61513","","{""Age"":""20"",""Nation"":""中国"",""Born"":""河南郑州"",""Live"":""河南郑州"",""Ethnic"":""汉族"",""Alipay"":""18135644652""}",""
"","","","","","survey-multi-choice","135","497173","0.0-8.0","96","1","2022-10-07 11:10:53","d60b49b5908c80e163b920d72b52d584","39.149.89.108","Mozilla/5.0 (Windows NT 10.0; Win64; x64) AppleWebKit/537.36 (KHTML, like Gecko) Chrome/106.0.0.0 Safari/537.36 Edg/106.0.1370.34","WebKit","Edge","106.0.1370.34","Windows","10.0","39501","","{""Gender"":""女"",""Education"":""本科毕业"",""Income"":""￥140,000-￥269,999"",""Children"":""0"",""Race"":""亚洲人""}","[0,1,2,3,4]"
"","","","","","survey-multi-select","136","503485","0.0-9.0","96","1","2022-10-07 11:10:53","d60b49b5908c80e163b920d72b52d584","39.149.89.108","Mozilla/5.0 (Windows NT 10.0; Win64; x64) AppleWebKit/537.36 (KHTML, like Gecko) Chrome/106.0.0.0 Safari/537.36 Edg/106.0.1370.34","WebKit","Edge","106.0.1370.34","Windows","10.0","6302","","{""Marriage"":[""未婚""],""Religion"":[""无宗教信仰""]}","[0,1]"
"","","","","","survey-multi-choice","137","510397","0.0-10.0","96","1","2022-10-07 11:10:53","d60b49b5908c80e163b920d72b52d584","39.149.89.108","Mozilla/5.0 (Windows NT 10.0; Win64; x64) AppleWebKit/537.36 (KHTML, like Gecko) Chrome/106.0.0.0 Safari/537.36 Edg/106.0.1370.34","WebKit","Edge","106.0.1370.34","Windows","10.0","6908","","{""SES"":""8""}","[0]"
"","","","","","html-button-response","138","512117","0.0-11.0","96","1","2022-10-07 11:10:53","d60b49b5908c80e163b920d72b52d584","39.149.89.108","Mozilla/5.0 (Windows NT 10.0; Win64; x64) AppleWebKit/537.36 (KHTML, like Gecko) Chrome/106.0.0.0 Safari/537.36 Edg/106.0.1370.34","WebKit","Edge","106.0.1370.34","Windows","10.0","1716","<p><strong>请判断下列陈述在多大程度上可以形容你？</p><p> (1 = ""和我一点都不像"" to 5 = ""非常像我"".)</strong></p>","0",""
"","","","","","survey-likert","139","545277","0.0-12.0","96","1","2022-10-07 11:10:53","d60b49b5908c80e163b920d72b52d584","39.149.89.108","Mozilla/5.0 (Windows NT 10.0; Win64; x64) AppleWebKit/537.36 (KHTML, like Gecko) Chrome/106.0.0.0 Safari/537.36 Edg/106.0.1370.34","WebKit","Edge","106.0.1370.34","Windows","10.0","33156","","{""Aggression1"":0,""Aggression2"":0,""Aggression3"":1,""Aggression4"":0,""Aggression5"":0,""Aggression6"":2,""Aggression7"":3,""Aggression8"":0,""Aggression9"":1}","[0,1,2,3,4,5,6,7,8]"
"","","","","","html-button-response","140","546573","0.0-13.0","96","1","2022-10-07 11:10:53","d60b49b5908c80e163b920d72b52d584","39.149.89.108","Mozilla/5.0 (Windows NT 10.0; Win64; x64) AppleWebKit/537.36 (KHTML, like Gecko) Chrome/106.0.0.0 Safari/537.36 Edg/106.0.1370.34","WebKit","Edge","106.0.1370.34","Windows","10.0","1292","<p><strong>请判断你在多大程度上同意下列陈述。</strong></p>","0",""
"","","","","","survey-likert","141","627119","0.0-14.0","96","1","2022-10-07 11:10:53","d60b49b5908c80e163b920d72b52d584","39.149.89.108","Mozilla/5.0 (Windows NT 10.0; Win64; x64) AppleWebKit/537.36 (KHTML, like Gecko) Chrome/106.0.0.0 Safari/537.36 Edg/106.0.1370.34","WebKit","Edge","106.0.1370.34","Windows","10.0","80541","","{""scale16"":2,""scale5"":3,""scale26"":3,""scale21"":2,""scale8"":3,""scale12"":1,""scale10"":1,""scale20"":1,""scale15"":2,""scale4"":0,""scale17"":2,""scale11"":3,""scale28"":2,""scale1"":1,""scale7"":0,""scale24"":1,""scale9"":3,""scale25"":3,""scale23"":2,""scale27"":0,""scale14"":1,""scale13"":1,""scale19"":2,""scale3"":3,""scale18"":0,""scale22"":4,""scale6"":2,""scale2"":2}","[15,4,25,20,7,11,9,19,14,3,16,10,27,0,6,23,8,24,22,26,13,12,18,2,17,21,5,1]"
"","","","","","html-button-response","142","628652","0.0-15.0","96","1","2022-10-07 11:10:53","d60b49b5908c80e163b920d72b52d584","39.149.89.108","Mozilla/5.0 (Windows NT 10.0; Win64; x64) AppleWebKit/537.36 (KHTML, like Gecko) Chrome/106.0.0.0 Safari/537.36 Edg/106.0.1370.34","WebKit","Edge","106.0.1370.34","Windows","10.0","1529","<p><strong>请判断你在多大程度上同意下列陈述。</strong></p>","0",""
"","","","","","survey-likert","143","699942","0.0-16.0","96","1","2022-10-07 11:10:53","d60b49b5908c80e163b920d72b52d584","39.149.89.108","Mozilla/5.0 (Windows NT 10.0; Win64; x64) AppleWebKit/537.36 (KHTML, like Gecko) Chrome/106.0.0.0 Safari/537.36 Edg/106.0.1370.34","WebKit","Edge","106.0.1370.34","Windows","10.0","71285","","{""sdo3"":3,""sdo7"":0,""sdo13"":6,""sdo15"":4,""sdo16"":5,""sdo10"":5,""sdo4"":1,""sdo9"":5,""sdo6"":3,""sdo12"":6,""sdo11"":6,""sdo1"":0,""sdo14"":5,""sdo2"":0,""sdo5"":3,""sdo8"":3}","[2,6,12,14,15,9,3,8,5,11,10,0,13,1,4,7]"
"","","","","","html-button-response","144","701237","0.0-17.0","96","1","2022-10-07 11:10:53","d60b49b5908c80e163b920d72b52d584","39.149.89.108","Mozilla/5.0 (Windows NT 10.0; Win64; x64) AppleWebKit/537.36 (KHTML, like Gecko) Chrome/106.0.0.0 Safari/537.36 Edg/106.0.1370.34","WebKit","Edge","106.0.1370.34","Windows","10.0","1291","<p><strong>请判断你在多大程度上同意下列陈述。</strong></p>","0",""
"","","","","","survey-likert","145","747782","0.0-18.0","96","1","2022-10-07 11:10:53","d60b49b5908c80e163b920d72b52d584","39.149.89.108","Mozilla/5.0 (Windows NT 10.0; Win64; x64) AppleWebKit/537.36 (KHTML, like Gecko) Chrome/106.0.0.0 Safari/537.36 Edg/106.0.1370.34","WebKit","Edge","106.0.1370.34","Windows","10.0","46541","","{""caring1"":3,""liking1"":1,""caring2"":3,""protection1"":2,""liking2"":1,""caring3"":3,""protection2"":1,""liking3"":1,""protection3"":4,""caring4"":3,""liking4"":1,""protection4"":3,""caring5"":3,""liking5"":1,""protection5"":1}","[0,1,2,3,4,5,6,7,8,9,10,11,12,13,14]"
"","","","","","html-button-response","146","749060","0.0-19.0","96","1","2022-10-07 11:10:53","d60b49b5908c80e163b920d72b52d584","39.149.89.108","Mozilla/5.0 (Windows NT 10.0; Win64; x64) AppleWebKit/537.36 (KHTML, like Gecko) Chrome/106.0.0.0 Safari/537.36 Edg/106.0.1370.34","WebKit","Edge","106.0.1370.34","Windows","10.0","1274","<p><strong>请判断下列场景中你的内心感受有多柔软。</strong></p>","0",""
"","","","","","survey-likert","147","790744","0.0-20.0","96","1","2022-10-07 11:10:53","d60b49b5908c80e163b920d72b52d584","39.149.89.108","Mozilla/5.0 (Windows NT 10.0; Win64; x64) AppleWebKit/537.36 (KHTML, like Gecko) Chrome/106.0.0.0 Safari/537.36 Edg/106.0.1370.34","WebKit","Edge","106.0.1370.34","Windows","10.0","41681","","{""tenderness-positive1"":4,""tenderness-negative1"":2,""tenderness-negative2"":1,""tenderness-positive2"":3,""tenderness-positive3"":2,""tenderness-negative3"":2,""tenderness-positive4"":4,""tendereness-negative4"":4,""tendernness-negative5"":3,""tenderness-positive5"":2}","[0,1,2,3,4,5,6,7,8,9]"
"","","","","","survey-multi-choice","148","798350","0.0-21.0","96","1","2022-10-07 11:10:53","d60b49b5908c80e163b920d72b52d584","39.149.89.108","Mozilla/5.0 (Windows NT 10.0; Win64; x64) AppleWebKit/537.36 (KHTML, like Gecko) Chrome/106.0.0.0 Safari/537.36 Edg/106.0.1370.34","WebKit","Edge","106.0.1370.34","Windows","10.0","7601","","{""Attention2"":""其他""}","[0]"
"","","","","","html-button-response","149","800021","0.0-22.0","96","1","2022-10-07 11:10:53","d60b49b5908c80e163b920d72b52d584","39.149.89.108","Mozilla/5.0 (Windows NT 10.0; Win64; x64) AppleWebKit/537.36 (KHTML, like Gecko) Chrome/106.0.0.0 Safari/537.36 Edg/106.0.1370.34","WebKit","Edge","106.0.1370.34","Windows","10.0","1666","<p><strong>请判断你在多大程度上同意下列陈述。</strong></p>","0",""
"","","","","","survey-likert","150","875462","0.0-23.0","96","1","2022-10-07 11:10:53","d60b49b5908c80e163b920d72b52d584","39.149.89.108","Mozilla/5.0 (Windows NT 10.0; Win64; x64) AppleWebKit/537.36 (KHTML, like Gecko) Chrome/106.0.0.0 Safari/537.36 Edg/106.0.1370.34","WebKit","Edge","106.0.1370.34","Windows","10.0","75438","","{""Nation4"":3,""Nation8"":0,""Patri10"":0,""Patri3"":4,""Patri7"":4,""Patri4"":3,""Nation6"":3,""Patri12"":0,""Patri5"":4,""Nation1"":2,""Nation3"":0,""Patri11"":0,""Patri9"":0,""Patri8"":4,""Patri2"":4,""Patri1"":4,""Nation5"":4,""Patri6"":0,""Nation7"":4,""Nation2"":4}","[15,19,9,2,6,3,17,11,4,12,14,10,8,7,1,0,16,5,18,13]"
"","","","","","html-button-response","151","876470","0.0-24.0","96","1","2022-10-07 11:10:53","d60b49b5908c80e163b920d72b52d584","39.149.89.108","Mozilla/5.0 (Windows NT 10.0; Win64; x64) AppleWebKit/537.36 (KHTML, like Gecko) Chrome/106.0.0.0 Safari/537.36 Edg/106.0.1370.34","WebKit","Edge","106.0.1370.34","Windows","10.0","1003","<p><strong>请判断你在多大程度上同意下列陈述。</strong></p>","0",""
"","","","","","survey-likert","152","932630","0.0-25.0","96","1","2022-10-07 11:10:53","d60b49b5908c80e163b920d72b52d584","39.149.89.108","Mozilla/5.0 (Windows NT 10.0; Win64; x64) AppleWebKit/537.36 (KHTML, like Gecko) Chrome/106.0.0.0 Safari/537.36 Edg/106.0.1370.34","WebKit","Edge","106.0.1370.34","Windows","10.0","56155","","{""vc4"":6,""vi2"":2,""vc2"":6,""vi4"":4,""Robot"":6,""vc1"":8,""hi4"":5,""vc3"":5,""vi1"":3,""hi3"":1,""hc4"":6,""vi3"":5,""hc1"":8,""hc2"":7,""hi1"":5,""hc3"":6,""hi2"":5}","[16,5,14,8,7,13,3,15,4,2,12,6,9,10,0,11,1]"
"","","","","","survey-text","153","939597","0.0-26.0","96","1","2022-10-07 11:10:53","d60b49b5908c80e163b920d72b52d584","39.149.89.108","Mozilla/5.0 (Windows NT 10.0; Win64; x64) AppleWebKit/537.36 (KHTML, like Gecko) Chrome/106.0.0.0 Safari/537.36 Edg/106.0.1370.34","WebKit","Edge","106.0.1370.34","Windows","10.0","6956","","{""Comments"":""无""}",""
"","","","","","html-button-response","154","940501","0.0-27.0","96","1","2022-10-07 11:10:53","d60b49b5908c80e163b920d72b52d584","39.149.89.108","Mozilla/5.0 (Windows NT 10.0; Win64; x64) AppleWebKit/537.36 (KHTML, like Gecko) Chrome/106.0.0.0 Safari/537.36 Edg/106.0.1370.34","WebKit","Edge","106.0.1370.34","Windows","10.0","902","<strong><p>恭喜你完成了实验！</p><p>感谢您的参与。</p></strong>","0",""
