"success","timeout","failed_images","failed_audio","failed_video","trial_type","trial_index","time_elapsed","internal_node_id","run_id","condition","recorded_at","source_code_version","ip","user_agent","device","browser","browser_version","platform","platform_version","rt","stimulus","response","question_order"
"true","false","[]","[]","[]","preload","0","2407","0.0-0.0","10","1","2022-10-20 06:06:30","d60b49b5908c80e163b920d72b52d584","121.195.188.206","Mozilla/5.0 (Windows NT 10.0; Win64; x64) AppleWebKit/537.36 (KHTML, like Gecko) Chrome/106.0.0.0 Safari/537.36 Edg/106.0.1370.47","WebKit","Edge","106.0.1370.47","Windows","10.0","","","",""
"true","","","","","fullscreen","1","15938","0.0-1.0","10","1","2022-10-20 06:06:30","d60b49b5908c80e163b920d72b52d584","121.195.188.206","Mozilla/5.0 (Windows NT 10.0; Win64; x64) AppleWebKit/537.36 (KHTML, like Gecko) Chrome/106.0.0.0 Safari/537.36 Edg/106.0.1370.47","WebKit","Edge","106.0.1370.47","Windows","10.0","","","",""
"","","","","","html-button-response","2","111438","0.0-2.0","10","1","2022-10-20 06:06:30","d60b49b5908c80e163b920d72b52d584","121.195.188.206","Mozilla/5.0 (Windows NT 10.0; Win64; x64) AppleWebKit/537.36 (KHTML, like Gecko) Chrome/106.0.0.0 Safari/537.36 Edg/106.0.1370.47","WebKit","Edge","106.0.1370.47","Windows","10.0","95498","<p style=""font-size:20px;font-weight:bold;"">实验知情同意书</p><p style=""text-align:left;""><strong>实验名称：</strong>社会冲突研究</p><p style=""text-align:left;""><strong>主要研究者：</strong>韩晓春副教授（北京师范大学心理学部）</p><p style=""text-align:left;""><strong>联系方式：</strong>发送邮件至xiaochun.han@bnu.edu.cn</p><p style=""text-align:left;""><strong>研究目的：</strong>研究旨在了解人类面对群体冲突时的决策方式，以及相关的心理学特质。实验调查大约需要20分钟。</p><p style=""text-align:left;""><strong>实验流程：</strong>实验包含两部分。第一部分呈现一系列群体冲突场景，请你决定如何对这些冲突进行反应，大约需要10分钟完成。第二部分包含一系列人口统计学信息收集和心理学问卷，大约需要10分钟完成。</p><p style=""text-align:left;""><strong>参加及退出规则：</strong>参加本实验完全取决于您的个人意愿。在参与过程中，您可以随时退出，并且不用承担任何后果。</p><p style=""text-align:left;""><strong>隐私：</strong>本实验完全匿名进行，不会收集您的姓名或其他能够识别您身份的信息。实验中收集的作答仅用作科学研究使用，可能会在学术期刊/书籍上发表，或者用于教学，您的数据未来可能会和其他研究者或实验室分享，但您的个人身份不会被识别。</p><p style=""text-align:left;""><strong>实验报酬：</strong>实验完成后，您将获得15元人民币报酬，以感谢您的时间和努力。调查问卷中包含几道题目用以测验您作答时的认真度。只有完成全部实验，并且正确回答认真度测验的被试才能获得实验报酬。实验报酬将通过支付宝转账发放。</p><p style=""text-align:left;font-size:20px;""><strong>如果您同意以上实验知情同意书的内容，请点击'同意并且开始实验'按钮；否则请关闭浏览器界面，退出实验。</strong></p>","0",""
"","","","","","html-button-response","3","123492","0.0-3.0","10","1","2022-10-20 06:06:30","d60b49b5908c80e163b920d72b52d584","121.195.188.206","Mozilla/5.0 (Windows NT 10.0; Win64; x64) AppleWebKit/537.36 (KHTML, like Gecko) Chrome/106.0.0.0 Safari/537.36 Edg/106.0.1370.47","WebKit","Edge","106.0.1370.47","Windows","10.0","12053","<p ><strong>实验任务一：</strong></p><p>请想象你的国家与另一个国家发生了军事冲突。</p><p>你是国家军队的指挥官，你将如何在冲突中进行决策。</p><p>具体来说，作为军队指挥官，请你决定是否发射导弹进行打击。</p><p>接下来，你会面对一系列场景，请仔细阅读每个场景，然后进行决策。</p><p>这部分实验任务大约需要10分钟。</p><p><strong>实验过程中，请集中注意力。</strong></p>","0",""
"","","","","","html-keyboard-response","4","124502","0.0-4.0-0.0","10","1","2022-10-20 06:06:30","d60b49b5908c80e163b920d72b52d584","121.195.188.206","Mozilla/5.0 (Windows NT 10.0; Win64; x64) AppleWebKit/537.36 (KHTML, like Gecko) Chrome/106.0.0.0 Safari/537.36 Edg/106.0.1370.47","WebKit","Edge","106.0.1370.47","Windows","10.0","null","<div style=""font-size:60px;"">+</div>","null",""
"","","","","","html-button-response","5","130676","0.0-4.0-1.0","10","1","2022-10-20 06:06:30","d60b49b5908c80e163b920d72b52d584","121.195.188.206","Mozilla/5.0 (Windows NT 10.0; Win64; x64) AppleWebKit/537.36 (KHTML, like Gecko) Chrome/106.0.0.0 Safari/537.36 Edg/106.0.1370.47","WebKit","Edge","106.0.1370.47","Windows","10.0","6170","<p>作为军队的指挥官，你可以选择发射导弹杀死 <strong>6名</strong> 敌国士兵，但会炸毁附近的 <strong>1棵</strong> 敌国树木。</p> <p>树木的照片如下图所示。</p> <p></p> <img src='stimuli/trees/16.png', style='max-width: 30%;'> </img> <p><strong>你是否选择发射武器？</strong></p>","0",""
"","","","","","html-keyboard-response","6","131679","0.0-4.0-0.1","10","1","2022-10-20 06:06:30","d60b49b5908c80e163b920d72b52d584","121.195.188.206","Mozilla/5.0 (Windows NT 10.0; Win64; x64) AppleWebKit/537.36 (KHTML, like Gecko) Chrome/106.0.0.0 Safari/537.36 Edg/106.0.1370.47","WebKit","Edge","106.0.1370.47","Windows","10.0","null","<div style=""font-size:60px;"">+</div>","null",""
"","","","","","html-button-response","7","138621","0.0-4.0-1.1","10","1","2022-10-20 06:06:30","d60b49b5908c80e163b920d72b52d584","121.195.188.206","Mozilla/5.0 (Windows NT 10.0; Win64; x64) AppleWebKit/537.36 (KHTML, like Gecko) Chrome/106.0.0.0 Safari/537.36 Edg/106.0.1370.47","WebKit","Edge","106.0.1370.47","Windows","10.0","6941","<p>作为军队的指挥官，你可以选择发射导弹杀死 <strong>2名</strong> 敌国士兵，但会炸毁附近的 <strong>1棵</strong> 敌国树木。</p> <p>树木的照片如下图所示。</p> <p></p> <img src='stimuli/trees/15.png', style='max-width: 30%;'> </img> <p><strong>你是否选择发射武器？</strong></p>","0",""
"","","","","","html-keyboard-response","8","139624","0.0-4.0-0.2","10","1","2022-10-20 06:06:30","d60b49b5908c80e163b920d72b52d584","121.195.188.206","Mozilla/5.0 (Windows NT 10.0; Win64; x64) AppleWebKit/537.36 (KHTML, like Gecko) Chrome/106.0.0.0 Safari/537.36 Edg/106.0.1370.47","WebKit","Edge","106.0.1370.47","Windows","10.0","null","<div style=""font-size:60px;"">+</div>","null",""
"","","","","","html-button-response","9","143556","0.0-4.0-1.2","10","1","2022-10-20 06:06:30","d60b49b5908c80e163b920d72b52d584","121.195.188.206","Mozilla/5.0 (Windows NT 10.0; Win64; x64) AppleWebKit/537.36 (KHTML, like Gecko) Chrome/106.0.0.0 Safari/537.36 Edg/106.0.1370.47","WebKit","Edge","106.0.1370.47","Windows","10.0","3931","<p>作为军队的指挥官，你可以选择发射导弹杀死 <strong>4名</strong> 敌国士兵，但会误杀附近的 <strong>1名</strong> 敌国平民。</p> <p>平民照片如下图所示。</p> <p></p> <img src='stimuli/faces/NCF6.jpg', style='max-width: 30%;'> </img> <p><strong>你是否选择发射武器？</strong></p>","1",""
"","","","","","html-keyboard-response","10","144572","0.0-4.0-0.3","10","1","2022-10-20 06:06:30","d60b49b5908c80e163b920d72b52d584","121.195.188.206","Mozilla/5.0 (Windows NT 10.0; Win64; x64) AppleWebKit/537.36 (KHTML, like Gecko) Chrome/106.0.0.0 Safari/537.36 Edg/106.0.1370.47","WebKit","Edge","106.0.1370.47","Windows","10.0","null","<div style=""font-size:60px;"">+</div>","null",""
"","","","","","html-button-response","11","148675","0.0-4.0-1.3","10","1","2022-10-20 06:06:30","d60b49b5908c80e163b920d72b52d584","121.195.188.206","Mozilla/5.0 (Windows NT 10.0; Win64; x64) AppleWebKit/537.36 (KHTML, like Gecko) Chrome/106.0.0.0 Safari/537.36 Edg/106.0.1370.47","WebKit","Edge","106.0.1370.47","Windows","10.0","4101","<p>作为军队的指挥官，你可以选择发射导弹杀死 <strong>8名</strong> 敌国士兵，但会误杀附近的 <strong>1名</strong> 敌国平民。</p> <p>平民照片如下图所示。</p> <p></p> <img src='stimuli/faces/NCF7.jpg', style='max-width: 30%;'> </img> <p><strong>你是否选择发射武器？</strong></p>","1",""
"","","","","","html-keyboard-response","12","149677","0.0-4.0-0.4","10","1","2022-10-20 06:06:30","d60b49b5908c80e163b920d72b52d584","121.195.188.206","Mozilla/5.0 (Windows NT 10.0; Win64; x64) AppleWebKit/537.36 (KHTML, like Gecko) Chrome/106.0.0.0 Safari/537.36 Edg/106.0.1370.47","WebKit","Edge","106.0.1370.47","Windows","10.0","null","<div style=""font-size:60px;"">+</div>","null",""
"","","","","","html-button-response","13","152384","0.0-4.0-1.4","10","1","2022-10-20 06:06:30","d60b49b5908c80e163b920d72b52d584","121.195.188.206","Mozilla/5.0 (Windows NT 10.0; Win64; x64) AppleWebKit/537.36 (KHTML, like Gecko) Chrome/106.0.0.0 Safari/537.36 Edg/106.0.1370.47","WebKit","Edge","106.0.1370.47","Windows","10.0","2704","<p>作为军队的指挥官，你可以选择发射导弹杀死 <strong>10名</strong> 敌国士兵，但会炸毁附近的 <strong>1棵</strong> 敌国树木。</p> <p>树木的照片如下图所示。</p> <p></p> <img src='stimuli/trees/9.png', style='max-width: 30%;'> </img> <p><strong>你是否选择发射武器？</strong></p>","0",""
"","","","","","html-keyboard-response","14","153389","0.0-4.0-0.5","10","1","2022-10-20 06:06:30","d60b49b5908c80e163b920d72b52d584","121.195.188.206","Mozilla/5.0 (Windows NT 10.0; Win64; x64) AppleWebKit/537.36 (KHTML, like Gecko) Chrome/106.0.0.0 Safari/537.36 Edg/106.0.1370.47","WebKit","Edge","106.0.1370.47","Windows","10.0","null","<div style=""font-size:60px;"">+</div>","null",""
"","","","","","html-button-response","15","156226","0.0-4.0-1.5","10","1","2022-10-20 06:06:30","d60b49b5908c80e163b920d72b52d584","121.195.188.206","Mozilla/5.0 (Windows NT 10.0; Win64; x64) AppleWebKit/537.36 (KHTML, like Gecko) Chrome/106.0.0.0 Safari/537.36 Edg/106.0.1370.47","WebKit","Edge","106.0.1370.47","Windows","10.0","2836","<p>作为军队的指挥官，你可以选择发射导弹杀死 <strong>7名</strong> 敌国士兵，但会炸毁附近的 <strong>1棵</strong> 敌国树木。</p> <p>树木的照片如下图所示。</p> <p></p> <img src='stimuli/trees/10.png', style='max-width: 30%;'> </img> <p><strong>你是否选择发射武器？</strong></p>","0",""
"","","","","","html-keyboard-response","16","157228","0.0-4.0-0.6","10","1","2022-10-20 06:06:30","d60b49b5908c80e163b920d72b52d584","121.195.188.206","Mozilla/5.0 (Windows NT 10.0; Win64; x64) AppleWebKit/537.36 (KHTML, like Gecko) Chrome/106.0.0.0 Safari/537.36 Edg/106.0.1370.47","WebKit","Edge","106.0.1370.47","Windows","10.0","null","<div style=""font-size:60px;"">+</div>","null",""
"","","","","","html-button-response","17","160286","0.0-4.0-1.6","10","1","2022-10-20 06:06:30","d60b49b5908c80e163b920d72b52d584","121.195.188.206","Mozilla/5.0 (Windows NT 10.0; Win64; x64) AppleWebKit/537.36 (KHTML, like Gecko) Chrome/106.0.0.0 Safari/537.36 Edg/106.0.1370.47","WebKit","Edge","106.0.1370.47","Windows","10.0","3054","<p>作为军队的指挥官，你可以选择发射导弹杀死 <strong>1名</strong> 敌国士兵，但会炸毁附近的 <strong>1棵</strong> 敌国树木。</p> <p>树木的照片如下图所示。</p> <p></p> <img src='stimuli/trees/4.png', style='max-width: 30%;'> </img> <p><strong>你是否选择发射武器？</strong></p>","0",""
"","","","","","html-keyboard-response","18","161288","0.0-4.0-0.7","10","1","2022-10-20 06:06:30","d60b49b5908c80e163b920d72b52d584","121.195.188.206","Mozilla/5.0 (Windows NT 10.0; Win64; x64) AppleWebKit/537.36 (KHTML, like Gecko) Chrome/106.0.0.0 Safari/537.36 Edg/106.0.1370.47","WebKit","Edge","106.0.1370.47","Windows","10.0","null","<div style=""font-size:60px;"">+</div>","null",""
"","","","","","html-button-response","19","164451","0.0-4.0-1.7","10","1","2022-10-20 06:06:30","d60b49b5908c80e163b920d72b52d584","121.195.188.206","Mozilla/5.0 (Windows NT 10.0; Win64; x64) AppleWebKit/537.36 (KHTML, like Gecko) Chrome/106.0.0.0 Safari/537.36 Edg/106.0.1370.47","WebKit","Edge","106.0.1370.47","Windows","10.0","3162","<p>作为军队的指挥官，你可以选择发射导弹杀死 <strong>9名</strong> 敌国士兵，但会误杀附近的 <strong>1名</strong> 敌国平民。</p> <p>平民照片如下图所示。</p> <p></p> <img src='stimuli/faces/NCM7.jpg', style='max-width: 30%;'> </img> <p><strong>你是否选择发射武器？</strong></p>","1",""
"","","","","","html-keyboard-response","20","165455","0.0-4.0-0.8","10","1","2022-10-20 06:06:30","d60b49b5908c80e163b920d72b52d584","121.195.188.206","Mozilla/5.0 (Windows NT 10.0; Win64; x64) AppleWebKit/537.36 (KHTML, like Gecko) Chrome/106.0.0.0 Safari/537.36 Edg/106.0.1370.47","WebKit","Edge","106.0.1370.47","Windows","10.0","null","<div style=""font-size:60px;"">+</div>","null",""
"","","","","","html-button-response","21","167637","0.0-4.0-1.8","10","1","2022-10-20 06:06:30","d60b49b5908c80e163b920d72b52d584","121.195.188.206","Mozilla/5.0 (Windows NT 10.0; Win64; x64) AppleWebKit/537.36 (KHTML, like Gecko) Chrome/106.0.0.0 Safari/537.36 Edg/106.0.1370.47","WebKit","Edge","106.0.1370.47","Windows","10.0","2182","<p>作为军队的指挥官，你可以选择发射导弹杀死 <strong>6名</strong> 敌国士兵，但会炸毁附近的 <strong>1棵</strong> 敌国树木。</p> <p>树木的照片如下图所示。</p> <p></p> <img src='stimuli/trees/12.png', style='max-width: 30%;'> </img> <p><strong>你是否选择发射武器？</strong></p>","0",""
"","","","","","html-keyboard-response","22","168649","0.0-4.0-0.9","10","1","2022-10-20 06:06:30","d60b49b5908c80e163b920d72b52d584","121.195.188.206","Mozilla/5.0 (Windows NT 10.0; Win64; x64) AppleWebKit/537.36 (KHTML, like Gecko) Chrome/106.0.0.0 Safari/537.36 Edg/106.0.1370.47","WebKit","Edge","106.0.1370.47","Windows","10.0","null","<div style=""font-size:60px;"">+</div>","null",""
"","","","","","html-button-response","23","173473","0.0-4.0-1.9","10","1","2022-10-20 06:06:30","d60b49b5908c80e163b920d72b52d584","121.195.188.206","Mozilla/5.0 (Windows NT 10.0; Win64; x64) AppleWebKit/537.36 (KHTML, like Gecko) Chrome/106.0.0.0 Safari/537.36 Edg/106.0.1370.47","WebKit","Edge","106.0.1370.47","Windows","10.0","4822","<p>作为军队的指挥官，你可以选择发射导弹杀死 <strong>1名</strong> 敌国士兵，但会炸毁附近的 <strong>1棵</strong> 敌国树木。</p> <p>树木的照片如下图所示。</p> <p></p> <img src='stimuli/trees/16.png', style='max-width: 30%;'> </img> <p><strong>你是否选择发射武器？</strong></p>","0",""
"","","","","","html-keyboard-response","24","174475","0.0-4.0-0.10","10","1","2022-10-20 06:06:30","d60b49b5908c80e163b920d72b52d584","121.195.188.206","Mozilla/5.0 (Windows NT 10.0; Win64; x64) AppleWebKit/537.36 (KHTML, like Gecko) Chrome/106.0.0.0 Safari/537.36 Edg/106.0.1370.47","WebKit","Edge","106.0.1370.47","Windows","10.0","null","<div style=""font-size:60px;"">+</div>","null",""
"","","","","","html-button-response","25","177165","0.0-4.0-1.10","10","1","2022-10-20 06:06:30","d60b49b5908c80e163b920d72b52d584","121.195.188.206","Mozilla/5.0 (Windows NT 10.0; Win64; x64) AppleWebKit/537.36 (KHTML, like Gecko) Chrome/106.0.0.0 Safari/537.36 Edg/106.0.1370.47","WebKit","Edge","106.0.1370.47","Windows","10.0","2687","<p>作为军队的指挥官，你可以选择发射导弹杀死 <strong>6名</strong> 敌国士兵，但会误杀附近的 <strong>1名</strong> 敌国平民。</p> <p>平民照片如下图所示。</p> <p></p> <img src='stimuli/faces/NCM1.jpg', style='max-width: 30%;'> </img> <p><strong>你是否选择发射武器？</strong></p>","1",""
"","","","","","html-keyboard-response","26","178168","0.0-4.0-0.11","10","1","2022-10-20 06:06:30","d60b49b5908c80e163b920d72b52d584","121.195.188.206","Mozilla/5.0 (Windows NT 10.0; Win64; x64) AppleWebKit/537.36 (KHTML, like Gecko) Chrome/106.0.0.0 Safari/537.36 Edg/106.0.1370.47","WebKit","Edge","106.0.1370.47","Windows","10.0","null","<div style=""font-size:60px;"">+</div>","null",""
"","","","","","html-button-response","27","180804","0.0-4.0-1.11","10","1","2022-10-20 06:06:30","d60b49b5908c80e163b920d72b52d584","121.195.188.206","Mozilla/5.0 (Windows NT 10.0; Win64; x64) AppleWebKit/537.36 (KHTML, like Gecko) Chrome/106.0.0.0 Safari/537.36 Edg/106.0.1370.47","WebKit","Edge","106.0.1370.47","Windows","10.0","2634","<p>作为军队的指挥官，你可以选择发射导弹杀死 <strong>1名</strong> 敌国士兵，但会炸毁附近的 <strong>1棵</strong> 敌国树木。</p> <p>树木的照片如下图所示。</p> <p></p> <img src='stimuli/trees/11.png', style='max-width: 30%;'> </img> <p><strong>你是否选择发射武器？</strong></p>","0",""
"","","","","","html-keyboard-response","28","181806","0.0-4.0-0.12","10","1","2022-10-20 06:06:30","d60b49b5908c80e163b920d72b52d584","121.195.188.206","Mozilla/5.0 (Windows NT 10.0; Win64; x64) AppleWebKit/537.36 (KHTML, like Gecko) Chrome/106.0.0.0 Safari/537.36 Edg/106.0.1370.47","WebKit","Edge","106.0.1370.47","Windows","10.0","null","<div style=""font-size:60px;"">+</div>","null",""
"","","","","","html-button-response","29","183919","0.0-4.0-1.12","10","1","2022-10-20 06:06:30","d60b49b5908c80e163b920d72b52d584","121.195.188.206","Mozilla/5.0 (Windows NT 10.0; Win64; x64) AppleWebKit/537.36 (KHTML, like Gecko) Chrome/106.0.0.0 Safari/537.36 Edg/106.0.1370.47","WebKit","Edge","106.0.1370.47","Windows","10.0","2108","<p>作为军队的指挥官，你可以选择发射导弹杀死 <strong>6名</strong> 敌国士兵，但会误杀附近的 <strong>1名</strong> 敌国平民。</p> <p>平民照片如下图所示。</p> <p></p> <img src='stimuli/faces/NCF4.jpg', style='max-width: 30%;'> </img> <p><strong>你是否选择发射武器？</strong></p>","1",""
"","","","","","html-keyboard-response","30","184935","0.0-4.0-0.13","10","1","2022-10-20 06:06:30","d60b49b5908c80e163b920d72b52d584","121.195.188.206","Mozilla/5.0 (Windows NT 10.0; Win64; x64) AppleWebKit/537.36 (KHTML, like Gecko) Chrome/106.0.0.0 Safari/537.36 Edg/106.0.1370.47","WebKit","Edge","106.0.1370.47","Windows","10.0","null","<div style=""font-size:60px;"">+</div>","null",""
"","","","","","html-button-response","31","187280","0.0-4.0-1.13","10","1","2022-10-20 06:06:30","d60b49b5908c80e163b920d72b52d584","121.195.188.206","Mozilla/5.0 (Windows NT 10.0; Win64; x64) AppleWebKit/537.36 (KHTML, like Gecko) Chrome/106.0.0.0 Safari/537.36 Edg/106.0.1370.47","WebKit","Edge","106.0.1370.47","Windows","10.0","2343","<p>作为军队的指挥官，你可以选择发射导弹杀死 <strong>2名</strong> 敌国士兵，但会炸毁附近的 <strong>1棵</strong> 敌国树木。</p> <p>树木的照片如下图所示。</p> <p></p> <img src='stimuli/trees/5.png', style='max-width: 30%;'> </img> <p><strong>你是否选择发射武器？</strong></p>","0",""
"","","","","","html-keyboard-response","32","188282","0.0-4.0-0.14","10","1","2022-10-20 06:06:30","d60b49b5908c80e163b920d72b52d584","121.195.188.206","Mozilla/5.0 (Windows NT 10.0; Win64; x64) AppleWebKit/537.36 (KHTML, like Gecko) Chrome/106.0.0.0 Safari/537.36 Edg/106.0.1370.47","WebKit","Edge","106.0.1370.47","Windows","10.0","null","<div style=""font-size:60px;"">+</div>","null",""
"","","","","","html-button-response","33","190929","0.0-4.0-1.14","10","1","2022-10-20 06:06:30","d60b49b5908c80e163b920d72b52d584","121.195.188.206","Mozilla/5.0 (Windows NT 10.0; Win64; x64) AppleWebKit/537.36 (KHTML, like Gecko) Chrome/106.0.0.0 Safari/537.36 Edg/106.0.1370.47","WebKit","Edge","106.0.1370.47","Windows","10.0","2647","<p>作为军队的指挥官，你可以选择发射导弹杀死 <strong>10名</strong> 敌国士兵，但会误杀附近的 <strong>1名</strong> 敌国平民。</p> <p>平民照片如下图所示。</p> <p></p> <img src='stimuli/faces/NCF3.jpg', style='max-width: 30%;'> </img> <p><strong>你是否选择发射武器？</strong></p>","1",""
"","","","","","html-keyboard-response","34","191932","0.0-4.0-0.15","10","1","2022-10-20 06:06:30","d60b49b5908c80e163b920d72b52d584","121.195.188.206","Mozilla/5.0 (Windows NT 10.0; Win64; x64) AppleWebKit/537.36 (KHTML, like Gecko) Chrome/106.0.0.0 Safari/537.36 Edg/106.0.1370.47","WebKit","Edge","106.0.1370.47","Windows","10.0","null","<div style=""font-size:60px;"">+</div>","null",""
"","","","","","html-button-response","35","194000","0.0-4.0-1.15","10","1","2022-10-20 06:06:30","d60b49b5908c80e163b920d72b52d584","121.195.188.206","Mozilla/5.0 (Windows NT 10.0; Win64; x64) AppleWebKit/537.36 (KHTML, like Gecko) Chrome/106.0.0.0 Safari/537.36 Edg/106.0.1370.47","WebKit","Edge","106.0.1370.47","Windows","10.0","2063","<p>作为军队的指挥官，你可以选择发射导弹杀死 <strong>10名</strong> 敌国士兵，但会误杀附近的 <strong>1名</strong> 敌国平民。</p> <p>平民照片如下图所示。</p> <p></p> <img src='stimuli/faces/NCF8.jpg', style='max-width: 30%;'> </img> <p><strong>你是否选择发射武器？</strong></p>","1",""
"","","","","","html-keyboard-response","36","195001","0.0-4.0-0.16","10","1","2022-10-20 06:06:30","d60b49b5908c80e163b920d72b52d584","121.195.188.206","Mozilla/5.0 (Windows NT 10.0; Win64; x64) AppleWebKit/537.36 (KHTML, like Gecko) Chrome/106.0.0.0 Safari/537.36 Edg/106.0.1370.47","WebKit","Edge","106.0.1370.47","Windows","10.0","null","<div style=""font-size:60px;"">+</div>","null",""
"","","","","","html-button-response","37","197412","0.0-4.0-1.16","10","1","2022-10-20 06:06:30","d60b49b5908c80e163b920d72b52d584","121.195.188.206","Mozilla/5.0 (Windows NT 10.0; Win64; x64) AppleWebKit/537.36 (KHTML, like Gecko) Chrome/106.0.0.0 Safari/537.36 Edg/106.0.1370.47","WebKit","Edge","106.0.1370.47","Windows","10.0","2405","<p>作为军队的指挥官，你可以选择发射导弹杀死 <strong>2名</strong> 敌国士兵，但会误杀附近的 <strong>1名</strong> 敌国平民。</p> <p>平民照片如下图所示。</p> <p></p> <img src='stimuli/faces/NCM7.jpg', style='max-width: 30%;'> </img> <p><strong>你是否选择发射武器？</strong></p>","1",""
"","","","","","html-keyboard-response","38","198413","0.0-4.0-0.17","10","1","2022-10-20 06:06:30","d60b49b5908c80e163b920d72b52d584","121.195.188.206","Mozilla/5.0 (Windows NT 10.0; Win64; x64) AppleWebKit/537.36 (KHTML, like Gecko) Chrome/106.0.0.0 Safari/537.36 Edg/106.0.1370.47","WebKit","Edge","106.0.1370.47","Windows","10.0","null","<div style=""font-size:60px;"">+</div>","null",""
"","","","","","html-button-response","39","200238","0.0-4.0-1.17","10","1","2022-10-20 06:06:30","d60b49b5908c80e163b920d72b52d584","121.195.188.206","Mozilla/5.0 (Windows NT 10.0; Win64; x64) AppleWebKit/537.36 (KHTML, like Gecko) Chrome/106.0.0.0 Safari/537.36 Edg/106.0.1370.47","WebKit","Edge","106.0.1370.47","Windows","10.0","1823","<p>作为军队的指挥官，你可以选择发射导弹杀死 <strong>6名</strong> 敌国士兵，但会炸毁附近的 <strong>1棵</strong> 敌国树木。</p> <p>树木的照片如下图所示。</p> <p></p> <img src='stimuli/trees/2.png', style='max-width: 30%;'> </img> <p><strong>你是否选择发射武器？</strong></p>","0",""
"","","","","","html-keyboard-response","40","201240","0.0-4.0-0.18","10","1","2022-10-20 06:06:30","d60b49b5908c80e163b920d72b52d584","121.195.188.206","Mozilla/5.0 (Windows NT 10.0; Win64; x64) AppleWebKit/537.36 (KHTML, like Gecko) Chrome/106.0.0.0 Safari/537.36 Edg/106.0.1370.47","WebKit","Edge","106.0.1370.47","Windows","10.0","null","<div style=""font-size:60px;"">+</div>","null",""
"","","","","","html-button-response","41","204474","0.0-4.0-1.18","10","1","2022-10-20 06:06:30","d60b49b5908c80e163b920d72b52d584","121.195.188.206","Mozilla/5.0 (Windows NT 10.0; Win64; x64) AppleWebKit/537.36 (KHTML, like Gecko) Chrome/106.0.0.0 Safari/537.36 Edg/106.0.1370.47","WebKit","Edge","106.0.1370.47","Windows","10.0","3228","<p>作为军队的指挥官，你可以选择发射导弹杀死 <strong>1名</strong> 敌国士兵，但会炸毁附近的 <strong>1棵</strong> 敌国树木。</p> <p>树木的照片如下图所示。</p> <p></p> <img src='stimuli/trees/8.png', style='max-width: 30%;'> </img> <p><strong>你是否选择发射武器？</strong></p>","1",""
"","","","","","html-keyboard-response","42","205477","0.0-4.0-0.19","10","1","2022-10-20 06:06:30","d60b49b5908c80e163b920d72b52d584","121.195.188.206","Mozilla/5.0 (Windows NT 10.0; Win64; x64) AppleWebKit/537.36 (KHTML, like Gecko) Chrome/106.0.0.0 Safari/537.36 Edg/106.0.1370.47","WebKit","Edge","106.0.1370.47","Windows","10.0","null","<div style=""font-size:60px;"">+</div>","null",""
"","","","","","html-button-response","43","207545","0.0-4.0-1.19","10","1","2022-10-20 06:06:30","d60b49b5908c80e163b920d72b52d584","121.195.188.206","Mozilla/5.0 (Windows NT 10.0; Win64; x64) AppleWebKit/537.36 (KHTML, like Gecko) Chrome/106.0.0.0 Safari/537.36 Edg/106.0.1370.47","WebKit","Edge","106.0.1370.47","Windows","10.0","2066","<p>作为军队的指挥官，你可以选择发射导弹杀死 <strong>1名</strong> 敌国士兵，但会炸毁附近的 <strong>1棵</strong> 敌国树木。</p> <p>树木的照片如下图所示。</p> <p></p> <img src='stimuli/trees/10.png', style='max-width: 30%;'> </img> <p><strong>你是否选择发射武器？</strong></p>","1",""
"","","","","","html-keyboard-response","44","208555","0.0-4.0-0.20","10","1","2022-10-20 06:06:30","d60b49b5908c80e163b920d72b52d584","121.195.188.206","Mozilla/5.0 (Windows NT 10.0; Win64; x64) AppleWebKit/537.36 (KHTML, like Gecko) Chrome/106.0.0.0 Safari/537.36 Edg/106.0.1370.47","WebKit","Edge","106.0.1370.47","Windows","10.0","null","<div style=""font-size:60px;"">+</div>","null",""
"","","","","","html-button-response","45","210458","0.0-4.0-1.20","10","1","2022-10-20 06:06:30","d60b49b5908c80e163b920d72b52d584","121.195.188.206","Mozilla/5.0 (Windows NT 10.0; Win64; x64) AppleWebKit/537.36 (KHTML, like Gecko) Chrome/106.0.0.0 Safari/537.36 Edg/106.0.1370.47","WebKit","Edge","106.0.1370.47","Windows","10.0","1901","<p>作为军队的指挥官，你可以选择发射导弹杀死 <strong>10名</strong> 敌国士兵，但会炸毁附近的 <strong>1棵</strong> 敌国树木。</p> <p>树木的照片如下图所示。</p> <p></p> <img src='stimuli/trees/14.png', style='max-width: 30%;'> </img> <p><strong>你是否选择发射武器？</strong></p>","0",""
"","","","","","html-keyboard-response","46","211462","0.0-4.0-0.21","10","1","2022-10-20 06:06:30","d60b49b5908c80e163b920d72b52d584","121.195.188.206","Mozilla/5.0 (Windows NT 10.0; Win64; x64) AppleWebKit/537.36 (KHTML, like Gecko) Chrome/106.0.0.0 Safari/537.36 Edg/106.0.1370.47","WebKit","Edge","106.0.1370.47","Windows","10.0","null","<div style=""font-size:60px;"">+</div>","null",""
"","","","","","html-button-response","47","214300","0.0-4.0-1.21","10","1","2022-10-20 06:06:30","d60b49b5908c80e163b920d72b52d584","121.195.188.206","Mozilla/5.0 (Windows NT 10.0; Win64; x64) AppleWebKit/537.36 (KHTML, like Gecko) Chrome/106.0.0.0 Safari/537.36 Edg/106.0.1370.47","WebKit","Edge","106.0.1370.47","Windows","10.0","2837","<p>作为军队的指挥官，你可以选择发射导弹杀死 <strong>6名</strong> 敌国士兵，但会误杀附近的 <strong>1名</strong> 敌国平民。</p> <p>平民照片如下图所示。</p> <p></p> <img src='stimuli/faces/NCF6.jpg', style='max-width: 30%;'> </img> <p><strong>你是否选择发射武器？</strong></p>","1",""
"","","","","","html-keyboard-response","48","215303","0.0-4.0-0.22","10","1","2022-10-20 06:06:30","d60b49b5908c80e163b920d72b52d584","121.195.188.206","Mozilla/5.0 (Windows NT 10.0; Win64; x64) AppleWebKit/537.36 (KHTML, like Gecko) Chrome/106.0.0.0 Safari/537.36 Edg/106.0.1370.47","WebKit","Edge","106.0.1370.47","Windows","10.0","null","<div style=""font-size:60px;"">+</div>","null",""
"","","","","","html-button-response","49","219348","0.0-4.0-1.22","10","1","2022-10-20 06:06:30","d60b49b5908c80e163b920d72b52d584","121.195.188.206","Mozilla/5.0 (Windows NT 10.0; Win64; x64) AppleWebKit/537.36 (KHTML, like Gecko) Chrome/106.0.0.0 Safari/537.36 Edg/106.0.1370.47","WebKit","Edge","106.0.1370.47","Windows","10.0","4038","<p>作为军队的指挥官，你可以选择发射导弹杀死 <strong>1名</strong> 敌国士兵，但会炸毁附近的 <strong>1棵</strong> 敌国树木。</p> <p>树木的照片如下图所示。</p> <p></p> <img src='stimuli/trees/1.png', style='max-width: 30%;'> </img> <p><strong>你是否选择发射武器？</strong></p>","1",""
"","","","","","html-keyboard-response","50","220351","0.0-4.0-0.23","10","1","2022-10-20 06:06:30","d60b49b5908c80e163b920d72b52d584","121.195.188.206","Mozilla/5.0 (Windows NT 10.0; Win64; x64) AppleWebKit/537.36 (KHTML, like Gecko) Chrome/106.0.0.0 Safari/537.36 Edg/106.0.1370.47","WebKit","Edge","106.0.1370.47","Windows","10.0","null","<div style=""font-size:60px;"">+</div>","null",""
"","","","","","html-button-response","51","222069","0.0-4.0-1.23","10","1","2022-10-20 06:06:30","d60b49b5908c80e163b920d72b52d584","121.195.188.206","Mozilla/5.0 (Windows NT 10.0; Win64; x64) AppleWebKit/537.36 (KHTML, like Gecko) Chrome/106.0.0.0 Safari/537.36 Edg/106.0.1370.47","WebKit","Edge","106.0.1370.47","Windows","10.0","1717","<p>作为军队的指挥官，你可以选择发射导弹杀死 <strong>2名</strong> 敌国士兵，但会炸毁附近的 <strong>1棵</strong> 敌国树木。</p> <p>树木的照片如下图所示。</p> <p></p> <img src='stimuli/trees/12.png', style='max-width: 30%;'> </img> <p><strong>你是否选择发射武器？</strong></p>","1",""
"","","","","","html-keyboard-response","52","223072","0.0-4.0-0.24","10","1","2022-10-20 06:06:30","d60b49b5908c80e163b920d72b52d584","121.195.188.206","Mozilla/5.0 (Windows NT 10.0; Win64; x64) AppleWebKit/537.36 (KHTML, like Gecko) Chrome/106.0.0.0 Safari/537.36 Edg/106.0.1370.47","WebKit","Edge","106.0.1370.47","Windows","10.0","null","<div style=""font-size:60px;"">+</div>","null",""
"","","","","","html-button-response","53","224459","0.0-4.0-1.24","10","1","2022-10-20 06:06:30","d60b49b5908c80e163b920d72b52d584","121.195.188.206","Mozilla/5.0 (Windows NT 10.0; Win64; x64) AppleWebKit/537.36 (KHTML, like Gecko) Chrome/106.0.0.0 Safari/537.36 Edg/106.0.1370.47","WebKit","Edge","106.0.1370.47","Windows","10.0","1385","<p>作为军队的指挥官，你可以选择发射导弹杀死 <strong>2名</strong> 敌国士兵，但会误杀附近的 <strong>1名</strong> 敌国平民。</p> <p>平民照片如下图所示。</p> <p></p> <img src='stimuli/faces/NCM4.jpg', style='max-width: 30%;'> </img> <p><strong>你是否选择发射武器？</strong></p>","1",""
"","","","","","html-keyboard-response","54","225462","0.0-4.0-0.25","10","1","2022-10-20 06:06:30","d60b49b5908c80e163b920d72b52d584","121.195.188.206","Mozilla/5.0 (Windows NT 10.0; Win64; x64) AppleWebKit/537.36 (KHTML, like Gecko) Chrome/106.0.0.0 Safari/537.36 Edg/106.0.1370.47","WebKit","Edge","106.0.1370.47","Windows","10.0","null","<div style=""font-size:60px;"">+</div>","null",""
"","","","","","html-button-response","55","226882","0.0-4.0-1.25","10","1","2022-10-20 06:06:30","d60b49b5908c80e163b920d72b52d584","121.195.188.206","Mozilla/5.0 (Windows NT 10.0; Win64; x64) AppleWebKit/537.36 (KHTML, like Gecko) Chrome/106.0.0.0 Safari/537.36 Edg/106.0.1370.47","WebKit","Edge","106.0.1370.47","Windows","10.0","1414","<p>作为军队的指挥官，你可以选择发射导弹杀死 <strong>2名</strong> 敌国士兵，但会误杀附近的 <strong>1名</strong> 敌国平民。</p> <p>平民照片如下图所示。</p> <p></p> <img src='stimuli/faces/NCM6.jpg', style='max-width: 30%;'> </img> <p><strong>你是否选择发射武器？</strong></p>","1",""
"","","","","","html-keyboard-response","56","227883","0.0-4.0-0.26","10","1","2022-10-20 06:06:30","d60b49b5908c80e163b920d72b52d584","121.195.188.206","Mozilla/5.0 (Windows NT 10.0; Win64; x64) AppleWebKit/537.36 (KHTML, like Gecko) Chrome/106.0.0.0 Safari/537.36 Edg/106.0.1370.47","WebKit","Edge","106.0.1370.47","Windows","10.0","null","<div style=""font-size:60px;"">+</div>","null",""
"","","","","","html-button-response","57","230409","0.0-4.0-1.26","10","1","2022-10-20 06:06:30","d60b49b5908c80e163b920d72b52d584","121.195.188.206","Mozilla/5.0 (Windows NT 10.0; Win64; x64) AppleWebKit/537.36 (KHTML, like Gecko) Chrome/106.0.0.0 Safari/537.36 Edg/106.0.1370.47","WebKit","Edge","106.0.1370.47","Windows","10.0","2524","<p>作为军队的指挥官，你可以选择发射导弹杀死 <strong>1名</strong> 敌国士兵，但会误杀附近的 <strong>1名</strong> 敌国平民。</p> <p>平民照片如下图所示。</p> <p></p> <img src='stimuli/faces/NCM8.jpg', style='max-width: 30%;'> </img> <p><strong>你是否选择发射武器？</strong></p>","1",""
"","","","","","html-keyboard-response","58","231412","0.0-4.0-0.27","10","1","2022-10-20 06:06:30","d60b49b5908c80e163b920d72b52d584","121.195.188.206","Mozilla/5.0 (Windows NT 10.0; Win64; x64) AppleWebKit/537.36 (KHTML, like Gecko) Chrome/106.0.0.0 Safari/537.36 Edg/106.0.1370.47","WebKit","Edge","106.0.1370.47","Windows","10.0","null","<div style=""font-size:60px;"">+</div>","null",""
"","","","","","html-button-response","59","232728","0.0-4.0-1.27","10","1","2022-10-20 06:06:30","d60b49b5908c80e163b920d72b52d584","121.195.188.206","Mozilla/5.0 (Windows NT 10.0; Win64; x64) AppleWebKit/537.36 (KHTML, like Gecko) Chrome/106.0.0.0 Safari/537.36 Edg/106.0.1370.47","WebKit","Edge","106.0.1370.47","Windows","10.0","1309","<p>作为军队的指挥官，你可以选择发射导弹杀死 <strong>4名</strong> 敌国士兵，但会误杀附近的 <strong>1名</strong> 敌国平民。</p> <p>平民照片如下图所示。</p> <p></p> <img src='stimuli/faces/NCF1.jpg', style='max-width: 30%;'> </img> <p><strong>你是否选择发射武器？</strong></p>","1",""
"","","","","","html-keyboard-response","60","233732","0.0-4.0-0.28","10","1","2022-10-20 06:06:30","d60b49b5908c80e163b920d72b52d584","121.195.188.206","Mozilla/5.0 (Windows NT 10.0; Win64; x64) AppleWebKit/537.36 (KHTML, like Gecko) Chrome/106.0.0.0 Safari/537.36 Edg/106.0.1370.47","WebKit","Edge","106.0.1370.47","Windows","10.0","null","<div style=""font-size:60px;"">+</div>","null",""
"","","","","","html-button-response","61","235100","0.0-4.0-1.28","10","1","2022-10-20 06:06:30","d60b49b5908c80e163b920d72b52d584","121.195.188.206","Mozilla/5.0 (Windows NT 10.0; Win64; x64) AppleWebKit/537.36 (KHTML, like Gecko) Chrome/106.0.0.0 Safari/537.36 Edg/106.0.1370.47","WebKit","Edge","106.0.1370.47","Windows","10.0","1363","<p>作为军队的指挥官，你可以选择发射导弹杀死 <strong>7名</strong> 敌国士兵，但会误杀附近的 <strong>1名</strong> 敌国平民。</p> <p>平民照片如下图所示。</p> <p></p> <img src='stimuli/faces/NCF5.jpg', style='max-width: 30%;'> </img> <p><strong>你是否选择发射武器？</strong></p>","1",""
"","","","","","html-keyboard-response","62","236114","0.0-4.0-0.29","10","1","2022-10-20 06:06:30","d60b49b5908c80e163b920d72b52d584","121.195.188.206","Mozilla/5.0 (Windows NT 10.0; Win64; x64) AppleWebKit/537.36 (KHTML, like Gecko) Chrome/106.0.0.0 Safari/537.36 Edg/106.0.1370.47","WebKit","Edge","106.0.1370.47","Windows","10.0","null","<div style=""font-size:60px;"">+</div>","null",""
"","","","","","html-button-response","63","237758","0.0-4.0-1.29","10","1","2022-10-20 06:06:30","d60b49b5908c80e163b920d72b52d584","121.195.188.206","Mozilla/5.0 (Windows NT 10.0; Win64; x64) AppleWebKit/537.36 (KHTML, like Gecko) Chrome/106.0.0.0 Safari/537.36 Edg/106.0.1370.47","WebKit","Edge","106.0.1370.47","Windows","10.0","1638","<p>作为军队的指挥官，你可以选择发射导弹杀死 <strong>10名</strong> 敌国士兵，但会炸毁附近的 <strong>1棵</strong> 敌国树木。</p> <p>树木的照片如下图所示。</p> <p></p> <img src='stimuli/trees/3.png', style='max-width: 30%;'> </img> <p><strong>你是否选择发射武器？</strong></p>","0",""
"","","","","","html-keyboard-response","64","238767","0.0-4.0-0.30","10","1","2022-10-20 06:06:30","d60b49b5908c80e163b920d72b52d584","121.195.188.206","Mozilla/5.0 (Windows NT 10.0; Win64; x64) AppleWebKit/537.36 (KHTML, like Gecko) Chrome/106.0.0.0 Safari/537.36 Edg/106.0.1370.47","WebKit","Edge","106.0.1370.47","Windows","10.0","null","<div style=""font-size:60px;"">+</div>","null",""
"","","","","","html-button-response","65","240060","0.0-4.0-1.30","10","1","2022-10-20 06:06:30","d60b49b5908c80e163b920d72b52d584","121.195.188.206","Mozilla/5.0 (Windows NT 10.0; Win64; x64) AppleWebKit/537.36 (KHTML, like Gecko) Chrome/106.0.0.0 Safari/537.36 Edg/106.0.1370.47","WebKit","Edge","106.0.1370.47","Windows","10.0","1287","<p>作为军队的指挥官，你可以选择发射导弹杀死 <strong>10名</strong> 敌国士兵，但会炸毁附近的 <strong>1棵</strong> 敌国树木。</p> <p>树木的照片如下图所示。</p> <p></p> <img src='stimuli/trees/11.png', style='max-width: 30%;'> </img> <p><strong>你是否选择发射武器？</strong></p>","0",""
"","","","","","html-keyboard-response","66","241063","0.0-4.0-0.31","10","1","2022-10-20 06:06:30","d60b49b5908c80e163b920d72b52d584","121.195.188.206","Mozilla/5.0 (Windows NT 10.0; Win64; x64) AppleWebKit/537.36 (KHTML, like Gecko) Chrome/106.0.0.0 Safari/537.36 Edg/106.0.1370.47","WebKit","Edge","106.0.1370.47","Windows","10.0","null","<div style=""font-size:60px;"">+</div>","null",""
"","","","","","html-button-response","67","242659","0.0-4.0-1.31","10","1","2022-10-20 06:06:30","d60b49b5908c80e163b920d72b52d584","121.195.188.206","Mozilla/5.0 (Windows NT 10.0; Win64; x64) AppleWebKit/537.36 (KHTML, like Gecko) Chrome/106.0.0.0 Safari/537.36 Edg/106.0.1370.47","WebKit","Edge","106.0.1370.47","Windows","10.0","1593","<p>作为军队的指挥官，你可以选择发射导弹杀死 <strong>8名</strong> 敌国士兵，但会炸毁附近的 <strong>1棵</strong> 敌国树木。</p> <p>树木的照片如下图所示。</p> <p></p> <img src='stimuli/trees/5.png', style='max-width: 30%;'> </img> <p><strong>你是否选择发射武器？</strong></p>","0",""
"","","","","","html-keyboard-response","68","243676","0.0-4.0-0.32","10","1","2022-10-20 06:06:30","d60b49b5908c80e163b920d72b52d584","121.195.188.206","Mozilla/5.0 (Windows NT 10.0; Win64; x64) AppleWebKit/537.36 (KHTML, like Gecko) Chrome/106.0.0.0 Safari/537.36 Edg/106.0.1370.47","WebKit","Edge","106.0.1370.47","Windows","10.0","null","<div style=""font-size:60px;"">+</div>","null",""
"","","","","","html-button-response","69","244732","0.0-4.0-1.32","10","1","2022-10-20 06:06:30","d60b49b5908c80e163b920d72b52d584","121.195.188.206","Mozilla/5.0 (Windows NT 10.0; Win64; x64) AppleWebKit/537.36 (KHTML, like Gecko) Chrome/106.0.0.0 Safari/537.36 Edg/106.0.1370.47","WebKit","Edge","106.0.1370.47","Windows","10.0","1049","<p>作为军队的指挥官，你可以选择发射导弹杀死 <strong>7名</strong> 敌国士兵，但会炸毁附近的 <strong>1棵</strong> 敌国树木。</p> <p>树木的照片如下图所示。</p> <p></p> <img src='stimuli/trees/15.png', style='max-width: 30%;'> </img> <p><strong>你是否选择发射武器？</strong></p>","0",""
"","","","","","html-keyboard-response","70","245738","0.0-4.0-0.33","10","1","2022-10-20 06:06:30","d60b49b5908c80e163b920d72b52d584","121.195.188.206","Mozilla/5.0 (Windows NT 10.0; Win64; x64) AppleWebKit/537.36 (KHTML, like Gecko) Chrome/106.0.0.0 Safari/537.36 Edg/106.0.1370.47","WebKit","Edge","106.0.1370.47","Windows","10.0","null","<div style=""font-size:60px;"">+</div>","null",""
"","","","","","html-button-response","71","246966","0.0-4.0-1.33","10","1","2022-10-20 06:06:30","d60b49b5908c80e163b920d72b52d584","121.195.188.206","Mozilla/5.0 (Windows NT 10.0; Win64; x64) AppleWebKit/537.36 (KHTML, like Gecko) Chrome/106.0.0.0 Safari/537.36 Edg/106.0.1370.47","WebKit","Edge","106.0.1370.47","Windows","10.0","1225","<p>作为军队的指挥官，你可以选择发射导弹杀死 <strong>1名</strong> 敌国士兵，但会误杀附近的 <strong>1名</strong> 敌国平民。</p> <p>平民照片如下图所示。</p> <p></p> <img src='stimuli/faces/NCF3.jpg', style='max-width: 30%;'> </img> <p><strong>你是否选择发射武器？</strong></p>","1",""
"","","","","","html-keyboard-response","72","247968","0.0-4.0-0.34","10","1","2022-10-20 06:06:30","d60b49b5908c80e163b920d72b52d584","121.195.188.206","Mozilla/5.0 (Windows NT 10.0; Win64; x64) AppleWebKit/537.36 (KHTML, like Gecko) Chrome/106.0.0.0 Safari/537.36 Edg/106.0.1370.47","WebKit","Edge","106.0.1370.47","Windows","10.0","null","<div style=""font-size:60px;"">+</div>","null",""
"","","","","","html-button-response","73","249517","0.0-4.0-1.34","10","1","2022-10-20 06:06:30","d60b49b5908c80e163b920d72b52d584","121.195.188.206","Mozilla/5.0 (Windows NT 10.0; Win64; x64) AppleWebKit/537.36 (KHTML, like Gecko) Chrome/106.0.0.0 Safari/537.36 Edg/106.0.1370.47","WebKit","Edge","106.0.1370.47","Windows","10.0","1548","<p>作为军队的指挥官，你可以选择发射导弹杀死 <strong>1名</strong> 敌国士兵，但会炸毁附近的 <strong>1棵</strong> 敌国树木。</p> <p>树木的照片如下图所示。</p> <p></p> <img src='stimuli/trees/3.png', style='max-width: 30%;'> </img> <p><strong>你是否选择发射武器？</strong></p>","1",""
"","","","","","html-keyboard-response","74","250521","0.0-4.0-0.35","10","1","2022-10-20 06:06:30","d60b49b5908c80e163b920d72b52d584","121.195.188.206","Mozilla/5.0 (Windows NT 10.0; Win64; x64) AppleWebKit/537.36 (KHTML, like Gecko) Chrome/106.0.0.0 Safari/537.36 Edg/106.0.1370.47","WebKit","Edge","106.0.1370.47","Windows","10.0","null","<div style=""font-size:60px;"">+</div>","null",""
"","","","","","html-button-response","75","254181","0.0-4.0-1.35","10","1","2022-10-20 06:06:30","d60b49b5908c80e163b920d72b52d584","121.195.188.206","Mozilla/5.0 (Windows NT 10.0; Win64; x64) AppleWebKit/537.36 (KHTML, like Gecko) Chrome/106.0.0.0 Safari/537.36 Edg/106.0.1370.47","WebKit","Edge","106.0.1370.47","Windows","10.0","3658","<p>作为军队的指挥官，你可以选择发射导弹杀死 <strong>3名</strong> 敌国士兵，但会炸毁附近的 <strong>1棵</strong> 敌国树木。</p> <p>树木的照片如下图所示。</p> <p></p> <img src='stimuli/trees/2.png', style='max-width: 30%;'> </img> <p><strong>你是否选择发射武器？</strong></p>","0",""
"","","","","","html-keyboard-response","76","255184","0.0-4.0-0.36","10","1","2022-10-20 06:06:30","d60b49b5908c80e163b920d72b52d584","121.195.188.206","Mozilla/5.0 (Windows NT 10.0; Win64; x64) AppleWebKit/537.36 (KHTML, like Gecko) Chrome/106.0.0.0 Safari/537.36 Edg/106.0.1370.47","WebKit","Edge","106.0.1370.47","Windows","10.0","null","<div style=""font-size:60px;"">+</div>","null",""
"","","","","","html-button-response","77","258505","0.0-4.0-1.36","10","1","2022-10-20 06:06:30","d60b49b5908c80e163b920d72b52d584","121.195.188.206","Mozilla/5.0 (Windows NT 10.0; Win64; x64) AppleWebKit/537.36 (KHTML, like Gecko) Chrome/106.0.0.0 Safari/537.36 Edg/106.0.1370.47","WebKit","Edge","106.0.1370.47","Windows","10.0","3319","<p>作为军队的指挥官，你可以选择发射导弹杀死 <strong>2名</strong> 敌国士兵，但会炸毁附近的 <strong>1棵</strong> 敌国树木。</p> <p>树木的照片如下图所示。</p> <p></p> <img src='stimuli/trees/14.png', style='max-width: 30%;'> </img> <p><strong>你是否选择发射武器？</strong></p>","1",""
"","","","","","html-keyboard-response","78","259508","0.0-4.0-0.37","10","1","2022-10-20 06:06:30","d60b49b5908c80e163b920d72b52d584","121.195.188.206","Mozilla/5.0 (Windows NT 10.0; Win64; x64) AppleWebKit/537.36 (KHTML, like Gecko) Chrome/106.0.0.0 Safari/537.36 Edg/106.0.1370.47","WebKit","Edge","106.0.1370.47","Windows","10.0","null","<div style=""font-size:60px;"">+</div>","null",""
"","","","","","html-button-response","79","261111","0.0-4.0-1.37","10","1","2022-10-20 06:06:30","d60b49b5908c80e163b920d72b52d584","121.195.188.206","Mozilla/5.0 (Windows NT 10.0; Win64; x64) AppleWebKit/537.36 (KHTML, like Gecko) Chrome/106.0.0.0 Safari/537.36 Edg/106.0.1370.47","WebKit","Edge","106.0.1370.47","Windows","10.0","1602","<p>作为军队的指挥官，你可以选择发射导弹杀死 <strong>8名</strong> 敌国士兵，但会炸毁附近的 <strong>1棵</strong> 敌国树木。</p> <p>树木的照片如下图所示。</p> <p></p> <img src='stimuli/trees/4.png', style='max-width: 30%;'> </img> <p><strong>你是否选择发射武器？</strong></p>","0",""
"","","","","","html-keyboard-response","80","262114","0.0-4.0-0.38","10","1","2022-10-20 06:06:30","d60b49b5908c80e163b920d72b52d584","121.195.188.206","Mozilla/5.0 (Windows NT 10.0; Win64; x64) AppleWebKit/537.36 (KHTML, like Gecko) Chrome/106.0.0.0 Safari/537.36 Edg/106.0.1370.47","WebKit","Edge","106.0.1370.47","Windows","10.0","null","<div style=""font-size:60px;"">+</div>","null",""
"","","","","","html-button-response","81","263510","0.0-4.0-1.38","10","1","2022-10-20 06:06:30","d60b49b5908c80e163b920d72b52d584","121.195.188.206","Mozilla/5.0 (Windows NT 10.0; Win64; x64) AppleWebKit/537.36 (KHTML, like Gecko) Chrome/106.0.0.0 Safari/537.36 Edg/106.0.1370.47","WebKit","Edge","106.0.1370.47","Windows","10.0","1393","<p>作为军队的指挥官，你可以选择发射导弹杀死 <strong>1名</strong> 敌国士兵，但会炸毁附近的 <strong>1棵</strong> 敌国树木。</p> <p>树木的照片如下图所示。</p> <p></p> <img src='stimuli/trees/13.png', style='max-width: 30%;'> </img> <p><strong>你是否选择发射武器？</strong></p>","1",""
"","","","","","html-keyboard-response","82","264522","0.0-4.0-0.39","10","1","2022-10-20 06:06:30","d60b49b5908c80e163b920d72b52d584","121.195.188.206","Mozilla/5.0 (Windows NT 10.0; Win64; x64) AppleWebKit/537.36 (KHTML, like Gecko) Chrome/106.0.0.0 Safari/537.36 Edg/106.0.1370.47","WebKit","Edge","106.0.1370.47","Windows","10.0","null","<div style=""font-size:60px;"">+</div>","null",""
"","","","","","html-button-response","83","266240","0.0-4.0-1.39","10","1","2022-10-20 06:06:30","d60b49b5908c80e163b920d72b52d584","121.195.188.206","Mozilla/5.0 (Windows NT 10.0; Win64; x64) AppleWebKit/537.36 (KHTML, like Gecko) Chrome/106.0.0.0 Safari/537.36 Edg/106.0.1370.47","WebKit","Edge","106.0.1370.47","Windows","10.0","1710","<p>作为军队的指挥官，你可以选择发射导弹杀死 <strong>6名</strong> 敌国士兵，但会炸毁附近的 <strong>1棵</strong> 敌国树木。</p> <p>树木的照片如下图所示。</p> <p></p> <img src='stimuli/trees/1.png', style='max-width: 30%;'> </img> <p><strong>你是否选择发射武器？</strong></p>","0",""
"","","","","","html-keyboard-response","84","267243","0.0-4.0-0.40","10","1","2022-10-20 06:06:30","d60b49b5908c80e163b920d72b52d584","121.195.188.206","Mozilla/5.0 (Windows NT 10.0; Win64; x64) AppleWebKit/537.36 (KHTML, like Gecko) Chrome/106.0.0.0 Safari/537.36 Edg/106.0.1370.47","WebKit","Edge","106.0.1370.47","Windows","10.0","null","<div style=""font-size:60px;"">+</div>","null",""
"","","","","","html-button-response","85","271016","0.0-4.0-1.40","10","1","2022-10-20 06:06:30","d60b49b5908c80e163b920d72b52d584","121.195.188.206","Mozilla/5.0 (Windows NT 10.0; Win64; x64) AppleWebKit/537.36 (KHTML, like Gecko) Chrome/106.0.0.0 Safari/537.36 Edg/106.0.1370.47","WebKit","Edge","106.0.1370.47","Windows","10.0","3770","<p>作为军队的指挥官，你可以选择发射导弹杀死 <strong>1名</strong> 敌国士兵，但会炸毁附近的 <strong>1棵</strong> 敌国树木。</p> <p>树木的照片如下图所示。</p> <p></p> <img src='stimuli/trees/9.png', style='max-width: 30%;'> </img> <p><strong>你是否选择发射武器？</strong></p>","1",""
"","","","","","html-keyboard-response","86","272026","0.0-4.0-0.41","10","1","2022-10-20 06:06:30","d60b49b5908c80e163b920d72b52d584","121.195.188.206","Mozilla/5.0 (Windows NT 10.0; Win64; x64) AppleWebKit/537.36 (KHTML, like Gecko) Chrome/106.0.0.0 Safari/537.36 Edg/106.0.1370.47","WebKit","Edge","106.0.1370.47","Windows","10.0","null","<div style=""font-size:60px;"">+</div>","null",""
"","","","","","html-button-response","87","273424","0.0-4.0-1.41","10","1","2022-10-20 06:06:30","d60b49b5908c80e163b920d72b52d584","121.195.188.206","Mozilla/5.0 (Windows NT 10.0; Win64; x64) AppleWebKit/537.36 (KHTML, like Gecko) Chrome/106.0.0.0 Safari/537.36 Edg/106.0.1370.47","WebKit","Edge","106.0.1370.47","Windows","10.0","1395","<p>作为军队的指挥官，你可以选择发射导弹杀死 <strong>5名</strong> 敌国士兵，但会误杀附近的 <strong>1名</strong> 敌国平民。</p> <p>平民照片如下图所示。</p> <p></p> <img src='stimuli/faces/NCM3.jpg', style='max-width: 30%;'> </img> <p><strong>你是否选择发射武器？</strong></p>","1",""
"","","","","","html-keyboard-response","88","274436","0.0-4.0-0.42","10","1","2022-10-20 06:06:30","d60b49b5908c80e163b920d72b52d584","121.195.188.206","Mozilla/5.0 (Windows NT 10.0; Win64; x64) AppleWebKit/537.36 (KHTML, like Gecko) Chrome/106.0.0.0 Safari/537.36 Edg/106.0.1370.47","WebKit","Edge","106.0.1370.47","Windows","10.0","null","<div style=""font-size:60px;"">+</div>","null",""
"","","","","","html-button-response","89","275804","0.0-4.0-1.42","10","1","2022-10-20 06:06:30","d60b49b5908c80e163b920d72b52d584","121.195.188.206","Mozilla/5.0 (Windows NT 10.0; Win64; x64) AppleWebKit/537.36 (KHTML, like Gecko) Chrome/106.0.0.0 Safari/537.36 Edg/106.0.1370.47","WebKit","Edge","106.0.1370.47","Windows","10.0","1361","<p>作为军队的指挥官，你可以选择发射导弹杀死 <strong>8名</strong> 敌国士兵，但会误杀附近的 <strong>1名</strong> 敌国平民。</p> <p>平民照片如下图所示。</p> <p></p> <img src='stimuli/faces/NCM4.jpg', style='max-width: 30%;'> </img> <p><strong>你是否选择发射武器？</strong></p>","1",""
"","","","","","html-keyboard-response","90","276821","0.0-4.0-0.43","10","1","2022-10-20 06:06:30","d60b49b5908c80e163b920d72b52d584","121.195.188.206","Mozilla/5.0 (Windows NT 10.0; Win64; x64) AppleWebKit/537.36 (KHTML, like Gecko) Chrome/106.0.0.0 Safari/537.36 Edg/106.0.1370.47","WebKit","Edge","106.0.1370.47","Windows","10.0","null","<div style=""font-size:60px;"">+</div>","null",""
"","","","","","html-button-response","91","278218","0.0-4.0-1.43","10","1","2022-10-20 06:06:30","d60b49b5908c80e163b920d72b52d584","121.195.188.206","Mozilla/5.0 (Windows NT 10.0; Win64; x64) AppleWebKit/537.36 (KHTML, like Gecko) Chrome/106.0.0.0 Safari/537.36 Edg/106.0.1370.47","WebKit","Edge","106.0.1370.47","Windows","10.0","1395","<p>作为军队的指挥官，你可以选择发射导弹杀死 <strong>9名</strong> 敌国士兵，但会炸毁附近的 <strong>1棵</strong> 敌国树木。</p> <p>树木的照片如下图所示。</p> <p></p> <img src='stimuli/trees/6.png', style='max-width: 30%;'> </img> <p><strong>你是否选择发射武器？</strong></p>","0",""
"","","","","","html-keyboard-response","92","279221","0.0-4.0-0.44","10","1","2022-10-20 06:06:30","d60b49b5908c80e163b920d72b52d584","121.195.188.206","Mozilla/5.0 (Windows NT 10.0; Win64; x64) AppleWebKit/537.36 (KHTML, like Gecko) Chrome/106.0.0.0 Safari/537.36 Edg/106.0.1370.47","WebKit","Edge","106.0.1370.47","Windows","10.0","null","<div style=""font-size:60px;"">+</div>","null",""
"","","","","","html-button-response","93","280484","0.0-4.0-1.44","10","1","2022-10-20 06:06:30","d60b49b5908c80e163b920d72b52d584","121.195.188.206","Mozilla/5.0 (Windows NT 10.0; Win64; x64) AppleWebKit/537.36 (KHTML, like Gecko) Chrome/106.0.0.0 Safari/537.36 Edg/106.0.1370.47","WebKit","Edge","106.0.1370.47","Windows","10.0","1259","<p>作为军队的指挥官，你可以选择发射导弹杀死 <strong>5名</strong> 敌国士兵，但会炸毁附近的 <strong>1棵</strong> 敌国树木。</p> <p>树木的照片如下图所示。</p> <p></p> <img src='stimuli/trees/6.png', style='max-width: 30%;'> </img> <p><strong>你是否选择发射武器？</strong></p>","0",""
"","","","","","html-keyboard-response","94","281503","0.0-4.0-0.45","10","1","2022-10-20 06:06:30","d60b49b5908c80e163b920d72b52d584","121.195.188.206","Mozilla/5.0 (Windows NT 10.0; Win64; x64) AppleWebKit/537.36 (KHTML, like Gecko) Chrome/106.0.0.0 Safari/537.36 Edg/106.0.1370.47","WebKit","Edge","106.0.1370.47","Windows","10.0","null","<div style=""font-size:60px;"">+</div>","null",""
"","","","","","html-button-response","95","282592","0.0-4.0-1.45","10","1","2022-10-20 06:06:30","d60b49b5908c80e163b920d72b52d584","121.195.188.206","Mozilla/5.0 (Windows NT 10.0; Win64; x64) AppleWebKit/537.36 (KHTML, like Gecko) Chrome/106.0.0.0 Safari/537.36 Edg/106.0.1370.47","WebKit","Edge","106.0.1370.47","Windows","10.0","1087","<p>作为军队的指挥官，你可以选择发射导弹杀死 <strong>6名</strong> 敌国士兵，但会误杀附近的 <strong>1名</strong> 敌国平民。</p> <p>平民照片如下图所示。</p> <p></p> <img src='stimuli/faces/NCM3.jpg', style='max-width: 30%;'> </img> <p><strong>你是否选择发射武器？</strong></p>","1",""
"","","","","","html-keyboard-response","96","283604","0.0-4.0-0.46","10","1","2022-10-20 06:06:30","d60b49b5908c80e163b920d72b52d584","121.195.188.206","Mozilla/5.0 (Windows NT 10.0; Win64; x64) AppleWebKit/537.36 (KHTML, like Gecko) Chrome/106.0.0.0 Safari/537.36 Edg/106.0.1370.47","WebKit","Edge","106.0.1370.47","Windows","10.0","null","<div style=""font-size:60px;"">+</div>","null",""
"","","","","","html-button-response","97","284457","0.0-4.0-1.46","10","1","2022-10-20 06:06:30","d60b49b5908c80e163b920d72b52d584","121.195.188.206","Mozilla/5.0 (Windows NT 10.0; Win64; x64) AppleWebKit/537.36 (KHTML, like Gecko) Chrome/106.0.0.0 Safari/537.36 Edg/106.0.1370.47","WebKit","Edge","106.0.1370.47","Windows","10.0","850","<p>作为军队的指挥官，你可以选择发射导弹杀死 <strong>6名</strong> 敌国士兵，但会误杀附近的 <strong>1名</strong> 敌国平民。</p> <p>平民照片如下图所示。</p> <p></p> <img src='stimuli/faces/NCM8.jpg', style='max-width: 30%;'> </img> <p><strong>你是否选择发射武器？</strong></p>","1",""
"","","","","","html-keyboard-response","98","285467","0.0-4.0-0.47","10","1","2022-10-20 06:06:30","d60b49b5908c80e163b920d72b52d584","121.195.188.206","Mozilla/5.0 (Windows NT 10.0; Win64; x64) AppleWebKit/537.36 (KHTML, like Gecko) Chrome/106.0.0.0 Safari/537.36 Edg/106.0.1370.47","WebKit","Edge","106.0.1370.47","Windows","10.0","null","<div style=""font-size:60px;"">+</div>","null",""
"","","","","","html-button-response","99","286655","0.0-4.0-1.47","10","1","2022-10-20 06:06:30","d60b49b5908c80e163b920d72b52d584","121.195.188.206","Mozilla/5.0 (Windows NT 10.0; Win64; x64) AppleWebKit/537.36 (KHTML, like Gecko) Chrome/106.0.0.0 Safari/537.36 Edg/106.0.1370.47","WebKit","Edge","106.0.1370.47","Windows","10.0","1184","<p>作为军队的指挥官，你可以选择发射导弹杀死 <strong>1名</strong> 敌国士兵，但会误杀附近的 <strong>1名</strong> 敌国平民。</p> <p>平民照片如下图所示。</p> <p></p> <img src='stimuli/faces/NCF8.jpg', style='max-width: 30%;'> </img> <p><strong>你是否选择发射武器？</strong></p>","1",""
"","","","","","html-keyboard-response","100","287659","0.0-4.0-0.48","10","1","2022-10-20 06:06:30","d60b49b5908c80e163b920d72b52d584","121.195.188.206","Mozilla/5.0 (Windows NT 10.0; Win64; x64) AppleWebKit/537.36 (KHTML, like Gecko) Chrome/106.0.0.0 Safari/537.36 Edg/106.0.1370.47","WebKit","Edge","106.0.1370.47","Windows","10.0","null","<div style=""font-size:60px;"">+</div>","null",""
"","","","","","html-button-response","101","288325","0.0-4.0-1.48","10","1","2022-10-20 06:06:30","d60b49b5908c80e163b920d72b52d584","121.195.188.206","Mozilla/5.0 (Windows NT 10.0; Win64; x64) AppleWebKit/537.36 (KHTML, like Gecko) Chrome/106.0.0.0 Safari/537.36 Edg/106.0.1370.47","WebKit","Edge","106.0.1370.47","Windows","10.0","659","<p>作为军队的指挥官，你可以选择发射导弹杀死 <strong>1名</strong> 敌国士兵，但会误杀附近的 <strong>1名</strong> 敌国平民。</p> <p>平民照片如下图所示。</p> <p></p> <img src='stimuli/faces/NCM1.jpg', style='max-width: 30%;'> </img> <p><strong>你是否选择发射武器？</strong></p>","1",""
"","","","","","html-keyboard-response","102","289342","0.0-4.0-0.49","10","1","2022-10-20 06:06:30","d60b49b5908c80e163b920d72b52d584","121.195.188.206","Mozilla/5.0 (Windows NT 10.0; Win64; x64) AppleWebKit/537.36 (KHTML, like Gecko) Chrome/106.0.0.0 Safari/537.36 Edg/106.0.1370.47","WebKit","Edge","106.0.1370.47","Windows","10.0","null","<div style=""font-size:60px;"">+</div>","null",""
"","","","","","html-button-response","103","291037","0.0-4.0-1.49","10","1","2022-10-20 06:06:30","d60b49b5908c80e163b920d72b52d584","121.195.188.206","Mozilla/5.0 (Windows NT 10.0; Win64; x64) AppleWebKit/537.36 (KHTML, like Gecko) Chrome/106.0.0.0 Safari/537.36 Edg/106.0.1370.47","WebKit","Edge","106.0.1370.47","Windows","10.0","1690","<p>作为军队的指挥官，你可以选择发射导弹杀死 <strong>7名</strong> 敌国士兵，但会炸毁附近的 <strong>1棵</strong> 敌国树木。</p> <p>树木的照片如下图所示。</p> <p></p> <img src='stimuli/trees/13.png', style='max-width: 30%;'> </img> <p><strong>你是否选择发射武器？</strong></p>","0",""
"","","","","","html-keyboard-response","104","292045","0.0-4.0-0.50","10","1","2022-10-20 06:06:30","d60b49b5908c80e163b920d72b52d584","121.195.188.206","Mozilla/5.0 (Windows NT 10.0; Win64; x64) AppleWebKit/537.36 (KHTML, like Gecko) Chrome/106.0.0.0 Safari/537.36 Edg/106.0.1370.47","WebKit","Edge","106.0.1370.47","Windows","10.0","null","<div style=""font-size:60px;"">+</div>","null",""
"","","","","","html-button-response","105","293697","0.0-4.0-1.50","10","1","2022-10-20 06:06:30","d60b49b5908c80e163b920d72b52d584","121.195.188.206","Mozilla/5.0 (Windows NT 10.0; Win64; x64) AppleWebKit/537.36 (KHTML, like Gecko) Chrome/106.0.0.0 Safari/537.36 Edg/106.0.1370.47","WebKit","Edge","106.0.1370.47","Windows","10.0","1648","<p>作为军队的指挥官，你可以选择发射导弹杀死 <strong>3名</strong> 敌国士兵，但会误杀附近的 <strong>1名</strong> 敌国平民。</p> <p>平民照片如下图所示。</p> <p></p> <img src='stimuli/faces/NCM2.jpg', style='max-width: 30%;'> </img> <p><strong>你是否选择发射武器？</strong></p>","1",""
"","","","","","html-keyboard-response","106","294714","0.0-4.0-0.51","10","1","2022-10-20 06:06:30","d60b49b5908c80e163b920d72b52d584","121.195.188.206","Mozilla/5.0 (Windows NT 10.0; Win64; x64) AppleWebKit/537.36 (KHTML, like Gecko) Chrome/106.0.0.0 Safari/537.36 Edg/106.0.1370.47","WebKit","Edge","106.0.1370.47","Windows","10.0","null","<div style=""font-size:60px;"">+</div>","null",""
"","","","","","html-button-response","107","295604","0.0-4.0-1.51","10","1","2022-10-20 06:06:30","d60b49b5908c80e163b920d72b52d584","121.195.188.206","Mozilla/5.0 (Windows NT 10.0; Win64; x64) AppleWebKit/537.36 (KHTML, like Gecko) Chrome/106.0.0.0 Safari/537.36 Edg/106.0.1370.47","WebKit","Edge","106.0.1370.47","Windows","10.0","887","<p>作为军队的指挥官，你可以选择发射导弹杀死 <strong>2名</strong> 敌国士兵，但会误杀附近的 <strong>1名</strong> 敌国平民。</p> <p>平民照片如下图所示。</p> <p></p> <img src='stimuli/faces/NCF5.jpg', style='max-width: 30%;'> </img> <p><strong>你是否选择发射武器？</strong></p>","1",""
"","","","","","html-keyboard-response","108","296623","0.0-4.0-0.52","10","1","2022-10-20 06:06:30","d60b49b5908c80e163b920d72b52d584","121.195.188.206","Mozilla/5.0 (Windows NT 10.0; Win64; x64) AppleWebKit/537.36 (KHTML, like Gecko) Chrome/106.0.0.0 Safari/537.36 Edg/106.0.1370.47","WebKit","Edge","106.0.1370.47","Windows","10.0","null","<div style=""font-size:60px;"">+</div>","null",""
"","","","","","html-button-response","109","297642","0.0-4.0-1.52","10","1","2022-10-20 06:06:30","d60b49b5908c80e163b920d72b52d584","121.195.188.206","Mozilla/5.0 (Windows NT 10.0; Win64; x64) AppleWebKit/537.36 (KHTML, like Gecko) Chrome/106.0.0.0 Safari/537.36 Edg/106.0.1370.47","WebKit","Edge","106.0.1370.47","Windows","10.0","1014","<p>作为军队的指挥官，你可以选择发射导弹杀死 <strong>8名</strong> 敌国士兵，但会误杀附近的 <strong>1名</strong> 敌国平民。</p> <p>平民照片如下图所示。</p> <p></p> <img src='stimuli/faces/NCF1.jpg', style='max-width: 30%;'> </img> <p><strong>你是否选择发射武器？</strong></p>","1",""
"","","","","","html-keyboard-response","110","298645","0.0-4.0-0.53","10","1","2022-10-20 06:06:30","d60b49b5908c80e163b920d72b52d584","121.195.188.206","Mozilla/5.0 (Windows NT 10.0; Win64; x64) AppleWebKit/537.36 (KHTML, like Gecko) Chrome/106.0.0.0 Safari/537.36 Edg/106.0.1370.47","WebKit","Edge","106.0.1370.47","Windows","10.0","null","<div style=""font-size:60px;"">+</div>","null",""
"","","","","","html-button-response","111","299488","0.0-4.0-1.53","10","1","2022-10-20 06:06:30","d60b49b5908c80e163b920d72b52d584","121.195.188.206","Mozilla/5.0 (Windows NT 10.0; Win64; x64) AppleWebKit/537.36 (KHTML, like Gecko) Chrome/106.0.0.0 Safari/537.36 Edg/106.0.1370.47","WebKit","Edge","106.0.1370.47","Windows","10.0","840","<p>作为军队的指挥官，你可以选择发射导弹杀死 <strong>4名</strong> 敌国士兵，但会误杀附近的 <strong>1名</strong> 敌国平民。</p> <p>平民照片如下图所示。</p> <p></p> <img src='stimuli/faces/NCF4.jpg', style='max-width: 30%;'> </img> <p><strong>你是否选择发射武器？</strong></p>","1",""
"","","","","","html-keyboard-response","112","300502","0.0-4.0-0.54","10","1","2022-10-20 06:06:30","d60b49b5908c80e163b920d72b52d584","121.195.188.206","Mozilla/5.0 (Windows NT 10.0; Win64; x64) AppleWebKit/537.36 (KHTML, like Gecko) Chrome/106.0.0.0 Safari/537.36 Edg/106.0.1370.47","WebKit","Edge","106.0.1370.47","Windows","10.0","null","<div style=""font-size:60px;"">+</div>","null",""
"","","","","","html-button-response","113","302160","0.0-4.0-1.54","10","1","2022-10-20 06:06:30","d60b49b5908c80e163b920d72b52d584","121.195.188.206","Mozilla/5.0 (Windows NT 10.0; Win64; x64) AppleWebKit/537.36 (KHTML, like Gecko) Chrome/106.0.0.0 Safari/537.36 Edg/106.0.1370.47","WebKit","Edge","106.0.1370.47","Windows","10.0","1650","<p>作为军队的指挥官，你可以选择发射导弹杀死 <strong>5名</strong> 敌国士兵，但会炸毁附近的 <strong>1棵</strong> 敌国树木。</p> <p>树木的照片如下图所示。</p> <p></p> <img src='stimuli/trees/7.png', style='max-width: 30%;'> </img> <p><strong>你是否选择发射武器？</strong></p>","0",""
"","","","","","html-keyboard-response","114","303163","0.0-4.0-0.55","10","1","2022-10-20 06:06:30","d60b49b5908c80e163b920d72b52d584","121.195.188.206","Mozilla/5.0 (Windows NT 10.0; Win64; x64) AppleWebKit/537.36 (KHTML, like Gecko) Chrome/106.0.0.0 Safari/537.36 Edg/106.0.1370.47","WebKit","Edge","106.0.1370.47","Windows","10.0","null","<div style=""font-size:60px;"">+</div>","null",""
"","","","","","html-button-response","115","304083","0.0-4.0-1.55","10","1","2022-10-20 06:06:30","d60b49b5908c80e163b920d72b52d584","121.195.188.206","Mozilla/5.0 (Windows NT 10.0; Win64; x64) AppleWebKit/537.36 (KHTML, like Gecko) Chrome/106.0.0.0 Safari/537.36 Edg/106.0.1370.47","WebKit","Edge","106.0.1370.47","Windows","10.0","915","<p>作为军队的指挥官，你可以选择发射导弹杀死 <strong>5名</strong> 敌国士兵，但会误杀附近的 <strong>1名</strong> 敌国平民。</p> <p>平民照片如下图所示。</p> <p></p> <img src='stimuli/faces/NCM5.jpg', style='max-width: 30%;'> </img> <p><strong>你是否选择发射武器？</strong></p>","1",""
"","","","","","html-keyboard-response","116","305099","0.0-4.0-0.56","10","1","2022-10-20 06:06:30","d60b49b5908c80e163b920d72b52d584","121.195.188.206","Mozilla/5.0 (Windows NT 10.0; Win64; x64) AppleWebKit/537.36 (KHTML, like Gecko) Chrome/106.0.0.0 Safari/537.36 Edg/106.0.1370.47","WebKit","Edge","106.0.1370.47","Windows","10.0","null","<div style=""font-size:60px;"">+</div>","null",""
"","","","","","html-button-response","117","306657","0.0-4.0-1.56","10","1","2022-10-20 06:06:30","d60b49b5908c80e163b920d72b52d584","121.195.188.206","Mozilla/5.0 (Windows NT 10.0; Win64; x64) AppleWebKit/537.36 (KHTML, like Gecko) Chrome/106.0.0.0 Safari/537.36 Edg/106.0.1370.47","WebKit","Edge","106.0.1370.47","Windows","10.0","1552","<p>作为军队的指挥官，你可以选择发射导弹杀死 <strong>5名</strong> 敌国士兵，但会误杀附近的 <strong>1名</strong> 敌国平民。</p> <p>平民照片如下图所示。</p> <p></p> <img src='stimuli/faces/NCF2.jpg', style='max-width: 30%;'> </img> <p><strong>你是否选择发射武器？</strong></p>","1",""
"","","","","","html-keyboard-response","118","307666","0.0-4.0-0.57","10","1","2022-10-20 06:06:30","d60b49b5908c80e163b920d72b52d584","121.195.188.206","Mozilla/5.0 (Windows NT 10.0; Win64; x64) AppleWebKit/537.36 (KHTML, like Gecko) Chrome/106.0.0.0 Safari/537.36 Edg/106.0.1370.47","WebKit","Edge","106.0.1370.47","Windows","10.0","null","<div style=""font-size:60px;"">+</div>","null",""
"","","","","","html-button-response","119","308301","0.0-4.0-1.57","10","1","2022-10-20 06:06:30","d60b49b5908c80e163b920d72b52d584","121.195.188.206","Mozilla/5.0 (Windows NT 10.0; Win64; x64) AppleWebKit/537.36 (KHTML, like Gecko) Chrome/106.0.0.0 Safari/537.36 Edg/106.0.1370.47","WebKit","Edge","106.0.1370.47","Windows","10.0","628","<p>作为军队的指挥官，你可以选择发射导弹杀死 <strong>6名</strong> 敌国士兵，但会误杀附近的 <strong>1名</strong> 敌国平民。</p> <p>平民照片如下图所示。</p> <p></p> <img src='stimuli/faces/NCM2.jpg', style='max-width: 30%;'> </img> <p><strong>你是否选择发射武器？</strong></p>","1",""
"","","","","","html-keyboard-response","120","309320","0.0-4.0-0.58","10","1","2022-10-20 06:06:30","d60b49b5908c80e163b920d72b52d584","121.195.188.206","Mozilla/5.0 (Windows NT 10.0; Win64; x64) AppleWebKit/537.36 (KHTML, like Gecko) Chrome/106.0.0.0 Safari/537.36 Edg/106.0.1370.47","WebKit","Edge","106.0.1370.47","Windows","10.0","null","<div style=""font-size:60px;"">+</div>","null",""
"","","","","","html-button-response","121","310217","0.0-4.0-1.58","10","1","2022-10-20 06:06:30","d60b49b5908c80e163b920d72b52d584","121.195.188.206","Mozilla/5.0 (Windows NT 10.0; Win64; x64) AppleWebKit/537.36 (KHTML, like Gecko) Chrome/106.0.0.0 Safari/537.36 Edg/106.0.1370.47","WebKit","Edge","106.0.1370.47","Windows","10.0","891","<p>作为军队的指挥官，你可以选择发射导弹杀死 <strong>5名</strong> 敌国士兵，但会误杀附近的 <strong>1名</strong> 敌国平民。</p> <p>平民照片如下图所示。</p> <p></p> <img src='stimuli/faces/NCF7.jpg', style='max-width: 30%;'> </img> <p><strong>你是否选择发射武器？</strong></p>","1",""
"","","","","","html-keyboard-response","122","311234","0.0-4.0-0.59","10","1","2022-10-20 06:06:30","d60b49b5908c80e163b920d72b52d584","121.195.188.206","Mozilla/5.0 (Windows NT 10.0; Win64; x64) AppleWebKit/537.36 (KHTML, like Gecko) Chrome/106.0.0.0 Safari/537.36 Edg/106.0.1370.47","WebKit","Edge","106.0.1370.47","Windows","10.0","null","<div style=""font-size:60px;"">+</div>","null",""
"","","","","","html-button-response","123","312668","0.0-4.0-1.59","10","1","2022-10-20 06:06:30","d60b49b5908c80e163b920d72b52d584","121.195.188.206","Mozilla/5.0 (Windows NT 10.0; Win64; x64) AppleWebKit/537.36 (KHTML, like Gecko) Chrome/106.0.0.0 Safari/537.36 Edg/106.0.1370.47","WebKit","Edge","106.0.1370.47","Windows","10.0","1428","<p>作为军队的指挥官，你可以选择发射导弹杀死 <strong>10名</strong> 敌国士兵，但会炸毁附近的 <strong>1棵</strong> 敌国树木。</p> <p>树木的照片如下图所示。</p> <p></p> <img src='stimuli/trees/7.png', style='max-width: 30%;'> </img> <p><strong>你是否选择发射武器？</strong></p>","0",""
"","","","","","html-keyboard-response","124","313684","0.0-4.0-0.60","10","1","2022-10-20 06:06:30","d60b49b5908c80e163b920d72b52d584","121.195.188.206","Mozilla/5.0 (Windows NT 10.0; Win64; x64) AppleWebKit/537.36 (KHTML, like Gecko) Chrome/106.0.0.0 Safari/537.36 Edg/106.0.1370.47","WebKit","Edge","106.0.1370.47","Windows","10.0","null","<div style=""font-size:60px;"">+</div>","null",""
"","","","","","html-button-response","125","315037","0.0-4.0-1.60","10","1","2022-10-20 06:06:30","d60b49b5908c80e163b920d72b52d584","121.195.188.206","Mozilla/5.0 (Windows NT 10.0; Win64; x64) AppleWebKit/537.36 (KHTML, like Gecko) Chrome/106.0.0.0 Safari/537.36 Edg/106.0.1370.47","WebKit","Edge","106.0.1370.47","Windows","10.0","1349","<p>作为军队的指挥官，你可以选择发射导弹杀死 <strong>6名</strong> 敌国士兵，但会误杀附近的 <strong>1名</strong> 敌国平民。</p> <p>平民照片如下图所示。</p> <p></p> <img src='stimuli/faces/NCM5.jpg', style='max-width: 30%;'> </img> <p><strong>你是否选择发射武器？</strong></p>","1",""
"","","","","","html-keyboard-response","126","316054","0.0-4.0-0.61","10","1","2022-10-20 06:06:30","d60b49b5908c80e163b920d72b52d584","121.195.188.206","Mozilla/5.0 (Windows NT 10.0; Win64; x64) AppleWebKit/537.36 (KHTML, like Gecko) Chrome/106.0.0.0 Safari/537.36 Edg/106.0.1370.47","WebKit","Edge","106.0.1370.47","Windows","10.0","null","<div style=""font-size:60px;"">+</div>","null",""
"","","","","","html-button-response","127","316989","0.0-4.0-1.61","10","1","2022-10-20 06:06:30","d60b49b5908c80e163b920d72b52d584","121.195.188.206","Mozilla/5.0 (Windows NT 10.0; Win64; x64) AppleWebKit/537.36 (KHTML, like Gecko) Chrome/106.0.0.0 Safari/537.36 Edg/106.0.1370.47","WebKit","Edge","106.0.1370.47","Windows","10.0","932","<p>作为军队的指挥官，你可以选择发射导弹杀死 <strong>8名</strong> 敌国士兵，但会误杀附近的 <strong>1名</strong> 敌国平民。</p> <p>平民照片如下图所示。</p> <p></p> <img src='stimuli/faces/NCM6.jpg', style='max-width: 30%;'> </img> <p><strong>你是否选择发射武器？</strong></p>","1",""
"","","","","","html-keyboard-response","128","318007","0.0-4.0-0.62","10","1","2022-10-20 06:06:30","d60b49b5908c80e163b920d72b52d584","121.195.188.206","Mozilla/5.0 (Windows NT 10.0; Win64; x64) AppleWebKit/537.36 (KHTML, like Gecko) Chrome/106.0.0.0 Safari/537.36 Edg/106.0.1370.47","WebKit","Edge","106.0.1370.47","Windows","10.0","null","<div style=""font-size:60px;"">+</div>","null",""
"","","","","","html-button-response","129","319448","0.0-4.0-1.62","10","1","2022-10-20 06:06:30","d60b49b5908c80e163b920d72b52d584","121.195.188.206","Mozilla/5.0 (Windows NT 10.0; Win64; x64) AppleWebKit/537.36 (KHTML, like Gecko) Chrome/106.0.0.0 Safari/537.36 Edg/106.0.1370.47","WebKit","Edge","106.0.1370.47","Windows","10.0","1438","<p>作为军队的指挥官，你可以选择发射导弹杀死 <strong>10名</strong> 敌国士兵，但会炸毁附近的 <strong>1棵</strong> 敌国树木。</p> <p>树木的照片如下图所示。</p> <p></p> <img src='stimuli/trees/8.png', style='max-width: 30%;'> </img> <p><strong>你是否选择发射武器？</strong></p>","0",""
"","","","","","html-keyboard-response","130","320464","0.0-4.0-0.63","10","1","2022-10-20 06:06:30","d60b49b5908c80e163b920d72b52d584","121.195.188.206","Mozilla/5.0 (Windows NT 10.0; Win64; x64) AppleWebKit/537.36 (KHTML, like Gecko) Chrome/106.0.0.0 Safari/537.36 Edg/106.0.1370.47","WebKit","Edge","106.0.1370.47","Windows","10.0","null","<div style=""font-size:60px;"">+</div>","null",""
"","","","","","html-button-response","131","321696","0.0-4.0-1.63","10","1","2022-10-20 06:06:30","d60b49b5908c80e163b920d72b52d584","121.195.188.206","Mozilla/5.0 (Windows NT 10.0; Win64; x64) AppleWebKit/537.36 (KHTML, like Gecko) Chrome/106.0.0.0 Safari/537.36 Edg/106.0.1370.47","WebKit","Edge","106.0.1370.47","Windows","10.0","1226","<p>作为军队的指挥官，你可以选择发射导弹杀死 <strong>9名</strong> 敌国士兵，但会误杀附近的 <strong>1名</strong> 敌国平民。</p> <p>平民照片如下图所示。</p> <p></p> <img src='stimuli/faces/NCF2.jpg', style='max-width: 30%;'> </img> <p><strong>你是否选择发射武器？</strong></p>","1",""
"","","","","","survey-multi-choice","132","361449","0.0-5.0","10","1","2022-10-20 06:06:30","d60b49b5908c80e163b920d72b52d584","121.195.188.206","Mozilla/5.0 (Windows NT 10.0; Win64; x64) AppleWebKit/537.36 (KHTML, like Gecko) Chrome/106.0.0.0 Safari/537.36 Edg/106.0.1370.47","WebKit","Edge","106.0.1370.47","Windows","10.0","39749","","{""Attention1"":""""}","[0]"
"","","","","","html-button-response","133","376375","0.0-6.0","10","1","2022-10-20 06:06:30","d60b49b5908c80e163b920d72b52d584","121.195.188.206","Mozilla/5.0 (Windows NT 10.0; Win64; x64) AppleWebKit/537.36 (KHTML, like Gecko) Chrome/106.0.0.0 Safari/537.36 Edg/106.0.1370.47","WebKit","Edge","106.0.1370.47","Windows","10.0","14922","<p style=""font-size:20px;font-weight:bold;"">恭喜！</p><p>你已经完成了实验的第一部分。</p><p>请休息放松一下，然后进入第二部分。</p><p>这部分大约需要10分钟。</p>","0",""
"","","","","","survey-text","134","416453","0.0-7.0","10","1","2022-10-20 06:06:30","d60b49b5908c80e163b920d72b52d584","121.195.188.206","Mozilla/5.0 (Windows NT 10.0; Win64; x64) AppleWebKit/537.36 (KHTML, like Gecko) Chrome/106.0.0.0 Safari/537.36 Edg/106.0.1370.47","WebKit","Edge","106.0.1370.47","Windows","10.0","39048","","{""Age"":""22"",""Nation"":""中国"",""Born"":""山东省寿光市"",""Live"":""北京市海淀区"",""Ethnic"":""汉族"",""Alipay"":""15763601609""}",""
"","","","","","survey-multi-choice","135","443498","0.0-8.0","10","1","2022-10-20 06:06:30","d60b49b5908c80e163b920d72b52d584","121.195.188.206","Mozilla/5.0 (Windows NT 10.0; Win64; x64) AppleWebKit/537.36 (KHTML, like Gecko) Chrome/106.0.0.0 Safari/537.36 Edg/106.0.1370.47","WebKit","Edge","106.0.1370.47","Windows","10.0","27042","","{""Gender"":""男"",""Education"":""本科毕业"",""Income"":""￥70,000-￥139,999"",""Children"":""0"",""Race"":""亚洲人""}","[0,1,2,3,4]"
"","","","","","survey-multi-select","136","450218","0.0-9.0","10","1","2022-10-20 06:06:30","d60b49b5908c80e163b920d72b52d584","121.195.188.206","Mozilla/5.0 (Windows NT 10.0; Win64; x64) AppleWebKit/537.36 (KHTML, like Gecko) Chrome/106.0.0.0 Safari/537.36 Edg/106.0.1370.47","WebKit","Edge","106.0.1370.47","Windows","10.0","6705","","{""Marriage"":[""未婚""],""Religion"":[""无宗教信仰""]}","[0,1]"
"","","","","","survey-multi-choice","137","462572","0.0-10.0","10","1","2022-10-20 06:06:30","d60b49b5908c80e163b920d72b52d584","121.195.188.206","Mozilla/5.0 (Windows NT 10.0; Win64; x64) AppleWebKit/537.36 (KHTML, like Gecko) Chrome/106.0.0.0 Safari/537.36 Edg/106.0.1370.47","WebKit","Edge","106.0.1370.47","Windows","10.0","12349","","{""SES"":""7""}","[0]"
"","","","","","html-button-response","138","466072","0.0-11.0","10","1","2022-10-20 06:06:30","d60b49b5908c80e163b920d72b52d584","121.195.188.206","Mozilla/5.0 (Windows NT 10.0; Win64; x64) AppleWebKit/537.36 (KHTML, like Gecko) Chrome/106.0.0.0 Safari/537.36 Edg/106.0.1370.47","WebKit","Edge","106.0.1370.47","Windows","10.0","3495","<p><strong>请判断下列陈述在多大程度上可以形容你？</p><p> (1 = ""和我一点都不像"" to 5 = ""非常像我"".)</strong></p>","0",""
"","","","","","survey-likert","139","494431","0.0-12.0","10","1","2022-10-20 06:06:30","d60b49b5908c80e163b920d72b52d584","121.195.188.206","Mozilla/5.0 (Windows NT 10.0; Win64; x64) AppleWebKit/537.36 (KHTML, like Gecko) Chrome/106.0.0.0 Safari/537.36 Edg/106.0.1370.47","WebKit","Edge","106.0.1370.47","Windows","10.0","28354","","{""Aggression1"":0,""Aggression2"":3,""Aggression3"":3,""Aggression4"":0,""Aggression5"":4,""Aggression6"":2,""Aggression7"":2,""Aggression8"":1,""Aggression9"":0}","[0,1,2,3,4,5,6,7,8]"
"","","","","","html-button-response","140","496802","0.0-13.0","10","1","2022-10-20 06:06:30","d60b49b5908c80e163b920d72b52d584","121.195.188.206","Mozilla/5.0 (Windows NT 10.0; Win64; x64) AppleWebKit/537.36 (KHTML, like Gecko) Chrome/106.0.0.0 Safari/537.36 Edg/106.0.1370.47","WebKit","Edge","106.0.1370.47","Windows","10.0","2367","<p><strong>请判断你在多大程度上同意下列陈述。</strong></p>","0",""
"","","","","","survey-likert","141","635666","0.0-14.0","10","1","2022-10-20 06:06:30","d60b49b5908c80e163b920d72b52d584","121.195.188.206","Mozilla/5.0 (Windows NT 10.0; Win64; x64) AppleWebKit/537.36 (KHTML, like Gecko) Chrome/106.0.0.0 Safari/537.36 Edg/106.0.1370.47","WebKit","Edge","106.0.1370.47","Windows","10.0","138858","","{""scale6"":1,""scale24"":1,""scale9"":1,""scale18"":2,""scale14"":3,""scale4"":2,""scale16"":1,""scale17"":1,""scale5"":1,""scale12"":1,""scale23"":2,""scale2"":1,""scale27"":0,""scale13"":3,""scale3"":3,""scale26"":1,""scale7"":3,""scale20"":1,""scale19"":3,""scale22"":1,""scale11"":4,""scale15"":4,""scale25"":3,""scale28"":3,""scale10"":1,""scale8"":4,""scale21"":4,""scale1"":0}","[5,23,8,17,13,3,15,16,4,11,22,1,26,12,2,25,6,19,18,21,10,14,24,27,9,7,20,0]"
"","","","","","html-button-response","142","647242","0.0-15.0","10","1","2022-10-20 06:06:30","d60b49b5908c80e163b920d72b52d584","121.195.188.206","Mozilla/5.0 (Windows NT 10.0; Win64; x64) AppleWebKit/537.36 (KHTML, like Gecko) Chrome/106.0.0.0 Safari/537.36 Edg/106.0.1370.47","WebKit","Edge","106.0.1370.47","Windows","10.0","11570","<p><strong>请判断你在多大程度上同意下列陈述。</strong></p>","0",""
"","","","","","survey-likert","143","702553","0.0-16.0","10","1","2022-10-20 06:06:30","d60b49b5908c80e163b920d72b52d584","121.195.188.206","Mozilla/5.0 (Windows NT 10.0; Win64; x64) AppleWebKit/537.36 (KHTML, like Gecko) Chrome/106.0.0.0 Safari/537.36 Edg/106.0.1370.47","WebKit","Edge","106.0.1370.47","Windows","10.0","55305","","{""sdo9"":6,""sdo8"":5,""sdo14"":6,""sdo12"":6,""sdo5"":5,""sdo16"":5,""sdo10"":6,""sdo13"":6,""sdo3"":5,""sdo7"":5,""sdo15"":5,""sdo11"":5,""sdo1"":3,""sdo2"":3,""sdo4"":4,""sdo6"":4}","[8,7,13,11,4,15,9,12,2,6,14,10,0,1,3,5]"
"","","","","","html-button-response","144","703958","0.0-17.0","10","1","2022-10-20 06:06:30","d60b49b5908c80e163b920d72b52d584","121.195.188.206","Mozilla/5.0 (Windows NT 10.0; Win64; x64) AppleWebKit/537.36 (KHTML, like Gecko) Chrome/106.0.0.0 Safari/537.36 Edg/106.0.1370.47","WebKit","Edge","106.0.1370.47","Windows","10.0","1399","<p><strong>请判断你在多大程度上同意下列陈述。</strong></p>","0",""
"","","","","","survey-likert","145","742416","0.0-18.0","10","1","2022-10-20 06:06:30","d60b49b5908c80e163b920d72b52d584","121.195.188.206","Mozilla/5.0 (Windows NT 10.0; Win64; x64) AppleWebKit/537.36 (KHTML, like Gecko) Chrome/106.0.0.0 Safari/537.36 Edg/106.0.1370.47","WebKit","Edge","106.0.1370.47","Windows","10.0","38455","","{""caring1"":1,""liking1"":3,""caring2"":3,""protection1"":3,""liking2"":2,""caring3"":2,""protection2"":2,""liking3"":3,""protection3"":3,""caring4"":3,""liking4"":2,""protection4"":3,""caring5"":2,""liking5"":4,""protection5"":3}","[0,1,2,3,4,5,6,7,8,9,10,11,12,13,14]"
"","","","","","html-button-response","146","743805","0.0-19.0","10","1","2022-10-20 06:06:30","d60b49b5908c80e163b920d72b52d584","121.195.188.206","Mozilla/5.0 (Windows NT 10.0; Win64; x64) AppleWebKit/537.36 (KHTML, like Gecko) Chrome/106.0.0.0 Safari/537.36 Edg/106.0.1370.47","WebKit","Edge","106.0.1370.47","Windows","10.0","1383","<p><strong>请判断下列场景中你的内心感受有多柔软。</strong></p>","0",""
"","","","","","survey-likert","147","784661","0.0-20.0","10","1","2022-10-20 06:06:30","d60b49b5908c80e163b920d72b52d584","121.195.188.206","Mozilla/5.0 (Windows NT 10.0; Win64; x64) AppleWebKit/537.36 (KHTML, like Gecko) Chrome/106.0.0.0 Safari/537.36 Edg/106.0.1370.47","WebKit","Edge","106.0.1370.47","Windows","10.0","40851","","{""tenderness-positive1"":3,""tenderness-negative1"":1,""tenderness-negative2"":1,""tenderness-positive2"":3,""tenderness-positive3"":3,""tenderness-negative3"":1,""tenderness-positive4"":3,""tendereness-negative4"":3,""tendernness-negative5"":1,""tenderness-positive5"":3}","[0,1,2,3,4,5,6,7,8,9]"
"","","","","","survey-multi-choice","148","801706","0.0-21.0","10","1","2022-10-20 06:06:30","d60b49b5908c80e163b920d72b52d584","121.195.188.206","Mozilla/5.0 (Windows NT 10.0; Win64; x64) AppleWebKit/537.36 (KHTML, like Gecko) Chrome/106.0.0.0 Safari/537.36 Edg/106.0.1370.47","WebKit","Edge","106.0.1370.47","Windows","10.0","17038","","{""Attention2"":""其他""}","[0]"
"","","","","","html-button-response","149","803130","0.0-22.0","10","1","2022-10-20 06:06:30","d60b49b5908c80e163b920d72b52d584","121.195.188.206","Mozilla/5.0 (Windows NT 10.0; Win64; x64) AppleWebKit/537.36 (KHTML, like Gecko) Chrome/106.0.0.0 Safari/537.36 Edg/106.0.1370.47","WebKit","Edge","106.0.1370.47","Windows","10.0","1417","<p><strong>请判断你在多大程度上同意下列陈述。</strong></p>","0",""
"","","","","","survey-likert","150","876187","0.0-23.0","10","1","2022-10-20 06:06:30","d60b49b5908c80e163b920d72b52d584","121.195.188.206","Mozilla/5.0 (Windows NT 10.0; Win64; x64) AppleWebKit/537.36 (KHTML, like Gecko) Chrome/106.0.0.0 Safari/537.36 Edg/106.0.1370.47","WebKit","Edge","106.0.1370.47","Windows","10.0","73051","","{""Nation5"":3,""Patri8"":4,""Nation1"":3,""Nation6"":3,""Patri1"":4,""Patri9"":0,""Patri3"":4,""Patri12"":1,""Patri7"":4,""Patri5"":4,""Patri4"":4,""Nation2"":4,""Patri10"":0,""Nation4"":1,""Patri6"":1,""Patri11"":1,""Nation7"":4,""Patri2"":4,""Nation3"":2,""Nation8"":3}","[16,7,12,17,0,8,2,11,6,4,3,13,9,15,5,10,18,1,14,19]"
"","","","","","html-button-response","151","877278","0.0-24.0","10","1","2022-10-20 06:06:30","d60b49b5908c80e163b920d72b52d584","121.195.188.206","Mozilla/5.0 (Windows NT 10.0; Win64; x64) AppleWebKit/537.36 (KHTML, like Gecko) Chrome/106.0.0.0 Safari/537.36 Edg/106.0.1370.47","WebKit","Edge","106.0.1370.47","Windows","10.0","1084","<p><strong>请判断你在多大程度上同意下列陈述。</strong></p>","0",""
"","","","","","survey-likert","152","926412","0.0-25.0","10","1","2022-10-20 06:06:30","d60b49b5908c80e163b920d72b52d584","121.195.188.206","Mozilla/5.0 (Windows NT 10.0; Win64; x64) AppleWebKit/537.36 (KHTML, like Gecko) Chrome/106.0.0.0 Safari/537.36 Edg/106.0.1370.47","WebKit","Edge","106.0.1370.47","Windows","10.0","49128","","{""vi1"":7,""hc2"":7,""vi3"":8,""vi4"":5,""hc1"":7,""hi2"":8,""vi2"":3,""hc4"":4,""hc3"":3,""hi4"":8,""hi3"":7,""hi1"":8,""vc3"":8,""vc1"":8,""vc4"":7,""vc2"":7,""Robot"":6}","[4,10,6,8,9,1,5,12,11,3,2,0,15,13,16,14,7]"
"","","","","","survey-text","153","933760","0.0-26.0","10","1","2022-10-20 06:06:30","d60b49b5908c80e163b920d72b52d584","121.195.188.206","Mozilla/5.0 (Windows NT 10.0; Win64; x64) AppleWebKit/537.36 (KHTML, like Gecko) Chrome/106.0.0.0 Safari/537.36 Edg/106.0.1370.47","WebKit","Edge","106.0.1370.47","Windows","10.0","7328","","{""Comments"":""没有""}",""
"","","","","","html-button-response","154","935484","0.0-27.0","10","1","2022-10-20 06:06:30","d60b49b5908c80e163b920d72b52d584","121.195.188.206","Mozilla/5.0 (Windows NT 10.0; Win64; x64) AppleWebKit/537.36 (KHTML, like Gecko) Chrome/106.0.0.0 Safari/537.36 Edg/106.0.1370.47","WebKit","Edge","106.0.1370.47","Windows","10.0","1720","<strong><p>恭喜你完成了实验！</p><p>感谢您的参与。</p></strong>","0",""
