"success","timeout","failed_images","failed_audio","failed_video","trial_type","trial_index","time_elapsed","internal_node_id","run_id","condition","recorded_at","source_code_version","ip","user_agent","device","browser","browser_version","platform","platform_version","rt","stimulus","response","question_order"
"true","false","[]","[]","[]","preload","0","2187","0.0-0.0","17","1","2022-10-20 06:20:39","d60b49b5908c80e163b920d72b52d584","39.144.181.10","Mozilla/5.0 (Windows NT 10.0; Win64; x64) AppleWebKit/537.36 (KHTML, like Gecko) Chrome/106.0.0.0 Safari/537.36 Edg/106.0.1370.47","WebKit","Edge","106.0.1370.47","Windows","10.0","","","",""
"true","","","","","fullscreen","1","13660","0.0-1.0","17","1","2022-10-20 06:20:39","d60b49b5908c80e163b920d72b52d584","39.144.181.10","Mozilla/5.0 (Windows NT 10.0; Win64; x64) AppleWebKit/537.36 (KHTML, like Gecko) Chrome/106.0.0.0 Safari/537.36 Edg/106.0.1370.47","WebKit","Edge","106.0.1370.47","Windows","10.0","","","",""
"","","","","","html-button-response","2","113410","0.0-2.0","17","1","2022-10-20 06:20:39","d60b49b5908c80e163b920d72b52d584","39.144.181.10","Mozilla/5.0 (Windows NT 10.0; Win64; x64) AppleWebKit/537.36 (KHTML, like Gecko) Chrome/106.0.0.0 Safari/537.36 Edg/106.0.1370.47","WebKit","Edge","106.0.1370.47","Windows","10.0","99748","<p style=""font-size:20px;font-weight:bold;"">实验知情同意书</p><p style=""text-align:left;""><strong>实验名称：</strong>社会冲突研究</p><p style=""text-align:left;""><strong>主要研究者：</strong>韩晓春副教授（北京师范大学心理学部）</p><p style=""text-align:left;""><strong>联系方式：</strong>发送邮件至xiaochun.han@bnu.edu.cn</p><p style=""text-align:left;""><strong>研究目的：</strong>研究旨在了解人类面对群体冲突时的决策方式，以及相关的心理学特质。实验调查大约需要20分钟。</p><p style=""text-align:left;""><strong>实验流程：</strong>实验包含两部分。第一部分呈现一系列群体冲突场景，请你决定如何对这些冲突进行反应，大约需要10分钟完成。第二部分包含一系列人口统计学信息收集和心理学问卷，大约需要10分钟完成。</p><p style=""text-align:left;""><strong>参加及退出规则：</strong>参加本实验完全取决于您的个人意愿。在参与过程中，您可以随时退出，并且不用承担任何后果。</p><p style=""text-align:left;""><strong>隐私：</strong>本实验完全匿名进行，不会收集您的姓名或其他能够识别您身份的信息。实验中收集的作答仅用作科学研究使用，可能会在学术期刊/书籍上发表，或者用于教学，您的数据未来可能会和其他研究者或实验室分享，但您的个人身份不会被识别。</p><p style=""text-align:left;""><strong>实验报酬：</strong>实验完成后，您将获得15元人民币报酬，以感谢您的时间和努力。调查问卷中包含几道题目用以测验您作答时的认真度。只有完成全部实验，并且正确回答认真度测验的被试才能获得实验报酬。实验报酬将通过支付宝转账发放。</p><p style=""text-align:left;font-size:20px;""><strong>如果您同意以上实验知情同意书的内容，请点击'同意并且开始实验'按钮；否则请关闭浏览器界面，退出实验。</strong></p>","0",""
"","","","","","html-button-response","3","123242","0.0-3.0","17","1","2022-10-20 06:20:39","d60b49b5908c80e163b920d72b52d584","39.144.181.10","Mozilla/5.0 (Windows NT 10.0; Win64; x64) AppleWebKit/537.36 (KHTML, like Gecko) Chrome/106.0.0.0 Safari/537.36 Edg/106.0.1370.47","WebKit","Edge","106.0.1370.47","Windows","10.0","9830","<p ><strong>实验任务一：</strong></p><p>请想象你的国家与另一个国家发生了军事冲突。</p><p>你是国家军队的指挥官，你将如何在冲突中进行决策。</p><p>具体来说，作为军队指挥官，请你决定是否发射导弹进行打击。</p><p>接下来，你会面对一系列场景，请仔细阅读每个场景，然后进行决策。</p><p>这部分实验任务大约需要10分钟。</p><p><strong>实验过程中，请集中注意力。</strong></p>","0",""
"","","","","","html-keyboard-response","4","124245","0.0-4.0-0.0","17","1","2022-10-20 06:20:39","d60b49b5908c80e163b920d72b52d584","39.144.181.10","Mozilla/5.0 (Windows NT 10.0; Win64; x64) AppleWebKit/537.36 (KHTML, like Gecko) Chrome/106.0.0.0 Safari/537.36 Edg/106.0.1370.47","WebKit","Edge","106.0.1370.47","Windows","10.0","null","<div style=""font-size:60px;"">+</div>","null",""
"","","","","","html-button-response","5","134618","0.0-4.0-1.0","17","1","2022-10-20 06:20:39","d60b49b5908c80e163b920d72b52d584","39.144.181.10","Mozilla/5.0 (Windows NT 10.0; Win64; x64) AppleWebKit/537.36 (KHTML, like Gecko) Chrome/106.0.0.0 Safari/537.36 Edg/106.0.1370.47","WebKit","Edge","106.0.1370.47","Windows","10.0","10370","<p>作为军队的指挥官，你可以选择发射导弹杀死 <strong>7名</strong> 敌国士兵，但会误杀附近的 <strong>1名</strong> 敌国平民。</p> <p>平民照片如下图所示。</p> <p></p> <img src='stimuli/faces/NCM2.jpg', style='max-width: 30%;'> </img> <p><strong>你是否选择发射武器？</strong></p>","0",""
"","","","","","html-keyboard-response","6","135636","0.0-4.0-0.1","17","1","2022-10-20 06:20:39","d60b49b5908c80e163b920d72b52d584","39.144.181.10","Mozilla/5.0 (Windows NT 10.0; Win64; x64) AppleWebKit/537.36 (KHTML, like Gecko) Chrome/106.0.0.0 Safari/537.36 Edg/106.0.1370.47","WebKit","Edge","106.0.1370.47","Windows","10.0","null","<div style=""font-size:60px;"">+</div>","null",""
"","","","","","html-button-response","7","138442","0.0-4.0-1.1","17","1","2022-10-20 06:20:39","d60b49b5908c80e163b920d72b52d584","39.144.181.10","Mozilla/5.0 (Windows NT 10.0; Win64; x64) AppleWebKit/537.36 (KHTML, like Gecko) Chrome/106.0.0.0 Safari/537.36 Edg/106.0.1370.47","WebKit","Edge","106.0.1370.47","Windows","10.0","2804","<p>作为军队的指挥官，你可以选择发射导弹杀死 <strong>5名</strong> 敌国士兵，但会炸毁附近的 <strong>1棵</strong> 敌国树木。</p> <p>树木的照片如下图所示。</p> <p></p> <img src='stimuli/trees/7.png', style='max-width: 30%;'> </img> <p><strong>你是否选择发射武器？</strong></p>","0",""
"","","","","","html-keyboard-response","8","139453","0.0-4.0-0.2","17","1","2022-10-20 06:20:39","d60b49b5908c80e163b920d72b52d584","39.144.181.10","Mozilla/5.0 (Windows NT 10.0; Win64; x64) AppleWebKit/537.36 (KHTML, like Gecko) Chrome/106.0.0.0 Safari/537.36 Edg/106.0.1370.47","WebKit","Edge","106.0.1370.47","Windows","10.0","null","<div style=""font-size:60px;"">+</div>","null",""
"","","","","","html-button-response","9","142178","0.0-4.0-1.2","17","1","2022-10-20 06:20:39","d60b49b5908c80e163b920d72b52d584","39.144.181.10","Mozilla/5.0 (Windows NT 10.0; Win64; x64) AppleWebKit/537.36 (KHTML, like Gecko) Chrome/106.0.0.0 Safari/537.36 Edg/106.0.1370.47","WebKit","Edge","106.0.1370.47","Windows","10.0","2723","<p>作为军队的指挥官，你可以选择发射导弹杀死 <strong>7名</strong> 敌国士兵，但会误杀附近的 <strong>1名</strong> 敌国平民。</p> <p>平民照片如下图所示。</p> <p></p> <img src='stimuli/faces/NCM6.jpg', style='max-width: 30%;'> </img> <p><strong>你是否选择发射武器？</strong></p>","0",""
"","","","","","html-keyboard-response","10","143186","0.0-4.0-0.3","17","1","2022-10-20 06:20:39","d60b49b5908c80e163b920d72b52d584","39.144.181.10","Mozilla/5.0 (Windows NT 10.0; Win64; x64) AppleWebKit/537.36 (KHTML, like Gecko) Chrome/106.0.0.0 Safari/537.36 Edg/106.0.1370.47","WebKit","Edge","106.0.1370.47","Windows","10.0","null","<div style=""font-size:60px;"">+</div>","null",""
"","","","","","html-button-response","11","146729","0.0-4.0-1.3","17","1","2022-10-20 06:20:39","d60b49b5908c80e163b920d72b52d584","39.144.181.10","Mozilla/5.0 (Windows NT 10.0; Win64; x64) AppleWebKit/537.36 (KHTML, like Gecko) Chrome/106.0.0.0 Safari/537.36 Edg/106.0.1370.47","WebKit","Edge","106.0.1370.47","Windows","10.0","3541","<p>作为军队的指挥官，你可以选择发射导弹杀死 <strong>6名</strong> 敌国士兵，但会误杀附近的 <strong>1名</strong> 敌国平民。</p> <p>平民照片如下图所示。</p> <p></p> <img src='stimuli/faces/NCF7.jpg', style='max-width: 30%;'> </img> <p><strong>你是否选择发射武器？</strong></p>","1",""
"","","","","","html-keyboard-response","12","147744","0.0-4.0-0.4","17","1","2022-10-20 06:20:39","d60b49b5908c80e163b920d72b52d584","39.144.181.10","Mozilla/5.0 (Windows NT 10.0; Win64; x64) AppleWebKit/537.36 (KHTML, like Gecko) Chrome/106.0.0.0 Safari/537.36 Edg/106.0.1370.47","WebKit","Edge","106.0.1370.47","Windows","10.0","null","<div style=""font-size:60px;"">+</div>","null",""
"","","","","","html-button-response","13","149234","0.0-4.0-1.4","17","1","2022-10-20 06:20:39","d60b49b5908c80e163b920d72b52d584","39.144.181.10","Mozilla/5.0 (Windows NT 10.0; Win64; x64) AppleWebKit/537.36 (KHTML, like Gecko) Chrome/106.0.0.0 Safari/537.36 Edg/106.0.1370.47","WebKit","Edge","106.0.1370.47","Windows","10.0","1488","<p>作为军队的指挥官，你可以选择发射导弹杀死 <strong>4名</strong> 敌国士兵，但会误杀附近的 <strong>1名</strong> 敌国平民。</p> <p>平民照片如下图所示。</p> <p></p> <img src='stimuli/faces/NCF6.jpg', style='max-width: 30%;'> </img> <p><strong>你是否选择发射武器？</strong></p>","1",""
"","","","","","html-keyboard-response","14","150238","0.0-4.0-0.5","17","1","2022-10-20 06:20:39","d60b49b5908c80e163b920d72b52d584","39.144.181.10","Mozilla/5.0 (Windows NT 10.0; Win64; x64) AppleWebKit/537.36 (KHTML, like Gecko) Chrome/106.0.0.0 Safari/537.36 Edg/106.0.1370.47","WebKit","Edge","106.0.1370.47","Windows","10.0","null","<div style=""font-size:60px;"">+</div>","null",""
"","","","","","html-button-response","15","151850","0.0-4.0-1.5","17","1","2022-10-20 06:20:39","d60b49b5908c80e163b920d72b52d584","39.144.181.10","Mozilla/5.0 (Windows NT 10.0; Win64; x64) AppleWebKit/537.36 (KHTML, like Gecko) Chrome/106.0.0.0 Safari/537.36 Edg/106.0.1370.47","WebKit","Edge","106.0.1370.47","Windows","10.0","1610","<p>作为军队的指挥官，你可以选择发射导弹杀死 <strong>9名</strong> 敌国士兵，但会炸毁附近的 <strong>1棵</strong> 敌国树木。</p> <p>树木的照片如下图所示。</p> <p></p> <img src='stimuli/trees/13.png', style='max-width: 30%;'> </img> <p><strong>你是否选择发射武器？</strong></p>","0",""
"","","","","","html-keyboard-response","16","152862","0.0-4.0-0.6","17","1","2022-10-20 06:20:39","d60b49b5908c80e163b920d72b52d584","39.144.181.10","Mozilla/5.0 (Windows NT 10.0; Win64; x64) AppleWebKit/537.36 (KHTML, like Gecko) Chrome/106.0.0.0 Safari/537.36 Edg/106.0.1370.47","WebKit","Edge","106.0.1370.47","Windows","10.0","null","<div style=""font-size:60px;"">+</div>","null",""
"","","","","","html-button-response","17","159114","0.0-4.0-1.6","17","1","2022-10-20 06:20:39","d60b49b5908c80e163b920d72b52d584","39.144.181.10","Mozilla/5.0 (Windows NT 10.0; Win64; x64) AppleWebKit/537.36 (KHTML, like Gecko) Chrome/106.0.0.0 Safari/537.36 Edg/106.0.1370.47","WebKit","Edge","106.0.1370.47","Windows","10.0","6250","<p>作为军队的指挥官，你可以选择发射导弹杀死 <strong>3名</strong> 敌国士兵，但会误杀附近的 <strong>1名</strong> 敌国平民。</p> <p>平民照片如下图所示。</p> <p></p> <img src='stimuli/faces/NCF2.jpg', style='max-width: 30%;'> </img> <p><strong>你是否选择发射武器？</strong></p>","1",""
"","","","","","html-keyboard-response","18","160128","0.0-4.0-0.7","17","1","2022-10-20 06:20:39","d60b49b5908c80e163b920d72b52d584","39.144.181.10","Mozilla/5.0 (Windows NT 10.0; Win64; x64) AppleWebKit/537.36 (KHTML, like Gecko) Chrome/106.0.0.0 Safari/537.36 Edg/106.0.1370.47","WebKit","Edge","106.0.1370.47","Windows","10.0","null","<div style=""font-size:60px;"">+</div>","null",""
"","","","","","html-button-response","19","161194","0.0-4.0-1.7","17","1","2022-10-20 06:20:39","d60b49b5908c80e163b920d72b52d584","39.144.181.10","Mozilla/5.0 (Windows NT 10.0; Win64; x64) AppleWebKit/537.36 (KHTML, like Gecko) Chrome/106.0.0.0 Safari/537.36 Edg/106.0.1370.47","WebKit","Edge","106.0.1370.47","Windows","10.0","1064","<p>作为军队的指挥官，你可以选择发射导弹杀死 <strong>5名</strong> 敌国士兵，但会炸毁附近的 <strong>1棵</strong> 敌国树木。</p> <p>树木的照片如下图所示。</p> <p></p> <img src='stimuli/trees/13.png', style='max-width: 30%;'> </img> <p><strong>你是否选择发射武器？</strong></p>","0",""
"","","","","","html-keyboard-response","20","162203","0.0-4.0-0.8","17","1","2022-10-20 06:20:39","d60b49b5908c80e163b920d72b52d584","39.144.181.10","Mozilla/5.0 (Windows NT 10.0; Win64; x64) AppleWebKit/537.36 (KHTML, like Gecko) Chrome/106.0.0.0 Safari/537.36 Edg/106.0.1370.47","WebKit","Edge","106.0.1370.47","Windows","10.0","null","<div style=""font-size:60px;"">+</div>","null",""
"","","","","","html-button-response","21","163842","0.0-4.0-1.8","17","1","2022-10-20 06:20:39","d60b49b5908c80e163b920d72b52d584","39.144.181.10","Mozilla/5.0 (Windows NT 10.0; Win64; x64) AppleWebKit/537.36 (KHTML, like Gecko) Chrome/106.0.0.0 Safari/537.36 Edg/106.0.1370.47","WebKit","Edge","106.0.1370.47","Windows","10.0","1637","<p>作为军队的指挥官，你可以选择发射导弹杀死 <strong>9名</strong> 敌国士兵，但会炸毁附近的 <strong>1棵</strong> 敌国树木。</p> <p>树木的照片如下图所示。</p> <p></p> <img src='stimuli/trees/1.png', style='max-width: 30%;'> </img> <p><strong>你是否选择发射武器？</strong></p>","0",""
"","","","","","html-keyboard-response","22","164845","0.0-4.0-0.9","17","1","2022-10-20 06:20:39","d60b49b5908c80e163b920d72b52d584","39.144.181.10","Mozilla/5.0 (Windows NT 10.0; Win64; x64) AppleWebKit/537.36 (KHTML, like Gecko) Chrome/106.0.0.0 Safari/537.36 Edg/106.0.1370.47","WebKit","Edge","106.0.1370.47","Windows","10.0","null","<div style=""font-size:60px;"">+</div>","null",""
"","","","","","html-button-response","23","168137","0.0-4.0-1.9","17","1","2022-10-20 06:20:39","d60b49b5908c80e163b920d72b52d584","39.144.181.10","Mozilla/5.0 (Windows NT 10.0; Win64; x64) AppleWebKit/537.36 (KHTML, like Gecko) Chrome/106.0.0.0 Safari/537.36 Edg/106.0.1370.47","WebKit","Edge","106.0.1370.47","Windows","10.0","3290","<p>作为军队的指挥官，你可以选择发射导弹杀死 <strong>5名</strong> 敌国士兵，但会炸毁附近的 <strong>1棵</strong> 敌国树木。</p> <p>树木的照片如下图所示。</p> <p></p> <img src='stimuli/trees/3.png', style='max-width: 30%;'> </img> <p><strong>你是否选择发射武器？</strong></p>","0",""
"","","","","","html-keyboard-response","24","169150","0.0-4.0-0.10","17","1","2022-10-20 06:20:39","d60b49b5908c80e163b920d72b52d584","39.144.181.10","Mozilla/5.0 (Windows NT 10.0; Win64; x64) AppleWebKit/537.36 (KHTML, like Gecko) Chrome/106.0.0.0 Safari/537.36 Edg/106.0.1370.47","WebKit","Edge","106.0.1370.47","Windows","10.0","null","<div style=""font-size:60px;"">+</div>","null",""
"","","","","","html-button-response","25","171578","0.0-4.0-1.10","17","1","2022-10-20 06:20:39","d60b49b5908c80e163b920d72b52d584","39.144.181.10","Mozilla/5.0 (Windows NT 10.0; Win64; x64) AppleWebKit/537.36 (KHTML, like Gecko) Chrome/106.0.0.0 Safari/537.36 Edg/106.0.1370.47","WebKit","Edge","106.0.1370.47","Windows","10.0","2427","<p>作为军队的指挥官，你可以选择发射导弹杀死 <strong>10名</strong> 敌国士兵，但会误杀附近的 <strong>1名</strong> 敌国平民。</p> <p>平民照片如下图所示。</p> <p></p> <img src='stimuli/faces/NCM5.jpg', style='max-width: 30%;'> </img> <p><strong>你是否选择发射武器？</strong></p>","0",""
"","","","","","html-keyboard-response","26","172587","0.0-4.0-0.11","17","1","2022-10-20 06:20:39","d60b49b5908c80e163b920d72b52d584","39.144.181.10","Mozilla/5.0 (Windows NT 10.0; Win64; x64) AppleWebKit/537.36 (KHTML, like Gecko) Chrome/106.0.0.0 Safari/537.36 Edg/106.0.1370.47","WebKit","Edge","106.0.1370.47","Windows","10.0","null","<div style=""font-size:60px;"">+</div>","null",""
"","","","","","html-button-response","27","173945","0.0-4.0-1.11","17","1","2022-10-20 06:20:39","d60b49b5908c80e163b920d72b52d584","39.144.181.10","Mozilla/5.0 (Windows NT 10.0; Win64; x64) AppleWebKit/537.36 (KHTML, like Gecko) Chrome/106.0.0.0 Safari/537.36 Edg/106.0.1370.47","WebKit","Edge","106.0.1370.47","Windows","10.0","1357","<p>作为军队的指挥官，你可以选择发射导弹杀死 <strong>9名</strong> 敌国士兵，但会误杀附近的 <strong>1名</strong> 敌国平民。</p> <p>平民照片如下图所示。</p> <p></p> <img src='stimuli/faces/NCF2.jpg', style='max-width: 30%;'> </img> <p><strong>你是否选择发射武器？</strong></p>","0",""
"","","","","","html-keyboard-response","28","174958","0.0-4.0-0.12","17","1","2022-10-20 06:20:39","d60b49b5908c80e163b920d72b52d584","39.144.181.10","Mozilla/5.0 (Windows NT 10.0; Win64; x64) AppleWebKit/537.36 (KHTML, like Gecko) Chrome/106.0.0.0 Safari/537.36 Edg/106.0.1370.47","WebKit","Edge","106.0.1370.47","Windows","10.0","null","<div style=""font-size:60px;"">+</div>","null",""
"","","","","","html-button-response","29","176385","0.0-4.0-1.12","17","1","2022-10-20 06:20:39","d60b49b5908c80e163b920d72b52d584","39.144.181.10","Mozilla/5.0 (Windows NT 10.0; Win64; x64) AppleWebKit/537.36 (KHTML, like Gecko) Chrome/106.0.0.0 Safari/537.36 Edg/106.0.1370.47","WebKit","Edge","106.0.1370.47","Windows","10.0","1425","<p>作为军队的指挥官，你可以选择发射导弹杀死 <strong>8名</strong> 敌国士兵，但会炸毁附近的 <strong>1棵</strong> 敌国树木。</p> <p>树木的照片如下图所示。</p> <p></p> <img src='stimuli/trees/14.png', style='max-width: 30%;'> </img> <p><strong>你是否选择发射武器？</strong></p>","0",""
"","","","","","html-keyboard-response","30","177387","0.0-4.0-0.13","17","1","2022-10-20 06:20:39","d60b49b5908c80e163b920d72b52d584","39.144.181.10","Mozilla/5.0 (Windows NT 10.0; Win64; x64) AppleWebKit/537.36 (KHTML, like Gecko) Chrome/106.0.0.0 Safari/537.36 Edg/106.0.1370.47","WebKit","Edge","106.0.1370.47","Windows","10.0","null","<div style=""font-size:60px;"">+</div>","null",""
"","","","","","html-button-response","31","179665","0.0-4.0-1.13","17","1","2022-10-20 06:20:39","d60b49b5908c80e163b920d72b52d584","39.144.181.10","Mozilla/5.0 (Windows NT 10.0; Win64; x64) AppleWebKit/537.36 (KHTML, like Gecko) Chrome/106.0.0.0 Safari/537.36 Edg/106.0.1370.47","WebKit","Edge","106.0.1370.47","Windows","10.0","2276","<p>作为军队的指挥官，你可以选择发射导弹杀死 <strong>7名</strong> 敌国士兵，但会误杀附近的 <strong>1名</strong> 敌国平民。</p> <p>平民照片如下图所示。</p> <p></p> <img src='stimuli/faces/NCF5.jpg', style='max-width: 30%;'> </img> <p><strong>你是否选择发射武器？</strong></p>","0",""
"","","","","","html-keyboard-response","32","180675","0.0-4.0-0.14","17","1","2022-10-20 06:20:39","d60b49b5908c80e163b920d72b52d584","39.144.181.10","Mozilla/5.0 (Windows NT 10.0; Win64; x64) AppleWebKit/537.36 (KHTML, like Gecko) Chrome/106.0.0.0 Safari/537.36 Edg/106.0.1370.47","WebKit","Edge","106.0.1370.47","Windows","10.0","null","<div style=""font-size:60px;"">+</div>","null",""
"","","","","","html-button-response","33","197578","0.0-4.0-1.14","17","1","2022-10-20 06:20:39","d60b49b5908c80e163b920d72b52d584","39.144.181.10","Mozilla/5.0 (Windows NT 10.0; Win64; x64) AppleWebKit/537.36 (KHTML, like Gecko) Chrome/106.0.0.0 Safari/537.36 Edg/106.0.1370.47","WebKit","Edge","106.0.1370.47","Windows","10.0","16901","<p>作为军队的指挥官，你可以选择发射导弹杀死 <strong>8名</strong> 敌国士兵，但会炸毁附近的 <strong>1棵</strong> 敌国树木。</p> <p>树木的照片如下图所示。</p> <p></p> <img src='stimuli/trees/15.png', style='max-width: 30%;'> </img> <p><strong>你是否选择发射武器？</strong></p>","0",""
"","","","","","html-keyboard-response","34","198584","0.0-4.0-0.15","17","1","2022-10-20 06:20:39","d60b49b5908c80e163b920d72b52d584","39.144.181.10","Mozilla/5.0 (Windows NT 10.0; Win64; x64) AppleWebKit/537.36 (KHTML, like Gecko) Chrome/106.0.0.0 Safari/537.36 Edg/106.0.1370.47","WebKit","Edge","106.0.1370.47","Windows","10.0","null","<div style=""font-size:60px;"">+</div>","null",""
"","","","","","html-button-response","35","211922","0.0-4.0-1.15","17","1","2022-10-20 06:20:39","d60b49b5908c80e163b920d72b52d584","39.144.181.10","Mozilla/5.0 (Windows NT 10.0; Win64; x64) AppleWebKit/537.36 (KHTML, like Gecko) Chrome/106.0.0.0 Safari/537.36 Edg/106.0.1370.47","WebKit","Edge","106.0.1370.47","Windows","10.0","13336","<p>作为军队的指挥官，你可以选择发射导弹杀死 <strong>5名</strong> 敌国士兵，但会炸毁附近的 <strong>1棵</strong> 敌国树木。</p> <p>树木的照片如下图所示。</p> <p></p> <img src='stimuli/trees/8.png', style='max-width: 30%;'> </img> <p><strong>你是否选择发射武器？</strong></p>","0",""
"","","","","","html-keyboard-response","36","212936","0.0-4.0-0.16","17","1","2022-10-20 06:20:39","d60b49b5908c80e163b920d72b52d584","39.144.181.10","Mozilla/5.0 (Windows NT 10.0; Win64; x64) AppleWebKit/537.36 (KHTML, like Gecko) Chrome/106.0.0.0 Safari/537.36 Edg/106.0.1370.47","WebKit","Edge","106.0.1370.47","Windows","10.0","null","<div style=""font-size:60px;"">+</div>","null",""
"","","","","","html-button-response","37","224562","0.0-4.0-1.16","17","1","2022-10-20 06:20:39","d60b49b5908c80e163b920d72b52d584","39.144.181.10","Mozilla/5.0 (Windows NT 10.0; Win64; x64) AppleWebKit/537.36 (KHTML, like Gecko) Chrome/106.0.0.0 Safari/537.36 Edg/106.0.1370.47","WebKit","Edge","106.0.1370.47","Windows","10.0","11623","<p>作为军队的指挥官，你可以选择发射导弹杀死 <strong>2名</strong> 敌国士兵，但会炸毁附近的 <strong>1棵</strong> 敌国树木。</p> <p>树木的照片如下图所示。</p> <p></p> <img src='stimuli/trees/4.png', style='max-width: 30%;'> </img> <p><strong>你是否选择发射武器？</strong></p>","1",""
"","","","","","html-keyboard-response","38","225569","0.0-4.0-0.17","17","1","2022-10-20 06:20:39","d60b49b5908c80e163b920d72b52d584","39.144.181.10","Mozilla/5.0 (Windows NT 10.0; Win64; x64) AppleWebKit/537.36 (KHTML, like Gecko) Chrome/106.0.0.0 Safari/537.36 Edg/106.0.1370.47","WebKit","Edge","106.0.1370.47","Windows","10.0","null","<div style=""font-size:60px;"">+</div>","null",""
"","","","","","html-button-response","39","227178","0.0-4.0-1.17","17","1","2022-10-20 06:20:39","d60b49b5908c80e163b920d72b52d584","39.144.181.10","Mozilla/5.0 (Windows NT 10.0; Win64; x64) AppleWebKit/537.36 (KHTML, like Gecko) Chrome/106.0.0.0 Safari/537.36 Edg/106.0.1370.47","WebKit","Edge","106.0.1370.47","Windows","10.0","1606","<p>作为军队的指挥官，你可以选择发射导弹杀死 <strong>3名</strong> 敌国士兵，但会炸毁附近的 <strong>1棵</strong> 敌国树木。</p> <p>树木的照片如下图所示。</p> <p></p> <img src='stimuli/trees/11.png', style='max-width: 30%;'> </img> <p><strong>你是否选择发射武器？</strong></p>","1",""
"","","","","","html-keyboard-response","40","228194","0.0-4.0-0.18","17","1","2022-10-20 06:20:39","d60b49b5908c80e163b920d72b52d584","39.144.181.10","Mozilla/5.0 (Windows NT 10.0; Win64; x64) AppleWebKit/537.36 (KHTML, like Gecko) Chrome/106.0.0.0 Safari/537.36 Edg/106.0.1370.47","WebKit","Edge","106.0.1370.47","Windows","10.0","null","<div style=""font-size:60px;"">+</div>","null",""
"","","","","","html-button-response","41","229066","0.0-4.0-1.18","17","1","2022-10-20 06:20:39","d60b49b5908c80e163b920d72b52d584","39.144.181.10","Mozilla/5.0 (Windows NT 10.0; Win64; x64) AppleWebKit/537.36 (KHTML, like Gecko) Chrome/106.0.0.0 Safari/537.36 Edg/106.0.1370.47","WebKit","Edge","106.0.1370.47","Windows","10.0","870","<p>作为军队的指挥官，你可以选择发射导弹杀死 <strong>3名</strong> 敌国士兵，但会误杀附近的 <strong>1名</strong> 敌国平民。</p> <p>平民照片如下图所示。</p> <p></p> <img src='stimuli/faces/NCM6.jpg', style='max-width: 30%;'> </img> <p><strong>你是否选择发射武器？</strong></p>","1",""
"","","","","","html-keyboard-response","42","230077","0.0-4.0-0.19","17","1","2022-10-20 06:20:39","d60b49b5908c80e163b920d72b52d584","39.144.181.10","Mozilla/5.0 (Windows NT 10.0; Win64; x64) AppleWebKit/537.36 (KHTML, like Gecko) Chrome/106.0.0.0 Safari/537.36 Edg/106.0.1370.47","WebKit","Edge","106.0.1370.47","Windows","10.0","null","<div style=""font-size:60px;"">+</div>","null",""
"","","","","","html-button-response","43","231578","0.0-4.0-1.19","17","1","2022-10-20 06:20:39","d60b49b5908c80e163b920d72b52d584","39.144.181.10","Mozilla/5.0 (Windows NT 10.0; Win64; x64) AppleWebKit/537.36 (KHTML, like Gecko) Chrome/106.0.0.0 Safari/537.36 Edg/106.0.1370.47","WebKit","Edge","106.0.1370.47","Windows","10.0","1499","<p>作为军队的指挥官，你可以选择发射导弹杀死 <strong>10名</strong> 敌国士兵，但会炸毁附近的 <strong>1棵</strong> 敌国树木。</p> <p>树木的照片如下图所示。</p> <p></p> <img src='stimuli/trees/8.png', style='max-width: 30%;'> </img> <p><strong>你是否选择发射武器？</strong></p>","0",""
"","","","","","html-keyboard-response","44","232586","0.0-4.0-0.20","17","1","2022-10-20 06:20:39","d60b49b5908c80e163b920d72b52d584","39.144.181.10","Mozilla/5.0 (Windows NT 10.0; Win64; x64) AppleWebKit/537.36 (KHTML, like Gecko) Chrome/106.0.0.0 Safari/537.36 Edg/106.0.1370.47","WebKit","Edge","106.0.1370.47","Windows","10.0","null","<div style=""font-size:60px;"">+</div>","null",""
"","","","","","html-button-response","45","235122","0.0-4.0-1.20","17","1","2022-10-20 06:20:39","d60b49b5908c80e163b920d72b52d584","39.144.181.10","Mozilla/5.0 (Windows NT 10.0; Win64; x64) AppleWebKit/537.36 (KHTML, like Gecko) Chrome/106.0.0.0 Safari/537.36 Edg/106.0.1370.47","WebKit","Edge","106.0.1370.47","Windows","10.0","2534","<p>作为军队的指挥官，你可以选择发射导弹杀死 <strong>1名</strong> 敌国士兵，但会误杀附近的 <strong>1名</strong> 敌国平民。</p> <p>平民照片如下图所示。</p> <p></p> <img src='stimuli/faces/NCM8.jpg', style='max-width: 30%;'> </img> <p><strong>你是否选择发射武器？</strong></p>","1",""
"","","","","","html-keyboard-response","46","236127","0.0-4.0-0.21","17","1","2022-10-20 06:20:39","d60b49b5908c80e163b920d72b52d584","39.144.181.10","Mozilla/5.0 (Windows NT 10.0; Win64; x64) AppleWebKit/537.36 (KHTML, like Gecko) Chrome/106.0.0.0 Safari/537.36 Edg/106.0.1370.47","WebKit","Edge","106.0.1370.47","Windows","10.0","null","<div style=""font-size:60px;"">+</div>","null",""
"","","","","","html-button-response","47","237818","0.0-4.0-1.21","17","1","2022-10-20 06:20:39","d60b49b5908c80e163b920d72b52d584","39.144.181.10","Mozilla/5.0 (Windows NT 10.0; Win64; x64) AppleWebKit/537.36 (KHTML, like Gecko) Chrome/106.0.0.0 Safari/537.36 Edg/106.0.1370.47","WebKit","Edge","106.0.1370.47","Windows","10.0","1689","<p>作为军队的指挥官，你可以选择发射导弹杀死 <strong>4名</strong> 敌国士兵，但会炸毁附近的 <strong>1棵</strong> 敌国树木。</p> <p>树木的照片如下图所示。</p> <p></p> <img src='stimuli/trees/2.png', style='max-width: 30%;'> </img> <p><strong>你是否选择发射武器？</strong></p>","1",""
"","","","","","html-keyboard-response","48","238836","0.0-4.0-0.22","17","1","2022-10-20 06:20:39","d60b49b5908c80e163b920d72b52d584","39.144.181.10","Mozilla/5.0 (Windows NT 10.0; Win64; x64) AppleWebKit/537.36 (KHTML, like Gecko) Chrome/106.0.0.0 Safari/537.36 Edg/106.0.1370.47","WebKit","Edge","106.0.1370.47","Windows","10.0","null","<div style=""font-size:60px;"">+</div>","null",""
"","","","","","html-button-response","49","239810","0.0-4.0-1.22","17","1","2022-10-20 06:20:39","d60b49b5908c80e163b920d72b52d584","39.144.181.10","Mozilla/5.0 (Windows NT 10.0; Win64; x64) AppleWebKit/537.36 (KHTML, like Gecko) Chrome/106.0.0.0 Safari/537.36 Edg/106.0.1370.47","WebKit","Edge","106.0.1370.47","Windows","10.0","972","<p>作为军队的指挥官，你可以选择发射导弹杀死 <strong>1名</strong> 敌国士兵，但会误杀附近的 <strong>1名</strong> 敌国平民。</p> <p>平民照片如下图所示。</p> <p></p> <img src='stimuli/faces/NCF7.jpg', style='max-width: 30%;'> </img> <p><strong>你是否选择发射武器？</strong></p>","1",""
"","","","","","html-keyboard-response","50","240827","0.0-4.0-0.23","17","1","2022-10-20 06:20:39","d60b49b5908c80e163b920d72b52d584","39.144.181.10","Mozilla/5.0 (Windows NT 10.0; Win64; x64) AppleWebKit/537.36 (KHTML, like Gecko) Chrome/106.0.0.0 Safari/537.36 Edg/106.0.1370.47","WebKit","Edge","106.0.1370.47","Windows","10.0","null","<div style=""font-size:60px;"">+</div>","null",""
"","","","","","html-button-response","51","243186","0.0-4.0-1.23","17","1","2022-10-20 06:20:39","d60b49b5908c80e163b920d72b52d584","39.144.181.10","Mozilla/5.0 (Windows NT 10.0; Win64; x64) AppleWebKit/537.36 (KHTML, like Gecko) Chrome/106.0.0.0 Safari/537.36 Edg/106.0.1370.47","WebKit","Edge","106.0.1370.47","Windows","10.0","2357","<p>作为军队的指挥官，你可以选择发射导弹杀死 <strong>4名</strong> 敌国士兵，但会误杀附近的 <strong>1名</strong> 敌国平民。</p> <p>平民照片如下图所示。</p> <p></p> <img src='stimuli/faces/NCM3.jpg', style='max-width: 30%;'> </img> <p><strong>你是否选择发射武器？</strong></p>","1",""
"","","","","","html-keyboard-response","52","244195","0.0-4.0-0.24","17","1","2022-10-20 06:20:39","d60b49b5908c80e163b920d72b52d584","39.144.181.10","Mozilla/5.0 (Windows NT 10.0; Win64; x64) AppleWebKit/537.36 (KHTML, like Gecko) Chrome/106.0.0.0 Safari/537.36 Edg/106.0.1370.47","WebKit","Edge","106.0.1370.47","Windows","10.0","null","<div style=""font-size:60px;"">+</div>","null",""
"","","","","","html-button-response","53","245186","0.0-4.0-1.24","17","1","2022-10-20 06:20:39","d60b49b5908c80e163b920d72b52d584","39.144.181.10","Mozilla/5.0 (Windows NT 10.0; Win64; x64) AppleWebKit/537.36 (KHTML, like Gecko) Chrome/106.0.0.0 Safari/537.36 Edg/106.0.1370.47","WebKit","Edge","106.0.1370.47","Windows","10.0","989","<p>作为军队的指挥官，你可以选择发射导弹杀死 <strong>2名</strong> 敌国士兵，但会炸毁附近的 <strong>1棵</strong> 敌国树木。</p> <p>树木的照片如下图所示。</p> <p></p> <img src='stimuli/trees/16.png', style='max-width: 30%;'> </img> <p><strong>你是否选择发射武器？</strong></p>","1",""
"","","","","","html-keyboard-response","54","246202","0.0-4.0-0.25","17","1","2022-10-20 06:20:39","d60b49b5908c80e163b920d72b52d584","39.144.181.10","Mozilla/5.0 (Windows NT 10.0; Win64; x64) AppleWebKit/537.36 (KHTML, like Gecko) Chrome/106.0.0.0 Safari/537.36 Edg/106.0.1370.47","WebKit","Edge","106.0.1370.47","Windows","10.0","null","<div style=""font-size:60px;"">+</div>","null",""
"","","","","","html-button-response","55","247386","0.0-4.0-1.25","17","1","2022-10-20 06:20:39","d60b49b5908c80e163b920d72b52d584","39.144.181.10","Mozilla/5.0 (Windows NT 10.0; Win64; x64) AppleWebKit/537.36 (KHTML, like Gecko) Chrome/106.0.0.0 Safari/537.36 Edg/106.0.1370.47","WebKit","Edge","106.0.1370.47","Windows","10.0","1182","<p>作为军队的指挥官，你可以选择发射导弹杀死 <strong>9名</strong> 敌国士兵，但会炸毁附近的 <strong>1棵</strong> 敌国树木。</p> <p>树木的照片如下图所示。</p> <p></p> <img src='stimuli/trees/3.png', style='max-width: 30%;'> </img> <p><strong>你是否选择发射武器？</strong></p>","0",""
"","","","","","html-keyboard-response","56","248393","0.0-4.0-0.26","17","1","2022-10-20 06:20:39","d60b49b5908c80e163b920d72b52d584","39.144.181.10","Mozilla/5.0 (Windows NT 10.0; Win64; x64) AppleWebKit/537.36 (KHTML, like Gecko) Chrome/106.0.0.0 Safari/537.36 Edg/106.0.1370.47","WebKit","Edge","106.0.1370.47","Windows","10.0","null","<div style=""font-size:60px;"">+</div>","null",""
"","","","","","html-button-response","57","249906","0.0-4.0-1.26","17","1","2022-10-20 06:20:39","d60b49b5908c80e163b920d72b52d584","39.144.181.10","Mozilla/5.0 (Windows NT 10.0; Win64; x64) AppleWebKit/537.36 (KHTML, like Gecko) Chrome/106.0.0.0 Safari/537.36 Edg/106.0.1370.47","WebKit","Edge","106.0.1370.47","Windows","10.0","1510","<p>作为军队的指挥官，你可以选择发射导弹杀死 <strong>2名</strong> 敌国士兵，但会炸毁附近的 <strong>1棵</strong> 敌国树木。</p> <p>树木的照片如下图所示。</p> <p></p> <img src='stimuli/trees/9.png', style='max-width: 30%;'> </img> <p><strong>你是否选择发射武器？</strong></p>","1",""
"","","","","","html-keyboard-response","58","250920","0.0-4.0-0.27","17","1","2022-10-20 06:20:39","d60b49b5908c80e163b920d72b52d584","39.144.181.10","Mozilla/5.0 (Windows NT 10.0; Win64; x64) AppleWebKit/537.36 (KHTML, like Gecko) Chrome/106.0.0.0 Safari/537.36 Edg/106.0.1370.47","WebKit","Edge","106.0.1370.47","Windows","10.0","null","<div style=""font-size:60px;"">+</div>","null",""
"","","","","","html-button-response","59","252090","0.0-4.0-1.27","17","1","2022-10-20 06:20:39","d60b49b5908c80e163b920d72b52d584","39.144.181.10","Mozilla/5.0 (Windows NT 10.0; Win64; x64) AppleWebKit/537.36 (KHTML, like Gecko) Chrome/106.0.0.0 Safari/537.36 Edg/106.0.1370.47","WebKit","Edge","106.0.1370.47","Windows","10.0","1168","<p>作为军队的指挥官，你可以选择发射导弹杀死 <strong>1名</strong> 敌国士兵，但会误杀附近的 <strong>1名</strong> 敌国平民。</p> <p>平民照片如下图所示。</p> <p></p> <img src='stimuli/faces/NCF8.jpg', style='max-width: 30%;'> </img> <p><strong>你是否选择发射武器？</strong></p>","1",""
"","","","","","html-keyboard-response","60","253101","0.0-4.0-0.28","17","1","2022-10-20 06:20:39","d60b49b5908c80e163b920d72b52d584","39.144.181.10","Mozilla/5.0 (Windows NT 10.0; Win64; x64) AppleWebKit/537.36 (KHTML, like Gecko) Chrome/106.0.0.0 Safari/537.36 Edg/106.0.1370.47","WebKit","Edge","106.0.1370.47","Windows","10.0","null","<div style=""font-size:60px;"">+</div>","null",""
"","","","","","html-button-response","61","254418","0.0-4.0-1.28","17","1","2022-10-20 06:20:39","d60b49b5908c80e163b920d72b52d584","39.144.181.10","Mozilla/5.0 (Windows NT 10.0; Win64; x64) AppleWebKit/537.36 (KHTML, like Gecko) Chrome/106.0.0.0 Safari/537.36 Edg/106.0.1370.47","WebKit","Edge","106.0.1370.47","Windows","10.0","1314","<p>作为军队的指挥官，你可以选择发射导弹杀死 <strong>9名</strong> 敌国士兵，但会炸毁附近的 <strong>1棵</strong> 敌国树木。</p> <p>树木的照片如下图所示。</p> <p></p> <img src='stimuli/trees/16.png', style='max-width: 30%;'> </img> <p><strong>你是否选择发射武器？</strong></p>","0",""
"","","","","","html-keyboard-response","62","255429","0.0-4.0-0.29","17","1","2022-10-20 06:20:39","d60b49b5908c80e163b920d72b52d584","39.144.181.10","Mozilla/5.0 (Windows NT 10.0; Win64; x64) AppleWebKit/537.36 (KHTML, like Gecko) Chrome/106.0.0.0 Safari/537.36 Edg/106.0.1370.47","WebKit","Edge","106.0.1370.47","Windows","10.0","null","<div style=""font-size:60px;"">+</div>","null",""
"","","","","","html-button-response","63","256778","0.0-4.0-1.29","17","1","2022-10-20 06:20:39","d60b49b5908c80e163b920d72b52d584","39.144.181.10","Mozilla/5.0 (Windows NT 10.0; Win64; x64) AppleWebKit/537.36 (KHTML, like Gecko) Chrome/106.0.0.0 Safari/537.36 Edg/106.0.1370.47","WebKit","Edge","106.0.1370.47","Windows","10.0","1347","<p>作为军队的指挥官，你可以选择发射导弹杀死 <strong>4名</strong> 敌国士兵，但会炸毁附近的 <strong>1棵</strong> 敌国树木。</p> <p>树木的照片如下图所示。</p> <p></p> <img src='stimuli/trees/12.png', style='max-width: 30%;'> </img> <p><strong>你是否选择发射武器？</strong></p>","1",""
"","","","","","html-keyboard-response","64","257795","0.0-4.0-0.30","17","1","2022-10-20 06:20:39","d60b49b5908c80e163b920d72b52d584","39.144.181.10","Mozilla/5.0 (Windows NT 10.0; Win64; x64) AppleWebKit/537.36 (KHTML, like Gecko) Chrome/106.0.0.0 Safari/537.36 Edg/106.0.1370.47","WebKit","Edge","106.0.1370.47","Windows","10.0","null","<div style=""font-size:60px;"">+</div>","null",""
"","","","","","html-button-response","65","258730","0.0-4.0-1.30","17","1","2022-10-20 06:20:39","d60b49b5908c80e163b920d72b52d584","39.144.181.10","Mozilla/5.0 (Windows NT 10.0; Win64; x64) AppleWebKit/537.36 (KHTML, like Gecko) Chrome/106.0.0.0 Safari/537.36 Edg/106.0.1370.47","WebKit","Edge","106.0.1370.47","Windows","10.0","933","<p>作为军队的指挥官，你可以选择发射导弹杀死 <strong>2名</strong> 敌国士兵，但会误杀附近的 <strong>1名</strong> 敌国平民。</p> <p>平民照片如下图所示。</p> <p></p> <img src='stimuli/faces/NCF1.jpg', style='max-width: 30%;'> </img> <p><strong>你是否选择发射武器？</strong></p>","1",""
"","","","","","html-keyboard-response","66","259744","0.0-4.0-0.31","17","1","2022-10-20 06:20:39","d60b49b5908c80e163b920d72b52d584","39.144.181.10","Mozilla/5.0 (Windows NT 10.0; Win64; x64) AppleWebKit/537.36 (KHTML, like Gecko) Chrome/106.0.0.0 Safari/537.36 Edg/106.0.1370.47","WebKit","Edge","106.0.1370.47","Windows","10.0","null","<div style=""font-size:60px;"">+</div>","null",""
"","","","","","html-button-response","67","261226","0.0-4.0-1.31","17","1","2022-10-20 06:20:39","d60b49b5908c80e163b920d72b52d584","39.144.181.10","Mozilla/5.0 (Windows NT 10.0; Win64; x64) AppleWebKit/537.36 (KHTML, like Gecko) Chrome/106.0.0.0 Safari/537.36 Edg/106.0.1370.47","WebKit","Edge","106.0.1370.47","Windows","10.0","1479","<p>作为军队的指挥官，你可以选择发射导弹杀死 <strong>2名</strong> 敌国士兵，但会炸毁附近的 <strong>1棵</strong> 敌国树木。</p> <p>树木的照片如下图所示。</p> <p></p> <img src='stimuli/trees/5.png', style='max-width: 30%;'> </img> <p><strong>你是否选择发射武器？</strong></p>","1",""
"","","","","","html-keyboard-response","68","262228","0.0-4.0-0.32","17","1","2022-10-20 06:20:39","d60b49b5908c80e163b920d72b52d584","39.144.181.10","Mozilla/5.0 (Windows NT 10.0; Win64; x64) AppleWebKit/537.36 (KHTML, like Gecko) Chrome/106.0.0.0 Safari/537.36 Edg/106.0.1370.47","WebKit","Edge","106.0.1370.47","Windows","10.0","null","<div style=""font-size:60px;"">+</div>","null",""
"","","","","","html-button-response","69","263378","0.0-4.0-1.32","17","1","2022-10-20 06:20:39","d60b49b5908c80e163b920d72b52d584","39.144.181.10","Mozilla/5.0 (Windows NT 10.0; Win64; x64) AppleWebKit/537.36 (KHTML, like Gecko) Chrome/106.0.0.0 Safari/537.36 Edg/106.0.1370.47","WebKit","Edge","106.0.1370.47","Windows","10.0","1147","<p>作为军队的指挥官，你可以选择发射导弹杀死 <strong>3名</strong> 敌国士兵，但会炸毁附近的 <strong>1棵</strong> 敌国树木。</p> <p>树木的照片如下图所示。</p> <p></p> <img src='stimuli/trees/6.png', style='max-width: 30%;'> </img> <p><strong>你是否选择发射武器？</strong></p>","1",""
"","","","","","html-keyboard-response","70","264394","0.0-4.0-0.33","17","1","2022-10-20 06:20:39","d60b49b5908c80e163b920d72b52d584","39.144.181.10","Mozilla/5.0 (Windows NT 10.0; Win64; x64) AppleWebKit/537.36 (KHTML, like Gecko) Chrome/106.0.0.0 Safari/537.36 Edg/106.0.1370.47","WebKit","Edge","106.0.1370.47","Windows","10.0","null","<div style=""font-size:60px;"">+</div>","null",""
"","","","","","html-button-response","71","267778","0.0-4.0-1.33","17","1","2022-10-20 06:20:39","d60b49b5908c80e163b920d72b52d584","39.144.181.10","Mozilla/5.0 (Windows NT 10.0; Win64; x64) AppleWebKit/537.36 (KHTML, like Gecko) Chrome/106.0.0.0 Safari/537.36 Edg/106.0.1370.47","WebKit","Edge","106.0.1370.47","Windows","10.0","3382","<p>作为军队的指挥官，你可以选择发射导弹杀死 <strong>8名</strong> 敌国士兵，但会炸毁附近的 <strong>1棵</strong> 敌国树木。</p> <p>树木的照片如下图所示。</p> <p></p> <img src='stimuli/trees/9.png', style='max-width: 30%;'> </img> <p><strong>你是否选择发射武器？</strong></p>","0",""
"","","","","","html-keyboard-response","72","268793","0.0-4.0-0.34","17","1","2022-10-20 06:20:39","d60b49b5908c80e163b920d72b52d584","39.144.181.10","Mozilla/5.0 (Windows NT 10.0; Win64; x64) AppleWebKit/537.36 (KHTML, like Gecko) Chrome/106.0.0.0 Safari/537.36 Edg/106.0.1370.47","WebKit","Edge","106.0.1370.47","Windows","10.0","null","<div style=""font-size:60px;"">+</div>","null",""
"","","","","","html-button-response","73","269890","0.0-4.0-1.34","17","1","2022-10-20 06:20:39","d60b49b5908c80e163b920d72b52d584","39.144.181.10","Mozilla/5.0 (Windows NT 10.0; Win64; x64) AppleWebKit/537.36 (KHTML, like Gecko) Chrome/106.0.0.0 Safari/537.36 Edg/106.0.1370.47","WebKit","Edge","106.0.1370.47","Windows","10.0","1094","<p>作为军队的指挥官，你可以选择发射导弹杀死 <strong>1名</strong> 敌国士兵，但会炸毁附近的 <strong>1棵</strong> 敌国树木。</p> <p>树木的照片如下图所示。</p> <p></p> <img src='stimuli/trees/10.png', style='max-width: 30%;'> </img> <p><strong>你是否选择发射武器？</strong></p>","1",""
"","","","","","html-keyboard-response","74","270907","0.0-4.0-0.35","17","1","2022-10-20 06:20:39","d60b49b5908c80e163b920d72b52d584","39.144.181.10","Mozilla/5.0 (Windows NT 10.0; Win64; x64) AppleWebKit/537.36 (KHTML, like Gecko) Chrome/106.0.0.0 Safari/537.36 Edg/106.0.1370.47","WebKit","Edge","106.0.1370.47","Windows","10.0","null","<div style=""font-size:60px;"">+</div>","null",""
"","","","","","html-button-response","75","272962","0.0-4.0-1.35","17","1","2022-10-20 06:20:39","d60b49b5908c80e163b920d72b52d584","39.144.181.10","Mozilla/5.0 (Windows NT 10.0; Win64; x64) AppleWebKit/537.36 (KHTML, like Gecko) Chrome/106.0.0.0 Safari/537.36 Edg/106.0.1370.47","WebKit","Edge","106.0.1370.47","Windows","10.0","2052","<p>作为军队的指挥官，你可以选择发射导弹杀死 <strong>5名</strong> 敌国士兵，但会炸毁附近的 <strong>1棵</strong> 敌国树木。</p> <p>树木的照片如下图所示。</p> <p></p> <img src='stimuli/trees/1.png', style='max-width: 30%;'> </img> <p><strong>你是否选择发射武器？</strong></p>","0",""
"","","","","","html-keyboard-response","76","273977","0.0-4.0-0.36","17","1","2022-10-20 06:20:39","d60b49b5908c80e163b920d72b52d584","39.144.181.10","Mozilla/5.0 (Windows NT 10.0; Win64; x64) AppleWebKit/537.36 (KHTML, like Gecko) Chrome/106.0.0.0 Safari/537.36 Edg/106.0.1370.47","WebKit","Edge","106.0.1370.47","Windows","10.0","null","<div style=""font-size:60px;"">+</div>","null",""
"","","","","","html-button-response","77","274666","0.0-4.0-1.36","17","1","2022-10-20 06:20:39","d60b49b5908c80e163b920d72b52d584","39.144.181.10","Mozilla/5.0 (Windows NT 10.0; Win64; x64) AppleWebKit/537.36 (KHTML, like Gecko) Chrome/106.0.0.0 Safari/537.36 Edg/106.0.1370.47","WebKit","Edge","106.0.1370.47","Windows","10.0","686","<p>作为军队的指挥官，你可以选择发射导弹杀死 <strong>9名</strong> 敌国士兵，但会误杀附近的 <strong>1名</strong> 敌国平民。</p> <p>平民照片如下图所示。</p> <p></p> <img src='stimuli/faces/NCF6.jpg', style='max-width: 30%;'> </img> <p><strong>你是否选择发射武器？</strong></p>","0",""
"","","","","","html-keyboard-response","78","275679","0.0-4.0-0.37","17","1","2022-10-20 06:20:39","d60b49b5908c80e163b920d72b52d584","39.144.181.10","Mozilla/5.0 (Windows NT 10.0; Win64; x64) AppleWebKit/537.36 (KHTML, like Gecko) Chrome/106.0.0.0 Safari/537.36 Edg/106.0.1370.47","WebKit","Edge","106.0.1370.47","Windows","10.0","null","<div style=""font-size:60px;"">+</div>","null",""
"","","","","","html-button-response","79","277898","0.0-4.0-1.37","17","1","2022-10-20 06:20:39","d60b49b5908c80e163b920d72b52d584","39.144.181.10","Mozilla/5.0 (Windows NT 10.0; Win64; x64) AppleWebKit/537.36 (KHTML, like Gecko) Chrome/106.0.0.0 Safari/537.36 Edg/106.0.1370.47","WebKit","Edge","106.0.1370.47","Windows","10.0","2216","<p>作为军队的指挥官，你可以选择发射导弹杀死 <strong>9名</strong> 敌国士兵，但会炸毁附近的 <strong>1棵</strong> 敌国树木。</p> <p>树木的照片如下图所示。</p> <p></p> <img src='stimuli/trees/12.png', style='max-width: 30%;'> </img> <p><strong>你是否选择发射武器？</strong></p>","0",""
"","","","","","html-keyboard-response","80","278909","0.0-4.0-0.38","17","1","2022-10-20 06:20:39","d60b49b5908c80e163b920d72b52d584","39.144.181.10","Mozilla/5.0 (Windows NT 10.0; Win64; x64) AppleWebKit/537.36 (KHTML, like Gecko) Chrome/106.0.0.0 Safari/537.36 Edg/106.0.1370.47","WebKit","Edge","106.0.1370.47","Windows","10.0","null","<div style=""font-size:60px;"">+</div>","null",""
"","","","","","html-button-response","81","280786","0.0-4.0-1.38","17","1","2022-10-20 06:20:39","d60b49b5908c80e163b920d72b52d584","39.144.181.10","Mozilla/5.0 (Windows NT 10.0; Win64; x64) AppleWebKit/537.36 (KHTML, like Gecko) Chrome/106.0.0.0 Safari/537.36 Edg/106.0.1370.47","WebKit","Edge","106.0.1370.47","Windows","10.0","1875","<p>作为军队的指挥官，你可以选择发射导弹杀死 <strong>1名</strong> 敌国士兵，但会误杀附近的 <strong>1名</strong> 敌国平民。</p> <p>平民照片如下图所示。</p> <p></p> <img src='stimuli/faces/NCM5.jpg', style='max-width: 30%;'> </img> <p><strong>你是否选择发射武器？</strong></p>","1",""
"","","","","","html-keyboard-response","82","281802","0.0-4.0-0.39","17","1","2022-10-20 06:20:39","d60b49b5908c80e163b920d72b52d584","39.144.181.10","Mozilla/5.0 (Windows NT 10.0; Win64; x64) AppleWebKit/537.36 (KHTML, like Gecko) Chrome/106.0.0.0 Safari/537.36 Edg/106.0.1370.47","WebKit","Edge","106.0.1370.47","Windows","10.0","null","<div style=""font-size:60px;"">+</div>","null",""
"","","","","","html-button-response","83","282730","0.0-4.0-1.39","17","1","2022-10-20 06:20:39","d60b49b5908c80e163b920d72b52d584","39.144.181.10","Mozilla/5.0 (Windows NT 10.0; Win64; x64) AppleWebKit/537.36 (KHTML, like Gecko) Chrome/106.0.0.0 Safari/537.36 Edg/106.0.1370.47","WebKit","Edge","106.0.1370.47","Windows","10.0","926","<p>作为军队的指挥官，你可以选择发射导弹杀死 <strong>10名</strong> 敌国士兵，但会误杀附近的 <strong>1名</strong> 敌国平民。</p> <p>平民照片如下图所示。</p> <p></p> <img src='stimuli/faces/NCM8.jpg', style='max-width: 30%;'> </img> <p><strong>你是否选择发射武器？</strong></p>","0",""
"","","","","","html-keyboard-response","84","283744","0.0-4.0-0.40","17","1","2022-10-20 06:20:39","d60b49b5908c80e163b920d72b52d584","39.144.181.10","Mozilla/5.0 (Windows NT 10.0; Win64; x64) AppleWebKit/537.36 (KHTML, like Gecko) Chrome/106.0.0.0 Safari/537.36 Edg/106.0.1370.47","WebKit","Edge","106.0.1370.47","Windows","10.0","null","<div style=""font-size:60px;"">+</div>","null",""
"","","","","","html-button-response","85","285042","0.0-4.0-1.40","17","1","2022-10-20 06:20:39","d60b49b5908c80e163b920d72b52d584","39.144.181.10","Mozilla/5.0 (Windows NT 10.0; Win64; x64) AppleWebKit/537.36 (KHTML, like Gecko) Chrome/106.0.0.0 Safari/537.36 Edg/106.0.1370.47","WebKit","Edge","106.0.1370.47","Windows","10.0","1296","<p>作为军队的指挥官，你可以选择发射导弹杀死 <strong>10名</strong> 敌国士兵，但会误杀附近的 <strong>1名</strong> 敌国平民。</p> <p>平民照片如下图所示。</p> <p></p> <img src='stimuli/faces/NCF3.jpg', style='max-width: 30%;'> </img> <p><strong>你是否选择发射武器？</strong></p>","0",""
"","","","","","html-keyboard-response","86","286044","0.0-4.0-0.41","17","1","2022-10-20 06:20:39","d60b49b5908c80e163b920d72b52d584","39.144.181.10","Mozilla/5.0 (Windows NT 10.0; Win64; x64) AppleWebKit/537.36 (KHTML, like Gecko) Chrome/106.0.0.0 Safari/537.36 Edg/106.0.1370.47","WebKit","Edge","106.0.1370.47","Windows","10.0","null","<div style=""font-size:60px;"">+</div>","null",""
"","","","","","html-button-response","87","287850","0.0-4.0-1.41","17","1","2022-10-20 06:20:39","d60b49b5908c80e163b920d72b52d584","39.144.181.10","Mozilla/5.0 (Windows NT 10.0; Win64; x64) AppleWebKit/537.36 (KHTML, like Gecko) Chrome/106.0.0.0 Safari/537.36 Edg/106.0.1370.47","WebKit","Edge","106.0.1370.47","Windows","10.0","1804","<p>作为军队的指挥官，你可以选择发射导弹杀死 <strong>2名</strong> 敌国士兵，但会炸毁附近的 <strong>1棵</strong> 敌国树木。</p> <p>树木的照片如下图所示。</p> <p></p> <img src='stimuli/trees/14.png', style='max-width: 30%;'> </img> <p><strong>你是否选择发射武器？</strong></p>","1",""
"","","","","","html-keyboard-response","88","288867","0.0-4.0-0.42","17","1","2022-10-20 06:20:39","d60b49b5908c80e163b920d72b52d584","39.144.181.10","Mozilla/5.0 (Windows NT 10.0; Win64; x64) AppleWebKit/537.36 (KHTML, like Gecko) Chrome/106.0.0.0 Safari/537.36 Edg/106.0.1370.47","WebKit","Edge","106.0.1370.47","Windows","10.0","null","<div style=""font-size:60px;"">+</div>","null",""
"","","","","","html-button-response","89","292122","0.0-4.0-1.42","17","1","2022-10-20 06:20:39","d60b49b5908c80e163b920d72b52d584","39.144.181.10","Mozilla/5.0 (Windows NT 10.0; Win64; x64) AppleWebKit/537.36 (KHTML, like Gecko) Chrome/106.0.0.0 Safari/537.36 Edg/106.0.1370.47","WebKit","Edge","106.0.1370.47","Windows","10.0","3253","<p>作为军队的指挥官，你可以选择发射导弹杀死 <strong>9名</strong> 敌国士兵，但会炸毁附近的 <strong>1棵</strong> 敌国树木。</p> <p>树木的照片如下图所示。</p> <p></p> <img src='stimuli/trees/6.png', style='max-width: 30%;'> </img> <p><strong>你是否选择发射武器？</strong></p>","0",""
"","","","","","html-keyboard-response","90","293126","0.0-4.0-0.43","17","1","2022-10-20 06:20:39","d60b49b5908c80e163b920d72b52d584","39.144.181.10","Mozilla/5.0 (Windows NT 10.0; Win64; x64) AppleWebKit/537.36 (KHTML, like Gecko) Chrome/106.0.0.0 Safari/537.36 Edg/106.0.1370.47","WebKit","Edge","106.0.1370.47","Windows","10.0","null","<div style=""font-size:60px;"">+</div>","null",""
"","","","","","html-button-response","91","294626","0.0-4.0-1.43","17","1","2022-10-20 06:20:39","d60b49b5908c80e163b920d72b52d584","39.144.181.10","Mozilla/5.0 (Windows NT 10.0; Win64; x64) AppleWebKit/537.36 (KHTML, like Gecko) Chrome/106.0.0.0 Safari/537.36 Edg/106.0.1370.47","WebKit","Edge","106.0.1370.47","Windows","10.0","1498","<p>作为军队的指挥官，你可以选择发射导弹杀死 <strong>8名</strong> 敌国士兵，但会炸毁附近的 <strong>1棵</strong> 敌国树木。</p> <p>树木的照片如下图所示。</p> <p></p> <img src='stimuli/trees/11.png', style='max-width: 30%;'> </img> <p><strong>你是否选择发射武器？</strong></p>","0",""
"","","","","","html-keyboard-response","92","295632","0.0-4.0-0.44","17","1","2022-10-20 06:20:39","d60b49b5908c80e163b920d72b52d584","39.144.181.10","Mozilla/5.0 (Windows NT 10.0; Win64; x64) AppleWebKit/537.36 (KHTML, like Gecko) Chrome/106.0.0.0 Safari/537.36 Edg/106.0.1370.47","WebKit","Edge","106.0.1370.47","Windows","10.0","null","<div style=""font-size:60px;"">+</div>","null",""
"","","","","","html-button-response","93","296650","0.0-4.0-1.44","17","1","2022-10-20 06:20:39","d60b49b5908c80e163b920d72b52d584","39.144.181.10","Mozilla/5.0 (Windows NT 10.0; Win64; x64) AppleWebKit/537.36 (KHTML, like Gecko) Chrome/106.0.0.0 Safari/537.36 Edg/106.0.1370.47","WebKit","Edge","106.0.1370.47","Windows","10.0","1015","<p>作为军队的指挥官，你可以选择发射导弹杀死 <strong>10名</strong> 敌国士兵，但会误杀附近的 <strong>1名</strong> 敌国平民。</p> <p>平民照片如下图所示。</p> <p></p> <img src='stimuli/faces/NCF8.jpg', style='max-width: 30%;'> </img> <p><strong>你是否选择发射武器？</strong></p>","0",""
"","","","","","html-keyboard-response","94","297668","0.0-4.0-0.45","17","1","2022-10-20 06:20:39","d60b49b5908c80e163b920d72b52d584","39.144.181.10","Mozilla/5.0 (Windows NT 10.0; Win64; x64) AppleWebKit/537.36 (KHTML, like Gecko) Chrome/106.0.0.0 Safari/537.36 Edg/106.0.1370.47","WebKit","Edge","106.0.1370.47","Windows","10.0","null","<div style=""font-size:60px;"">+</div>","null",""
"","","","","","html-button-response","95","298514","0.0-4.0-1.45","17","1","2022-10-20 06:20:39","d60b49b5908c80e163b920d72b52d584","39.144.181.10","Mozilla/5.0 (Windows NT 10.0; Win64; x64) AppleWebKit/537.36 (KHTML, like Gecko) Chrome/106.0.0.0 Safari/537.36 Edg/106.0.1370.47","WebKit","Edge","106.0.1370.47","Windows","10.0","843","<p>作为军队的指挥官，你可以选择发射导弹杀死 <strong>7名</strong> 敌国士兵，但会误杀附近的 <strong>1名</strong> 敌国平民。</p> <p>平民照片如下图所示。</p> <p></p> <img src='stimuli/faces/NCF4.jpg', style='max-width: 30%;'> </img> <p><strong>你是否选择发射武器？</strong></p>","0",""
"","","","","","html-keyboard-response","96","299528","0.0-4.0-0.46","17","1","2022-10-20 06:20:39","d60b49b5908c80e163b920d72b52d584","39.144.181.10","Mozilla/5.0 (Windows NT 10.0; Win64; x64) AppleWebKit/537.36 (KHTML, like Gecko) Chrome/106.0.0.0 Safari/537.36 Edg/106.0.1370.47","WebKit","Edge","106.0.1370.47","Windows","10.0","null","<div style=""font-size:60px;"">+</div>","null",""
"","","","","","html-button-response","97","300978","0.0-4.0-1.46","17","1","2022-10-20 06:20:39","d60b49b5908c80e163b920d72b52d584","39.144.181.10","Mozilla/5.0 (Windows NT 10.0; Win64; x64) AppleWebKit/537.36 (KHTML, like Gecko) Chrome/106.0.0.0 Safari/537.36 Edg/106.0.1370.47","WebKit","Edge","106.0.1370.47","Windows","10.0","1447","<p>作为军队的指挥官，你可以选择发射导弹杀死 <strong>3名</strong> 敌国士兵，但会误杀附近的 <strong>1名</strong> 敌国平民。</p> <p>平民照片如下图所示。</p> <p></p> <img src='stimuli/faces/NCF5.jpg', style='max-width: 30%;'> </img> <p><strong>你是否选择发射武器？</strong></p>","1",""
"","","","","","html-keyboard-response","98","301987","0.0-4.0-0.47","17","1","2022-10-20 06:20:39","d60b49b5908c80e163b920d72b52d584","39.144.181.10","Mozilla/5.0 (Windows NT 10.0; Win64; x64) AppleWebKit/537.36 (KHTML, like Gecko) Chrome/106.0.0.0 Safari/537.36 Edg/106.0.1370.47","WebKit","Edge","106.0.1370.47","Windows","10.0","null","<div style=""font-size:60px;"">+</div>","null",""
"","","","","","html-button-response","99","303274","0.0-4.0-1.47","17","1","2022-10-20 06:20:39","d60b49b5908c80e163b920d72b52d584","39.144.181.10","Mozilla/5.0 (Windows NT 10.0; Win64; x64) AppleWebKit/537.36 (KHTML, like Gecko) Chrome/106.0.0.0 Safari/537.36 Edg/106.0.1370.47","WebKit","Edge","106.0.1370.47","Windows","10.0","1284","<p>作为军队的指挥官，你可以选择发射导弹杀死 <strong>3名</strong> 敌国士兵，但会误杀附近的 <strong>1名</strong> 敌国平民。</p> <p>平民照片如下图所示。</p> <p></p> <img src='stimuli/faces/NCF4.jpg', style='max-width: 30%;'> </img> <p><strong>你是否选择发射武器？</strong></p>","1",""
"","","","","","html-keyboard-response","100","304280","0.0-4.0-0.48","17","1","2022-10-20 06:20:39","d60b49b5908c80e163b920d72b52d584","39.144.181.10","Mozilla/5.0 (Windows NT 10.0; Win64; x64) AppleWebKit/537.36 (KHTML, like Gecko) Chrome/106.0.0.0 Safari/537.36 Edg/106.0.1370.47","WebKit","Edge","106.0.1370.47","Windows","10.0","null","<div style=""font-size:60px;"">+</div>","null",""
"","","","","","html-button-response","101","305601","0.0-4.0-1.48","17","1","2022-10-20 06:20:39","d60b49b5908c80e163b920d72b52d584","39.144.181.10","Mozilla/5.0 (Windows NT 10.0; Win64; x64) AppleWebKit/537.36 (KHTML, like Gecko) Chrome/106.0.0.0 Safari/537.36 Edg/106.0.1370.47","WebKit","Edge","106.0.1370.47","Windows","10.0","1318","<p>作为军队的指挥官，你可以选择发射导弹杀死 <strong>5名</strong> 敌国士兵，但会误杀附近的 <strong>1名</strong> 敌国平民。</p> <p>平民照片如下图所示。</p> <p></p> <img src='stimuli/faces/NCF3.jpg', style='max-width: 30%;'> </img> <p><strong>你是否选择发射武器？</strong></p>","0",""
"","","","","","html-keyboard-response","102","306614","0.0-4.0-0.49","17","1","2022-10-20 06:20:39","d60b49b5908c80e163b920d72b52d584","39.144.181.10","Mozilla/5.0 (Windows NT 10.0; Win64; x64) AppleWebKit/537.36 (KHTML, like Gecko) Chrome/106.0.0.0 Safari/537.36 Edg/106.0.1370.47","WebKit","Edge","106.0.1370.47","Windows","10.0","null","<div style=""font-size:60px;"">+</div>","null",""
"","","","","","html-button-response","103","307258","0.0-4.0-1.49","17","1","2022-10-20 06:20:39","d60b49b5908c80e163b920d72b52d584","39.144.181.10","Mozilla/5.0 (Windows NT 10.0; Win64; x64) AppleWebKit/537.36 (KHTML, like Gecko) Chrome/106.0.0.0 Safari/537.36 Edg/106.0.1370.47","WebKit","Edge","106.0.1370.47","Windows","10.0","641","<p>作为军队的指挥官，你可以选择发射导弹杀死 <strong>8名</strong> 敌国士兵，但会误杀附近的 <strong>1名</strong> 敌国平民。</p> <p>平民照片如下图所示。</p> <p></p> <img src='stimuli/faces/NCM3.jpg', style='max-width: 30%;'> </img> <p><strong>你是否选择发射武器？</strong></p>","0",""
"","","","","","html-keyboard-response","104","308262","0.0-4.0-0.50","17","1","2022-10-20 06:20:39","d60b49b5908c80e163b920d72b52d584","39.144.181.10","Mozilla/5.0 (Windows NT 10.0; Win64; x64) AppleWebKit/537.36 (KHTML, like Gecko) Chrome/106.0.0.0 Safari/537.36 Edg/106.0.1370.47","WebKit","Edge","106.0.1370.47","Windows","10.0","null","<div style=""font-size:60px;"">+</div>","null",""
"","","","","","html-button-response","105","309481","0.0-4.0-1.50","17","1","2022-10-20 06:20:39","d60b49b5908c80e163b920d72b52d584","39.144.181.10","Mozilla/5.0 (Windows NT 10.0; Win64; x64) AppleWebKit/537.36 (KHTML, like Gecko) Chrome/106.0.0.0 Safari/537.36 Edg/106.0.1370.47","WebKit","Edge","106.0.1370.47","Windows","10.0","1217","<p>作为军队的指挥官，你可以选择发射导弹杀死 <strong>10名</strong> 敌国士兵，但会误杀附近的 <strong>1名</strong> 敌国平民。</p> <p>平民照片如下图所示。</p> <p></p> <img src='stimuli/faces/NCM1.jpg', style='max-width: 30%;'> </img> <p><strong>你是否选择发射武器？</strong></p>","0",""
"","","","","","html-keyboard-response","106","310489","0.0-4.0-0.51","17","1","2022-10-20 06:20:39","d60b49b5908c80e163b920d72b52d584","39.144.181.10","Mozilla/5.0 (Windows NT 10.0; Win64; x64) AppleWebKit/537.36 (KHTML, like Gecko) Chrome/106.0.0.0 Safari/537.36 Edg/106.0.1370.47","WebKit","Edge","106.0.1370.47","Windows","10.0","null","<div style=""font-size:60px;"">+</div>","null",""
"","","","","","html-button-response","107","311826","0.0-4.0-1.51","17","1","2022-10-20 06:20:39","d60b49b5908c80e163b920d72b52d584","39.144.181.10","Mozilla/5.0 (Windows NT 10.0; Win64; x64) AppleWebKit/537.36 (KHTML, like Gecko) Chrome/106.0.0.0 Safari/537.36 Edg/106.0.1370.47","WebKit","Edge","106.0.1370.47","Windows","10.0","1334","<p>作为军队的指挥官，你可以选择发射导弹杀死 <strong>3名</strong> 敌国士兵，但会误杀附近的 <strong>1名</strong> 敌国平民。</p> <p>平民照片如下图所示。</p> <p></p> <img src='stimuli/faces/NCM1.jpg', style='max-width: 30%;'> </img> <p><strong>你是否选择发射武器？</strong></p>","1",""
"","","","","","html-keyboard-response","108","312842","0.0-4.0-0.52","17","1","2022-10-20 06:20:39","d60b49b5908c80e163b920d72b52d584","39.144.181.10","Mozilla/5.0 (Windows NT 10.0; Win64; x64) AppleWebKit/537.36 (KHTML, like Gecko) Chrome/106.0.0.0 Safari/537.36 Edg/106.0.1370.47","WebKit","Edge","106.0.1370.47","Windows","10.0","null","<div style=""font-size:60px;"">+</div>","null",""
"","","","","","html-button-response","109","313842","0.0-4.0-1.52","17","1","2022-10-20 06:20:39","d60b49b5908c80e163b920d72b52d584","39.144.181.10","Mozilla/5.0 (Windows NT 10.0; Win64; x64) AppleWebKit/537.36 (KHTML, like Gecko) Chrome/106.0.0.0 Safari/537.36 Edg/106.0.1370.47","WebKit","Edge","106.0.1370.47","Windows","10.0","997","<p>作为军队的指挥官，你可以选择发射导弹杀死 <strong>7名</strong> 敌国士兵，但会炸毁附近的 <strong>1棵</strong> 敌国树木。</p> <p>树木的照片如下图所示。</p> <p></p> <img src='stimuli/trees/4.png', style='max-width: 30%;'> </img> <p><strong>你是否选择发射武器？</strong></p>","0",""
"","","","","","html-keyboard-response","110","314845","0.0-4.0-0.53","17","1","2022-10-20 06:20:39","d60b49b5908c80e163b920d72b52d584","39.144.181.10","Mozilla/5.0 (Windows NT 10.0; Win64; x64) AppleWebKit/537.36 (KHTML, like Gecko) Chrome/106.0.0.0 Safari/537.36 Edg/106.0.1370.47","WebKit","Edge","106.0.1370.47","Windows","10.0","null","<div style=""font-size:60px;"">+</div>","null",""
"","","","","","html-button-response","111","317026","0.0-4.0-1.53","17","1","2022-10-20 06:20:39","d60b49b5908c80e163b920d72b52d584","39.144.181.10","Mozilla/5.0 (Windows NT 10.0; Win64; x64) AppleWebKit/537.36 (KHTML, like Gecko) Chrome/106.0.0.0 Safari/537.36 Edg/106.0.1370.47","WebKit","Edge","106.0.1370.47","Windows","10.0","2178","<p>作为军队的指挥官，你可以选择发射导弹杀死 <strong>8名</strong> 敌国士兵，但会炸毁附近的 <strong>1棵</strong> 敌国树木。</p> <p>树木的照片如下图所示。</p> <p></p> <img src='stimuli/trees/5.png', style='max-width: 30%;'> </img> <p><strong>你是否选择发射武器？</strong></p>","0",""
"","","","","","html-keyboard-response","112","318030","0.0-4.0-0.54","17","1","2022-10-20 06:20:39","d60b49b5908c80e163b920d72b52d584","39.144.181.10","Mozilla/5.0 (Windows NT 10.0; Win64; x64) AppleWebKit/537.36 (KHTML, like Gecko) Chrome/106.0.0.0 Safari/537.36 Edg/106.0.1370.47","WebKit","Edge","106.0.1370.47","Windows","10.0","null","<div style=""font-size:60px;"">+</div>","null",""
"","","","","","html-button-response","113","319362","0.0-4.0-1.54","17","1","2022-10-20 06:20:39","d60b49b5908c80e163b920d72b52d584","39.144.181.10","Mozilla/5.0 (Windows NT 10.0; Win64; x64) AppleWebKit/537.36 (KHTML, like Gecko) Chrome/106.0.0.0 Safari/537.36 Edg/106.0.1370.47","WebKit","Edge","106.0.1370.47","Windows","10.0","1328","<p>作为军队的指挥官，你可以选择发射导弹杀死 <strong>3名</strong> 敌国士兵，但会误杀附近的 <strong>1名</strong> 敌国平民。</p> <p>平民照片如下图所示。</p> <p></p> <img src='stimuli/faces/NCM7.jpg', style='max-width: 30%;'> </img> <p><strong>你是否选择发射武器？</strong></p>","1",""
"","","","","","html-keyboard-response","114","320369","0.0-4.0-0.55","17","1","2022-10-20 06:20:39","d60b49b5908c80e163b920d72b52d584","39.144.181.10","Mozilla/5.0 (Windows NT 10.0; Win64; x64) AppleWebKit/537.36 (KHTML, like Gecko) Chrome/106.0.0.0 Safari/537.36 Edg/106.0.1370.47","WebKit","Edge","106.0.1370.47","Windows","10.0","null","<div style=""font-size:60px;"">+</div>","null",""
"","","","","","html-button-response","115","321721","0.0-4.0-1.55","17","1","2022-10-20 06:20:39","d60b49b5908c80e163b920d72b52d584","39.144.181.10","Mozilla/5.0 (Windows NT 10.0; Win64; x64) AppleWebKit/537.36 (KHTML, like Gecko) Chrome/106.0.0.0 Safari/537.36 Edg/106.0.1370.47","WebKit","Edge","106.0.1370.47","Windows","10.0","1349","<p>作为军队的指挥官，你可以选择发射导弹杀死 <strong>7名</strong> 敌国士兵，但会误杀附近的 <strong>1名</strong> 敌国平民。</p> <p>平民照片如下图所示。</p> <p></p> <img src='stimuli/faces/NCM7.jpg', style='max-width: 30%;'> </img> <p><strong>你是否选择发射武器？</strong></p>","0",""
"","","","","","html-keyboard-response","116","322734","0.0-4.0-0.56","17","1","2022-10-20 06:20:39","d60b49b5908c80e163b920d72b52d584","39.144.181.10","Mozilla/5.0 (Windows NT 10.0; Win64; x64) AppleWebKit/537.36 (KHTML, like Gecko) Chrome/106.0.0.0 Safari/537.36 Edg/106.0.1370.47","WebKit","Edge","106.0.1370.47","Windows","10.0","null","<div style=""font-size:60px;"">+</div>","null",""
"","","","","","html-button-response","117","326482","0.0-4.0-1.56","17","1","2022-10-20 06:20:39","d60b49b5908c80e163b920d72b52d584","39.144.181.10","Mozilla/5.0 (Windows NT 10.0; Win64; x64) AppleWebKit/537.36 (KHTML, like Gecko) Chrome/106.0.0.0 Safari/537.36 Edg/106.0.1370.47","WebKit","Edge","106.0.1370.47","Windows","10.0","3744","<p>作为军队的指挥官，你可以选择发射导弹杀死 <strong>2名</strong> 敌国士兵，但会误杀附近的 <strong>1名</strong> 敌国平民。</p> <p>平民照片如下图所示。</p> <p></p> <img src='stimuli/faces/NCM2.jpg', style='max-width: 30%;'> </img> <p><strong>你是否选择发射武器？</strong></p>","1",""
"","","","","","html-keyboard-response","118","327493","0.0-4.0-0.57","17","1","2022-10-20 06:20:39","d60b49b5908c80e163b920d72b52d584","39.144.181.10","Mozilla/5.0 (Windows NT 10.0; Win64; x64) AppleWebKit/537.36 (KHTML, like Gecko) Chrome/106.0.0.0 Safari/537.36 Edg/106.0.1370.47","WebKit","Edge","106.0.1370.47","Windows","10.0","null","<div style=""font-size:60px;"">+</div>","null",""
"","","","","","html-button-response","119","329522","0.0-4.0-1.57","17","1","2022-10-20 06:20:39","d60b49b5908c80e163b920d72b52d584","39.144.181.10","Mozilla/5.0 (Windows NT 10.0; Win64; x64) AppleWebKit/537.36 (KHTML, like Gecko) Chrome/106.0.0.0 Safari/537.36 Edg/106.0.1370.47","WebKit","Edge","106.0.1370.47","Windows","10.0","2025","<p>作为军队的指挥官，你可以选择发射导弹杀死 <strong>5名</strong> 敌国士兵，但会误杀附近的 <strong>1名</strong> 敌国平民。</p> <p>平民照片如下图所示。</p> <p></p> <img src='stimuli/faces/NCM4.jpg', style='max-width: 30%;'> </img> <p><strong>你是否选择发射武器？</strong></p>","0",""
"","","","","","html-keyboard-response","120","330535","0.0-4.0-0.58","17","1","2022-10-20 06:20:39","d60b49b5908c80e163b920d72b52d584","39.144.181.10","Mozilla/5.0 (Windows NT 10.0; Win64; x64) AppleWebKit/537.36 (KHTML, like Gecko) Chrome/106.0.0.0 Safari/537.36 Edg/106.0.1370.47","WebKit","Edge","106.0.1370.47","Windows","10.0","null","<div style=""font-size:60px;"">+</div>","null",""
"","","","","","html-button-response","121","331802","0.0-4.0-1.58","17","1","2022-10-20 06:20:39","d60b49b5908c80e163b920d72b52d584","39.144.181.10","Mozilla/5.0 (Windows NT 10.0; Win64; x64) AppleWebKit/537.36 (KHTML, like Gecko) Chrome/106.0.0.0 Safari/537.36 Edg/106.0.1370.47","WebKit","Edge","106.0.1370.47","Windows","10.0","1263","<p>作为军队的指挥官，你可以选择发射导弹杀死 <strong>8名</strong> 敌国士兵，但会误杀附近的 <strong>1名</strong> 敌国平民。</p> <p>平民照片如下图所示。</p> <p></p> <img src='stimuli/faces/NCM4.jpg', style='max-width: 30%;'> </img> <p><strong>你是否选择发射武器？</strong></p>","0",""
"","","","","","html-keyboard-response","122","332818","0.0-4.0-0.59","17","1","2022-10-20 06:20:39","d60b49b5908c80e163b920d72b52d584","39.144.181.10","Mozilla/5.0 (Windows NT 10.0; Win64; x64) AppleWebKit/537.36 (KHTML, like Gecko) Chrome/106.0.0.0 Safari/537.36 Edg/106.0.1370.47","WebKit","Edge","106.0.1370.47","Windows","10.0","null","<div style=""font-size:60px;"">+</div>","null",""
"","","","","","html-button-response","123","333954","0.0-4.0-1.59","17","1","2022-10-20 06:20:39","d60b49b5908c80e163b920d72b52d584","39.144.181.10","Mozilla/5.0 (Windows NT 10.0; Win64; x64) AppleWebKit/537.36 (KHTML, like Gecko) Chrome/106.0.0.0 Safari/537.36 Edg/106.0.1370.47","WebKit","Edge","106.0.1370.47","Windows","10.0","1132","<p>作为军队的指挥官，你可以选择发射导弹杀死 <strong>8名</strong> 敌国士兵，但会误杀附近的 <strong>1名</strong> 敌国平民。</p> <p>平民照片如下图所示。</p> <p></p> <img src='stimuli/faces/NCF1.jpg', style='max-width: 30%;'> </img> <p><strong>你是否选择发射武器？</strong></p>","0",""
"","","","","","html-keyboard-response","124","334969","0.0-4.0-0.60","17","1","2022-10-20 06:20:39","d60b49b5908c80e163b920d72b52d584","39.144.181.10","Mozilla/5.0 (Windows NT 10.0; Win64; x64) AppleWebKit/537.36 (KHTML, like Gecko) Chrome/106.0.0.0 Safari/537.36 Edg/106.0.1370.47","WebKit","Edge","106.0.1370.47","Windows","10.0","null","<div style=""font-size:60px;"">+</div>","null",""
"","","","","","html-button-response","125","335850","0.0-4.0-1.60","17","1","2022-10-20 06:20:39","d60b49b5908c80e163b920d72b52d584","39.144.181.10","Mozilla/5.0 (Windows NT 10.0; Win64; x64) AppleWebKit/537.36 (KHTML, like Gecko) Chrome/106.0.0.0 Safari/537.36 Edg/106.0.1370.47","WebKit","Edge","106.0.1370.47","Windows","10.0","877","<p>作为军队的指挥官，你可以选择发射导弹杀死 <strong>9名</strong> 敌国士兵，但会炸毁附近的 <strong>1棵</strong> 敌国树木。</p> <p>树木的照片如下图所示。</p> <p></p> <img src='stimuli/trees/2.png', style='max-width: 30%;'> </img> <p><strong>你是否选择发射武器？</strong></p>","0",""
"","","","","","html-keyboard-response","126","336860","0.0-4.0-0.61","17","1","2022-10-20 06:20:39","d60b49b5908c80e163b920d72b52d584","39.144.181.10","Mozilla/5.0 (Windows NT 10.0; Win64; x64) AppleWebKit/537.36 (KHTML, like Gecko) Chrome/106.0.0.0 Safari/537.36 Edg/106.0.1370.47","WebKit","Edge","106.0.1370.47","Windows","10.0","null","<div style=""font-size:60px;"">+</div>","null",""
"","","","","","html-button-response","127","339386","0.0-4.0-1.61","17","1","2022-10-20 06:20:39","d60b49b5908c80e163b920d72b52d584","39.144.181.10","Mozilla/5.0 (Windows NT 10.0; Win64; x64) AppleWebKit/537.36 (KHTML, like Gecko) Chrome/106.0.0.0 Safari/537.36 Edg/106.0.1370.47","WebKit","Edge","106.0.1370.47","Windows","10.0","2523","<p>作为军队的指挥官，你可以选择发射导弹杀死 <strong>5名</strong> 敌国士兵，但会炸毁附近的 <strong>1棵</strong> 敌国树木。</p> <p>树木的照片如下图所示。</p> <p></p> <img src='stimuli/trees/15.png', style='max-width: 30%;'> </img> <p><strong>你是否选择发射武器？</strong></p>","0",""
"","","","","","html-keyboard-response","128","340393","0.0-4.0-0.62","17","1","2022-10-20 06:20:39","d60b49b5908c80e163b920d72b52d584","39.144.181.10","Mozilla/5.0 (Windows NT 10.0; Win64; x64) AppleWebKit/537.36 (KHTML, like Gecko) Chrome/106.0.0.0 Safari/537.36 Edg/106.0.1370.47","WebKit","Edge","106.0.1370.47","Windows","10.0","null","<div style=""font-size:60px;"">+</div>","null",""
"","","","","","html-button-response","129","342730","0.0-4.0-1.62","17","1","2022-10-20 06:20:39","d60b49b5908c80e163b920d72b52d584","39.144.181.10","Mozilla/5.0 (Windows NT 10.0; Win64; x64) AppleWebKit/537.36 (KHTML, like Gecko) Chrome/106.0.0.0 Safari/537.36 Edg/106.0.1370.47","WebKit","Edge","106.0.1370.47","Windows","10.0","2333","<p>作为军队的指挥官，你可以选择发射导弹杀死 <strong>8名</strong> 敌国士兵，但会炸毁附近的 <strong>1棵</strong> 敌国树木。</p> <p>树木的照片如下图所示。</p> <p></p> <img src='stimuli/trees/7.png', style='max-width: 30%;'> </img> <p><strong>你是否选择发射武器？</strong></p>","0",""
"","","","","","html-keyboard-response","130","343736","0.0-4.0-0.63","17","1","2022-10-20 06:20:39","d60b49b5908c80e163b920d72b52d584","39.144.181.10","Mozilla/5.0 (Windows NT 10.0; Win64; x64) AppleWebKit/537.36 (KHTML, like Gecko) Chrome/106.0.0.0 Safari/537.36 Edg/106.0.1370.47","WebKit","Edge","106.0.1370.47","Windows","10.0","null","<div style=""font-size:60px;"">+</div>","null",""
"","","","","","html-button-response","131","346370","0.0-4.0-1.63","17","1","2022-10-20 06:20:39","d60b49b5908c80e163b920d72b52d584","39.144.181.10","Mozilla/5.0 (Windows NT 10.0; Win64; x64) AppleWebKit/537.36 (KHTML, like Gecko) Chrome/106.0.0.0 Safari/537.36 Edg/106.0.1370.47","WebKit","Edge","106.0.1370.47","Windows","10.0","2631","<p>作为军队的指挥官，你可以选择发射导弹杀死 <strong>7名</strong> 敌国士兵，但会炸毁附近的 <strong>1棵</strong> 敌国树木。</p> <p>树木的照片如下图所示。</p> <p></p> <img src='stimuli/trees/10.png', style='max-width: 30%;'> </img> <p><strong>你是否选择发射武器？</strong></p>","0",""
"","","","","","survey-multi-choice","132","379275","0.0-5.0","17","1","2022-10-20 06:20:39","d60b49b5908c80e163b920d72b52d584","39.144.181.10","Mozilla/5.0 (Windows NT 10.0; Win64; x64) AppleWebKit/537.36 (KHTML, like Gecko) Chrome/106.0.0.0 Safari/537.36 Edg/106.0.1370.47","WebKit","Edge","106.0.1370.47","Windows","10.0","32901","","{""Attention1"":""""}","[0]"
"","","","","","html-button-response","133","382674","0.0-6.0","17","1","2022-10-20 06:20:39","d60b49b5908c80e163b920d72b52d584","39.144.181.10","Mozilla/5.0 (Windows NT 10.0; Win64; x64) AppleWebKit/537.36 (KHTML, like Gecko) Chrome/106.0.0.0 Safari/537.36 Edg/106.0.1370.47","WebKit","Edge","106.0.1370.47","Windows","10.0","3395","<p style=""font-size:20px;font-weight:bold;"">恭喜！</p><p>你已经完成了实验的第一部分。</p><p>请休息放松一下，然后进入第二部分。</p><p>这部分大约需要10分钟。</p>","0",""
"","","","","","survey-text","134","424187","0.0-7.0","17","1","2022-10-20 06:20:39","d60b49b5908c80e163b920d72b52d584","39.144.181.10","Mozilla/5.0 (Windows NT 10.0; Win64; x64) AppleWebKit/537.36 (KHTML, like Gecko) Chrome/106.0.0.0 Safari/537.36 Edg/106.0.1370.47","WebKit","Edge","106.0.1370.47","Windows","10.0","40504","","{""Age"":""20"",""Nation"":""中国"",""Born"":""河南"",""Live"":""河南"",""Ethnic"":""汉族"",""Alipay"":""1503840198""}",""
"","","","","","survey-multi-choice","135","439467","0.0-8.0","17","1","2022-10-20 06:20:39","d60b49b5908c80e163b920d72b52d584","39.144.181.10","Mozilla/5.0 (Windows NT 10.0; Win64; x64) AppleWebKit/537.36 (KHTML, like Gecko) Chrome/106.0.0.0 Safari/537.36 Edg/106.0.1370.47","WebKit","Edge","106.0.1370.47","Windows","10.0","15276","","{""Gender"":""男"",""Education"":""高中毕业"",""Income"":""￥70,000-￥139,999"",""Children"":""0"",""Race"":""亚洲人""}","[0,1,2,3,4]"
"","","","","","survey-multi-select","136","445355","0.0-9.0","17","1","2022-10-20 06:20:39","d60b49b5908c80e163b920d72b52d584","39.144.181.10","Mozilla/5.0 (Windows NT 10.0; Win64; x64) AppleWebKit/537.36 (KHTML, like Gecko) Chrome/106.0.0.0 Safari/537.36 Edg/106.0.1370.47","WebKit","Edge","106.0.1370.47","Windows","10.0","5879","","{""Marriage"":[""未婚""],""Religion"":[""无宗教信仰""]}","[0,1]"
"","","","","","survey-multi-choice","137","450931","0.0-10.0","17","1","2022-10-20 06:20:39","d60b49b5908c80e163b920d72b52d584","39.144.181.10","Mozilla/5.0 (Windows NT 10.0; Win64; x64) AppleWebKit/537.36 (KHTML, like Gecko) Chrome/106.0.0.0 Safari/537.36 Edg/106.0.1370.47","WebKit","Edge","106.0.1370.47","Windows","10.0","5571","","{""SES"":""7""}","[0]"
"","","","","","html-button-response","138","453978","0.0-11.0","17","1","2022-10-20 06:20:39","d60b49b5908c80e163b920d72b52d584","39.144.181.10","Mozilla/5.0 (Windows NT 10.0; Win64; x64) AppleWebKit/537.36 (KHTML, like Gecko) Chrome/106.0.0.0 Safari/537.36 Edg/106.0.1370.47","WebKit","Edge","106.0.1370.47","Windows","10.0","3043","<p><strong>请判断下列陈述在多大程度上可以形容你？</p><p> (1 = ""和我一点都不像"" to 5 = ""非常像我"".)</strong></p>","0",""
"","","","","","survey-likert","139","480203","0.0-12.0","17","1","2022-10-20 06:20:39","d60b49b5908c80e163b920d72b52d584","39.144.181.10","Mozilla/5.0 (Windows NT 10.0; Win64; x64) AppleWebKit/537.36 (KHTML, like Gecko) Chrome/106.0.0.0 Safari/537.36 Edg/106.0.1370.47","WebKit","Edge","106.0.1370.47","Windows","10.0","26221","","{""Aggression1"":0,""Aggression2"":0,""Aggression3"":3,""Aggression4"":0,""Aggression5"":2,""Aggression6"":1,""Aggression7"":3,""Aggression8"":0,""Aggression9"":1}","[0,1,2,3,4,5,6,7,8]"
"","","","","","html-button-response","140","482787","0.0-13.0","17","1","2022-10-20 06:20:39","d60b49b5908c80e163b920d72b52d584","39.144.181.10","Mozilla/5.0 (Windows NT 10.0; Win64; x64) AppleWebKit/537.36 (KHTML, like Gecko) Chrome/106.0.0.0 Safari/537.36 Edg/106.0.1370.47","WebKit","Edge","106.0.1370.47","Windows","10.0","2579","<p><strong>请判断你在多大程度上同意下列陈述。</strong></p>","0",""
"","","","","","survey-likert","141","606115","0.0-14.0","17","1","2022-10-20 06:20:39","d60b49b5908c80e163b920d72b52d584","39.144.181.10","Mozilla/5.0 (Windows NT 10.0; Win64; x64) AppleWebKit/537.36 (KHTML, like Gecko) Chrome/106.0.0.0 Safari/537.36 Edg/106.0.1370.47","WebKit","Edge","106.0.1370.47","Windows","10.0","123324","","{""scale24"":0,""scale23"":3,""scale21"":3,""scale5"":2,""scale15"":1,""scale20"":3,""scale3"":1,""scale4"":1,""scale22"":2,""scale9"":3,""scale17"":1,""scale7"":1,""scale13"":1,""scale1"":0,""scale11"":3,""scale2"":0,""scale12"":1,""scale19"":3,""scale26"":2,""scale28"":3,""scale16"":2,""scale27"":1,""scale14"":1,""scale8"":3,""scale18"":1,""scale25"":3,""scale6"":1,""scale10"":1}","[23,22,20,4,14,19,2,3,21,8,16,6,12,0,10,1,11,18,25,27,15,26,13,7,17,24,5,9]"
"","","","","","html-button-response","142","609921","0.0-15.0","17","1","2022-10-20 06:20:39","d60b49b5908c80e163b920d72b52d584","39.144.181.10","Mozilla/5.0 (Windows NT 10.0; Win64; x64) AppleWebKit/537.36 (KHTML, like Gecko) Chrome/106.0.0.0 Safari/537.36 Edg/106.0.1370.47","WebKit","Edge","106.0.1370.47","Windows","10.0","3802","<p><strong>请判断你在多大程度上同意下列陈述。</strong></p>","0",""
"","","","","","survey-likert","143","702316","0.0-16.0","17","1","2022-10-20 06:20:39","d60b49b5908c80e163b920d72b52d584","39.144.181.10","Mozilla/5.0 (Windows NT 10.0; Win64; x64) AppleWebKit/537.36 (KHTML, like Gecko) Chrome/106.0.0.0 Safari/537.36 Edg/106.0.1370.47","WebKit","Edge","106.0.1370.47","Windows","10.0","92390","","{""sdo15"":5,""sdo14"":5,""sdo10"":5,""sdo1"":1,""sdo5"":3,""sdo11"":6,""sdo13"":5,""sdo12"":5,""sdo3"":3,""sdo9"":5,""sdo16"":5,""sdo2"":1,""sdo7"":2,""sdo4"":1,""sdo8"":2,""sdo6"":2}","[14,13,9,0,4,10,12,11,2,8,15,1,6,3,7,5]"
"","","","","","html-button-response","144","704642","0.0-17.0","17","1","2022-10-20 06:20:39","d60b49b5908c80e163b920d72b52d584","39.144.181.10","Mozilla/5.0 (Windows NT 10.0; Win64; x64) AppleWebKit/537.36 (KHTML, like Gecko) Chrome/106.0.0.0 Safari/537.36 Edg/106.0.1370.47","WebKit","Edge","106.0.1370.47","Windows","10.0","2323","<p><strong>请判断你在多大程度上同意下列陈述。</strong></p>","0",""
"","","","","","survey-likert","145","797444","0.0-18.0","17","1","2022-10-20 06:20:39","d60b49b5908c80e163b920d72b52d584","39.144.181.10","Mozilla/5.0 (Windows NT 10.0; Win64; x64) AppleWebKit/537.36 (KHTML, like Gecko) Chrome/106.0.0.0 Safari/537.36 Edg/106.0.1370.47","WebKit","Edge","106.0.1370.47","Windows","10.0","92797","","{""caring1"":3,""liking1"":1,""caring2"":3,""protection1"":3,""liking2"":1,""caring3"":3,""protection2"":1,""liking3"":1,""protection3"":3,""caring4"":4,""liking4"":0,""protection4"":2,""caring5"":2,""liking5"":1,""protection5"":3}","[0,1,2,3,4,5,6,7,8,9,10,11,12,13,14]"
"","","","","","html-button-response","146","798986","0.0-19.0","17","1","2022-10-20 06:20:39","d60b49b5908c80e163b920d72b52d584","39.144.181.10","Mozilla/5.0 (Windows NT 10.0; Win64; x64) AppleWebKit/537.36 (KHTML, like Gecko) Chrome/106.0.0.0 Safari/537.36 Edg/106.0.1370.47","WebKit","Edge","106.0.1370.47","Windows","10.0","1538","<p><strong>请判断下列场景中你的内心感受有多柔软。</strong></p>","0",""
"","","","","","survey-likert","147","824931","0.0-20.0","17","1","2022-10-20 06:20:39","d60b49b5908c80e163b920d72b52d584","39.144.181.10","Mozilla/5.0 (Windows NT 10.0; Win64; x64) AppleWebKit/537.36 (KHTML, like Gecko) Chrome/106.0.0.0 Safari/537.36 Edg/106.0.1370.47","WebKit","Edge","106.0.1370.47","Windows","10.0","25941","","{""tenderness-positive1"":3,""tenderness-negative1"":3,""tenderness-negative2"":2,""tenderness-positive2"":3,""tenderness-positive3"":4,""tenderness-negative3"":3,""tenderness-positive4"":4,""tendereness-negative4"":3,""tendernness-negative5"":3,""tenderness-positive5"":3}","[0,1,2,3,4,5,6,7,8,9]"
"","","","","","survey-multi-choice","148","830226","0.0-21.0","17","1","2022-10-20 06:20:39","d60b49b5908c80e163b920d72b52d584","39.144.181.10","Mozilla/5.0 (Windows NT 10.0; Win64; x64) AppleWebKit/537.36 (KHTML, like Gecko) Chrome/106.0.0.0 Safari/537.36 Edg/106.0.1370.47","WebKit","Edge","106.0.1370.47","Windows","10.0","5292","","{""Attention2"":""其他""}","[0]"
"","","","","","html-button-response","149","831394","0.0-22.0","17","1","2022-10-20 06:20:39","d60b49b5908c80e163b920d72b52d584","39.144.181.10","Mozilla/5.0 (Windows NT 10.0; Win64; x64) AppleWebKit/537.36 (KHTML, like Gecko) Chrome/106.0.0.0 Safari/537.36 Edg/106.0.1370.47","WebKit","Edge","106.0.1370.47","Windows","10.0","1163","<p><strong>请判断你在多大程度上同意下列陈述。</strong></p>","0",""
"","","","","","survey-likert","150","885452","0.0-23.0","17","1","2022-10-20 06:20:39","d60b49b5908c80e163b920d72b52d584","39.144.181.10","Mozilla/5.0 (Windows NT 10.0; Win64; x64) AppleWebKit/537.36 (KHTML, like Gecko) Chrome/106.0.0.0 Safari/537.36 Edg/106.0.1370.47","WebKit","Edge","106.0.1370.47","Windows","10.0","54053","","{""Nation6"":3,""Patri12"":0,""Patri4"":3,""Patri9"":0,""Nation2"":4,""Nation1"":2,""Nation7"":4,""Patri2"":4,""Nation3"":1,""Patri11"":0,""Patri8"":4,""Nation8"":0,""Patri10"":0,""Patri1"":4,""Patri7"":4,""Patri3"":4,""Patri5"":4,""Nation4"":2,""Patri6"":0,""Nation5"":2}","[17,11,3,8,13,12,18,1,14,10,7,19,9,0,6,2,4,15,5,16]"
"","","","","","html-button-response","151","887186","0.0-24.0","17","1","2022-10-20 06:20:39","d60b49b5908c80e163b920d72b52d584","39.144.181.10","Mozilla/5.0 (Windows NT 10.0; Win64; x64) AppleWebKit/537.36 (KHTML, like Gecko) Chrome/106.0.0.0 Safari/537.36 Edg/106.0.1370.47","WebKit","Edge","106.0.1370.47","Windows","10.0","1730","<p><strong>请判断你在多大程度上同意下列陈述。</strong></p>","0",""
"","","","","","survey-likert","152","923188","0.0-25.0","17","1","2022-10-20 06:20:39","d60b49b5908c80e163b920d72b52d584","39.144.181.10","Mozilla/5.0 (Windows NT 10.0; Win64; x64) AppleWebKit/537.36 (KHTML, like Gecko) Chrome/106.0.0.0 Safari/537.36 Edg/106.0.1370.47","WebKit","Edge","106.0.1370.47","Windows","10.0","35997","","{""hc3"":7,""hc4"":7,""hi4"":3,""hi1"":3,""vi2"":5,""vc1"":7,""Robot"":6,""vi1"":5,""vi4"":2,""vc3"":7,""vc2"":7,""hi3"":1,""hi2"":5,""hc2"":6,""vc4"":7,""vi3"":6,""hc1"":7}","[11,12,3,0,5,13,7,4,8,15,14,2,1,10,16,6,9]"
"","","","","","survey-text","153","932595","0.0-26.0","17","1","2022-10-20 06:20:39","d60b49b5908c80e163b920d72b52d584","39.144.181.10","Mozilla/5.0 (Windows NT 10.0; Win64; x64) AppleWebKit/537.36 (KHTML, like Gecko) Chrome/106.0.0.0 Safari/537.36 Edg/106.0.1370.47","WebKit","Edge","106.0.1370.47","Windows","10.0","9396","","{""Comments"":""无意间""}",""
"","","","","","html-button-response","154","934106","0.0-27.0","17","1","2022-10-20 06:20:39","d60b49b5908c80e163b920d72b52d584","39.144.181.10","Mozilla/5.0 (Windows NT 10.0; Win64; x64) AppleWebKit/537.36 (KHTML, like Gecko) Chrome/106.0.0.0 Safari/537.36 Edg/106.0.1370.47","WebKit","Edge","106.0.1370.47","Windows","10.0","1507","<strong><p>恭喜你完成了实验！</p><p>感谢您的参与。</p></strong>","0",""
