"success","timeout","failed_images","failed_audio","failed_video","trial_type","trial_index","time_elapsed","internal_node_id","run_id","condition","recorded_at","source_code_version","ip","user_agent","device","browser","browser_version","platform","platform_version","rt","stimulus","response","question_order"
"true","false","[]","[]","[]","preload","0","4326","0.0-0.0","26","1","2022-10-20 06:44:15","d60b49b5908c80e163b920d72b52d584","120.197.198.8","Mozilla/5.0 (Windows NT 6.1; WOW64) AppleWebKit/537.36 (KHTML, like Gecko) Chrome/105.0.0.0 Safari/537.36","WebKit","Chrome","105.0.0.0","Windows","6.1","","","",""
"true","","","","","fullscreen","1","9104","0.0-1.0","26","1","2022-10-20 06:44:15","d60b49b5908c80e163b920d72b52d584","120.197.198.8","Mozilla/5.0 (Windows NT 6.1; WOW64) AppleWebKit/537.36 (KHTML, like Gecko) Chrome/105.0.0.0 Safari/537.36","WebKit","Chrome","105.0.0.0","Windows","6.1","","","",""
"","","","","","html-button-response","2","20807","0.0-2.0","26","1","2022-10-20 06:44:15","d60b49b5908c80e163b920d72b52d584","120.197.198.8","Mozilla/5.0 (Windows NT 6.1; WOW64) AppleWebKit/537.36 (KHTML, like Gecko) Chrome/105.0.0.0 Safari/537.36","WebKit","Chrome","105.0.0.0","Windows","6.1","11696","<p style=""font-size:20px;font-weight:bold;"">实验知情同意书</p><p style=""text-align:left;""><strong>实验名称：</strong>社会冲突研究</p><p style=""text-align:left;""><strong>主要研究者：</strong>韩晓春副教授（北京师范大学心理学部）</p><p style=""text-align:left;""><strong>联系方式：</strong>发送邮件至xiaochun.han@bnu.edu.cn</p><p style=""text-align:left;""><strong>研究目的：</strong>研究旨在了解人类面对群体冲突时的决策方式，以及相关的心理学特质。实验调查大约需要20分钟。</p><p style=""text-align:left;""><strong>实验流程：</strong>实验包含两部分。第一部分呈现一系列群体冲突场景，请你决定如何对这些冲突进行反应，大约需要10分钟完成。第二部分包含一系列人口统计学信息收集和心理学问卷，大约需要10分钟完成。</p><p style=""text-align:left;""><strong>参加及退出规则：</strong>参加本实验完全取决于您的个人意愿。在参与过程中，您可以随时退出，并且不用承担任何后果。</p><p style=""text-align:left;""><strong>隐私：</strong>本实验完全匿名进行，不会收集您的姓名或其他能够识别您身份的信息。实验中收集的作答仅用作科学研究使用，可能会在学术期刊/书籍上发表，或者用于教学，您的数据未来可能会和其他研究者或实验室分享，但您的个人身份不会被识别。</p><p style=""text-align:left;""><strong>实验报酬：</strong>实验完成后，您将获得15元人民币报酬，以感谢您的时间和努力。调查问卷中包含几道题目用以测验您作答时的认真度。只有完成全部实验，并且正确回答认真度测验的被试才能获得实验报酬。实验报酬将通过支付宝转账发放。</p><p style=""text-align:left;font-size:20px;""><strong>如果您同意以上实验知情同意书的内容，请点击'同意并且开始实验'按钮；否则请关闭浏览器界面，退出实验。</strong></p>","0",""
"","","","","","html-button-response","3","25254","0.0-3.0","26","1","2022-10-20 06:44:15","d60b49b5908c80e163b920d72b52d584","120.197.198.8","Mozilla/5.0 (Windows NT 6.1; WOW64) AppleWebKit/537.36 (KHTML, like Gecko) Chrome/105.0.0.0 Safari/537.36","WebKit","Chrome","105.0.0.0","Windows","6.1","4440","<p ><strong>实验任务一：</strong></p><p>请想象你的国家与另一个国家发生了军事冲突。</p><p>你是国家军队的指挥官，你将如何在冲突中进行决策。</p><p>具体来说，作为军队指挥官，请你决定是否发射导弹进行打击。</p><p>接下来，你会面对一系列场景，请仔细阅读每个场景，然后进行决策。</p><p>这部分实验任务大约需要10分钟。</p><p><strong>实验过程中，请集中注意力。</strong></p>","0",""
"","","","","","html-keyboard-response","4","26257","0.0-4.0-0.0","26","1","2022-10-20 06:44:15","d60b49b5908c80e163b920d72b52d584","120.197.198.8","Mozilla/5.0 (Windows NT 6.1; WOW64) AppleWebKit/537.36 (KHTML, like Gecko) Chrome/105.0.0.0 Safari/537.36","WebKit","Chrome","105.0.0.0","Windows","6.1","null","<div style=""font-size:60px;"">+</div>","null",""
"","","","","","html-button-response","5","35317","0.0-4.0-1.0","26","1","2022-10-20 06:44:15","d60b49b5908c80e163b920d72b52d584","120.197.198.8","Mozilla/5.0 (Windows NT 6.1; WOW64) AppleWebKit/537.36 (KHTML, like Gecko) Chrome/105.0.0.0 Safari/537.36","WebKit","Chrome","105.0.0.0","Windows","6.1","9052","<p>作为军队的指挥官，你可以选择发射导弹杀死 <strong>1名</strong> 敌国士兵，但会误杀附近的 <strong>1名</strong> 敌国平民。</p> <p>平民照片如下图所示。</p> <p></p> <img src='stimuli/faces/NCM2.jpg', style='max-width: 30%;'> </img> <p><strong>你是否选择发射武器？</strong></p>","1",""
"","","","","","html-keyboard-response","6","36322","0.0-4.0-0.1","26","1","2022-10-20 06:44:15","d60b49b5908c80e163b920d72b52d584","120.197.198.8","Mozilla/5.0 (Windows NT 6.1; WOW64) AppleWebKit/537.36 (KHTML, like Gecko) Chrome/105.0.0.0 Safari/537.36","WebKit","Chrome","105.0.0.0","Windows","6.1","null","<div style=""font-size:60px;"">+</div>","null",""
"","","","","","html-button-response","7","40070","0.0-4.0-1.1","26","1","2022-10-20 06:44:15","d60b49b5908c80e163b920d72b52d584","120.197.198.8","Mozilla/5.0 (Windows NT 6.1; WOW64) AppleWebKit/537.36 (KHTML, like Gecko) Chrome/105.0.0.0 Safari/537.36","WebKit","Chrome","105.0.0.0","Windows","6.1","3740","<p>作为军队的指挥官，你可以选择发射导弹杀死 <strong>5名</strong> 敌国士兵，但会炸毁附近的 <strong>1棵</strong> 敌国树木。</p> <p>树木的照片如下图所示。</p> <p></p> <img src='stimuli/trees/9.png', style='max-width: 30%;'> </img> <p><strong>你是否选择发射武器？</strong></p>","0",""
"","","","","","html-keyboard-response","8","41073","0.0-4.0-0.2","26","1","2022-10-20 06:44:15","d60b49b5908c80e163b920d72b52d584","120.197.198.8","Mozilla/5.0 (Windows NT 6.1; WOW64) AppleWebKit/537.36 (KHTML, like Gecko) Chrome/105.0.0.0 Safari/537.36","WebKit","Chrome","105.0.0.0","Windows","6.1","null","<div style=""font-size:60px;"">+</div>","null",""
"","","","","","html-button-response","9","43214","0.0-4.0-1.2","26","1","2022-10-20 06:44:15","d60b49b5908c80e163b920d72b52d584","120.197.198.8","Mozilla/5.0 (Windows NT 6.1; WOW64) AppleWebKit/537.36 (KHTML, like Gecko) Chrome/105.0.0.0 Safari/537.36","WebKit","Chrome","105.0.0.0","Windows","6.1","2136","<p>作为军队的指挥官，你可以选择发射导弹杀死 <strong>1名</strong> 敌国士兵，但会炸毁附近的 <strong>1棵</strong> 敌国树木。</p> <p>树木的照片如下图所示。</p> <p></p> <img src='stimuli/trees/10.png', style='max-width: 30%;'> </img> <p><strong>你是否选择发射武器？</strong></p>","0",""
"","","","","","html-keyboard-response","10","44216","0.0-4.0-0.3","26","1","2022-10-20 06:44:15","d60b49b5908c80e163b920d72b52d584","120.197.198.8","Mozilla/5.0 (Windows NT 6.1; WOW64) AppleWebKit/537.36 (KHTML, like Gecko) Chrome/105.0.0.0 Safari/537.36","WebKit","Chrome","105.0.0.0","Windows","6.1","null","<div style=""font-size:60px;"">+</div>","null",""
"","","","","","html-button-response","11","45966","0.0-4.0-1.3","26","1","2022-10-20 06:44:15","d60b49b5908c80e163b920d72b52d584","120.197.198.8","Mozilla/5.0 (Windows NT 6.1; WOW64) AppleWebKit/537.36 (KHTML, like Gecko) Chrome/105.0.0.0 Safari/537.36","WebKit","Chrome","105.0.0.0","Windows","6.1","1745","<p>作为军队的指挥官，你可以选择发射导弹杀死 <strong>3名</strong> 敌国士兵，但会炸毁附近的 <strong>1棵</strong> 敌国树木。</p> <p>树木的照片如下图所示。</p> <p></p> <img src='stimuli/trees/13.png', style='max-width: 30%;'> </img> <p><strong>你是否选择发射武器？</strong></p>","0",""
"","","","","","html-keyboard-response","12","46968","0.0-4.0-0.4","26","1","2022-10-20 06:44:15","d60b49b5908c80e163b920d72b52d584","120.197.198.8","Mozilla/5.0 (Windows NT 6.1; WOW64) AppleWebKit/537.36 (KHTML, like Gecko) Chrome/105.0.0.0 Safari/537.36","WebKit","Chrome","105.0.0.0","Windows","6.1","null","<div style=""font-size:60px;"">+</div>","null",""
"","","","","","html-button-response","13","53302","0.0-4.0-1.4","26","1","2022-10-20 06:44:15","d60b49b5908c80e163b920d72b52d584","120.197.198.8","Mozilla/5.0 (Windows NT 6.1; WOW64) AppleWebKit/537.36 (KHTML, like Gecko) Chrome/105.0.0.0 Safari/537.36","WebKit","Chrome","105.0.0.0","Windows","6.1","6330","<p>作为军队的指挥官，你可以选择发射导弹杀死 <strong>9名</strong> 敌国士兵，但会误杀附近的 <strong>1名</strong> 敌国平民。</p> <p>平民照片如下图所示。</p> <p></p> <img src='stimuli/faces/NCM2.jpg', style='max-width: 30%;'> </img> <p><strong>你是否选择发射武器？</strong></p>","1",""
"","","","","","html-keyboard-response","14","54304","0.0-4.0-0.5","26","1","2022-10-20 06:44:15","d60b49b5908c80e163b920d72b52d584","120.197.198.8","Mozilla/5.0 (Windows NT 6.1; WOW64) AppleWebKit/537.36 (KHTML, like Gecko) Chrome/105.0.0.0 Safari/537.36","WebKit","Chrome","105.0.0.0","Windows","6.1","null","<div style=""font-size:60px;"">+</div>","null",""
"","","","","","html-button-response","15","55934","0.0-4.0-1.5","26","1","2022-10-20 06:44:15","d60b49b5908c80e163b920d72b52d584","120.197.198.8","Mozilla/5.0 (Windows NT 6.1; WOW64) AppleWebKit/537.36 (KHTML, like Gecko) Chrome/105.0.0.0 Safari/537.36","WebKit","Chrome","105.0.0.0","Windows","6.1","1625","<p>作为军队的指挥官，你可以选择发射导弹杀死 <strong>4名</strong> 敌国士兵，但会炸毁附近的 <strong>1棵</strong> 敌国树木。</p> <p>树木的照片如下图所示。</p> <p></p> <img src='stimuli/trees/14.png', style='max-width: 30%;'> </img> <p><strong>你是否选择发射武器？</strong></p>","0",""
"","","","","","html-keyboard-response","16","56938","0.0-4.0-0.6","26","1","2022-10-20 06:44:15","d60b49b5908c80e163b920d72b52d584","120.197.198.8","Mozilla/5.0 (Windows NT 6.1; WOW64) AppleWebKit/537.36 (KHTML, like Gecko) Chrome/105.0.0.0 Safari/537.36","WebKit","Chrome","105.0.0.0","Windows","6.1","null","<div style=""font-size:60px;"">+</div>","null",""
"","","","","","html-button-response","17","60006","0.0-4.0-1.6","26","1","2022-10-20 06:44:15","d60b49b5908c80e163b920d72b52d584","120.197.198.8","Mozilla/5.0 (Windows NT 6.1; WOW64) AppleWebKit/537.36 (KHTML, like Gecko) Chrome/105.0.0.0 Safari/537.36","WebKit","Chrome","105.0.0.0","Windows","6.1","3063","<p>作为军队的指挥官，你可以选择发射导弹杀死 <strong>3名</strong> 敌国士兵，但会误杀附近的 <strong>1名</strong> 敌国平民。</p> <p>平民照片如下图所示。</p> <p></p> <img src='stimuli/faces/NCM4.jpg', style='max-width: 30%;'> </img> <p><strong>你是否选择发射武器？</strong></p>","1",""
"","","","","","html-keyboard-response","18","61010","0.0-4.0-0.7","26","1","2022-10-20 06:44:15","d60b49b5908c80e163b920d72b52d584","120.197.198.8","Mozilla/5.0 (Windows NT 6.1; WOW64) AppleWebKit/537.36 (KHTML, like Gecko) Chrome/105.0.0.0 Safari/537.36","WebKit","Chrome","105.0.0.0","Windows","6.1","null","<div style=""font-size:60px;"">+</div>","null",""
"","","","","","html-button-response","19","63990","0.0-4.0-1.7","26","1","2022-10-20 06:44:15","d60b49b5908c80e163b920d72b52d584","120.197.198.8","Mozilla/5.0 (Windows NT 6.1; WOW64) AppleWebKit/537.36 (KHTML, like Gecko) Chrome/105.0.0.0 Safari/537.36","WebKit","Chrome","105.0.0.0","Windows","6.1","2976","<p>作为军队的指挥官，你可以选择发射导弹杀死 <strong>2名</strong> 敌国士兵，但会误杀附近的 <strong>1名</strong> 敌国平民。</p> <p>平民照片如下图所示。</p> <p></p> <img src='stimuli/faces/NCM1.jpg', style='max-width: 30%;'> </img> <p><strong>你是否选择发射武器？</strong></p>","1",""
"","","","","","html-keyboard-response","20","64994","0.0-4.0-0.8","26","1","2022-10-20 06:44:15","d60b49b5908c80e163b920d72b52d584","120.197.198.8","Mozilla/5.0 (Windows NT 6.1; WOW64) AppleWebKit/537.36 (KHTML, like Gecko) Chrome/105.0.0.0 Safari/537.36","WebKit","Chrome","105.0.0.0","Windows","6.1","null","<div style=""font-size:60px;"">+</div>","null",""
"","","","","","html-button-response","21","66877","0.0-4.0-1.8","26","1","2022-10-20 06:44:15","d60b49b5908c80e163b920d72b52d584","120.197.198.8","Mozilla/5.0 (Windows NT 6.1; WOW64) AppleWebKit/537.36 (KHTML, like Gecko) Chrome/105.0.0.0 Safari/537.36","WebKit","Chrome","105.0.0.0","Windows","6.1","1879","<p>作为军队的指挥官，你可以选择发射导弹杀死 <strong>3名</strong> 敌国士兵，但会炸毁附近的 <strong>1棵</strong> 敌国树木。</p> <p>树木的照片如下图所示。</p> <p></p> <img src='stimuli/trees/1.png', style='max-width: 30%;'> </img> <p><strong>你是否选择发射武器？</strong></p>","0",""
"","","","","","html-keyboard-response","22","67880","0.0-4.0-0.9","26","1","2022-10-20 06:44:15","d60b49b5908c80e163b920d72b52d584","120.197.198.8","Mozilla/5.0 (Windows NT 6.1; WOW64) AppleWebKit/537.36 (KHTML, like Gecko) Chrome/105.0.0.0 Safari/537.36","WebKit","Chrome","105.0.0.0","Windows","6.1","null","<div style=""font-size:60px;"">+</div>","null",""
"","","","","","html-button-response","23","71581","0.0-4.0-1.9","26","1","2022-10-20 06:44:15","d60b49b5908c80e163b920d72b52d584","120.197.198.8","Mozilla/5.0 (Windows NT 6.1; WOW64) AppleWebKit/537.36 (KHTML, like Gecko) Chrome/105.0.0.0 Safari/537.36","WebKit","Chrome","105.0.0.0","Windows","6.1","3698","<p>作为军队的指挥官，你可以选择发射导弹杀死 <strong>1名</strong> 敌国士兵，但会误杀附近的 <strong>1名</strong> 敌国平民。</p> <p>平民照片如下图所示。</p> <p></p> <img src='stimuli/faces/NCM7.jpg', style='max-width: 30%;'> </img> <p><strong>你是否选择发射武器？</strong></p>","1",""
"","","","","","html-keyboard-response","24","72584","0.0-4.0-0.10","26","1","2022-10-20 06:44:15","d60b49b5908c80e163b920d72b52d584","120.197.198.8","Mozilla/5.0 (Windows NT 6.1; WOW64) AppleWebKit/537.36 (KHTML, like Gecko) Chrome/105.0.0.0 Safari/537.36","WebKit","Chrome","105.0.0.0","Windows","6.1","null","<div style=""font-size:60px;"">+</div>","null",""
"","","","","","html-button-response","25","76766","0.0-4.0-1.10","26","1","2022-10-20 06:44:15","d60b49b5908c80e163b920d72b52d584","120.197.198.8","Mozilla/5.0 (Windows NT 6.1; WOW64) AppleWebKit/537.36 (KHTML, like Gecko) Chrome/105.0.0.0 Safari/537.36","WebKit","Chrome","105.0.0.0","Windows","6.1","4176","<p>作为军队的指挥官，你可以选择发射导弹杀死 <strong>8名</strong> 敌国士兵，但会炸毁附近的 <strong>1棵</strong> 敌国树木。</p> <p>树木的照片如下图所示。</p> <p></p> <img src='stimuli/trees/7.png', style='max-width: 30%;'> </img> <p><strong>你是否选择发射武器？</strong></p>","0",""
"","","","","","html-keyboard-response","26","77769","0.0-4.0-0.11","26","1","2022-10-20 06:44:15","d60b49b5908c80e163b920d72b52d584","120.197.198.8","Mozilla/5.0 (Windows NT 6.1; WOW64) AppleWebKit/537.36 (KHTML, like Gecko) Chrome/105.0.0.0 Safari/537.36","WebKit","Chrome","105.0.0.0","Windows","6.1","null","<div style=""font-size:60px;"">+</div>","null",""
"","","","","","html-button-response","27","84366","0.0-4.0-1.11","26","1","2022-10-20 06:44:15","d60b49b5908c80e163b920d72b52d584","120.197.198.8","Mozilla/5.0 (Windows NT 6.1; WOW64) AppleWebKit/537.36 (KHTML, like Gecko) Chrome/105.0.0.0 Safari/537.36","WebKit","Chrome","105.0.0.0","Windows","6.1","6591","<p>作为军队的指挥官，你可以选择发射导弹杀死 <strong>5名</strong> 敌国士兵，但会误杀附近的 <strong>1名</strong> 敌国平民。</p> <p>平民照片如下图所示。</p> <p></p> <img src='stimuli/faces/NCM6.jpg', style='max-width: 30%;'> </img> <p><strong>你是否选择发射武器？</strong></p>","1",""
"","","","","","html-keyboard-response","28","85369","0.0-4.0-0.12","26","1","2022-10-20 06:44:15","d60b49b5908c80e163b920d72b52d584","120.197.198.8","Mozilla/5.0 (Windows NT 6.1; WOW64) AppleWebKit/537.36 (KHTML, like Gecko) Chrome/105.0.0.0 Safari/537.36","WebKit","Chrome","105.0.0.0","Windows","6.1","null","<div style=""font-size:60px;"">+</div>","null",""
"","","","","","html-button-response","29","88014","0.0-4.0-1.12","26","1","2022-10-20 06:44:15","d60b49b5908c80e163b920d72b52d584","120.197.198.8","Mozilla/5.0 (Windows NT 6.1; WOW64) AppleWebKit/537.36 (KHTML, like Gecko) Chrome/105.0.0.0 Safari/537.36","WebKit","Chrome","105.0.0.0","Windows","6.1","2638","<p>作为军队的指挥官，你可以选择发射导弹杀死 <strong>3名</strong> 敌国士兵，但会误杀附近的 <strong>1名</strong> 敌国平民。</p> <p>平民照片如下图所示。</p> <p></p> <img src='stimuli/faces/NCM8.jpg', style='max-width: 30%;'> </img> <p><strong>你是否选择发射武器？</strong></p>","1",""
"","","","","","html-keyboard-response","30","89018","0.0-4.0-0.13","26","1","2022-10-20 06:44:15","d60b49b5908c80e163b920d72b52d584","120.197.198.8","Mozilla/5.0 (Windows NT 6.1; WOW64) AppleWebKit/537.36 (KHTML, like Gecko) Chrome/105.0.0.0 Safari/537.36","WebKit","Chrome","105.0.0.0","Windows","6.1","null","<div style=""font-size:60px;"">+</div>","null",""
"","","","","","html-button-response","31","90398","0.0-4.0-1.13","26","1","2022-10-20 06:44:15","d60b49b5908c80e163b920d72b52d584","120.197.198.8","Mozilla/5.0 (Windows NT 6.1; WOW64) AppleWebKit/537.36 (KHTML, like Gecko) Chrome/105.0.0.0 Safari/537.36","WebKit","Chrome","105.0.0.0","Windows","6.1","1375","<p>作为军队的指挥官，你可以选择发射导弹杀死 <strong>3名</strong> 敌国士兵，但会炸毁附近的 <strong>1棵</strong> 敌国树木。</p> <p>树木的照片如下图所示。</p> <p></p> <img src='stimuli/trees/5.png', style='max-width: 30%;'> </img> <p><strong>你是否选择发射武器？</strong></p>","0",""
"","","","","","html-keyboard-response","32","91403","0.0-4.0-0.14","26","1","2022-10-20 06:44:15","d60b49b5908c80e163b920d72b52d584","120.197.198.8","Mozilla/5.0 (Windows NT 6.1; WOW64) AppleWebKit/537.36 (KHTML, like Gecko) Chrome/105.0.0.0 Safari/537.36","WebKit","Chrome","105.0.0.0","Windows","6.1","null","<div style=""font-size:60px;"">+</div>","null",""
"","","","","","html-button-response","33","94102","0.0-4.0-1.14","26","1","2022-10-20 06:44:15","d60b49b5908c80e163b920d72b52d584","120.197.198.8","Mozilla/5.0 (Windows NT 6.1; WOW64) AppleWebKit/537.36 (KHTML, like Gecko) Chrome/105.0.0.0 Safari/537.36","WebKit","Chrome","105.0.0.0","Windows","6.1","2692","<p>作为军队的指挥官，你可以选择发射导弹杀死 <strong>8名</strong> 敌国士兵，但会误杀附近的 <strong>1名</strong> 敌国平民。</p> <p>平民照片如下图所示。</p> <p></p> <img src='stimuli/faces/NCM8.jpg', style='max-width: 30%;'> </img> <p><strong>你是否选择发射武器？</strong></p>","0",""
"","","","","","html-keyboard-response","34","95106","0.0-4.0-0.15","26","1","2022-10-20 06:44:15","d60b49b5908c80e163b920d72b52d584","120.197.198.8","Mozilla/5.0 (Windows NT 6.1; WOW64) AppleWebKit/537.36 (KHTML, like Gecko) Chrome/105.0.0.0 Safari/537.36","WebKit","Chrome","105.0.0.0","Windows","6.1","null","<div style=""font-size:60px;"">+</div>","null",""
"","","","","","html-button-response","35","96990","0.0-4.0-1.15","26","1","2022-10-20 06:44:15","d60b49b5908c80e163b920d72b52d584","120.197.198.8","Mozilla/5.0 (Windows NT 6.1; WOW64) AppleWebKit/537.36 (KHTML, like Gecko) Chrome/105.0.0.0 Safari/537.36","WebKit","Chrome","105.0.0.0","Windows","6.1","1879","<p>作为军队的指挥官，你可以选择发射导弹杀死 <strong>8名</strong> 敌国士兵，但会炸毁附近的 <strong>1棵</strong> 敌国树木。</p> <p>树木的照片如下图所示。</p> <p></p> <img src='stimuli/trees/16.png', style='max-width: 30%;'> </img> <p><strong>你是否选择发射武器？</strong></p>","0",""
"","","","","","html-keyboard-response","36","97994","0.0-4.0-0.16","26","1","2022-10-20 06:44:15","d60b49b5908c80e163b920d72b52d584","120.197.198.8","Mozilla/5.0 (Windows NT 6.1; WOW64) AppleWebKit/537.36 (KHTML, like Gecko) Chrome/105.0.0.0 Safari/537.36","WebKit","Chrome","105.0.0.0","Windows","6.1","null","<div style=""font-size:60px;"">+</div>","null",""
"","","","","","html-button-response","37","102493","0.0-4.0-1.16","26","1","2022-10-20 06:44:15","d60b49b5908c80e163b920d72b52d584","120.197.198.8","Mozilla/5.0 (Windows NT 6.1; WOW64) AppleWebKit/537.36 (KHTML, like Gecko) Chrome/105.0.0.0 Safari/537.36","WebKit","Chrome","105.0.0.0","Windows","6.1","4493","<p>作为军队的指挥官，你可以选择发射导弹杀死 <strong>9名</strong> 敌国士兵，但会误杀附近的 <strong>1名</strong> 敌国平民。</p> <p>平民照片如下图所示。</p> <p></p> <img src='stimuli/faces/NCM4.jpg', style='max-width: 30%;'> </img> <p><strong>你是否选择发射武器？</strong></p>","1",""
"","","","","","html-keyboard-response","38","103498","0.0-4.0-0.17","26","1","2022-10-20 06:44:15","d60b49b5908c80e163b920d72b52d584","120.197.198.8","Mozilla/5.0 (Windows NT 6.1; WOW64) AppleWebKit/537.36 (KHTML, like Gecko) Chrome/105.0.0.0 Safari/537.36","WebKit","Chrome","105.0.0.0","Windows","6.1","null","<div style=""font-size:60px;"">+</div>","null",""
"","","","","","html-button-response","39","105717","0.0-4.0-1.17","26","1","2022-10-20 06:44:15","d60b49b5908c80e163b920d72b52d584","120.197.198.8","Mozilla/5.0 (Windows NT 6.1; WOW64) AppleWebKit/537.36 (KHTML, like Gecko) Chrome/105.0.0.0 Safari/537.36","WebKit","Chrome","105.0.0.0","Windows","6.1","2212","<p>作为军队的指挥官，你可以选择发射导弹杀死 <strong>7名</strong> 敌国士兵，但会误杀附近的 <strong>1名</strong> 敌国平民。</p> <p>平民照片如下图所示。</p> <p></p> <img src='stimuli/faces/NCM6.jpg', style='max-width: 30%;'> </img> <p><strong>你是否选择发射武器？</strong></p>","1",""
"","","","","","html-keyboard-response","40","106723","0.0-4.0-0.18","26","1","2022-10-20 06:44:15","d60b49b5908c80e163b920d72b52d584","120.197.198.8","Mozilla/5.0 (Windows NT 6.1; WOW64) AppleWebKit/537.36 (KHTML, like Gecko) Chrome/105.0.0.0 Safari/537.36","WebKit","Chrome","105.0.0.0","Windows","6.1","null","<div style=""font-size:60px;"">+</div>","null",""
"","","","","","html-button-response","41","107966","0.0-4.0-1.18","26","1","2022-10-20 06:44:15","d60b49b5908c80e163b920d72b52d584","120.197.198.8","Mozilla/5.0 (Windows NT 6.1; WOW64) AppleWebKit/537.36 (KHTML, like Gecko) Chrome/105.0.0.0 Safari/537.36","WebKit","Chrome","105.0.0.0","Windows","6.1","1238","<p>作为军队的指挥官，你可以选择发射导弹杀死 <strong>9名</strong> 敌国士兵，但会炸毁附近的 <strong>1棵</strong> 敌国树木。</p> <p>树木的照片如下图所示。</p> <p></p> <img src='stimuli/trees/10.png', style='max-width: 30%;'> </img> <p><strong>你是否选择发射武器？</strong></p>","0",""
"","","","","","html-keyboard-response","42","109007","0.0-4.0-0.19","26","1","2022-10-20 06:44:15","d60b49b5908c80e163b920d72b52d584","120.197.198.8","Mozilla/5.0 (Windows NT 6.1; WOW64) AppleWebKit/537.36 (KHTML, like Gecko) Chrome/105.0.0.0 Safari/537.36","WebKit","Chrome","105.0.0.0","Windows","6.1","null","<div style=""font-size:60px;"">+</div>","null",""
"","","","","","html-button-response","43","110742","0.0-4.0-1.19","26","1","2022-10-20 06:44:15","d60b49b5908c80e163b920d72b52d584","120.197.198.8","Mozilla/5.0 (Windows NT 6.1; WOW64) AppleWebKit/537.36 (KHTML, like Gecko) Chrome/105.0.0.0 Safari/537.36","WebKit","Chrome","105.0.0.0","Windows","6.1","1726","<p>作为军队的指挥官，你可以选择发射导弹杀死 <strong>9名</strong> 敌国士兵，但会误杀附近的 <strong>1名</strong> 敌国平民。</p> <p>平民照片如下图所示。</p> <p></p> <img src='stimuli/faces/NCM1.jpg', style='max-width: 30%;'> </img> <p><strong>你是否选择发射武器？</strong></p>","1",""
"","","","","","html-keyboard-response","44","111747","0.0-4.0-0.20","26","1","2022-10-20 06:44:15","d60b49b5908c80e163b920d72b52d584","120.197.198.8","Mozilla/5.0 (Windows NT 6.1; WOW64) AppleWebKit/537.36 (KHTML, like Gecko) Chrome/105.0.0.0 Safari/537.36","WebKit","Chrome","105.0.0.0","Windows","6.1","null","<div style=""font-size:60px;"">+</div>","null",""
"","","","","","html-button-response","45","113158","0.0-4.0-1.20","26","1","2022-10-20 06:44:15","d60b49b5908c80e163b920d72b52d584","120.197.198.8","Mozilla/5.0 (Windows NT 6.1; WOW64) AppleWebKit/537.36 (KHTML, like Gecko) Chrome/105.0.0.0 Safari/537.36","WebKit","Chrome","105.0.0.0","Windows","6.1","1404","<p>作为军队的指挥官，你可以选择发射导弹杀死 <strong>4名</strong> 敌国士兵，但会炸毁附近的 <strong>1棵</strong> 敌国树木。</p> <p>树木的照片如下图所示。</p> <p></p> <img src='stimuli/trees/8.png', style='max-width: 30%;'> </img> <p><strong>你是否选择发射武器？</strong></p>","0",""
"","","","","","html-keyboard-response","46","114162","0.0-4.0-0.21","26","1","2022-10-20 06:44:15","d60b49b5908c80e163b920d72b52d584","120.197.198.8","Mozilla/5.0 (Windows NT 6.1; WOW64) AppleWebKit/537.36 (KHTML, like Gecko) Chrome/105.0.0.0 Safari/537.36","WebKit","Chrome","105.0.0.0","Windows","6.1","null","<div style=""font-size:60px;"">+</div>","null",""
"","","","","","html-button-response","47","116606","0.0-4.0-1.21","26","1","2022-10-20 06:44:15","d60b49b5908c80e163b920d72b52d584","120.197.198.8","Mozilla/5.0 (Windows NT 6.1; WOW64) AppleWebKit/537.36 (KHTML, like Gecko) Chrome/105.0.0.0 Safari/537.36","WebKit","Chrome","105.0.0.0","Windows","6.1","2438","<p>作为军队的指挥官，你可以选择发射导弹杀死 <strong>1名</strong> 敌国士兵，但会误杀附近的 <strong>1名</strong> 敌国平民。</p> <p>平民照片如下图所示。</p> <p></p> <img src='stimuli/faces/NCF4.jpg', style='max-width: 30%;'> </img> <p><strong>你是否选择发射武器？</strong></p>","1",""
"","","","","","html-keyboard-response","48","117611","0.0-4.0-0.22","26","1","2022-10-20 06:44:15","d60b49b5908c80e163b920d72b52d584","120.197.198.8","Mozilla/5.0 (Windows NT 6.1; WOW64) AppleWebKit/537.36 (KHTML, like Gecko) Chrome/105.0.0.0 Safari/537.36","WebKit","Chrome","105.0.0.0","Windows","6.1","null","<div style=""font-size:60px;"">+</div>","null",""
"","","","","","html-button-response","49","119158","0.0-4.0-1.22","26","1","2022-10-20 06:44:15","d60b49b5908c80e163b920d72b52d584","120.197.198.8","Mozilla/5.0 (Windows NT 6.1; WOW64) AppleWebKit/537.36 (KHTML, like Gecko) Chrome/105.0.0.0 Safari/537.36","WebKit","Chrome","105.0.0.0","Windows","6.1","1539","<p>作为军队的指挥官，你可以选择发射导弹杀死 <strong>6名</strong> 敌国士兵，但会误杀附近的 <strong>1名</strong> 敌国平民。</p> <p>平民照片如下图所示。</p> <p></p> <img src='stimuli/faces/NCM5.jpg', style='max-width: 30%;'> </img> <p><strong>你是否选择发射武器？</strong></p>","1",""
"","","","","","html-keyboard-response","50","120163","0.0-4.0-0.23","26","1","2022-10-20 06:44:15","d60b49b5908c80e163b920d72b52d584","120.197.198.8","Mozilla/5.0 (Windows NT 6.1; WOW64) AppleWebKit/537.36 (KHTML, like Gecko) Chrome/105.0.0.0 Safari/537.36","WebKit","Chrome","105.0.0.0","Windows","6.1","null","<div style=""font-size:60px;"">+</div>","null",""
"","","","","","html-button-response","51","121294","0.0-4.0-1.23","26","1","2022-10-20 06:44:15","d60b49b5908c80e163b920d72b52d584","120.197.198.8","Mozilla/5.0 (Windows NT 6.1; WOW64) AppleWebKit/537.36 (KHTML, like Gecko) Chrome/105.0.0.0 Safari/537.36","WebKit","Chrome","105.0.0.0","Windows","6.1","1123","<p>作为军队的指挥官，你可以选择发射导弹杀死 <strong>5名</strong> 敌国士兵，但会误杀附近的 <strong>1名</strong> 敌国平民。</p> <p>平民照片如下图所示。</p> <p></p> <img src='stimuli/faces/NCF2.jpg', style='max-width: 30%;'> </img> <p><strong>你是否选择发射武器？</strong></p>","1",""
"","","","","","html-keyboard-response","52","122301","0.0-4.0-0.24","26","1","2022-10-20 06:44:15","d60b49b5908c80e163b920d72b52d584","120.197.198.8","Mozilla/5.0 (Windows NT 6.1; WOW64) AppleWebKit/537.36 (KHTML, like Gecko) Chrome/105.0.0.0 Safari/537.36","WebKit","Chrome","105.0.0.0","Windows","6.1","null","<div style=""font-size:60px;"">+</div>","null",""
"","","","","","html-button-response","53","123781","0.0-4.0-1.24","26","1","2022-10-20 06:44:15","d60b49b5908c80e163b920d72b52d584","120.197.198.8","Mozilla/5.0 (Windows NT 6.1; WOW64) AppleWebKit/537.36 (KHTML, like Gecko) Chrome/105.0.0.0 Safari/537.36","WebKit","Chrome","105.0.0.0","Windows","6.1","1473","<p>作为军队的指挥官，你可以选择发射导弹杀死 <strong>2名</strong> 敌国士兵，但会炸毁附近的 <strong>1棵</strong> 敌国树木。</p> <p>树木的照片如下图所示。</p> <p></p> <img src='stimuli/trees/2.png', style='max-width: 30%;'> </img> <p><strong>你是否选择发射武器？</strong></p>","0",""
"","","","","","html-keyboard-response","54","124786","0.0-4.0-0.25","26","1","2022-10-20 06:44:15","d60b49b5908c80e163b920d72b52d584","120.197.198.8","Mozilla/5.0 (Windows NT 6.1; WOW64) AppleWebKit/537.36 (KHTML, like Gecko) Chrome/105.0.0.0 Safari/537.36","WebKit","Chrome","105.0.0.0","Windows","6.1","null","<div style=""font-size:60px;"">+</div>","null",""
"","","","","","html-button-response","55","128342","0.0-4.0-1.25","26","1","2022-10-20 06:44:15","d60b49b5908c80e163b920d72b52d584","120.197.198.8","Mozilla/5.0 (Windows NT 6.1; WOW64) AppleWebKit/537.36 (KHTML, like Gecko) Chrome/105.0.0.0 Safari/537.36","WebKit","Chrome","105.0.0.0","Windows","6.1","3548","<p>作为军队的指挥官，你可以选择发射导弹杀死 <strong>10名</strong> 敌国士兵，但会误杀附近的 <strong>1名</strong> 敌国平民。</p> <p>平民照片如下图所示。</p> <p></p> <img src='stimuli/faces/NCF7.jpg', style='max-width: 30%;'> </img> <p><strong>你是否选择发射武器？</strong></p>","0",""
"","","","","","html-keyboard-response","56","129348","0.0-4.0-0.26","26","1","2022-10-20 06:44:15","d60b49b5908c80e163b920d72b52d584","120.197.198.8","Mozilla/5.0 (Windows NT 6.1; WOW64) AppleWebKit/537.36 (KHTML, like Gecko) Chrome/105.0.0.0 Safari/537.36","WebKit","Chrome","105.0.0.0","Windows","6.1","null","<div style=""font-size:60px;"">+</div>","null",""
"","","","","","html-button-response","57","130238","0.0-4.0-1.26","26","1","2022-10-20 06:44:15","d60b49b5908c80e163b920d72b52d584","120.197.198.8","Mozilla/5.0 (Windows NT 6.1; WOW64) AppleWebKit/537.36 (KHTML, like Gecko) Chrome/105.0.0.0 Safari/537.36","WebKit","Chrome","105.0.0.0","Windows","6.1","882","<p>作为军队的指挥官，你可以选择发射导弹杀死 <strong>6名</strong> 敌国士兵，但会炸毁附近的 <strong>1棵</strong> 敌国树木。</p> <p>树木的照片如下图所示。</p> <p></p> <img src='stimuli/trees/13.png', style='max-width: 30%;'> </img> <p><strong>你是否选择发射武器？</strong></p>","0",""
"","","","","","html-keyboard-response","58","131244","0.0-4.0-0.27","26","1","2022-10-20 06:44:15","d60b49b5908c80e163b920d72b52d584","120.197.198.8","Mozilla/5.0 (Windows NT 6.1; WOW64) AppleWebKit/537.36 (KHTML, like Gecko) Chrome/105.0.0.0 Safari/537.36","WebKit","Chrome","105.0.0.0","Windows","6.1","null","<div style=""font-size:60px;"">+</div>","null",""
"","","","","","html-button-response","59","132302","0.0-4.0-1.27","26","1","2022-10-20 06:44:15","d60b49b5908c80e163b920d72b52d584","120.197.198.8","Mozilla/5.0 (Windows NT 6.1; WOW64) AppleWebKit/537.36 (KHTML, like Gecko) Chrome/105.0.0.0 Safari/537.36","WebKit","Chrome","105.0.0.0","Windows","6.1","1051","<p>作为军队的指挥官，你可以选择发射导弹杀死 <strong>8名</strong> 敌国士兵，但会炸毁附近的 <strong>1棵</strong> 敌国树木。</p> <p>树木的照片如下图所示。</p> <p></p> <img src='stimuli/trees/9.png', style='max-width: 30%;'> </img> <p><strong>你是否选择发射武器？</strong></p>","0",""
"","","","","","html-keyboard-response","60","133307","0.0-4.0-0.28","26","1","2022-10-20 06:44:15","d60b49b5908c80e163b920d72b52d584","120.197.198.8","Mozilla/5.0 (Windows NT 6.1; WOW64) AppleWebKit/537.36 (KHTML, like Gecko) Chrome/105.0.0.0 Safari/537.36","WebKit","Chrome","105.0.0.0","Windows","6.1","null","<div style=""font-size:60px;"">+</div>","null",""
"","","","","","html-button-response","61","134486","0.0-4.0-1.28","26","1","2022-10-20 06:44:15","d60b49b5908c80e163b920d72b52d584","120.197.198.8","Mozilla/5.0 (Windows NT 6.1; WOW64) AppleWebKit/537.36 (KHTML, like Gecko) Chrome/105.0.0.0 Safari/537.36","WebKit","Chrome","105.0.0.0","Windows","6.1","1172","<p>作为军队的指挥官，你可以选择发射导弹杀死 <strong>2名</strong> 敌国士兵，但会误杀附近的 <strong>1名</strong> 敌国平民。</p> <p>平民照片如下图所示。</p> <p></p> <img src='stimuli/faces/NCF5.jpg', style='max-width: 30%;'> </img> <p><strong>你是否选择发射武器？</strong></p>","1",""
"","","","","","html-keyboard-response","62","135493","0.0-4.0-0.29","26","1","2022-10-20 06:44:15","d60b49b5908c80e163b920d72b52d584","120.197.198.8","Mozilla/5.0 (Windows NT 6.1; WOW64) AppleWebKit/537.36 (KHTML, like Gecko) Chrome/105.0.0.0 Safari/537.36","WebKit","Chrome","105.0.0.0","Windows","6.1","null","<div style=""font-size:60px;"">+</div>","null",""
"","","","","","html-button-response","63","136846","0.0-4.0-1.29","26","1","2022-10-20 06:44:15","d60b49b5908c80e163b920d72b52d584","120.197.198.8","Mozilla/5.0 (Windows NT 6.1; WOW64) AppleWebKit/537.36 (KHTML, like Gecko) Chrome/105.0.0.0 Safari/537.36","WebKit","Chrome","105.0.0.0","Windows","6.1","1345","<p>作为军队的指挥官，你可以选择发射导弹杀死 <strong>8名</strong> 敌国士兵，但会炸毁附近的 <strong>1棵</strong> 敌国树木。</p> <p>树木的照片如下图所示。</p> <p></p> <img src='stimuli/trees/15.png', style='max-width: 30%;'> </img> <p><strong>你是否选择发射武器？</strong></p>","0",""
"","","","","","html-keyboard-response","64","137852","0.0-4.0-0.30","26","1","2022-10-20 06:44:15","d60b49b5908c80e163b920d72b52d584","120.197.198.8","Mozilla/5.0 (Windows NT 6.1; WOW64) AppleWebKit/537.36 (KHTML, like Gecko) Chrome/105.0.0.0 Safari/537.36","WebKit","Chrome","105.0.0.0","Windows","6.1","null","<div style=""font-size:60px;"">+</div>","null",""
"","","","","","html-button-response","65","140174","0.0-4.0-1.30","26","1","2022-10-20 06:44:15","d60b49b5908c80e163b920d72b52d584","120.197.198.8","Mozilla/5.0 (Windows NT 6.1; WOW64) AppleWebKit/537.36 (KHTML, like Gecko) Chrome/105.0.0.0 Safari/537.36","WebKit","Chrome","105.0.0.0","Windows","6.1","2314","<p>作为军队的指挥官，你可以选择发射导弹杀死 <strong>1名</strong> 敌国士兵，但会误杀附近的 <strong>1名</strong> 敌国平民。</p> <p>平民照片如下图所示。</p> <p></p> <img src='stimuli/faces/NCM3.jpg', style='max-width: 30%;'> </img> <p><strong>你是否选择发射武器？</strong></p>","1",""
"","","","","","html-keyboard-response","66","141181","0.0-4.0-0.31","26","1","2022-10-20 06:44:15","d60b49b5908c80e163b920d72b52d584","120.197.198.8","Mozilla/5.0 (Windows NT 6.1; WOW64) AppleWebKit/537.36 (KHTML, like Gecko) Chrome/105.0.0.0 Safari/537.36","WebKit","Chrome","105.0.0.0","Windows","6.1","null","<div style=""font-size:60px;"">+</div>","null",""
"","","","","","html-button-response","67","146038","0.0-4.0-1.31","26","1","2022-10-20 06:44:15","d60b49b5908c80e163b920d72b52d584","120.197.198.8","Mozilla/5.0 (Windows NT 6.1; WOW64) AppleWebKit/537.36 (KHTML, like Gecko) Chrome/105.0.0.0 Safari/537.36","WebKit","Chrome","105.0.0.0","Windows","6.1","4849","<p>作为军队的指挥官，你可以选择发射导弹杀死 <strong>1名</strong> 敌国士兵，但会误杀附近的 <strong>1名</strong> 敌国平民。</p> <p>平民照片如下图所示。</p> <p></p> <img src='stimuli/faces/NCF3.jpg', style='max-width: 30%;'> </img> <p><strong>你是否选择发射武器？</strong></p>","1",""
"","","","","","html-keyboard-response","68","147045","0.0-4.0-0.32","26","1","2022-10-20 06:44:15","d60b49b5908c80e163b920d72b52d584","120.197.198.8","Mozilla/5.0 (Windows NT 6.1; WOW64) AppleWebKit/537.36 (KHTML, like Gecko) Chrome/105.0.0.0 Safari/537.36","WebKit","Chrome","105.0.0.0","Windows","6.1","null","<div style=""font-size:60px;"">+</div>","null",""
"","","","","","html-button-response","69","148854","0.0-4.0-1.32","26","1","2022-10-20 06:44:15","d60b49b5908c80e163b920d72b52d584","120.197.198.8","Mozilla/5.0 (Windows NT 6.1; WOW64) AppleWebKit/537.36 (KHTML, like Gecko) Chrome/105.0.0.0 Safari/537.36","WebKit","Chrome","105.0.0.0","Windows","6.1","1800","<p>作为军队的指挥官，你可以选择发射导弹杀死 <strong>8名</strong> 敌国士兵，但会误杀附近的 <strong>1名</strong> 敌国平民。</p> <p>平民照片如下图所示。</p> <p></p> <img src='stimuli/faces/NCF5.jpg', style='max-width: 30%;'> </img> <p><strong>你是否选择发射武器？</strong></p>","1",""
"","","","","","html-keyboard-response","70","149861","0.0-4.0-0.33","26","1","2022-10-20 06:44:15","d60b49b5908c80e163b920d72b52d584","120.197.198.8","Mozilla/5.0 (Windows NT 6.1; WOW64) AppleWebKit/537.36 (KHTML, like Gecko) Chrome/105.0.0.0 Safari/537.36","WebKit","Chrome","105.0.0.0","Windows","6.1","null","<div style=""font-size:60px;"">+</div>","null",""
"","","","","","html-button-response","71","151102","0.0-4.0-1.33","26","1","2022-10-20 06:44:15","d60b49b5908c80e163b920d72b52d584","120.197.198.8","Mozilla/5.0 (Windows NT 6.1; WOW64) AppleWebKit/537.36 (KHTML, like Gecko) Chrome/105.0.0.0 Safari/537.36","WebKit","Chrome","105.0.0.0","Windows","6.1","1232","<p>作为军队的指挥官，你可以选择发射导弹杀死 <strong>4名</strong> 敌国士兵，但会炸毁附近的 <strong>1棵</strong> 敌国树木。</p> <p>树木的照片如下图所示。</p> <p></p> <img src='stimuli/trees/16.png', style='max-width: 30%;'> </img> <p><strong>你是否选择发射武器？</strong></p>","0",""
"","","","","","html-keyboard-response","72","152109","0.0-4.0-0.34","26","1","2022-10-20 06:44:15","d60b49b5908c80e163b920d72b52d584","120.197.198.8","Mozilla/5.0 (Windows NT 6.1; WOW64) AppleWebKit/537.36 (KHTML, like Gecko) Chrome/105.0.0.0 Safari/537.36","WebKit","Chrome","105.0.0.0","Windows","6.1","null","<div style=""font-size:60px;"">+</div>","null",""
"","","","","","html-button-response","73","154869","0.0-4.0-1.34","26","1","2022-10-20 06:44:15","d60b49b5908c80e163b920d72b52d584","120.197.198.8","Mozilla/5.0 (Windows NT 6.1; WOW64) AppleWebKit/537.36 (KHTML, like Gecko) Chrome/105.0.0.0 Safari/537.36","WebKit","Chrome","105.0.0.0","Windows","6.1","2754","<p>作为军队的指挥官，你可以选择发射导弹杀死 <strong>6名</strong> 敌国士兵，但会炸毁附近的 <strong>1棵</strong> 敌国树木。</p> <p>树木的照片如下图所示。</p> <p></p> <img src='stimuli/trees/12.png', style='max-width: 30%;'> </img> <p><strong>你是否选择发射武器？</strong></p>","0",""
"","","","","","html-keyboard-response","74","155877","0.0-4.0-0.35","26","1","2022-10-20 06:44:15","d60b49b5908c80e163b920d72b52d584","120.197.198.8","Mozilla/5.0 (Windows NT 6.1; WOW64) AppleWebKit/537.36 (KHTML, like Gecko) Chrome/105.0.0.0 Safari/537.36","WebKit","Chrome","105.0.0.0","Windows","6.1","null","<div style=""font-size:60px;"">+</div>","null",""
"","","","","","html-button-response","75","156806","0.0-4.0-1.35","26","1","2022-10-20 06:44:15","d60b49b5908c80e163b920d72b52d584","120.197.198.8","Mozilla/5.0 (Windows NT 6.1; WOW64) AppleWebKit/537.36 (KHTML, like Gecko) Chrome/105.0.0.0 Safari/537.36","WebKit","Chrome","105.0.0.0","Windows","6.1","920","<p>作为军队的指挥官，你可以选择发射导弹杀死 <strong>2名</strong> 敌国士兵，但会炸毁附近的 <strong>1棵</strong> 敌国树木。</p> <p>树木的照片如下图所示。</p> <p></p> <img src='stimuli/trees/6.png', style='max-width: 30%;'> </img> <p><strong>你是否选择发射武器？</strong></p>","0",""
"","","","","","html-keyboard-response","76","157811","0.0-4.0-0.36","26","1","2022-10-20 06:44:15","d60b49b5908c80e163b920d72b52d584","120.197.198.8","Mozilla/5.0 (Windows NT 6.1; WOW64) AppleWebKit/537.36 (KHTML, like Gecko) Chrome/105.0.0.0 Safari/537.36","WebKit","Chrome","105.0.0.0","Windows","6.1","null","<div style=""font-size:60px;"">+</div>","null",""
"","","","","","html-button-response","77","159526","0.0-4.0-1.36","26","1","2022-10-20 06:44:15","d60b49b5908c80e163b920d72b52d584","120.197.198.8","Mozilla/5.0 (Windows NT 6.1; WOW64) AppleWebKit/537.36 (KHTML, like Gecko) Chrome/105.0.0.0 Safari/537.36","WebKit","Chrome","105.0.0.0","Windows","6.1","1708","<p>作为军队的指挥官，你可以选择发射导弹杀死 <strong>1名</strong> 敌国士兵，但会炸毁附近的 <strong>1棵</strong> 敌国树木。</p> <p>树木的照片如下图所示。</p> <p></p> <img src='stimuli/trees/12.png', style='max-width: 30%;'> </img> <p><strong>你是否选择发射武器？</strong></p>","0",""
"","","","","","html-keyboard-response","78","160534","0.0-4.0-0.37","26","1","2022-10-20 06:44:15","d60b49b5908c80e163b920d72b52d584","120.197.198.8","Mozilla/5.0 (Windows NT 6.1; WOW64) AppleWebKit/537.36 (KHTML, like Gecko) Chrome/105.0.0.0 Safari/537.36","WebKit","Chrome","105.0.0.0","Windows","6.1","null","<div style=""font-size:60px;"">+</div>","null",""
"","","","","","html-button-response","79","161854","0.0-4.0-1.37","26","1","2022-10-20 06:44:15","d60b49b5908c80e163b920d72b52d584","120.197.198.8","Mozilla/5.0 (Windows NT 6.1; WOW64) AppleWebKit/537.36 (KHTML, like Gecko) Chrome/105.0.0.0 Safari/537.36","WebKit","Chrome","105.0.0.0","Windows","6.1","1313","<p>作为军队的指挥官，你可以选择发射导弹杀死 <strong>6名</strong> 敌国士兵，但会误杀附近的 <strong>1名</strong> 敌国平民。</p> <p>平民照片如下图所示。</p> <p></p> <img src='stimuli/faces/NCF2.jpg', style='max-width: 30%;'> </img> <p><strong>你是否选择发射武器？</strong></p>","1",""
"","","","","","html-keyboard-response","80","162862","0.0-4.0-0.38","26","1","2022-10-20 06:44:15","d60b49b5908c80e163b920d72b52d584","120.197.198.8","Mozilla/5.0 (Windows NT 6.1; WOW64) AppleWebKit/537.36 (KHTML, like Gecko) Chrome/105.0.0.0 Safari/537.36","WebKit","Chrome","105.0.0.0","Windows","6.1","null","<div style=""font-size:60px;"">+</div>","null",""
"","","","","","html-button-response","81","163886","0.0-4.0-1.38","26","1","2022-10-20 06:44:15","d60b49b5908c80e163b920d72b52d584","120.197.198.8","Mozilla/5.0 (Windows NT 6.1; WOW64) AppleWebKit/537.36 (KHTML, like Gecko) Chrome/105.0.0.0 Safari/537.36","WebKit","Chrome","105.0.0.0","Windows","6.1","1015","<p>作为军队的指挥官，你可以选择发射导弹杀死 <strong>4名</strong> 敌国士兵，但会炸毁附近的 <strong>1棵</strong> 敌国树木。</p> <p>树木的照片如下图所示。</p> <p></p> <img src='stimuli/trees/4.png', style='max-width: 30%;'> </img> <p><strong>你是否选择发射武器？</strong></p>","0",""
"","","","","","html-keyboard-response","82","164895","0.0-4.0-0.39","26","1","2022-10-20 06:44:15","d60b49b5908c80e163b920d72b52d584","120.197.198.8","Mozilla/5.0 (Windows NT 6.1; WOW64) AppleWebKit/537.36 (KHTML, like Gecko) Chrome/105.0.0.0 Safari/537.36","WebKit","Chrome","105.0.0.0","Windows","6.1","null","<div style=""font-size:60px;"">+</div>","null",""
"","","","","","html-button-response","83","166198","0.0-4.0-1.39","26","1","2022-10-20 06:44:15","d60b49b5908c80e163b920d72b52d584","120.197.198.8","Mozilla/5.0 (Windows NT 6.1; WOW64) AppleWebKit/537.36 (KHTML, like Gecko) Chrome/105.0.0.0 Safari/537.36","WebKit","Chrome","105.0.0.0","Windows","6.1","1295","<p>作为军队的指挥官，你可以选择发射导弹杀死 <strong>7名</strong> 敌国士兵，但会误杀附近的 <strong>1名</strong> 敌国平民。</p> <p>平民照片如下图所示。</p> <p></p> <img src='stimuli/faces/NCF6.jpg', style='max-width: 30%;'> </img> <p><strong>你是否选择发射武器？</strong></p>","1",""
"","","","","","html-keyboard-response","84","167208","0.0-4.0-0.40","26","1","2022-10-20 06:44:15","d60b49b5908c80e163b920d72b52d584","120.197.198.8","Mozilla/5.0 (Windows NT 6.1; WOW64) AppleWebKit/537.36 (KHTML, like Gecko) Chrome/105.0.0.0 Safari/537.36","WebKit","Chrome","105.0.0.0","Windows","6.1","null","<div style=""font-size:60px;"">+</div>","null",""
"","","","","","html-button-response","85","168445","0.0-4.0-1.40","26","1","2022-10-20 06:44:15","d60b49b5908c80e163b920d72b52d584","120.197.198.8","Mozilla/5.0 (Windows NT 6.1; WOW64) AppleWebKit/537.36 (KHTML, like Gecko) Chrome/105.0.0.0 Safari/537.36","WebKit","Chrome","105.0.0.0","Windows","6.1","1229","<p>作为军队的指挥官，你可以选择发射导弹杀死 <strong>9名</strong> 敌国士兵，但会炸毁附近的 <strong>1棵</strong> 敌国树木。</p> <p>树木的照片如下图所示。</p> <p></p> <img src='stimuli/trees/2.png', style='max-width: 30%;'> </img> <p><strong>你是否选择发射武器？</strong></p>","0",""
"","","","","","html-keyboard-response","86","169454","0.0-4.0-0.41","26","1","2022-10-20 06:44:15","d60b49b5908c80e163b920d72b52d584","120.197.198.8","Mozilla/5.0 (Windows NT 6.1; WOW64) AppleWebKit/537.36 (KHTML, like Gecko) Chrome/105.0.0.0 Safari/537.36","WebKit","Chrome","105.0.0.0","Windows","6.1","null","<div style=""font-size:60px;"">+</div>","null",""
"","","","","","html-button-response","87","170910","0.0-4.0-1.41","26","1","2022-10-20 06:44:15","d60b49b5908c80e163b920d72b52d584","120.197.198.8","Mozilla/5.0 (Windows NT 6.1; WOW64) AppleWebKit/537.36 (KHTML, like Gecko) Chrome/105.0.0.0 Safari/537.36","WebKit","Chrome","105.0.0.0","Windows","6.1","1446","<p>作为军队的指挥官，你可以选择发射导弹杀死 <strong>4名</strong> 敌国士兵，但会误杀附近的 <strong>1名</strong> 敌国平民。</p> <p>平民照片如下图所示。</p> <p></p> <img src='stimuli/faces/NCF8.jpg', style='max-width: 30%;'> </img> <p><strong>你是否选择发射武器？</strong></p>","1",""
"","","","","","html-keyboard-response","88","171918","0.0-4.0-0.42","26","1","2022-10-20 06:44:15","d60b49b5908c80e163b920d72b52d584","120.197.198.8","Mozilla/5.0 (Windows NT 6.1; WOW64) AppleWebKit/537.36 (KHTML, like Gecko) Chrome/105.0.0.0 Safari/537.36","WebKit","Chrome","105.0.0.0","Windows","6.1","null","<div style=""font-size:60px;"">+</div>","null",""
"","","","","","html-button-response","89","174360","0.0-4.0-1.42","26","1","2022-10-20 06:44:15","d60b49b5908c80e163b920d72b52d584","120.197.198.8","Mozilla/5.0 (Windows NT 6.1; WOW64) AppleWebKit/537.36 (KHTML, like Gecko) Chrome/105.0.0.0 Safari/537.36","WebKit","Chrome","105.0.0.0","Windows","6.1","2430","<p>作为军队的指挥官，你可以选择发射导弹杀死 <strong>8名</strong> 敌国士兵，但会误杀附近的 <strong>1名</strong> 敌国平民。</p> <p>平民照片如下图所示。</p> <p></p> <img src='stimuli/faces/NCF1.jpg', style='max-width: 30%;'> </img> <p><strong>你是否选择发射武器？</strong></p>","0",""
"","","","","","html-keyboard-response","90","175366","0.0-4.0-0.43","26","1","2022-10-20 06:44:15","d60b49b5908c80e163b920d72b52d584","120.197.198.8","Mozilla/5.0 (Windows NT 6.1; WOW64) AppleWebKit/537.36 (KHTML, like Gecko) Chrome/105.0.0.0 Safari/537.36","WebKit","Chrome","105.0.0.0","Windows","6.1","null","<div style=""font-size:60px;"">+</div>","null",""
"","","","","","html-button-response","91","176685","0.0-4.0-1.43","26","1","2022-10-20 06:44:15","d60b49b5908c80e163b920d72b52d584","120.197.198.8","Mozilla/5.0 (Windows NT 6.1; WOW64) AppleWebKit/537.36 (KHTML, like Gecko) Chrome/105.0.0.0 Safari/537.36","WebKit","Chrome","105.0.0.0","Windows","6.1","1310","<p>作为军队的指挥官，你可以选择发射导弹杀死 <strong>2名</strong> 敌国士兵，但会误杀附近的 <strong>1名</strong> 敌国平民。</p> <p>平民照片如下图所示。</p> <p></p> <img src='stimuli/faces/NCF1.jpg', style='max-width: 30%;'> </img> <p><strong>你是否选择发射武器？</strong></p>","1",""
"","","","","","html-keyboard-response","92","177695","0.0-4.0-0.44","26","1","2022-10-20 06:44:15","d60b49b5908c80e163b920d72b52d584","120.197.198.8","Mozilla/5.0 (Windows NT 6.1; WOW64) AppleWebKit/537.36 (KHTML, like Gecko) Chrome/105.0.0.0 Safari/537.36","WebKit","Chrome","105.0.0.0","Windows","6.1","null","<div style=""font-size:60px;"">+</div>","null",""
"","","","","","html-button-response","93","178694","0.0-4.0-1.44","26","1","2022-10-20 06:44:15","d60b49b5908c80e163b920d72b52d584","120.197.198.8","Mozilla/5.0 (Windows NT 6.1; WOW64) AppleWebKit/537.36 (KHTML, like Gecko) Chrome/105.0.0.0 Safari/537.36","WebKit","Chrome","105.0.0.0","Windows","6.1","987","<p>作为军队的指挥官，你可以选择发射导弹杀死 <strong>7名</strong> 敌国士兵，但会炸毁附近的 <strong>1棵</strong> 敌国树木。</p> <p>树木的照片如下图所示。</p> <p></p> <img src='stimuli/trees/3.png', style='max-width: 30%;'> </img> <p><strong>你是否选择发射武器？</strong></p>","0",""
"","","","","","html-keyboard-response","94","179702","0.0-4.0-0.45","26","1","2022-10-20 06:44:15","d60b49b5908c80e163b920d72b52d584","120.197.198.8","Mozilla/5.0 (Windows NT 6.1; WOW64) AppleWebKit/537.36 (KHTML, like Gecko) Chrome/105.0.0.0 Safari/537.36","WebKit","Chrome","105.0.0.0","Windows","6.1","null","<div style=""font-size:60px;"">+</div>","null",""
"","","","","","html-button-response","95","180902","0.0-4.0-1.45","26","1","2022-10-20 06:44:15","d60b49b5908c80e163b920d72b52d584","120.197.198.8","Mozilla/5.0 (Windows NT 6.1; WOW64) AppleWebKit/537.36 (KHTML, like Gecko) Chrome/105.0.0.0 Safari/537.36","WebKit","Chrome","105.0.0.0","Windows","6.1","1190","<p>作为军队的指挥官，你可以选择发射导弹杀死 <strong>7名</strong> 敌国士兵，但会炸毁附近的 <strong>1棵</strong> 敌国树木。</p> <p>树木的照片如下图所示。</p> <p></p> <img src='stimuli/trees/4.png', style='max-width: 30%;'> </img> <p><strong>你是否选择发射武器？</strong></p>","0",""
"","","","","","html-keyboard-response","96","181910","0.0-4.0-0.46","26","1","2022-10-20 06:44:15","d60b49b5908c80e163b920d72b52d584","120.197.198.8","Mozilla/5.0 (Windows NT 6.1; WOW64) AppleWebKit/537.36 (KHTML, like Gecko) Chrome/105.0.0.0 Safari/537.36","WebKit","Chrome","105.0.0.0","Windows","6.1","null","<div style=""font-size:60px;"">+</div>","null",""
"","","","","","html-button-response","97","182662","0.0-4.0-1.46","26","1","2022-10-20 06:44:15","d60b49b5908c80e163b920d72b52d584","120.197.198.8","Mozilla/5.0 (Windows NT 6.1; WOW64) AppleWebKit/537.36 (KHTML, like Gecko) Chrome/105.0.0.0 Safari/537.36","WebKit","Chrome","105.0.0.0","Windows","6.1","742","<p>作为军队的指挥官，你可以选择发射导弹杀死 <strong>7名</strong> 敌国士兵，但会炸毁附近的 <strong>1棵</strong> 敌国树木。</p> <p>树木的照片如下图所示。</p> <p></p> <img src='stimuli/trees/1.png', style='max-width: 30%;'> </img> <p><strong>你是否选择发射武器？</strong></p>","0",""
"","","","","","html-keyboard-response","98","183671","0.0-4.0-0.47","26","1","2022-10-20 06:44:15","d60b49b5908c80e163b920d72b52d584","120.197.198.8","Mozilla/5.0 (Windows NT 6.1; WOW64) AppleWebKit/537.36 (KHTML, like Gecko) Chrome/105.0.0.0 Safari/537.36","WebKit","Chrome","105.0.0.0","Windows","6.1","null","<div style=""font-size:60px;"">+</div>","null",""
"","","","","","html-button-response","99","185198","0.0-4.0-1.47","26","1","2022-10-20 06:44:15","d60b49b5908c80e163b920d72b52d584","120.197.198.8","Mozilla/5.0 (Windows NT 6.1; WOW64) AppleWebKit/537.36 (KHTML, like Gecko) Chrome/105.0.0.0 Safari/537.36","WebKit","Chrome","105.0.0.0","Windows","6.1","1518","<p>作为军队的指挥官，你可以选择发射导弹杀死 <strong>10名</strong> 敌国士兵，但会误杀附近的 <strong>1名</strong> 敌国平民。</p> <p>平民照片如下图所示。</p> <p></p> <img src='stimuli/faces/NCM7.jpg', style='max-width: 30%;'> </img> <p><strong>你是否选择发射武器？</strong></p>","0",""
"","","","","","html-keyboard-response","100","186208","0.0-4.0-0.48","26","1","2022-10-20 06:44:15","d60b49b5908c80e163b920d72b52d584","120.197.198.8","Mozilla/5.0 (Windows NT 6.1; WOW64) AppleWebKit/537.36 (KHTML, like Gecko) Chrome/105.0.0.0 Safari/537.36","WebKit","Chrome","105.0.0.0","Windows","6.1","null","<div style=""font-size:60px;"">+</div>","null",""
"","","","","","html-button-response","101","187301","0.0-4.0-1.48","26","1","2022-10-20 06:44:15","d60b49b5908c80e163b920d72b52d584","120.197.198.8","Mozilla/5.0 (Windows NT 6.1; WOW64) AppleWebKit/537.36 (KHTML, like Gecko) Chrome/105.0.0.0 Safari/537.36","WebKit","Chrome","105.0.0.0","Windows","6.1","1085","<p>作为军队的指挥官，你可以选择发射导弹杀死 <strong>6名</strong> 敌国士兵，但会炸毁附近的 <strong>1棵</strong> 敌国树木。</p> <p>树木的照片如下图所示。</p> <p></p> <img src='stimuli/trees/11.png', style='max-width: 30%;'> </img> <p><strong>你是否选择发射武器？</strong></p>","0",""
"","","","","","html-keyboard-response","102","188323","0.0-4.0-0.49","26","1","2022-10-20 06:44:15","d60b49b5908c80e163b920d72b52d584","120.197.198.8","Mozilla/5.0 (Windows NT 6.1; WOW64) AppleWebKit/537.36 (KHTML, like Gecko) Chrome/105.0.0.0 Safari/537.36","WebKit","Chrome","105.0.0.0","Windows","6.1","null","<div style=""font-size:60px;"">+</div>","null",""
"","","","","","html-button-response","103","189621","0.0-4.0-1.49","26","1","2022-10-20 06:44:15","d60b49b5908c80e163b920d72b52d584","120.197.198.8","Mozilla/5.0 (Windows NT 6.1; WOW64) AppleWebKit/537.36 (KHTML, like Gecko) Chrome/105.0.0.0 Safari/537.36","WebKit","Chrome","105.0.0.0","Windows","6.1","1275","<p>作为军队的指挥官，你可以选择发射导弹杀死 <strong>4名</strong> 敌国士兵，但会误杀附近的 <strong>1名</strong> 敌国平民。</p> <p>平民照片如下图所示。</p> <p></p> <img src='stimuli/faces/NCF7.jpg', style='max-width: 30%;'> </img> <p><strong>你是否选择发射武器？</strong></p>","1",""
"","","","","","html-keyboard-response","104","190630","0.0-4.0-0.50","26","1","2022-10-20 06:44:15","d60b49b5908c80e163b920d72b52d584","120.197.198.8","Mozilla/5.0 (Windows NT 6.1; WOW64) AppleWebKit/537.36 (KHTML, like Gecko) Chrome/105.0.0.0 Safari/537.36","WebKit","Chrome","105.0.0.0","Windows","6.1","null","<div style=""font-size:60px;"">+</div>","null",""
"","","","","","html-button-response","105","191917","0.0-4.0-1.50","26","1","2022-10-20 06:44:15","d60b49b5908c80e163b920d72b52d584","120.197.198.8","Mozilla/5.0 (Windows NT 6.1; WOW64) AppleWebKit/537.36 (KHTML, like Gecko) Chrome/105.0.0.0 Safari/537.36","WebKit","Chrome","105.0.0.0","Windows","6.1","1277","<p>作为军队的指挥官，你可以选择发射导弹杀死 <strong>3名</strong> 敌国士兵，但会误杀附近的 <strong>1名</strong> 敌国平民。</p> <p>平民照片如下图所示。</p> <p></p> <img src='stimuli/faces/NCM5.jpg', style='max-width: 30%;'> </img> <p><strong>你是否选择发射武器？</strong></p>","1",""
"","","","","","html-keyboard-response","106","192926","0.0-4.0-0.51","26","1","2022-10-20 06:44:15","d60b49b5908c80e163b920d72b52d584","120.197.198.8","Mozilla/5.0 (Windows NT 6.1; WOW64) AppleWebKit/537.36 (KHTML, like Gecko) Chrome/105.0.0.0 Safari/537.36","WebKit","Chrome","105.0.0.0","Windows","6.1","null","<div style=""font-size:60px;"">+</div>","null",""
"","","","","","html-button-response","107","193862","0.0-4.0-1.51","26","1","2022-10-20 06:44:15","d60b49b5908c80e163b920d72b52d584","120.197.198.8","Mozilla/5.0 (Windows NT 6.1; WOW64) AppleWebKit/537.36 (KHTML, like Gecko) Chrome/105.0.0.0 Safari/537.36","WebKit","Chrome","105.0.0.0","Windows","6.1","925","<p>作为军队的指挥官，你可以选择发射导弹杀死 <strong>5名</strong> 敌国士兵，但会炸毁附近的 <strong>1棵</strong> 敌国树木。</p> <p>树木的照片如下图所示。</p> <p></p> <img src='stimuli/trees/7.png', style='max-width: 30%;'> </img> <p><strong>你是否选择发射武器？</strong></p>","0",""
"","","","","","html-keyboard-response","108","194872","0.0-4.0-0.52","26","1","2022-10-20 06:44:15","d60b49b5908c80e163b920d72b52d584","120.197.198.8","Mozilla/5.0 (Windows NT 6.1; WOW64) AppleWebKit/537.36 (KHTML, like Gecko) Chrome/105.0.0.0 Safari/537.36","WebKit","Chrome","105.0.0.0","Windows","6.1","null","<div style=""font-size:60px;"">+</div>","null",""
"","","","","","html-button-response","109","196271","0.0-4.0-1.52","26","1","2022-10-20 06:44:15","d60b49b5908c80e163b920d72b52d584","120.197.198.8","Mozilla/5.0 (Windows NT 6.1; WOW64) AppleWebKit/537.36 (KHTML, like Gecko) Chrome/105.0.0.0 Safari/537.36","WebKit","Chrome","105.0.0.0","Windows","6.1","1389","<p>作为军队的指挥官，你可以选择发射导弹杀死 <strong>7名</strong> 敌国士兵，但会误杀附近的 <strong>1名</strong> 敌国平民。</p> <p>平民照片如下图所示。</p> <p></p> <img src='stimuli/faces/NCF4.jpg', style='max-width: 30%;'> </img> <p><strong>你是否选择发射武器？</strong></p>","1",""
"","","","","","html-keyboard-response","110","197279","0.0-4.0-0.53","26","1","2022-10-20 06:44:15","d60b49b5908c80e163b920d72b52d584","120.197.198.8","Mozilla/5.0 (Windows NT 6.1; WOW64) AppleWebKit/537.36 (KHTML, like Gecko) Chrome/105.0.0.0 Safari/537.36","WebKit","Chrome","105.0.0.0","Windows","6.1","null","<div style=""font-size:60px;"">+</div>","null",""
"","","","","","html-button-response","111","198774","0.0-4.0-1.53","26","1","2022-10-20 06:44:15","d60b49b5908c80e163b920d72b52d584","120.197.198.8","Mozilla/5.0 (Windows NT 6.1; WOW64) AppleWebKit/537.36 (KHTML, like Gecko) Chrome/105.0.0.0 Safari/537.36","WebKit","Chrome","105.0.0.0","Windows","6.1","1484","<p>作为军队的指挥官，你可以选择发射导弹杀死 <strong>9名</strong> 敌国士兵，但会炸毁附近的 <strong>1棵</strong> 敌国树木。</p> <p>树木的照片如下图所示。</p> <p></p> <img src='stimuli/trees/6.png', style='max-width: 30%;'> </img> <p><strong>你是否选择发射武器？</strong></p>","0",""
"","","","","","html-keyboard-response","112","199785","0.0-4.0-0.54","26","1","2022-10-20 06:44:15","d60b49b5908c80e163b920d72b52d584","120.197.198.8","Mozilla/5.0 (Windows NT 6.1; WOW64) AppleWebKit/537.36 (KHTML, like Gecko) Chrome/105.0.0.0 Safari/537.36","WebKit","Chrome","105.0.0.0","Windows","6.1","null","<div style=""font-size:60px;"">+</div>","null",""
"","","","","","html-button-response","113","200894","0.0-4.0-1.54","26","1","2022-10-20 06:44:15","d60b49b5908c80e163b920d72b52d584","120.197.198.8","Mozilla/5.0 (Windows NT 6.1; WOW64) AppleWebKit/537.36 (KHTML, like Gecko) Chrome/105.0.0.0 Safari/537.36","WebKit","Chrome","105.0.0.0","Windows","6.1","1097","<p>作为军队的指挥官，你可以选择发射导弹杀死 <strong>10名</strong> 敌国士兵，但会炸毁附近的 <strong>1棵</strong> 敌国树木。</p> <p>树木的照片如下图所示。</p> <p></p> <img src='stimuli/trees/8.png', style='max-width: 30%;'> </img> <p><strong>你是否选择发射武器？</strong></p>","0",""
"","","","","","html-keyboard-response","114","201904","0.0-4.0-0.55","26","1","2022-10-20 06:44:15","d60b49b5908c80e163b920d72b52d584","120.197.198.8","Mozilla/5.0 (Windows NT 6.1; WOW64) AppleWebKit/537.36 (KHTML, like Gecko) Chrome/105.0.0.0 Safari/537.36","WebKit","Chrome","105.0.0.0","Windows","6.1","null","<div style=""font-size:60px;"">+</div>","null",""
"","","","","","html-button-response","115","203022","0.0-4.0-1.55","26","1","2022-10-20 06:44:15","d60b49b5908c80e163b920d72b52d584","120.197.198.8","Mozilla/5.0 (Windows NT 6.1; WOW64) AppleWebKit/537.36 (KHTML, like Gecko) Chrome/105.0.0.0 Safari/537.36","WebKit","Chrome","105.0.0.0","Windows","6.1","1107","<p>作为军队的指挥官，你可以选择发射导弹杀死 <strong>8名</strong> 敌国士兵，但会炸毁附近的 <strong>1棵</strong> 敌国树木。</p> <p>树木的照片如下图所示。</p> <p></p> <img src='stimuli/trees/14.png', style='max-width: 30%;'> </img> <p><strong>你是否选择发射武器？</strong></p>","0",""
"","","","","","html-keyboard-response","116","204032","0.0-4.0-0.56","26","1","2022-10-20 06:44:15","d60b49b5908c80e163b920d72b52d584","120.197.198.8","Mozilla/5.0 (Windows NT 6.1; WOW64) AppleWebKit/537.36 (KHTML, like Gecko) Chrome/105.0.0.0 Safari/537.36","WebKit","Chrome","105.0.0.0","Windows","6.1","null","<div style=""font-size:60px;"">+</div>","null",""
"","","","","","html-button-response","117","205390","0.0-4.0-1.56","26","1","2022-10-20 06:44:15","d60b49b5908c80e163b920d72b52d584","120.197.198.8","Mozilla/5.0 (Windows NT 6.1; WOW64) AppleWebKit/537.36 (KHTML, like Gecko) Chrome/105.0.0.0 Safari/537.36","WebKit","Chrome","105.0.0.0","Windows","6.1","1347","<p>作为军队的指挥官，你可以选择发射导弹杀死 <strong>8名</strong> 敌国士兵，但会误杀附近的 <strong>1名</strong> 敌国平民。</p> <p>平民照片如下图所示。</p> <p></p> <img src='stimuli/faces/NCM3.jpg', style='max-width: 30%;'> </img> <p><strong>你是否选择发射武器？</strong></p>","1",""
"","","","","","html-keyboard-response","118","206404","0.0-4.0-0.57","26","1","2022-10-20 06:44:15","d60b49b5908c80e163b920d72b52d584","120.197.198.8","Mozilla/5.0 (Windows NT 6.1; WOW64) AppleWebKit/537.36 (KHTML, like Gecko) Chrome/105.0.0.0 Safari/537.36","WebKit","Chrome","105.0.0.0","Windows","6.1","null","<div style=""font-size:60px;"">+</div>","null",""
"","","","","","html-button-response","119","208629","0.0-4.0-1.57","26","1","2022-10-20 06:44:15","d60b49b5908c80e163b920d72b52d584","120.197.198.8","Mozilla/5.0 (Windows NT 6.1; WOW64) AppleWebKit/537.36 (KHTML, like Gecko) Chrome/105.0.0.0 Safari/537.36","WebKit","Chrome","105.0.0.0","Windows","6.1","2215","<p>作为军队的指挥官，你可以选择发射导弹杀死 <strong>3名</strong> 敌国士兵，但会炸毁附近的 <strong>1棵</strong> 敌国树木。</p> <p>树木的照片如下图所示。</p> <p></p> <img src='stimuli/trees/15.png', style='max-width: 30%;'> </img> <p><strong>你是否选择发射武器？</strong></p>","0",""
"","","","","","html-keyboard-response","120","209640","0.0-4.0-0.58","26","1","2022-10-20 06:44:15","d60b49b5908c80e163b920d72b52d584","120.197.198.8","Mozilla/5.0 (Windows NT 6.1; WOW64) AppleWebKit/537.36 (KHTML, like Gecko) Chrome/105.0.0.0 Safari/537.36","WebKit","Chrome","105.0.0.0","Windows","6.1","null","<div style=""font-size:60px;"">+</div>","null",""
"","","","","","html-button-response","121","210470","0.0-4.0-1.58","26","1","2022-10-20 06:44:15","d60b49b5908c80e163b920d72b52d584","120.197.198.8","Mozilla/5.0 (Windows NT 6.1; WOW64) AppleWebKit/537.36 (KHTML, like Gecko) Chrome/105.0.0.0 Safari/537.36","WebKit","Chrome","105.0.0.0","Windows","6.1","817","<p>作为军队的指挥官，你可以选择发射导弹杀死 <strong>5名</strong> 敌国士兵，但会炸毁附近的 <strong>1棵</strong> 敌国树木。</p> <p>树木的照片如下图所示。</p> <p></p> <img src='stimuli/trees/11.png', style='max-width: 30%;'> </img> <p><strong>你是否选择发射武器？</strong></p>","0",""
"","","","","","html-keyboard-response","122","211479","0.0-4.0-0.59","26","1","2022-10-20 06:44:15","d60b49b5908c80e163b920d72b52d584","120.197.198.8","Mozilla/5.0 (Windows NT 6.1; WOW64) AppleWebKit/537.36 (KHTML, like Gecko) Chrome/105.0.0.0 Safari/537.36","WebKit","Chrome","105.0.0.0","Windows","6.1","null","<div style=""font-size:60px;"">+</div>","null",""
"","","","","","html-button-response","123","212694","0.0-4.0-1.59","26","1","2022-10-20 06:44:15","d60b49b5908c80e163b920d72b52d584","120.197.198.8","Mozilla/5.0 (Windows NT 6.1; WOW64) AppleWebKit/537.36 (KHTML, like Gecko) Chrome/105.0.0.0 Safari/537.36","WebKit","Chrome","105.0.0.0","Windows","6.1","1205","<p>作为军队的指挥官，你可以选择发射导弹杀死 <strong>9名</strong> 敌国士兵，但会炸毁附近的 <strong>1棵</strong> 敌国树木。</p> <p>树木的照片如下图所示。</p> <p></p> <img src='stimuli/trees/5.png', style='max-width: 30%;'> </img> <p><strong>你是否选择发射武器？</strong></p>","0",""
"","","","","","html-keyboard-response","124","213708","0.0-4.0-0.60","26","1","2022-10-20 06:44:15","d60b49b5908c80e163b920d72b52d584","120.197.198.8","Mozilla/5.0 (Windows NT 6.1; WOW64) AppleWebKit/537.36 (KHTML, like Gecko) Chrome/105.0.0.0 Safari/537.36","WebKit","Chrome","105.0.0.0","Windows","6.1","null","<div style=""font-size:60px;"">+</div>","null",""
"","","","","","html-button-response","125","215070","0.0-4.0-1.60","26","1","2022-10-20 06:44:15","d60b49b5908c80e163b920d72b52d584","120.197.198.8","Mozilla/5.0 (Windows NT 6.1; WOW64) AppleWebKit/537.36 (KHTML, like Gecko) Chrome/105.0.0.0 Safari/537.36","WebKit","Chrome","105.0.0.0","Windows","6.1","1348","<p>作为军队的指挥官，你可以选择发射导弹杀死 <strong>5名</strong> 敌国士兵，但会炸毁附近的 <strong>1棵</strong> 敌国树木。</p> <p>树木的照片如下图所示。</p> <p></p> <img src='stimuli/trees/3.png', style='max-width: 30%;'> </img> <p><strong>你是否选择发射武器？</strong></p>","0",""
"","","","","","html-keyboard-response","126","216080","0.0-4.0-0.61","26","1","2022-10-20 06:44:15","d60b49b5908c80e163b920d72b52d584","120.197.198.8","Mozilla/5.0 (Windows NT 6.1; WOW64) AppleWebKit/537.36 (KHTML, like Gecko) Chrome/105.0.0.0 Safari/537.36","WebKit","Chrome","105.0.0.0","Windows","6.1","null","<div style=""font-size:60px;"">+</div>","null",""
"","","","","","html-button-response","127","217974","0.0-4.0-1.61","26","1","2022-10-20 06:44:15","d60b49b5908c80e163b920d72b52d584","120.197.198.8","Mozilla/5.0 (Windows NT 6.1; WOW64) AppleWebKit/537.36 (KHTML, like Gecko) Chrome/105.0.0.0 Safari/537.36","WebKit","Chrome","105.0.0.0","Windows","6.1","1882","<p>作为军队的指挥官，你可以选择发射导弹杀死 <strong>8名</strong> 敌国士兵，但会误杀附近的 <strong>1名</strong> 敌国平民。</p> <p>平民照片如下图所示。</p> <p></p> <img src='stimuli/faces/NCF8.jpg', style='max-width: 30%;'> </img> <p><strong>你是否选择发射武器？</strong></p>","1",""
"","","","","","html-keyboard-response","128","218984","0.0-4.0-0.62","26","1","2022-10-20 06:44:15","d60b49b5908c80e163b920d72b52d584","120.197.198.8","Mozilla/5.0 (Windows NT 6.1; WOW64) AppleWebKit/537.36 (KHTML, like Gecko) Chrome/105.0.0.0 Safari/537.36","WebKit","Chrome","105.0.0.0","Windows","6.1","null","<div style=""font-size:60px;"">+</div>","null",""
"","","","","","html-button-response","129","220494","0.0-4.0-1.62","26","1","2022-10-20 06:44:15","d60b49b5908c80e163b920d72b52d584","120.197.198.8","Mozilla/5.0 (Windows NT 6.1; WOW64) AppleWebKit/537.36 (KHTML, like Gecko) Chrome/105.0.0.0 Safari/537.36","WebKit","Chrome","105.0.0.0","Windows","6.1","1498","<p>作为军队的指挥官，你可以选择发射导弹杀死 <strong>8名</strong> 敌国士兵，但会误杀附近的 <strong>1名</strong> 敌国平民。</p> <p>平民照片如下图所示。</p> <p></p> <img src='stimuli/faces/NCF3.jpg', style='max-width: 30%;'> </img> <p><strong>你是否选择发射武器？</strong></p>","1",""
"","","","","","html-keyboard-response","130","221504","0.0-4.0-0.63","26","1","2022-10-20 06:44:15","d60b49b5908c80e163b920d72b52d584","120.197.198.8","Mozilla/5.0 (Windows NT 6.1; WOW64) AppleWebKit/537.36 (KHTML, like Gecko) Chrome/105.0.0.0 Safari/537.36","WebKit","Chrome","105.0.0.0","Windows","6.1","null","<div style=""font-size:60px;"">+</div>","null",""
"","","","","","html-button-response","131","222678","0.0-4.0-1.63","26","1","2022-10-20 06:44:15","d60b49b5908c80e163b920d72b52d584","120.197.198.8","Mozilla/5.0 (Windows NT 6.1; WOW64) AppleWebKit/537.36 (KHTML, like Gecko) Chrome/105.0.0.0 Safari/537.36","WebKit","Chrome","105.0.0.0","Windows","6.1","1162","<p>作为军队的指挥官，你可以选择发射导弹杀死 <strong>3名</strong> 敌国士兵，但会误杀附近的 <strong>1名</strong> 敌国平民。</p> <p>平民照片如下图所示。</p> <p></p> <img src='stimuli/faces/NCF6.jpg', style='max-width: 30%;'> </img> <p><strong>你是否选择发射武器？</strong></p>","1",""
"","","","","","survey-multi-choice","132","246247","0.0-5.0","26","1","2022-10-20 06:44:15","d60b49b5908c80e163b920d72b52d584","120.197.198.8","Mozilla/5.0 (Windows NT 6.1; WOW64) AppleWebKit/537.36 (KHTML, like Gecko) Chrome/105.0.0.0 Safari/537.36","WebKit","Chrome","105.0.0.0","Windows","6.1","23552","","{""Attention1"":""""}","[0]"
"","","","","","html-button-response","133","248422","0.0-6.0","26","1","2022-10-20 06:44:15","d60b49b5908c80e163b920d72b52d584","120.197.198.8","Mozilla/5.0 (Windows NT 6.1; WOW64) AppleWebKit/537.36 (KHTML, like Gecko) Chrome/105.0.0.0 Safari/537.36","WebKit","Chrome","105.0.0.0","Windows","6.1","2156","<p style=""font-size:20px;font-weight:bold;"">恭喜！</p><p>你已经完成了实验的第一部分。</p><p>请休息放松一下，然后进入第二部分。</p><p>这部分大约需要10分钟。</p>","0",""
"","","","","","survey-text","134","306855","0.0-7.0","26","1","2022-10-20 06:44:15","d60b49b5908c80e163b920d72b52d584","120.197.198.8","Mozilla/5.0 (Windows NT 6.1; WOW64) AppleWebKit/537.36 (KHTML, like Gecko) Chrome/105.0.0.0 Safari/537.36","WebKit","Chrome","105.0.0.0","Windows","6.1","57341","","{""Age"":""21"",""Nation"":""中国"",""Born"":""广东省"",""Live"":""广州"",""Ethnic"":""汉"",""Alipay"":""13169797428""}",""
"","","","","","survey-multi-choice","135","323992","0.0-8.0","26","1","2022-10-20 06:44:15","d60b49b5908c80e163b920d72b52d584","120.197.198.8","Mozilla/5.0 (Windows NT 6.1; WOW64) AppleWebKit/537.36 (KHTML, like Gecko) Chrome/105.0.0.0 Safari/537.36","WebKit","Chrome","105.0.0.0","Windows","6.1","17119","","{""Gender"":""男"",""Education"":""专科毕业"",""Income"":""￥140,000-￥269,999"",""Children"":""1"",""Race"":""白种人""}","[0,1,2,3,4]"
"","","","","","survey-multi-select","136","331464","0.0-9.0","26","1","2022-10-20 06:44:15","d60b49b5908c80e163b920d72b52d584","120.197.198.8","Mozilla/5.0 (Windows NT 6.1; WOW64) AppleWebKit/537.36 (KHTML, like Gecko) Chrome/105.0.0.0 Safari/537.36","WebKit","Chrome","105.0.0.0","Windows","6.1","7408","","{""Marriage"":[""已婚""],""Religion"":[""无宗教信仰""]}","[0,1]"
"","","","","","survey-multi-choice","137","337039","0.0-10.0","26","1","2022-10-20 06:44:15","d60b49b5908c80e163b920d72b52d584","120.197.198.8","Mozilla/5.0 (Windows NT 6.1; WOW64) AppleWebKit/537.36 (KHTML, like Gecko) Chrome/105.0.0.0 Safari/537.36","WebKit","Chrome","105.0.0.0","Windows","6.1","5553","","{""SES"":""7""}","[0]"
"","","","","","html-button-response","138","341630","0.0-11.0","26","1","2022-10-20 06:44:15","d60b49b5908c80e163b920d72b52d584","120.197.198.8","Mozilla/5.0 (Windows NT 6.1; WOW64) AppleWebKit/537.36 (KHTML, like Gecko) Chrome/105.0.0.0 Safari/537.36","WebKit","Chrome","105.0.0.0","Windows","6.1","4570","<p><strong>请判断下列陈述在多大程度上可以形容你？</p><p> (1 = ""和我一点都不像"" to 5 = ""非常像我"".)</strong></p>","0",""
"","","","","","survey-likert","139","368665","0.0-12.0","26","1","2022-10-20 06:44:15","d60b49b5908c80e163b920d72b52d584","120.197.198.8","Mozilla/5.0 (Windows NT 6.1; WOW64) AppleWebKit/537.36 (KHTML, like Gecko) Chrome/105.0.0.0 Safari/537.36","WebKit","Chrome","105.0.0.0","Windows","6.1","27017","","{""Aggression1"":1,""Aggression2"":1,""Aggression3"":3,""Aggression4"":0,""Aggression5"":3,""Aggression6"":1,""Aggression7"":4,""Aggression8"":1,""Aggression9"":0}","[0,1,2,3,4,5,6,7,8]"
"","","","","","html-button-response","140","372678","0.0-13.0","26","1","2022-10-20 06:44:15","d60b49b5908c80e163b920d72b52d584","120.197.198.8","Mozilla/5.0 (Windows NT 6.1; WOW64) AppleWebKit/537.36 (KHTML, like Gecko) Chrome/105.0.0.0 Safari/537.36","WebKit","Chrome","105.0.0.0","Windows","6.1","3991","<p><strong>请判断你在多大程度上同意下列陈述。</strong></p>","0",""
"","","","","","survey-likert","141","482127","0.0-14.0","26","1","2022-10-20 06:44:15","d60b49b5908c80e163b920d72b52d584","120.197.198.8","Mozilla/5.0 (Windows NT 6.1; WOW64) AppleWebKit/537.36 (KHTML, like Gecko) Chrome/105.0.0.0 Safari/537.36","WebKit","Chrome","105.0.0.0","Windows","6.1","109421","","{""scale18"":3,""scale26"":3,""scale2"":2,""scale28"":3,""scale10"":3,""scale14"":4,""scale11"":3,""scale17"":2,""scale20"":3,""scale19"":3,""scale24"":1,""scale23"":2,""scale21"":4,""scale7"":3,""scale27"":1,""scale1"":1,""scale25"":3,""scale16"":1,""scale3"":2,""scale15"":3,""scale22"":0,""scale12"":2,""scale5"":1,""scale4"":3,""scale8"":3,""scale9"":3,""scale13"":4,""scale6"":1}","[17,25,1,27,9,13,10,16,19,18,23,22,20,6,26,0,24,15,2,14,21,11,4,3,7,8,12,5]"
"","","","","","html-button-response","142","484149","0.0-15.0","26","1","2022-10-20 06:44:15","d60b49b5908c80e163b920d72b52d584","120.197.198.8","Mozilla/5.0 (Windows NT 6.1; WOW64) AppleWebKit/537.36 (KHTML, like Gecko) Chrome/105.0.0.0 Safari/537.36","WebKit","Chrome","105.0.0.0","Windows","6.1","2000","<p><strong>请判断你在多大程度上同意下列陈述。</strong></p>","0",""
"","","","","","survey-likert","143","540476","0.0-16.0","26","1","2022-10-20 06:44:15","d60b49b5908c80e163b920d72b52d584","120.197.198.8","Mozilla/5.0 (Windows NT 6.1; WOW64) AppleWebKit/537.36 (KHTML, like Gecko) Chrome/105.0.0.0 Safari/537.36","WebKit","Chrome","105.0.0.0","Windows","6.1","56304","","{""sdo14"":6,""sdo3"":5,""sdo15"":4,""sdo7"":3,""sdo2"":2,""sdo4"":4,""sdo13"":6,""sdo6"":5,""sdo5"":5,""sdo1"":4,""sdo10"":5,""sdo16"":6,""sdo11"":5,""sdo8"":4,""sdo12"":4,""sdo9"":5}","[13,2,14,6,1,3,12,5,4,0,9,15,10,7,11,8]"
"","","","","","html-button-response","144","541694","0.0-17.0","26","1","2022-10-20 06:44:15","d60b49b5908c80e163b920d72b52d584","120.197.198.8","Mozilla/5.0 (Windows NT 6.1; WOW64) AppleWebKit/537.36 (KHTML, like Gecko) Chrome/105.0.0.0 Safari/537.36","WebKit","Chrome","105.0.0.0","Windows","6.1","1195","<p><strong>请判断你在多大程度上同意下列陈述。</strong></p>","0",""
"","","","","","survey-likert","145","579867","0.0-18.0","26","1","2022-10-20 06:44:15","d60b49b5908c80e163b920d72b52d584","120.197.198.8","Mozilla/5.0 (Windows NT 6.1; WOW64) AppleWebKit/537.36 (KHTML, like Gecko) Chrome/105.0.0.0 Safari/537.36","WebKit","Chrome","105.0.0.0","Windows","6.1","38155","","{""caring1"":4,""liking1"":1,""caring2"":4,""protection1"":4,""liking2"":0,""caring3"":3,""protection2"":3,""liking3"":1,""protection3"":4,""caring4"":4,""liking4"":0,""protection4"":4,""caring5"":3,""liking5"":4,""protection5"":4}","[0,1,2,3,4,5,6,7,8,9,10,11,12,13,14]"
"","","","","","html-button-response","146","580998","0.0-19.0","26","1","2022-10-20 06:44:15","d60b49b5908c80e163b920d72b52d584","120.197.198.8","Mozilla/5.0 (Windows NT 6.1; WOW64) AppleWebKit/537.36 (KHTML, like Gecko) Chrome/105.0.0.0 Safari/537.36","WebKit","Chrome","105.0.0.0","Windows","6.1","1106","<p><strong>请判断下列场景中你的内心感受有多柔软。</strong></p>","0",""
"","","","","","survey-likert","147","616889","0.0-20.0","26","1","2022-10-20 06:44:15","d60b49b5908c80e163b920d72b52d584","120.197.198.8","Mozilla/5.0 (Windows NT 6.1; WOW64) AppleWebKit/537.36 (KHTML, like Gecko) Chrome/105.0.0.0 Safari/537.36","WebKit","Chrome","105.0.0.0","Windows","6.1","35872","","{""tenderness-positive1"":4,""tenderness-negative1"":3,""tenderness-negative2"":1,""tenderness-positive2"":3,""tenderness-positive3"":3,""tenderness-negative3"":4,""tenderness-positive4"":3,""tendereness-negative4"":3,""tendernness-negative5"":1,""tenderness-positive5"":1}","[0,1,2,3,4,5,6,7,8,9]"
"","","","","","survey-multi-choice","148","629661","0.0-21.0","26","1","2022-10-20 06:44:15","d60b49b5908c80e163b920d72b52d584","120.197.198.8","Mozilla/5.0 (Windows NT 6.1; WOW64) AppleWebKit/537.36 (KHTML, like Gecko) Chrome/105.0.0.0 Safari/537.36","WebKit","Chrome","105.0.0.0","Windows","6.1","12750","","{""Attention2"":""其他""}","[0]"
"","","","","","html-button-response","149","631124","0.0-22.0","26","1","2022-10-20 06:44:15","d60b49b5908c80e163b920d72b52d584","120.197.198.8","Mozilla/5.0 (Windows NT 6.1; WOW64) AppleWebKit/537.36 (KHTML, like Gecko) Chrome/105.0.0.0 Safari/537.36","WebKit","Chrome","105.0.0.0","Windows","6.1","1442","<p><strong>请判断你在多大程度上同意下列陈述。</strong></p>","0",""
"","","","","","survey-likert","150","702941","0.0-23.0","26","1","2022-10-20 06:44:15","d60b49b5908c80e163b920d72b52d584","120.197.198.8","Mozilla/5.0 (Windows NT 6.1; WOW64) AppleWebKit/537.36 (KHTML, like Gecko) Chrome/105.0.0.0 Safari/537.36","WebKit","Chrome","105.0.0.0","Windows","6.1","71794","","{""Patri12"":3,""Nation4"":4,""Patri8"":4,""Patri1"":4,""Nation5"":4,""Nation6"":3,""Patri2"":4,""Patri4"":4,""Nation1"":4,""Patri11"":3,""Patri6"":0,""Patri5"":4,""Nation7"":4,""Patri7"":4,""Nation2"":4,""Nation3"":4,""Patri10"":0,""Nation8"":0,""Patri3"":4,""Patri9"":1}","[11,15,7,0,16,17,1,3,12,10,5,4,18,6,13,14,9,19,2,8]"
"","","","","","html-button-response","151","704478","0.0-24.0","26","1","2022-10-20 06:44:15","d60b49b5908c80e163b920d72b52d584","120.197.198.8","Mozilla/5.0 (Windows NT 6.1; WOW64) AppleWebKit/537.36 (KHTML, like Gecko) Chrome/105.0.0.0 Safari/537.36","WebKit","Chrome","105.0.0.0","Windows","6.1","1514","<p><strong>请判断你在多大程度上同意下列陈述。</strong></p>","0",""
"","","","","","survey-likert","152","743384","0.0-25.0","26","1","2022-10-20 06:44:15","d60b49b5908c80e163b920d72b52d584","120.197.198.8","Mozilla/5.0 (Windows NT 6.1; WOW64) AppleWebKit/537.36 (KHTML, like Gecko) Chrome/105.0.0.0 Safari/537.36","WebKit","Chrome","105.0.0.0","Windows","6.1","38879","","{""vc3"":8,""vi4"":2,""vi3"":8,""vi2"":8,""hc1"":3,""hc4"":8,""vc4"":8,""hi1"":3,""hc3"":8,""hi3"":6,""vi1"":8,""Robot"":6,""hc2"":8,""hi4"":8,""vc2"":8,""hi2"":8,""vc1"":8}","[15,8,6,5,9,12,16,0,11,2,4,7,10,3,14,1,13]"
"","","","","","survey-text","153","752326","0.0-26.0","26","1","2022-10-20 06:44:15","d60b49b5908c80e163b920d72b52d584","120.197.198.8","Mozilla/5.0 (Windows NT 6.1; WOW64) AppleWebKit/537.36 (KHTML, like Gecko) Chrome/105.0.0.0 Safari/537.36","WebKit","Chrome","105.0.0.0","Windows","6.1","8873","","{""Comments"":""暂时没有""}",""
"","","","","","html-button-response","154","753758","0.0-27.0","26","1","2022-10-20 06:44:15","d60b49b5908c80e163b920d72b52d584","120.197.198.8","Mozilla/5.0 (Windows NT 6.1; WOW64) AppleWebKit/537.36 (KHTML, like Gecko) Chrome/105.0.0.0 Safari/537.36","WebKit","Chrome","105.0.0.0","Windows","6.1","1415","<strong><p>恭喜你完成了实验！</p><p>感谢您的参与。</p></strong>","0",""
