"success","timeout","failed_images","failed_audio","failed_video","trial_type","trial_index","time_elapsed","internal_node_id","run_id","condition","recorded_at","source_code_version","ip","user_agent","device","browser","browser_version","platform","platform_version","rt","stimulus","response","question_order"
"true","false","[]","[]","[]","preload","0","991","0.0-0.0","28","1","2022-10-20 06:54:34","d60b49b5908c80e163b920d72b52d584","14.116.159.210","Mozilla/5.0 (Windows NT 10.0; WOW64) AppleWebKit/537.36 (KHTML, like Gecko) Chrome/94.0.4606.71 Safari/537.36 Core/1.94.178.400 QQBrowser/11.2.5170.400","WebKit","Chrome","94.0.4606.71","Windows","10.0","","","",""
"true","","","","","fullscreen","1","3217","0.0-1.0","28","1","2022-10-20 06:54:34","d60b49b5908c80e163b920d72b52d584","14.116.159.210","Mozilla/5.0 (Windows NT 10.0; WOW64) AppleWebKit/537.36 (KHTML, like Gecko) Chrome/94.0.4606.71 Safari/537.36 Core/1.94.178.400 QQBrowser/11.2.5170.400","WebKit","Chrome","94.0.4606.71","Windows","10.0","","","",""
"","","","","","html-button-response","2","5583","0.0-2.0","28","1","2022-10-20 06:54:34","d60b49b5908c80e163b920d72b52d584","14.116.159.210","Mozilla/5.0 (Windows NT 10.0; WOW64) AppleWebKit/537.36 (KHTML, like Gecko) Chrome/94.0.4606.71 Safari/537.36 Core/1.94.178.400 QQBrowser/11.2.5170.400","WebKit","Chrome","94.0.4606.71","Windows","10.0","2364","<p style=""font-size:20px;font-weight:bold;"">实验知情同意书</p><p style=""text-align:left;""><strong>实验名称：</strong>社会冲突研究</p><p style=""text-align:left;""><strong>主要研究者：</strong>韩晓春副教授（北京师范大学心理学部）</p><p style=""text-align:left;""><strong>联系方式：</strong>发送邮件至xiaochun.han@bnu.edu.cn</p><p style=""text-align:left;""><strong>研究目的：</strong>研究旨在了解人类面对群体冲突时的决策方式，以及相关的心理学特质。实验调查大约需要20分钟。</p><p style=""text-align:left;""><strong>实验流程：</strong>实验包含两部分。第一部分呈现一系列群体冲突场景，请你决定如何对这些冲突进行反应，大约需要10分钟完成。第二部分包含一系列人口统计学信息收集和心理学问卷，大约需要10分钟完成。</p><p style=""text-align:left;""><strong>参加及退出规则：</strong>参加本实验完全取决于您的个人意愿。在参与过程中，您可以随时退出，并且不用承担任何后果。</p><p style=""text-align:left;""><strong>隐私：</strong>本实验完全匿名进行，不会收集您的姓名或其他能够识别您身份的信息。实验中收集的作答仅用作科学研究使用，可能会在学术期刊/书籍上发表，或者用于教学，您的数据未来可能会和其他研究者或实验室分享，但您的个人身份不会被识别。</p><p style=""text-align:left;""><strong>实验报酬：</strong>实验完成后，您将获得15元人民币报酬，以感谢您的时间和努力。调查问卷中包含几道题目用以测验您作答时的认真度。只有完成全部实验，并且正确回答认真度测验的被试才能获得实验报酬。实验报酬将通过支付宝转账发放。</p><p style=""text-align:left;font-size:20px;""><strong>如果您同意以上实验知情同意书的内容，请点击'同意并且开始实验'按钮；否则请关闭浏览器界面，退出实验。</strong></p>","0",""
"","","","","","html-button-response","3","7152","0.0-3.0","28","1","2022-10-20 06:54:34","d60b49b5908c80e163b920d72b52d584","14.116.159.210","Mozilla/5.0 (Windows NT 10.0; WOW64) AppleWebKit/537.36 (KHTML, like Gecko) Chrome/94.0.4606.71 Safari/537.36 Core/1.94.178.400 QQBrowser/11.2.5170.400","WebKit","Chrome","94.0.4606.71","Windows","10.0","1567","<p ><strong>实验任务一：</strong></p><p>请想象你的国家与另一个国家发生了军事冲突。</p><p>你是国家军队的指挥官，你将如何在冲突中进行决策。</p><p>具体来说，作为军队指挥官，请你决定是否发射导弹进行打击。</p><p>接下来，你会面对一系列场景，请仔细阅读每个场景，然后进行决策。</p><p>这部分实验任务大约需要10分钟。</p><p><strong>实验过程中，请集中注意力。</strong></p>","0",""
"","","","","","html-keyboard-response","4","8155","0.0-4.0-0.0","28","1","2022-10-20 06:54:34","d60b49b5908c80e163b920d72b52d584","14.116.159.210","Mozilla/5.0 (Windows NT 10.0; WOW64) AppleWebKit/537.36 (KHTML, like Gecko) Chrome/94.0.4606.71 Safari/537.36 Core/1.94.178.400 QQBrowser/11.2.5170.400","WebKit","Chrome","94.0.4606.71","Windows","10.0","null","<div style=""font-size:60px;"">+</div>","null",""
"","","","","","html-button-response","5","15070","0.0-4.0-1.0","28","1","2022-10-20 06:54:34","d60b49b5908c80e163b920d72b52d584","14.116.159.210","Mozilla/5.0 (Windows NT 10.0; WOW64) AppleWebKit/537.36 (KHTML, like Gecko) Chrome/94.0.4606.71 Safari/537.36 Core/1.94.178.400 QQBrowser/11.2.5170.400","WebKit","Chrome","94.0.4606.71","Windows","10.0","6913","<p>作为军队的指挥官，你可以选择发射导弹杀死 <strong>4名</strong> 敌国士兵，但会误杀附近的 <strong>1名</strong> 敌国平民。</p> <p>平民照片如下图所示。</p> <p></p> <img src='stimuli/faces/NCM3.jpg', style='max-width: 30%;'> </img> <p><strong>你是否选择发射武器？</strong></p>","1",""
"","","","","","html-keyboard-response","6","16075","0.0-4.0-0.1","28","1","2022-10-20 06:54:34","d60b49b5908c80e163b920d72b52d584","14.116.159.210","Mozilla/5.0 (Windows NT 10.0; WOW64) AppleWebKit/537.36 (KHTML, like Gecko) Chrome/94.0.4606.71 Safari/537.36 Core/1.94.178.400 QQBrowser/11.2.5170.400","WebKit","Chrome","94.0.4606.71","Windows","10.0","null","<div style=""font-size:60px;"">+</div>","null",""
"","","","","","html-button-response","7","17374","0.0-4.0-1.1","28","1","2022-10-20 06:54:34","d60b49b5908c80e163b920d72b52d584","14.116.159.210","Mozilla/5.0 (Windows NT 10.0; WOW64) AppleWebKit/537.36 (KHTML, like Gecko) Chrome/94.0.4606.71 Safari/537.36 Core/1.94.178.400 QQBrowser/11.2.5170.400","WebKit","Chrome","94.0.4606.71","Windows","10.0","1297","<p>作为军队的指挥官，你可以选择发射导弹杀死 <strong>5名</strong> 敌国士兵，但会炸毁附近的 <strong>1棵</strong> 敌国树木。</p> <p>树木的照片如下图所示。</p> <p></p> <img src='stimuli/trees/11.png', style='max-width: 30%;'> </img> <p><strong>你是否选择发射武器？</strong></p>","0",""
"","","","","","html-keyboard-response","8","18377","0.0-4.0-0.2","28","1","2022-10-20 06:54:34","d60b49b5908c80e163b920d72b52d584","14.116.159.210","Mozilla/5.0 (Windows NT 10.0; WOW64) AppleWebKit/537.36 (KHTML, like Gecko) Chrome/94.0.4606.71 Safari/537.36 Core/1.94.178.400 QQBrowser/11.2.5170.400","WebKit","Chrome","94.0.4606.71","Windows","10.0","null","<div style=""font-size:60px;"">+</div>","null",""
"","","","","","html-button-response","9","20806","0.0-4.0-1.2","28","1","2022-10-20 06:54:34","d60b49b5908c80e163b920d72b52d584","14.116.159.210","Mozilla/5.0 (Windows NT 10.0; WOW64) AppleWebKit/537.36 (KHTML, like Gecko) Chrome/94.0.4606.71 Safari/537.36 Core/1.94.178.400 QQBrowser/11.2.5170.400","WebKit","Chrome","94.0.4606.71","Windows","10.0","2427","<p>作为军队的指挥官，你可以选择发射导弹杀死 <strong>7名</strong> 敌国士兵，但会误杀附近的 <strong>1名</strong> 敌国平民。</p> <p>平民照片如下图所示。</p> <p></p> <img src='stimuli/faces/NCF2.jpg', style='max-width: 30%;'> </img> <p><strong>你是否选择发射武器？</strong></p>","0",""
"","","","","","html-keyboard-response","10","21809","0.0-4.0-0.3","28","1","2022-10-20 06:54:34","d60b49b5908c80e163b920d72b52d584","14.116.159.210","Mozilla/5.0 (Windows NT 10.0; WOW64) AppleWebKit/537.36 (KHTML, like Gecko) Chrome/94.0.4606.71 Safari/537.36 Core/1.94.178.400 QQBrowser/11.2.5170.400","WebKit","Chrome","94.0.4606.71","Windows","10.0","null","<div style=""font-size:60px;"">+</div>","null",""
"","","","","","html-button-response","11","24950","0.0-4.0-1.3","28","1","2022-10-20 06:54:34","d60b49b5908c80e163b920d72b52d584","14.116.159.210","Mozilla/5.0 (Windows NT 10.0; WOW64) AppleWebKit/537.36 (KHTML, like Gecko) Chrome/94.0.4606.71 Safari/537.36 Core/1.94.178.400 QQBrowser/11.2.5170.400","WebKit","Chrome","94.0.4606.71","Windows","10.0","3138","<p>作为军队的指挥官，你可以选择发射导弹杀死 <strong>4名</strong> 敌国士兵，但会炸毁附近的 <strong>1棵</strong> 敌国树木。</p> <p>树木的照片如下图所示。</p> <p></p> <img src='stimuli/trees/13.png', style='max-width: 30%;'> </img> <p><strong>你是否选择发射武器？</strong></p>","0",""
"","","","","","html-keyboard-response","12","25953","0.0-4.0-0.4","28","1","2022-10-20 06:54:34","d60b49b5908c80e163b920d72b52d584","14.116.159.210","Mozilla/5.0 (Windows NT 10.0; WOW64) AppleWebKit/537.36 (KHTML, like Gecko) Chrome/94.0.4606.71 Safari/537.36 Core/1.94.178.400 QQBrowser/11.2.5170.400","WebKit","Chrome","94.0.4606.71","Windows","10.0","null","<div style=""font-size:60px;"">+</div>","null",""
"","","","","","html-button-response","13","26943","0.0-4.0-1.4","28","1","2022-10-20 06:54:34","d60b49b5908c80e163b920d72b52d584","14.116.159.210","Mozilla/5.0 (Windows NT 10.0; WOW64) AppleWebKit/537.36 (KHTML, like Gecko) Chrome/94.0.4606.71 Safari/537.36 Core/1.94.178.400 QQBrowser/11.2.5170.400","WebKit","Chrome","94.0.4606.71","Windows","10.0","987","<p>作为军队的指挥官，你可以选择发射导弹杀死 <strong>9名</strong> 敌国士兵，但会误杀附近的 <strong>1名</strong> 敌国平民。</p> <p>平民照片如下图所示。</p> <p></p> <img src='stimuli/faces/NCM5.jpg', style='max-width: 30%;'> </img> <p><strong>你是否选择发射武器？</strong></p>","0",""
"","","","","","html-keyboard-response","14","27945","0.0-4.0-0.5","28","1","2022-10-20 06:54:34","d60b49b5908c80e163b920d72b52d584","14.116.159.210","Mozilla/5.0 (Windows NT 10.0; WOW64) AppleWebKit/537.36 (KHTML, like Gecko) Chrome/94.0.4606.71 Safari/537.36 Core/1.94.178.400 QQBrowser/11.2.5170.400","WebKit","Chrome","94.0.4606.71","Windows","10.0","null","<div style=""font-size:60px;"">+</div>","null",""
"","","","","","html-button-response","15","29366","0.0-4.0-1.5","28","1","2022-10-20 06:54:34","d60b49b5908c80e163b920d72b52d584","14.116.159.210","Mozilla/5.0 (Windows NT 10.0; WOW64) AppleWebKit/537.36 (KHTML, like Gecko) Chrome/94.0.4606.71 Safari/537.36 Core/1.94.178.400 QQBrowser/11.2.5170.400","WebKit","Chrome","94.0.4606.71","Windows","10.0","1418","<p>作为军队的指挥官，你可以选择发射导弹杀死 <strong>5名</strong> 敌国士兵，但会误杀附近的 <strong>1名</strong> 敌国平民。</p> <p>平民照片如下图所示。</p> <p></p> <img src='stimuli/faces/NCM6.jpg', style='max-width: 30%;'> </img> <p><strong>你是否选择发射武器？</strong></p>","0",""
"","","","","","html-keyboard-response","16","30368","0.0-4.0-0.6","28","1","2022-10-20 06:54:34","d60b49b5908c80e163b920d72b52d584","14.116.159.210","Mozilla/5.0 (Windows NT 10.0; WOW64) AppleWebKit/537.36 (KHTML, like Gecko) Chrome/94.0.4606.71 Safari/537.36 Core/1.94.178.400 QQBrowser/11.2.5170.400","WebKit","Chrome","94.0.4606.71","Windows","10.0","null","<div style=""font-size:60px;"">+</div>","null",""
"","","","","","html-button-response","17","31215","0.0-4.0-1.6","28","1","2022-10-20 06:54:34","d60b49b5908c80e163b920d72b52d584","14.116.159.210","Mozilla/5.0 (Windows NT 10.0; WOW64) AppleWebKit/537.36 (KHTML, like Gecko) Chrome/94.0.4606.71 Safari/537.36 Core/1.94.178.400 QQBrowser/11.2.5170.400","WebKit","Chrome","94.0.4606.71","Windows","10.0","844","<p>作为军队的指挥官，你可以选择发射导弹杀死 <strong>9名</strong> 敌国士兵，但会误杀附近的 <strong>1名</strong> 敌国平民。</p> <p>平民照片如下图所示。</p> <p></p> <img src='stimuli/faces/NCF7.jpg', style='max-width: 30%;'> </img> <p><strong>你是否选择发射武器？</strong></p>","0",""
"","","","","","html-keyboard-response","18","32219","0.0-4.0-0.7","28","1","2022-10-20 06:54:34","d60b49b5908c80e163b920d72b52d584","14.116.159.210","Mozilla/5.0 (Windows NT 10.0; WOW64) AppleWebKit/537.36 (KHTML, like Gecko) Chrome/94.0.4606.71 Safari/537.36 Core/1.94.178.400 QQBrowser/11.2.5170.400","WebKit","Chrome","94.0.4606.71","Windows","10.0","null","<div style=""font-size:60px;"">+</div>","null",""
"","","","","","html-button-response","19","33279","0.0-4.0-1.7","28","1","2022-10-20 06:54:34","d60b49b5908c80e163b920d72b52d584","14.116.159.210","Mozilla/5.0 (Windows NT 10.0; WOW64) AppleWebKit/537.36 (KHTML, like Gecko) Chrome/94.0.4606.71 Safari/537.36 Core/1.94.178.400 QQBrowser/11.2.5170.400","WebKit","Chrome","94.0.4606.71","Windows","10.0","1054","<p>作为军队的指挥官，你可以选择发射导弹杀死 <strong>5名</strong> 敌国士兵，但会炸毁附近的 <strong>1棵</strong> 敌国树木。</p> <p>树木的照片如下图所示。</p> <p></p> <img src='stimuli/trees/1.png', style='max-width: 30%;'> </img> <p><strong>你是否选择发射武器？</strong></p>","0",""
"","","","","","html-keyboard-response","20","34281","0.0-4.0-0.8","28","1","2022-10-20 06:54:34","d60b49b5908c80e163b920d72b52d584","14.116.159.210","Mozilla/5.0 (Windows NT 10.0; WOW64) AppleWebKit/537.36 (KHTML, like Gecko) Chrome/94.0.4606.71 Safari/537.36 Core/1.94.178.400 QQBrowser/11.2.5170.400","WebKit","Chrome","94.0.4606.71","Windows","10.0","null","<div style=""font-size:60px;"">+</div>","null",""
"","","","","","html-button-response","21","35102","0.0-4.0-1.8","28","1","2022-10-20 06:54:34","d60b49b5908c80e163b920d72b52d584","14.116.159.210","Mozilla/5.0 (Windows NT 10.0; WOW64) AppleWebKit/537.36 (KHTML, like Gecko) Chrome/94.0.4606.71 Safari/537.36 Core/1.94.178.400 QQBrowser/11.2.5170.400","WebKit","Chrome","94.0.4606.71","Windows","10.0","817","<p>作为军队的指挥官，你可以选择发射导弹杀死 <strong>10名</strong> 敌国士兵，但会误杀附近的 <strong>1名</strong> 敌国平民。</p> <p>平民照片如下图所示。</p> <p></p> <img src='stimuli/faces/NCM8.jpg', style='max-width: 30%;'> </img> <p><strong>你是否选择发射武器？</strong></p>","0",""
"","","","","","html-keyboard-response","22","36105","0.0-4.0-0.9","28","1","2022-10-20 06:54:34","d60b49b5908c80e163b920d72b52d584","14.116.159.210","Mozilla/5.0 (Windows NT 10.0; WOW64) AppleWebKit/537.36 (KHTML, like Gecko) Chrome/94.0.4606.71 Safari/537.36 Core/1.94.178.400 QQBrowser/11.2.5170.400","WebKit","Chrome","94.0.4606.71","Windows","10.0","null","<div style=""font-size:60px;"">+</div>","null",""
"","","","","","html-button-response","23","37830","0.0-4.0-1.9","28","1","2022-10-20 06:54:34","d60b49b5908c80e163b920d72b52d584","14.116.159.210","Mozilla/5.0 (Windows NT 10.0; WOW64) AppleWebKit/537.36 (KHTML, like Gecko) Chrome/94.0.4606.71 Safari/537.36 Core/1.94.178.400 QQBrowser/11.2.5170.400","WebKit","Chrome","94.0.4606.71","Windows","10.0","1723","<p>作为军队的指挥官，你可以选择发射导弹杀死 <strong>4名</strong> 敌国士兵，但会炸毁附近的 <strong>1棵</strong> 敌国树木。</p> <p>树木的照片如下图所示。</p> <p></p> <img src='stimuli/trees/4.png', style='max-width: 30%;'> </img> <p><strong>你是否选择发射武器？</strong></p>","0",""
"","","","","","html-keyboard-response","24","38833","0.0-4.0-0.10","28","1","2022-10-20 06:54:34","d60b49b5908c80e163b920d72b52d584","14.116.159.210","Mozilla/5.0 (Windows NT 10.0; WOW64) AppleWebKit/537.36 (KHTML, like Gecko) Chrome/94.0.4606.71 Safari/537.36 Core/1.94.178.400 QQBrowser/11.2.5170.400","WebKit","Chrome","94.0.4606.71","Windows","10.0","null","<div style=""font-size:60px;"">+</div>","null",""
"","","","","","html-button-response","25","40310","0.0-4.0-1.10","28","1","2022-10-20 06:54:34","d60b49b5908c80e163b920d72b52d584","14.116.159.210","Mozilla/5.0 (Windows NT 10.0; WOW64) AppleWebKit/537.36 (KHTML, like Gecko) Chrome/94.0.4606.71 Safari/537.36 Core/1.94.178.400 QQBrowser/11.2.5170.400","WebKit","Chrome","94.0.4606.71","Windows","10.0","1475","<p>作为军队的指挥官，你可以选择发射导弹杀死 <strong>3名</strong> 敌国士兵，但会炸毁附近的 <strong>1棵</strong> 敌国树木。</p> <p>树木的照片如下图所示。</p> <p></p> <img src='stimuli/trees/3.png', style='max-width: 30%;'> </img> <p><strong>你是否选择发射武器？</strong></p>","0",""
"","","","","","html-keyboard-response","26","41313","0.0-4.0-0.11","28","1","2022-10-20 06:54:34","d60b49b5908c80e163b920d72b52d584","14.116.159.210","Mozilla/5.0 (Windows NT 10.0; WOW64) AppleWebKit/537.36 (KHTML, like Gecko) Chrome/94.0.4606.71 Safari/537.36 Core/1.94.178.400 QQBrowser/11.2.5170.400","WebKit","Chrome","94.0.4606.71","Windows","10.0","null","<div style=""font-size:60px;"">+</div>","null",""
"","","","","","html-button-response","27","42527","0.0-4.0-1.11","28","1","2022-10-20 06:54:34","d60b49b5908c80e163b920d72b52d584","14.116.159.210","Mozilla/5.0 (Windows NT 10.0; WOW64) AppleWebKit/537.36 (KHTML, like Gecko) Chrome/94.0.4606.71 Safari/537.36 Core/1.94.178.400 QQBrowser/11.2.5170.400","WebKit","Chrome","94.0.4606.71","Windows","10.0","1211","<p>作为军队的指挥官，你可以选择发射导弹杀死 <strong>6名</strong> 敌国士兵，但会误杀附近的 <strong>1名</strong> 敌国平民。</p> <p>平民照片如下图所示。</p> <p></p> <img src='stimuli/faces/NCF6.jpg', style='max-width: 30%;'> </img> <p><strong>你是否选择发射武器？</strong></p>","0",""
"","","","","","html-keyboard-response","28","43530","0.0-4.0-0.12","28","1","2022-10-20 06:54:34","d60b49b5908c80e163b920d72b52d584","14.116.159.210","Mozilla/5.0 (Windows NT 10.0; WOW64) AppleWebKit/537.36 (KHTML, like Gecko) Chrome/94.0.4606.71 Safari/537.36 Core/1.94.178.400 QQBrowser/11.2.5170.400","WebKit","Chrome","94.0.4606.71","Windows","10.0","null","<div style=""font-size:60px;"">+</div>","null",""
"","","","","","html-button-response","29","44399","0.0-4.0-1.12","28","1","2022-10-20 06:54:34","d60b49b5908c80e163b920d72b52d584","14.116.159.210","Mozilla/5.0 (Windows NT 10.0; WOW64) AppleWebKit/537.36 (KHTML, like Gecko) Chrome/94.0.4606.71 Safari/537.36 Core/1.94.178.400 QQBrowser/11.2.5170.400","WebKit","Chrome","94.0.4606.71","Windows","10.0","867","<p>作为军队的指挥官，你可以选择发射导弹杀死 <strong>10名</strong> 敌国士兵，但会炸毁附近的 <strong>1棵</strong> 敌国树木。</p> <p>树木的照片如下图所示。</p> <p></p> <img src='stimuli/trees/11.png', style='max-width: 30%;'> </img> <p><strong>你是否选择发射武器？</strong></p>","0",""
"","","","","","html-keyboard-response","30","45401","0.0-4.0-0.13","28","1","2022-10-20 06:54:34","d60b49b5908c80e163b920d72b52d584","14.116.159.210","Mozilla/5.0 (Windows NT 10.0; WOW64) AppleWebKit/537.36 (KHTML, like Gecko) Chrome/94.0.4606.71 Safari/537.36 Core/1.94.178.400 QQBrowser/11.2.5170.400","WebKit","Chrome","94.0.4606.71","Windows","10.0","null","<div style=""font-size:60px;"">+</div>","null",""
"","","","","","html-button-response","31","46607","0.0-4.0-1.13","28","1","2022-10-20 06:54:34","d60b49b5908c80e163b920d72b52d584","14.116.159.210","Mozilla/5.0 (Windows NT 10.0; WOW64) AppleWebKit/537.36 (KHTML, like Gecko) Chrome/94.0.4606.71 Safari/537.36 Core/1.94.178.400 QQBrowser/11.2.5170.400","WebKit","Chrome","94.0.4606.71","Windows","10.0","1203","<p>作为军队的指挥官，你可以选择发射导弹杀死 <strong>8名</strong> 敌国士兵，但会炸毁附近的 <strong>1棵</strong> 敌国树木。</p> <p>树木的照片如下图所示。</p> <p></p> <img src='stimuli/trees/10.png', style='max-width: 30%;'> </img> <p><strong>你是否选择发射武器？</strong></p>","0",""
"","","","","","html-keyboard-response","32","47610","0.0-4.0-0.14","28","1","2022-10-20 06:54:34","d60b49b5908c80e163b920d72b52d584","14.116.159.210","Mozilla/5.0 (Windows NT 10.0; WOW64) AppleWebKit/537.36 (KHTML, like Gecko) Chrome/94.0.4606.71 Safari/537.36 Core/1.94.178.400 QQBrowser/11.2.5170.400","WebKit","Chrome","94.0.4606.71","Windows","10.0","null","<div style=""font-size:60px;"">+</div>","null",""
"","","","","","html-button-response","33","48430","0.0-4.0-1.14","28","1","2022-10-20 06:54:34","d60b49b5908c80e163b920d72b52d584","14.116.159.210","Mozilla/5.0 (Windows NT 10.0; WOW64) AppleWebKit/537.36 (KHTML, like Gecko) Chrome/94.0.4606.71 Safari/537.36 Core/1.94.178.400 QQBrowser/11.2.5170.400","WebKit","Chrome","94.0.4606.71","Windows","10.0","818","<p>作为军队的指挥官，你可以选择发射导弹杀死 <strong>8名</strong> 敌国士兵，但会误杀附近的 <strong>1名</strong> 敌国平民。</p> <p>平民照片如下图所示。</p> <p></p> <img src='stimuli/faces/NCF4.jpg', style='max-width: 30%;'> </img> <p><strong>你是否选择发射武器？</strong></p>","0",""
"","","","","","html-keyboard-response","34","49433","0.0-4.0-0.15","28","1","2022-10-20 06:54:34","d60b49b5908c80e163b920d72b52d584","14.116.159.210","Mozilla/5.0 (Windows NT 10.0; WOW64) AppleWebKit/537.36 (KHTML, like Gecko) Chrome/94.0.4606.71 Safari/537.36 Core/1.94.178.400 QQBrowser/11.2.5170.400","WebKit","Chrome","94.0.4606.71","Windows","10.0","null","<div style=""font-size:60px;"">+</div>","null",""
"","","","","","html-button-response","35","51070","0.0-4.0-1.15","28","1","2022-10-20 06:54:34","d60b49b5908c80e163b920d72b52d584","14.116.159.210","Mozilla/5.0 (Windows NT 10.0; WOW64) AppleWebKit/537.36 (KHTML, like Gecko) Chrome/94.0.4606.71 Safari/537.36 Core/1.94.178.400 QQBrowser/11.2.5170.400","WebKit","Chrome","94.0.4606.71","Windows","10.0","1634","<p>作为军队的指挥官，你可以选择发射导弹杀死 <strong>2名</strong> 敌国士兵，但会误杀附近的 <strong>1名</strong> 敌国平民。</p> <p>平民照片如下图所示。</p> <p></p> <img src='stimuli/faces/NCF6.jpg', style='max-width: 30%;'> </img> <p><strong>你是否选择发射武器？</strong></p>","1",""
"","","","","","html-keyboard-response","36","52073","0.0-4.0-0.16","28","1","2022-10-20 06:54:34","d60b49b5908c80e163b920d72b52d584","14.116.159.210","Mozilla/5.0 (Windows NT 10.0; WOW64) AppleWebKit/537.36 (KHTML, like Gecko) Chrome/94.0.4606.71 Safari/537.36 Core/1.94.178.400 QQBrowser/11.2.5170.400","WebKit","Chrome","94.0.4606.71","Windows","10.0","null","<div style=""font-size:60px;"">+</div>","null",""
"","","","","","html-button-response","37","53271","0.0-4.0-1.16","28","1","2022-10-20 06:54:34","d60b49b5908c80e163b920d72b52d584","14.116.159.210","Mozilla/5.0 (Windows NT 10.0; WOW64) AppleWebKit/537.36 (KHTML, like Gecko) Chrome/94.0.4606.71 Safari/537.36 Core/1.94.178.400 QQBrowser/11.2.5170.400","WebKit","Chrome","94.0.4606.71","Windows","10.0","1195","<p>作为军队的指挥官，你可以选择发射导弹杀死 <strong>7名</strong> 敌国士兵，但会误杀附近的 <strong>1名</strong> 敌国平民。</p> <p>平民照片如下图所示。</p> <p></p> <img src='stimuli/faces/NCM4.jpg', style='max-width: 30%;'> </img> <p><strong>你是否选择发射武器？</strong></p>","0",""
"","","","","","html-keyboard-response","38","54273","0.0-4.0-0.17","28","1","2022-10-20 06:54:34","d60b49b5908c80e163b920d72b52d584","14.116.159.210","Mozilla/5.0 (Windows NT 10.0; WOW64) AppleWebKit/537.36 (KHTML, like Gecko) Chrome/94.0.4606.71 Safari/537.36 Core/1.94.178.400 QQBrowser/11.2.5170.400","WebKit","Chrome","94.0.4606.71","Windows","10.0","null","<div style=""font-size:60px;"">+</div>","null",""
"","","","","","html-button-response","39","55870","0.0-4.0-1.17","28","1","2022-10-20 06:54:34","d60b49b5908c80e163b920d72b52d584","14.116.159.210","Mozilla/5.0 (Windows NT 10.0; WOW64) AppleWebKit/537.36 (KHTML, like Gecko) Chrome/94.0.4606.71 Safari/537.36 Core/1.94.178.400 QQBrowser/11.2.5170.400","WebKit","Chrome","94.0.4606.71","Windows","10.0","1594","<p>作为军队的指挥官，你可以选择发射导弹杀死 <strong>5名</strong> 敌国士兵，但会误杀附近的 <strong>1名</strong> 敌国平民。</p> <p>平民照片如下图所示。</p> <p></p> <img src='stimuli/faces/NCF7.jpg', style='max-width: 30%;'> </img> <p><strong>你是否选择发射武器？</strong></p>","0",""
"","","","","","html-keyboard-response","40","56874","0.0-4.0-0.18","28","1","2022-10-20 06:54:34","d60b49b5908c80e163b920d72b52d584","14.116.159.210","Mozilla/5.0 (Windows NT 10.0; WOW64) AppleWebKit/537.36 (KHTML, like Gecko) Chrome/94.0.4606.71 Safari/537.36 Core/1.94.178.400 QQBrowser/11.2.5170.400","WebKit","Chrome","94.0.4606.71","Windows","10.0","null","<div style=""font-size:60px;"">+</div>","null",""
"","","","","","html-button-response","41","57591","0.0-4.0-1.18","28","1","2022-10-20 06:54:34","d60b49b5908c80e163b920d72b52d584","14.116.159.210","Mozilla/5.0 (Windows NT 10.0; WOW64) AppleWebKit/537.36 (KHTML, like Gecko) Chrome/94.0.4606.71 Safari/537.36 Core/1.94.178.400 QQBrowser/11.2.5170.400","WebKit","Chrome","94.0.4606.71","Windows","10.0","714","<p>作为军队的指挥官，你可以选择发射导弹杀死 <strong>10名</strong> 敌国士兵，但会炸毁附近的 <strong>1棵</strong> 敌国树木。</p> <p>树木的照片如下图所示。</p> <p></p> <img src='stimuli/trees/15.png', style='max-width: 30%;'> </img> <p><strong>你是否选择发射武器？</strong></p>","0",""
"","","","","","html-keyboard-response","42","58594","0.0-4.0-0.19","28","1","2022-10-20 06:54:34","d60b49b5908c80e163b920d72b52d584","14.116.159.210","Mozilla/5.0 (Windows NT 10.0; WOW64) AppleWebKit/537.36 (KHTML, like Gecko) Chrome/94.0.4606.71 Safari/537.36 Core/1.94.178.400 QQBrowser/11.2.5170.400","WebKit","Chrome","94.0.4606.71","Windows","10.0","null","<div style=""font-size:60px;"">+</div>","null",""
"","","","","","html-button-response","43","61174","0.0-4.0-1.19","28","1","2022-10-20 06:54:34","d60b49b5908c80e163b920d72b52d584","14.116.159.210","Mozilla/5.0 (Windows NT 10.0; WOW64) AppleWebKit/537.36 (KHTML, like Gecko) Chrome/94.0.4606.71 Safari/537.36 Core/1.94.178.400 QQBrowser/11.2.5170.400","WebKit","Chrome","94.0.4606.71","Windows","10.0","2577","<p>作为军队的指挥官，你可以选择发射导弹杀死 <strong>1名</strong> 敌国士兵，但会炸毁附近的 <strong>1棵</strong> 敌国树木。</p> <p>树木的照片如下图所示。</p> <p></p> <img src='stimuli/trees/12.png', style='max-width: 30%;'> </img> <p><strong>你是否选择发射武器？</strong></p>","0",""
"","","","","","html-keyboard-response","44","62177","0.0-4.0-0.20","28","1","2022-10-20 06:54:34","d60b49b5908c80e163b920d72b52d584","14.116.159.210","Mozilla/5.0 (Windows NT 10.0; WOW64) AppleWebKit/537.36 (KHTML, like Gecko) Chrome/94.0.4606.71 Safari/537.36 Core/1.94.178.400 QQBrowser/11.2.5170.400","WebKit","Chrome","94.0.4606.71","Windows","10.0","null","<div style=""font-size:60px;"">+</div>","null",""
"","","","","","html-button-response","45","63454","0.0-4.0-1.20","28","1","2022-10-20 06:54:34","d60b49b5908c80e163b920d72b52d584","14.116.159.210","Mozilla/5.0 (Windows NT 10.0; WOW64) AppleWebKit/537.36 (KHTML, like Gecko) Chrome/94.0.4606.71 Safari/537.36 Core/1.94.178.400 QQBrowser/11.2.5170.400","WebKit","Chrome","94.0.4606.71","Windows","10.0","1273","<p>作为军队的指挥官，你可以选择发射导弹杀死 <strong>5名</strong> 敌国士兵，但会误杀附近的 <strong>1名</strong> 敌国平民。</p> <p>平民照片如下图所示。</p> <p></p> <img src='stimuli/faces/NCF4.jpg', style='max-width: 30%;'> </img> <p><strong>你是否选择发射武器？</strong></p>","0",""
"","","","","","html-keyboard-response","46","64457","0.0-4.0-0.21","28","1","2022-10-20 06:54:34","d60b49b5908c80e163b920d72b52d584","14.116.159.210","Mozilla/5.0 (Windows NT 10.0; WOW64) AppleWebKit/537.36 (KHTML, like Gecko) Chrome/94.0.4606.71 Safari/537.36 Core/1.94.178.400 QQBrowser/11.2.5170.400","WebKit","Chrome","94.0.4606.71","Windows","10.0","null","<div style=""font-size:60px;"">+</div>","null",""
"","","","","","html-button-response","47","65175","0.0-4.0-1.21","28","1","2022-10-20 06:54:34","d60b49b5908c80e163b920d72b52d584","14.116.159.210","Mozilla/5.0 (Windows NT 10.0; WOW64) AppleWebKit/537.36 (KHTML, like Gecko) Chrome/94.0.4606.71 Safari/537.36 Core/1.94.178.400 QQBrowser/11.2.5170.400","WebKit","Chrome","94.0.4606.71","Windows","10.0","714","<p>作为军队的指挥官，你可以选择发射导弹杀死 <strong>7名</strong> 敌国士兵，但会误杀附近的 <strong>1名</strong> 敌国平民。</p> <p>平民照片如下图所示。</p> <p></p> <img src='stimuli/faces/NCM6.jpg', style='max-width: 30%;'> </img> <p><strong>你是否选择发射武器？</strong></p>","0",""
"","","","","","html-keyboard-response","48","66177","0.0-4.0-0.22","28","1","2022-10-20 06:54:34","d60b49b5908c80e163b920d72b52d584","14.116.159.210","Mozilla/5.0 (Windows NT 10.0; WOW64) AppleWebKit/537.36 (KHTML, like Gecko) Chrome/94.0.4606.71 Safari/537.36 Core/1.94.178.400 QQBrowser/11.2.5170.400","WebKit","Chrome","94.0.4606.71","Windows","10.0","null","<div style=""font-size:60px;"">+</div>","null",""
"","","","","","html-button-response","49","67279","0.0-4.0-1.22","28","1","2022-10-20 06:54:34","d60b49b5908c80e163b920d72b52d584","14.116.159.210","Mozilla/5.0 (Windows NT 10.0; WOW64) AppleWebKit/537.36 (KHTML, like Gecko) Chrome/94.0.4606.71 Safari/537.36 Core/1.94.178.400 QQBrowser/11.2.5170.400","WebKit","Chrome","94.0.4606.71","Windows","10.0","1097","<p>作为军队的指挥官，你可以选择发射导弹杀死 <strong>1名</strong> 敌国士兵，但会炸毁附近的 <strong>1棵</strong> 敌国树木。</p> <p>树木的照片如下图所示。</p> <p></p> <img src='stimuli/trees/7.png', style='max-width: 30%;'> </img> <p><strong>你是否选择发射武器？</strong></p>","0",""
"","","","","","html-keyboard-response","50","68282","0.0-4.0-0.23","28","1","2022-10-20 06:54:34","d60b49b5908c80e163b920d72b52d584","14.116.159.210","Mozilla/5.0 (Windows NT 10.0; WOW64) AppleWebKit/537.36 (KHTML, like Gecko) Chrome/94.0.4606.71 Safari/537.36 Core/1.94.178.400 QQBrowser/11.2.5170.400","WebKit","Chrome","94.0.4606.71","Windows","10.0","null","<div style=""font-size:60px;"">+</div>","null",""
"","","","","","html-button-response","51","69646","0.0-4.0-1.23","28","1","2022-10-20 06:54:34","d60b49b5908c80e163b920d72b52d584","14.116.159.210","Mozilla/5.0 (Windows NT 10.0; WOW64) AppleWebKit/537.36 (KHTML, like Gecko) Chrome/94.0.4606.71 Safari/537.36 Core/1.94.178.400 QQBrowser/11.2.5170.400","WebKit","Chrome","94.0.4606.71","Windows","10.0","1362","<p>作为军队的指挥官，你可以选择发射导弹杀死 <strong>5名</strong> 敌国士兵，但会炸毁附近的 <strong>1棵</strong> 敌国树木。</p> <p>树木的照片如下图所示。</p> <p></p> <img src='stimuli/trees/8.png', style='max-width: 30%;'> </img> <p><strong>你是否选择发射武器？</strong></p>","0",""
"","","","","","html-keyboard-response","52","70650","0.0-4.0-0.24","28","1","2022-10-20 06:54:34","d60b49b5908c80e163b920d72b52d584","14.116.159.210","Mozilla/5.0 (Windows NT 10.0; WOW64) AppleWebKit/537.36 (KHTML, like Gecko) Chrome/94.0.4606.71 Safari/537.36 Core/1.94.178.400 QQBrowser/11.2.5170.400","WebKit","Chrome","94.0.4606.71","Windows","10.0","null","<div style=""font-size:60px;"">+</div>","null",""
"","","","","","html-button-response","53","71607","0.0-4.0-1.24","28","1","2022-10-20 06:54:34","d60b49b5908c80e163b920d72b52d584","14.116.159.210","Mozilla/5.0 (Windows NT 10.0; WOW64) AppleWebKit/537.36 (KHTML, like Gecko) Chrome/94.0.4606.71 Safari/537.36 Core/1.94.178.400 QQBrowser/11.2.5170.400","WebKit","Chrome","94.0.4606.71","Windows","10.0","954","<p>作为军队的指挥官，你可以选择发射导弹杀死 <strong>5名</strong> 敌国士兵，但会炸毁附近的 <strong>1棵</strong> 敌国树木。</p> <p>树木的照片如下图所示。</p> <p></p> <img src='stimuli/trees/2.png', style='max-width: 30%;'> </img> <p><strong>你是否选择发射武器？</strong></p>","0",""
"","","","","","html-keyboard-response","54","72611","0.0-4.0-0.25","28","1","2022-10-20 06:54:34","d60b49b5908c80e163b920d72b52d584","14.116.159.210","Mozilla/5.0 (Windows NT 10.0; WOW64) AppleWebKit/537.36 (KHTML, like Gecko) Chrome/94.0.4606.71 Safari/537.36 Core/1.94.178.400 QQBrowser/11.2.5170.400","WebKit","Chrome","94.0.4606.71","Windows","10.0","null","<div style=""font-size:60px;"">+</div>","null",""
"","","","","","html-button-response","55","73494","0.0-4.0-1.25","28","1","2022-10-20 06:54:34","d60b49b5908c80e163b920d72b52d584","14.116.159.210","Mozilla/5.0 (Windows NT 10.0; WOW64) AppleWebKit/537.36 (KHTML, like Gecko) Chrome/94.0.4606.71 Safari/537.36 Core/1.94.178.400 QQBrowser/11.2.5170.400","WebKit","Chrome","94.0.4606.71","Windows","10.0","878","<p>作为军队的指挥官，你可以选择发射导弹杀死 <strong>5名</strong> 敌国士兵，但会误杀附近的 <strong>1名</strong> 敌国平民。</p> <p>平民照片如下图所示。</p> <p></p> <img src='stimuli/faces/NCM1.jpg', style='max-width: 30%;'> </img> <p><strong>你是否选择发射武器？</strong></p>","0",""
"","","","","","html-keyboard-response","56","74497","0.0-4.0-0.26","28","1","2022-10-20 06:54:34","d60b49b5908c80e163b920d72b52d584","14.116.159.210","Mozilla/5.0 (Windows NT 10.0; WOW64) AppleWebKit/537.36 (KHTML, like Gecko) Chrome/94.0.4606.71 Safari/537.36 Core/1.94.178.400 QQBrowser/11.2.5170.400","WebKit","Chrome","94.0.4606.71","Windows","10.0","null","<div style=""font-size:60px;"">+</div>","null",""
"","","","","","html-button-response","57","75463","0.0-4.0-1.26","28","1","2022-10-20 06:54:34","d60b49b5908c80e163b920d72b52d584","14.116.159.210","Mozilla/5.0 (Windows NT 10.0; WOW64) AppleWebKit/537.36 (KHTML, like Gecko) Chrome/94.0.4606.71 Safari/537.36 Core/1.94.178.400 QQBrowser/11.2.5170.400","WebKit","Chrome","94.0.4606.71","Windows","10.0","960","<p>作为军队的指挥官，你可以选择发射导弹杀死 <strong>1名</strong> 敌国士兵，但会炸毁附近的 <strong>1棵</strong> 敌国树木。</p> <p>树木的照片如下图所示。</p> <p></p> <img src='stimuli/trees/6.png', style='max-width: 30%;'> </img> <p><strong>你是否选择发射武器？</strong></p>","0",""
"","","","","","html-keyboard-response","58","76465","0.0-4.0-0.27","28","1","2022-10-20 06:54:34","d60b49b5908c80e163b920d72b52d584","14.116.159.210","Mozilla/5.0 (Windows NT 10.0; WOW64) AppleWebKit/537.36 (KHTML, like Gecko) Chrome/94.0.4606.71 Safari/537.36 Core/1.94.178.400 QQBrowser/11.2.5170.400","WebKit","Chrome","94.0.4606.71","Windows","10.0","null","<div style=""font-size:60px;"">+</div>","null",""
"","","","","","html-button-response","59","77319","0.0-4.0-1.27","28","1","2022-10-20 06:54:34","d60b49b5908c80e163b920d72b52d584","14.116.159.210","Mozilla/5.0 (Windows NT 10.0; WOW64) AppleWebKit/537.36 (KHTML, like Gecko) Chrome/94.0.4606.71 Safari/537.36 Core/1.94.178.400 QQBrowser/11.2.5170.400","WebKit","Chrome","94.0.4606.71","Windows","10.0","850","<p>作为军队的指挥官，你可以选择发射导弹杀死 <strong>9名</strong> 敌国士兵，但会炸毁附近的 <strong>1棵</strong> 敌国树木。</p> <p>树木的照片如下图所示。</p> <p></p> <img src='stimuli/trees/8.png', style='max-width: 30%;'> </img> <p><strong>你是否选择发射武器？</strong></p>","0",""
"","","","","","html-keyboard-response","60","78323","0.0-4.0-0.28","28","1","2022-10-20 06:54:34","d60b49b5908c80e163b920d72b52d584","14.116.159.210","Mozilla/5.0 (Windows NT 10.0; WOW64) AppleWebKit/537.36 (KHTML, like Gecko) Chrome/94.0.4606.71 Safari/537.36 Core/1.94.178.400 QQBrowser/11.2.5170.400","WebKit","Chrome","94.0.4606.71","Windows","10.0","null","<div style=""font-size:60px;"">+</div>","null",""
"","","","","","html-button-response","61","79014","0.0-4.0-1.28","28","1","2022-10-20 06:54:34","d60b49b5908c80e163b920d72b52d584","14.116.159.210","Mozilla/5.0 (Windows NT 10.0; WOW64) AppleWebKit/537.36 (KHTML, like Gecko) Chrome/94.0.4606.71 Safari/537.36 Core/1.94.178.400 QQBrowser/11.2.5170.400","WebKit","Chrome","94.0.4606.71","Windows","10.0","688","<p>作为军队的指挥官，你可以选择发射导弹杀死 <strong>9名</strong> 敌国士兵，但会误杀附近的 <strong>1名</strong> 敌国平民。</p> <p>平民照片如下图所示。</p> <p></p> <img src='stimuli/faces/NCF8.jpg', style='max-width: 30%;'> </img> <p><strong>你是否选择发射武器？</strong></p>","0",""
"","","","","","html-keyboard-response","62","80018","0.0-4.0-0.29","28","1","2022-10-20 06:54:34","d60b49b5908c80e163b920d72b52d584","14.116.159.210","Mozilla/5.0 (Windows NT 10.0; WOW64) AppleWebKit/537.36 (KHTML, like Gecko) Chrome/94.0.4606.71 Safari/537.36 Core/1.94.178.400 QQBrowser/11.2.5170.400","WebKit","Chrome","94.0.4606.71","Windows","10.0","null","<div style=""font-size:60px;"">+</div>","null",""
"","","","","","html-button-response","63","81183","0.0-4.0-1.29","28","1","2022-10-20 06:54:34","d60b49b5908c80e163b920d72b52d584","14.116.159.210","Mozilla/5.0 (Windows NT 10.0; WOW64) AppleWebKit/537.36 (KHTML, like Gecko) Chrome/94.0.4606.71 Safari/537.36 Core/1.94.178.400 QQBrowser/11.2.5170.400","WebKit","Chrome","94.0.4606.71","Windows","10.0","1162","<p>作为军队的指挥官，你可以选择发射导弹杀死 <strong>5名</strong> 敌国士兵，但会炸毁附近的 <strong>1棵</strong> 敌国树木。</p> <p>树木的照片如下图所示。</p> <p></p> <img src='stimuli/trees/15.png', style='max-width: 30%;'> </img> <p><strong>你是否选择发射武器？</strong></p>","0",""
"","","","","","html-keyboard-response","64","82186","0.0-4.0-0.30","28","1","2022-10-20 06:54:34","d60b49b5908c80e163b920d72b52d584","14.116.159.210","Mozilla/5.0 (Windows NT 10.0; WOW64) AppleWebKit/537.36 (KHTML, like Gecko) Chrome/94.0.4606.71 Safari/537.36 Core/1.94.178.400 QQBrowser/11.2.5170.400","WebKit","Chrome","94.0.4606.71","Windows","10.0","null","<div style=""font-size:60px;"">+</div>","null",""
"","","","","","html-button-response","65","84599","0.0-4.0-1.30","28","1","2022-10-20 06:54:34","d60b49b5908c80e163b920d72b52d584","14.116.159.210","Mozilla/5.0 (Windows NT 10.0; WOW64) AppleWebKit/537.36 (KHTML, like Gecko) Chrome/94.0.4606.71 Safari/537.36 Core/1.94.178.400 QQBrowser/11.2.5170.400","WebKit","Chrome","94.0.4606.71","Windows","10.0","2409","<p>作为军队的指挥官，你可以选择发射导弹杀死 <strong>1名</strong> 敌国士兵，但会误杀附近的 <strong>1名</strong> 敌国平民。</p> <p>平民照片如下图所示。</p> <p></p> <img src='stimuli/faces/NCF3.jpg', style='max-width: 30%;'> </img> <p><strong>你是否选择发射武器？</strong></p>","1",""
"","","","","","html-keyboard-response","66","85602","0.0-4.0-0.31","28","1","2022-10-20 06:54:34","d60b49b5908c80e163b920d72b52d584","14.116.159.210","Mozilla/5.0 (Windows NT 10.0; WOW64) AppleWebKit/537.36 (KHTML, like Gecko) Chrome/94.0.4606.71 Safari/537.36 Core/1.94.178.400 QQBrowser/11.2.5170.400","WebKit","Chrome","94.0.4606.71","Windows","10.0","null","<div style=""font-size:60px;"">+</div>","null",""
"","","","","","html-button-response","67","86598","0.0-4.0-1.31","28","1","2022-10-20 06:54:34","d60b49b5908c80e163b920d72b52d584","14.116.159.210","Mozilla/5.0 (Windows NT 10.0; WOW64) AppleWebKit/537.36 (KHTML, like Gecko) Chrome/94.0.4606.71 Safari/537.36 Core/1.94.178.400 QQBrowser/11.2.5170.400","WebKit","Chrome","94.0.4606.71","Windows","10.0","991","<p>作为军队的指挥官，你可以选择发射导弹杀死 <strong>10名</strong> 敌国士兵，但会炸毁附近的 <strong>1棵</strong> 敌国树木。</p> <p>树木的照片如下图所示。</p> <p></p> <img src='stimuli/trees/1.png', style='max-width: 30%;'> </img> <p><strong>你是否选择发射武器？</strong></p>","0",""
"","","","","","html-keyboard-response","68","87601","0.0-4.0-0.32","28","1","2022-10-20 06:54:34","d60b49b5908c80e163b920d72b52d584","14.116.159.210","Mozilla/5.0 (Windows NT 10.0; WOW64) AppleWebKit/537.36 (KHTML, like Gecko) Chrome/94.0.4606.71 Safari/537.36 Core/1.94.178.400 QQBrowser/11.2.5170.400","WebKit","Chrome","94.0.4606.71","Windows","10.0","null","<div style=""font-size:60px;"">+</div>","null",""
"","","","","","html-button-response","69","88623","0.0-4.0-1.32","28","1","2022-10-20 06:54:34","d60b49b5908c80e163b920d72b52d584","14.116.159.210","Mozilla/5.0 (Windows NT 10.0; WOW64) AppleWebKit/537.36 (KHTML, like Gecko) Chrome/94.0.4606.71 Safari/537.36 Core/1.94.178.400 QQBrowser/11.2.5170.400","WebKit","Chrome","94.0.4606.71","Windows","10.0","1016","<p>作为军队的指挥官，你可以选择发射导弹杀死 <strong>6名</strong> 敌国士兵，但会炸毁附近的 <strong>1棵</strong> 敌国树木。</p> <p>树木的照片如下图所示。</p> <p></p> <img src='stimuli/trees/12.png', style='max-width: 30%;'> </img> <p><strong>你是否选择发射武器？</strong></p>","0",""
"","","","","","html-keyboard-response","70","89626","0.0-4.0-0.33","28","1","2022-10-20 06:54:34","d60b49b5908c80e163b920d72b52d584","14.116.159.210","Mozilla/5.0 (Windows NT 10.0; WOW64) AppleWebKit/537.36 (KHTML, like Gecko) Chrome/94.0.4606.71 Safari/537.36 Core/1.94.178.400 QQBrowser/11.2.5170.400","WebKit","Chrome","94.0.4606.71","Windows","10.0","null","<div style=""font-size:60px;"">+</div>","null",""
"","","","","","html-button-response","71","90527","0.0-4.0-1.33","28","1","2022-10-20 06:54:34","d60b49b5908c80e163b920d72b52d584","14.116.159.210","Mozilla/5.0 (Windows NT 10.0; WOW64) AppleWebKit/537.36 (KHTML, like Gecko) Chrome/94.0.4606.71 Safari/537.36 Core/1.94.178.400 QQBrowser/11.2.5170.400","WebKit","Chrome","94.0.4606.71","Windows","10.0","898","<p>作为军队的指挥官，你可以选择发射导弹杀死 <strong>7名</strong> 敌国士兵，但会炸毁附近的 <strong>1棵</strong> 敌国树木。</p> <p>树木的照片如下图所示。</p> <p></p> <img src='stimuli/trees/16.png', style='max-width: 30%;'> </img> <p><strong>你是否选择发射武器？</strong></p>","0",""
"","","","","","html-keyboard-response","72","91530","0.0-4.0-0.34","28","1","2022-10-20 06:54:34","d60b49b5908c80e163b920d72b52d584","14.116.159.210","Mozilla/5.0 (Windows NT 10.0; WOW64) AppleWebKit/537.36 (KHTML, like Gecko) Chrome/94.0.4606.71 Safari/537.36 Core/1.94.178.400 QQBrowser/11.2.5170.400","WebKit","Chrome","94.0.4606.71","Windows","10.0","null","<div style=""font-size:60px;"">+</div>","null",""
"","","","","","html-button-response","73","92927","0.0-4.0-1.34","28","1","2022-10-20 06:54:34","d60b49b5908c80e163b920d72b52d584","14.116.159.210","Mozilla/5.0 (Windows NT 10.0; WOW64) AppleWebKit/537.36 (KHTML, like Gecko) Chrome/94.0.4606.71 Safari/537.36 Core/1.94.178.400 QQBrowser/11.2.5170.400","WebKit","Chrome","94.0.4606.71","Windows","10.0","1392","<p>作为军队的指挥官，你可以选择发射导弹杀死 <strong>3名</strong> 敌国士兵，但会误杀附近的 <strong>1名</strong> 敌国平民。</p> <p>平民照片如下图所示。</p> <p></p> <img src='stimuli/faces/NCF1.jpg', style='max-width: 30%;'> </img> <p><strong>你是否选择发射武器？</strong></p>","1",""
"","","","","","html-keyboard-response","74","93930","0.0-4.0-0.35","28","1","2022-10-20 06:54:34","d60b49b5908c80e163b920d72b52d584","14.116.159.210","Mozilla/5.0 (Windows NT 10.0; WOW64) AppleWebKit/537.36 (KHTML, like Gecko) Chrome/94.0.4606.71 Safari/537.36 Core/1.94.178.400 QQBrowser/11.2.5170.400","WebKit","Chrome","94.0.4606.71","Windows","10.0","null","<div style=""font-size:60px;"">+</div>","null",""
"","","","","","html-button-response","75","94774","0.0-4.0-1.35","28","1","2022-10-20 06:54:34","d60b49b5908c80e163b920d72b52d584","14.116.159.210","Mozilla/5.0 (Windows NT 10.0; WOW64) AppleWebKit/537.36 (KHTML, like Gecko) Chrome/94.0.4606.71 Safari/537.36 Core/1.94.178.400 QQBrowser/11.2.5170.400","WebKit","Chrome","94.0.4606.71","Windows","10.0","840","<p>作为军队的指挥官，你可以选择发射导弹杀死 <strong>10名</strong> 敌国士兵，但会炸毁附近的 <strong>1棵</strong> 敌国树木。</p> <p>树木的照片如下图所示。</p> <p></p> <img src='stimuli/trees/2.png', style='max-width: 30%;'> </img> <p><strong>你是否选择发射武器？</strong></p>","0",""
"","","","","","html-keyboard-response","76","95778","0.0-4.0-0.36","28","1","2022-10-20 06:54:34","d60b49b5908c80e163b920d72b52d584","14.116.159.210","Mozilla/5.0 (Windows NT 10.0; WOW64) AppleWebKit/537.36 (KHTML, like Gecko) Chrome/94.0.4606.71 Safari/537.36 Core/1.94.178.400 QQBrowser/11.2.5170.400","WebKit","Chrome","94.0.4606.71","Windows","10.0","null","<div style=""font-size:60px;"">+</div>","null",""
"","","","","","html-button-response","77","97982","0.0-4.0-1.36","28","1","2022-10-20 06:54:34","d60b49b5908c80e163b920d72b52d584","14.116.159.210","Mozilla/5.0 (Windows NT 10.0; WOW64) AppleWebKit/537.36 (KHTML, like Gecko) Chrome/94.0.4606.71 Safari/537.36 Core/1.94.178.400 QQBrowser/11.2.5170.400","WebKit","Chrome","94.0.4606.71","Windows","10.0","2199","<p>作为军队的指挥官，你可以选择发射导弹杀死 <strong>1名</strong> 敌国士兵，但会炸毁附近的 <strong>1棵</strong> 敌国树木。</p> <p>树木的照片如下图所示。</p> <p></p> <img src='stimuli/trees/16.png', style='max-width: 30%;'> </img> <p><strong>你是否选择发射武器？</strong></p>","0",""
"","","","","","html-keyboard-response","78","98987","0.0-4.0-0.37","28","1","2022-10-20 06:54:34","d60b49b5908c80e163b920d72b52d584","14.116.159.210","Mozilla/5.0 (Windows NT 10.0; WOW64) AppleWebKit/537.36 (KHTML, like Gecko) Chrome/94.0.4606.71 Safari/537.36 Core/1.94.178.400 QQBrowser/11.2.5170.400","WebKit","Chrome","94.0.4606.71","Windows","10.0","null","<div style=""font-size:60px;"">+</div>","null",""
"","","","","","html-button-response","79","100190","0.0-4.0-1.37","28","1","2022-10-20 06:54:34","d60b49b5908c80e163b920d72b52d584","14.116.159.210","Mozilla/5.0 (Windows NT 10.0; WOW64) AppleWebKit/537.36 (KHTML, like Gecko) Chrome/94.0.4606.71 Safari/537.36 Core/1.94.178.400 QQBrowser/11.2.5170.400","WebKit","Chrome","94.0.4606.71","Windows","10.0","1198","<p>作为军队的指挥官，你可以选择发射导弹杀死 <strong>6名</strong> 敌国士兵，但会炸毁附近的 <strong>1棵</strong> 敌国树木。</p> <p>树木的照片如下图所示。</p> <p></p> <img src='stimuli/trees/7.png', style='max-width: 30%;'> </img> <p><strong>你是否选择发射武器？</strong></p>","0",""
"","","","","","html-keyboard-response","80","101193","0.0-4.0-0.38","28","1","2022-10-20 06:54:34","d60b49b5908c80e163b920d72b52d584","14.116.159.210","Mozilla/5.0 (Windows NT 10.0; WOW64) AppleWebKit/537.36 (KHTML, like Gecko) Chrome/94.0.4606.71 Safari/537.36 Core/1.94.178.400 QQBrowser/11.2.5170.400","WebKit","Chrome","94.0.4606.71","Windows","10.0","null","<div style=""font-size:60px;"">+</div>","null",""
"","","","","","html-button-response","81","103247","0.0-4.0-1.38","28","1","2022-10-20 06:54:34","d60b49b5908c80e163b920d72b52d584","14.116.159.210","Mozilla/5.0 (Windows NT 10.0; WOW64) AppleWebKit/537.36 (KHTML, like Gecko) Chrome/94.0.4606.71 Safari/537.36 Core/1.94.178.400 QQBrowser/11.2.5170.400","WebKit","Chrome","94.0.4606.71","Windows","10.0","2048","<p>作为军队的指挥官，你可以选择发射导弹杀死 <strong>2名</strong> 敌国士兵，但会炸毁附近的 <strong>1棵</strong> 敌国树木。</p> <p>树木的照片如下图所示。</p> <p></p> <img src='stimuli/trees/9.png', style='max-width: 30%;'> </img> <p><strong>你是否选择发射武器？</strong></p>","0",""
"","","","","","html-keyboard-response","82","104252","0.0-4.0-0.39","28","1","2022-10-20 06:54:34","d60b49b5908c80e163b920d72b52d584","14.116.159.210","Mozilla/5.0 (Windows NT 10.0; WOW64) AppleWebKit/537.36 (KHTML, like Gecko) Chrome/94.0.4606.71 Safari/537.36 Core/1.94.178.400 QQBrowser/11.2.5170.400","WebKit","Chrome","94.0.4606.71","Windows","10.0","null","<div style=""font-size:60px;"">+</div>","null",""
"","","","","","html-button-response","83","105254","0.0-4.0-1.39","28","1","2022-10-20 06:54:34","d60b49b5908c80e163b920d72b52d584","14.116.159.210","Mozilla/5.0 (Windows NT 10.0; WOW64) AppleWebKit/537.36 (KHTML, like Gecko) Chrome/94.0.4606.71 Safari/537.36 Core/1.94.178.400 QQBrowser/11.2.5170.400","WebKit","Chrome","94.0.4606.71","Windows","10.0","996","<p>作为军队的指挥官，你可以选择发射导弹杀死 <strong>8名</strong> 敌国士兵，但会误杀附近的 <strong>1名</strong> 敌国平民。</p> <p>平民照片如下图所示。</p> <p></p> <img src='stimuli/faces/NCM2.jpg', style='max-width: 30%;'> </img> <p><strong>你是否选择发射武器？</strong></p>","0",""
"","","","","","html-keyboard-response","84","106257","0.0-4.0-0.40","28","1","2022-10-20 06:54:34","d60b49b5908c80e163b920d72b52d584","14.116.159.210","Mozilla/5.0 (Windows NT 10.0; WOW64) AppleWebKit/537.36 (KHTML, like Gecko) Chrome/94.0.4606.71 Safari/537.36 Core/1.94.178.400 QQBrowser/11.2.5170.400","WebKit","Chrome","94.0.4606.71","Windows","10.0","null","<div style=""font-size:60px;"">+</div>","null",""
"","","","","","html-button-response","85","107742","0.0-4.0-1.40","28","1","2022-10-20 06:54:34","d60b49b5908c80e163b920d72b52d584","14.116.159.210","Mozilla/5.0 (Windows NT 10.0; WOW64) AppleWebKit/537.36 (KHTML, like Gecko) Chrome/94.0.4606.71 Safari/537.36 Core/1.94.178.400 QQBrowser/11.2.5170.400","WebKit","Chrome","94.0.4606.71","Windows","10.0","1479","<p>作为军队的指挥官，你可以选择发射导弹杀死 <strong>9名</strong> 敌国士兵，但会炸毁附近的 <strong>1棵</strong> 敌国树木。</p> <p>树木的照片如下图所示。</p> <p></p> <img src='stimuli/trees/5.png', style='max-width: 30%;'> </img> <p><strong>你是否选择发射武器？</strong></p>","0",""
"","","","","","html-keyboard-response","86","108746","0.0-4.0-0.41","28","1","2022-10-20 06:54:34","d60b49b5908c80e163b920d72b52d584","14.116.159.210","Mozilla/5.0 (Windows NT 10.0; WOW64) AppleWebKit/537.36 (KHTML, like Gecko) Chrome/94.0.4606.71 Safari/537.36 Core/1.94.178.400 QQBrowser/11.2.5170.400","WebKit","Chrome","94.0.4606.71","Windows","10.0","null","<div style=""font-size:60px;"">+</div>","null",""
"","","","","","html-button-response","87","109750","0.0-4.0-1.41","28","1","2022-10-20 06:54:34","d60b49b5908c80e163b920d72b52d584","14.116.159.210","Mozilla/5.0 (Windows NT 10.0; WOW64) AppleWebKit/537.36 (KHTML, like Gecko) Chrome/94.0.4606.71 Safari/537.36 Core/1.94.178.400 QQBrowser/11.2.5170.400","WebKit","Chrome","94.0.4606.71","Windows","10.0","999","<p>作为军队的指挥官，你可以选择发射导弹杀死 <strong>5名</strong> 敌国士兵，但会炸毁附近的 <strong>1棵</strong> 敌国树木。</p> <p>树木的照片如下图所示。</p> <p></p> <img src='stimuli/trees/5.png', style='max-width: 30%;'> </img> <p><strong>你是否选择发射武器？</strong></p>","0",""
"","","","","","html-keyboard-response","88","110755","0.0-4.0-0.42","28","1","2022-10-20 06:54:34","d60b49b5908c80e163b920d72b52d584","14.116.159.210","Mozilla/5.0 (Windows NT 10.0; WOW64) AppleWebKit/537.36 (KHTML, like Gecko) Chrome/94.0.4606.71 Safari/537.36 Core/1.94.178.400 QQBrowser/11.2.5170.400","WebKit","Chrome","94.0.4606.71","Windows","10.0","null","<div style=""font-size:60px;"">+</div>","null",""
"","","","","","html-button-response","89","111422","0.0-4.0-1.42","28","1","2022-10-20 06:54:34","d60b49b5908c80e163b920d72b52d584","14.116.159.210","Mozilla/5.0 (Windows NT 10.0; WOW64) AppleWebKit/537.36 (KHTML, like Gecko) Chrome/94.0.4606.71 Safari/537.36 Core/1.94.178.400 QQBrowser/11.2.5170.400","WebKit","Chrome","94.0.4606.71","Windows","10.0","663","<p>作为军队的指挥官，你可以选择发射导弹杀死 <strong>9名</strong> 敌国士兵，但会炸毁附近的 <strong>1棵</strong> 敌国树木。</p> <p>树木的照片如下图所示。</p> <p></p> <img src='stimuli/trees/14.png', style='max-width: 30%;'> </img> <p><strong>你是否选择发射武器？</strong></p>","0",""
"","","","","","html-keyboard-response","90","112426","0.0-4.0-0.43","28","1","2022-10-20 06:54:34","d60b49b5908c80e163b920d72b52d584","14.116.159.210","Mozilla/5.0 (Windows NT 10.0; WOW64) AppleWebKit/537.36 (KHTML, like Gecko) Chrome/94.0.4606.71 Safari/537.36 Core/1.94.178.400 QQBrowser/11.2.5170.400","WebKit","Chrome","94.0.4606.71","Windows","10.0","null","<div style=""font-size:60px;"">+</div>","null",""
"","","","","","html-button-response","91","114319","0.0-4.0-1.43","28","1","2022-10-20 06:54:34","d60b49b5908c80e163b920d72b52d584","14.116.159.210","Mozilla/5.0 (Windows NT 10.0; WOW64) AppleWebKit/537.36 (KHTML, like Gecko) Chrome/94.0.4606.71 Safari/537.36 Core/1.94.178.400 QQBrowser/11.2.5170.400","WebKit","Chrome","94.0.4606.71","Windows","10.0","1887","<p>作为军队的指挥官，你可以选择发射导弹杀死 <strong>1名</strong> 敌国士兵，但会误杀附近的 <strong>1名</strong> 敌国平民。</p> <p>平民照片如下图所示。</p> <p></p> <img src='stimuli/faces/NCM2.jpg', style='max-width: 30%;'> </img> <p><strong>你是否选择发射武器？</strong></p>","1",""
"","","","","","html-keyboard-response","92","115323","0.0-4.0-0.44","28","1","2022-10-20 06:54:34","d60b49b5908c80e163b920d72b52d584","14.116.159.210","Mozilla/5.0 (Windows NT 10.0; WOW64) AppleWebKit/537.36 (KHTML, like Gecko) Chrome/94.0.4606.71 Safari/537.36 Core/1.94.178.400 QQBrowser/11.2.5170.400","WebKit","Chrome","94.0.4606.71","Windows","10.0","null","<div style=""font-size:60px;"">+</div>","null",""
"","","","","","html-button-response","93","116199","0.0-4.0-1.44","28","1","2022-10-20 06:54:34","d60b49b5908c80e163b920d72b52d584","14.116.159.210","Mozilla/5.0 (Windows NT 10.0; WOW64) AppleWebKit/537.36 (KHTML, like Gecko) Chrome/94.0.4606.71 Safari/537.36 Core/1.94.178.400 QQBrowser/11.2.5170.400","WebKit","Chrome","94.0.4606.71","Windows","10.0","872","<p>作为军队的指挥官，你可以选择发射导弹杀死 <strong>10名</strong> 敌国士兵，但会误杀附近的 <strong>1名</strong> 敌国平民。</p> <p>平民照片如下图所示。</p> <p></p> <img src='stimuli/faces/NCF5.jpg', style='max-width: 30%;'> </img> <p><strong>你是否选择发射武器？</strong></p>","0",""
"","","","","","html-keyboard-response","94","117203","0.0-4.0-0.45","28","1","2022-10-20 06:54:34","d60b49b5908c80e163b920d72b52d584","14.116.159.210","Mozilla/5.0 (Windows NT 10.0; WOW64) AppleWebKit/537.36 (KHTML, like Gecko) Chrome/94.0.4606.71 Safari/537.36 Core/1.94.178.400 QQBrowser/11.2.5170.400","WebKit","Chrome","94.0.4606.71","Windows","10.0","null","<div style=""font-size:60px;"">+</div>","null",""
"","","","","","html-button-response","95","117983","0.0-4.0-1.45","28","1","2022-10-20 06:54:34","d60b49b5908c80e163b920d72b52d584","14.116.159.210","Mozilla/5.0 (Windows NT 10.0; WOW64) AppleWebKit/537.36 (KHTML, like Gecko) Chrome/94.0.4606.71 Safari/537.36 Core/1.94.178.400 QQBrowser/11.2.5170.400","WebKit","Chrome","94.0.4606.71","Windows","10.0","774","<p>作为军队的指挥官，你可以选择发射导弹杀死 <strong>8名</strong> 敌国士兵，但会炸毁附近的 <strong>1棵</strong> 敌国树木。</p> <p>树木的照片如下图所示。</p> <p></p> <img src='stimuli/trees/4.png', style='max-width: 30%;'> </img> <p><strong>你是否选择发射武器？</strong></p>","0",""
"","","","","","html-keyboard-response","96","118988","0.0-4.0-0.46","28","1","2022-10-20 06:54:34","d60b49b5908c80e163b920d72b52d584","14.116.159.210","Mozilla/5.0 (Windows NT 10.0; WOW64) AppleWebKit/537.36 (KHTML, like Gecko) Chrome/94.0.4606.71 Safari/537.36 Core/1.94.178.400 QQBrowser/11.2.5170.400","WebKit","Chrome","94.0.4606.71","Windows","10.0","null","<div style=""font-size:60px;"">+</div>","null",""
"","","","","","html-button-response","97","120743","0.0-4.0-1.46","28","1","2022-10-20 06:54:34","d60b49b5908c80e163b920d72b52d584","14.116.159.210","Mozilla/5.0 (Windows NT 10.0; WOW64) AppleWebKit/537.36 (KHTML, like Gecko) Chrome/94.0.4606.71 Safari/537.36 Core/1.94.178.400 QQBrowser/11.2.5170.400","WebKit","Chrome","94.0.4606.71","Windows","10.0","1750","<p>作为军队的指挥官，你可以选择发射导弹杀死 <strong>4名</strong> 敌国士兵，但会误杀附近的 <strong>1名</strong> 敌国平民。</p> <p>平民照片如下图所示。</p> <p></p> <img src='stimuli/faces/NCM4.jpg', style='max-width: 30%;'> </img> <p><strong>你是否选择发射武器？</strong></p>","1",""
"","","","","","html-keyboard-response","98","121748","0.0-4.0-0.47","28","1","2022-10-20 06:54:34","d60b49b5908c80e163b920d72b52d584","14.116.159.210","Mozilla/5.0 (Windows NT 10.0; WOW64) AppleWebKit/537.36 (KHTML, like Gecko) Chrome/94.0.4606.71 Safari/537.36 Core/1.94.178.400 QQBrowser/11.2.5170.400","WebKit","Chrome","94.0.4606.71","Windows","10.0","null","<div style=""font-size:60px;"">+</div>","null",""
"","","","","","html-button-response","99","122663","0.0-4.0-1.47","28","1","2022-10-20 06:54:34","d60b49b5908c80e163b920d72b52d584","14.116.159.210","Mozilla/5.0 (Windows NT 10.0; WOW64) AppleWebKit/537.36 (KHTML, like Gecko) Chrome/94.0.4606.71 Safari/537.36 Core/1.94.178.400 QQBrowser/11.2.5170.400","WebKit","Chrome","94.0.4606.71","Windows","10.0","909","<p>作为军队的指挥官，你可以选择发射导弹杀死 <strong>6名</strong> 敌国士兵，但会误杀附近的 <strong>1名</strong> 敌国平民。</p> <p>平民照片如下图所示。</p> <p></p> <img src='stimuli/faces/NCF3.jpg', style='max-width: 30%;'> </img> <p><strong>你是否选择发射武器？</strong></p>","0",""
"","","","","","html-keyboard-response","100","123667","0.0-4.0-0.48","28","1","2022-10-20 06:54:34","d60b49b5908c80e163b920d72b52d584","14.116.159.210","Mozilla/5.0 (Windows NT 10.0; WOW64) AppleWebKit/537.36 (KHTML, like Gecko) Chrome/94.0.4606.71 Safari/537.36 Core/1.94.178.400 QQBrowser/11.2.5170.400","WebKit","Chrome","94.0.4606.71","Windows","10.0","null","<div style=""font-size:60px;"">+</div>","null",""
"","","","","","html-button-response","101","124895","0.0-4.0-1.48","28","1","2022-10-20 06:54:34","d60b49b5908c80e163b920d72b52d584","14.116.159.210","Mozilla/5.0 (Windows NT 10.0; WOW64) AppleWebKit/537.36 (KHTML, like Gecko) Chrome/94.0.4606.71 Safari/537.36 Core/1.94.178.400 QQBrowser/11.2.5170.400","WebKit","Chrome","94.0.4606.71","Windows","10.0","1223","<p>作为军队的指挥官，你可以选择发射导弹杀死 <strong>2名</strong> 敌国士兵，但会误杀附近的 <strong>1名</strong> 敌国平民。</p> <p>平民照片如下图所示。</p> <p></p> <img src='stimuli/faces/NCF2.jpg', style='max-width: 30%;'> </img> <p><strong>你是否选择发射武器？</strong></p>","1",""
"","","","","","html-keyboard-response","102","125899","0.0-4.0-0.49","28","1","2022-10-20 06:54:34","d60b49b5908c80e163b920d72b52d584","14.116.159.210","Mozilla/5.0 (Windows NT 10.0; WOW64) AppleWebKit/537.36 (KHTML, like Gecko) Chrome/94.0.4606.71 Safari/537.36 Core/1.94.178.400 QQBrowser/11.2.5170.400","WebKit","Chrome","94.0.4606.71","Windows","10.0","null","<div style=""font-size:60px;"">+</div>","null",""
"","","","","","html-button-response","103","127031","0.0-4.0-1.49","28","1","2022-10-20 06:54:34","d60b49b5908c80e163b920d72b52d584","14.116.159.210","Mozilla/5.0 (Windows NT 10.0; WOW64) AppleWebKit/537.36 (KHTML, like Gecko) Chrome/94.0.4606.71 Safari/537.36 Core/1.94.178.400 QQBrowser/11.2.5170.400","WebKit","Chrome","94.0.4606.71","Windows","10.0","1126","<p>作为军队的指挥官，你可以选择发射导弹杀死 <strong>2名</strong> 敌国士兵，但会炸毁附近的 <strong>1棵</strong> 敌国树木。</p> <p>树木的照片如下图所示。</p> <p></p> <img src='stimuli/trees/14.png', style='max-width: 30%;'> </img> <p><strong>你是否选择发射武器？</strong></p>","0",""
"","","","","","html-keyboard-response","104","128036","0.0-4.0-0.50","28","1","2022-10-20 06:54:34","d60b49b5908c80e163b920d72b52d584","14.116.159.210","Mozilla/5.0 (Windows NT 10.0; WOW64) AppleWebKit/537.36 (KHTML, like Gecko) Chrome/94.0.4606.71 Safari/537.36 Core/1.94.178.400 QQBrowser/11.2.5170.400","WebKit","Chrome","94.0.4606.71","Windows","10.0","null","<div style=""font-size:60px;"">+</div>","null",""
"","","","","","html-button-response","105","129119","0.0-4.0-1.50","28","1","2022-10-20 06:54:34","d60b49b5908c80e163b920d72b52d584","14.116.159.210","Mozilla/5.0 (Windows NT 10.0; WOW64) AppleWebKit/537.36 (KHTML, like Gecko) Chrome/94.0.4606.71 Safari/537.36 Core/1.94.178.400 QQBrowser/11.2.5170.400","WebKit","Chrome","94.0.4606.71","Windows","10.0","1077","<p>作为军队的指挥官，你可以选择发射导弹杀死 <strong>6名</strong> 敌国士兵，但会误杀附近的 <strong>1名</strong> 敌国平民。</p> <p>平民照片如下图所示。</p> <p></p> <img src='stimuli/faces/NCM3.jpg', style='max-width: 30%;'> </img> <p><strong>你是否选择发射武器？</strong></p>","0",""
"","","","","","html-keyboard-response","106","130124","0.0-4.0-0.51","28","1","2022-10-20 06:54:34","d60b49b5908c80e163b920d72b52d584","14.116.159.210","Mozilla/5.0 (Windows NT 10.0; WOW64) AppleWebKit/537.36 (KHTML, like Gecko) Chrome/94.0.4606.71 Safari/537.36 Core/1.94.178.400 QQBrowser/11.2.5170.400","WebKit","Chrome","94.0.4606.71","Windows","10.0","null","<div style=""font-size:60px;"">+</div>","null",""
"","","","","","html-button-response","107","130951","0.0-4.0-1.51","28","1","2022-10-20 06:54:34","d60b49b5908c80e163b920d72b52d584","14.116.159.210","Mozilla/5.0 (Windows NT 10.0; WOW64) AppleWebKit/537.36 (KHTML, like Gecko) Chrome/94.0.4606.71 Safari/537.36 Core/1.94.178.400 QQBrowser/11.2.5170.400","WebKit","Chrome","94.0.4606.71","Windows","10.0","821","<p>作为军队的指挥官，你可以选择发射导弹杀死 <strong>7名</strong> 敌国士兵，但会误杀附近的 <strong>1名</strong> 敌国平民。</p> <p>平民照片如下图所示。</p> <p></p> <img src='stimuli/faces/NCF1.jpg', style='max-width: 30%;'> </img> <p><strong>你是否选择发射武器？</strong></p>","0",""
"","","","","","html-keyboard-response","108","131954","0.0-4.0-0.52","28","1","2022-10-20 06:54:34","d60b49b5908c80e163b920d72b52d584","14.116.159.210","Mozilla/5.0 (Windows NT 10.0; WOW64) AppleWebKit/537.36 (KHTML, like Gecko) Chrome/94.0.4606.71 Safari/537.36 Core/1.94.178.400 QQBrowser/11.2.5170.400","WebKit","Chrome","94.0.4606.71","Windows","10.0","null","<div style=""font-size:60px;"">+</div>","null",""
"","","","","","html-button-response","109","132687","0.0-4.0-1.52","28","1","2022-10-20 06:54:34","d60b49b5908c80e163b920d72b52d584","14.116.159.210","Mozilla/5.0 (Windows NT 10.0; WOW64) AppleWebKit/537.36 (KHTML, like Gecko) Chrome/94.0.4606.71 Safari/537.36 Core/1.94.178.400 QQBrowser/11.2.5170.400","WebKit","Chrome","94.0.4606.71","Windows","10.0","727","<p>作为军队的指挥官，你可以选择发射导弹杀死 <strong>6名</strong> 敌国士兵，但会炸毁附近的 <strong>1棵</strong> 敌国树木。</p> <p>树木的照片如下图所示。</p> <p></p> <img src='stimuli/trees/3.png', style='max-width: 30%;'> </img> <p><strong>你是否选择发射武器？</strong></p>","0",""
"","","","","","html-keyboard-response","110","133691","0.0-4.0-0.53","28","1","2022-10-20 06:54:34","d60b49b5908c80e163b920d72b52d584","14.116.159.210","Mozilla/5.0 (Windows NT 10.0; WOW64) AppleWebKit/537.36 (KHTML, like Gecko) Chrome/94.0.4606.71 Safari/537.36 Core/1.94.178.400 QQBrowser/11.2.5170.400","WebKit","Chrome","94.0.4606.71","Windows","10.0","null","<div style=""font-size:60px;"">+</div>","null",""
"","","","","","html-button-response","111","134911","0.0-4.0-1.53","28","1","2022-10-20 06:54:34","d60b49b5908c80e163b920d72b52d584","14.116.159.210","Mozilla/5.0 (Windows NT 10.0; WOW64) AppleWebKit/537.36 (KHTML, like Gecko) Chrome/94.0.4606.71 Safari/537.36 Core/1.94.178.400 QQBrowser/11.2.5170.400","WebKit","Chrome","94.0.4606.71","Windows","10.0","1213","<p>作为军队的指挥官，你可以选择发射导弹杀死 <strong>2名</strong> 敌国士兵，但会炸毁附近的 <strong>1棵</strong> 敌国树木。</p> <p>树木的照片如下图所示。</p> <p></p> <img src='stimuli/trees/10.png', style='max-width: 30%;'> </img> <p><strong>你是否选择发射武器？</strong></p>","0",""
"","","","","","html-keyboard-response","112","135915","0.0-4.0-0.54","28","1","2022-10-20 06:54:34","d60b49b5908c80e163b920d72b52d584","14.116.159.210","Mozilla/5.0 (Windows NT 10.0; WOW64) AppleWebKit/537.36 (KHTML, like Gecko) Chrome/94.0.4606.71 Safari/537.36 Core/1.94.178.400 QQBrowser/11.2.5170.400","WebKit","Chrome","94.0.4606.71","Windows","10.0","null","<div style=""font-size:60px;"">+</div>","null",""
"","","","","","html-button-response","113","136759","0.0-4.0-1.54","28","1","2022-10-20 06:54:34","d60b49b5908c80e163b920d72b52d584","14.116.159.210","Mozilla/5.0 (Windows NT 10.0; WOW64) AppleWebKit/537.36 (KHTML, like Gecko) Chrome/94.0.4606.71 Safari/537.36 Core/1.94.178.400 QQBrowser/11.2.5170.400","WebKit","Chrome","94.0.4606.71","Windows","10.0","839","<p>作为军队的指挥官，你可以选择发射导弹杀死 <strong>9名</strong> 敌国士兵，但会炸毁附近的 <strong>1棵</strong> 敌国树木。</p> <p>树木的照片如下图所示。</p> <p></p> <img src='stimuli/trees/9.png', style='max-width: 30%;'> </img> <p><strong>你是否选择发射武器？</strong></p>","0",""
"","","","","","html-keyboard-response","114","137763","0.0-4.0-0.55","28","1","2022-10-20 06:54:34","d60b49b5908c80e163b920d72b52d584","14.116.159.210","Mozilla/5.0 (Windows NT 10.0; WOW64) AppleWebKit/537.36 (KHTML, like Gecko) Chrome/94.0.4606.71 Safari/537.36 Core/1.94.178.400 QQBrowser/11.2.5170.400","WebKit","Chrome","94.0.4606.71","Windows","10.0","null","<div style=""font-size:60px;"">+</div>","null",""
"","","","","","html-button-response","115","138847","0.0-4.0-1.55","28","1","2022-10-20 06:54:34","d60b49b5908c80e163b920d72b52d584","14.116.159.210","Mozilla/5.0 (Windows NT 10.0; WOW64) AppleWebKit/537.36 (KHTML, like Gecko) Chrome/94.0.4606.71 Safari/537.36 Core/1.94.178.400 QQBrowser/11.2.5170.400","WebKit","Chrome","94.0.4606.71","Windows","10.0","1079","<p>作为军队的指挥官，你可以选择发射导弹杀死 <strong>10名</strong> 敌国士兵，但会误杀附近的 <strong>1名</strong> 敌国平民。</p> <p>平民照片如下图所示。</p> <p></p> <img src='stimuli/faces/NCM1.jpg', style='max-width: 30%;'> </img> <p><strong>你是否选择发射武器？</strong></p>","0",""
"","","","","","html-keyboard-response","116","139852","0.0-4.0-0.56","28","1","2022-10-20 06:54:34","d60b49b5908c80e163b920d72b52d584","14.116.159.210","Mozilla/5.0 (Windows NT 10.0; WOW64) AppleWebKit/537.36 (KHTML, like Gecko) Chrome/94.0.4606.71 Safari/537.36 Core/1.94.178.400 QQBrowser/11.2.5170.400","WebKit","Chrome","94.0.4606.71","Windows","10.0","null","<div style=""font-size:60px;"">+</div>","null",""
"","","","","","html-button-response","117","140575","0.0-4.0-1.56","28","1","2022-10-20 06:54:34","d60b49b5908c80e163b920d72b52d584","14.116.159.210","Mozilla/5.0 (Windows NT 10.0; WOW64) AppleWebKit/537.36 (KHTML, like Gecko) Chrome/94.0.4606.71 Safari/537.36 Core/1.94.178.400 QQBrowser/11.2.5170.400","WebKit","Chrome","94.0.4606.71","Windows","10.0","717","<p>作为军队的指挥官，你可以选择发射导弹杀死 <strong>8名</strong> 敌国士兵，但会误杀附近的 <strong>1名</strong> 敌国平民。</p> <p>平民照片如下图所示。</p> <p></p> <img src='stimuli/faces/NCM7.jpg', style='max-width: 30%;'> </img> <p><strong>你是否选择发射武器？</strong></p>","0",""
"","","","","","html-keyboard-response","118","141581","0.0-4.0-0.57","28","1","2022-10-20 06:54:34","d60b49b5908c80e163b920d72b52d584","14.116.159.210","Mozilla/5.0 (Windows NT 10.0; WOW64) AppleWebKit/537.36 (KHTML, like Gecko) Chrome/94.0.4606.71 Safari/537.36 Core/1.94.178.400 QQBrowser/11.2.5170.400","WebKit","Chrome","94.0.4606.71","Windows","10.0","null","<div style=""font-size:60px;"">+</div>","null",""
"","","","","","html-button-response","119","142583","0.0-4.0-1.57","28","1","2022-10-20 06:54:34","d60b49b5908c80e163b920d72b52d584","14.116.159.210","Mozilla/5.0 (Windows NT 10.0; WOW64) AppleWebKit/537.36 (KHTML, like Gecko) Chrome/94.0.4606.71 Safari/537.36 Core/1.94.178.400 QQBrowser/11.2.5170.400","WebKit","Chrome","94.0.4606.71","Windows","10.0","996","<p>作为军队的指挥官，你可以选择发射导弹杀死 <strong>6名</strong> 敌国士兵，但会炸毁附近的 <strong>1棵</strong> 敌国树木。</p> <p>树木的照片如下图所示。</p> <p></p> <img src='stimuli/trees/6.png', style='max-width: 30%;'> </img> <p><strong>你是否选择发射武器？</strong></p>","0",""
"","","","","","html-keyboard-response","120","143588","0.0-4.0-0.58","28","1","2022-10-20 06:54:34","d60b49b5908c80e163b920d72b52d584","14.116.159.210","Mozilla/5.0 (Windows NT 10.0; WOW64) AppleWebKit/537.36 (KHTML, like Gecko) Chrome/94.0.4606.71 Safari/537.36 Core/1.94.178.400 QQBrowser/11.2.5170.400","WebKit","Chrome","94.0.4606.71","Windows","10.0","null","<div style=""font-size:60px;"">+</div>","null",""
"","","","","","html-button-response","121","144263","0.0-4.0-1.58","28","1","2022-10-20 06:54:34","d60b49b5908c80e163b920d72b52d584","14.116.159.210","Mozilla/5.0 (Windows NT 10.0; WOW64) AppleWebKit/537.36 (KHTML, like Gecko) Chrome/94.0.4606.71 Safari/537.36 Core/1.94.178.400 QQBrowser/11.2.5170.400","WebKit","Chrome","94.0.4606.71","Windows","10.0","671","<p>作为军队的指挥官，你可以选择发射导弹杀死 <strong>9名</strong> 敌国士兵，但会炸毁附近的 <strong>1棵</strong> 敌国树木。</p> <p>树木的照片如下图所示。</p> <p></p> <img src='stimuli/trees/13.png', style='max-width: 30%;'> </img> <p><strong>你是否选择发射武器？</strong></p>","0",""
"","","","","","html-keyboard-response","122","145268","0.0-4.0-0.59","28","1","2022-10-20 06:54:34","d60b49b5908c80e163b920d72b52d584","14.116.159.210","Mozilla/5.0 (Windows NT 10.0; WOW64) AppleWebKit/537.36 (KHTML, like Gecko) Chrome/94.0.4606.71 Safari/537.36 Core/1.94.178.400 QQBrowser/11.2.5170.400","WebKit","Chrome","94.0.4606.71","Windows","10.0","null","<div style=""font-size:60px;"">+</div>","null",""
"","","","","","html-button-response","123","146873","0.0-4.0-1.59","28","1","2022-10-20 06:54:34","d60b49b5908c80e163b920d72b52d584","14.116.159.210","Mozilla/5.0 (Windows NT 10.0; WOW64) AppleWebKit/537.36 (KHTML, like Gecko) Chrome/94.0.4606.71 Safari/537.36 Core/1.94.178.400 QQBrowser/11.2.5170.400","WebKit","Chrome","94.0.4606.71","Windows","10.0","1598","<p>作为军队的指挥官，你可以选择发射导弹杀死 <strong>3名</strong> 敌国士兵，但会误杀附近的 <strong>1名</strong> 敌国平民。</p> <p>平民照片如下图所示。</p> <p></p> <img src='stimuli/faces/NCF5.jpg', style='max-width: 30%;'> </img> <p><strong>你是否选择发射武器？</strong></p>","1",""
"","","","","","html-keyboard-response","124","147877","0.0-4.0-0.60","28","1","2022-10-20 06:54:34","d60b49b5908c80e163b920d72b52d584","14.116.159.210","Mozilla/5.0 (Windows NT 10.0; WOW64) AppleWebKit/537.36 (KHTML, like Gecko) Chrome/94.0.4606.71 Safari/537.36 Core/1.94.178.400 QQBrowser/11.2.5170.400","WebKit","Chrome","94.0.4606.71","Windows","10.0","null","<div style=""font-size:60px;"">+</div>","null",""
"","","","","","html-button-response","125","149390","0.0-4.0-1.60","28","1","2022-10-20 06:54:34","d60b49b5908c80e163b920d72b52d584","14.116.159.210","Mozilla/5.0 (Windows NT 10.0; WOW64) AppleWebKit/537.36 (KHTML, like Gecko) Chrome/94.0.4606.71 Safari/537.36 Core/1.94.178.400 QQBrowser/11.2.5170.400","WebKit","Chrome","94.0.4606.71","Windows","10.0","1507","<p>作为军队的指挥官，你可以选择发射导弹杀死 <strong>1名</strong> 敌国士兵，但会误杀附近的 <strong>1名</strong> 敌国平民。</p> <p>平民照片如下图所示。</p> <p></p> <img src='stimuli/faces/NCM8.jpg', style='max-width: 30%;'> </img> <p><strong>你是否选择发射武器？</strong></p>","1",""
"","","","","","html-keyboard-response","126","150397","0.0-4.0-0.61","28","1","2022-10-20 06:54:34","d60b49b5908c80e163b920d72b52d584","14.116.159.210","Mozilla/5.0 (Windows NT 10.0; WOW64) AppleWebKit/537.36 (KHTML, like Gecko) Chrome/94.0.4606.71 Safari/537.36 Core/1.94.178.400 QQBrowser/11.2.5170.400","WebKit","Chrome","94.0.4606.71","Windows","10.0","null","<div style=""font-size:60px;"">+</div>","null",""
"","","","","","html-button-response","127","151470","0.0-4.0-1.61","28","1","2022-10-20 06:54:34","d60b49b5908c80e163b920d72b52d584","14.116.159.210","Mozilla/5.0 (Windows NT 10.0; WOW64) AppleWebKit/537.36 (KHTML, like Gecko) Chrome/94.0.4606.71 Safari/537.36 Core/1.94.178.400 QQBrowser/11.2.5170.400","WebKit","Chrome","94.0.4606.71","Windows","10.0","1067","<p>作为军队的指挥官，你可以选择发射导弹杀死 <strong>2名</strong> 敌国士兵，但会误杀附近的 <strong>1名</strong> 敌国平民。</p> <p>平民照片如下图所示。</p> <p></p> <img src='stimuli/faces/NCF8.jpg', style='max-width: 30%;'> </img> <p><strong>你是否选择发射武器？</strong></p>","1",""
"","","","","","html-keyboard-response","128","152475","0.0-4.0-0.62","28","1","2022-10-20 06:54:34","d60b49b5908c80e163b920d72b52d584","14.116.159.210","Mozilla/5.0 (Windows NT 10.0; WOW64) AppleWebKit/537.36 (KHTML, like Gecko) Chrome/94.0.4606.71 Safari/537.36 Core/1.94.178.400 QQBrowser/11.2.5170.400","WebKit","Chrome","94.0.4606.71","Windows","10.0","null","<div style=""font-size:60px;"">+</div>","null",""
"","","","","","html-button-response","129","153438","0.0-4.0-1.62","28","1","2022-10-20 06:54:34","d60b49b5908c80e163b920d72b52d584","14.116.159.210","Mozilla/5.0 (Windows NT 10.0; WOW64) AppleWebKit/537.36 (KHTML, like Gecko) Chrome/94.0.4606.71 Safari/537.36 Core/1.94.178.400 QQBrowser/11.2.5170.400","WebKit","Chrome","94.0.4606.71","Windows","10.0","958","<p>作为军队的指挥官，你可以选择发射导弹杀死 <strong>4名</strong> 敌国士兵，但会误杀附近的 <strong>1名</strong> 敌国平民。</p> <p>平民照片如下图所示。</p> <p></p> <img src='stimuli/faces/NCM7.jpg', style='max-width: 30%;'> </img> <p><strong>你是否选择发射武器？</strong></p>","1",""
"","","","","","html-keyboard-response","130","154444","0.0-4.0-0.63","28","1","2022-10-20 06:54:34","d60b49b5908c80e163b920d72b52d584","14.116.159.210","Mozilla/5.0 (Windows NT 10.0; WOW64) AppleWebKit/537.36 (KHTML, like Gecko) Chrome/94.0.4606.71 Safari/537.36 Core/1.94.178.400 QQBrowser/11.2.5170.400","WebKit","Chrome","94.0.4606.71","Windows","10.0","null","<div style=""font-size:60px;"">+</div>","null",""
"","","","","","html-button-response","131","155495","0.0-4.0-1.63","28","1","2022-10-20 06:54:34","d60b49b5908c80e163b920d72b52d584","14.116.159.210","Mozilla/5.0 (Windows NT 10.0; WOW64) AppleWebKit/537.36 (KHTML, like Gecko) Chrome/94.0.4606.71 Safari/537.36 Core/1.94.178.400 QQBrowser/11.2.5170.400","WebKit","Chrome","94.0.4606.71","Windows","10.0","1044","<p>作为军队的指挥官，你可以选择发射导弹杀死 <strong>2名</strong> 敌国士兵，但会误杀附近的 <strong>1名</strong> 敌国平民。</p> <p>平民照片如下图所示。</p> <p></p> <img src='stimuli/faces/NCM5.jpg', style='max-width: 30%;'> </img> <p><strong>你是否选择发射武器？</strong></p>","1",""
"","","","","","survey-multi-choice","132","162232","0.0-5.0","28","1","2022-10-20 06:54:34","d60b49b5908c80e163b920d72b52d584","14.116.159.210","Mozilla/5.0 (Windows NT 10.0; WOW64) AppleWebKit/537.36 (KHTML, like Gecko) Chrome/94.0.4606.71 Safari/537.36 Core/1.94.178.400 QQBrowser/11.2.5170.400","WebKit","Chrome","94.0.4606.71","Windows","10.0","6730","","{""Attention1"":""""}","[0]"
"","","","","","html-button-response","133","163911","0.0-6.0","28","1","2022-10-20 06:54:34","d60b49b5908c80e163b920d72b52d584","14.116.159.210","Mozilla/5.0 (Windows NT 10.0; WOW64) AppleWebKit/537.36 (KHTML, like Gecko) Chrome/94.0.4606.71 Safari/537.36 Core/1.94.178.400 QQBrowser/11.2.5170.400","WebKit","Chrome","94.0.4606.71","Windows","10.0","1671","<p style=""font-size:20px;font-weight:bold;"">恭喜！</p><p>你已经完成了实验的第一部分。</p><p>请休息放松一下，然后进入第二部分。</p><p>这部分大约需要10分钟。</p>","0",""
"","","","","","survey-text","134","193552","0.0-7.0","28","1","2022-10-20 06:54:34","d60b49b5908c80e163b920d72b52d584","14.116.159.210","Mozilla/5.0 (Windows NT 10.0; WOW64) AppleWebKit/537.36 (KHTML, like Gecko) Chrome/94.0.4606.71 Safari/537.36 Core/1.94.178.400 QQBrowser/11.2.5170.400","WebKit","Chrome","94.0.4606.71","Windows","10.0","28625","","{""Age"":""27"",""Nation"":""中国"",""Born"":""广东"",""Live"":""深圳"",""Ethnic"":""汉族"",""Alipay"":""13713855234""}",""
"","","","","","survey-multi-choice","135","203448","0.0-8.0","28","1","2022-10-20 06:54:34","d60b49b5908c80e163b920d72b52d584","14.116.159.210","Mozilla/5.0 (Windows NT 10.0; WOW64) AppleWebKit/537.36 (KHTML, like Gecko) Chrome/94.0.4606.71 Safari/537.36 Core/1.94.178.400 QQBrowser/11.2.5170.400","WebKit","Chrome","94.0.4606.71","Windows","10.0","9890","","{""Gender"":""男"",""Education"":""本科毕业"",""Income"":""￥700,000-￥874,999"",""Children"":""1"",""Race"":""亚洲人""}","[0,1,2,3,4]"
"","","","","","survey-multi-select","136","210984","0.0-9.0","28","1","2022-10-20 06:54:34","d60b49b5908c80e163b920d72b52d584","14.116.159.210","Mozilla/5.0 (Windows NT 10.0; WOW64) AppleWebKit/537.36 (KHTML, like Gecko) Chrome/94.0.4606.71 Safari/537.36 Core/1.94.178.400 QQBrowser/11.2.5170.400","WebKit","Chrome","94.0.4606.71","Windows","10.0","7513","","{""Marriage"":[""已婚""],""Religion"":[""无宗教信仰""]}","[0,1]"
"","","","","","survey-multi-choice","137","214079","0.0-10.0","28","1","2022-10-20 06:54:34","d60b49b5908c80e163b920d72b52d584","14.116.159.210","Mozilla/5.0 (Windows NT 10.0; WOW64) AppleWebKit/537.36 (KHTML, like Gecko) Chrome/94.0.4606.71 Safari/537.36 Core/1.94.178.400 QQBrowser/11.2.5170.400","WebKit","Chrome","94.0.4606.71","Windows","10.0","3086","","{""SES"":""6""}","[0]"
"","","","","","html-button-response","138","215167","0.0-11.0","28","1","2022-10-20 06:54:34","d60b49b5908c80e163b920d72b52d584","14.116.159.210","Mozilla/5.0 (Windows NT 10.0; WOW64) AppleWebKit/537.36 (KHTML, like Gecko) Chrome/94.0.4606.71 Safari/537.36 Core/1.94.178.400 QQBrowser/11.2.5170.400","WebKit","Chrome","94.0.4606.71","Windows","10.0","1079","<p><strong>请判断下列陈述在多大程度上可以形容你？</p><p> (1 = ""和我一点都不像"" to 5 = ""非常像我"".)</strong></p>","0",""
"","","","","","survey-likert","139","239898","0.0-12.0","28","1","2022-10-20 06:54:34","d60b49b5908c80e163b920d72b52d584","14.116.159.210","Mozilla/5.0 (Windows NT 10.0; WOW64) AppleWebKit/537.36 (KHTML, like Gecko) Chrome/94.0.4606.71 Safari/537.36 Core/1.94.178.400 QQBrowser/11.2.5170.400","WebKit","Chrome","94.0.4606.71","Windows","10.0","24723","","{""Aggression1"":0,""Aggression2"":0,""Aggression3"":1,""Aggression4"":0,""Aggression5"":1,""Aggression6"":1,""Aggression7"":3,""Aggression8"":0,""Aggression9"":0}","[0,1,2,3,4,5,6,7,8]"
"","","","","","html-button-response","140","242247","0.0-13.0","28","1","2022-10-20 06:54:34","d60b49b5908c80e163b920d72b52d584","14.116.159.210","Mozilla/5.0 (Windows NT 10.0; WOW64) AppleWebKit/537.36 (KHTML, like Gecko) Chrome/94.0.4606.71 Safari/537.36 Core/1.94.178.400 QQBrowser/11.2.5170.400","WebKit","Chrome","94.0.4606.71","Windows","10.0","2341","<p><strong>请判断你在多大程度上同意下列陈述。</strong></p>","0",""
"","","","","","survey-likert","141","308637","0.0-14.0","28","1","2022-10-20 06:54:34","d60b49b5908c80e163b920d72b52d584","14.116.159.210","Mozilla/5.0 (Windows NT 10.0; WOW64) AppleWebKit/537.36 (KHTML, like Gecko) Chrome/94.0.4606.71 Safari/537.36 Core/1.94.178.400 QQBrowser/11.2.5170.400","WebKit","Chrome","94.0.4606.71","Windows","10.0","66379","","{""scale28"":3,""scale8"":4,""scale4"":1,""scale11"":3,""scale20"":2,""scale6"":1,""scale26"":2,""scale2"":3,""scale27"":0,""scale22"":2,""scale1"":2,""scale24"":1,""scale25"":3,""scale10"":0,""scale17"":1,""scale21"":4,""scale12"":1,""scale9"":3,""scale15"":0,""scale16"":2,""scale18"":1,""scale23"":3,""scale13"":0,""scale7"":1,""scale3"":1,""scale19"":3,""scale5"":2,""scale14"":0}","[27,7,3,10,19,5,25,1,26,21,0,23,24,9,16,20,11,8,14,15,17,22,12,6,2,18,4,13]"
"","","","","","html-button-response","142","309873","0.0-15.0","28","1","2022-10-20 06:54:34","d60b49b5908c80e163b920d72b52d584","14.116.159.210","Mozilla/5.0 (Windows NT 10.0; WOW64) AppleWebKit/537.36 (KHTML, like Gecko) Chrome/94.0.4606.71 Safari/537.36 Core/1.94.178.400 QQBrowser/11.2.5170.400","WebKit","Chrome","94.0.4606.71","Windows","10.0","1227","<p><strong>请判断你在多大程度上同意下列陈述。</strong></p>","0",""
"","","","","","survey-likert","143","365836","0.0-16.0","28","1","2022-10-20 06:54:34","d60b49b5908c80e163b920d72b52d584","14.116.159.210","Mozilla/5.0 (Windows NT 10.0; WOW64) AppleWebKit/537.36 (KHTML, like Gecko) Chrome/94.0.4606.71 Safari/537.36 Core/1.94.178.400 QQBrowser/11.2.5170.400","WebKit","Chrome","94.0.4606.71","Windows","10.0","55951","","{""sdo4"":0,""sdo6"":1,""sdo16"":6,""sdo13"":6,""sdo1"":1,""sdo3"":3,""sdo15"":6,""sdo11"":6,""sdo14"":6,""sdo10"":6,""sdo12"":6,""sdo2"":0,""sdo8"":1,""sdo5"":2,""sdo9"":6,""sdo7"":0}","[3,5,15,12,0,2,14,10,13,9,11,1,7,4,8,6]"
"","","","","","html-button-response","144","367184","0.0-17.0","28","1","2022-10-20 06:54:34","d60b49b5908c80e163b920d72b52d584","14.116.159.210","Mozilla/5.0 (Windows NT 10.0; WOW64) AppleWebKit/537.36 (KHTML, like Gecko) Chrome/94.0.4606.71 Safari/537.36 Core/1.94.178.400 QQBrowser/11.2.5170.400","WebKit","Chrome","94.0.4606.71","Windows","10.0","1340","<p><strong>请判断你在多大程度上同意下列陈述。</strong></p>","0",""
"","","","","","survey-likert","145","398419","0.0-18.0","28","1","2022-10-20 06:54:34","d60b49b5908c80e163b920d72b52d584","14.116.159.210","Mozilla/5.0 (Windows NT 10.0; WOW64) AppleWebKit/537.36 (KHTML, like Gecko) Chrome/94.0.4606.71 Safari/537.36 Core/1.94.178.400 QQBrowser/11.2.5170.400","WebKit","Chrome","94.0.4606.71","Windows","10.0","31227","","{""caring1"":4,""liking1"":0,""caring2"":4,""protection1"":3,""liking2"":0,""caring3"":4,""protection2"":3,""liking3"":0,""protection3"":4,""caring4"":4,""liking4"":0,""protection4"":3,""caring5"":4,""liking5"":4,""protection5"":3}","[0,1,2,3,4,5,6,7,8,9,10,11,12,13,14]"
"","","","","","html-button-response","146","399888","0.0-19.0","28","1","2022-10-20 06:54:34","d60b49b5908c80e163b920d72b52d584","14.116.159.210","Mozilla/5.0 (Windows NT 10.0; WOW64) AppleWebKit/537.36 (KHTML, like Gecko) Chrome/94.0.4606.71 Safari/537.36 Core/1.94.178.400 QQBrowser/11.2.5170.400","WebKit","Chrome","94.0.4606.71","Windows","10.0","1461","<p><strong>请判断下列场景中你的内心感受有多柔软。</strong></p>","0",""
"","","","","","survey-likert","147","421913","0.0-20.0","28","1","2022-10-20 06:54:34","d60b49b5908c80e163b920d72b52d584","14.116.159.210","Mozilla/5.0 (Windows NT 10.0; WOW64) AppleWebKit/537.36 (KHTML, like Gecko) Chrome/94.0.4606.71 Safari/537.36 Core/1.94.178.400 QQBrowser/11.2.5170.400","WebKit","Chrome","94.0.4606.71","Windows","10.0","22018","","{""tenderness-positive1"":4,""tenderness-negative1"":3,""tenderness-negative2"":2,""tenderness-positive2"":4,""tenderness-positive3"":4,""tenderness-negative3"":3,""tenderness-positive4"":4,""tendereness-negative4"":3,""tendernness-negative5"":3,""tenderness-positive5"":4}","[0,1,2,3,4,5,6,7,8,9]"
"","","","","","survey-multi-choice","148","425143","0.0-21.0","28","1","2022-10-20 06:54:34","d60b49b5908c80e163b920d72b52d584","14.116.159.210","Mozilla/5.0 (Windows NT 10.0; WOW64) AppleWebKit/537.36 (KHTML, like Gecko) Chrome/94.0.4606.71 Safari/537.36 Core/1.94.178.400 QQBrowser/11.2.5170.400","WebKit","Chrome","94.0.4606.71","Windows","10.0","3221","","{""Attention2"":""其他""}","[0]"
"","","","","","html-button-response","149","426335","0.0-22.0","28","1","2022-10-20 06:54:34","d60b49b5908c80e163b920d72b52d584","14.116.159.210","Mozilla/5.0 (Windows NT 10.0; WOW64) AppleWebKit/537.36 (KHTML, like Gecko) Chrome/94.0.4606.71 Safari/537.36 Core/1.94.178.400 QQBrowser/11.2.5170.400","WebKit","Chrome","94.0.4606.71","Windows","10.0","1185","<p><strong>请判断你在多大程度上同意下列陈述。</strong></p>","0",""
"","","","","","survey-likert","150","474844","0.0-23.0","28","1","2022-10-20 06:54:34","d60b49b5908c80e163b920d72b52d584","14.116.159.210","Mozilla/5.0 (Windows NT 10.0; WOW64) AppleWebKit/537.36 (KHTML, like Gecko) Chrome/94.0.4606.71 Safari/537.36 Core/1.94.178.400 QQBrowser/11.2.5170.400","WebKit","Chrome","94.0.4606.71","Windows","10.0","48498","","{""Patri12"":0,""Patri8"":4,""Nation7"":4,""Patri3"":4,""Nation2"":4,""Patri7"":4,""Patri9"":0,""Patri1"":4,""Nation6"":4,""Patri5"":4,""Patri2"":4,""Nation1"":3,""Nation4"":2,""Nation8"":0,""Nation5"":1,""Patri4"":4,""Patri10"":0,""Patri6"":0,""Nation3"":1,""Patri11"":0}","[11,7,18,2,13,6,8,0,17,4,1,12,15,19,16,3,9,5,14,10]"
"","","","","","html-button-response","151","476319","0.0-24.0","28","1","2022-10-20 06:54:34","d60b49b5908c80e163b920d72b52d584","14.116.159.210","Mozilla/5.0 (Windows NT 10.0; WOW64) AppleWebKit/537.36 (KHTML, like Gecko) Chrome/94.0.4606.71 Safari/537.36 Core/1.94.178.400 QQBrowser/11.2.5170.400","WebKit","Chrome","94.0.4606.71","Windows","10.0","1467","<p><strong>请判断你在多大程度上同意下列陈述。</strong></p>","0",""
"","","","","","survey-likert","152","772165","0.0-25.0","28","1","2022-10-20 06:54:34","d60b49b5908c80e163b920d72b52d584","14.116.159.210","Mozilla/5.0 (Windows NT 10.0; WOW64) AppleWebKit/537.36 (KHTML, like Gecko) Chrome/94.0.4606.71 Safari/537.36 Core/1.94.178.400 QQBrowser/11.2.5170.400","WebKit","Chrome","94.0.4606.71","Windows","10.0","295835","","{""Robot"":6,""vi4"":1,""hc4"":7,""vc4"":8,""vc1"":8,""hi4"":5,""vi2"":2,""vc3"":5,""vc2"":8,""vi3"":7,""hi3"":3,""hi2"":5,""hc1"":6,""hc2"":6,""hi1"":5,""vi1"":5,""hc3"":6}","[7,8,12,16,13,3,5,15,14,6,2,1,9,10,0,4,11]"
"","","","","","survey-text","153","776707","0.0-26.0","28","1","2022-10-20 06:54:34","d60b49b5908c80e163b920d72b52d584","14.116.159.210","Mozilla/5.0 (Windows NT 10.0; WOW64) AppleWebKit/537.36 (KHTML, like Gecko) Chrome/94.0.4606.71 Safari/537.36 Core/1.94.178.400 QQBrowser/11.2.5170.400","WebKit","Chrome","94.0.4606.71","Windows","10.0","4520","","{""Comments"":""暂无""}",""
"","","","","","html-button-response","154","777472","0.0-27.0","28","1","2022-10-20 06:54:34","d60b49b5908c80e163b920d72b52d584","14.116.159.210","Mozilla/5.0 (Windows NT 10.0; WOW64) AppleWebKit/537.36 (KHTML, like Gecko) Chrome/94.0.4606.71 Safari/537.36 Core/1.94.178.400 QQBrowser/11.2.5170.400","WebKit","Chrome","94.0.4606.71","Windows","10.0","760","<strong><p>恭喜你完成了实验！</p><p>感谢您的参与。</p></strong>","0",""
