"success","timeout","failed_images","failed_audio","failed_video","trial_type","trial_index","time_elapsed","internal_node_id","run_id","condition","recorded_at","source_code_version","ip","user_agent","device","browser","browser_version","platform","platform_version","rt","stimulus","response","question_order"
"true","false","[]","[]","[]","preload","0","3304","0.0-0.0","38","1","2022-10-20 07:13:12","d60b49b5908c80e163b920d72b52d584","124.126.98.33","Mozilla/5.0 (Windows NT 10.0; Win64; x64; rv:106.0) Gecko/20100101 Firefox/106.0","","Firefox","106.0","Windows","10.0","","","",""
"true","","","","","fullscreen","1","6155","0.0-1.0","38","1","2022-10-20 07:13:12","d60b49b5908c80e163b920d72b52d584","124.126.98.33","Mozilla/5.0 (Windows NT 10.0; Win64; x64; rv:106.0) Gecko/20100101 Firefox/106.0","","Firefox","106.0","Windows","10.0","","","",""
"","","","","","html-button-response","2","221120","0.0-2.0","38","1","2022-10-20 07:13:12","d60b49b5908c80e163b920d72b52d584","124.126.98.33","Mozilla/5.0 (Windows NT 10.0; Win64; x64; rv:106.0) Gecko/20100101 Firefox/106.0","","Firefox","106.0","Windows","10.0","214962","<p style=""font-size:20px;font-weight:bold;"">实验知情同意书</p><p style=""text-align:left;""><strong>实验名称：</strong>社会冲突研究</p><p style=""text-align:left;""><strong>主要研究者：</strong>韩晓春副教授（北京师范大学心理学部）</p><p style=""text-align:left;""><strong>联系方式：</strong>发送邮件至xiaochun.han@bnu.edu.cn</p><p style=""text-align:left;""><strong>研究目的：</strong>研究旨在了解人类面对群体冲突时的决策方式，以及相关的心理学特质。实验调查大约需要20分钟。</p><p style=""text-align:left;""><strong>实验流程：</strong>实验包含两部分。第一部分呈现一系列群体冲突场景，请你决定如何对这些冲突进行反应，大约需要10分钟完成。第二部分包含一系列人口统计学信息收集和心理学问卷，大约需要10分钟完成。</p><p style=""text-align:left;""><strong>参加及退出规则：</strong>参加本实验完全取决于您的个人意愿。在参与过程中，您可以随时退出，并且不用承担任何后果。</p><p style=""text-align:left;""><strong>隐私：</strong>本实验完全匿名进行，不会收集您的姓名或其他能够识别您身份的信息。实验中收集的作答仅用作科学研究使用，可能会在学术期刊/书籍上发表，或者用于教学，您的数据未来可能会和其他研究者或实验室分享，但您的个人身份不会被识别。</p><p style=""text-align:left;""><strong>实验报酬：</strong>实验完成后，您将获得15元人民币报酬，以感谢您的时间和努力。调查问卷中包含几道题目用以测验您作答时的认真度。只有完成全部实验，并且正确回答认真度测验的被试才能获得实验报酬。实验报酬将通过支付宝转账发放。</p><p style=""text-align:left;font-size:20px;""><strong>如果您同意以上实验知情同意书的内容，请点击'同意并且开始实验'按钮；否则请关闭浏览器界面，退出实验。</strong></p>","0",""
"","","","","","html-button-response","3","236707","0.0-3.0","38","1","2022-10-20 07:13:12","d60b49b5908c80e163b920d72b52d584","124.126.98.33","Mozilla/5.0 (Windows NT 10.0; Win64; x64; rv:106.0) Gecko/20100101 Firefox/106.0","","Firefox","106.0","Windows","10.0","15585","<p ><strong>实验任务一：</strong></p><p>请想象你的国家与另一个国家发生了军事冲突。</p><p>你是国家军队的指挥官，你将如何在冲突中进行决策。</p><p>具体来说，作为军队指挥官，请你决定是否发射导弹进行打击。</p><p>接下来，你会面对一系列场景，请仔细阅读每个场景，然后进行决策。</p><p>这部分实验任务大约需要10分钟。</p><p><strong>实验过程中，请集中注意力。</strong></p>","0",""
"","","","","","html-keyboard-response","4","237716","0.0-4.0-0.0","38","1","2022-10-20 07:13:12","d60b49b5908c80e163b920d72b52d584","124.126.98.33","Mozilla/5.0 (Windows NT 10.0; Win64; x64; rv:106.0) Gecko/20100101 Firefox/106.0","","Firefox","106.0","Windows","10.0","null","<div style=""font-size:60px;"">+</div>","null",""
"","","","","","html-button-response","5","246313","0.0-4.0-1.0","38","1","2022-10-20 07:13:12","d60b49b5908c80e163b920d72b52d584","124.126.98.33","Mozilla/5.0 (Windows NT 10.0; Win64; x64; rv:106.0) Gecko/20100101 Firefox/106.0","","Firefox","106.0","Windows","10.0","8595","<p>作为军队的指挥官，你可以选择发射导弹杀死 <strong>9名</strong> 敌国士兵，但会误杀附近的 <strong>1名</strong> 敌国平民。</p> <p>平民照片如下图所示。</p> <p></p> <img src='stimuli/faces/NCF3.jpg', style='max-width: 30%;'> </img> <p><strong>你是否选择发射武器？</strong></p>","0",""
"","","","","","html-keyboard-response","6","247329","0.0-4.0-0.1","38","1","2022-10-20 07:13:12","d60b49b5908c80e163b920d72b52d584","124.126.98.33","Mozilla/5.0 (Windows NT 10.0; Win64; x64; rv:106.0) Gecko/20100101 Firefox/106.0","","Firefox","106.0","Windows","10.0","null","<div style=""font-size:60px;"">+</div>","null",""
"","","","","","html-button-response","7","250749","0.0-4.0-1.1","38","1","2022-10-20 07:13:12","d60b49b5908c80e163b920d72b52d584","124.126.98.33","Mozilla/5.0 (Windows NT 10.0; Win64; x64; rv:106.0) Gecko/20100101 Firefox/106.0","","Firefox","106.0","Windows","10.0","3419","<p>作为军队的指挥官，你可以选择发射导弹杀死 <strong>10名</strong> 敌国士兵，但会误杀附近的 <strong>1名</strong> 敌国平民。</p> <p>平民照片如下图所示。</p> <p></p> <img src='stimuli/faces/NCM5.jpg', style='max-width: 30%;'> </img> <p><strong>你是否选择发射武器？</strong></p>","0",""
"","","","","","html-keyboard-response","8","251756","0.0-4.0-0.2","38","1","2022-10-20 07:13:12","d60b49b5908c80e163b920d72b52d584","124.126.98.33","Mozilla/5.0 (Windows NT 10.0; Win64; x64; rv:106.0) Gecko/20100101 Firefox/106.0","","Firefox","106.0","Windows","10.0","null","<div style=""font-size:60px;"">+</div>","null",""
"","","","","","html-button-response","9","254101","0.0-4.0-1.2","38","1","2022-10-20 07:13:12","d60b49b5908c80e163b920d72b52d584","124.126.98.33","Mozilla/5.0 (Windows NT 10.0; Win64; x64; rv:106.0) Gecko/20100101 Firefox/106.0","","Firefox","106.0","Windows","10.0","2343","<p>作为军队的指挥官，你可以选择发射导弹杀死 <strong>7名</strong> 敌国士兵，但会炸毁附近的 <strong>1棵</strong> 敌国树木。</p> <p>树木的照片如下图所示。</p> <p></p> <img src='stimuli/trees/3.png', style='max-width: 30%;'> </img> <p><strong>你是否选择发射武器？</strong></p>","0",""
"","","","","","html-keyboard-response","10","255103","0.0-4.0-0.3","38","1","2022-10-20 07:13:12","d60b49b5908c80e163b920d72b52d584","124.126.98.33","Mozilla/5.0 (Windows NT 10.0; Win64; x64; rv:106.0) Gecko/20100101 Firefox/106.0","","Firefox","106.0","Windows","10.0","null","<div style=""font-size:60px;"">+</div>","null",""
"","","","","","html-button-response","11","258142","0.0-4.0-1.3","38","1","2022-10-20 07:13:12","d60b49b5908c80e163b920d72b52d584","124.126.98.33","Mozilla/5.0 (Windows NT 10.0; Win64; x64; rv:106.0) Gecko/20100101 Firefox/106.0","","Firefox","106.0","Windows","10.0","3039","<p>作为军队的指挥官，你可以选择发射导弹杀死 <strong>3名</strong> 敌国士兵，但会炸毁附近的 <strong>1棵</strong> 敌国树木。</p> <p>树木的照片如下图所示。</p> <p></p> <img src='stimuli/trees/16.png', style='max-width: 30%;'> </img> <p><strong>你是否选择发射武器？</strong></p>","0",""
"","","","","","html-keyboard-response","12","259149","0.0-4.0-0.4","38","1","2022-10-20 07:13:12","d60b49b5908c80e163b920d72b52d584","124.126.98.33","Mozilla/5.0 (Windows NT 10.0; Win64; x64; rv:106.0) Gecko/20100101 Firefox/106.0","","Firefox","106.0","Windows","10.0","null","<div style=""font-size:60px;"">+</div>","null",""
"","","","","","html-button-response","13","260813","0.0-4.0-1.4","38","1","2022-10-20 07:13:12","d60b49b5908c80e163b920d72b52d584","124.126.98.33","Mozilla/5.0 (Windows NT 10.0; Win64; x64; rv:106.0) Gecko/20100101 Firefox/106.0","","Firefox","106.0","Windows","10.0","1664","<p>作为军队的指挥官，你可以选择发射导弹杀死 <strong>10名</strong> 敌国士兵，但会炸毁附近的 <strong>1棵</strong> 敌国树木。</p> <p>树木的照片如下图所示。</p> <p></p> <img src='stimuli/trees/14.png', style='max-width: 30%;'> </img> <p><strong>你是否选择发射武器？</strong></p>","0",""
"","","","","","html-keyboard-response","14","261824","0.0-4.0-0.5","38","1","2022-10-20 07:13:12","d60b49b5908c80e163b920d72b52d584","124.126.98.33","Mozilla/5.0 (Windows NT 10.0; Win64; x64; rv:106.0) Gecko/20100101 Firefox/106.0","","Firefox","106.0","Windows","10.0","null","<div style=""font-size:60px;"">+</div>","null",""
"","","","","","html-button-response","15","263346","0.0-4.0-1.5","38","1","2022-10-20 07:13:12","d60b49b5908c80e163b920d72b52d584","124.126.98.33","Mozilla/5.0 (Windows NT 10.0; Win64; x64; rv:106.0) Gecko/20100101 Firefox/106.0","","Firefox","106.0","Windows","10.0","1520","<p>作为军队的指挥官，你可以选择发射导弹杀死 <strong>8名</strong> 敌国士兵，但会炸毁附近的 <strong>1棵</strong> 敌国树木。</p> <p>树木的照片如下图所示。</p> <p></p> <img src='stimuli/trees/9.png', style='max-width: 30%;'> </img> <p><strong>你是否选择发射武器？</strong></p>","0",""
"","","","","","html-keyboard-response","16","264359","0.0-4.0-0.6","38","1","2022-10-20 07:13:12","d60b49b5908c80e163b920d72b52d584","124.126.98.33","Mozilla/5.0 (Windows NT 10.0; Win64; x64; rv:106.0) Gecko/20100101 Firefox/106.0","","Firefox","106.0","Windows","10.0","null","<div style=""font-size:60px;"">+</div>","null",""
"","","","","","html-button-response","17","269354","0.0-4.0-1.6","38","1","2022-10-20 07:13:12","d60b49b5908c80e163b920d72b52d584","124.126.98.33","Mozilla/5.0 (Windows NT 10.0; Win64; x64; rv:106.0) Gecko/20100101 Firefox/106.0","","Firefox","106.0","Windows","10.0","4995","<p>作为军队的指挥官，你可以选择发射导弹杀死 <strong>1名</strong> 敌国士兵，但会误杀附近的 <strong>1名</strong> 敌国平民。</p> <p>平民照片如下图所示。</p> <p></p> <img src='stimuli/faces/NCF4.jpg', style='max-width: 30%;'> </img> <p><strong>你是否选择发射武器？</strong></p>","1",""
"","","","","","html-keyboard-response","18","270356","0.0-4.0-0.7","38","1","2022-10-20 07:13:12","d60b49b5908c80e163b920d72b52d584","124.126.98.33","Mozilla/5.0 (Windows NT 10.0; Win64; x64; rv:106.0) Gecko/20100101 Firefox/106.0","","Firefox","106.0","Windows","10.0","null","<div style=""font-size:60px;"">+</div>","null",""
"","","","","","html-button-response","19","273754","0.0-4.0-1.7","38","1","2022-10-20 07:13:12","d60b49b5908c80e163b920d72b52d584","124.126.98.33","Mozilla/5.0 (Windows NT 10.0; Win64; x64; rv:106.0) Gecko/20100101 Firefox/106.0","","Firefox","106.0","Windows","10.0","3397","<p>作为军队的指挥官，你可以选择发射导弹杀死 <strong>2名</strong> 敌国士兵，但会炸毁附近的 <strong>1棵</strong> 敌国树木。</p> <p>树木的照片如下图所示。</p> <p></p> <img src='stimuli/trees/13.png', style='max-width: 30%;'> </img> <p><strong>你是否选择发射武器？</strong></p>","0",""
"","","","","","html-keyboard-response","20","274765","0.0-4.0-0.8","38","1","2022-10-20 07:13:12","d60b49b5908c80e163b920d72b52d584","124.126.98.33","Mozilla/5.0 (Windows NT 10.0; Win64; x64; rv:106.0) Gecko/20100101 Firefox/106.0","","Firefox","106.0","Windows","10.0","null","<div style=""font-size:60px;"">+</div>","null",""
"","","","","","html-button-response","21","312233","0.0-4.0-1.8","38","1","2022-10-20 07:13:12","d60b49b5908c80e163b920d72b52d584","124.126.98.33","Mozilla/5.0 (Windows NT 10.0; Win64; x64; rv:106.0) Gecko/20100101 Firefox/106.0","","Firefox","106.0","Windows","10.0","37467","<p>作为军队的指挥官，你可以选择发射导弹杀死 <strong>3名</strong> 敌国士兵，但会误杀附近的 <strong>1名</strong> 敌国平民。</p> <p>平民照片如下图所示。</p> <p></p> <img src='stimuli/faces/NCM2.jpg', style='max-width: 30%;'> </img> <p><strong>你是否选择发射武器？</strong></p>","1",""
"","","","","","html-keyboard-response","22","313248","0.0-4.0-0.9","38","1","2022-10-20 07:13:12","d60b49b5908c80e163b920d72b52d584","124.126.98.33","Mozilla/5.0 (Windows NT 10.0; Win64; x64; rv:106.0) Gecko/20100101 Firefox/106.0","","Firefox","106.0","Windows","10.0","null","<div style=""font-size:60px;"">+</div>","null",""
"","","","","","html-button-response","23","315897","0.0-4.0-1.9","38","1","2022-10-20 07:13:12","d60b49b5908c80e163b920d72b52d584","124.126.98.33","Mozilla/5.0 (Windows NT 10.0; Win64; x64; rv:106.0) Gecko/20100101 Firefox/106.0","","Firefox","106.0","Windows","10.0","2649","<p>作为军队的指挥官，你可以选择发射导弹杀死 <strong>9名</strong> 敌国士兵，但会炸毁附近的 <strong>1棵</strong> 敌国树木。</p> <p>树木的照片如下图所示。</p> <p></p> <img src='stimuli/trees/12.png', style='max-width: 30%;'> </img> <p><strong>你是否选择发射武器？</strong></p>","0",""
"","","","","","html-keyboard-response","24","316909","0.0-4.0-0.10","38","1","2022-10-20 07:13:12","d60b49b5908c80e163b920d72b52d584","124.126.98.33","Mozilla/5.0 (Windows NT 10.0; Win64; x64; rv:106.0) Gecko/20100101 Firefox/106.0","","Firefox","106.0","Windows","10.0","null","<div style=""font-size:60px;"">+</div>","null",""
"","","","","","html-button-response","25","319613","0.0-4.0-1.10","38","1","2022-10-20 07:13:12","d60b49b5908c80e163b920d72b52d584","124.126.98.33","Mozilla/5.0 (Windows NT 10.0; Win64; x64; rv:106.0) Gecko/20100101 Firefox/106.0","","Firefox","106.0","Windows","10.0","2704","<p>作为军队的指挥官，你可以选择发射导弹杀死 <strong>7名</strong> 敌国士兵，但会误杀附近的 <strong>1名</strong> 敌国平民。</p> <p>平民照片如下图所示。</p> <p></p> <img src='stimuli/faces/NCM1.jpg', style='max-width: 30%;'> </img> <p><strong>你是否选择发射武器？</strong></p>","1",""
"","","","","","html-keyboard-response","26","320628","0.0-4.0-0.11","38","1","2022-10-20 07:13:12","d60b49b5908c80e163b920d72b52d584","124.126.98.33","Mozilla/5.0 (Windows NT 10.0; Win64; x64; rv:106.0) Gecko/20100101 Firefox/106.0","","Firefox","106.0","Windows","10.0","null","<div style=""font-size:60px;"">+</div>","null",""
"","","","","","html-button-response","27","322343","0.0-4.0-1.11","38","1","2022-10-20 07:13:12","d60b49b5908c80e163b920d72b52d584","124.126.98.33","Mozilla/5.0 (Windows NT 10.0; Win64; x64; rv:106.0) Gecko/20100101 Firefox/106.0","","Firefox","106.0","Windows","10.0","1714","<p>作为军队的指挥官，你可以选择发射导弹杀死 <strong>9名</strong> 敌国士兵，但会误杀附近的 <strong>1名</strong> 敌国平民。</p> <p>平民照片如下图所示。</p> <p></p> <img src='stimuli/faces/NCF6.jpg', style='max-width: 30%;'> </img> <p><strong>你是否选择发射武器？</strong></p>","0",""
"","","","","","html-keyboard-response","28","323357","0.0-4.0-0.12","38","1","2022-10-20 07:13:12","d60b49b5908c80e163b920d72b52d584","124.126.98.33","Mozilla/5.0 (Windows NT 10.0; Win64; x64; rv:106.0) Gecko/20100101 Firefox/106.0","","Firefox","106.0","Windows","10.0","null","<div style=""font-size:60px;"">+</div>","null",""
"","","","","","html-button-response","29","324849","0.0-4.0-1.12","38","1","2022-10-20 07:13:12","d60b49b5908c80e163b920d72b52d584","124.126.98.33","Mozilla/5.0 (Windows NT 10.0; Win64; x64; rv:106.0) Gecko/20100101 Firefox/106.0","","Firefox","106.0","Windows","10.0","1490","<p>作为军队的指挥官，你可以选择发射导弹杀死 <strong>3名</strong> 敌国士兵，但会炸毁附近的 <strong>1棵</strong> 敌国树木。</p> <p>树木的照片如下图所示。</p> <p></p> <img src='stimuli/trees/14.png', style='max-width: 30%;'> </img> <p><strong>你是否选择发射武器？</strong></p>","0",""
"","","","","","html-keyboard-response","30","325851","0.0-4.0-0.13","38","1","2022-10-20 07:13:12","d60b49b5908c80e163b920d72b52d584","124.126.98.33","Mozilla/5.0 (Windows NT 10.0; Win64; x64; rv:106.0) Gecko/20100101 Firefox/106.0","","Firefox","106.0","Windows","10.0","null","<div style=""font-size:60px;"">+</div>","null",""
"","","","","","html-button-response","31","329566","0.0-4.0-1.13","38","1","2022-10-20 07:13:12","d60b49b5908c80e163b920d72b52d584","124.126.98.33","Mozilla/5.0 (Windows NT 10.0; Win64; x64; rv:106.0) Gecko/20100101 Firefox/106.0","","Firefox","106.0","Windows","10.0","3715","<p>作为军队的指挥官，你可以选择发射导弹杀死 <strong>5名</strong> 敌国士兵，但会炸毁附近的 <strong>1棵</strong> 敌国树木。</p> <p>树木的照片如下图所示。</p> <p></p> <img src='stimuli/trees/9.png', style='max-width: 30%;'> </img> <p><strong>你是否选择发射武器？</strong></p>","0",""
"","","","","","html-keyboard-response","32","330581","0.0-4.0-0.14","38","1","2022-10-20 07:13:12","d60b49b5908c80e163b920d72b52d584","124.126.98.33","Mozilla/5.0 (Windows NT 10.0; Win64; x64; rv:106.0) Gecko/20100101 Firefox/106.0","","Firefox","106.0","Windows","10.0","null","<div style=""font-size:60px;"">+</div>","null",""
"","","","","","html-button-response","33","333110","0.0-4.0-1.14","38","1","2022-10-20 07:13:12","d60b49b5908c80e163b920d72b52d584","124.126.98.33","Mozilla/5.0 (Windows NT 10.0; Win64; x64; rv:106.0) Gecko/20100101 Firefox/106.0","","Firefox","106.0","Windows","10.0","2528","<p>作为军队的指挥官，你可以选择发射导弹杀死 <strong>5名</strong> 敌国士兵，但会误杀附近的 <strong>1名</strong> 敌国平民。</p> <p>平民照片如下图所示。</p> <p></p> <img src='stimuli/faces/NCM3.jpg', style='max-width: 30%;'> </img> <p><strong>你是否选择发射武器？</strong></p>","1",""
"","","","","","html-keyboard-response","34","334117","0.0-4.0-0.15","38","1","2022-10-20 07:13:12","d60b49b5908c80e163b920d72b52d584","124.126.98.33","Mozilla/5.0 (Windows NT 10.0; Win64; x64; rv:106.0) Gecko/20100101 Firefox/106.0","","Firefox","106.0","Windows","10.0","null","<div style=""font-size:60px;"">+</div>","null",""
"","","","","","html-button-response","35","341415","0.0-4.0-1.15","38","1","2022-10-20 07:13:12","d60b49b5908c80e163b920d72b52d584","124.126.98.33","Mozilla/5.0 (Windows NT 10.0; Win64; x64; rv:106.0) Gecko/20100101 Firefox/106.0","","Firefox","106.0","Windows","10.0","7297","<p>作为军队的指挥官，你可以选择发射导弹杀死 <strong>1名</strong> 敌国士兵，但会炸毁附近的 <strong>1棵</strong> 敌国树木。</p> <p>树木的照片如下图所示。</p> <p></p> <img src='stimuli/trees/1.png', style='max-width: 30%;'> </img> <p><strong>你是否选择发射武器？</strong></p>","1",""
"","","","","","html-keyboard-response","36","342418","0.0-4.0-0.16","38","1","2022-10-20 07:13:12","d60b49b5908c80e163b920d72b52d584","124.126.98.33","Mozilla/5.0 (Windows NT 10.0; Win64; x64; rv:106.0) Gecko/20100101 Firefox/106.0","","Firefox","106.0","Windows","10.0","null","<div style=""font-size:60px;"">+</div>","null",""
"","","","","","html-button-response","37","344385","0.0-4.0-1.16","38","1","2022-10-20 07:13:12","d60b49b5908c80e163b920d72b52d584","124.126.98.33","Mozilla/5.0 (Windows NT 10.0; Win64; x64; rv:106.0) Gecko/20100101 Firefox/106.0","","Firefox","106.0","Windows","10.0","1965","<p>作为军队的指挥官，你可以选择发射导弹杀死 <strong>1名</strong> 敌国士兵，但会炸毁附近的 <strong>1棵</strong> 敌国树木。</p> <p>树木的照片如下图所示。</p> <p></p> <img src='stimuli/trees/11.png', style='max-width: 30%;'> </img> <p><strong>你是否选择发射武器？</strong></p>","1",""
"","","","","","html-keyboard-response","38","345392","0.0-4.0-0.17","38","1","2022-10-20 07:13:12","d60b49b5908c80e163b920d72b52d584","124.126.98.33","Mozilla/5.0 (Windows NT 10.0; Win64; x64; rv:106.0) Gecko/20100101 Firefox/106.0","","Firefox","106.0","Windows","10.0","null","<div style=""font-size:60px;"">+</div>","null",""
"","","","","","html-button-response","39","349291","0.0-4.0-1.17","38","1","2022-10-20 07:13:12","d60b49b5908c80e163b920d72b52d584","124.126.98.33","Mozilla/5.0 (Windows NT 10.0; Win64; x64; rv:106.0) Gecko/20100101 Firefox/106.0","","Firefox","106.0","Windows","10.0","3899","<p>作为军队的指挥官，你可以选择发射导弹杀死 <strong>10名</strong> 敌国士兵，但会炸毁附近的 <strong>1棵</strong> 敌国树木。</p> <p>树木的照片如下图所示。</p> <p></p> <img src='stimuli/trees/1.png', style='max-width: 30%;'> </img> <p><strong>你是否选择发射武器？</strong></p>","0",""
"","","","","","html-keyboard-response","40","350296","0.0-4.0-0.18","38","1","2022-10-20 07:13:12","d60b49b5908c80e163b920d72b52d584","124.126.98.33","Mozilla/5.0 (Windows NT 10.0; Win64; x64; rv:106.0) Gecko/20100101 Firefox/106.0","","Firefox","106.0","Windows","10.0","null","<div style=""font-size:60px;"">+</div>","null",""
"","","","","","html-button-response","41","354467","0.0-4.0-1.18","38","1","2022-10-20 07:13:12","d60b49b5908c80e163b920d72b52d584","124.126.98.33","Mozilla/5.0 (Windows NT 10.0; Win64; x64; rv:106.0) Gecko/20100101 Firefox/106.0","","Firefox","106.0","Windows","10.0","4169","<p>作为军队的指挥官，你可以选择发射导弹杀死 <strong>9名</strong> 敌国士兵，但会炸毁附近的 <strong>1棵</strong> 敌国树木。</p> <p>树木的照片如下图所示。</p> <p></p> <img src='stimuli/trees/7.png', style='max-width: 30%;'> </img> <p><strong>你是否选择发射武器？</strong></p>","0",""
"","","","","","html-keyboard-response","42","355480","0.0-4.0-0.19","38","1","2022-10-20 07:13:12","d60b49b5908c80e163b920d72b52d584","124.126.98.33","Mozilla/5.0 (Windows NT 10.0; Win64; x64; rv:106.0) Gecko/20100101 Firefox/106.0","","Firefox","106.0","Windows","10.0","null","<div style=""font-size:60px;"">+</div>","null",""
"","","","","","html-button-response","43","357015","0.0-4.0-1.19","38","1","2022-10-20 07:13:12","d60b49b5908c80e163b920d72b52d584","124.126.98.33","Mozilla/5.0 (Windows NT 10.0; Win64; x64; rv:106.0) Gecko/20100101 Firefox/106.0","","Firefox","106.0","Windows","10.0","1532","<p>作为军队的指挥官，你可以选择发射导弹杀死 <strong>4名</strong> 敌国士兵，但会炸毁附近的 <strong>1棵</strong> 敌国树木。</p> <p>树木的照片如下图所示。</p> <p></p> <img src='stimuli/trees/12.png', style='max-width: 30%;'> </img> <p><strong>你是否选择发射武器？</strong></p>","1",""
"","","","","","html-keyboard-response","44","358019","0.0-4.0-0.20","38","1","2022-10-20 07:13:12","d60b49b5908c80e163b920d72b52d584","124.126.98.33","Mozilla/5.0 (Windows NT 10.0; Win64; x64; rv:106.0) Gecko/20100101 Firefox/106.0","","Firefox","106.0","Windows","10.0","null","<div style=""font-size:60px;"">+</div>","null",""
"","","","","","html-button-response","45","359067","0.0-4.0-1.20","38","1","2022-10-20 07:13:12","d60b49b5908c80e163b920d72b52d584","124.126.98.33","Mozilla/5.0 (Windows NT 10.0; Win64; x64; rv:106.0) Gecko/20100101 Firefox/106.0","","Firefox","106.0","Windows","10.0","1047","<p>作为军队的指挥官，你可以选择发射导弹杀死 <strong>4名</strong> 敌国士兵，但会炸毁附近的 <strong>1棵</strong> 敌国树木。</p> <p>树木的照片如下图所示。</p> <p></p> <img src='stimuli/trees/3.png', style='max-width: 30%;'> </img> <p><strong>你是否选择发射武器？</strong></p>","1",""
"","","","","","html-keyboard-response","46","360069","0.0-4.0-0.21","38","1","2022-10-20 07:13:12","d60b49b5908c80e163b920d72b52d584","124.126.98.33","Mozilla/5.0 (Windows NT 10.0; Win64; x64; rv:106.0) Gecko/20100101 Firefox/106.0","","Firefox","106.0","Windows","10.0","null","<div style=""font-size:60px;"">+</div>","null",""
"","","","","","html-button-response","47","363279","0.0-4.0-1.21","38","1","2022-10-20 07:13:12","d60b49b5908c80e163b920d72b52d584","124.126.98.33","Mozilla/5.0 (Windows NT 10.0; Win64; x64; rv:106.0) Gecko/20100101 Firefox/106.0","","Firefox","106.0","Windows","10.0","3209","<p>作为军队的指挥官，你可以选择发射导弹杀死 <strong>7名</strong> 敌国士兵，但会误杀附近的 <strong>1名</strong> 敌国平民。</p> <p>平民照片如下图所示。</p> <p></p> <img src='stimuli/faces/NCF4.jpg', style='max-width: 30%;'> </img> <p><strong>你是否选择发射武器？</strong></p>","1",""
"","","","","","html-keyboard-response","48","364293","0.0-4.0-0.22","38","1","2022-10-20 07:13:12","d60b49b5908c80e163b920d72b52d584","124.126.98.33","Mozilla/5.0 (Windows NT 10.0; Win64; x64; rv:106.0) Gecko/20100101 Firefox/106.0","","Firefox","106.0","Windows","10.0","null","<div style=""font-size:60px;"">+</div>","null",""
"","","","","","html-button-response","49","370153","0.0-4.0-1.22","38","1","2022-10-20 07:13:12","d60b49b5908c80e163b920d72b52d584","124.126.98.33","Mozilla/5.0 (Windows NT 10.0; Win64; x64; rv:106.0) Gecko/20100101 Firefox/106.0","","Firefox","106.0","Windows","10.0","5860","<p>作为军队的指挥官，你可以选择发射导弹杀死 <strong>6名</strong> 敌国士兵，但会炸毁附近的 <strong>1棵</strong> 敌国树木。</p> <p>树木的照片如下图所示。</p> <p></p> <img src='stimuli/trees/2.png', style='max-width: 30%;'> </img> <p><strong>你是否选择发射武器？</strong></p>","1",""
"","","","","","html-keyboard-response","50","371155","0.0-4.0-0.23","38","1","2022-10-20 07:13:12","d60b49b5908c80e163b920d72b52d584","124.126.98.33","Mozilla/5.0 (Windows NT 10.0; Win64; x64; rv:106.0) Gecko/20100101 Firefox/106.0","","Firefox","106.0","Windows","10.0","null","<div style=""font-size:60px;"">+</div>","null",""
"","","","","","html-button-response","51","373031","0.0-4.0-1.23","38","1","2022-10-20 07:13:12","d60b49b5908c80e163b920d72b52d584","124.126.98.33","Mozilla/5.0 (Windows NT 10.0; Win64; x64; rv:106.0) Gecko/20100101 Firefox/106.0","","Firefox","106.0","Windows","10.0","1874","<p>作为军队的指挥官，你可以选择发射导弹杀死 <strong>6名</strong> 敌国士兵，但会炸毁附近的 <strong>1棵</strong> 敌国树木。</p> <p>树木的照片如下图所示。</p> <p></p> <img src='stimuli/trees/15.png', style='max-width: 30%;'> </img> <p><strong>你是否选择发射武器？</strong></p>","0",""
"","","","","","html-keyboard-response","52","374040","0.0-4.0-0.24","38","1","2022-10-20 07:13:12","d60b49b5908c80e163b920d72b52d584","124.126.98.33","Mozilla/5.0 (Windows NT 10.0; Win64; x64; rv:106.0) Gecko/20100101 Firefox/106.0","","Firefox","106.0","Windows","10.0","null","<div style=""font-size:60px;"">+</div>","null",""
"","","","","","html-button-response","53","375253","0.0-4.0-1.24","38","1","2022-10-20 07:13:12","d60b49b5908c80e163b920d72b52d584","124.126.98.33","Mozilla/5.0 (Windows NT 10.0; Win64; x64; rv:106.0) Gecko/20100101 Firefox/106.0","","Firefox","106.0","Windows","10.0","1211","<p>作为军队的指挥官，你可以选择发射导弹杀死 <strong>10名</strong> 敌国士兵，但会误杀附近的 <strong>1名</strong> 敌国平民。</p> <p>平民照片如下图所示。</p> <p></p> <img src='stimuli/faces/NCM3.jpg', style='max-width: 30%;'> </img> <p><strong>你是否选择发射武器？</strong></p>","0",""
"","","","","","html-keyboard-response","54","376263","0.0-4.0-0.25","38","1","2022-10-20 07:13:12","d60b49b5908c80e163b920d72b52d584","124.126.98.33","Mozilla/5.0 (Windows NT 10.0; Win64; x64; rv:106.0) Gecko/20100101 Firefox/106.0","","Firefox","106.0","Windows","10.0","null","<div style=""font-size:60px;"">+</div>","null",""
"","","","","","html-button-response","55","380530","0.0-4.0-1.25","38","1","2022-10-20 07:13:12","d60b49b5908c80e163b920d72b52d584","124.126.98.33","Mozilla/5.0 (Windows NT 10.0; Win64; x64; rv:106.0) Gecko/20100101 Firefox/106.0","","Firefox","106.0","Windows","10.0","4265","<p>作为军队的指挥官，你可以选择发射导弹杀死 <strong>9名</strong> 敌国士兵，但会炸毁附近的 <strong>1棵</strong> 敌国树木。</p> <p>树木的照片如下图所示。</p> <p></p> <img src='stimuli/trees/8.png', style='max-width: 30%;'> </img> <p><strong>你是否选择发射武器？</strong></p>","0",""
"","","","","","html-keyboard-response","56","381535","0.0-4.0-0.26","38","1","2022-10-20 07:13:12","d60b49b5908c80e163b920d72b52d584","124.126.98.33","Mozilla/5.0 (Windows NT 10.0; Win64; x64; rv:106.0) Gecko/20100101 Firefox/106.0","","Firefox","106.0","Windows","10.0","null","<div style=""font-size:60px;"">+</div>","null",""
"","","","","","html-button-response","57","382793","0.0-4.0-1.26","38","1","2022-10-20 07:13:12","d60b49b5908c80e163b920d72b52d584","124.126.98.33","Mozilla/5.0 (Windows NT 10.0; Win64; x64; rv:106.0) Gecko/20100101 Firefox/106.0","","Firefox","106.0","Windows","10.0","1256","<p>作为军队的指挥官，你可以选择发射导弹杀死 <strong>1名</strong> 敌国士兵，但会炸毁附近的 <strong>1棵</strong> 敌国树木。</p> <p>树木的照片如下图所示。</p> <p></p> <img src='stimuli/trees/15.png', style='max-width: 30%;'> </img> <p><strong>你是否选择发射武器？</strong></p>","1",""
"","","","","","html-keyboard-response","58","383808","0.0-4.0-0.27","38","1","2022-10-20 07:13:12","d60b49b5908c80e163b920d72b52d584","124.126.98.33","Mozilla/5.0 (Windows NT 10.0; Win64; x64; rv:106.0) Gecko/20100101 Firefox/106.0","","Firefox","106.0","Windows","10.0","null","<div style=""font-size:60px;"">+</div>","null",""
"","","","","","html-button-response","59","385263","0.0-4.0-1.27","38","1","2022-10-20 07:13:12","d60b49b5908c80e163b920d72b52d584","124.126.98.33","Mozilla/5.0 (Windows NT 10.0; Win64; x64; rv:106.0) Gecko/20100101 Firefox/106.0","","Firefox","106.0","Windows","10.0","1454","<p>作为军队的指挥官，你可以选择发射导弹杀死 <strong>10名</strong> 敌国士兵，但会炸毁附近的 <strong>1棵</strong> 敌国树木。</p> <p>树木的照片如下图所示。</p> <p></p> <img src='stimuli/trees/11.png', style='max-width: 30%;'> </img> <p><strong>你是否选择发射武器？</strong></p>","0",""
"","","","","","html-keyboard-response","60","386271","0.0-4.0-0.28","38","1","2022-10-20 07:13:12","d60b49b5908c80e163b920d72b52d584","124.126.98.33","Mozilla/5.0 (Windows NT 10.0; Win64; x64; rv:106.0) Gecko/20100101 Firefox/106.0","","Firefox","106.0","Windows","10.0","null","<div style=""font-size:60px;"">+</div>","null",""
"","","","","","html-button-response","61","388440","0.0-4.0-1.28","38","1","2022-10-20 07:13:12","d60b49b5908c80e163b920d72b52d584","124.126.98.33","Mozilla/5.0 (Windows NT 10.0; Win64; x64; rv:106.0) Gecko/20100101 Firefox/106.0","","Firefox","106.0","Windows","10.0","2168","<p>作为军队的指挥官，你可以选择发射导弹杀死 <strong>2名</strong> 敌国士兵，但会误杀附近的 <strong>1名</strong> 敌国平民。</p> <p>平民照片如下图所示。</p> <p></p> <img src='stimuli/faces/NCF8.jpg', style='max-width: 30%;'> </img> <p><strong>你是否选择发射武器？</strong></p>","1",""
"","","","","","html-keyboard-response","62","389449","0.0-4.0-0.29","38","1","2022-10-20 07:13:12","d60b49b5908c80e163b920d72b52d584","124.126.98.33","Mozilla/5.0 (Windows NT 10.0; Win64; x64; rv:106.0) Gecko/20100101 Firefox/106.0","","Firefox","106.0","Windows","10.0","null","<div style=""font-size:60px;"">+</div>","null",""
"","","","","","html-button-response","63","393490","0.0-4.0-1.29","38","1","2022-10-20 07:13:12","d60b49b5908c80e163b920d72b52d584","124.126.98.33","Mozilla/5.0 (Windows NT 10.0; Win64; x64; rv:106.0) Gecko/20100101 Firefox/106.0","","Firefox","106.0","Windows","10.0","4041","<p>作为军队的指挥官，你可以选择发射导弹杀死 <strong>5名</strong> 敌国士兵，但会炸毁附近的 <strong>1棵</strong> 敌国树木。</p> <p>树木的照片如下图所示。</p> <p></p> <img src='stimuli/trees/7.png', style='max-width: 30%;'> </img> <p><strong>你是否选择发射武器？</strong></p>","1",""
"","","","","","html-keyboard-response","64","394501","0.0-4.0-0.30","38","1","2022-10-20 07:13:12","d60b49b5908c80e163b920d72b52d584","124.126.98.33","Mozilla/5.0 (Windows NT 10.0; Win64; x64; rv:106.0) Gecko/20100101 Firefox/106.0","","Firefox","106.0","Windows","10.0","null","<div style=""font-size:60px;"">+</div>","null",""
"","","","","","html-button-response","65","395709","0.0-4.0-1.30","38","1","2022-10-20 07:13:12","d60b49b5908c80e163b920d72b52d584","124.126.98.33","Mozilla/5.0 (Windows NT 10.0; Win64; x64; rv:106.0) Gecko/20100101 Firefox/106.0","","Firefox","106.0","Windows","10.0","1207","<p>作为军队的指挥官，你可以选择发射导弹杀死 <strong>2名</strong> 敌国士兵，但会炸毁附近的 <strong>1棵</strong> 敌国树木。</p> <p>树木的照片如下图所示。</p> <p></p> <img src='stimuli/trees/8.png', style='max-width: 30%;'> </img> <p><strong>你是否选择发射武器？</strong></p>","1",""
"","","","","","html-keyboard-response","66","396724","0.0-4.0-0.31","38","1","2022-10-20 07:13:12","d60b49b5908c80e163b920d72b52d584","124.126.98.33","Mozilla/5.0 (Windows NT 10.0; Win64; x64; rv:106.0) Gecko/20100101 Firefox/106.0","","Firefox","106.0","Windows","10.0","null","<div style=""font-size:60px;"">+</div>","null",""
"","","","","","html-button-response","67","398694","0.0-4.0-1.31","38","1","2022-10-20 07:13:12","d60b49b5908c80e163b920d72b52d584","124.126.98.33","Mozilla/5.0 (Windows NT 10.0; Win64; x64; rv:106.0) Gecko/20100101 Firefox/106.0","","Firefox","106.0","Windows","10.0","1968","<p>作为军队的指挥官，你可以选择发射导弹杀死 <strong>1名</strong> 敌国士兵，但会误杀附近的 <strong>1名</strong> 敌国平民。</p> <p>平民照片如下图所示。</p> <p></p> <img src='stimuli/faces/NCM4.jpg', style='max-width: 30%;'> </img> <p><strong>你是否选择发射武器？</strong></p>","1",""
"","","","","","html-keyboard-response","68","399699","0.0-4.0-0.32","38","1","2022-10-20 07:13:12","d60b49b5908c80e163b920d72b52d584","124.126.98.33","Mozilla/5.0 (Windows NT 10.0; Win64; x64; rv:106.0) Gecko/20100101 Firefox/106.0","","Firefox","106.0","Windows","10.0","null","<div style=""font-size:60px;"">+</div>","null",""
"","","","","","html-button-response","69","401285","0.0-4.0-1.32","38","1","2022-10-20 07:13:12","d60b49b5908c80e163b920d72b52d584","124.126.98.33","Mozilla/5.0 (Windows NT 10.0; Win64; x64; rv:106.0) Gecko/20100101 Firefox/106.0","","Firefox","106.0","Windows","10.0","1585","<p>作为军队的指挥官，你可以选择发射导弹杀死 <strong>6名</strong> 敌国士兵，但会炸毁附近的 <strong>1棵</strong> 敌国树木。</p> <p>树木的照片如下图所示。</p> <p></p> <img src='stimuli/trees/4.png', style='max-width: 30%;'> </img> <p><strong>你是否选择发射武器？</strong></p>","0",""
"","","","","","html-keyboard-response","70","402298","0.0-4.0-0.33","38","1","2022-10-20 07:13:12","d60b49b5908c80e163b920d72b52d584","124.126.98.33","Mozilla/5.0 (Windows NT 10.0; Win64; x64; rv:106.0) Gecko/20100101 Firefox/106.0","","Firefox","106.0","Windows","10.0","null","<div style=""font-size:60px;"">+</div>","null",""
"","","","","","html-button-response","71","405138","0.0-4.0-1.33","38","1","2022-10-20 07:13:12","d60b49b5908c80e163b920d72b52d584","124.126.98.33","Mozilla/5.0 (Windows NT 10.0; Win64; x64; rv:106.0) Gecko/20100101 Firefox/106.0","","Firefox","106.0","Windows","10.0","2840","<p>作为军队的指挥官，你可以选择发射导弹杀死 <strong>3名</strong> 敌国士兵，但会误杀附近的 <strong>1名</strong> 敌国平民。</p> <p>平民照片如下图所示。</p> <p></p> <img src='stimuli/faces/NCF1.jpg', style='max-width: 30%;'> </img> <p><strong>你是否选择发射武器？</strong></p>","1",""
"","","","","","html-keyboard-response","72","406145","0.0-4.0-0.34","38","1","2022-10-20 07:13:12","d60b49b5908c80e163b920d72b52d584","124.126.98.33","Mozilla/5.0 (Windows NT 10.0; Win64; x64; rv:106.0) Gecko/20100101 Firefox/106.0","","Firefox","106.0","Windows","10.0","null","<div style=""font-size:60px;"">+</div>","null",""
"","","","","","html-button-response","73","407662","0.0-4.0-1.34","38","1","2022-10-20 07:13:12","d60b49b5908c80e163b920d72b52d584","124.126.98.33","Mozilla/5.0 (Windows NT 10.0; Win64; x64; rv:106.0) Gecko/20100101 Firefox/106.0","","Firefox","106.0","Windows","10.0","1516","<p>作为军队的指挥官，你可以选择发射导弹杀死 <strong>10名</strong> 敌国士兵，但会误杀附近的 <strong>1名</strong> 敌国平民。</p> <p>平民照片如下图所示。</p> <p></p> <img src='stimuli/faces/NCM7.jpg', style='max-width: 30%;'> </img> <p><strong>你是否选择发射武器？</strong></p>","0",""
"","","","","","html-keyboard-response","74","408667","0.0-4.0-0.35","38","1","2022-10-20 07:13:12","d60b49b5908c80e163b920d72b52d584","124.126.98.33","Mozilla/5.0 (Windows NT 10.0; Win64; x64; rv:106.0) Gecko/20100101 Firefox/106.0","","Firefox","106.0","Windows","10.0","null","<div style=""font-size:60px;"">+</div>","null",""
"","","","","","html-button-response","75","414007","0.0-4.0-1.35","38","1","2022-10-20 07:13:12","d60b49b5908c80e163b920d72b52d584","124.126.98.33","Mozilla/5.0 (Windows NT 10.0; Win64; x64; rv:106.0) Gecko/20100101 Firefox/106.0","","Firefox","106.0","Windows","10.0","5338","<p>作为军队的指挥官，你可以选择发射导弹杀死 <strong>2名</strong> 敌国士兵，但会误杀附近的 <strong>1名</strong> 敌国平民。</p> <p>平民照片如下图所示。</p> <p></p> <img src='stimuli/faces/NCM8.jpg', style='max-width: 30%;'> </img> <p><strong>你是否选择发射武器？</strong></p>","1",""
"","","","","","html-keyboard-response","76","415012","0.0-4.0-0.36","38","1","2022-10-20 07:13:12","d60b49b5908c80e163b920d72b52d584","124.126.98.33","Mozilla/5.0 (Windows NT 10.0; Win64; x64; rv:106.0) Gecko/20100101 Firefox/106.0","","Firefox","106.0","Windows","10.0","null","<div style=""font-size:60px;"">+</div>","null",""
"","","","","","html-button-response","77","416304","0.0-4.0-1.36","38","1","2022-10-20 07:13:12","d60b49b5908c80e163b920d72b52d584","124.126.98.33","Mozilla/5.0 (Windows NT 10.0; Win64; x64; rv:106.0) Gecko/20100101 Firefox/106.0","","Firefox","106.0","Windows","10.0","1292","<p>作为军队的指挥官，你可以选择发射导弹杀死 <strong>9名</strong> 敌国士兵，但会炸毁附近的 <strong>1棵</strong> 敌国树木。</p> <p>树木的照片如下图所示。</p> <p></p> <img src='stimuli/trees/10.png', style='max-width: 30%;'> </img> <p><strong>你是否选择发射武器？</strong></p>","0",""
"","","","","","html-keyboard-response","78","417320","0.0-4.0-0.37","38","1","2022-10-20 07:13:12","d60b49b5908c80e163b920d72b52d584","124.126.98.33","Mozilla/5.0 (Windows NT 10.0; Win64; x64; rv:106.0) Gecko/20100101 Firefox/106.0","","Firefox","106.0","Windows","10.0","null","<div style=""font-size:60px;"">+</div>","null",""
"","","","","","html-button-response","79","418915","0.0-4.0-1.37","38","1","2022-10-20 07:13:12","d60b49b5908c80e163b920d72b52d584","124.126.98.33","Mozilla/5.0 (Windows NT 10.0; Win64; x64; rv:106.0) Gecko/20100101 Firefox/106.0","","Firefox","106.0","Windows","10.0","1593","<p>作为军队的指挥官，你可以选择发射导弹杀死 <strong>6名</strong> 敌国士兵，但会炸毁附近的 <strong>1棵</strong> 敌国树木。</p> <p>树木的照片如下图所示。</p> <p></p> <img src='stimuli/trees/13.png', style='max-width: 30%;'> </img> <p><strong>你是否选择发射武器？</strong></p>","0",""
"","","","","","html-keyboard-response","80","419918","0.0-4.0-0.38","38","1","2022-10-20 07:13:12","d60b49b5908c80e163b920d72b52d584","124.126.98.33","Mozilla/5.0 (Windows NT 10.0; Win64; x64; rv:106.0) Gecko/20100101 Firefox/106.0","","Firefox","106.0","Windows","10.0","null","<div style=""font-size:60px;"">+</div>","null",""
"","","","","","html-button-response","81","420898","0.0-4.0-1.38","38","1","2022-10-20 07:13:12","d60b49b5908c80e163b920d72b52d584","124.126.98.33","Mozilla/5.0 (Windows NT 10.0; Win64; x64; rv:106.0) Gecko/20100101 Firefox/106.0","","Firefox","106.0","Windows","10.0","979","<p>作为军队的指挥官，你可以选择发射导弹杀死 <strong>6名</strong> 敌国士兵，但会误杀附近的 <strong>1名</strong> 敌国平民。</p> <p>平民照片如下图所示。</p> <p></p> <img src='stimuli/faces/NCM2.jpg', style='max-width: 30%;'> </img> <p><strong>你是否选择发射武器？</strong></p>","0",""
"","","","","","html-keyboard-response","82","421903","0.0-4.0-0.39","38","1","2022-10-20 07:13:12","d60b49b5908c80e163b920d72b52d584","124.126.98.33","Mozilla/5.0 (Windows NT 10.0; Win64; x64; rv:106.0) Gecko/20100101 Firefox/106.0","","Firefox","106.0","Windows","10.0","null","<div style=""font-size:60px;"">+</div>","null",""
"","","","","","html-button-response","83","423455","0.0-4.0-1.39","38","1","2022-10-20 07:13:12","d60b49b5908c80e163b920d72b52d584","124.126.98.33","Mozilla/5.0 (Windows NT 10.0; Win64; x64; rv:106.0) Gecko/20100101 Firefox/106.0","","Firefox","106.0","Windows","10.0","1551","<p>作为军队的指挥官，你可以选择发射导弹杀死 <strong>1名</strong> 敌国士兵，但会炸毁附近的 <strong>1棵</strong> 敌国树木。</p> <p>树木的照片如下图所示。</p> <p></p> <img src='stimuli/trees/2.png', style='max-width: 30%;'> </img> <p><strong>你是否选择发射武器？</strong></p>","1",""
"","","","","","html-keyboard-response","84","424465","0.0-4.0-0.40","38","1","2022-10-20 07:13:12","d60b49b5908c80e163b920d72b52d584","124.126.98.33","Mozilla/5.0 (Windows NT 10.0; Win64; x64; rv:106.0) Gecko/20100101 Firefox/106.0","","Firefox","106.0","Windows","10.0","null","<div style=""font-size:60px;"">+</div>","null",""
"","","","","","html-button-response","85","426434","0.0-4.0-1.40","38","1","2022-10-20 07:13:12","d60b49b5908c80e163b920d72b52d584","124.126.98.33","Mozilla/5.0 (Windows NT 10.0; Win64; x64; rv:106.0) Gecko/20100101 Firefox/106.0","","Firefox","106.0","Windows","10.0","1969","<p>作为军队的指挥官，你可以选择发射导弹杀死 <strong>1名</strong> 敌国士兵，但会炸毁附近的 <strong>1棵</strong> 敌国树木。</p> <p>树木的照片如下图所示。</p> <p></p> <img src='stimuli/trees/4.png', style='max-width: 30%;'> </img> <p><strong>你是否选择发射武器？</strong></p>","0",""
"","","","","","html-keyboard-response","86","427438","0.0-4.0-0.41","38","1","2022-10-20 07:13:12","d60b49b5908c80e163b920d72b52d584","124.126.98.33","Mozilla/5.0 (Windows NT 10.0; Win64; x64; rv:106.0) Gecko/20100101 Firefox/106.0","","Firefox","106.0","Windows","10.0","null","<div style=""font-size:60px;"">+</div>","null",""
"","","","","","html-button-response","87","428902","0.0-4.0-1.41","38","1","2022-10-20 07:13:12","d60b49b5908c80e163b920d72b52d584","124.126.98.33","Mozilla/5.0 (Windows NT 10.0; Win64; x64; rv:106.0) Gecko/20100101 Firefox/106.0","","Firefox","106.0","Windows","10.0","1463","<p>作为军队的指挥官，你可以选择发射导弹杀死 <strong>1名</strong> 敌国士兵，但会误杀附近的 <strong>1名</strong> 敌国平民。</p> <p>平民照片如下图所示。</p> <p></p> <img src='stimuli/faces/NCM1.jpg', style='max-width: 30%;'> </img> <p><strong>你是否选择发射武器？</strong></p>","1",""
"","","","","","html-keyboard-response","88","429908","0.0-4.0-0.42","38","1","2022-10-20 07:13:12","d60b49b5908c80e163b920d72b52d584","124.126.98.33","Mozilla/5.0 (Windows NT 10.0; Win64; x64; rv:106.0) Gecko/20100101 Firefox/106.0","","Firefox","106.0","Windows","10.0","null","<div style=""font-size:60px;"">+</div>","null",""
"","","","","","html-button-response","89","432144","0.0-4.0-1.42","38","1","2022-10-20 07:13:12","d60b49b5908c80e163b920d72b52d584","124.126.98.33","Mozilla/5.0 (Windows NT 10.0; Win64; x64; rv:106.0) Gecko/20100101 Firefox/106.0","","Firefox","106.0","Windows","10.0","2235","<p>作为军队的指挥官，你可以选择发射导弹杀死 <strong>6名</strong> 敌国士兵，但会误杀附近的 <strong>1名</strong> 敌国平民。</p> <p>平民照片如下图所示。</p> <p></p> <img src='stimuli/faces/NCF7.jpg', style='max-width: 30%;'> </img> <p><strong>你是否选择发射武器？</strong></p>","0",""
"","","","","","html-keyboard-response","90","433149","0.0-4.0-0.43","38","1","2022-10-20 07:13:12","d60b49b5908c80e163b920d72b52d584","124.126.98.33","Mozilla/5.0 (Windows NT 10.0; Win64; x64; rv:106.0) Gecko/20100101 Firefox/106.0","","Firefox","106.0","Windows","10.0","null","<div style=""font-size:60px;"">+</div>","null",""
"","","","","","html-button-response","91","435381","0.0-4.0-1.43","38","1","2022-10-20 07:13:12","d60b49b5908c80e163b920d72b52d584","124.126.98.33","Mozilla/5.0 (Windows NT 10.0; Win64; x64; rv:106.0) Gecko/20100101 Firefox/106.0","","Firefox","106.0","Windows","10.0","2229","<p>作为军队的指挥官，你可以选择发射导弹杀死 <strong>7名</strong> 敌国士兵，但会误杀附近的 <strong>1名</strong> 敌国平民。</p> <p>平民照片如下图所示。</p> <p></p> <img src='stimuli/faces/NCM6.jpg', style='max-width: 30%;'> </img> <p><strong>你是否选择发射武器？</strong></p>","0",""
"","","","","","html-keyboard-response","92","436383","0.0-4.0-0.44","38","1","2022-10-20 07:13:12","d60b49b5908c80e163b920d72b52d584","124.126.98.33","Mozilla/5.0 (Windows NT 10.0; Win64; x64; rv:106.0) Gecko/20100101 Firefox/106.0","","Firefox","106.0","Windows","10.0","null","<div style=""font-size:60px;"">+</div>","null",""
"","","","","","html-button-response","93","439548","0.0-4.0-1.44","38","1","2022-10-20 07:13:12","d60b49b5908c80e163b920d72b52d584","124.126.98.33","Mozilla/5.0 (Windows NT 10.0; Win64; x64; rv:106.0) Gecko/20100101 Firefox/106.0","","Firefox","106.0","Windows","10.0","3163","<p>作为军队的指挥官，你可以选择发射导弹杀死 <strong>10名</strong> 敌国士兵，但会炸毁附近的 <strong>1棵</strong> 敌国树木。</p> <p>树木的照片如下图所示。</p> <p></p> <img src='stimuli/trees/16.png', style='max-width: 30%;'> </img> <p><strong>你是否选择发射武器？</strong></p>","1",""
"","","","","","html-keyboard-response","94","440557","0.0-4.0-0.45","38","1","2022-10-20 07:13:12","d60b49b5908c80e163b920d72b52d584","124.126.98.33","Mozilla/5.0 (Windows NT 10.0; Win64; x64; rv:106.0) Gecko/20100101 Firefox/106.0","","Firefox","106.0","Windows","10.0","null","<div style=""font-size:60px;"">+</div>","null",""
"","","","","","html-button-response","95","442631","0.0-4.0-1.45","38","1","2022-10-20 07:13:12","d60b49b5908c80e163b920d72b52d584","124.126.98.33","Mozilla/5.0 (Windows NT 10.0; Win64; x64; rv:106.0) Gecko/20100101 Firefox/106.0","","Firefox","106.0","Windows","10.0","2072","<p>作为军队的指挥官，你可以选择发射导弹杀死 <strong>3名</strong> 敌国士兵，但会炸毁附近的 <strong>1棵</strong> 敌国树木。</p> <p>树木的照片如下图所示。</p> <p></p> <img src='stimuli/trees/10.png', style='max-width: 30%;'> </img> <p><strong>你是否选择发射武器？</strong></p>","0",""
"","","","","","html-keyboard-response","96","443633","0.0-4.0-0.46","38","1","2022-10-20 07:13:12","d60b49b5908c80e163b920d72b52d584","124.126.98.33","Mozilla/5.0 (Windows NT 10.0; Win64; x64; rv:106.0) Gecko/20100101 Firefox/106.0","","Firefox","106.0","Windows","10.0","null","<div style=""font-size:60px;"">+</div>","null",""
"","","","","","html-button-response","97","446719","0.0-4.0-1.46","38","1","2022-10-20 07:13:12","d60b49b5908c80e163b920d72b52d584","124.126.98.33","Mozilla/5.0 (Windows NT 10.0; Win64; x64; rv:106.0) Gecko/20100101 Firefox/106.0","","Firefox","106.0","Windows","10.0","3084","<p>作为军队的指挥官，你可以选择发射导弹杀死 <strong>2名</strong> 敌国士兵，但会误杀附近的 <strong>1名</strong> 敌国平民。</p> <p>平民照片如下图所示。</p> <p></p> <img src='stimuli/faces/NCM7.jpg', style='max-width: 30%;'> </img> <p><strong>你是否选择发射武器？</strong></p>","1",""
"","","","","","html-keyboard-response","98","447730","0.0-4.0-0.47","38","1","2022-10-20 07:13:12","d60b49b5908c80e163b920d72b52d584","124.126.98.33","Mozilla/5.0 (Windows NT 10.0; Win64; x64; rv:106.0) Gecko/20100101 Firefox/106.0","","Firefox","106.0","Windows","10.0","null","<div style=""font-size:60px;"">+</div>","null",""
"","","","","","html-button-response","99","448832","0.0-4.0-1.47","38","1","2022-10-20 07:13:12","d60b49b5908c80e163b920d72b52d584","124.126.98.33","Mozilla/5.0 (Windows NT 10.0; Win64; x64; rv:106.0) Gecko/20100101 Firefox/106.0","","Firefox","106.0","Windows","10.0","1100","<p>作为军队的指挥官，你可以选择发射导弹杀死 <strong>10名</strong> 敌国士兵，但会炸毁附近的 <strong>1棵</strong> 敌国树木。</p> <p>树木的照片如下图所示。</p> <p></p> <img src='stimuli/trees/6.png', style='max-width: 30%;'> </img> <p><strong>你是否选择发射武器？</strong></p>","0",""
"","","","","","html-keyboard-response","100","449849","0.0-4.0-0.48","38","1","2022-10-20 07:13:12","d60b49b5908c80e163b920d72b52d584","124.126.98.33","Mozilla/5.0 (Windows NT 10.0; Win64; x64; rv:106.0) Gecko/20100101 Firefox/106.0","","Firefox","106.0","Windows","10.0","null","<div style=""font-size:60px;"">+</div>","null",""
"","","","","","html-button-response","101","451387","0.0-4.0-1.48","38","1","2022-10-20 07:13:12","d60b49b5908c80e163b920d72b52d584","124.126.98.33","Mozilla/5.0 (Windows NT 10.0; Win64; x64; rv:106.0) Gecko/20100101 Firefox/106.0","","Firefox","106.0","Windows","10.0","1536","<p>作为军队的指挥官，你可以选择发射导弹杀死 <strong>1名</strong> 敌国士兵，但会误杀附近的 <strong>1名</strong> 敌国平民。</p> <p>平民照片如下图所示。</p> <p></p> <img src='stimuli/faces/NCF6.jpg', style='max-width: 30%;'> </img> <p><strong>你是否选择发射武器？</strong></p>","1",""
"","","","","","html-keyboard-response","102","452391","0.0-4.0-0.49","38","1","2022-10-20 07:13:12","d60b49b5908c80e163b920d72b52d584","124.126.98.33","Mozilla/5.0 (Windows NT 10.0; Win64; x64; rv:106.0) Gecko/20100101 Firefox/106.0","","Firefox","106.0","Windows","10.0","null","<div style=""font-size:60px;"">+</div>","null",""
"","","","","","html-button-response","103","453722","0.0-4.0-1.49","38","1","2022-10-20 07:13:12","d60b49b5908c80e163b920d72b52d584","124.126.98.33","Mozilla/5.0 (Windows NT 10.0; Win64; x64; rv:106.0) Gecko/20100101 Firefox/106.0","","Firefox","106.0","Windows","10.0","1330","<p>作为军队的指挥官，你可以选择发射导弹杀死 <strong>1名</strong> 敌国士兵，但会误杀附近的 <strong>1名</strong> 敌国平民。</p> <p>平民照片如下图所示。</p> <p></p> <img src='stimuli/faces/NCM5.jpg', style='max-width: 30%;'> </img> <p><strong>你是否选择发射武器？</strong></p>","1",""
"","","","","","html-keyboard-response","104","454725","0.0-4.0-0.50","38","1","2022-10-20 07:13:12","d60b49b5908c80e163b920d72b52d584","124.126.98.33","Mozilla/5.0 (Windows NT 10.0; Win64; x64; rv:106.0) Gecko/20100101 Firefox/106.0","","Firefox","106.0","Windows","10.0","null","<div style=""font-size:60px;"">+</div>","null",""
"","","","","","html-button-response","105","456381","0.0-4.0-1.50","38","1","2022-10-20 07:13:12","d60b49b5908c80e163b920d72b52d584","124.126.98.33","Mozilla/5.0 (Windows NT 10.0; Win64; x64; rv:106.0) Gecko/20100101 Firefox/106.0","","Firefox","106.0","Windows","10.0","1654","<p>作为军队的指挥官，你可以选择发射导弹杀死 <strong>6名</strong> 敌国士兵，但会误杀附近的 <strong>1名</strong> 敌国平民。</p> <p>平民照片如下图所示。</p> <p></p> <img src='stimuli/faces/NCF1.jpg', style='max-width: 30%;'> </img> <p><strong>你是否选择发射武器？</strong></p>","0",""
"","","","","","html-keyboard-response","106","457393","0.0-4.0-0.51","38","1","2022-10-20 07:13:12","d60b49b5908c80e163b920d72b52d584","124.126.98.33","Mozilla/5.0 (Windows NT 10.0; Win64; x64; rv:106.0) Gecko/20100101 Firefox/106.0","","Firefox","106.0","Windows","10.0","null","<div style=""font-size:60px;"">+</div>","null",""
"","","","","","html-button-response","107","460113","0.0-4.0-1.51","38","1","2022-10-20 07:13:12","d60b49b5908c80e163b920d72b52d584","124.126.98.33","Mozilla/5.0 (Windows NT 10.0; Win64; x64; rv:106.0) Gecko/20100101 Firefox/106.0","","Firefox","106.0","Windows","10.0","2717","<p>作为军队的指挥官，你可以选择发射导弹杀死 <strong>6名</strong> 敌国士兵，但会误杀附近的 <strong>1名</strong> 敌国平民。</p> <p>平民照片如下图所示。</p> <p></p> <img src='stimuli/faces/NCM8.jpg', style='max-width: 30%;'> </img> <p><strong>你是否选择发射武器？</strong></p>","0",""
"","","","","","html-keyboard-response","108","461122","0.0-4.0-0.52","38","1","2022-10-20 07:13:12","d60b49b5908c80e163b920d72b52d584","124.126.98.33","Mozilla/5.0 (Windows NT 10.0; Win64; x64; rv:106.0) Gecko/20100101 Firefox/106.0","","Firefox","106.0","Windows","10.0","null","<div style=""font-size:60px;"">+</div>","null",""
"","","","","","html-button-response","109","463364","0.0-4.0-1.52","38","1","2022-10-20 07:13:12","d60b49b5908c80e163b920d72b52d584","124.126.98.33","Mozilla/5.0 (Windows NT 10.0; Win64; x64; rv:106.0) Gecko/20100101 Firefox/106.0","","Firefox","106.0","Windows","10.0","2240","<p>作为军队的指挥官，你可以选择发射导弹杀死 <strong>1名</strong> 敌国士兵，但会误杀附近的 <strong>1名</strong> 敌国平民。</p> <p>平民照片如下图所示。</p> <p></p> <img src='stimuli/faces/NCF2.jpg', style='max-width: 30%;'> </img> <p><strong>你是否选择发射武器？</strong></p>","1",""
"","","","","","html-keyboard-response","110","464380","0.0-4.0-0.53","38","1","2022-10-20 07:13:12","d60b49b5908c80e163b920d72b52d584","124.126.98.33","Mozilla/5.0 (Windows NT 10.0; Win64; x64; rv:106.0) Gecko/20100101 Firefox/106.0","","Firefox","106.0","Windows","10.0","null","<div style=""font-size:60px;"">+</div>","null",""
"","","","","","html-button-response","111","468189","0.0-4.0-1.53","38","1","2022-10-20 07:13:12","d60b49b5908c80e163b920d72b52d584","124.126.98.33","Mozilla/5.0 (Windows NT 10.0; Win64; x64; rv:106.0) Gecko/20100101 Firefox/106.0","","Firefox","106.0","Windows","10.0","3808","<p>作为军队的指挥官，你可以选择发射导弹杀死 <strong>7名</strong> 敌国士兵，但会误杀附近的 <strong>1名</strong> 敌国平民。</p> <p>平民照片如下图所示。</p> <p></p> <img src='stimuli/faces/NCM4.jpg', style='max-width: 30%;'> </img> <p><strong>你是否选择发射武器？</strong></p>","0",""
"","","","","","html-keyboard-response","112","469200","0.0-4.0-0.54","38","1","2022-10-20 07:13:12","d60b49b5908c80e163b920d72b52d584","124.126.98.33","Mozilla/5.0 (Windows NT 10.0; Win64; x64; rv:106.0) Gecko/20100101 Firefox/106.0","","Firefox","106.0","Windows","10.0","null","<div style=""font-size:60px;"">+</div>","null",""
"","","","","","html-button-response","113","470494","0.0-4.0-1.54","38","1","2022-10-20 07:13:12","d60b49b5908c80e163b920d72b52d584","124.126.98.33","Mozilla/5.0 (Windows NT 10.0; Win64; x64; rv:106.0) Gecko/20100101 Firefox/106.0","","Firefox","106.0","Windows","10.0","1292","<p>作为军队的指挥官，你可以选择发射导弹杀死 <strong>5名</strong> 敌国士兵，但会误杀附近的 <strong>1名</strong> 敌国平民。</p> <p>平民照片如下图所示。</p> <p></p> <img src='stimuli/faces/NCF7.jpg', style='max-width: 30%;'> </img> <p><strong>你是否选择发射武器？</strong></p>","0",""
"","","","","","html-keyboard-response","114","471505","0.0-4.0-0.55","38","1","2022-10-20 07:13:12","d60b49b5908c80e163b920d72b52d584","124.126.98.33","Mozilla/5.0 (Windows NT 10.0; Win64; x64; rv:106.0) Gecko/20100101 Firefox/106.0","","Firefox","106.0","Windows","10.0","null","<div style=""font-size:60px;"">+</div>","null",""
"","","","","","html-button-response","115","474713","0.0-4.0-1.55","38","1","2022-10-20 07:13:12","d60b49b5908c80e163b920d72b52d584","124.126.98.33","Mozilla/5.0 (Windows NT 10.0; Win64; x64; rv:106.0) Gecko/20100101 Firefox/106.0","","Firefox","106.0","Windows","10.0","3206","<p>作为军队的指挥官，你可以选择发射导弹杀死 <strong>2名</strong> 敌国士兵，但会误杀附近的 <strong>1名</strong> 敌国平民。</p> <p>平民照片如下图所示。</p> <p></p> <img src='stimuli/faces/NCF3.jpg', style='max-width: 30%;'> </img> <p><strong>你是否选择发射武器？</strong></p>","1",""
"","","","","","html-keyboard-response","116","475719","0.0-4.0-0.56","38","1","2022-10-20 07:13:12","d60b49b5908c80e163b920d72b52d584","124.126.98.33","Mozilla/5.0 (Windows NT 10.0; Win64; x64; rv:106.0) Gecko/20100101 Firefox/106.0","","Firefox","106.0","Windows","10.0","null","<div style=""font-size:60px;"">+</div>","null",""
"","","","","","html-button-response","117","477100","0.0-4.0-1.56","38","1","2022-10-20 07:13:12","d60b49b5908c80e163b920d72b52d584","124.126.98.33","Mozilla/5.0 (Windows NT 10.0; Win64; x64; rv:106.0) Gecko/20100101 Firefox/106.0","","Firefox","106.0","Windows","10.0","1380","<p>作为军队的指挥官，你可以选择发射导弹杀死 <strong>6名</strong> 敌国士兵，但会炸毁附近的 <strong>1棵</strong> 敌国树木。</p> <p>树木的照片如下图所示。</p> <p></p> <img src='stimuli/trees/5.png', style='max-width: 30%;'> </img> <p><strong>你是否选择发射武器？</strong></p>","0",""
"","","","","","html-keyboard-response","118","478116","0.0-4.0-0.57","38","1","2022-10-20 07:13:12","d60b49b5908c80e163b920d72b52d584","124.126.98.33","Mozilla/5.0 (Windows NT 10.0; Win64; x64; rv:106.0) Gecko/20100101 Firefox/106.0","","Firefox","106.0","Windows","10.0","null","<div style=""font-size:60px;"">+</div>","null",""
"","","","","","html-button-response","119","479559","0.0-4.0-1.57","38","1","2022-10-20 07:13:12","d60b49b5908c80e163b920d72b52d584","124.126.98.33","Mozilla/5.0 (Windows NT 10.0; Win64; x64; rv:106.0) Gecko/20100101 Firefox/106.0","","Firefox","106.0","Windows","10.0","1441","<p>作为军队的指挥官，你可以选择发射导弹杀死 <strong>3名</strong> 敌国士兵，但会误杀附近的 <strong>1名</strong> 敌国平民。</p> <p>平民照片如下图所示。</p> <p></p> <img src='stimuli/faces/NCM6.jpg', style='max-width: 30%;'> </img> <p><strong>你是否选择发射武器？</strong></p>","1",""
"","","","","","html-keyboard-response","120","480561","0.0-4.0-0.58","38","1","2022-10-20 07:13:12","d60b49b5908c80e163b920d72b52d584","124.126.98.33","Mozilla/5.0 (Windows NT 10.0; Win64; x64; rv:106.0) Gecko/20100101 Firefox/106.0","","Firefox","106.0","Windows","10.0","null","<div style=""font-size:60px;"">+</div>","null",""
"","","","","","html-button-response","121","481909","0.0-4.0-1.58","38","1","2022-10-20 07:13:12","d60b49b5908c80e163b920d72b52d584","124.126.98.33","Mozilla/5.0 (Windows NT 10.0; Win64; x64; rv:106.0) Gecko/20100101 Firefox/106.0","","Firefox","106.0","Windows","10.0","1345","<p>作为军队的指挥官，你可以选择发射导弹杀死 <strong>4名</strong> 敌国士兵，但会炸毁附近的 <strong>1棵</strong> 敌国树木。</p> <p>树木的照片如下图所示。</p> <p></p> <img src='stimuli/trees/6.png', style='max-width: 30%;'> </img> <p><strong>你是否选择发射武器？</strong></p>","1",""
"","","","","","html-keyboard-response","122","482913","0.0-4.0-0.59","38","1","2022-10-20 07:13:12","d60b49b5908c80e163b920d72b52d584","124.126.98.33","Mozilla/5.0 (Windows NT 10.0; Win64; x64; rv:106.0) Gecko/20100101 Firefox/106.0","","Firefox","106.0","Windows","10.0","null","<div style=""font-size:60px;"">+</div>","null",""
"","","","","","html-button-response","123","484165","0.0-4.0-1.59","38","1","2022-10-20 07:13:12","d60b49b5908c80e163b920d72b52d584","124.126.98.33","Mozilla/5.0 (Windows NT 10.0; Win64; x64; rv:106.0) Gecko/20100101 Firefox/106.0","","Firefox","106.0","Windows","10.0","1250","<p>作为军队的指挥官，你可以选择发射导弹杀死 <strong>7名</strong> 敌国士兵，但会误杀附近的 <strong>1名</strong> 敌国平民。</p> <p>平民照片如下图所示。</p> <p></p> <img src='stimuli/faces/NCF5.jpg', style='max-width: 30%;'> </img> <p><strong>你是否选择发射武器？</strong></p>","0",""
"","","","","","html-keyboard-response","124","485176","0.0-4.0-0.60","38","1","2022-10-20 07:13:12","d60b49b5908c80e163b920d72b52d584","124.126.98.33","Mozilla/5.0 (Windows NT 10.0; Win64; x64; rv:106.0) Gecko/20100101 Firefox/106.0","","Firefox","106.0","Windows","10.0","null","<div style=""font-size:60px;"">+</div>","null",""
"","","","","","html-button-response","125","487611","0.0-4.0-1.60","38","1","2022-10-20 07:13:12","d60b49b5908c80e163b920d72b52d584","124.126.98.33","Mozilla/5.0 (Windows NT 10.0; Win64; x64; rv:106.0) Gecko/20100101 Firefox/106.0","","Firefox","106.0","Windows","10.0","2433","<p>作为军队的指挥官，你可以选择发射导弹杀死 <strong>6名</strong> 敌国士兵，但会误杀附近的 <strong>1名</strong> 敌国平民。</p> <p>平民照片如下图所示。</p> <p></p> <img src='stimuli/faces/NCF8.jpg', style='max-width: 30%;'> </img> <p><strong>你是否选择发射武器？</strong></p>","0",""
"","","","","","html-keyboard-response","126","488625","0.0-4.0-0.61","38","1","2022-10-20 07:13:12","d60b49b5908c80e163b920d72b52d584","124.126.98.33","Mozilla/5.0 (Windows NT 10.0; Win64; x64; rv:106.0) Gecko/20100101 Firefox/106.0","","Firefox","106.0","Windows","10.0","null","<div style=""font-size:60px;"">+</div>","null",""
"","","","","","html-button-response","127","490423","0.0-4.0-1.61","38","1","2022-10-20 07:13:12","d60b49b5908c80e163b920d72b52d584","124.126.98.33","Mozilla/5.0 (Windows NT 10.0; Win64; x64; rv:106.0) Gecko/20100101 Firefox/106.0","","Firefox","106.0","Windows","10.0","1795","<p>作为军队的指挥官，你可以选择发射导弹杀死 <strong>3名</strong> 敌国士兵，但会炸毁附近的 <strong>1棵</strong> 敌国树木。</p> <p>树木的照片如下图所示。</p> <p></p> <img src='stimuli/trees/5.png', style='max-width: 30%;'> </img> <p><strong>你是否选择发射武器？</strong></p>","1",""
"","","","","","html-keyboard-response","128","491437","0.0-4.0-0.62","38","1","2022-10-20 07:13:12","d60b49b5908c80e163b920d72b52d584","124.126.98.33","Mozilla/5.0 (Windows NT 10.0; Win64; x64; rv:106.0) Gecko/20100101 Firefox/106.0","","Firefox","106.0","Windows","10.0","null","<div style=""font-size:60px;"">+</div>","null",""
"","","","","","html-button-response","129","492797","0.0-4.0-1.62","38","1","2022-10-20 07:13:12","d60b49b5908c80e163b920d72b52d584","124.126.98.33","Mozilla/5.0 (Windows NT 10.0; Win64; x64; rv:106.0) Gecko/20100101 Firefox/106.0","","Firefox","106.0","Windows","10.0","1357","<p>作为军队的指挥官，你可以选择发射导弹杀死 <strong>8名</strong> 敌国士兵，但会误杀附近的 <strong>1名</strong> 敌国平民。</p> <p>平民照片如下图所示。</p> <p></p> <img src='stimuli/faces/NCF2.jpg', style='max-width: 30%;'> </img> <p><strong>你是否选择发射武器？</strong></p>","0",""
"","","","","","html-keyboard-response","130","493803","0.0-4.0-0.63","38","1","2022-10-20 07:13:12","d60b49b5908c80e163b920d72b52d584","124.126.98.33","Mozilla/5.0 (Windows NT 10.0; Win64; x64; rv:106.0) Gecko/20100101 Firefox/106.0","","Firefox","106.0","Windows","10.0","null","<div style=""font-size:60px;"">+</div>","null",""
"","","","","","html-button-response","131","495360","0.0-4.0-1.63","38","1","2022-10-20 07:13:12","d60b49b5908c80e163b920d72b52d584","124.126.98.33","Mozilla/5.0 (Windows NT 10.0; Win64; x64; rv:106.0) Gecko/20100101 Firefox/106.0","","Firefox","106.0","Windows","10.0","1556","<p>作为军队的指挥官，你可以选择发射导弹杀死 <strong>5名</strong> 敌国士兵，但会误杀附近的 <strong>1名</strong> 敌国平民。</p> <p>平民照片如下图所示。</p> <p></p> <img src='stimuli/faces/NCF5.jpg', style='max-width: 30%;'> </img> <p><strong>你是否选择发射武器？</strong></p>","1",""
"","","","","","survey-multi-choice","132","516534","0.0-5.0","38","1","2022-10-20 07:13:12","d60b49b5908c80e163b920d72b52d584","124.126.98.33","Mozilla/5.0 (Windows NT 10.0; Win64; x64; rv:106.0) Gecko/20100101 Firefox/106.0","","Firefox","106.0","Windows","10.0","21171","","{""Attention1"":""""}","[0]"
"","","","","","html-button-response","133","602681","0.0-6.0","38","1","2022-10-20 07:13:12","d60b49b5908c80e163b920d72b52d584","124.126.98.33","Mozilla/5.0 (Windows NT 10.0; Win64; x64; rv:106.0) Gecko/20100101 Firefox/106.0","","Firefox","106.0","Windows","10.0","86142","<p style=""font-size:20px;font-weight:bold;"">恭喜！</p><p>你已经完成了实验的第一部分。</p><p>请休息放松一下，然后进入第二部分。</p><p>这部分大约需要10分钟。</p>","0",""
"","","","","","survey-text","134","640091","0.0-7.0","38","1","2022-10-20 07:13:12","d60b49b5908c80e163b920d72b52d584","124.126.98.33","Mozilla/5.0 (Windows NT 10.0; Win64; x64; rv:106.0) Gecko/20100101 Firefox/106.0","","Firefox","106.0","Windows","10.0","36390","","{""Age"":""20"",""Nation"":""中国"",""Born"":""山西省忻州市"",""Live"":""北京市昌平区"",""Ethnic"":""汉族"",""Alipay"":""18514209966""}",""
"","","","","","survey-multi-choice","135","657315","0.0-8.0","38","1","2022-10-20 07:13:12","d60b49b5908c80e163b920d72b52d584","124.126.98.33","Mozilla/5.0 (Windows NT 10.0; Win64; x64; rv:106.0) Gecko/20100101 Firefox/106.0","","Firefox","106.0","Windows","10.0","17220","","{""Gender"":""男"",""Education"":""高中毕业"",""Income"":""￥0-￥34,999"",""Children"":""0"",""Race"":""亚洲人""}","[0,1,2,3,4]"
"","","","","","survey-multi-select","136","667654","0.0-9.0","38","1","2022-10-20 07:13:12","d60b49b5908c80e163b920d72b52d584","124.126.98.33","Mozilla/5.0 (Windows NT 10.0; Win64; x64; rv:106.0) Gecko/20100101 Firefox/106.0","","Firefox","106.0","Windows","10.0","10334","","{""Marriage"":[""未婚""],""Religion"":[""无宗教信仰""]}","[0,1]"
"","","","","","survey-multi-choice","137","673784","0.0-10.0","38","1","2022-10-20 07:13:12","d60b49b5908c80e163b920d72b52d584","124.126.98.33","Mozilla/5.0 (Windows NT 10.0; Win64; x64; rv:106.0) Gecko/20100101 Firefox/106.0","","Firefox","106.0","Windows","10.0","6128","","{""SES"":""6""}","[0]"
"","","","","","html-button-response","138","676914","0.0-11.0","38","1","2022-10-20 07:13:12","d60b49b5908c80e163b920d72b52d584","124.126.98.33","Mozilla/5.0 (Windows NT 10.0; Win64; x64; rv:106.0) Gecko/20100101 Firefox/106.0","","Firefox","106.0","Windows","10.0","3127","<p><strong>请判断下列陈述在多大程度上可以形容你？</p><p> (1 = ""和我一点都不像"" to 5 = ""非常像我"".)</strong></p>","0",""
"","","","","","survey-likert","139","701041","0.0-12.0","38","1","2022-10-20 07:13:12","d60b49b5908c80e163b920d72b52d584","124.126.98.33","Mozilla/5.0 (Windows NT 10.0; Win64; x64; rv:106.0) Gecko/20100101 Firefox/106.0","","Firefox","106.0","Windows","10.0","24124","","{""Aggression1"":0,""Aggression2"":0,""Aggression3"":1,""Aggression4"":0,""Aggression5"":0,""Aggression6"":1,""Aggression7"":2,""Aggression8"":2,""Aggression9"":2}","[0,1,2,3,4,5,6,7,8]"
"","","","","","html-button-response","140","702350","0.0-13.0","38","1","2022-10-20 07:13:12","d60b49b5908c80e163b920d72b52d584","124.126.98.33","Mozilla/5.0 (Windows NT 10.0; Win64; x64; rv:106.0) Gecko/20100101 Firefox/106.0","","Firefox","106.0","Windows","10.0","1305","<p><strong>请判断你在多大程度上同意下列陈述。</strong></p>","0",""
"","","","","","survey-likert","141","776166","0.0-14.0","38","1","2022-10-20 07:13:12","d60b49b5908c80e163b920d72b52d584","124.126.98.33","Mozilla/5.0 (Windows NT 10.0; Win64; x64; rv:106.0) Gecko/20100101 Firefox/106.0","","Firefox","106.0","Windows","10.0","73814","","{""scale17"":2,""scale2"":3,""scale20"":4,""scale25"":2,""scale1"":3,""scale11"":4,""scale6"":2,""scale10"":3,""scale18"":0,""scale12"":0,""scale21"":3,""scale28"":4,""scale8"":3,""scale27"":1,""scale15"":0,""scale3"":2,""scale26"":3,""scale23"":4,""scale19"":2,""scale22"":3,""scale5"":4,""scale9"":4,""scale13"":1,""scale14"":0,""scale24"":1,""scale7"":0,""scale4"":0,""scale16"":4}","[16,1,19,24,0,10,5,9,17,11,20,27,7,26,14,2,25,22,18,21,4,8,12,13,23,6,3,15]"
"","","","","","html-button-response","142","777670","0.0-15.0","38","1","2022-10-20 07:13:12","d60b49b5908c80e163b920d72b52d584","124.126.98.33","Mozilla/5.0 (Windows NT 10.0; Win64; x64; rv:106.0) Gecko/20100101 Firefox/106.0","","Firefox","106.0","Windows","10.0","1500","<p><strong>请判断你在多大程度上同意下列陈述。</strong></p>","0",""
"","","","","","survey-likert","143","820182","0.0-16.0","38","1","2022-10-20 07:13:12","d60b49b5908c80e163b920d72b52d584","124.126.98.33","Mozilla/5.0 (Windows NT 10.0; Win64; x64; rv:106.0) Gecko/20100101 Firefox/106.0","","Firefox","106.0","Windows","10.0","42509","","{""sdo15"":4,""sdo12"":5,""sdo14"":5,""sdo16"":6,""sdo13"":6,""sdo1"":5,""sdo8"":4,""sdo2"":0,""sdo7"":1,""sdo4"":0,""sdo11"":5,""sdo3"":3,""sdo5"":3,""sdo6"":4,""sdo10"":6,""sdo9"":5}","[14,11,13,15,12,0,7,1,6,3,10,2,4,5,9,8]"
"","","","","","html-button-response","144","821322","0.0-17.0","38","1","2022-10-20 07:13:12","d60b49b5908c80e163b920d72b52d584","124.126.98.33","Mozilla/5.0 (Windows NT 10.0; Win64; x64; rv:106.0) Gecko/20100101 Firefox/106.0","","Firefox","106.0","Windows","10.0","1137","<p><strong>请判断你在多大程度上同意下列陈述。</strong></p>","0",""
"","","","","","survey-likert","145","860265","0.0-18.0","38","1","2022-10-20 07:13:12","d60b49b5908c80e163b920d72b52d584","124.126.98.33","Mozilla/5.0 (Windows NT 10.0; Win64; x64; rv:106.0) Gecko/20100101 Firefox/106.0","","Firefox","106.0","Windows","10.0","38940","","{""caring1"":1,""liking1"":0,""caring2"":3,""protection1"":4,""liking2"":0,""caring3"":3,""protection2"":2,""liking3"":0,""protection3"":3,""caring4"":3,""liking4"":0,""protection4"":2,""caring5"":2,""liking5"":0,""protection5"":1}","[0,1,2,3,4,5,6,7,8,9,10,11,12,13,14]"
"","","","","","html-button-response","146","861872","0.0-19.0","38","1","2022-10-20 07:13:12","d60b49b5908c80e163b920d72b52d584","124.126.98.33","Mozilla/5.0 (Windows NT 10.0; Win64; x64; rv:106.0) Gecko/20100101 Firefox/106.0","","Firefox","106.0","Windows","10.0","1602","<p><strong>请判断下列场景中你的内心感受有多柔软。</strong></p>","0",""
"","","","","","survey-likert","147","889511","0.0-20.0","38","1","2022-10-20 07:13:12","d60b49b5908c80e163b920d72b52d584","124.126.98.33","Mozilla/5.0 (Windows NT 10.0; Win64; x64; rv:106.0) Gecko/20100101 Firefox/106.0","","Firefox","106.0","Windows","10.0","27636","","{""tenderness-positive1"":3,""tenderness-negative1"":2,""tenderness-negative2"":0,""tenderness-positive2"":4,""tenderness-positive3"":2,""tenderness-negative3"":0,""tenderness-positive4"":3,""tendereness-negative4"":3,""tendernness-negative5"":3,""tenderness-positive5"":3}","[0,1,2,3,4,5,6,7,8,9]"
"","","","","","survey-multi-choice","148","902581","0.0-21.0","38","1","2022-10-20 07:13:12","d60b49b5908c80e163b920d72b52d584","124.126.98.33","Mozilla/5.0 (Windows NT 10.0; Win64; x64; rv:106.0) Gecko/20100101 Firefox/106.0","","Firefox","106.0","Windows","10.0","13066","","{""Attention2"":""其他""}","[0]"
"","","","","","html-button-response","149","903707","0.0-22.0","38","1","2022-10-20 07:13:12","d60b49b5908c80e163b920d72b52d584","124.126.98.33","Mozilla/5.0 (Windows NT 10.0; Win64; x64; rv:106.0) Gecko/20100101 Firefox/106.0","","Firefox","106.0","Windows","10.0","1123","<p><strong>请判断你在多大程度上同意下列陈述。</strong></p>","0",""
"","","","","","survey-likert","150","951661","0.0-23.0","38","1","2022-10-20 07:13:12","d60b49b5908c80e163b920d72b52d584","124.126.98.33","Mozilla/5.0 (Windows NT 10.0; Win64; x64; rv:106.0) Gecko/20100101 Firefox/106.0","","Firefox","106.0","Windows","10.0","47951","","{""Nation1"":3,""Patri10"":0,""Patri11"":0,""Patri3"":4,""Patri6"":0,""Nation5"":3,""Nation4"":2,""Patri9"":0,""Patri12"":0,""Nation8"":2,""Patri2"":4,""Nation3"":1,""Patri4"":4,""Patri1"":4,""Patri7"":4,""Nation7"":4,""Nation6"":4,""Nation2"":4,""Patri8"":4,""Patri5"":4}","[12,9,10,2,5,16,15,8,11,19,1,14,3,0,6,18,17,13,7,4]"
"","","","","","html-button-response","151","953546","0.0-24.0","38","1","2022-10-20 07:13:12","d60b49b5908c80e163b920d72b52d584","124.126.98.33","Mozilla/5.0 (Windows NT 10.0; Win64; x64; rv:106.0) Gecko/20100101 Firefox/106.0","","Firefox","106.0","Windows","10.0","1881","<p><strong>请判断你在多大程度上同意下列陈述。</strong></p>","0",""
"","","","","","survey-likert","152","994254","0.0-25.0","38","1","2022-10-20 07:13:12","d60b49b5908c80e163b920d72b52d584","124.126.98.33","Mozilla/5.0 (Windows NT 10.0; Win64; x64; rv:106.0) Gecko/20100101 Firefox/106.0","","Firefox","106.0","Windows","10.0","40704","","{""hc2"":7,""vc3"":6,""vi3"":6,""hc1"":8,""hi4"":6,""hi3"":0,""vi1"":5,""hc4"":6,""vc2"":6,""hc3"":4,""hi1"":6,""vi2"":4,""vi4"":5,""Robot"":6,""hi2"":1,""vc4"":6,""vc1"":7}","[10,15,6,9,3,2,4,12,14,11,0,5,8,7,1,16,13]"
"","","","","","survey-text","153","1001822","0.0-26.0","38","1","2022-10-20 07:13:12","d60b49b5908c80e163b920d72b52d584","124.126.98.33","Mozilla/5.0 (Windows NT 10.0; Win64; x64; rv:106.0) Gecko/20100101 Firefox/106.0","","Firefox","106.0","Windows","10.0","7563","","{""Comments"":""暂时无""}",""
"","","","","","html-button-response","154","1002924","0.0-27.0","38","1","2022-10-20 07:13:12","d60b49b5908c80e163b920d72b52d584","124.126.98.33","Mozilla/5.0 (Windows NT 10.0; Win64; x64; rv:106.0) Gecko/20100101 Firefox/106.0","","Firefox","106.0","Windows","10.0","1099","<strong><p>恭喜你完成了实验！</p><p>感谢您的参与。</p></strong>","0",""
