"success","timeout","failed_images","failed_audio","failed_video","trial_type","trial_index","time_elapsed","internal_node_id","run_id","condition","recorded_at","source_code_version","ip","user_agent","device","browser","browser_version","platform","platform_version","rt","stimulus","response","question_order"
"true","false","[]","[]","[]","preload","0","10770","0.0-0.0","44","1","2022-10-20 07:56:11","d60b49b5908c80e163b920d72b52d584","14.29.170.227","Mozilla/5.0 (Windows NT 10.0; Win64; x64) AppleWebKit/537.36 (KHTML, like Gecko) Chrome/99.0.4844.51 Safari/537.36","WebKit","Chrome","99.0.4844.51","Windows","10.0","","","",""
"true","","","","","fullscreen","1","18732","0.0-1.0","44","1","2022-10-20 07:56:11","d60b49b5908c80e163b920d72b52d584","14.29.170.227","Mozilla/5.0 (Windows NT 10.0; Win64; x64) AppleWebKit/537.36 (KHTML, like Gecko) Chrome/99.0.4844.51 Safari/537.36","WebKit","Chrome","99.0.4844.51","Windows","10.0","","","",""
"","","","","","html-button-response","2","20615","0.0-2.0","44","1","2022-10-20 07:56:11","d60b49b5908c80e163b920d72b52d584","14.29.170.227","Mozilla/5.0 (Windows NT 10.0; Win64; x64) AppleWebKit/537.36 (KHTML, like Gecko) Chrome/99.0.4844.51 Safari/537.36","WebKit","Chrome","99.0.4844.51","Windows","10.0","1879","<p style=""font-size:20px;font-weight:bold;"">实验知情同意书</p><p style=""text-align:left;""><strong>实验名称：</strong>社会冲突研究</p><p style=""text-align:left;""><strong>主要研究者：</strong>韩晓春副教授（北京师范大学心理学部）</p><p style=""text-align:left;""><strong>联系方式：</strong>发送邮件至xiaochun.han@bnu.edu.cn</p><p style=""text-align:left;""><strong>研究目的：</strong>研究旨在了解人类面对群体冲突时的决策方式，以及相关的心理学特质。实验调查大约需要20分钟。</p><p style=""text-align:left;""><strong>实验流程：</strong>实验包含两部分。第一部分呈现一系列群体冲突场景，请你决定如何对这些冲突进行反应，大约需要10分钟完成。第二部分包含一系列人口统计学信息收集和心理学问卷，大约需要10分钟完成。</p><p style=""text-align:left;""><strong>参加及退出规则：</strong>参加本实验完全取决于您的个人意愿。在参与过程中，您可以随时退出，并且不用承担任何后果。</p><p style=""text-align:left;""><strong>隐私：</strong>本实验完全匿名进行，不会收集您的姓名或其他能够识别您身份的信息。实验中收集的作答仅用作科学研究使用，可能会在学术期刊/书籍上发表，或者用于教学，您的数据未来可能会和其他研究者或实验室分享，但您的个人身份不会被识别。</p><p style=""text-align:left;""><strong>实验报酬：</strong>实验完成后，您将获得15元人民币报酬，以感谢您的时间和努力。调查问卷中包含几道题目用以测验您作答时的认真度。只有完成全部实验，并且正确回答认真度测验的被试才能获得实验报酬。实验报酬将通过支付宝转账发放。</p><p style=""text-align:left;font-size:20px;""><strong>如果您同意以上实验知情同意书的内容，请点击'同意并且开始实验'按钮；否则请关闭浏览器界面，退出实验。</strong></p>","0",""
"","","","","","html-button-response","3","21967","0.0-3.0","44","1","2022-10-20 07:56:11","d60b49b5908c80e163b920d72b52d584","14.29.170.227","Mozilla/5.0 (Windows NT 10.0; Win64; x64) AppleWebKit/537.36 (KHTML, like Gecko) Chrome/99.0.4844.51 Safari/537.36","WebKit","Chrome","99.0.4844.51","Windows","10.0","1349","<p ><strong>实验任务一：</strong></p><p>请想象你的国家与另一个国家发生了军事冲突。</p><p>你是国家军队的指挥官，你将如何在冲突中进行决策。</p><p>具体来说，作为军队指挥官，请你决定是否发射导弹进行打击。</p><p>接下来，你会面对一系列场景，请仔细阅读每个场景，然后进行决策。</p><p>这部分实验任务大约需要10分钟。</p><p><strong>实验过程中，请集中注意力。</strong></p>","0",""
"","","","","","html-keyboard-response","4","22971","0.0-4.0-0.0","44","1","2022-10-20 07:56:11","d60b49b5908c80e163b920d72b52d584","14.29.170.227","Mozilla/5.0 (Windows NT 10.0; Win64; x64) AppleWebKit/537.36 (KHTML, like Gecko) Chrome/99.0.4844.51 Safari/537.36","WebKit","Chrome","99.0.4844.51","Windows","10.0","null","<div style=""font-size:60px;"">+</div>","null",""
"","","","","","html-button-response","5","27158","0.0-4.0-1.0","44","1","2022-10-20 07:56:11","d60b49b5908c80e163b920d72b52d584","14.29.170.227","Mozilla/5.0 (Windows NT 10.0; Win64; x64) AppleWebKit/537.36 (KHTML, like Gecko) Chrome/99.0.4844.51 Safari/537.36","WebKit","Chrome","99.0.4844.51","Windows","10.0","4183","<p>作为军队的指挥官，你可以选择发射导弹杀死 <strong>3名</strong> 敌国士兵，但会炸毁附近的 <strong>1棵</strong> 敌国树木。</p> <p>树木的照片如下图所示。</p> <p></p> <img src='stimuli/trees/14.png', style='max-width: 30%;'> </img> <p><strong>你是否选择发射武器？</strong></p>","0",""
"","","","","","html-keyboard-response","6","28163","0.0-4.0-0.1","44","1","2022-10-20 07:56:11","d60b49b5908c80e163b920d72b52d584","14.29.170.227","Mozilla/5.0 (Windows NT 10.0; Win64; x64) AppleWebKit/537.36 (KHTML, like Gecko) Chrome/99.0.4844.51 Safari/537.36","WebKit","Chrome","99.0.4844.51","Windows","10.0","null","<div style=""font-size:60px;"">+</div>","null",""
"","","","","","html-button-response","7","31967","0.0-4.0-1.1","44","1","2022-10-20 07:56:11","d60b49b5908c80e163b920d72b52d584","14.29.170.227","Mozilla/5.0 (Windows NT 10.0; Win64; x64) AppleWebKit/537.36 (KHTML, like Gecko) Chrome/99.0.4844.51 Safari/537.36","WebKit","Chrome","99.0.4844.51","Windows","10.0","3799","<p>作为军队的指挥官，你可以选择发射导弹杀死 <strong>7名</strong> 敌国士兵，但会误杀附近的 <strong>1名</strong> 敌国平民。</p> <p>平民照片如下图所示。</p> <p></p> <img src='stimuli/faces/NCM6.jpg', style='max-width: 30%;'> </img> <p><strong>你是否选择发射武器？</strong></p>","0",""
"","","","","","html-keyboard-response","8","32970","0.0-4.0-0.2","44","1","2022-10-20 07:56:11","d60b49b5908c80e163b920d72b52d584","14.29.170.227","Mozilla/5.0 (Windows NT 10.0; Win64; x64) AppleWebKit/537.36 (KHTML, like Gecko) Chrome/99.0.4844.51 Safari/537.36","WebKit","Chrome","99.0.4844.51","Windows","10.0","null","<div style=""font-size:60px;"">+</div>","null",""
"","","","","","html-button-response","9","34870","0.0-4.0-1.2","44","1","2022-10-20 07:56:11","d60b49b5908c80e163b920d72b52d584","14.29.170.227","Mozilla/5.0 (Windows NT 10.0; Win64; x64) AppleWebKit/537.36 (KHTML, like Gecko) Chrome/99.0.4844.51 Safari/537.36","WebKit","Chrome","99.0.4844.51","Windows","10.0","1896","<p>作为军队的指挥官，你可以选择发射导弹杀死 <strong>7名</strong> 敌国士兵，但会误杀附近的 <strong>1名</strong> 敌国平民。</p> <p>平民照片如下图所示。</p> <p></p> <img src='stimuli/faces/NCF7.jpg', style='max-width: 30%;'> </img> <p><strong>你是否选择发射武器？</strong></p>","0",""
"","","","","","html-keyboard-response","10","35874","0.0-4.0-0.3","44","1","2022-10-20 07:56:11","d60b49b5908c80e163b920d72b52d584","14.29.170.227","Mozilla/5.0 (Windows NT 10.0; Win64; x64) AppleWebKit/537.36 (KHTML, like Gecko) Chrome/99.0.4844.51 Safari/537.36","WebKit","Chrome","99.0.4844.51","Windows","10.0","null","<div style=""font-size:60px;"">+</div>","null",""
"","","","","","html-button-response","11","37262","0.0-4.0-1.3","44","1","2022-10-20 07:56:11","d60b49b5908c80e163b920d72b52d584","14.29.170.227","Mozilla/5.0 (Windows NT 10.0; Win64; x64) AppleWebKit/537.36 (KHTML, like Gecko) Chrome/99.0.4844.51 Safari/537.36","WebKit","Chrome","99.0.4844.51","Windows","10.0","1385","<p>作为军队的指挥官，你可以选择发射导弹杀死 <strong>5名</strong> 敌国士兵，但会炸毁附近的 <strong>1棵</strong> 敌国树木。</p> <p>树木的照片如下图所示。</p> <p></p> <img src='stimuli/trees/4.png', style='max-width: 30%;'> </img> <p><strong>你是否选择发射武器？</strong></p>","0",""
"","","","","","html-keyboard-response","12","38267","0.0-4.0-0.4","44","1","2022-10-20 07:56:11","d60b49b5908c80e163b920d72b52d584","14.29.170.227","Mozilla/5.0 (Windows NT 10.0; Win64; x64) AppleWebKit/537.36 (KHTML, like Gecko) Chrome/99.0.4844.51 Safari/537.36","WebKit","Chrome","99.0.4844.51","Windows","10.0","null","<div style=""font-size:60px;"">+</div>","null",""
"","","","","","html-button-response","13","39632","0.0-4.0-1.4","44","1","2022-10-20 07:56:11","d60b49b5908c80e163b920d72b52d584","14.29.170.227","Mozilla/5.0 (Windows NT 10.0; Win64; x64) AppleWebKit/537.36 (KHTML, like Gecko) Chrome/99.0.4844.51 Safari/537.36","WebKit","Chrome","99.0.4844.51","Windows","10.0","1361","<p>作为军队的指挥官，你可以选择发射导弹杀死 <strong>7名</strong> 敌国士兵，但会炸毁附近的 <strong>1棵</strong> 敌国树木。</p> <p>树木的照片如下图所示。</p> <p></p> <img src='stimuli/trees/11.png', style='max-width: 30%;'> </img> <p><strong>你是否选择发射武器？</strong></p>","0",""
"","","","","","html-keyboard-response","14","40636","0.0-4.0-0.5","44","1","2022-10-20 07:56:11","d60b49b5908c80e163b920d72b52d584","14.29.170.227","Mozilla/5.0 (Windows NT 10.0; Win64; x64) AppleWebKit/537.36 (KHTML, like Gecko) Chrome/99.0.4844.51 Safari/537.36","WebKit","Chrome","99.0.4844.51","Windows","10.0","null","<div style=""font-size:60px;"">+</div>","null",""
"","","","","","html-button-response","15","41894","0.0-4.0-1.5","44","1","2022-10-20 07:56:11","d60b49b5908c80e163b920d72b52d584","14.29.170.227","Mozilla/5.0 (Windows NT 10.0; Win64; x64) AppleWebKit/537.36 (KHTML, like Gecko) Chrome/99.0.4844.51 Safari/537.36","WebKit","Chrome","99.0.4844.51","Windows","10.0","1252","<p>作为军队的指挥官，你可以选择发射导弹杀死 <strong>8名</strong> 敌国士兵，但会误杀附近的 <strong>1名</strong> 敌国平民。</p> <p>平民照片如下图所示。</p> <p></p> <img src='stimuli/faces/NCF8.jpg', style='max-width: 30%;'> </img> <p><strong>你是否选择发射武器？</strong></p>","0",""
"","","","","","html-keyboard-response","16","42899","0.0-4.0-0.6","44","1","2022-10-20 07:56:11","d60b49b5908c80e163b920d72b52d584","14.29.170.227","Mozilla/5.0 (Windows NT 10.0; Win64; x64) AppleWebKit/537.36 (KHTML, like Gecko) Chrome/99.0.4844.51 Safari/537.36","WebKit","Chrome","99.0.4844.51","Windows","10.0","null","<div style=""font-size:60px;"">+</div>","null",""
"","","","","","html-button-response","17","45086","0.0-4.0-1.6","44","1","2022-10-20 07:56:11","d60b49b5908c80e163b920d72b52d584","14.29.170.227","Mozilla/5.0 (Windows NT 10.0; Win64; x64) AppleWebKit/537.36 (KHTML, like Gecko) Chrome/99.0.4844.51 Safari/537.36","WebKit","Chrome","99.0.4844.51","Windows","10.0","2183","<p>作为军队的指挥官，你可以选择发射导弹杀死 <strong>2名</strong> 敌国士兵，但会炸毁附近的 <strong>1棵</strong> 敌国树木。</p> <p>树木的照片如下图所示。</p> <p></p> <img src='stimuli/trees/15.png', style='max-width: 30%;'> </img> <p><strong>你是否选择发射武器？</strong></p>","0",""
"","","","","","html-keyboard-response","18","46092","0.0-4.0-0.7","44","1","2022-10-20 07:56:11","d60b49b5908c80e163b920d72b52d584","14.29.170.227","Mozilla/5.0 (Windows NT 10.0; Win64; x64) AppleWebKit/537.36 (KHTML, like Gecko) Chrome/99.0.4844.51 Safari/537.36","WebKit","Chrome","99.0.4844.51","Windows","10.0","null","<div style=""font-size:60px;"">+</div>","null",""
"","","","","","html-button-response","19","47902","0.0-4.0-1.7","44","1","2022-10-20 07:56:11","d60b49b5908c80e163b920d72b52d584","14.29.170.227","Mozilla/5.0 (Windows NT 10.0; Win64; x64) AppleWebKit/537.36 (KHTML, like Gecko) Chrome/99.0.4844.51 Safari/537.36","WebKit","Chrome","99.0.4844.51","Windows","10.0","1806","<p>作为军队的指挥官，你可以选择发射导弹杀死 <strong>10名</strong> 敌国士兵，但会炸毁附近的 <strong>1棵</strong> 敌国树木。</p> <p>树木的照片如下图所示。</p> <p></p> <img src='stimuli/trees/10.png', style='max-width: 30%;'> </img> <p><strong>你是否选择发射武器？</strong></p>","0",""
"","","","","","html-keyboard-response","20","48907","0.0-4.0-0.8","44","1","2022-10-20 07:56:11","d60b49b5908c80e163b920d72b52d584","14.29.170.227","Mozilla/5.0 (Windows NT 10.0; Win64; x64) AppleWebKit/537.36 (KHTML, like Gecko) Chrome/99.0.4844.51 Safari/537.36","WebKit","Chrome","99.0.4844.51","Windows","10.0","null","<div style=""font-size:60px;"">+</div>","null",""
"","","","","","html-button-response","21","51607","0.0-4.0-1.8","44","1","2022-10-20 07:56:11","d60b49b5908c80e163b920d72b52d584","14.29.170.227","Mozilla/5.0 (Windows NT 10.0; Win64; x64) AppleWebKit/537.36 (KHTML, like Gecko) Chrome/99.0.4844.51 Safari/537.36","WebKit","Chrome","99.0.4844.51","Windows","10.0","2695","<p>作为军队的指挥官，你可以选择发射导弹杀死 <strong>6名</strong> 敌国士兵，但会误杀附近的 <strong>1名</strong> 敌国平民。</p> <p>平民照片如下图所示。</p> <p></p> <img src='stimuli/faces/NCM1.jpg', style='max-width: 30%;'> </img> <p><strong>你是否选择发射武器？</strong></p>","0",""
"","","","","","html-keyboard-response","22","52612","0.0-4.0-0.9","44","1","2022-10-20 07:56:11","d60b49b5908c80e163b920d72b52d584","14.29.170.227","Mozilla/5.0 (Windows NT 10.0; Win64; x64) AppleWebKit/537.36 (KHTML, like Gecko) Chrome/99.0.4844.51 Safari/537.36","WebKit","Chrome","99.0.4844.51","Windows","10.0","null","<div style=""font-size:60px;"">+</div>","null",""
"","","","","","html-button-response","23","54414","0.0-4.0-1.9","44","1","2022-10-20 07:56:11","d60b49b5908c80e163b920d72b52d584","14.29.170.227","Mozilla/5.0 (Windows NT 10.0; Win64; x64) AppleWebKit/537.36 (KHTML, like Gecko) Chrome/99.0.4844.51 Safari/537.36","WebKit","Chrome","99.0.4844.51","Windows","10.0","1796","<p>作为军队的指挥官，你可以选择发射导弹杀死 <strong>6名</strong> 敌国士兵，但会炸毁附近的 <strong>1棵</strong> 敌国树木。</p> <p>树木的照片如下图所示。</p> <p></p> <img src='stimuli/trees/2.png', style='max-width: 30%;'> </img> <p><strong>你是否选择发射武器？</strong></p>","0",""
"","","","","","html-keyboard-response","24","55420","0.0-4.0-0.10","44","1","2022-10-20 07:56:11","d60b49b5908c80e163b920d72b52d584","14.29.170.227","Mozilla/5.0 (Windows NT 10.0; Win64; x64) AppleWebKit/537.36 (KHTML, like Gecko) Chrome/99.0.4844.51 Safari/537.36","WebKit","Chrome","99.0.4844.51","Windows","10.0","null","<div style=""font-size:60px;"">+</div>","null",""
"","","","","","html-button-response","25","58014","0.0-4.0-1.10","44","1","2022-10-20 07:56:11","d60b49b5908c80e163b920d72b52d584","14.29.170.227","Mozilla/5.0 (Windows NT 10.0; Win64; x64) AppleWebKit/537.36 (KHTML, like Gecko) Chrome/99.0.4844.51 Safari/537.36","WebKit","Chrome","99.0.4844.51","Windows","10.0","2584","<p>作为军队的指挥官，你可以选择发射导弹杀死 <strong>8名</strong> 敌国士兵，但会误杀附近的 <strong>1名</strong> 敌国平民。</p> <p>平民照片如下图所示。</p> <p></p> <img src='stimuli/faces/NCF5.jpg', style='max-width: 30%;'> </img> <p><strong>你是否选择发射武器？</strong></p>","0",""
"","","","","","html-keyboard-response","26","59019","0.0-4.0-0.11","44","1","2022-10-20 07:56:11","d60b49b5908c80e163b920d72b52d584","14.29.170.227","Mozilla/5.0 (Windows NT 10.0; Win64; x64) AppleWebKit/537.36 (KHTML, like Gecko) Chrome/99.0.4844.51 Safari/537.36","WebKit","Chrome","99.0.4844.51","Windows","10.0","null","<div style=""font-size:60px;"">+</div>","null",""
"","","","","","html-button-response","27","62006","0.0-4.0-1.11","44","1","2022-10-20 07:56:11","d60b49b5908c80e163b920d72b52d584","14.29.170.227","Mozilla/5.0 (Windows NT 10.0; Win64; x64) AppleWebKit/537.36 (KHTML, like Gecko) Chrome/99.0.4844.51 Safari/537.36","WebKit","Chrome","99.0.4844.51","Windows","10.0","2982","<p>作为军队的指挥官，你可以选择发射导弹杀死 <strong>6名</strong> 敌国士兵，但会炸毁附近的 <strong>1棵</strong> 敌国树木。</p> <p>树木的照片如下图所示。</p> <p></p> <img src='stimuli/trees/9.png', style='max-width: 30%;'> </img> <p><strong>你是否选择发射武器？</strong></p>","0",""
"","","","","","html-keyboard-response","28","63011","0.0-4.0-0.12","44","1","2022-10-20 07:56:11","d60b49b5908c80e163b920d72b52d584","14.29.170.227","Mozilla/5.0 (Windows NT 10.0; Win64; x64) AppleWebKit/537.36 (KHTML, like Gecko) Chrome/99.0.4844.51 Safari/537.36","WebKit","Chrome","99.0.4844.51","Windows","10.0","null","<div style=""font-size:60px;"">+</div>","null",""
"","","","","","html-button-response","29","64278","0.0-4.0-1.12","44","1","2022-10-20 07:56:11","d60b49b5908c80e163b920d72b52d584","14.29.170.227","Mozilla/5.0 (Windows NT 10.0; Win64; x64) AppleWebKit/537.36 (KHTML, like Gecko) Chrome/99.0.4844.51 Safari/537.36","WebKit","Chrome","99.0.4844.51","Windows","10.0","1262","<p>作为军队的指挥官，你可以选择发射导弹杀死 <strong>9名</strong> 敌国士兵，但会炸毁附近的 <strong>1棵</strong> 敌国树木。</p> <p>树木的照片如下图所示。</p> <p></p> <img src='stimuli/trees/1.png', style='max-width: 30%;'> </img> <p><strong>你是否选择发射武器？</strong></p>","0",""
"","","","","","html-keyboard-response","30","65284","0.0-4.0-0.13","44","1","2022-10-20 07:56:11","d60b49b5908c80e163b920d72b52d584","14.29.170.227","Mozilla/5.0 (Windows NT 10.0; Win64; x64) AppleWebKit/537.36 (KHTML, like Gecko) Chrome/99.0.4844.51 Safari/537.36","WebKit","Chrome","99.0.4844.51","Windows","10.0","null","<div style=""font-size:60px;"">+</div>","null",""
"","","","","","html-button-response","31","65975","0.0-4.0-1.13","44","1","2022-10-20 07:56:11","d60b49b5908c80e163b920d72b52d584","14.29.170.227","Mozilla/5.0 (Windows NT 10.0; Win64; x64) AppleWebKit/537.36 (KHTML, like Gecko) Chrome/99.0.4844.51 Safari/537.36","WebKit","Chrome","99.0.4844.51","Windows","10.0","685","<p>作为军队的指挥官，你可以选择发射导弹杀死 <strong>3名</strong> 敌国士兵，但会炸毁附近的 <strong>1棵</strong> 敌国树木。</p> <p>树木的照片如下图所示。</p> <p></p> <img src='stimuli/trees/9.png', style='max-width: 30%;'> </img> <p><strong>你是否选择发射武器？</strong></p>","0",""
"","","","","","html-keyboard-response","32","66981","0.0-4.0-0.14","44","1","2022-10-20 07:56:11","d60b49b5908c80e163b920d72b52d584","14.29.170.227","Mozilla/5.0 (Windows NT 10.0; Win64; x64) AppleWebKit/537.36 (KHTML, like Gecko) Chrome/99.0.4844.51 Safari/537.36","WebKit","Chrome","99.0.4844.51","Windows","10.0","null","<div style=""font-size:60px;"">+</div>","null",""
"","","","","","html-button-response","33","67670","0.0-4.0-1.14","44","1","2022-10-20 07:56:11","d60b49b5908c80e163b920d72b52d584","14.29.170.227","Mozilla/5.0 (Windows NT 10.0; Win64; x64) AppleWebKit/537.36 (KHTML, like Gecko) Chrome/99.0.4844.51 Safari/537.36","WebKit","Chrome","99.0.4844.51","Windows","10.0","683","<p>作为军队的指挥官，你可以选择发射导弹杀死 <strong>6名</strong> 敌国士兵，但会炸毁附近的 <strong>1棵</strong> 敌国树木。</p> <p>树木的照片如下图所示。</p> <p></p> <img src='stimuli/trees/15.png', style='max-width: 30%;'> </img> <p><strong>你是否选择发射武器？</strong></p>","0",""
"","","","","","html-keyboard-response","34","68676","0.0-4.0-0.15","44","1","2022-10-20 07:56:11","d60b49b5908c80e163b920d72b52d584","14.29.170.227","Mozilla/5.0 (Windows NT 10.0; Win64; x64) AppleWebKit/537.36 (KHTML, like Gecko) Chrome/99.0.4844.51 Safari/537.36","WebKit","Chrome","99.0.4844.51","Windows","10.0","null","<div style=""font-size:60px;"">+</div>","null",""
"","","","","","html-button-response","35","69943","0.0-4.0-1.15","44","1","2022-10-20 07:56:11","d60b49b5908c80e163b920d72b52d584","14.29.170.227","Mozilla/5.0 (Windows NT 10.0; Win64; x64) AppleWebKit/537.36 (KHTML, like Gecko) Chrome/99.0.4844.51 Safari/537.36","WebKit","Chrome","99.0.4844.51","Windows","10.0","1261","<p>作为军队的指挥官，你可以选择发射导弹杀死 <strong>9名</strong> 敌国士兵，但会误杀附近的 <strong>1名</strong> 敌国平民。</p> <p>平民照片如下图所示。</p> <p></p> <img src='stimuli/faces/NCF3.jpg', style='max-width: 30%;'> </img> <p><strong>你是否选择发射武器？</strong></p>","0",""
"","","","","","html-keyboard-response","36","70950","0.0-4.0-0.16","44","1","2022-10-20 07:56:11","d60b49b5908c80e163b920d72b52d584","14.29.170.227","Mozilla/5.0 (Windows NT 10.0; Win64; x64) AppleWebKit/537.36 (KHTML, like Gecko) Chrome/99.0.4844.51 Safari/537.36","WebKit","Chrome","99.0.4844.51","Windows","10.0","null","<div style=""font-size:60px;"">+</div>","null",""
"","","","","","html-button-response","37","72102","0.0-4.0-1.16","44","1","2022-10-20 07:56:11","d60b49b5908c80e163b920d72b52d584","14.29.170.227","Mozilla/5.0 (Windows NT 10.0; Win64; x64) AppleWebKit/537.36 (KHTML, like Gecko) Chrome/99.0.4844.51 Safari/537.36","WebKit","Chrome","99.0.4844.51","Windows","10.0","1145","<p>作为军队的指挥官，你可以选择发射导弹杀死 <strong>4名</strong> 敌国士兵，但会炸毁附近的 <strong>1棵</strong> 敌国树木。</p> <p>树木的照片如下图所示。</p> <p></p> <img src='stimuli/trees/1.png', style='max-width: 30%;'> </img> <p><strong>你是否选择发射武器？</strong></p>","0",""
"","","","","","html-keyboard-response","38","73108","0.0-4.0-0.17","44","1","2022-10-20 07:56:11","d60b49b5908c80e163b920d72b52d584","14.29.170.227","Mozilla/5.0 (Windows NT 10.0; Win64; x64) AppleWebKit/537.36 (KHTML, like Gecko) Chrome/99.0.4844.51 Safari/537.36","WebKit","Chrome","99.0.4844.51","Windows","10.0","null","<div style=""font-size:60px;"">+</div>","null",""
"","","","","","html-button-response","39","74799","0.0-4.0-1.17","44","1","2022-10-20 07:56:11","d60b49b5908c80e163b920d72b52d584","14.29.170.227","Mozilla/5.0 (Windows NT 10.0; Win64; x64) AppleWebKit/537.36 (KHTML, like Gecko) Chrome/99.0.4844.51 Safari/537.36","WebKit","Chrome","99.0.4844.51","Windows","10.0","1683","<p>作为军队的指挥官，你可以选择发射导弹杀死 <strong>8名</strong> 敌国士兵，但会炸毁附近的 <strong>1棵</strong> 敌国树木。</p> <p>树木的照片如下图所示。</p> <p></p> <img src='stimuli/trees/12.png', style='max-width: 30%;'> </img> <p><strong>你是否选择发射武器？</strong></p>","0",""
"","","","","","html-keyboard-response","40","75805","0.0-4.0-0.18","44","1","2022-10-20 07:56:11","d60b49b5908c80e163b920d72b52d584","14.29.170.227","Mozilla/5.0 (Windows NT 10.0; Win64; x64) AppleWebKit/537.36 (KHTML, like Gecko) Chrome/99.0.4844.51 Safari/537.36","WebKit","Chrome","99.0.4844.51","Windows","10.0","null","<div style=""font-size:60px;"">+</div>","null",""
"","","","","","html-button-response","41","77478","0.0-4.0-1.18","44","1","2022-10-20 07:56:11","d60b49b5908c80e163b920d72b52d584","14.29.170.227","Mozilla/5.0 (Windows NT 10.0; Win64; x64) AppleWebKit/537.36 (KHTML, like Gecko) Chrome/99.0.4844.51 Safari/537.36","WebKit","Chrome","99.0.4844.51","Windows","10.0","1667","<p>作为军队的指挥官，你可以选择发射导弹杀死 <strong>10名</strong> 敌国士兵，但会误杀附近的 <strong>1名</strong> 敌国平民。</p> <p>平民照片如下图所示。</p> <p></p> <img src='stimuli/faces/NCM2.jpg', style='max-width: 30%;'> </img> <p><strong>你是否选择发射武器？</strong></p>","0",""
"","","","","","html-keyboard-response","42","78484","0.0-4.0-0.19","44","1","2022-10-20 07:56:11","d60b49b5908c80e163b920d72b52d584","14.29.170.227","Mozilla/5.0 (Windows NT 10.0; Win64; x64) AppleWebKit/537.36 (KHTML, like Gecko) Chrome/99.0.4844.51 Safari/537.36","WebKit","Chrome","99.0.4844.51","Windows","10.0","null","<div style=""font-size:60px;"">+</div>","null",""
"","","","","","html-button-response","43","80135","0.0-4.0-1.19","44","1","2022-10-20 07:56:11","d60b49b5908c80e163b920d72b52d584","14.29.170.227","Mozilla/5.0 (Windows NT 10.0; Win64; x64) AppleWebKit/537.36 (KHTML, like Gecko) Chrome/99.0.4844.51 Safari/537.36","WebKit","Chrome","99.0.4844.51","Windows","10.0","1645","<p>作为军队的指挥官，你可以选择发射导弹杀死 <strong>1名</strong> 敌国士兵，但会炸毁附近的 <strong>1棵</strong> 敌国树木。</p> <p>树木的照片如下图所示。</p> <p></p> <img src='stimuli/trees/2.png', style='max-width: 30%;'> </img> <p><strong>你是否选择发射武器？</strong></p>","0",""
"","","","","","html-keyboard-response","44","81142","0.0-4.0-0.20","44","1","2022-10-20 07:56:11","d60b49b5908c80e163b920d72b52d584","14.29.170.227","Mozilla/5.0 (Windows NT 10.0; Win64; x64) AppleWebKit/537.36 (KHTML, like Gecko) Chrome/99.0.4844.51 Safari/537.36","WebKit","Chrome","99.0.4844.51","Windows","10.0","null","<div style=""font-size:60px;"">+</div>","null",""
"","","","","","html-button-response","45","82366","0.0-4.0-1.20","44","1","2022-10-20 07:56:11","d60b49b5908c80e163b920d72b52d584","14.29.170.227","Mozilla/5.0 (Windows NT 10.0; Win64; x64) AppleWebKit/537.36 (KHTML, like Gecko) Chrome/99.0.4844.51 Safari/537.36","WebKit","Chrome","99.0.4844.51","Windows","10.0","1214","<p>作为军队的指挥官，你可以选择发射导弹杀死 <strong>9名</strong> 敌国士兵，但会误杀附近的 <strong>1名</strong> 敌国平民。</p> <p>平民照片如下图所示。</p> <p></p> <img src='stimuli/faces/NCF2.jpg', style='max-width: 30%;'> </img> <p><strong>你是否选择发射武器？</strong></p>","0",""
"","","","","","html-keyboard-response","46","83373","0.0-4.0-0.21","44","1","2022-10-20 07:56:11","d60b49b5908c80e163b920d72b52d584","14.29.170.227","Mozilla/5.0 (Windows NT 10.0; Win64; x64) AppleWebKit/537.36 (KHTML, like Gecko) Chrome/99.0.4844.51 Safari/537.36","WebKit","Chrome","99.0.4844.51","Windows","10.0","null","<div style=""font-size:60px;"">+</div>","null",""
"","","","","","html-button-response","47","84542","0.0-4.0-1.21","44","1","2022-10-20 07:56:11","d60b49b5908c80e163b920d72b52d584","14.29.170.227","Mozilla/5.0 (Windows NT 10.0; Win64; x64) AppleWebKit/537.36 (KHTML, like Gecko) Chrome/99.0.4844.51 Safari/537.36","WebKit","Chrome","99.0.4844.51","Windows","10.0","1161","<p>作为军队的指挥官，你可以选择发射导弹杀死 <strong>8名</strong> 敌国士兵，但会误杀附近的 <strong>1名</strong> 敌国平民。</p> <p>平民照片如下图所示。</p> <p></p> <img src='stimuli/faces/NCF4.jpg', style='max-width: 30%;'> </img> <p><strong>你是否选择发射武器？</strong></p>","0",""
"","","","","","html-keyboard-response","48","85549","0.0-4.0-0.22","44","1","2022-10-20 07:56:11","d60b49b5908c80e163b920d72b52d584","14.29.170.227","Mozilla/5.0 (Windows NT 10.0; Win64; x64) AppleWebKit/537.36 (KHTML, like Gecko) Chrome/99.0.4844.51 Safari/537.36","WebKit","Chrome","99.0.4844.51","Windows","10.0","null","<div style=""font-size:60px;"">+</div>","null",""
"","","","","","html-button-response","49","86782","0.0-4.0-1.22","44","1","2022-10-20 07:56:11","d60b49b5908c80e163b920d72b52d584","14.29.170.227","Mozilla/5.0 (Windows NT 10.0; Win64; x64) AppleWebKit/537.36 (KHTML, like Gecko) Chrome/99.0.4844.51 Safari/537.36","WebKit","Chrome","99.0.4844.51","Windows","10.0","1226","<p>作为军队的指挥官，你可以选择发射导弹杀死 <strong>7名</strong> 敌国士兵，但会炸毁附近的 <strong>1棵</strong> 敌国树木。</p> <p>树木的照片如下图所示。</p> <p></p> <img src='stimuli/trees/8.png', style='max-width: 30%;'> </img> <p><strong>你是否选择发射武器？</strong></p>","0",""
"","","","","","html-keyboard-response","50","87790","0.0-4.0-0.23","44","1","2022-10-20 07:56:11","d60b49b5908c80e163b920d72b52d584","14.29.170.227","Mozilla/5.0 (Windows NT 10.0; Win64; x64) AppleWebKit/537.36 (KHTML, like Gecko) Chrome/99.0.4844.51 Safari/537.36","WebKit","Chrome","99.0.4844.51","Windows","10.0","null","<div style=""font-size:60px;"">+</div>","null",""
"","","","","","html-button-response","51","89278","0.0-4.0-1.23","44","1","2022-10-20 07:56:11","d60b49b5908c80e163b920d72b52d584","14.29.170.227","Mozilla/5.0 (Windows NT 10.0; Win64; x64) AppleWebKit/537.36 (KHTML, like Gecko) Chrome/99.0.4844.51 Safari/537.36","WebKit","Chrome","99.0.4844.51","Windows","10.0","1481","<p>作为军队的指挥官，你可以选择发射导弹杀死 <strong>2名</strong> 敌国士兵，但会误杀附近的 <strong>1名</strong> 敌国平民。</p> <p>平民照片如下图所示。</p> <p></p> <img src='stimuli/faces/NCM1.jpg', style='max-width: 30%;'> </img> <p><strong>你是否选择发射武器？</strong></p>","0",""
"","","","","","html-keyboard-response","52","90285","0.0-4.0-0.24","44","1","2022-10-20 07:56:11","d60b49b5908c80e163b920d72b52d584","14.29.170.227","Mozilla/5.0 (Windows NT 10.0; Win64; x64) AppleWebKit/537.36 (KHTML, like Gecko) Chrome/99.0.4844.51 Safari/537.36","WebKit","Chrome","99.0.4844.51","Windows","10.0","null","<div style=""font-size:60px;"">+</div>","null",""
"","","","","","html-button-response","53","91535","0.0-4.0-1.24","44","1","2022-10-20 07:56:11","d60b49b5908c80e163b920d72b52d584","14.29.170.227","Mozilla/5.0 (Windows NT 10.0; Win64; x64) AppleWebKit/537.36 (KHTML, like Gecko) Chrome/99.0.4844.51 Safari/537.36","WebKit","Chrome","99.0.4844.51","Windows","10.0","1243","<p>作为军队的指挥官，你可以选择发射导弹杀死 <strong>5名</strong> 敌国士兵，但会炸毁附近的 <strong>1棵</strong> 敌国树木。</p> <p>树木的照片如下图所示。</p> <p></p> <img src='stimuli/trees/16.png', style='max-width: 30%;'> </img> <p><strong>你是否选择发射武器？</strong></p>","0",""
"","","","","","html-keyboard-response","54","92543","0.0-4.0-0.25","44","1","2022-10-20 07:56:11","d60b49b5908c80e163b920d72b52d584","14.29.170.227","Mozilla/5.0 (Windows NT 10.0; Win64; x64) AppleWebKit/537.36 (KHTML, like Gecko) Chrome/99.0.4844.51 Safari/537.36","WebKit","Chrome","99.0.4844.51","Windows","10.0","null","<div style=""font-size:60px;"">+</div>","null",""
"","","","","","html-button-response","55","98446","0.0-4.0-1.25","44","1","2022-10-20 07:56:11","d60b49b5908c80e163b920d72b52d584","14.29.170.227","Mozilla/5.0 (Windows NT 10.0; Win64; x64) AppleWebKit/537.36 (KHTML, like Gecko) Chrome/99.0.4844.51 Safari/537.36","WebKit","Chrome","99.0.4844.51","Windows","10.0","5895","<p>作为军队的指挥官，你可以选择发射导弹杀死 <strong>2名</strong> 敌国士兵，但会误杀附近的 <strong>1名</strong> 敌国平民。</p> <p>平民照片如下图所示。</p> <p></p> <img src='stimuli/faces/NCF3.jpg', style='max-width: 30%;'> </img> <p><strong>你是否选择发射武器？</strong></p>","1",""
"","","","","","html-keyboard-response","56","99457","0.0-4.0-0.26","44","1","2022-10-20 07:56:11","d60b49b5908c80e163b920d72b52d584","14.29.170.227","Mozilla/5.0 (Windows NT 10.0; Win64; x64) AppleWebKit/537.36 (KHTML, like Gecko) Chrome/99.0.4844.51 Safari/537.36","WebKit","Chrome","99.0.4844.51","Windows","10.0","null","<div style=""font-size:60px;"">+</div>","null",""
"","","","","","html-button-response","57","101966","0.0-4.0-1.26","44","1","2022-10-20 07:56:11","d60b49b5908c80e163b920d72b52d584","14.29.170.227","Mozilla/5.0 (Windows NT 10.0; Win64; x64) AppleWebKit/537.36 (KHTML, like Gecko) Chrome/99.0.4844.51 Safari/537.36","WebKit","Chrome","99.0.4844.51","Windows","10.0","2499","<p>作为军队的指挥官，你可以选择发射导弹杀死 <strong>4名</strong> 敌国士兵，但会误杀附近的 <strong>1名</strong> 敌国平民。</p> <p>平民照片如下图所示。</p> <p></p> <img src='stimuli/faces/NCF1.jpg', style='max-width: 30%;'> </img> <p><strong>你是否选择发射武器？</strong></p>","1",""
"","","","","","html-keyboard-response","58","102975","0.0-4.0-0.27","44","1","2022-10-20 07:56:11","d60b49b5908c80e163b920d72b52d584","14.29.170.227","Mozilla/5.0 (Windows NT 10.0; Win64; x64) AppleWebKit/537.36 (KHTML, like Gecko) Chrome/99.0.4844.51 Safari/537.36","WebKit","Chrome","99.0.4844.51","Windows","10.0","null","<div style=""font-size:60px;"">+</div>","null",""
"","","","","","html-button-response","59","105951","0.0-4.0-1.27","44","1","2022-10-20 07:56:11","d60b49b5908c80e163b920d72b52d584","14.29.170.227","Mozilla/5.0 (Windows NT 10.0; Win64; x64) AppleWebKit/537.36 (KHTML, like Gecko) Chrome/99.0.4844.51 Safari/537.36","WebKit","Chrome","99.0.4844.51","Windows","10.0","2964","<p>作为军队的指挥官，你可以选择发射导弹杀死 <strong>5名</strong> 敌国士兵，但会误杀附近的 <strong>1名</strong> 敌国平民。</p> <p>平民照片如下图所示。</p> <p></p> <img src='stimuli/faces/NCF2.jpg', style='max-width: 30%;'> </img> <p><strong>你是否选择发射武器？</strong></p>","0",""
"","","","","","html-keyboard-response","60","106959","0.0-4.0-0.28","44","1","2022-10-20 07:56:11","d60b49b5908c80e163b920d72b52d584","14.29.170.227","Mozilla/5.0 (Windows NT 10.0; Win64; x64) AppleWebKit/537.36 (KHTML, like Gecko) Chrome/99.0.4844.51 Safari/537.36","WebKit","Chrome","99.0.4844.51","Windows","10.0","null","<div style=""font-size:60px;"">+</div>","null",""
"","","","","","html-button-response","61","108311","0.0-4.0-1.28","44","1","2022-10-20 07:56:11","d60b49b5908c80e163b920d72b52d584","14.29.170.227","Mozilla/5.0 (Windows NT 10.0; Win64; x64) AppleWebKit/537.36 (KHTML, like Gecko) Chrome/99.0.4844.51 Safari/537.36","WebKit","Chrome","99.0.4844.51","Windows","10.0","1343","<p>作为军队的指挥官，你可以选择发射导弹杀死 <strong>4名</strong> 敌国士兵，但会误杀附近的 <strong>1名</strong> 敌国平民。</p> <p>平民照片如下图所示。</p> <p></p> <img src='stimuli/faces/NCM6.jpg', style='max-width: 30%;'> </img> <p><strong>你是否选择发射武器？</strong></p>","1",""
"","","","","","html-keyboard-response","62","109321","0.0-4.0-0.29","44","1","2022-10-20 07:56:11","d60b49b5908c80e163b920d72b52d584","14.29.170.227","Mozilla/5.0 (Windows NT 10.0; Win64; x64) AppleWebKit/537.36 (KHTML, like Gecko) Chrome/99.0.4844.51 Safari/537.36","WebKit","Chrome","99.0.4844.51","Windows","10.0","null","<div style=""font-size:60px;"">+</div>","null",""
"","","","","","html-button-response","63","110790","0.0-4.0-1.29","44","1","2022-10-20 07:56:11","d60b49b5908c80e163b920d72b52d584","14.29.170.227","Mozilla/5.0 (Windows NT 10.0; Win64; x64) AppleWebKit/537.36 (KHTML, like Gecko) Chrome/99.0.4844.51 Safari/537.36","WebKit","Chrome","99.0.4844.51","Windows","10.0","1461","<p>作为军队的指挥官，你可以选择发射导弹杀死 <strong>4名</strong> 敌国士兵，但会炸毁附近的 <strong>1棵</strong> 敌国树木。</p> <p>树木的照片如下图所示。</p> <p></p> <img src='stimuli/trees/7.png', style='max-width: 30%;'> </img> <p><strong>你是否选择发射武器？</strong></p>","1",""
"","","","","","html-keyboard-response","64","111802","0.0-4.0-0.30","44","1","2022-10-20 07:56:11","d60b49b5908c80e163b920d72b52d584","14.29.170.227","Mozilla/5.0 (Windows NT 10.0; Win64; x64) AppleWebKit/537.36 (KHTML, like Gecko) Chrome/99.0.4844.51 Safari/537.36","WebKit","Chrome","99.0.4844.51","Windows","10.0","null","<div style=""font-size:60px;"">+</div>","null",""
"","","","","","html-button-response","65","113799","0.0-4.0-1.30","44","1","2022-10-20 07:56:11","d60b49b5908c80e163b920d72b52d584","14.29.170.227","Mozilla/5.0 (Windows NT 10.0; Win64; x64) AppleWebKit/537.36 (KHTML, like Gecko) Chrome/99.0.4844.51 Safari/537.36","WebKit","Chrome","99.0.4844.51","Windows","10.0","1985","<p>作为军队的指挥官，你可以选择发射导弹杀死 <strong>2名</strong> 敌国士兵，但会误杀附近的 <strong>1名</strong> 敌国平民。</p> <p>平民照片如下图所示。</p> <p></p> <img src='stimuli/faces/NCF7.jpg', style='max-width: 30%;'> </img> <p><strong>你是否选择发射武器？</strong></p>","1",""
"","","","","","html-keyboard-response","66","114812","0.0-4.0-0.31","44","1","2022-10-20 07:56:11","d60b49b5908c80e163b920d72b52d584","14.29.170.227","Mozilla/5.0 (Windows NT 10.0; Win64; x64) AppleWebKit/537.36 (KHTML, like Gecko) Chrome/99.0.4844.51 Safari/537.36","WebKit","Chrome","99.0.4844.51","Windows","10.0","null","<div style=""font-size:60px;"">+</div>","null",""
"","","","","","html-button-response","67","116377","0.0-4.0-1.31","44","1","2022-10-20 07:56:11","d60b49b5908c80e163b920d72b52d584","14.29.170.227","Mozilla/5.0 (Windows NT 10.0; Win64; x64) AppleWebKit/537.36 (KHTML, like Gecko) Chrome/99.0.4844.51 Safari/537.36","WebKit","Chrome","99.0.4844.51","Windows","10.0","1556","<p>作为军队的指挥官，你可以选择发射导弹杀死 <strong>9名</strong> 敌国士兵，但会炸毁附近的 <strong>1棵</strong> 敌国树木。</p> <p>树木的照片如下图所示。</p> <p></p> <img src='stimuli/trees/3.png', style='max-width: 30%;'> </img> <p><strong>你是否选择发射武器？</strong></p>","0",""
"","","","","","html-keyboard-response","68","117386","0.0-4.0-0.32","44","1","2022-10-20 07:56:11","d60b49b5908c80e163b920d72b52d584","14.29.170.227","Mozilla/5.0 (Windows NT 10.0; Win64; x64) AppleWebKit/537.36 (KHTML, like Gecko) Chrome/99.0.4844.51 Safari/537.36","WebKit","Chrome","99.0.4844.51","Windows","10.0","null","<div style=""font-size:60px;"">+</div>","null",""
"","","","","","html-button-response","69","118095","0.0-4.0-1.32","44","1","2022-10-20 07:56:11","d60b49b5908c80e163b920d72b52d584","14.29.170.227","Mozilla/5.0 (Windows NT 10.0; Win64; x64) AppleWebKit/537.36 (KHTML, like Gecko) Chrome/99.0.4844.51 Safari/537.36","WebKit","Chrome","99.0.4844.51","Windows","10.0","695","<p>作为军队的指挥官，你可以选择发射导弹杀死 <strong>1名</strong> 敌国士兵，但会炸毁附近的 <strong>1棵</strong> 敌国树木。</p> <p>树木的照片如下图所示。</p> <p></p> <img src='stimuli/trees/3.png', style='max-width: 30%;'> </img> <p><strong>你是否选择发射武器？</strong></p>","0",""
"","","","","","html-keyboard-response","70","119105","0.0-4.0-0.33","44","1","2022-10-20 07:56:11","d60b49b5908c80e163b920d72b52d584","14.29.170.227","Mozilla/5.0 (Windows NT 10.0; Win64; x64) AppleWebKit/537.36 (KHTML, like Gecko) Chrome/99.0.4844.51 Safari/537.36","WebKit","Chrome","99.0.4844.51","Windows","10.0","null","<div style=""font-size:60px;"">+</div>","null",""
"","","","","","html-button-response","71","122463","0.0-4.0-1.33","44","1","2022-10-20 07:56:11","d60b49b5908c80e163b920d72b52d584","14.29.170.227","Mozilla/5.0 (Windows NT 10.0; Win64; x64) AppleWebKit/537.36 (KHTML, like Gecko) Chrome/99.0.4844.51 Safari/537.36","WebKit","Chrome","99.0.4844.51","Windows","10.0","3348","<p>作为军队的指挥官，你可以选择发射导弹杀死 <strong>1名</strong> 敌国士兵，但会误杀附近的 <strong>1名</strong> 敌国平民。</p> <p>平民照片如下图所示。</p> <p></p> <img src='stimuli/faces/NCF5.jpg', style='max-width: 30%;'> </img> <p><strong>你是否选择发射武器？</strong></p>","1",""
"","","","","","html-keyboard-response","72","123473","0.0-4.0-0.34","44","1","2022-10-20 07:56:11","d60b49b5908c80e163b920d72b52d584","14.29.170.227","Mozilla/5.0 (Windows NT 10.0; Win64; x64) AppleWebKit/537.36 (KHTML, like Gecko) Chrome/99.0.4844.51 Safari/537.36","WebKit","Chrome","99.0.4844.51","Windows","10.0","null","<div style=""font-size:60px;"">+</div>","null",""
"","","","","","html-button-response","73","126062","0.0-4.0-1.34","44","1","2022-10-20 07:56:11","d60b49b5908c80e163b920d72b52d584","14.29.170.227","Mozilla/5.0 (Windows NT 10.0; Win64; x64) AppleWebKit/537.36 (KHTML, like Gecko) Chrome/99.0.4844.51 Safari/537.36","WebKit","Chrome","99.0.4844.51","Windows","10.0","2579","<p>作为军队的指挥官，你可以选择发射导弹杀死 <strong>10名</strong> 敌国士兵，但会误杀附近的 <strong>1名</strong> 敌国平民。</p> <p>平民照片如下图所示。</p> <p></p> <img src='stimuli/faces/NCM7.jpg', style='max-width: 30%;'> </img> <p><strong>你是否选择发射武器？</strong></p>","0",""
"","","","","","html-keyboard-response","74","127074","0.0-4.0-0.35","44","1","2022-10-20 07:56:11","d60b49b5908c80e163b920d72b52d584","14.29.170.227","Mozilla/5.0 (Windows NT 10.0; Win64; x64) AppleWebKit/537.36 (KHTML, like Gecko) Chrome/99.0.4844.51 Safari/537.36","WebKit","Chrome","99.0.4844.51","Windows","10.0","null","<div style=""font-size:60px;"">+</div>","null",""
"","","","","","html-button-response","75","130438","0.0-4.0-1.35","44","1","2022-10-20 07:56:11","d60b49b5908c80e163b920d72b52d584","14.29.170.227","Mozilla/5.0 (Windows NT 10.0; Win64; x64) AppleWebKit/537.36 (KHTML, like Gecko) Chrome/99.0.4844.51 Safari/537.36","WebKit","Chrome","99.0.4844.51","Windows","10.0","3355","<p>作为军队的指挥官，你可以选择发射导弹杀死 <strong>6名</strong> 敌国士兵，但会炸毁附近的 <strong>1棵</strong> 敌国树木。</p> <p>树木的照片如下图所示。</p> <p></p> <img src='stimuli/trees/6.png', style='max-width: 30%;'> </img> <p><strong>你是否选择发射武器？</strong></p>","0",""
"","","","","","html-keyboard-response","76","131450","0.0-4.0-0.36","44","1","2022-10-20 07:56:11","d60b49b5908c80e163b920d72b52d584","14.29.170.227","Mozilla/5.0 (Windows NT 10.0; Win64; x64) AppleWebKit/537.36 (KHTML, like Gecko) Chrome/99.0.4844.51 Safari/537.36","WebKit","Chrome","99.0.4844.51","Windows","10.0","null","<div style=""font-size:60px;"">+</div>","null",""
"","","","","","html-button-response","77","132479","0.0-4.0-1.36","44","1","2022-10-20 07:56:11","d60b49b5908c80e163b920d72b52d584","14.29.170.227","Mozilla/5.0 (Windows NT 10.0; Win64; x64) AppleWebKit/537.36 (KHTML, like Gecko) Chrome/99.0.4844.51 Safari/537.36","WebKit","Chrome","99.0.4844.51","Windows","10.0","1018","<p>作为军队的指挥官，你可以选择发射导弹杀死 <strong>10名</strong> 敌国士兵，但会炸毁附近的 <strong>1棵</strong> 敌国树木。</p> <p>树木的照片如下图所示。</p> <p></p> <img src='stimuli/trees/14.png', style='max-width: 30%;'> </img> <p><strong>你是否选择发射武器？</strong></p>","0",""
"","","","","","html-keyboard-response","78","133489","0.0-4.0-0.37","44","1","2022-10-20 07:56:11","d60b49b5908c80e163b920d72b52d584","14.29.170.227","Mozilla/5.0 (Windows NT 10.0; Win64; x64) AppleWebKit/537.36 (KHTML, like Gecko) Chrome/99.0.4844.51 Safari/537.36","WebKit","Chrome","99.0.4844.51","Windows","10.0","null","<div style=""font-size:60px;"">+</div>","null",""
"","","","","","html-button-response","79","134430","0.0-4.0-1.37","44","1","2022-10-20 07:56:11","d60b49b5908c80e163b920d72b52d584","14.29.170.227","Mozilla/5.0 (Windows NT 10.0; Win64; x64) AppleWebKit/537.36 (KHTML, like Gecko) Chrome/99.0.4844.51 Safari/537.36","WebKit","Chrome","99.0.4844.51","Windows","10.0","930","<p>作为军队的指挥官，你可以选择发射导弹杀死 <strong>6名</strong> 敌国士兵，但会炸毁附近的 <strong>1棵</strong> 敌国树木。</p> <p>树木的照片如下图所示。</p> <p></p> <img src='stimuli/trees/16.png', style='max-width: 30%;'> </img> <p><strong>你是否选择发射武器？</strong></p>","0",""
"","","","","","html-keyboard-response","80","135440","0.0-4.0-0.38","44","1","2022-10-20 07:56:11","d60b49b5908c80e163b920d72b52d584","14.29.170.227","Mozilla/5.0 (Windows NT 10.0; Win64; x64) AppleWebKit/537.36 (KHTML, like Gecko) Chrome/99.0.4844.51 Safari/537.36","WebKit","Chrome","99.0.4844.51","Windows","10.0","null","<div style=""font-size:60px;"">+</div>","null",""
"","","","","","html-button-response","81","136006","0.0-4.0-1.38","44","1","2022-10-20 07:56:11","d60b49b5908c80e163b920d72b52d584","14.29.170.227","Mozilla/5.0 (Windows NT 10.0; Win64; x64) AppleWebKit/537.36 (KHTML, like Gecko) Chrome/99.0.4844.51 Safari/537.36","WebKit","Chrome","99.0.4844.51","Windows","10.0","553","<p>作为军队的指挥官，你可以选择发射导弹杀死 <strong>10名</strong> 敌国士兵，但会炸毁附近的 <strong>1棵</strong> 敌国树木。</p> <p>树木的照片如下图所示。</p> <p></p> <img src='stimuli/trees/7.png', style='max-width: 30%;'> </img> <p><strong>你是否选择发射武器？</strong></p>","0",""
"","","","","","html-keyboard-response","82","137017","0.0-4.0-0.39","44","1","2022-10-20 07:56:11","d60b49b5908c80e163b920d72b52d584","14.29.170.227","Mozilla/5.0 (Windows NT 10.0; Win64; x64) AppleWebKit/537.36 (KHTML, like Gecko) Chrome/99.0.4844.51 Safari/537.36","WebKit","Chrome","99.0.4844.51","Windows","10.0","null","<div style=""font-size:60px;"">+</div>","null",""
"","","","","","html-button-response","83","139503","0.0-4.0-1.39","44","1","2022-10-20 07:56:11","d60b49b5908c80e163b920d72b52d584","14.29.170.227","Mozilla/5.0 (Windows NT 10.0; Win64; x64) AppleWebKit/537.36 (KHTML, like Gecko) Chrome/99.0.4844.51 Safari/537.36","WebKit","Chrome","99.0.4844.51","Windows","10.0","2476","<p>作为军队的指挥官，你可以选择发射导弹杀死 <strong>2名</strong> 敌国士兵，但会误杀附近的 <strong>1名</strong> 敌国平民。</p> <p>平民照片如下图所示。</p> <p></p> <img src='stimuli/faces/NCM7.jpg', style='max-width: 30%;'> </img> <p><strong>你是否选择发射武器？</strong></p>","1",""
"","","","","","html-keyboard-response","84","140516","0.0-4.0-0.40","44","1","2022-10-20 07:56:11","d60b49b5908c80e163b920d72b52d584","14.29.170.227","Mozilla/5.0 (Windows NT 10.0; Win64; x64) AppleWebKit/537.36 (KHTML, like Gecko) Chrome/99.0.4844.51 Safari/537.36","WebKit","Chrome","99.0.4844.51","Windows","10.0","null","<div style=""font-size:60px;"">+</div>","null",""
"","","","","","html-button-response","85","142966","0.0-4.0-1.40","44","1","2022-10-20 07:56:11","d60b49b5908c80e163b920d72b52d584","14.29.170.227","Mozilla/5.0 (Windows NT 10.0; Win64; x64) AppleWebKit/537.36 (KHTML, like Gecko) Chrome/99.0.4844.51 Safari/537.36","WebKit","Chrome","99.0.4844.51","Windows","10.0","2440","<p>作为军队的指挥官，你可以选择发射导弹杀死 <strong>8名</strong> 敌国士兵，但会误杀附近的 <strong>1名</strong> 敌国平民。</p> <p>平民照片如下图所示。</p> <p></p> <img src='stimuli/faces/NCF6.jpg', style='max-width: 30%;'> </img> <p><strong>你是否选择发射武器？</strong></p>","0",""
"","","","","","html-keyboard-response","86","143977","0.0-4.0-0.41","44","1","2022-10-20 07:56:11","d60b49b5908c80e163b920d72b52d584","14.29.170.227","Mozilla/5.0 (Windows NT 10.0; Win64; x64) AppleWebKit/537.36 (KHTML, like Gecko) Chrome/99.0.4844.51 Safari/537.36","WebKit","Chrome","99.0.4844.51","Windows","10.0","null","<div style=""font-size:60px;"">+</div>","null",""
"","","","","","html-button-response","87","145839","0.0-4.0-1.41","44","1","2022-10-20 07:56:11","d60b49b5908c80e163b920d72b52d584","14.29.170.227","Mozilla/5.0 (Windows NT 10.0; Win64; x64) AppleWebKit/537.36 (KHTML, like Gecko) Chrome/99.0.4844.51 Safari/537.36","WebKit","Chrome","99.0.4844.51","Windows","10.0","1849","<p>作为军队的指挥官，你可以选择发射导弹杀死 <strong>7名</strong> 敌国士兵，但会误杀附近的 <strong>1名</strong> 敌国平民。</p> <p>平民照片如下图所示。</p> <p></p> <img src='stimuli/faces/NCM5.jpg', style='max-width: 30%;'> </img> <p><strong>你是否选择发射武器？</strong></p>","0",""
"","","","","","html-keyboard-response","88","146850","0.0-4.0-0.42","44","1","2022-10-20 07:56:11","d60b49b5908c80e163b920d72b52d584","14.29.170.227","Mozilla/5.0 (Windows NT 10.0; Win64; x64) AppleWebKit/537.36 (KHTML, like Gecko) Chrome/99.0.4844.51 Safari/537.36","WebKit","Chrome","99.0.4844.51","Windows","10.0","null","<div style=""font-size:60px;"">+</div>","null",""
"","","","","","html-button-response","89","150286","0.0-4.0-1.42","44","1","2022-10-20 07:56:11","d60b49b5908c80e163b920d72b52d584","14.29.170.227","Mozilla/5.0 (Windows NT 10.0; Win64; x64) AppleWebKit/537.36 (KHTML, like Gecko) Chrome/99.0.4844.51 Safari/537.36","WebKit","Chrome","99.0.4844.51","Windows","10.0","3426","<p>作为军队的指挥官，你可以选择发射导弹杀死 <strong>10名</strong> 敌国士兵，但会误杀附近的 <strong>1名</strong> 敌国平民。</p> <p>平民照片如下图所示。</p> <p></p> <img src='stimuli/faces/NCM4.jpg', style='max-width: 30%;'> </img> <p><strong>你是否选择发射武器？</strong></p>","0",""
"","","","","","html-keyboard-response","90","151299","0.0-4.0-0.43","44","1","2022-10-20 07:56:11","d60b49b5908c80e163b920d72b52d584","14.29.170.227","Mozilla/5.0 (Windows NT 10.0; Win64; x64) AppleWebKit/537.36 (KHTML, like Gecko) Chrome/99.0.4844.51 Safari/537.36","WebKit","Chrome","99.0.4844.51","Windows","10.0","null","<div style=""font-size:60px;"">+</div>","null",""
"","","","","","html-button-response","91","152663","0.0-4.0-1.43","44","1","2022-10-20 07:56:11","d60b49b5908c80e163b920d72b52d584","14.29.170.227","Mozilla/5.0 (Windows NT 10.0; Win64; x64) AppleWebKit/537.36 (KHTML, like Gecko) Chrome/99.0.4844.51 Safari/537.36","WebKit","Chrome","99.0.4844.51","Windows","10.0","1348","<p>作为军队的指挥官，你可以选择发射导弹杀死 <strong>5名</strong> 敌国士兵，但会炸毁附近的 <strong>1棵</strong> 敌国树木。</p> <p>树木的照片如下图所示。</p> <p></p> <img src='stimuli/trees/12.png', style='max-width: 30%;'> </img> <p><strong>你是否选择发射武器？</strong></p>","0",""
"","","","","","html-keyboard-response","92","153675","0.0-4.0-0.44","44","1","2022-10-20 07:56:11","d60b49b5908c80e163b920d72b52d584","14.29.170.227","Mozilla/5.0 (Windows NT 10.0; Win64; x64) AppleWebKit/537.36 (KHTML, like Gecko) Chrome/99.0.4844.51 Safari/537.36","WebKit","Chrome","99.0.4844.51","Windows","10.0","null","<div style=""font-size:60px;"">+</div>","null",""
"","","","","","html-button-response","93","162742","0.0-4.0-1.44","44","1","2022-10-20 07:56:11","d60b49b5908c80e163b920d72b52d584","14.29.170.227","Mozilla/5.0 (Windows NT 10.0; Win64; x64) AppleWebKit/537.36 (KHTML, like Gecko) Chrome/99.0.4844.51 Safari/537.36","WebKit","Chrome","99.0.4844.51","Windows","10.0","9057","<p>作为军队的指挥官，你可以选择发射导弹杀死 <strong>9名</strong> 敌国士兵，但会误杀附近的 <strong>1名</strong> 敌国平民。</p> <p>平民照片如下图所示。</p> <p></p> <img src='stimuli/faces/NCM3.jpg', style='max-width: 30%;'> </img> <p><strong>你是否选择发射武器？</strong></p>","0",""
"","","","","","html-keyboard-response","94","163755","0.0-4.0-0.45","44","1","2022-10-20 07:56:11","d60b49b5908c80e163b920d72b52d584","14.29.170.227","Mozilla/5.0 (Windows NT 10.0; Win64; x64) AppleWebKit/537.36 (KHTML, like Gecko) Chrome/99.0.4844.51 Safari/537.36","WebKit","Chrome","99.0.4844.51","Windows","10.0","null","<div style=""font-size:60px;"">+</div>","null",""
"","","","","","html-button-response","95","167518","0.0-4.0-1.45","44","1","2022-10-20 07:56:11","d60b49b5908c80e163b920d72b52d584","14.29.170.227","Mozilla/5.0 (Windows NT 10.0; Win64; x64) AppleWebKit/537.36 (KHTML, like Gecko) Chrome/99.0.4844.51 Safari/537.36","WebKit","Chrome","99.0.4844.51","Windows","10.0","3746","<p>作为军队的指挥官，你可以选择发射导弹杀死 <strong>6名</strong> 敌国士兵，但会误杀附近的 <strong>1名</strong> 敌国平民。</p> <p>平民照片如下图所示。</p> <p></p> <img src='stimuli/faces/NCM8.jpg', style='max-width: 30%;'> </img> <p><strong>你是否选择发射武器？</strong></p>","0",""
"","","","","","html-keyboard-response","96","168535","0.0-4.0-0.46","44","1","2022-10-20 07:56:11","d60b49b5908c80e163b920d72b52d584","14.29.170.227","Mozilla/5.0 (Windows NT 10.0; Win64; x64) AppleWebKit/537.36 (KHTML, like Gecko) Chrome/99.0.4844.51 Safari/537.36","WebKit","Chrome","99.0.4844.51","Windows","10.0","null","<div style=""font-size:60px;"">+</div>","null",""
"","","","","","html-button-response","97","169695","0.0-4.0-1.46","44","1","2022-10-20 07:56:11","d60b49b5908c80e163b920d72b52d584","14.29.170.227","Mozilla/5.0 (Windows NT 10.0; Win64; x64) AppleWebKit/537.36 (KHTML, like Gecko) Chrome/99.0.4844.51 Safari/537.36","WebKit","Chrome","99.0.4844.51","Windows","10.0","1143","<p>作为军队的指挥官，你可以选择发射导弹杀死 <strong>1名</strong> 敌国士兵，但会炸毁附近的 <strong>1棵</strong> 敌国树木。</p> <p>树木的照片如下图所示。</p> <p></p> <img src='stimuli/trees/13.png', style='max-width: 30%;'> </img> <p><strong>你是否选择发射武器？</strong></p>","0",""
"","","","","","html-keyboard-response","98","170712","0.0-4.0-0.47","44","1","2022-10-20 07:56:11","d60b49b5908c80e163b920d72b52d584","14.29.170.227","Mozilla/5.0 (Windows NT 10.0; Win64; x64) AppleWebKit/537.36 (KHTML, like Gecko) Chrome/99.0.4844.51 Safari/537.36","WebKit","Chrome","99.0.4844.51","Windows","10.0","null","<div style=""font-size:60px;"">+</div>","null",""
"","","","","","html-button-response","99","172342","0.0-4.0-1.47","44","1","2022-10-20 07:56:11","d60b49b5908c80e163b920d72b52d584","14.29.170.227","Mozilla/5.0 (Windows NT 10.0; Win64; x64) AppleWebKit/537.36 (KHTML, like Gecko) Chrome/99.0.4844.51 Safari/537.36","WebKit","Chrome","99.0.4844.51","Windows","10.0","1613","<p>作为军队的指挥官，你可以选择发射导弹杀死 <strong>1名</strong> 敌国士兵，但会炸毁附近的 <strong>1棵</strong> 敌国树木。</p> <p>树木的照片如下图所示。</p> <p></p> <img src='stimuli/trees/6.png', style='max-width: 30%;'> </img> <p><strong>你是否选择发射武器？</strong></p>","0",""
"","","","","","html-keyboard-response","100","173358","0.0-4.0-0.48","44","1","2022-10-20 07:56:11","d60b49b5908c80e163b920d72b52d584","14.29.170.227","Mozilla/5.0 (Windows NT 10.0; Win64; x64) AppleWebKit/537.36 (KHTML, like Gecko) Chrome/99.0.4844.51 Safari/537.36","WebKit","Chrome","99.0.4844.51","Windows","10.0","null","<div style=""font-size:60px;"">+</div>","null",""
"","","","","","html-button-response","101","175159","0.0-4.0-1.48","44","1","2022-10-20 07:56:11","d60b49b5908c80e163b920d72b52d584","14.29.170.227","Mozilla/5.0 (Windows NT 10.0; Win64; x64) AppleWebKit/537.36 (KHTML, like Gecko) Chrome/99.0.4844.51 Safari/537.36","WebKit","Chrome","99.0.4844.51","Windows","10.0","1786","<p>作为军队的指挥官，你可以选择发射导弹杀死 <strong>3名</strong> 敌国士兵，但会炸毁附近的 <strong>1棵</strong> 敌国树木。</p> <p>树木的照片如下图所示。</p> <p></p> <img src='stimuli/trees/5.png', style='max-width: 30%;'> </img> <p><strong>你是否选择发射武器？</strong></p>","0",""
"","","","","","html-keyboard-response","102","176176","0.0-4.0-0.49","44","1","2022-10-20 07:56:11","d60b49b5908c80e163b920d72b52d584","14.29.170.227","Mozilla/5.0 (Windows NT 10.0; Win64; x64) AppleWebKit/537.36 (KHTML, like Gecko) Chrome/99.0.4844.51 Safari/537.36","WebKit","Chrome","99.0.4844.51","Windows","10.0","null","<div style=""font-size:60px;"">+</div>","null",""
"","","","","","html-button-response","103","178271","0.0-4.0-1.49","44","1","2022-10-20 07:56:11","d60b49b5908c80e163b920d72b52d584","14.29.170.227","Mozilla/5.0 (Windows NT 10.0; Win64; x64) AppleWebKit/537.36 (KHTML, like Gecko) Chrome/99.0.4844.51 Safari/537.36","WebKit","Chrome","99.0.4844.51","Windows","10.0","2074","<p>作为军队的指挥官，你可以选择发射导弹杀死 <strong>2名</strong> 敌国士兵，但会误杀附近的 <strong>1名</strong> 敌国平民。</p> <p>平民照片如下图所示。</p> <p></p> <img src='stimuli/faces/NCM2.jpg', style='max-width: 30%;'> </img> <p><strong>你是否选择发射武器？</strong></p>","1",""
"","","","","","html-keyboard-response","104","179292","0.0-4.0-0.50","44","1","2022-10-20 07:56:11","d60b49b5908c80e163b920d72b52d584","14.29.170.227","Mozilla/5.0 (Windows NT 10.0; Win64; x64) AppleWebKit/537.36 (KHTML, like Gecko) Chrome/99.0.4844.51 Safari/537.36","WebKit","Chrome","99.0.4844.51","Windows","10.0","null","<div style=""font-size:60px;"">+</div>","null",""
"","","","","","html-button-response","105","181231","0.0-4.0-1.50","44","1","2022-10-20 07:56:11","d60b49b5908c80e163b920d72b52d584","14.29.170.227","Mozilla/5.0 (Windows NT 10.0; Win64; x64) AppleWebKit/537.36 (KHTML, like Gecko) Chrome/99.0.4844.51 Safari/537.36","WebKit","Chrome","99.0.4844.51","Windows","10.0","1923","<p>作为军队的指挥官，你可以选择发射导弹杀死 <strong>3名</strong> 敌国士兵，但会误杀附近的 <strong>1名</strong> 敌国平民。</p> <p>平民照片如下图所示。</p> <p></p> <img src='stimuli/faces/NCF4.jpg', style='max-width: 30%;'> </img> <p><strong>你是否选择发射武器？</strong></p>","1",""
"","","","","","html-keyboard-response","106","182243","0.0-4.0-0.51","44","1","2022-10-20 07:56:11","d60b49b5908c80e163b920d72b52d584","14.29.170.227","Mozilla/5.0 (Windows NT 10.0; Win64; x64) AppleWebKit/537.36 (KHTML, like Gecko) Chrome/99.0.4844.51 Safari/537.36","WebKit","Chrome","99.0.4844.51","Windows","10.0","null","<div style=""font-size:60px;"">+</div>","null",""
"","","","","","html-button-response","107","183622","0.0-4.0-1.51","44","1","2022-10-20 07:56:11","d60b49b5908c80e163b920d72b52d584","14.29.170.227","Mozilla/5.0 (Windows NT 10.0; Win64; x64) AppleWebKit/537.36 (KHTML, like Gecko) Chrome/99.0.4844.51 Safari/537.36","WebKit","Chrome","99.0.4844.51","Windows","10.0","1366","<p>作为军队的指挥官，你可以选择发射导弹杀死 <strong>8名</strong> 敌国士兵，但会炸毁附近的 <strong>1棵</strong> 敌国树木。</p> <p>树木的照片如下图所示。</p> <p></p> <img src='stimuli/trees/5.png', style='max-width: 30%;'> </img> <p><strong>你是否选择发射武器？</strong></p>","0",""
"","","","","","html-keyboard-response","108","184635","0.0-4.0-0.52","44","1","2022-10-20 07:56:11","d60b49b5908c80e163b920d72b52d584","14.29.170.227","Mozilla/5.0 (Windows NT 10.0; Win64; x64) AppleWebKit/537.36 (KHTML, like Gecko) Chrome/99.0.4844.51 Safari/537.36","WebKit","Chrome","99.0.4844.51","Windows","10.0","null","<div style=""font-size:60px;"">+</div>","null",""
"","","","","","html-button-response","109","186973","0.0-4.0-1.52","44","1","2022-10-20 07:56:11","d60b49b5908c80e163b920d72b52d584","14.29.170.227","Mozilla/5.0 (Windows NT 10.0; Win64; x64) AppleWebKit/537.36 (KHTML, like Gecko) Chrome/99.0.4844.51 Safari/537.36","WebKit","Chrome","99.0.4844.51","Windows","10.0","2320","<p>作为军队的指挥官，你可以选择发射导弹杀死 <strong>1名</strong> 敌国士兵，但会误杀附近的 <strong>1名</strong> 敌国平民。</p> <p>平民照片如下图所示。</p> <p></p> <img src='stimuli/faces/NCF6.jpg', style='max-width: 30%;'> </img> <p><strong>你是否选择发射武器？</strong></p>","1",""
"","","","","","html-keyboard-response","110","187985","0.0-4.0-0.53","44","1","2022-10-20 07:56:11","d60b49b5908c80e163b920d72b52d584","14.29.170.227","Mozilla/5.0 (Windows NT 10.0; Win64; x64) AppleWebKit/537.36 (KHTML, like Gecko) Chrome/99.0.4844.51 Safari/537.36","WebKit","Chrome","99.0.4844.51","Windows","10.0","null","<div style=""font-size:60px;"">+</div>","null",""
"","","","","","html-button-response","111","189478","0.0-4.0-1.53","44","1","2022-10-20 07:56:11","d60b49b5908c80e163b920d72b52d584","14.29.170.227","Mozilla/5.0 (Windows NT 10.0; Win64; x64) AppleWebKit/537.36 (KHTML, like Gecko) Chrome/99.0.4844.51 Safari/537.36","WebKit","Chrome","99.0.4844.51","Windows","10.0","1479","<p>作为军队的指挥官，你可以选择发射导弹杀死 <strong>4名</strong> 敌国士兵，但会误杀附近的 <strong>1名</strong> 敌国平民。</p> <p>平民照片如下图所示。</p> <p></p> <img src='stimuli/faces/NCF8.jpg', style='max-width: 30%;'> </img> <p><strong>你是否选择发射武器？</strong></p>","1",""
"","","","","","html-keyboard-response","112","190492","0.0-4.0-0.54","44","1","2022-10-20 07:56:11","d60b49b5908c80e163b920d72b52d584","14.29.170.227","Mozilla/5.0 (Windows NT 10.0; Win64; x64) AppleWebKit/537.36 (KHTML, like Gecko) Chrome/99.0.4844.51 Safari/537.36","WebKit","Chrome","99.0.4844.51","Windows","10.0","null","<div style=""font-size:60px;"">+</div>","null",""
"","","","","","html-button-response","113","191933","0.0-4.0-1.54","44","1","2022-10-20 07:56:11","d60b49b5908c80e163b920d72b52d584","14.29.170.227","Mozilla/5.0 (Windows NT 10.0; Win64; x64) AppleWebKit/537.36 (KHTML, like Gecko) Chrome/99.0.4844.51 Safari/537.36","WebKit","Chrome","99.0.4844.51","Windows","10.0","1428","<p>作为军队的指挥官，你可以选择发射导弹杀死 <strong>3名</strong> 敌国士兵，但会炸毁附近的 <strong>1棵</strong> 敌国树木。</p> <p>树木的照片如下图所示。</p> <p></p> <img src='stimuli/trees/8.png', style='max-width: 30%;'> </img> <p><strong>你是否选择发射武器？</strong></p>","0",""
"","","","","","html-keyboard-response","114","192946","0.0-4.0-0.55","44","1","2022-10-20 07:56:11","d60b49b5908c80e163b920d72b52d584","14.29.170.227","Mozilla/5.0 (Windows NT 10.0; Win64; x64) AppleWebKit/537.36 (KHTML, like Gecko) Chrome/99.0.4844.51 Safari/537.36","WebKit","Chrome","99.0.4844.51","Windows","10.0","null","<div style=""font-size:60px;"">+</div>","null",""
"","","","","","html-button-response","115","194886","0.0-4.0-1.55","44","1","2022-10-20 07:56:11","d60b49b5908c80e163b920d72b52d584","14.29.170.227","Mozilla/5.0 (Windows NT 10.0; Win64; x64) AppleWebKit/537.36 (KHTML, like Gecko) Chrome/99.0.4844.51 Safari/537.36","WebKit","Chrome","99.0.4844.51","Windows","10.0","1928","<p>作为军队的指挥官，你可以选择发射导弹杀死 <strong>2名</strong> 敌国士兵，但会误杀附近的 <strong>1名</strong> 敌国平民。</p> <p>平民照片如下图所示。</p> <p></p> <img src='stimuli/faces/NCM5.jpg', style='max-width: 30%;'> </img> <p><strong>你是否选择发射武器？</strong></p>","1",""
"","","","","","html-keyboard-response","116","195897","0.0-4.0-0.56","44","1","2022-10-20 07:56:11","d60b49b5908c80e163b920d72b52d584","14.29.170.227","Mozilla/5.0 (Windows NT 10.0; Win64; x64) AppleWebKit/537.36 (KHTML, like Gecko) Chrome/99.0.4844.51 Safari/537.36","WebKit","Chrome","99.0.4844.51","Windows","10.0","null","<div style=""font-size:60px;"">+</div>","null",""
"","","","","","html-button-response","117","199246","0.0-4.0-1.56","44","1","2022-10-20 07:56:11","d60b49b5908c80e163b920d72b52d584","14.29.170.227","Mozilla/5.0 (Windows NT 10.0; Win64; x64) AppleWebKit/537.36 (KHTML, like Gecko) Chrome/99.0.4844.51 Safari/537.36","WebKit","Chrome","99.0.4844.51","Windows","10.0","3335","<p>作为军队的指挥官，你可以选择发射导弹杀死 <strong>2名</strong> 敌国士兵，但会炸毁附近的 <strong>1棵</strong> 敌国树木。</p> <p>树木的照片如下图所示。</p> <p></p> <img src='stimuli/trees/11.png', style='max-width: 30%;'> </img> <p><strong>你是否选择发射武器？</strong></p>","0",""
"","","","","","html-keyboard-response","118","200262","0.0-4.0-0.57","44","1","2022-10-20 07:56:11","d60b49b5908c80e163b920d72b52d584","14.29.170.227","Mozilla/5.0 (Windows NT 10.0; Win64; x64) AppleWebKit/537.36 (KHTML, like Gecko) Chrome/99.0.4844.51 Safari/537.36","WebKit","Chrome","99.0.4844.51","Windows","10.0","null","<div style=""font-size:60px;"">+</div>","null",""
"","","","","","html-button-response","119","205789","0.0-4.0-1.57","44","1","2022-10-20 07:56:11","d60b49b5908c80e163b920d72b52d584","14.29.170.227","Mozilla/5.0 (Windows NT 10.0; Win64; x64) AppleWebKit/537.36 (KHTML, like Gecko) Chrome/99.0.4844.51 Safari/537.36","WebKit","Chrome","99.0.4844.51","Windows","10.0","5513","<p>作为军队的指挥官，你可以选择发射导弹杀死 <strong>2名</strong> 敌国士兵，但会误杀附近的 <strong>1名</strong> 敌国平民。</p> <p>平民照片如下图所示。</p> <p></p> <img src='stimuli/faces/NCM3.jpg', style='max-width: 30%;'> </img> <p><strong>你是否选择发射武器？</strong></p>","1",""
"","","","","","html-keyboard-response","120","206805","0.0-4.0-0.58","44","1","2022-10-20 07:56:11","d60b49b5908c80e163b920d72b52d584","14.29.170.227","Mozilla/5.0 (Windows NT 10.0; Win64; x64) AppleWebKit/537.36 (KHTML, like Gecko) Chrome/99.0.4844.51 Safari/537.36","WebKit","Chrome","99.0.4844.51","Windows","10.0","null","<div style=""font-size:60px;"">+</div>","null",""
"","","","","","html-button-response","121","208318","0.0-4.0-1.58","44","1","2022-10-20 07:56:11","d60b49b5908c80e163b920d72b52d584","14.29.170.227","Mozilla/5.0 (Windows NT 10.0; Win64; x64) AppleWebKit/537.36 (KHTML, like Gecko) Chrome/99.0.4844.51 Safari/537.36","WebKit","Chrome","99.0.4844.51","Windows","10.0","1494","<p>作为军队的指挥官，你可以选择发射导弹杀死 <strong>5名</strong> 敌国士兵，但会炸毁附近的 <strong>1棵</strong> 敌国树木。</p> <p>树木的照片如下图所示。</p> <p></p> <img src='stimuli/trees/10.png', style='max-width: 30%;'> </img> <p><strong>你是否选择发射武器？</strong></p>","0",""
"","","","","","html-keyboard-response","122","209332","0.0-4.0-0.59","44","1","2022-10-20 07:56:11","d60b49b5908c80e163b920d72b52d584","14.29.170.227","Mozilla/5.0 (Windows NT 10.0; Win64; x64) AppleWebKit/537.36 (KHTML, like Gecko) Chrome/99.0.4844.51 Safari/537.36","WebKit","Chrome","99.0.4844.51","Windows","10.0","null","<div style=""font-size:60px;"">+</div>","null",""
"","","","","","html-button-response","123","217294","0.0-4.0-1.59","44","1","2022-10-20 07:56:11","d60b49b5908c80e163b920d72b52d584","14.29.170.227","Mozilla/5.0 (Windows NT 10.0; Win64; x64) AppleWebKit/537.36 (KHTML, like Gecko) Chrome/99.0.4844.51 Safari/537.36","WebKit","Chrome","99.0.4844.51","Windows","10.0","7948","<p>作为军队的指挥官，你可以选择发射导弹杀死 <strong>10名</strong> 敌国士兵，但会炸毁附近的 <strong>1棵</strong> 敌国树木。</p> <p>树木的照片如下图所示。</p> <p></p> <img src='stimuli/trees/13.png', style='max-width: 30%;'> </img> <p><strong>你是否选择发射武器？</strong></p>","0",""
"","","","","","html-keyboard-response","124","218308","0.0-4.0-0.60","44","1","2022-10-20 07:56:11","d60b49b5908c80e163b920d72b52d584","14.29.170.227","Mozilla/5.0 (Windows NT 10.0; Win64; x64) AppleWebKit/537.36 (KHTML, like Gecko) Chrome/99.0.4844.51 Safari/537.36","WebKit","Chrome","99.0.4844.51","Windows","10.0","null","<div style=""font-size:60px;"">+</div>","null",""
"","","","","","html-button-response","125","220525","0.0-4.0-1.60","44","1","2022-10-20 07:56:11","d60b49b5908c80e163b920d72b52d584","14.29.170.227","Mozilla/5.0 (Windows NT 10.0; Win64; x64) AppleWebKit/537.36 (KHTML, like Gecko) Chrome/99.0.4844.51 Safari/537.36","WebKit","Chrome","99.0.4844.51","Windows","10.0","2202","<p>作为军队的指挥官，你可以选择发射导弹杀死 <strong>2名</strong> 敌国士兵，但会误杀附近的 <strong>1名</strong> 敌国平民。</p> <p>平民照片如下图所示。</p> <p></p> <img src='stimuli/faces/NCM4.jpg', style='max-width: 30%;'> </img> <p><strong>你是否选择发射武器？</strong></p>","1",""
"","","","","","html-keyboard-response","126","221541","0.0-4.0-0.61","44","1","2022-10-20 07:56:11","d60b49b5908c80e163b920d72b52d584","14.29.170.227","Mozilla/5.0 (Windows NT 10.0; Win64; x64) AppleWebKit/537.36 (KHTML, like Gecko) Chrome/99.0.4844.51 Safari/537.36","WebKit","Chrome","99.0.4844.51","Windows","10.0","null","<div style=""font-size:60px;"">+</div>","null",""
"","","","","","html-button-response","127","223598","0.0-4.0-1.61","44","1","2022-10-20 07:56:11","d60b49b5908c80e163b920d72b52d584","14.29.170.227","Mozilla/5.0 (Windows NT 10.0; Win64; x64) AppleWebKit/537.36 (KHTML, like Gecko) Chrome/99.0.4844.51 Safari/537.36","WebKit","Chrome","99.0.4844.51","Windows","10.0","2043","<p>作为军队的指挥官，你可以选择发射导弹杀死 <strong>6名</strong> 敌国士兵，但会误杀附近的 <strong>1名</strong> 敌国平民。</p> <p>平民照片如下图所示。</p> <p></p> <img src='stimuli/faces/NCF1.jpg', style='max-width: 30%;'> </img> <p><strong>你是否选择发射武器？</strong></p>","0",""
"","","","","","html-keyboard-response","128","224613","0.0-4.0-0.62","44","1","2022-10-20 07:56:11","d60b49b5908c80e163b920d72b52d584","14.29.170.227","Mozilla/5.0 (Windows NT 10.0; Win64; x64) AppleWebKit/537.36 (KHTML, like Gecko) Chrome/99.0.4844.51 Safari/537.36","WebKit","Chrome","99.0.4844.51","Windows","10.0","null","<div style=""font-size:60px;"">+</div>","null",""
"","","","","","html-button-response","129","226047","0.0-4.0-1.62","44","1","2022-10-20 07:56:11","d60b49b5908c80e163b920d72b52d584","14.29.170.227","Mozilla/5.0 (Windows NT 10.0; Win64; x64) AppleWebKit/537.36 (KHTML, like Gecko) Chrome/99.0.4844.51 Safari/537.36","WebKit","Chrome","99.0.4844.51","Windows","10.0","1418","<p>作为军队的指挥官，你可以选择发射导弹杀死 <strong>6名</strong> 敌国士兵，但会炸毁附近的 <strong>1棵</strong> 敌国树木。</p> <p>树木的照片如下图所示。</p> <p></p> <img src='stimuli/trees/4.png', style='max-width: 30%;'> </img> <p><strong>你是否选择发射武器？</strong></p>","0",""
"","","","","","html-keyboard-response","130","227061","0.0-4.0-0.63","44","1","2022-10-20 07:56:11","d60b49b5908c80e163b920d72b52d584","14.29.170.227","Mozilla/5.0 (Windows NT 10.0; Win64; x64) AppleWebKit/537.36 (KHTML, like Gecko) Chrome/99.0.4844.51 Safari/537.36","WebKit","Chrome","99.0.4844.51","Windows","10.0","null","<div style=""font-size:60px;"">+</div>","null",""
"","","","","","html-button-response","131","231135","0.0-4.0-1.63","44","1","2022-10-20 07:56:11","d60b49b5908c80e163b920d72b52d584","14.29.170.227","Mozilla/5.0 (Windows NT 10.0; Win64; x64) AppleWebKit/537.36 (KHTML, like Gecko) Chrome/99.0.4844.51 Safari/537.36","WebKit","Chrome","99.0.4844.51","Windows","10.0","4053","<p>作为军队的指挥官，你可以选择发射导弹杀死 <strong>5名</strong> 敌国士兵，但会误杀附近的 <strong>1名</strong> 敌国平民。</p> <p>平民照片如下图所示。</p> <p></p> <img src='stimuli/faces/NCM8.jpg', style='max-width: 30%;'> </img> <p><strong>你是否选择发射武器？</strong></p>","0",""
"","","","","","survey-multi-choice","132","239800","0.0-5.0","44","1","2022-10-20 07:56:11","d60b49b5908c80e163b920d72b52d584","14.29.170.227","Mozilla/5.0 (Windows NT 10.0; Win64; x64) AppleWebKit/537.36 (KHTML, like Gecko) Chrome/99.0.4844.51 Safari/537.36","WebKit","Chrome","99.0.4844.51","Windows","10.0","8647","","{""Attention1"":""""}","[0]"
"","","","","","html-button-response","133","241871","0.0-6.0","44","1","2022-10-20 07:56:11","d60b49b5908c80e163b920d72b52d584","14.29.170.227","Mozilla/5.0 (Windows NT 10.0; Win64; x64) AppleWebKit/537.36 (KHTML, like Gecko) Chrome/99.0.4844.51 Safari/537.36","WebKit","Chrome","99.0.4844.51","Windows","10.0","2052","<p style=""font-size:20px;font-weight:bold;"">恭喜！</p><p>你已经完成了实验的第一部分。</p><p>请休息放松一下，然后进入第二部分。</p><p>这部分大约需要10分钟。</p>","0",""
"","","","","","survey-text","134","315247","0.0-7.0","44","1","2022-10-20 07:56:11","d60b49b5908c80e163b920d72b52d584","14.29.170.227","Mozilla/5.0 (Windows NT 10.0; Win64; x64) AppleWebKit/537.36 (KHTML, like Gecko) Chrome/99.0.4844.51 Safari/537.36","WebKit","Chrome","99.0.4844.51","Windows","10.0","72350","","{""Age"":""50"",""Nation"":""中国"",""Born"":""广东"",""Live"":""广东"",""Ethnic"":""汉族"",""Alipay"":""13713939516""}",""
"","","","","","survey-multi-choice","135","329854","0.0-8.0","44","1","2022-10-20 07:56:11","d60b49b5908c80e163b920d72b52d584","14.29.170.227","Mozilla/5.0 (Windows NT 10.0; Win64; x64) AppleWebKit/537.36 (KHTML, like Gecko) Chrome/99.0.4844.51 Safari/537.36","WebKit","Chrome","99.0.4844.51","Windows","10.0","14587","","{""Gender"":""男"",""Education"":""硕士研究生毕业"",""Income"":""￥490,000-￥699,999"",""Children"":""2"",""Race"":""亚洲人""}","[0,1,2,3,4]"
"","","","","","survey-multi-select","136","348975","0.0-9.0","44","1","2022-10-20 07:56:11","d60b49b5908c80e163b920d72b52d584","14.29.170.227","Mozilla/5.0 (Windows NT 10.0; Win64; x64) AppleWebKit/537.36 (KHTML, like Gecko) Chrome/99.0.4844.51 Safari/537.36","WebKit","Chrome","99.0.4844.51","Windows","10.0","19088","","{""Marriage"":[""已婚""],""Religion"":[""无宗教信仰""]}","[0,1]"
"","","","","","survey-multi-choice","137","356830","0.0-10.0","44","1","2022-10-20 07:56:11","d60b49b5908c80e163b920d72b52d584","14.29.170.227","Mozilla/5.0 (Windows NT 10.0; Win64; x64) AppleWebKit/537.36 (KHTML, like Gecko) Chrome/99.0.4844.51 Safari/537.36","WebKit","Chrome","99.0.4844.51","Windows","10.0","7834","","{""SES"":""7""}","[0]"
"","","","","","html-button-response","138","359494","0.0-11.0","44","1","2022-10-20 07:56:11","d60b49b5908c80e163b920d72b52d584","14.29.170.227","Mozilla/5.0 (Windows NT 10.0; Win64; x64) AppleWebKit/537.36 (KHTML, like Gecko) Chrome/99.0.4844.51 Safari/537.36","WebKit","Chrome","99.0.4844.51","Windows","10.0","2643","<p><strong>请判断下列陈述在多大程度上可以形容你？</p><p> (1 = ""和我一点都不像"" to 5 = ""非常像我"".)</strong></p>","0",""
"","","","","","survey-likert","139","431730","0.0-12.0","44","1","2022-10-20 07:56:11","d60b49b5908c80e163b920d72b52d584","14.29.170.227","Mozilla/5.0 (Windows NT 10.0; Win64; x64) AppleWebKit/537.36 (KHTML, like Gecko) Chrome/99.0.4844.51 Safari/537.36","WebKit","Chrome","99.0.4844.51","Windows","10.0","72217","","{""Aggression1"":0,""Aggression2"":1,""Aggression3"":1,""Aggression4"":0,""Aggression5"":2,""Aggression6"":0,""Aggression7"":4,""Aggression8"":0,""Aggression9"":0}","[0,1,2,3,4,5,6,7,8]"
"","","","","","html-button-response","140","433223","0.0-13.0","44","1","2022-10-20 07:56:11","d60b49b5908c80e163b920d72b52d584","14.29.170.227","Mozilla/5.0 (Windows NT 10.0; Win64; x64) AppleWebKit/537.36 (KHTML, like Gecko) Chrome/99.0.4844.51 Safari/537.36","WebKit","Chrome","99.0.4844.51","Windows","10.0","1471","<p><strong>请判断你在多大程度上同意下列陈述。</strong></p>","0",""
"","","","","","survey-likert","141","714326","0.0-14.0","44","1","2022-10-20 07:56:11","d60b49b5908c80e163b920d72b52d584","14.29.170.227","Mozilla/5.0 (Windows NT 10.0; Win64; x64) AppleWebKit/537.36 (KHTML, like Gecko) Chrome/99.0.4844.51 Safari/537.36","WebKit","Chrome","99.0.4844.51","Windows","10.0","281081","","{""scale20"":2,""scale2"":2,""scale10"":2,""scale17"":3,""scale5"":2,""scale14"":3,""scale18"":3,""scale11"":2,""scale25"":2,""scale19"":1,""scale28"":2,""scale8"":2,""scale3"":3,""scale9"":1,""scale16"":2,""scale21"":2,""scale6"":3,""scale26"":2,""scale4"":2,""scale24"":3,""scale23"":2,""scale13"":2,""scale7"":2,""scale27"":1,""scale1"":3,""scale15"":2,""scale22"":2,""scale12"":2}","[19,1,9,16,4,13,17,10,24,18,27,7,2,8,15,20,5,25,3,23,22,12,6,26,0,14,21,11]"
"","","","","","html-button-response","142","718662","0.0-15.0","44","1","2022-10-20 07:56:11","d60b49b5908c80e163b920d72b52d584","14.29.170.227","Mozilla/5.0 (Windows NT 10.0; Win64; x64) AppleWebKit/537.36 (KHTML, like Gecko) Chrome/99.0.4844.51 Safari/537.36","WebKit","Chrome","99.0.4844.51","Windows","10.0","4311","<p><strong>请判断你在多大程度上同意下列陈述。</strong></p>","0",""
"","","","","","survey-likert","143","790858","0.0-16.0","44","1","2022-10-20 07:56:11","d60b49b5908c80e163b920d72b52d584","14.29.170.227","Mozilla/5.0 (Windows NT 10.0; Win64; x64) AppleWebKit/537.36 (KHTML, like Gecko) Chrome/99.0.4844.51 Safari/537.36","WebKit","Chrome","99.0.4844.51","Windows","10.0","72176","","{""sdo11"":4,""sdo2"":3,""sdo5"":4,""sdo13"":5,""sdo14"":5,""sdo6"":3,""sdo3"":5,""sdo9"":3,""sdo12"":5,""sdo15"":5,""sdo7"":2,""sdo4"":5,""sdo8"":3,""sdo10"":5,""sdo1"":5,""sdo16"":6}","[10,1,4,12,13,5,2,8,11,14,6,3,7,9,0,15]"
"","","","","","html-button-response","144","792774","0.0-17.0","44","1","2022-10-20 07:56:11","d60b49b5908c80e163b920d72b52d584","14.29.170.227","Mozilla/5.0 (Windows NT 10.0; Win64; x64) AppleWebKit/537.36 (KHTML, like Gecko) Chrome/99.0.4844.51 Safari/537.36","WebKit","Chrome","99.0.4844.51","Windows","10.0","1895","<p><strong>请判断你在多大程度上同意下列陈述。</strong></p>","0",""
"","","","","","survey-likert","145","861267","0.0-18.0","44","1","2022-10-20 07:56:11","d60b49b5908c80e163b920d72b52d584","14.29.170.227","Mozilla/5.0 (Windows NT 10.0; Win64; x64) AppleWebKit/537.36 (KHTML, like Gecko) Chrome/99.0.4844.51 Safari/537.36","WebKit","Chrome","99.0.4844.51","Windows","10.0","68475","","{""caring1"":3,""liking1"":1,""caring2"":3,""protection1"":3,""liking2"":1,""caring3"":4,""protection2"":2,""liking3"":2,""protection3"":4,""caring4"":3,""liking4"":2,""protection4"":2,""caring5"":3,""liking5"":2,""protection5"":3}","[0,1,2,3,4,5,6,7,8,9,10,11,12,13,14]"
"","","","","","html-button-response","146","864679","0.0-19.0","44","1","2022-10-20 07:56:11","d60b49b5908c80e163b920d72b52d584","14.29.170.227","Mozilla/5.0 (Windows NT 10.0; Win64; x64) AppleWebKit/537.36 (KHTML, like Gecko) Chrome/99.0.4844.51 Safari/537.36","WebKit","Chrome","99.0.4844.51","Windows","10.0","3390","<p><strong>请判断下列场景中你的内心感受有多柔软。</strong></p>","0",""
"","","","","","survey-likert","147","888017","0.0-20.0","44","1","2022-10-20 07:56:11","d60b49b5908c80e163b920d72b52d584","14.29.170.227","Mozilla/5.0 (Windows NT 10.0; Win64; x64) AppleWebKit/537.36 (KHTML, like Gecko) Chrome/99.0.4844.51 Safari/537.36","WebKit","Chrome","99.0.4844.51","Windows","10.0","23321","","{""tenderness-positive1"":3,""tenderness-negative1"":3,""tenderness-negative2"":2,""tenderness-positive2"":4,""tenderness-positive3"":4,""tenderness-negative3"":2,""tenderness-positive4"":4,""tendereness-negative4"":4,""tendernness-negative5"":4,""tenderness-positive5"":4}","[0,1,2,3,4,5,6,7,8,9]"
"","","","","","survey-multi-choice","148","892791","0.0-21.0","44","1","2022-10-20 07:56:11","d60b49b5908c80e163b920d72b52d584","14.29.170.227","Mozilla/5.0 (Windows NT 10.0; Win64; x64) AppleWebKit/537.36 (KHTML, like Gecko) Chrome/99.0.4844.51 Safari/537.36","WebKit","Chrome","99.0.4844.51","Windows","10.0","4753","","{""Attention2"":""""}","[0]"
"","","","","","html-button-response","149","893767","0.0-22.0","44","1","2022-10-20 07:56:11","d60b49b5908c80e163b920d72b52d584","14.29.170.227","Mozilla/5.0 (Windows NT 10.0; Win64; x64) AppleWebKit/537.36 (KHTML, like Gecko) Chrome/99.0.4844.51 Safari/537.36","WebKit","Chrome","99.0.4844.51","Windows","10.0","955","<p><strong>请判断你在多大程度上同意下列陈述。</strong></p>","0",""
"","","","","","survey-likert","150","1002532","0.0-23.0","44","1","2022-10-20 07:56:11","d60b49b5908c80e163b920d72b52d584","14.29.170.227","Mozilla/5.0 (Windows NT 10.0; Win64; x64) AppleWebKit/537.36 (KHTML, like Gecko) Chrome/99.0.4844.51 Safari/537.36","WebKit","Chrome","99.0.4844.51","Windows","10.0","108739","","{""Patri3"":3,""Nation1"":2,""Patri8"":4,""Patri5"":4,""Nation4"":3,""Nation8"":0,""Nation3"":4,""Patri2"":4,""Patri6"":2,""Patri10"":3,""Nation2"":4,""Patri7"":4,""Patri4"":4,""Patri1"":4,""Patri12"":3,""Nation5"":2,""Nation7"":4,""Patri9"":3,""Patri11"":0,""Nation6"":4}","[2,12,7,4,15,19,14,1,5,9,13,6,3,0,11,16,18,8,10,17]"
"","","","","","html-button-response","151","1004231","0.0-24.0","44","1","2022-10-20 07:56:11","d60b49b5908c80e163b920d72b52d584","14.29.170.227","Mozilla/5.0 (Windows NT 10.0; Win64; x64) AppleWebKit/537.36 (KHTML, like Gecko) Chrome/99.0.4844.51 Safari/537.36","WebKit","Chrome","99.0.4844.51","Windows","10.0","1674","<p><strong>请判断你在多大程度上同意下列陈述。</strong></p>","0",""
"","","","","","survey-likert","152","1099725","0.0-25.0","44","1","2022-10-20 07:56:11","d60b49b5908c80e163b920d72b52d584","14.29.170.227","Mozilla/5.0 (Windows NT 10.0; Win64; x64) AppleWebKit/537.36 (KHTML, like Gecko) Chrome/99.0.4844.51 Safari/537.36","WebKit","Chrome","99.0.4844.51","Windows","10.0","95473","","{""vc4"":7,""vc3"":8,""vi3"":8,""hc3"":7,""vi2"":8,""hc1"":6,""hi1"":4,""Robot"":6,""vc1"":8,""hi2"":4,""hi3"":8,""hc4"":6,""hi4"":6,""hc2"":5,""vc2"":8,""vi4"":6,""vi1"":8}","[16,15,6,11,5,9,0,7,13,1,2,12,3,10,14,8,4]"
"","","","","","survey-text","153","1111872","0.0-26.0","44","1","2022-10-20 07:56:11","d60b49b5908c80e163b920d72b52d584","14.29.170.227","Mozilla/5.0 (Windows NT 10.0; Win64; x64) AppleWebKit/537.36 (KHTML, like Gecko) Chrome/99.0.4844.51 Safari/537.36","WebKit","Chrome","99.0.4844.51","Windows","10.0","12091","","{""Comments"":""优化""}",""
"","","","","","html-button-response","154","1112903","0.0-27.0","44","1","2022-10-20 07:56:11","d60b49b5908c80e163b920d72b52d584","14.29.170.227","Mozilla/5.0 (Windows NT 10.0; Win64; x64) AppleWebKit/537.36 (KHTML, like Gecko) Chrome/99.0.4844.51 Safari/537.36","WebKit","Chrome","99.0.4844.51","Windows","10.0","1014","<strong><p>恭喜你完成了实验！</p><p>感谢您的参与。</p></strong>","0",""
