"success","timeout","failed_images","failed_audio","failed_video","trial_type","trial_index","time_elapsed","internal_node_id","run_id","condition","recorded_at","source_code_version","ip","user_agent","device","browser","browser_version","platform","platform_version","rt","stimulus","response","question_order"
"true","false","[]","[]","[]","preload","0","1054","0.0-0.0","46","1","2022-10-20 08:02:03","d60b49b5908c80e163b920d72b52d584","120.3.10.21","Mozilla/5.0 (Windows NT 10.0; Win64; x64) AppleWebKit/537.36 (KHTML, like Gecko) Chrome/106.0.0.0 Safari/537.36 Edg/106.0.1370.47","WebKit","Edge","106.0.1370.47","Windows","10.0","","","",""
"true","","","","","fullscreen","1","9871","0.0-1.0","46","1","2022-10-20 08:02:03","d60b49b5908c80e163b920d72b52d584","120.3.10.21","Mozilla/5.0 (Windows NT 10.0; Win64; x64) AppleWebKit/537.36 (KHTML, like Gecko) Chrome/106.0.0.0 Safari/537.36 Edg/106.0.1370.47","WebKit","Edge","106.0.1370.47","Windows","10.0","","","",""
"","","","","","html-button-response","2","84740","0.0-2.0","46","1","2022-10-20 08:02:03","d60b49b5908c80e163b920d72b52d584","120.3.10.21","Mozilla/5.0 (Windows NT 10.0; Win64; x64) AppleWebKit/537.36 (KHTML, like Gecko) Chrome/106.0.0.0 Safari/537.36 Edg/106.0.1370.47","WebKit","Edge","106.0.1370.47","Windows","10.0","74868","<p style=""font-size:20px;font-weight:bold;"">实验知情同意书</p><p style=""text-align:left;""><strong>实验名称：</strong>社会冲突研究</p><p style=""text-align:left;""><strong>主要研究者：</strong>韩晓春副教授（北京师范大学心理学部）</p><p style=""text-align:left;""><strong>联系方式：</strong>发送邮件至xiaochun.han@bnu.edu.cn</p><p style=""text-align:left;""><strong>研究目的：</strong>研究旨在了解人类面对群体冲突时的决策方式，以及相关的心理学特质。实验调查大约需要20分钟。</p><p style=""text-align:left;""><strong>实验流程：</strong>实验包含两部分。第一部分呈现一系列群体冲突场景，请你决定如何对这些冲突进行反应，大约需要10分钟完成。第二部分包含一系列人口统计学信息收集和心理学问卷，大约需要10分钟完成。</p><p style=""text-align:left;""><strong>参加及退出规则：</strong>参加本实验完全取决于您的个人意愿。在参与过程中，您可以随时退出，并且不用承担任何后果。</p><p style=""text-align:left;""><strong>隐私：</strong>本实验完全匿名进行，不会收集您的姓名或其他能够识别您身份的信息。实验中收集的作答仅用作科学研究使用，可能会在学术期刊/书籍上发表，或者用于教学，您的数据未来可能会和其他研究者或实验室分享，但您的个人身份不会被识别。</p><p style=""text-align:left;""><strong>实验报酬：</strong>实验完成后，您将获得15元人民币报酬，以感谢您的时间和努力。调查问卷中包含几道题目用以测验您作答时的认真度。只有完成全部实验，并且正确回答认真度测验的被试才能获得实验报酬。实验报酬将通过支付宝转账发放。</p><p style=""text-align:left;font-size:20px;""><strong>如果您同意以上实验知情同意书的内容，请点击'同意并且开始实验'按钮；否则请关闭浏览器界面，退出实验。</strong></p>","0",""
"","","","","","html-button-response","3","94496","0.0-3.0","46","1","2022-10-20 08:02:03","d60b49b5908c80e163b920d72b52d584","120.3.10.21","Mozilla/5.0 (Windows NT 10.0; Win64; x64) AppleWebKit/537.36 (KHTML, like Gecko) Chrome/106.0.0.0 Safari/537.36 Edg/106.0.1370.47","WebKit","Edge","106.0.1370.47","Windows","10.0","9755","<p ><strong>实验任务一：</strong></p><p>请想象你的国家与另一个国家发生了军事冲突。</p><p>你是国家军队的指挥官，你将如何在冲突中进行决策。</p><p>具体来说，作为军队指挥官，请你决定是否发射导弹进行打击。</p><p>接下来，你会面对一系列场景，请仔细阅读每个场景，然后进行决策。</p><p>这部分实验任务大约需要10分钟。</p><p><strong>实验过程中，请集中注意力。</strong></p>","0",""
"","","","","","html-keyboard-response","4","95499","0.0-4.0-0.0","46","1","2022-10-20 08:02:03","d60b49b5908c80e163b920d72b52d584","120.3.10.21","Mozilla/5.0 (Windows NT 10.0; Win64; x64) AppleWebKit/537.36 (KHTML, like Gecko) Chrome/106.0.0.0 Safari/537.36 Edg/106.0.1370.47","WebKit","Edge","106.0.1370.47","Windows","10.0","null","<div style=""font-size:60px;"">+</div>","null",""
"","","","","","html-button-response","5","103680","0.0-4.0-1.0","46","1","2022-10-20 08:02:03","d60b49b5908c80e163b920d72b52d584","120.3.10.21","Mozilla/5.0 (Windows NT 10.0; Win64; x64) AppleWebKit/537.36 (KHTML, like Gecko) Chrome/106.0.0.0 Safari/537.36 Edg/106.0.1370.47","WebKit","Edge","106.0.1370.47","Windows","10.0","8180","<p>作为军队的指挥官，你可以选择发射导弹杀死 <strong>3名</strong> 敌国士兵，但会误杀附近的 <strong>1名</strong> 敌国平民。</p> <p>平民照片如下图所示。</p> <p></p> <img src='stimuli/faces/NCM8.jpg', style='max-width: 30%;'> </img> <p><strong>你是否选择发射武器？</strong></p>","0",""
"","","","","","html-keyboard-response","6","104697","0.0-4.0-0.1","46","1","2022-10-20 08:02:03","d60b49b5908c80e163b920d72b52d584","120.3.10.21","Mozilla/5.0 (Windows NT 10.0; Win64; x64) AppleWebKit/537.36 (KHTML, like Gecko) Chrome/106.0.0.0 Safari/537.36 Edg/106.0.1370.47","WebKit","Edge","106.0.1370.47","Windows","10.0","null","<div style=""font-size:60px;"">+</div>","null",""
"","","","","","html-button-response","7","112161","0.0-4.0-1.1","46","1","2022-10-20 08:02:03","d60b49b5908c80e163b920d72b52d584","120.3.10.21","Mozilla/5.0 (Windows NT 10.0; Win64; x64) AppleWebKit/537.36 (KHTML, like Gecko) Chrome/106.0.0.0 Safari/537.36 Edg/106.0.1370.47","WebKit","Edge","106.0.1370.47","Windows","10.0","7462","<p>作为军队的指挥官，你可以选择发射导弹杀死 <strong>2名</strong> 敌国士兵，但会误杀附近的 <strong>1名</strong> 敌国平民。</p> <p>平民照片如下图所示。</p> <p></p> <img src='stimuli/faces/NCF4.jpg', style='max-width: 30%;'> </img> <p><strong>你是否选择发射武器？</strong></p>","1",""
"","","","","","html-keyboard-response","8","113169","0.0-4.0-0.2","46","1","2022-10-20 08:02:03","d60b49b5908c80e163b920d72b52d584","120.3.10.21","Mozilla/5.0 (Windows NT 10.0; Win64; x64) AppleWebKit/537.36 (KHTML, like Gecko) Chrome/106.0.0.0 Safari/537.36 Edg/106.0.1370.47","WebKit","Edge","106.0.1370.47","Windows","10.0","null","<div style=""font-size:60px;"">+</div>","null",""
"","","","","","html-button-response","9","123200","0.0-4.0-1.2","46","1","2022-10-20 08:02:03","d60b49b5908c80e163b920d72b52d584","120.3.10.21","Mozilla/5.0 (Windows NT 10.0; Win64; x64) AppleWebKit/537.36 (KHTML, like Gecko) Chrome/106.0.0.0 Safari/537.36 Edg/106.0.1370.47","WebKit","Edge","106.0.1370.47","Windows","10.0","10030","<p>作为军队的指挥官，你可以选择发射导弹杀死 <strong>6名</strong> 敌国士兵，但会误杀附近的 <strong>1名</strong> 敌国平民。</p> <p>平民照片如下图所示。</p> <p></p> <img src='stimuli/faces/NCM8.jpg', style='max-width: 30%;'> </img> <p><strong>你是否选择发射武器？</strong></p>","0",""
"","","","","","html-keyboard-response","10","124211","0.0-4.0-0.3","46","1","2022-10-20 08:02:03","d60b49b5908c80e163b920d72b52d584","120.3.10.21","Mozilla/5.0 (Windows NT 10.0; Win64; x64) AppleWebKit/537.36 (KHTML, like Gecko) Chrome/106.0.0.0 Safari/537.36 Edg/106.0.1370.47","WebKit","Edge","106.0.1370.47","Windows","10.0","null","<div style=""font-size:60px;"">+</div>","null",""
"","","","","","html-button-response","11","127824","0.0-4.0-1.3","46","1","2022-10-20 08:02:03","d60b49b5908c80e163b920d72b52d584","120.3.10.21","Mozilla/5.0 (Windows NT 10.0; Win64; x64) AppleWebKit/537.36 (KHTML, like Gecko) Chrome/106.0.0.0 Safari/537.36 Edg/106.0.1370.47","WebKit","Edge","106.0.1370.47","Windows","10.0","3612","<p>作为军队的指挥官，你可以选择发射导弹杀死 <strong>1名</strong> 敌国士兵，但会误杀附近的 <strong>1名</strong> 敌国平民。</p> <p>平民照片如下图所示。</p> <p></p> <img src='stimuli/faces/NCM1.jpg', style='max-width: 30%;'> </img> <p><strong>你是否选择发射武器？</strong></p>","0",""
"","","","","","html-keyboard-response","12","128832","0.0-4.0-0.4","46","1","2022-10-20 08:02:03","d60b49b5908c80e163b920d72b52d584","120.3.10.21","Mozilla/5.0 (Windows NT 10.0; Win64; x64) AppleWebKit/537.36 (KHTML, like Gecko) Chrome/106.0.0.0 Safari/537.36 Edg/106.0.1370.47","WebKit","Edge","106.0.1370.47","Windows","10.0","null","<div style=""font-size:60px;"">+</div>","null",""
"","","","","","html-button-response","13","132616","0.0-4.0-1.4","46","1","2022-10-20 08:02:03","d60b49b5908c80e163b920d72b52d584","120.3.10.21","Mozilla/5.0 (Windows NT 10.0; Win64; x64) AppleWebKit/537.36 (KHTML, like Gecko) Chrome/106.0.0.0 Safari/537.36 Edg/106.0.1370.47","WebKit","Edge","106.0.1370.47","Windows","10.0","3782","<p>作为军队的指挥官，你可以选择发射导弹杀死 <strong>6名</strong> 敌国士兵，但会炸毁附近的 <strong>1棵</strong> 敌国树木。</p> <p>树木的照片如下图所示。</p> <p></p> <img src='stimuli/trees/8.png', style='max-width: 30%;'> </img> <p><strong>你是否选择发射武器？</strong></p>","0",""
"","","","","","html-keyboard-response","14","133629","0.0-4.0-0.5","46","1","2022-10-20 08:02:03","d60b49b5908c80e163b920d72b52d584","120.3.10.21","Mozilla/5.0 (Windows NT 10.0; Win64; x64) AppleWebKit/537.36 (KHTML, like Gecko) Chrome/106.0.0.0 Safari/537.36 Edg/106.0.1370.47","WebKit","Edge","106.0.1370.47","Windows","10.0","null","<div style=""font-size:60px;"">+</div>","null",""
"","","","","","html-button-response","15","137384","0.0-4.0-1.5","46","1","2022-10-20 08:02:03","d60b49b5908c80e163b920d72b52d584","120.3.10.21","Mozilla/5.0 (Windows NT 10.0; Win64; x64) AppleWebKit/537.36 (KHTML, like Gecko) Chrome/106.0.0.0 Safari/537.36 Edg/106.0.1370.47","WebKit","Edge","106.0.1370.47","Windows","10.0","3754","<p>作为军队的指挥官，你可以选择发射导弹杀死 <strong>10名</strong> 敌国士兵，但会炸毁附近的 <strong>1棵</strong> 敌国树木。</p> <p>树木的照片如下图所示。</p> <p></p> <img src='stimuli/trees/6.png', style='max-width: 30%;'> </img> <p><strong>你是否选择发射武器？</strong></p>","0",""
"","","","","","html-keyboard-response","16","138399","0.0-4.0-0.6","46","1","2022-10-20 08:02:03","d60b49b5908c80e163b920d72b52d584","120.3.10.21","Mozilla/5.0 (Windows NT 10.0; Win64; x64) AppleWebKit/537.36 (KHTML, like Gecko) Chrome/106.0.0.0 Safari/537.36 Edg/106.0.1370.47","WebKit","Edge","106.0.1370.47","Windows","10.0","null","<div style=""font-size:60px;"">+</div>","null",""
"","","","","","html-button-response","17","142960","0.0-4.0-1.6","46","1","2022-10-20 08:02:03","d60b49b5908c80e163b920d72b52d584","120.3.10.21","Mozilla/5.0 (Windows NT 10.0; Win64; x64) AppleWebKit/537.36 (KHTML, like Gecko) Chrome/106.0.0.0 Safari/537.36 Edg/106.0.1370.47","WebKit","Edge","106.0.1370.47","Windows","10.0","4560","<p>作为军队的指挥官，你可以选择发射导弹杀死 <strong>1名</strong> 敌国士兵，但会误杀附近的 <strong>1名</strong> 敌国平民。</p> <p>平民照片如下图所示。</p> <p></p> <img src='stimuli/faces/NCF7.jpg', style='max-width: 30%;'> </img> <p><strong>你是否选择发射武器？</strong></p>","0",""
"","","","","","html-keyboard-response","18","143962","0.0-4.0-0.7","46","1","2022-10-20 08:02:03","d60b49b5908c80e163b920d72b52d584","120.3.10.21","Mozilla/5.0 (Windows NT 10.0; Win64; x64) AppleWebKit/537.36 (KHTML, like Gecko) Chrome/106.0.0.0 Safari/537.36 Edg/106.0.1370.47","WebKit","Edge","106.0.1370.47","Windows","10.0","null","<div style=""font-size:60px;"">+</div>","null",""
"","","","","","html-button-response","19","149952","0.0-4.0-1.7","46","1","2022-10-20 08:02:03","d60b49b5908c80e163b920d72b52d584","120.3.10.21","Mozilla/5.0 (Windows NT 10.0; Win64; x64) AppleWebKit/537.36 (KHTML, like Gecko) Chrome/106.0.0.0 Safari/537.36 Edg/106.0.1370.47","WebKit","Edge","106.0.1370.47","Windows","10.0","5989","<p>作为军队的指挥官，你可以选择发射导弹杀死 <strong>9名</strong> 敌国士兵，但会误杀附近的 <strong>1名</strong> 敌国平民。</p> <p>平民照片如下图所示。</p> <p></p> <img src='stimuli/faces/NCF8.jpg', style='max-width: 30%;'> </img> <p><strong>你是否选择发射武器？</strong></p>","0",""
"","","","","","html-keyboard-response","20","150968","0.0-4.0-0.8","46","1","2022-10-20 08:02:03","d60b49b5908c80e163b920d72b52d584","120.3.10.21","Mozilla/5.0 (Windows NT 10.0; Win64; x64) AppleWebKit/537.36 (KHTML, like Gecko) Chrome/106.0.0.0 Safari/537.36 Edg/106.0.1370.47","WebKit","Edge","106.0.1370.47","Windows","10.0","null","<div style=""font-size:60px;"">+</div>","null",""
"","","","","","html-button-response","21","157131","0.0-4.0-1.8","46","1","2022-10-20 08:02:03","d60b49b5908c80e163b920d72b52d584","120.3.10.21","Mozilla/5.0 (Windows NT 10.0; Win64; x64) AppleWebKit/537.36 (KHTML, like Gecko) Chrome/106.0.0.0 Safari/537.36 Edg/106.0.1370.47","WebKit","Edge","106.0.1370.47","Windows","10.0","6162","<p>作为军队的指挥官，你可以选择发射导弹杀死 <strong>9名</strong> 敌国士兵，但会误杀附近的 <strong>1名</strong> 敌国平民。</p> <p>平民照片如下图所示。</p> <p></p> <img src='stimuli/faces/NCF1.jpg', style='max-width: 30%;'> </img> <p><strong>你是否选择发射武器？</strong></p>","0",""
"","","","","","html-keyboard-response","22","158141","0.0-4.0-0.9","46","1","2022-10-20 08:02:03","d60b49b5908c80e163b920d72b52d584","120.3.10.21","Mozilla/5.0 (Windows NT 10.0; Win64; x64) AppleWebKit/537.36 (KHTML, like Gecko) Chrome/106.0.0.0 Safari/537.36 Edg/106.0.1370.47","WebKit","Edge","106.0.1370.47","Windows","10.0","null","<div style=""font-size:60px;"">+</div>","null",""
"","","","","","html-button-response","23","165849","0.0-4.0-1.9","46","1","2022-10-20 08:02:03","d60b49b5908c80e163b920d72b52d584","120.3.10.21","Mozilla/5.0 (Windows NT 10.0; Win64; x64) AppleWebKit/537.36 (KHTML, like Gecko) Chrome/106.0.0.0 Safari/537.36 Edg/106.0.1370.47","WebKit","Edge","106.0.1370.47","Windows","10.0","7707","<p>作为军队的指挥官，你可以选择发射导弹杀死 <strong>1名</strong> 敌国士兵，但会误杀附近的 <strong>1名</strong> 敌国平民。</p> <p>平民照片如下图所示。</p> <p></p> <img src='stimuli/faces/NCM5.jpg', style='max-width: 30%;'> </img> <p><strong>你是否选择发射武器？</strong></p>","0",""
"","","","","","html-keyboard-response","24","166860","0.0-4.0-0.10","46","1","2022-10-20 08:02:03","d60b49b5908c80e163b920d72b52d584","120.3.10.21","Mozilla/5.0 (Windows NT 10.0; Win64; x64) AppleWebKit/537.36 (KHTML, like Gecko) Chrome/106.0.0.0 Safari/537.36 Edg/106.0.1370.47","WebKit","Edge","106.0.1370.47","Windows","10.0","null","<div style=""font-size:60px;"">+</div>","null",""
"","","","","","html-button-response","25","170184","0.0-4.0-1.10","46","1","2022-10-20 08:02:03","d60b49b5908c80e163b920d72b52d584","120.3.10.21","Mozilla/5.0 (Windows NT 10.0; Win64; x64) AppleWebKit/537.36 (KHTML, like Gecko) Chrome/106.0.0.0 Safari/537.36 Edg/106.0.1370.47","WebKit","Edge","106.0.1370.47","Windows","10.0","3323","<p>作为军队的指挥官，你可以选择发射导弹杀死 <strong>6名</strong> 敌国士兵，但会炸毁附近的 <strong>1棵</strong> 敌国树木。</p> <p>树木的照片如下图所示。</p> <p></p> <img src='stimuli/trees/1.png', style='max-width: 30%;'> </img> <p><strong>你是否选择发射武器？</strong></p>","0",""
"","","","","","html-keyboard-response","26","171194","0.0-4.0-0.11","46","1","2022-10-20 08:02:03","d60b49b5908c80e163b920d72b52d584","120.3.10.21","Mozilla/5.0 (Windows NT 10.0; Win64; x64) AppleWebKit/537.36 (KHTML, like Gecko) Chrome/106.0.0.0 Safari/537.36 Edg/106.0.1370.47","WebKit","Edge","106.0.1370.47","Windows","10.0","null","<div style=""font-size:60px;"">+</div>","null",""
"","","","","","html-button-response","27","174296","0.0-4.0-1.11","46","1","2022-10-20 08:02:03","d60b49b5908c80e163b920d72b52d584","120.3.10.21","Mozilla/5.0 (Windows NT 10.0; Win64; x64) AppleWebKit/537.36 (KHTML, like Gecko) Chrome/106.0.0.0 Safari/537.36 Edg/106.0.1370.47","WebKit","Edge","106.0.1370.47","Windows","10.0","3101","<p>作为军队的指挥官，你可以选择发射导弹杀死 <strong>5名</strong> 敌国士兵，但会炸毁附近的 <strong>1棵</strong> 敌国树木。</p> <p>树木的照片如下图所示。</p> <p></p> <img src='stimuli/trees/16.png', style='max-width: 30%;'> </img> <p><strong>你是否选择发射武器？</strong></p>","0",""
"","","","","","html-keyboard-response","28","175310","0.0-4.0-0.12","46","1","2022-10-20 08:02:03","d60b49b5908c80e163b920d72b52d584","120.3.10.21","Mozilla/5.0 (Windows NT 10.0; Win64; x64) AppleWebKit/537.36 (KHTML, like Gecko) Chrome/106.0.0.0 Safari/537.36 Edg/106.0.1370.47","WebKit","Edge","106.0.1370.47","Windows","10.0","null","<div style=""font-size:60px;"">+</div>","null",""
"","","","","","html-button-response","29","179992","0.0-4.0-1.12","46","1","2022-10-20 08:02:03","d60b49b5908c80e163b920d72b52d584","120.3.10.21","Mozilla/5.0 (Windows NT 10.0; Win64; x64) AppleWebKit/537.36 (KHTML, like Gecko) Chrome/106.0.0.0 Safari/537.36 Edg/106.0.1370.47","WebKit","Edge","106.0.1370.47","Windows","10.0","4681","<p>作为军队的指挥官，你可以选择发射导弹杀死 <strong>4名</strong> 敌国士兵，但会炸毁附近的 <strong>1棵</strong> 敌国树木。</p> <p>树木的照片如下图所示。</p> <p></p> <img src='stimuli/trees/7.png', style='max-width: 30%;'> </img> <p><strong>你是否选择发射武器？</strong></p>","0",""
"","","","","","html-keyboard-response","30","181001","0.0-4.0-0.13","46","1","2022-10-20 08:02:03","d60b49b5908c80e163b920d72b52d584","120.3.10.21","Mozilla/5.0 (Windows NT 10.0; Win64; x64) AppleWebKit/537.36 (KHTML, like Gecko) Chrome/106.0.0.0 Safari/537.36 Edg/106.0.1370.47","WebKit","Edge","106.0.1370.47","Windows","10.0","null","<div style=""font-size:60px;"">+</div>","null",""
"","","","","","html-button-response","31","182601","0.0-4.0-1.13","46","1","2022-10-20 08:02:03","d60b49b5908c80e163b920d72b52d584","120.3.10.21","Mozilla/5.0 (Windows NT 10.0; Win64; x64) AppleWebKit/537.36 (KHTML, like Gecko) Chrome/106.0.0.0 Safari/537.36 Edg/106.0.1370.47","WebKit","Edge","106.0.1370.47","Windows","10.0","1599","<p>作为军队的指挥官，你可以选择发射导弹杀死 <strong>5名</strong> 敌国士兵，但会炸毁附近的 <strong>1棵</strong> 敌国树木。</p> <p>树木的照片如下图所示。</p> <p></p> <img src='stimuli/trees/11.png', style='max-width: 30%;'> </img> <p><strong>你是否选择发射武器？</strong></p>","0",""
"","","","","","html-keyboard-response","32","183608","0.0-4.0-0.14","46","1","2022-10-20 08:02:03","d60b49b5908c80e163b920d72b52d584","120.3.10.21","Mozilla/5.0 (Windows NT 10.0; Win64; x64) AppleWebKit/537.36 (KHTML, like Gecko) Chrome/106.0.0.0 Safari/537.36 Edg/106.0.1370.47","WebKit","Edge","106.0.1370.47","Windows","10.0","null","<div style=""font-size:60px;"">+</div>","null",""
"","","","","","html-button-response","33","187720","0.0-4.0-1.14","46","1","2022-10-20 08:02:03","d60b49b5908c80e163b920d72b52d584","120.3.10.21","Mozilla/5.0 (Windows NT 10.0; Win64; x64) AppleWebKit/537.36 (KHTML, like Gecko) Chrome/106.0.0.0 Safari/537.36 Edg/106.0.1370.47","WebKit","Edge","106.0.1370.47","Windows","10.0","4111","<p>作为军队的指挥官，你可以选择发射导弹杀死 <strong>3名</strong> 敌国士兵，但会炸毁附近的 <strong>1棵</strong> 敌国树木。</p> <p>树木的照片如下图所示。</p> <p></p> <img src='stimuli/trees/5.png', style='max-width: 30%;'> </img> <p><strong>你是否选择发射武器？</strong></p>","1",""
"","","","","","html-keyboard-response","34","188737","0.0-4.0-0.15","46","1","2022-10-20 08:02:03","d60b49b5908c80e163b920d72b52d584","120.3.10.21","Mozilla/5.0 (Windows NT 10.0; Win64; x64) AppleWebKit/537.36 (KHTML, like Gecko) Chrome/106.0.0.0 Safari/537.36 Edg/106.0.1370.47","WebKit","Edge","106.0.1370.47","Windows","10.0","null","<div style=""font-size:60px;"">+</div>","null",""
"","","","","","html-button-response","35","190288","0.0-4.0-1.15","46","1","2022-10-20 08:02:03","d60b49b5908c80e163b920d72b52d584","120.3.10.21","Mozilla/5.0 (Windows NT 10.0; Win64; x64) AppleWebKit/537.36 (KHTML, like Gecko) Chrome/106.0.0.0 Safari/537.36 Edg/106.0.1370.47","WebKit","Edge","106.0.1370.47","Windows","10.0","1550","<p>作为军队的指挥官，你可以选择发射导弹杀死 <strong>9名</strong> 敌国士兵，但会炸毁附近的 <strong>1棵</strong> 敌国树木。</p> <p>树木的照片如下图所示。</p> <p></p> <img src='stimuli/trees/12.png', style='max-width: 30%;'> </img> <p><strong>你是否选择发射武器？</strong></p>","0",""
"","","","","","html-keyboard-response","36","191298","0.0-4.0-0.16","46","1","2022-10-20 08:02:03","d60b49b5908c80e163b920d72b52d584","120.3.10.21","Mozilla/5.0 (Windows NT 10.0; Win64; x64) AppleWebKit/537.36 (KHTML, like Gecko) Chrome/106.0.0.0 Safari/537.36 Edg/106.0.1370.47","WebKit","Edge","106.0.1370.47","Windows","10.0","null","<div style=""font-size:60px;"">+</div>","null",""
"","","","","","html-button-response","37","193474","0.0-4.0-1.16","46","1","2022-10-20 08:02:03","d60b49b5908c80e163b920d72b52d584","120.3.10.21","Mozilla/5.0 (Windows NT 10.0; Win64; x64) AppleWebKit/537.36 (KHTML, like Gecko) Chrome/106.0.0.0 Safari/537.36 Edg/106.0.1370.47","WebKit","Edge","106.0.1370.47","Windows","10.0","2174","<p>作为军队的指挥官，你可以选择发射导弹杀死 <strong>4名</strong> 敌国士兵，但会误杀附近的 <strong>1名</strong> 敌国平民。</p> <p>平民照片如下图所示。</p> <p></p> <img src='stimuli/faces/NCM3.jpg', style='max-width: 30%;'> </img> <p><strong>你是否选择发射武器？</strong></p>","0",""
"","","","","","html-keyboard-response","38","194478","0.0-4.0-0.17","46","1","2022-10-20 08:02:03","d60b49b5908c80e163b920d72b52d584","120.3.10.21","Mozilla/5.0 (Windows NT 10.0; Win64; x64) AppleWebKit/537.36 (KHTML, like Gecko) Chrome/106.0.0.0 Safari/537.36 Edg/106.0.1370.47","WebKit","Edge","106.0.1370.47","Windows","10.0","null","<div style=""font-size:60px;"">+</div>","null",""
"","","","","","html-button-response","39","195760","0.0-4.0-1.17","46","1","2022-10-20 08:02:03","d60b49b5908c80e163b920d72b52d584","120.3.10.21","Mozilla/5.0 (Windows NT 10.0; Win64; x64) AppleWebKit/537.36 (KHTML, like Gecko) Chrome/106.0.0.0 Safari/537.36 Edg/106.0.1370.47","WebKit","Edge","106.0.1370.47","Windows","10.0","1281","<p>作为军队的指挥官，你可以选择发射导弹杀死 <strong>4名</strong> 敌国士兵，但会炸毁附近的 <strong>1棵</strong> 敌国树木。</p> <p>树木的照片如下图所示。</p> <p></p> <img src='stimuli/trees/12.png', style='max-width: 30%;'> </img> <p><strong>你是否选择发射武器？</strong></p>","0",""
"","","","","","html-keyboard-response","40","196773","0.0-4.0-0.18","46","1","2022-10-20 08:02:03","d60b49b5908c80e163b920d72b52d584","120.3.10.21","Mozilla/5.0 (Windows NT 10.0; Win64; x64) AppleWebKit/537.36 (KHTML, like Gecko) Chrome/106.0.0.0 Safari/537.36 Edg/106.0.1370.47","WebKit","Edge","106.0.1370.47","Windows","10.0","null","<div style=""font-size:60px;"">+</div>","null",""
"","","","","","html-button-response","41","199184","0.0-4.0-1.18","46","1","2022-10-20 08:02:03","d60b49b5908c80e163b920d72b52d584","120.3.10.21","Mozilla/5.0 (Windows NT 10.0; Win64; x64) AppleWebKit/537.36 (KHTML, like Gecko) Chrome/106.0.0.0 Safari/537.36 Edg/106.0.1370.47","WebKit","Edge","106.0.1370.47","Windows","10.0","2410","<p>作为军队的指挥官，你可以选择发射导弹杀死 <strong>8名</strong> 敌国士兵，但会误杀附近的 <strong>1名</strong> 敌国平民。</p> <p>平民照片如下图所示。</p> <p></p> <img src='stimuli/faces/NCF4.jpg', style='max-width: 30%;'> </img> <p><strong>你是否选择发射武器？</strong></p>","0",""
"","","","","","html-keyboard-response","42","200190","0.0-4.0-0.19","46","1","2022-10-20 08:02:03","d60b49b5908c80e163b920d72b52d584","120.3.10.21","Mozilla/5.0 (Windows NT 10.0; Win64; x64) AppleWebKit/537.36 (KHTML, like Gecko) Chrome/106.0.0.0 Safari/537.36 Edg/106.0.1370.47","WebKit","Edge","106.0.1370.47","Windows","10.0","null","<div style=""font-size:60px;"">+</div>","null",""
"","","","","","html-button-response","43","202728","0.0-4.0-1.19","46","1","2022-10-20 08:02:03","d60b49b5908c80e163b920d72b52d584","120.3.10.21","Mozilla/5.0 (Windows NT 10.0; Win64; x64) AppleWebKit/537.36 (KHTML, like Gecko) Chrome/106.0.0.0 Safari/537.36 Edg/106.0.1370.47","WebKit","Edge","106.0.1370.47","Windows","10.0","2537","<p>作为军队的指挥官，你可以选择发射导弹杀死 <strong>8名</strong> 敌国士兵，但会误杀附近的 <strong>1名</strong> 敌国平民。</p> <p>平民照片如下图所示。</p> <p></p> <img src='stimuli/faces/NCM7.jpg', style='max-width: 30%;'> </img> <p><strong>你是否选择发射武器？</strong></p>","0",""
"","","","","","html-keyboard-response","44","203739","0.0-4.0-0.20","46","1","2022-10-20 08:02:03","d60b49b5908c80e163b920d72b52d584","120.3.10.21","Mozilla/5.0 (Windows NT 10.0; Win64; x64) AppleWebKit/537.36 (KHTML, like Gecko) Chrome/106.0.0.0 Safari/537.36 Edg/106.0.1370.47","WebKit","Edge","106.0.1370.47","Windows","10.0","null","<div style=""font-size:60px;"">+</div>","null",""
"","","","","","html-button-response","45","206161","0.0-4.0-1.20","46","1","2022-10-20 08:02:03","d60b49b5908c80e163b920d72b52d584","120.3.10.21","Mozilla/5.0 (Windows NT 10.0; Win64; x64) AppleWebKit/537.36 (KHTML, like Gecko) Chrome/106.0.0.0 Safari/537.36 Edg/106.0.1370.47","WebKit","Edge","106.0.1370.47","Windows","10.0","2421","<p>作为军队的指挥官，你可以选择发射导弹杀死 <strong>6名</strong> 敌国士兵，但会炸毁附近的 <strong>1棵</strong> 敌国树木。</p> <p>树木的照片如下图所示。</p> <p></p> <img src='stimuli/trees/10.png', style='max-width: 30%;'> </img> <p><strong>你是否选择发射武器？</strong></p>","1",""
"","","","","","html-keyboard-response","46","207173","0.0-4.0-0.21","46","1","2022-10-20 08:02:03","d60b49b5908c80e163b920d72b52d584","120.3.10.21","Mozilla/5.0 (Windows NT 10.0; Win64; x64) AppleWebKit/537.36 (KHTML, like Gecko) Chrome/106.0.0.0 Safari/537.36 Edg/106.0.1370.47","WebKit","Edge","106.0.1370.47","Windows","10.0","null","<div style=""font-size:60px;"">+</div>","null",""
"","","","","","html-button-response","47","209593","0.0-4.0-1.21","46","1","2022-10-20 08:02:03","d60b49b5908c80e163b920d72b52d584","120.3.10.21","Mozilla/5.0 (Windows NT 10.0; Win64; x64) AppleWebKit/537.36 (KHTML, like Gecko) Chrome/106.0.0.0 Safari/537.36 Edg/106.0.1370.47","WebKit","Edge","106.0.1370.47","Windows","10.0","2420","<p>作为军队的指挥官，你可以选择发射导弹杀死 <strong>7名</strong> 敌国士兵，但会炸毁附近的 <strong>1棵</strong> 敌国树木。</p> <p>树木的照片如下图所示。</p> <p></p> <img src='stimuli/trees/4.png', style='max-width: 30%;'> </img> <p><strong>你是否选择发射武器？</strong></p>","0",""
"","","","","","html-keyboard-response","48","210609","0.0-4.0-0.22","46","1","2022-10-20 08:02:03","d60b49b5908c80e163b920d72b52d584","120.3.10.21","Mozilla/5.0 (Windows NT 10.0; Win64; x64) AppleWebKit/537.36 (KHTML, like Gecko) Chrome/106.0.0.0 Safari/537.36 Edg/106.0.1370.47","WebKit","Edge","106.0.1370.47","Windows","10.0","null","<div style=""font-size:60px;"">+</div>","null",""
"","","","","","html-button-response","49","211840","0.0-4.0-1.22","46","1","2022-10-20 08:02:03","d60b49b5908c80e163b920d72b52d584","120.3.10.21","Mozilla/5.0 (Windows NT 10.0; Win64; x64) AppleWebKit/537.36 (KHTML, like Gecko) Chrome/106.0.0.0 Safari/537.36 Edg/106.0.1370.47","WebKit","Edge","106.0.1370.47","Windows","10.0","1230","<p>作为军队的指挥官，你可以选择发射导弹杀死 <strong>9名</strong> 敌国士兵，但会误杀附近的 <strong>1名</strong> 敌国平民。</p> <p>平民照片如下图所示。</p> <p></p> <img src='stimuli/faces/NCF5.jpg', style='max-width: 30%;'> </img> <p><strong>你是否选择发射武器？</strong></p>","0",""
"","","","","","html-keyboard-response","50","212857","0.0-4.0-0.23","46","1","2022-10-20 08:02:03","d60b49b5908c80e163b920d72b52d584","120.3.10.21","Mozilla/5.0 (Windows NT 10.0; Win64; x64) AppleWebKit/537.36 (KHTML, like Gecko) Chrome/106.0.0.0 Safari/537.36 Edg/106.0.1370.47","WebKit","Edge","106.0.1370.47","Windows","10.0","null","<div style=""font-size:60px;"">+</div>","null",""
"","","","","","html-button-response","51","214356","0.0-4.0-1.23","46","1","2022-10-20 08:02:03","d60b49b5908c80e163b920d72b52d584","120.3.10.21","Mozilla/5.0 (Windows NT 10.0; Win64; x64) AppleWebKit/537.36 (KHTML, like Gecko) Chrome/106.0.0.0 Safari/537.36 Edg/106.0.1370.47","WebKit","Edge","106.0.1370.47","Windows","10.0","1497","<p>作为军队的指挥官，你可以选择发射导弹杀死 <strong>1名</strong> 敌国士兵，但会误杀附近的 <strong>1名</strong> 敌国平民。</p> <p>平民照片如下图所示。</p> <p></p> <img src='stimuli/faces/NCF1.jpg', style='max-width: 30%;'> </img> <p><strong>你是否选择发射武器？</strong></p>","0",""
"","","","","","html-keyboard-response","52","215366","0.0-4.0-0.24","46","1","2022-10-20 08:02:03","d60b49b5908c80e163b920d72b52d584","120.3.10.21","Mozilla/5.0 (Windows NT 10.0; Win64; x64) AppleWebKit/537.36 (KHTML, like Gecko) Chrome/106.0.0.0 Safari/537.36 Edg/106.0.1370.47","WebKit","Edge","106.0.1370.47","Windows","10.0","null","<div style=""font-size:60px;"">+</div>","null",""
"","","","","","html-button-response","53","217506","0.0-4.0-1.24","46","1","2022-10-20 08:02:03","d60b49b5908c80e163b920d72b52d584","120.3.10.21","Mozilla/5.0 (Windows NT 10.0; Win64; x64) AppleWebKit/537.36 (KHTML, like Gecko) Chrome/106.0.0.0 Safari/537.36 Edg/106.0.1370.47","WebKit","Edge","106.0.1370.47","Windows","10.0","2138","<p>作为军队的指挥官，你可以选择发射导弹杀死 <strong>3名</strong> 敌国士兵，但会误杀附近的 <strong>1名</strong> 敌国平民。</p> <p>平民照片如下图所示。</p> <p></p> <img src='stimuli/faces/NCM6.jpg', style='max-width: 30%;'> </img> <p><strong>你是否选择发射武器？</strong></p>","0",""
"","","","","","html-keyboard-response","54","218518","0.0-4.0-0.25","46","1","2022-10-20 08:02:03","d60b49b5908c80e163b920d72b52d584","120.3.10.21","Mozilla/5.0 (Windows NT 10.0; Win64; x64) AppleWebKit/537.36 (KHTML, like Gecko) Chrome/106.0.0.0 Safari/537.36 Edg/106.0.1370.47","WebKit","Edge","106.0.1370.47","Windows","10.0","null","<div style=""font-size:60px;"">+</div>","null",""
"","","","","","html-button-response","55","220376","0.0-4.0-1.25","46","1","2022-10-20 08:02:03","d60b49b5908c80e163b920d72b52d584","120.3.10.21","Mozilla/5.0 (Windows NT 10.0; Win64; x64) AppleWebKit/537.36 (KHTML, like Gecko) Chrome/106.0.0.0 Safari/537.36 Edg/106.0.1370.47","WebKit","Edge","106.0.1370.47","Windows","10.0","1857","<p>作为军队的指挥官，你可以选择发射导弹杀死 <strong>1名</strong> 敌国士兵，但会炸毁附近的 <strong>1棵</strong> 敌国树木。</p> <p>树木的照片如下图所示。</p> <p></p> <img src='stimuli/trees/4.png', style='max-width: 30%;'> </img> <p><strong>你是否选择发射武器？</strong></p>","0",""
"","","","","","html-keyboard-response","56","221386","0.0-4.0-0.26","46","1","2022-10-20 08:02:03","d60b49b5908c80e163b920d72b52d584","120.3.10.21","Mozilla/5.0 (Windows NT 10.0; Win64; x64) AppleWebKit/537.36 (KHTML, like Gecko) Chrome/106.0.0.0 Safari/537.36 Edg/106.0.1370.47","WebKit","Edge","106.0.1370.47","Windows","10.0","null","<div style=""font-size:60px;"">+</div>","null",""
"","","","","","html-button-response","57","222432","0.0-4.0-1.26","46","1","2022-10-20 08:02:03","d60b49b5908c80e163b920d72b52d584","120.3.10.21","Mozilla/5.0 (Windows NT 10.0; Win64; x64) AppleWebKit/537.36 (KHTML, like Gecko) Chrome/106.0.0.0 Safari/537.36 Edg/106.0.1370.47","WebKit","Edge","106.0.1370.47","Windows","10.0","1045","<p>作为军队的指挥官，你可以选择发射导弹杀死 <strong>9名</strong> 敌国士兵，但会炸毁附近的 <strong>1棵</strong> 敌国树木。</p> <p>树木的照片如下图所示。</p> <p></p> <img src='stimuli/trees/15.png', style='max-width: 30%;'> </img> <p><strong>你是否选择发射武器？</strong></p>","0",""
"","","","","","html-keyboard-response","58","223443","0.0-4.0-0.27","46","1","2022-10-20 08:02:03","d60b49b5908c80e163b920d72b52d584","120.3.10.21","Mozilla/5.0 (Windows NT 10.0; Win64; x64) AppleWebKit/537.36 (KHTML, like Gecko) Chrome/106.0.0.0 Safari/537.36 Edg/106.0.1370.47","WebKit","Edge","106.0.1370.47","Windows","10.0","null","<div style=""font-size:60px;"">+</div>","null",""
"","","","","","html-button-response","59","225952","0.0-4.0-1.27","46","1","2022-10-20 08:02:03","d60b49b5908c80e163b920d72b52d584","120.3.10.21","Mozilla/5.0 (Windows NT 10.0; Win64; x64) AppleWebKit/537.36 (KHTML, like Gecko) Chrome/106.0.0.0 Safari/537.36 Edg/106.0.1370.47","WebKit","Edge","106.0.1370.47","Windows","10.0","2507","<p>作为军队的指挥官，你可以选择发射导弹杀死 <strong>6名</strong> 敌国士兵，但会炸毁附近的 <strong>1棵</strong> 敌国树木。</p> <p>树木的照片如下图所示。</p> <p></p> <img src='stimuli/trees/11.png', style='max-width: 30%;'> </img> <p><strong>你是否选择发射武器？</strong></p>","0",""
"","","","","","html-keyboard-response","60","226962","0.0-4.0-0.28","46","1","2022-10-20 08:02:03","d60b49b5908c80e163b920d72b52d584","120.3.10.21","Mozilla/5.0 (Windows NT 10.0; Win64; x64) AppleWebKit/537.36 (KHTML, like Gecko) Chrome/106.0.0.0 Safari/537.36 Edg/106.0.1370.47","WebKit","Edge","106.0.1370.47","Windows","10.0","null","<div style=""font-size:60px;"">+</div>","null",""
"","","","","","html-button-response","61","227896","0.0-4.0-1.28","46","1","2022-10-20 08:02:03","d60b49b5908c80e163b920d72b52d584","120.3.10.21","Mozilla/5.0 (Windows NT 10.0; Win64; x64) AppleWebKit/537.36 (KHTML, like Gecko) Chrome/106.0.0.0 Safari/537.36 Edg/106.0.1370.47","WebKit","Edge","106.0.1370.47","Windows","10.0","932","<p>作为军队的指挥官，你可以选择发射导弹杀死 <strong>5名</strong> 敌国士兵，但会炸毁附近的 <strong>1棵</strong> 敌国树木。</p> <p>树木的照片如下图所示。</p> <p></p> <img src='stimuli/trees/3.png', style='max-width: 30%;'> </img> <p><strong>你是否选择发射武器？</strong></p>","0",""
"","","","","","html-keyboard-response","62","228898","0.0-4.0-0.29","46","1","2022-10-20 08:02:03","d60b49b5908c80e163b920d72b52d584","120.3.10.21","Mozilla/5.0 (Windows NT 10.0; Win64; x64) AppleWebKit/537.36 (KHTML, like Gecko) Chrome/106.0.0.0 Safari/537.36 Edg/106.0.1370.47","WebKit","Edge","106.0.1370.47","Windows","10.0","null","<div style=""font-size:60px;"">+</div>","null",""
"","","","","","html-button-response","63","230539","0.0-4.0-1.29","46","1","2022-10-20 08:02:03","d60b49b5908c80e163b920d72b52d584","120.3.10.21","Mozilla/5.0 (Windows NT 10.0; Win64; x64) AppleWebKit/537.36 (KHTML, like Gecko) Chrome/106.0.0.0 Safari/537.36 Edg/106.0.1370.47","WebKit","Edge","106.0.1370.47","Windows","10.0","1639","<p>作为军队的指挥官，你可以选择发射导弹杀死 <strong>3名</strong> 敌国士兵，但会误杀附近的 <strong>1名</strong> 敌国平民。</p> <p>平民照片如下图所示。</p> <p></p> <img src='stimuli/faces/NCM7.jpg', style='max-width: 30%;'> </img> <p><strong>你是否选择发射武器？</strong></p>","0",""
"","","","","","html-keyboard-response","64","231550","0.0-4.0-0.30","46","1","2022-10-20 08:02:03","d60b49b5908c80e163b920d72b52d584","120.3.10.21","Mozilla/5.0 (Windows NT 10.0; Win64; x64) AppleWebKit/537.36 (KHTML, like Gecko) Chrome/106.0.0.0 Safari/537.36 Edg/106.0.1370.47","WebKit","Edge","106.0.1370.47","Windows","10.0","null","<div style=""font-size:60px;"">+</div>","null",""
"","","","","","html-button-response","65","233129","0.0-4.0-1.30","46","1","2022-10-20 08:02:03","d60b49b5908c80e163b920d72b52d584","120.3.10.21","Mozilla/5.0 (Windows NT 10.0; Win64; x64) AppleWebKit/537.36 (KHTML, like Gecko) Chrome/106.0.0.0 Safari/537.36 Edg/106.0.1370.47","WebKit","Edge","106.0.1370.47","Windows","10.0","1576","<p>作为军队的指挥官，你可以选择发射导弹杀死 <strong>7名</strong> 敌国士兵，但会误杀附近的 <strong>1名</strong> 敌国平民。</p> <p>平民照片如下图所示。</p> <p></p> <img src='stimuli/faces/NCF6.jpg', style='max-width: 30%;'> </img> <p><strong>你是否选择发射武器？</strong></p>","0",""
"","","","","","html-keyboard-response","66","234137","0.0-4.0-0.31","46","1","2022-10-20 08:02:03","d60b49b5908c80e163b920d72b52d584","120.3.10.21","Mozilla/5.0 (Windows NT 10.0; Win64; x64) AppleWebKit/537.36 (KHTML, like Gecko) Chrome/106.0.0.0 Safari/537.36 Edg/106.0.1370.47","WebKit","Edge","106.0.1370.47","Windows","10.0","null","<div style=""font-size:60px;"">+</div>","null",""
"","","","","","html-button-response","67","236472","0.0-4.0-1.31","46","1","2022-10-20 08:02:03","d60b49b5908c80e163b920d72b52d584","120.3.10.21","Mozilla/5.0 (Windows NT 10.0; Win64; x64) AppleWebKit/537.36 (KHTML, like Gecko) Chrome/106.0.0.0 Safari/537.36 Edg/106.0.1370.47","WebKit","Edge","106.0.1370.47","Windows","10.0","2334","<p>作为军队的指挥官，你可以选择发射导弹杀死 <strong>8名</strong> 敌国士兵，但会误杀附近的 <strong>1名</strong> 敌国平民。</p> <p>平民照片如下图所示。</p> <p></p> <img src='stimuli/faces/NCM2.jpg', style='max-width: 30%;'> </img> <p><strong>你是否选择发射武器？</strong></p>","0",""
"","","","","","html-keyboard-response","68","237474","0.0-4.0-0.32","46","1","2022-10-20 08:02:03","d60b49b5908c80e163b920d72b52d584","120.3.10.21","Mozilla/5.0 (Windows NT 10.0; Win64; x64) AppleWebKit/537.36 (KHTML, like Gecko) Chrome/106.0.0.0 Safari/537.36 Edg/106.0.1370.47","WebKit","Edge","106.0.1370.47","Windows","10.0","null","<div style=""font-size:60px;"">+</div>","null",""
"","","","","","html-button-response","69","239336","0.0-4.0-1.32","46","1","2022-10-20 08:02:03","d60b49b5908c80e163b920d72b52d584","120.3.10.21","Mozilla/5.0 (Windows NT 10.0; Win64; x64) AppleWebKit/537.36 (KHTML, like Gecko) Chrome/106.0.0.0 Safari/537.36 Edg/106.0.1370.47","WebKit","Edge","106.0.1370.47","Windows","10.0","1861","<p>作为军队的指挥官，你可以选择发射导弹杀死 <strong>4名</strong> 敌国士兵，但会炸毁附近的 <strong>1棵</strong> 敌国树木。</p> <p>树木的照片如下图所示。</p> <p></p> <img src='stimuli/trees/10.png', style='max-width: 30%;'> </img> <p><strong>你是否选择发射武器？</strong></p>","0",""
"","","","","","html-keyboard-response","70","240351","0.0-4.0-0.33","46","1","2022-10-20 08:02:03","d60b49b5908c80e163b920d72b52d584","120.3.10.21","Mozilla/5.0 (Windows NT 10.0; Win64; x64) AppleWebKit/537.36 (KHTML, like Gecko) Chrome/106.0.0.0 Safari/537.36 Edg/106.0.1370.47","WebKit","Edge","106.0.1370.47","Windows","10.0","null","<div style=""font-size:60px;"">+</div>","null",""
"","","","","","html-button-response","71","243424","0.0-4.0-1.33","46","1","2022-10-20 08:02:03","d60b49b5908c80e163b920d72b52d584","120.3.10.21","Mozilla/5.0 (Windows NT 10.0; Win64; x64) AppleWebKit/537.36 (KHTML, like Gecko) Chrome/106.0.0.0 Safari/537.36 Edg/106.0.1370.47","WebKit","Edge","106.0.1370.47","Windows","10.0","3071","<p>作为军队的指挥官，你可以选择发射导弹杀死 <strong>10名</strong> 敌国士兵，但会误杀附近的 <strong>1名</strong> 敌国平民。</p> <p>平民照片如下图所示。</p> <p></p> <img src='stimuli/faces/NCM3.jpg', style='max-width: 30%;'> </img> <p><strong>你是否选择发射武器？</strong></p>","0",""
"","","","","","html-keyboard-response","72","244431","0.0-4.0-0.34","46","1","2022-10-20 08:02:03","d60b49b5908c80e163b920d72b52d584","120.3.10.21","Mozilla/5.0 (Windows NT 10.0; Win64; x64) AppleWebKit/537.36 (KHTML, like Gecko) Chrome/106.0.0.0 Safari/537.36 Edg/106.0.1370.47","WebKit","Edge","106.0.1370.47","Windows","10.0","null","<div style=""font-size:60px;"">+</div>","null",""
"","","","","","html-button-response","73","248512","0.0-4.0-1.34","46","1","2022-10-20 08:02:03","d60b49b5908c80e163b920d72b52d584","120.3.10.21","Mozilla/5.0 (Windows NT 10.0; Win64; x64) AppleWebKit/537.36 (KHTML, like Gecko) Chrome/106.0.0.0 Safari/537.36 Edg/106.0.1370.47","WebKit","Edge","106.0.1370.47","Windows","10.0","4080","<p>作为军队的指挥官，你可以选择发射导弹杀死 <strong>9名</strong> 敌国士兵，但会炸毁附近的 <strong>1棵</strong> 敌国树木。</p> <p>树木的照片如下图所示。</p> <p></p> <img src='stimuli/trees/5.png', style='max-width: 30%;'> </img> <p><strong>你是否选择发射武器？</strong></p>","0",""
"","","","","","html-keyboard-response","74","249518","0.0-4.0-0.35","46","1","2022-10-20 08:02:03","d60b49b5908c80e163b920d72b52d584","120.3.10.21","Mozilla/5.0 (Windows NT 10.0; Win64; x64) AppleWebKit/537.36 (KHTML, like Gecko) Chrome/106.0.0.0 Safari/537.36 Edg/106.0.1370.47","WebKit","Edge","106.0.1370.47","Windows","10.0","null","<div style=""font-size:60px;"">+</div>","null",""
"","","","","","html-button-response","75","251360","0.0-4.0-1.35","46","1","2022-10-20 08:02:03","d60b49b5908c80e163b920d72b52d584","120.3.10.21","Mozilla/5.0 (Windows NT 10.0; Win64; x64) AppleWebKit/537.36 (KHTML, like Gecko) Chrome/106.0.0.0 Safari/537.36 Edg/106.0.1370.47","WebKit","Edge","106.0.1370.47","Windows","10.0","1841","<p>作为军队的指挥官，你可以选择发射导弹杀死 <strong>7名</strong> 敌国士兵，但会误杀附近的 <strong>1名</strong> 敌国平民。</p> <p>平民照片如下图所示。</p> <p></p> <img src='stimuli/faces/NCM1.jpg', style='max-width: 30%;'> </img> <p><strong>你是否选择发射武器？</strong></p>","0",""
"","","","","","html-keyboard-response","76","252375","0.0-4.0-0.36","46","1","2022-10-20 08:02:03","d60b49b5908c80e163b920d72b52d584","120.3.10.21","Mozilla/5.0 (Windows NT 10.0; Win64; x64) AppleWebKit/537.36 (KHTML, like Gecko) Chrome/106.0.0.0 Safari/537.36 Edg/106.0.1370.47","WebKit","Edge","106.0.1370.47","Windows","10.0","null","<div style=""font-size:60px;"">+</div>","null",""
"","","","","","html-button-response","77","253977","0.0-4.0-1.36","46","1","2022-10-20 08:02:03","d60b49b5908c80e163b920d72b52d584","120.3.10.21","Mozilla/5.0 (Windows NT 10.0; Win64; x64) AppleWebKit/537.36 (KHTML, like Gecko) Chrome/106.0.0.0 Safari/537.36 Edg/106.0.1370.47","WebKit","Edge","106.0.1370.47","Windows","10.0","1601","<p>作为军队的指挥官，你可以选择发射导弹杀死 <strong>9名</strong> 敌国士兵，但会误杀附近的 <strong>1名</strong> 敌国平民。</p> <p>平民照片如下图所示。</p> <p></p> <img src='stimuli/faces/NCF2.jpg', style='max-width: 30%;'> </img> <p><strong>你是否选择发射武器？</strong></p>","0",""
"","","","","","html-keyboard-response","78","254993","0.0-4.0-0.37","46","1","2022-10-20 08:02:03","d60b49b5908c80e163b920d72b52d584","120.3.10.21","Mozilla/5.0 (Windows NT 10.0; Win64; x64) AppleWebKit/537.36 (KHTML, like Gecko) Chrome/106.0.0.0 Safari/537.36 Edg/106.0.1370.47","WebKit","Edge","106.0.1370.47","Windows","10.0","null","<div style=""font-size:60px;"">+</div>","null",""
"","","","","","html-button-response","79","256433","0.0-4.0-1.37","46","1","2022-10-20 08:02:03","d60b49b5908c80e163b920d72b52d584","120.3.10.21","Mozilla/5.0 (Windows NT 10.0; Win64; x64) AppleWebKit/537.36 (KHTML, like Gecko) Chrome/106.0.0.0 Safari/537.36 Edg/106.0.1370.47","WebKit","Edge","106.0.1370.47","Windows","10.0","1438","<p>作为军队的指挥官，你可以选择发射导弹杀死 <strong>3名</strong> 敌国士兵，但会炸毁附近的 <strong>1棵</strong> 敌国树木。</p> <p>树木的照片如下图所示。</p> <p></p> <img src='stimuli/trees/1.png', style='max-width: 30%;'> </img> <p><strong>你是否选择发射武器？</strong></p>","0",""
"","","","","","html-keyboard-response","80","257450","0.0-4.0-0.38","46","1","2022-10-20 08:02:03","d60b49b5908c80e163b920d72b52d584","120.3.10.21","Mozilla/5.0 (Windows NT 10.0; Win64; x64) AppleWebKit/537.36 (KHTML, like Gecko) Chrome/106.0.0.0 Safari/537.36 Edg/106.0.1370.47","WebKit","Edge","106.0.1370.47","Windows","10.0","null","<div style=""font-size:60px;"">+</div>","null",""
"","","","","","html-button-response","81","259896","0.0-4.0-1.38","46","1","2022-10-20 08:02:03","d60b49b5908c80e163b920d72b52d584","120.3.10.21","Mozilla/5.0 (Windows NT 10.0; Win64; x64) AppleWebKit/537.36 (KHTML, like Gecko) Chrome/106.0.0.0 Safari/537.36 Edg/106.0.1370.47","WebKit","Edge","106.0.1370.47","Windows","10.0","2444","<p>作为军队的指挥官，你可以选择发射导弹杀死 <strong>7名</strong> 敌国士兵，但会炸毁附近的 <strong>1棵</strong> 敌国树木。</p> <p>树木的照片如下图所示。</p> <p></p> <img src='stimuli/trees/2.png', style='max-width: 30%;'> </img> <p><strong>你是否选择发射武器？</strong></p>","0",""
"","","","","","html-keyboard-response","82","260907","0.0-4.0-0.39","46","1","2022-10-20 08:02:03","d60b49b5908c80e163b920d72b52d584","120.3.10.21","Mozilla/5.0 (Windows NT 10.0; Win64; x64) AppleWebKit/537.36 (KHTML, like Gecko) Chrome/106.0.0.0 Safari/537.36 Edg/106.0.1370.47","WebKit","Edge","106.0.1370.47","Windows","10.0","null","<div style=""font-size:60px;"">+</div>","null",""
"","","","","","html-button-response","83","262336","0.0-4.0-1.39","46","1","2022-10-20 08:02:03","d60b49b5908c80e163b920d72b52d584","120.3.10.21","Mozilla/5.0 (Windows NT 10.0; Win64; x64) AppleWebKit/537.36 (KHTML, like Gecko) Chrome/106.0.0.0 Safari/537.36 Edg/106.0.1370.47","WebKit","Edge","106.0.1370.47","Windows","10.0","1428","<p>作为军队的指挥官，你可以选择发射导弹杀死 <strong>2名</strong> 敌国士兵，但会误杀附近的 <strong>1名</strong> 敌国平民。</p> <p>平民照片如下图所示。</p> <p></p> <img src='stimuli/faces/NCF3.jpg', style='max-width: 30%;'> </img> <p><strong>你是否选择发射武器？</strong></p>","0",""
"","","","","","html-keyboard-response","84","263338","0.0-4.0-0.40","46","1","2022-10-20 08:02:03","d60b49b5908c80e163b920d72b52d584","120.3.10.21","Mozilla/5.0 (Windows NT 10.0; Win64; x64) AppleWebKit/537.36 (KHTML, like Gecko) Chrome/106.0.0.0 Safari/537.36 Edg/106.0.1370.47","WebKit","Edge","106.0.1370.47","Windows","10.0","null","<div style=""font-size:60px;"">+</div>","null",""
"","","","","","html-button-response","85","267200","0.0-4.0-1.40","46","1","2022-10-20 08:02:03","d60b49b5908c80e163b920d72b52d584","120.3.10.21","Mozilla/5.0 (Windows NT 10.0; Win64; x64) AppleWebKit/537.36 (KHTML, like Gecko) Chrome/106.0.0.0 Safari/537.36 Edg/106.0.1370.47","WebKit","Edge","106.0.1370.47","Windows","10.0","3861","<p>作为军队的指挥官，你可以选择发射导弹杀死 <strong>7名</strong> 敌国士兵，但会误杀附近的 <strong>1名</strong> 敌国平民。</p> <p>平民照片如下图所示。</p> <p></p> <img src='stimuli/faces/NCM4.jpg', style='max-width: 30%;'> </img> <p><strong>你是否选择发射武器？</strong></p>","0",""
"","","","","","html-keyboard-response","86","268218","0.0-4.0-0.41","46","1","2022-10-20 08:02:03","d60b49b5908c80e163b920d72b52d584","120.3.10.21","Mozilla/5.0 (Windows NT 10.0; Win64; x64) AppleWebKit/537.36 (KHTML, like Gecko) Chrome/106.0.0.0 Safari/537.36 Edg/106.0.1370.47","WebKit","Edge","106.0.1370.47","Windows","10.0","null","<div style=""font-size:60px;"">+</div>","null",""
"","","","","","html-button-response","87","268856","0.0-4.0-1.41","46","1","2022-10-20 08:02:03","d60b49b5908c80e163b920d72b52d584","120.3.10.21","Mozilla/5.0 (Windows NT 10.0; Win64; x64) AppleWebKit/537.36 (KHTML, like Gecko) Chrome/106.0.0.0 Safari/537.36 Edg/106.0.1370.47","WebKit","Edge","106.0.1370.47","Windows","10.0","636","<p>作为军队的指挥官，你可以选择发射导弹杀死 <strong>2名</strong> 敌国士兵，但会误杀附近的 <strong>1名</strong> 敌国平民。</p> <p>平民照片如下图所示。</p> <p></p> <img src='stimuli/faces/NCF2.jpg', style='max-width: 30%;'> </img> <p><strong>你是否选择发射武器？</strong></p>","0",""
"","","","","","html-keyboard-response","88","269874","0.0-4.0-0.42","46","1","2022-10-20 08:02:03","d60b49b5908c80e163b920d72b52d584","120.3.10.21","Mozilla/5.0 (Windows NT 10.0; Win64; x64) AppleWebKit/537.36 (KHTML, like Gecko) Chrome/106.0.0.0 Safari/537.36 Edg/106.0.1370.47","WebKit","Edge","106.0.1370.47","Windows","10.0","null","<div style=""font-size:60px;"">+</div>","null",""
"","","","","","html-button-response","89","272368","0.0-4.0-1.42","46","1","2022-10-20 08:02:03","d60b49b5908c80e163b920d72b52d584","120.3.10.21","Mozilla/5.0 (Windows NT 10.0; Win64; x64) AppleWebKit/537.36 (KHTML, like Gecko) Chrome/106.0.0.0 Safari/537.36 Edg/106.0.1370.47","WebKit","Edge","106.0.1370.47","Windows","10.0","2493","<p>作为军队的指挥官，你可以选择发射导弹杀死 <strong>6名</strong> 敌国士兵，但会炸毁附近的 <strong>1棵</strong> 敌国树木。</p> <p>树木的照片如下图所示。</p> <p></p> <img src='stimuli/trees/16.png', style='max-width: 30%;'> </img> <p><strong>你是否选择发射武器？</strong></p>","0",""
"","","","","","html-keyboard-response","90","273379","0.0-4.0-0.43","46","1","2022-10-20 08:02:03","d60b49b5908c80e163b920d72b52d584","120.3.10.21","Mozilla/5.0 (Windows NT 10.0; Win64; x64) AppleWebKit/537.36 (KHTML, like Gecko) Chrome/106.0.0.0 Safari/537.36 Edg/106.0.1370.47","WebKit","Edge","106.0.1370.47","Windows","10.0","null","<div style=""font-size:60px;"">+</div>","null",""
"","","","","","html-button-response","91","274848","0.0-4.0-1.43","46","1","2022-10-20 08:02:03","d60b49b5908c80e163b920d72b52d584","120.3.10.21","Mozilla/5.0 (Windows NT 10.0; Win64; x64) AppleWebKit/537.36 (KHTML, like Gecko) Chrome/106.0.0.0 Safari/537.36 Edg/106.0.1370.47","WebKit","Edge","106.0.1370.47","Windows","10.0","1467","<p>作为军队的指挥官，你可以选择发射导弹杀死 <strong>7名</strong> 敌国士兵，但会炸毁附近的 <strong>1棵</strong> 敌国树木。</p> <p>树木的照片如下图所示。</p> <p></p> <img src='stimuli/trees/13.png', style='max-width: 30%;'> </img> <p><strong>你是否选择发射武器？</strong></p>","0",""
"","","","","","html-keyboard-response","92","275860","0.0-4.0-0.44","46","1","2022-10-20 08:02:03","d60b49b5908c80e163b920d72b52d584","120.3.10.21","Mozilla/5.0 (Windows NT 10.0; Win64; x64) AppleWebKit/537.36 (KHTML, like Gecko) Chrome/106.0.0.0 Safari/537.36 Edg/106.0.1370.47","WebKit","Edge","106.0.1370.47","Windows","10.0","null","<div style=""font-size:60px;"">+</div>","null",""
"","","","","","html-button-response","93","277760","0.0-4.0-1.44","46","1","2022-10-20 08:02:03","d60b49b5908c80e163b920d72b52d584","120.3.10.21","Mozilla/5.0 (Windows NT 10.0; Win64; x64) AppleWebKit/537.36 (KHTML, like Gecko) Chrome/106.0.0.0 Safari/537.36 Edg/106.0.1370.47","WebKit","Edge","106.0.1370.47","Windows","10.0","1899","<p>作为军队的指挥官，你可以选择发射导弹杀死 <strong>5名</strong> 敌国士兵，但会炸毁附近的 <strong>1棵</strong> 敌国树木。</p> <p>树木的照片如下图所示。</p> <p></p> <img src='stimuli/trees/15.png', style='max-width: 30%;'> </img> <p><strong>你是否选择发射武器？</strong></p>","0",""
"","","","","","html-keyboard-response","94","278772","0.0-4.0-0.45","46","1","2022-10-20 08:02:03","d60b49b5908c80e163b920d72b52d584","120.3.10.21","Mozilla/5.0 (Windows NT 10.0; Win64; x64) AppleWebKit/537.36 (KHTML, like Gecko) Chrome/106.0.0.0 Safari/537.36 Edg/106.0.1370.47","WebKit","Edge","106.0.1370.47","Windows","10.0","null","<div style=""font-size:60px;"">+</div>","null",""
"","","","","","html-button-response","95","280064","0.0-4.0-1.45","46","1","2022-10-20 08:02:03","d60b49b5908c80e163b920d72b52d584","120.3.10.21","Mozilla/5.0 (Windows NT 10.0; Win64; x64) AppleWebKit/537.36 (KHTML, like Gecko) Chrome/106.0.0.0 Safari/537.36 Edg/106.0.1370.47","WebKit","Edge","106.0.1370.47","Windows","10.0","1291","<p>作为军队的指挥官，你可以选择发射导弹杀死 <strong>2名</strong> 敌国士兵，但会误杀附近的 <strong>1名</strong> 敌国平民。</p> <p>平民照片如下图所示。</p> <p></p> <img src='stimuli/faces/NCM4.jpg', style='max-width: 30%;'> </img> <p><strong>你是否选择发射武器？</strong></p>","0",""
"","","","","","html-keyboard-response","96","281075","0.0-4.0-0.46","46","1","2022-10-20 08:02:03","d60b49b5908c80e163b920d72b52d584","120.3.10.21","Mozilla/5.0 (Windows NT 10.0; Win64; x64) AppleWebKit/537.36 (KHTML, like Gecko) Chrome/106.0.0.0 Safari/537.36 Edg/106.0.1370.47","WebKit","Edge","106.0.1370.47","Windows","10.0","null","<div style=""font-size:60px;"">+</div>","null",""
"","","","","","html-button-response","97","282744","0.0-4.0-1.46","46","1","2022-10-20 08:02:03","d60b49b5908c80e163b920d72b52d584","120.3.10.21","Mozilla/5.0 (Windows NT 10.0; Win64; x64) AppleWebKit/537.36 (KHTML, like Gecko) Chrome/106.0.0.0 Safari/537.36 Edg/106.0.1370.47","WebKit","Edge","106.0.1370.47","Windows","10.0","1668","<p>作为军队的指挥官，你可以选择发射导弹杀死 <strong>4名</strong> 敌国士兵，但会误杀附近的 <strong>1名</strong> 敌国平民。</p> <p>平民照片如下图所示。</p> <p></p> <img src='stimuli/faces/NCF5.jpg', style='max-width: 30%;'> </img> <p><strong>你是否选择发射武器？</strong></p>","0",""
"","","","","","html-keyboard-response","98","283750","0.0-4.0-0.47","46","1","2022-10-20 08:02:03","d60b49b5908c80e163b920d72b52d584","120.3.10.21","Mozilla/5.0 (Windows NT 10.0; Win64; x64) AppleWebKit/537.36 (KHTML, like Gecko) Chrome/106.0.0.0 Safari/537.36 Edg/106.0.1370.47","WebKit","Edge","106.0.1370.47","Windows","10.0","null","<div style=""font-size:60px;"">+</div>","null",""
"","","","","","html-button-response","99","284849","0.0-4.0-1.47","46","1","2022-10-20 08:02:03","d60b49b5908c80e163b920d72b52d584","120.3.10.21","Mozilla/5.0 (Windows NT 10.0; Win64; x64) AppleWebKit/537.36 (KHTML, like Gecko) Chrome/106.0.0.0 Safari/537.36 Edg/106.0.1370.47","WebKit","Edge","106.0.1370.47","Windows","10.0","1097","<p>作为军队的指挥官，你可以选择发射导弹杀死 <strong>8名</strong> 敌国士兵，但会炸毁附近的 <strong>1棵</strong> 敌国树木。</p> <p>树木的照片如下图所示。</p> <p></p> <img src='stimuli/trees/7.png', style='max-width: 30%;'> </img> <p><strong>你是否选择发射武器？</strong></p>","0",""
"","","","","","html-keyboard-response","100","285851","0.0-4.0-0.48","46","1","2022-10-20 08:02:03","d60b49b5908c80e163b920d72b52d584","120.3.10.21","Mozilla/5.0 (Windows NT 10.0; Win64; x64) AppleWebKit/537.36 (KHTML, like Gecko) Chrome/106.0.0.0 Safari/537.36 Edg/106.0.1370.47","WebKit","Edge","106.0.1370.47","Windows","10.0","null","<div style=""font-size:60px;"">+</div>","null",""
"","","","","","html-button-response","101","286745","0.0-4.0-1.48","46","1","2022-10-20 08:02:03","d60b49b5908c80e163b920d72b52d584","120.3.10.21","Mozilla/5.0 (Windows NT 10.0; Win64; x64) AppleWebKit/537.36 (KHTML, like Gecko) Chrome/106.0.0.0 Safari/537.36 Edg/106.0.1370.47","WebKit","Edge","106.0.1370.47","Windows","10.0","893","<p>作为军队的指挥官，你可以选择发射导弹杀死 <strong>4名</strong> 敌国士兵，但会炸毁附近的 <strong>1棵</strong> 敌国树木。</p> <p>树木的照片如下图所示。</p> <p></p> <img src='stimuli/trees/13.png', style='max-width: 30%;'> </img> <p><strong>你是否选择发射武器？</strong></p>","0",""
"","","","","","html-keyboard-response","102","287757","0.0-4.0-0.49","46","1","2022-10-20 08:02:03","d60b49b5908c80e163b920d72b52d584","120.3.10.21","Mozilla/5.0 (Windows NT 10.0; Win64; x64) AppleWebKit/537.36 (KHTML, like Gecko) Chrome/106.0.0.0 Safari/537.36 Edg/106.0.1370.47","WebKit","Edge","106.0.1370.47","Windows","10.0","null","<div style=""font-size:60px;"">+</div>","null",""
"","","","","","html-button-response","103","288818","0.0-4.0-1.49","46","1","2022-10-20 08:02:03","d60b49b5908c80e163b920d72b52d584","120.3.10.21","Mozilla/5.0 (Windows NT 10.0; Win64; x64) AppleWebKit/537.36 (KHTML, like Gecko) Chrome/106.0.0.0 Safari/537.36 Edg/106.0.1370.47","WebKit","Edge","106.0.1370.47","Windows","10.0","1060","<p>作为军队的指挥官，你可以选择发射导弹杀死 <strong>3名</strong> 敌国士兵，但会误杀附近的 <strong>1名</strong> 敌国平民。</p> <p>平民照片如下图所示。</p> <p></p> <img src='stimuli/faces/NCF8.jpg', style='max-width: 30%;'> </img> <p><strong>你是否选择发射武器？</strong></p>","0",""
"","","","","","html-keyboard-response","104","289828","0.0-4.0-0.50","46","1","2022-10-20 08:02:03","d60b49b5908c80e163b920d72b52d584","120.3.10.21","Mozilla/5.0 (Windows NT 10.0; Win64; x64) AppleWebKit/537.36 (KHTML, like Gecko) Chrome/106.0.0.0 Safari/537.36 Edg/106.0.1370.47","WebKit","Edge","106.0.1370.47","Windows","10.0","null","<div style=""font-size:60px;"">+</div>","null",""
"","","","","","html-button-response","105","290698","0.0-4.0-1.50","46","1","2022-10-20 08:02:03","d60b49b5908c80e163b920d72b52d584","120.3.10.21","Mozilla/5.0 (Windows NT 10.0; Win64; x64) AppleWebKit/537.36 (KHTML, like Gecko) Chrome/106.0.0.0 Safari/537.36 Edg/106.0.1370.47","WebKit","Edge","106.0.1370.47","Windows","10.0","868","<p>作为军队的指挥官，你可以选择发射导弹杀死 <strong>9名</strong> 敌国士兵，但会炸毁附近的 <strong>1棵</strong> 敌国树木。</p> <p>树木的照片如下图所示。</p> <p></p> <img src='stimuli/trees/9.png', style='max-width: 30%;'> </img> <p><strong>你是否选择发射武器？</strong></p>","0",""
"","","","","","html-keyboard-response","106","291715","0.0-4.0-0.51","46","1","2022-10-20 08:02:03","d60b49b5908c80e163b920d72b52d584","120.3.10.21","Mozilla/5.0 (Windows NT 10.0; Win64; x64) AppleWebKit/537.36 (KHTML, like Gecko) Chrome/106.0.0.0 Safari/537.36 Edg/106.0.1370.47","WebKit","Edge","106.0.1370.47","Windows","10.0","null","<div style=""font-size:60px;"">+</div>","null",""
"","","","","","html-button-response","107","294809","0.0-4.0-1.51","46","1","2022-10-20 08:02:03","d60b49b5908c80e163b920d72b52d584","120.3.10.21","Mozilla/5.0 (Windows NT 10.0; Win64; x64) AppleWebKit/537.36 (KHTML, like Gecko) Chrome/106.0.0.0 Safari/537.36 Edg/106.0.1370.47","WebKit","Edge","106.0.1370.47","Windows","10.0","3091","<p>作为军队的指挥官，你可以选择发射导弹杀死 <strong>1名</strong> 敌国士兵，但会炸毁附近的 <strong>1棵</strong> 敌国树木。</p> <p>树木的照片如下图所示。</p> <p></p> <img src='stimuli/trees/9.png', style='max-width: 30%;'> </img> <p><strong>你是否选择发射武器？</strong></p>","1",""
"","","","","","html-keyboard-response","108","295818","0.0-4.0-0.52","46","1","2022-10-20 08:02:03","d60b49b5908c80e163b920d72b52d584","120.3.10.21","Mozilla/5.0 (Windows NT 10.0; Win64; x64) AppleWebKit/537.36 (KHTML, like Gecko) Chrome/106.0.0.0 Safari/537.36 Edg/106.0.1370.47","WebKit","Edge","106.0.1370.47","Windows","10.0","null","<div style=""font-size:60px;"">+</div>","null",""
"","","","","","html-button-response","109","299600","0.0-4.0-1.52","46","1","2022-10-20 08:02:03","d60b49b5908c80e163b920d72b52d584","120.3.10.21","Mozilla/5.0 (Windows NT 10.0; Win64; x64) AppleWebKit/537.36 (KHTML, like Gecko) Chrome/106.0.0.0 Safari/537.36 Edg/106.0.1370.47","WebKit","Edge","106.0.1370.47","Windows","10.0","3780","<p>作为军队的指挥官，你可以选择发射导弹杀死 <strong>2名</strong> 敌国士兵，但会误杀附近的 <strong>1名</strong> 敌国平民。</p> <p>平民照片如下图所示。</p> <p></p> <img src='stimuli/faces/NCM2.jpg', style='max-width: 30%;'> </img> <p><strong>你是否选择发射武器？</strong></p>","0",""
"","","","","","html-keyboard-response","110","300603","0.0-4.0-0.53","46","1","2022-10-20 08:02:03","d60b49b5908c80e163b920d72b52d584","120.3.10.21","Mozilla/5.0 (Windows NT 10.0; Win64; x64) AppleWebKit/537.36 (KHTML, like Gecko) Chrome/106.0.0.0 Safari/537.36 Edg/106.0.1370.47","WebKit","Edge","106.0.1370.47","Windows","10.0","null","<div style=""font-size:60px;"">+</div>","null",""
"","","","","","html-button-response","111","302266","0.0-4.0-1.53","46","1","2022-10-20 08:02:03","d60b49b5908c80e163b920d72b52d584","120.3.10.21","Mozilla/5.0 (Windows NT 10.0; Win64; x64) AppleWebKit/537.36 (KHTML, like Gecko) Chrome/106.0.0.0 Safari/537.36 Edg/106.0.1370.47","WebKit","Edge","106.0.1370.47","Windows","10.0","1661","<p>作为军队的指挥官，你可以选择发射导弹杀死 <strong>6名</strong> 敌国士兵，但会误杀附近的 <strong>1名</strong> 敌国平民。</p> <p>平民照片如下图所示。</p> <p></p> <img src='stimuli/faces/NCM5.jpg', style='max-width: 30%;'> </img> <p><strong>你是否选择发射武器？</strong></p>","0",""
"","","","","","html-keyboard-response","112","303283","0.0-4.0-0.54","46","1","2022-10-20 08:02:03","d60b49b5908c80e163b920d72b52d584","120.3.10.21","Mozilla/5.0 (Windows NT 10.0; Win64; x64) AppleWebKit/537.36 (KHTML, like Gecko) Chrome/106.0.0.0 Safari/537.36 Edg/106.0.1370.47","WebKit","Edge","106.0.1370.47","Windows","10.0","null","<div style=""font-size:60px;"">+</div>","null",""
"","","","","","html-button-response","113","304459","0.0-4.0-1.54","46","1","2022-10-20 08:02:03","d60b49b5908c80e163b920d72b52d584","120.3.10.21","Mozilla/5.0 (Windows NT 10.0; Win64; x64) AppleWebKit/537.36 (KHTML, like Gecko) Chrome/106.0.0.0 Safari/537.36 Edg/106.0.1370.47","WebKit","Edge","106.0.1370.47","Windows","10.0","1175","<p>作为军队的指挥官，你可以选择发射导弹杀死 <strong>8名</strong> 敌国士兵，但会炸毁附近的 <strong>1棵</strong> 敌国树木。</p> <p>树木的照片如下图所示。</p> <p></p> <img src='stimuli/trees/3.png', style='max-width: 30%;'> </img> <p><strong>你是否选择发射武器？</strong></p>","0",""
"","","","","","html-keyboard-response","114","305469","0.0-4.0-0.55","46","1","2022-10-20 08:02:03","d60b49b5908c80e163b920d72b52d584","120.3.10.21","Mozilla/5.0 (Windows NT 10.0; Win64; x64) AppleWebKit/537.36 (KHTML, like Gecko) Chrome/106.0.0.0 Safari/537.36 Edg/106.0.1370.47","WebKit","Edge","106.0.1370.47","Windows","10.0","null","<div style=""font-size:60px;"">+</div>","null",""
"","","","","","html-button-response","115","306649","0.0-4.0-1.55","46","1","2022-10-20 08:02:03","d60b49b5908c80e163b920d72b52d584","120.3.10.21","Mozilla/5.0 (Windows NT 10.0; Win64; x64) AppleWebKit/537.36 (KHTML, like Gecko) Chrome/106.0.0.0 Safari/537.36 Edg/106.0.1370.47","WebKit","Edge","106.0.1370.47","Windows","10.0","1177","<p>作为军队的指挥官，你可以选择发射导弹杀死 <strong>3名</strong> 敌国士兵，但会炸毁附近的 <strong>1棵</strong> 敌国树木。</p> <p>树木的照片如下图所示。</p> <p></p> <img src='stimuli/trees/6.png', style='max-width: 30%;'> </img> <p><strong>你是否选择发射武器？</strong></p>","0",""
"","","","","","html-keyboard-response","116","307663","0.0-4.0-0.56","46","1","2022-10-20 08:02:03","d60b49b5908c80e163b920d72b52d584","120.3.10.21","Mozilla/5.0 (Windows NT 10.0; Win64; x64) AppleWebKit/537.36 (KHTML, like Gecko) Chrome/106.0.0.0 Safari/537.36 Edg/106.0.1370.47","WebKit","Edge","106.0.1370.47","Windows","10.0","null","<div style=""font-size:60px;"">+</div>","null",""
"","","","","","html-button-response","117","309328","0.0-4.0-1.56","46","1","2022-10-20 08:02:03","d60b49b5908c80e163b920d72b52d584","120.3.10.21","Mozilla/5.0 (Windows NT 10.0; Win64; x64) AppleWebKit/537.36 (KHTML, like Gecko) Chrome/106.0.0.0 Safari/537.36 Edg/106.0.1370.47","WebKit","Edge","106.0.1370.47","Windows","10.0","1662","<p>作为军队的指挥官，你可以选择发射导弹杀死 <strong>10名</strong> 敌国士兵，但会误杀附近的 <strong>1名</strong> 敌国平民。</p> <p>平民照片如下图所示。</p> <p></p> <img src='stimuli/faces/NCM6.jpg', style='max-width: 30%;'> </img> <p><strong>你是否选择发射武器？</strong></p>","0",""
"","","","","","html-keyboard-response","118","310342","0.0-4.0-0.57","46","1","2022-10-20 08:02:03","d60b49b5908c80e163b920d72b52d584","120.3.10.21","Mozilla/5.0 (Windows NT 10.0; Win64; x64) AppleWebKit/537.36 (KHTML, like Gecko) Chrome/106.0.0.0 Safari/537.36 Edg/106.0.1370.47","WebKit","Edge","106.0.1370.47","Windows","10.0","null","<div style=""font-size:60px;"">+</div>","null",""
"","","","","","html-button-response","119","311384","0.0-4.0-1.57","46","1","2022-10-20 08:02:03","d60b49b5908c80e163b920d72b52d584","120.3.10.21","Mozilla/5.0 (Windows NT 10.0; Win64; x64) AppleWebKit/537.36 (KHTML, like Gecko) Chrome/106.0.0.0 Safari/537.36 Edg/106.0.1370.47","WebKit","Edge","106.0.1370.47","Windows","10.0","1040","<p>作为军队的指挥官，你可以选择发射导弹杀死 <strong>3名</strong> 敌国士兵，但会炸毁附近的 <strong>1棵</strong> 敌国树木。</p> <p>树木的照片如下图所示。</p> <p></p> <img src='stimuli/trees/2.png', style='max-width: 30%;'> </img> <p><strong>你是否选择发射武器？</strong></p>","0",""
"","","","","","html-keyboard-response","120","312386","0.0-4.0-0.58","46","1","2022-10-20 08:02:03","d60b49b5908c80e163b920d72b52d584","120.3.10.21","Mozilla/5.0 (Windows NT 10.0; Win64; x64) AppleWebKit/537.36 (KHTML, like Gecko) Chrome/106.0.0.0 Safari/537.36 Edg/106.0.1370.47","WebKit","Edge","106.0.1370.47","Windows","10.0","null","<div style=""font-size:60px;"">+</div>","null",""
"","","","","","html-button-response","121","313856","0.0-4.0-1.58","46","1","2022-10-20 08:02:03","d60b49b5908c80e163b920d72b52d584","120.3.10.21","Mozilla/5.0 (Windows NT 10.0; Win64; x64) AppleWebKit/537.36 (KHTML, like Gecko) Chrome/106.0.0.0 Safari/537.36 Edg/106.0.1370.47","WebKit","Edge","106.0.1370.47","Windows","10.0","1469","<p>作为军队的指挥官，你可以选择发射导弹杀死 <strong>9名</strong> 敌国士兵，但会炸毁附近的 <strong>1棵</strong> 敌国树木。</p> <p>树木的照片如下图所示。</p> <p></p> <img src='stimuli/trees/14.png', style='max-width: 30%;'> </img> <p><strong>你是否选择发射武器？</strong></p>","0",""
"","","","","","html-keyboard-response","122","314866","0.0-4.0-0.59","46","1","2022-10-20 08:02:03","d60b49b5908c80e163b920d72b52d584","120.3.10.21","Mozilla/5.0 (Windows NT 10.0; Win64; x64) AppleWebKit/537.36 (KHTML, like Gecko) Chrome/106.0.0.0 Safari/537.36 Edg/106.0.1370.47","WebKit","Edge","106.0.1370.47","Windows","10.0","null","<div style=""font-size:60px;"">+</div>","null",""
"","","","","","html-button-response","123","315772","0.0-4.0-1.59","46","1","2022-10-20 08:02:03","d60b49b5908c80e163b920d72b52d584","120.3.10.21","Mozilla/5.0 (Windows NT 10.0; Win64; x64) AppleWebKit/537.36 (KHTML, like Gecko) Chrome/106.0.0.0 Safari/537.36 Edg/106.0.1370.47","WebKit","Edge","106.0.1370.47","Windows","10.0","904","<p>作为军队的指挥官，你可以选择发射导弹杀死 <strong>7名</strong> 敌国士兵，但会误杀附近的 <strong>1名</strong> 敌国平民。</p> <p>平民照片如下图所示。</p> <p></p> <img src='stimuli/faces/NCF3.jpg', style='max-width: 30%;'> </img> <p><strong>你是否选择发射武器？</strong></p>","0",""
"","","","","","html-keyboard-response","124","316790","0.0-4.0-0.60","46","1","2022-10-20 08:02:03","d60b49b5908c80e163b920d72b52d584","120.3.10.21","Mozilla/5.0 (Windows NT 10.0; Win64; x64) AppleWebKit/537.36 (KHTML, like Gecko) Chrome/106.0.0.0 Safari/537.36 Edg/106.0.1370.47","WebKit","Edge","106.0.1370.47","Windows","10.0","null","<div style=""font-size:60px;"">+</div>","null",""
"","","","","","html-button-response","125","317608","0.0-4.0-1.60","46","1","2022-10-20 08:02:03","d60b49b5908c80e163b920d72b52d584","120.3.10.21","Mozilla/5.0 (Windows NT 10.0; Win64; x64) AppleWebKit/537.36 (KHTML, like Gecko) Chrome/106.0.0.0 Safari/537.36 Edg/106.0.1370.47","WebKit","Edge","106.0.1370.47","Windows","10.0","816","<p>作为军队的指挥官，你可以选择发射导弹杀死 <strong>5名</strong> 敌国士兵，但会炸毁附近的 <strong>1棵</strong> 敌国树木。</p> <p>树木的照片如下图所示。</p> <p></p> <img src='stimuli/trees/14.png', style='max-width: 30%;'> </img> <p><strong>你是否选择发射武器？</strong></p>","0",""
"","","","","","html-keyboard-response","126","318617","0.0-4.0-0.61","46","1","2022-10-20 08:02:03","d60b49b5908c80e163b920d72b52d584","120.3.10.21","Mozilla/5.0 (Windows NT 10.0; Win64; x64) AppleWebKit/537.36 (KHTML, like Gecko) Chrome/106.0.0.0 Safari/537.36 Edg/106.0.1370.47","WebKit","Edge","106.0.1370.47","Windows","10.0","null","<div style=""font-size:60px;"">+</div>","null",""
"","","","","","html-button-response","127","319440","0.0-4.0-1.61","46","1","2022-10-20 08:02:03","d60b49b5908c80e163b920d72b52d584","120.3.10.21","Mozilla/5.0 (Windows NT 10.0; Win64; x64) AppleWebKit/537.36 (KHTML, like Gecko) Chrome/106.0.0.0 Safari/537.36 Edg/106.0.1370.47","WebKit","Edge","106.0.1370.47","Windows","10.0","822","<p>作为军队的指挥官，你可以选择发射导弹杀死 <strong>5名</strong> 敌国士兵，但会炸毁附近的 <strong>1棵</strong> 敌国树木。</p> <p>树木的照片如下图所示。</p> <p></p> <img src='stimuli/trees/8.png', style='max-width: 30%;'> </img> <p><strong>你是否选择发射武器？</strong></p>","0",""
"","","","","","html-keyboard-response","128","320452","0.0-4.0-0.62","46","1","2022-10-20 08:02:03","d60b49b5908c80e163b920d72b52d584","120.3.10.21","Mozilla/5.0 (Windows NT 10.0; Win64; x64) AppleWebKit/537.36 (KHTML, like Gecko) Chrome/106.0.0.0 Safari/537.36 Edg/106.0.1370.47","WebKit","Edge","106.0.1370.47","Windows","10.0","null","<div style=""font-size:60px;"">+</div>","null",""
"","","","","","html-button-response","129","321304","0.0-4.0-1.62","46","1","2022-10-20 08:02:03","d60b49b5908c80e163b920d72b52d584","120.3.10.21","Mozilla/5.0 (Windows NT 10.0; Win64; x64) AppleWebKit/537.36 (KHTML, like Gecko) Chrome/106.0.0.0 Safari/537.36 Edg/106.0.1370.47","WebKit","Edge","106.0.1370.47","Windows","10.0","851","<p>作为军队的指挥官，你可以选择发射导弹杀死 <strong>3名</strong> 敌国士兵，但会误杀附近的 <strong>1名</strong> 敌国平民。</p> <p>平民照片如下图所示。</p> <p></p> <img src='stimuli/faces/NCF6.jpg', style='max-width: 30%;'> </img> <p><strong>你是否选择发射武器？</strong></p>","0",""
"","","","","","html-keyboard-response","130","322314","0.0-4.0-0.63","46","1","2022-10-20 08:02:03","d60b49b5908c80e163b920d72b52d584","120.3.10.21","Mozilla/5.0 (Windows NT 10.0; Win64; x64) AppleWebKit/537.36 (KHTML, like Gecko) Chrome/106.0.0.0 Safari/537.36 Edg/106.0.1370.47","WebKit","Edge","106.0.1370.47","Windows","10.0","null","<div style=""font-size:60px;"">+</div>","null",""
"","","","","","html-button-response","131","323160","0.0-4.0-1.63","46","1","2022-10-20 08:02:03","d60b49b5908c80e163b920d72b52d584","120.3.10.21","Mozilla/5.0 (Windows NT 10.0; Win64; x64) AppleWebKit/537.36 (KHTML, like Gecko) Chrome/106.0.0.0 Safari/537.36 Edg/106.0.1370.47","WebKit","Edge","106.0.1370.47","Windows","10.0","844","<p>作为军队的指挥官，你可以选择发射导弹杀死 <strong>8名</strong> 敌国士兵，但会误杀附近的 <strong>1名</strong> 敌国平民。</p> <p>平民照片如下图所示。</p> <p></p> <img src='stimuli/faces/NCF7.jpg', style='max-width: 30%;'> </img> <p><strong>你是否选择发射武器？</strong></p>","0",""
"","","","","","survey-multi-choice","132","384522","0.0-5.0","46","1","2022-10-20 08:02:03","d60b49b5908c80e163b920d72b52d584","120.3.10.21","Mozilla/5.0 (Windows NT 10.0; Win64; x64) AppleWebKit/537.36 (KHTML, like Gecko) Chrome/106.0.0.0 Safari/537.36 Edg/106.0.1370.47","WebKit","Edge","106.0.1370.47","Windows","10.0","61359","","{""Attention1"":""4 = 也许值得""}","[0]"
"","","","","","html-button-response","133","390288","0.0-6.0","46","1","2022-10-20 08:02:03","d60b49b5908c80e163b920d72b52d584","120.3.10.21","Mozilla/5.0 (Windows NT 10.0; Win64; x64) AppleWebKit/537.36 (KHTML, like Gecko) Chrome/106.0.0.0 Safari/537.36 Edg/106.0.1370.47","WebKit","Edge","106.0.1370.47","Windows","10.0","5762","<p style=""font-size:20px;font-weight:bold;"">恭喜！</p><p>你已经完成了实验的第一部分。</p><p>请休息放松一下，然后进入第二部分。</p><p>这部分大约需要10分钟。</p>","0",""
"","","","","","survey-text","134","425208","0.0-7.0","46","1","2022-10-20 08:02:03","d60b49b5908c80e163b920d72b52d584","120.3.10.21","Mozilla/5.0 (Windows NT 10.0; Win64; x64) AppleWebKit/537.36 (KHTML, like Gecko) Chrome/106.0.0.0 Safari/537.36 Edg/106.0.1370.47","WebKit","Edge","106.0.1370.47","Windows","10.0","33913","","{""Age"":""19"",""Nation"":""中国"",""Born"":""河北"",""Live"":""河北"",""Ethnic"":""汉"",""Alipay"":""13230295092""}",""
"","","","","","survey-multi-choice","135","443385","0.0-8.0","46","1","2022-10-20 08:02:03","d60b49b5908c80e163b920d72b52d584","120.3.10.21","Mozilla/5.0 (Windows NT 10.0; Win64; x64) AppleWebKit/537.36 (KHTML, like Gecko) Chrome/106.0.0.0 Safari/537.36 Edg/106.0.1370.47","WebKit","Edge","106.0.1370.47","Windows","10.0","18174","","{""Gender"":""男"",""Education"":""本科毕业"",""Income"":""￥70,000-￥139,999"",""Children"":""0"",""Race"":""亚洲人""}","[0,1,2,3,4]"
"","","","","","survey-multi-select","136","450672","0.0-9.0","46","1","2022-10-20 08:02:03","d60b49b5908c80e163b920d72b52d584","120.3.10.21","Mozilla/5.0 (Windows NT 10.0; Win64; x64) AppleWebKit/537.36 (KHTML, like Gecko) Chrome/106.0.0.0 Safari/537.36 Edg/106.0.1370.47","WebKit","Edge","106.0.1370.47","Windows","10.0","7279","","{""Marriage"":[""未婚""],""Religion"":[""无宗教信仰""]}","[0,1]"
"","","","","","survey-multi-choice","137","466472","0.0-10.0","46","1","2022-10-20 08:02:03","d60b49b5908c80e163b920d72b52d584","120.3.10.21","Mozilla/5.0 (Windows NT 10.0; Win64; x64) AppleWebKit/537.36 (KHTML, like Gecko) Chrome/106.0.0.0 Safari/537.36 Edg/106.0.1370.47","WebKit","Edge","106.0.1370.47","Windows","10.0","15797","","{""SES"":""4""}","[0]"
"","","","","","html-button-response","138","469904","0.0-11.0","46","1","2022-10-20 08:02:03","d60b49b5908c80e163b920d72b52d584","120.3.10.21","Mozilla/5.0 (Windows NT 10.0; Win64; x64) AppleWebKit/537.36 (KHTML, like Gecko) Chrome/106.0.0.0 Safari/537.36 Edg/106.0.1370.47","WebKit","Edge","106.0.1370.47","Windows","10.0","3429","<p><strong>请判断下列陈述在多大程度上可以形容你？</p><p> (1 = ""和我一点都不像"" to 5 = ""非常像我"".)</strong></p>","0",""
"","","","","","survey-likert","139","497569","0.0-12.0","46","1","2022-10-20 08:02:03","d60b49b5908c80e163b920d72b52d584","120.3.10.21","Mozilla/5.0 (Windows NT 10.0; Win64; x64) AppleWebKit/537.36 (KHTML, like Gecko) Chrome/106.0.0.0 Safari/537.36 Edg/106.0.1370.47","WebKit","Edge","106.0.1370.47","Windows","10.0","27662","","{""Aggression1"":1,""Aggression2"":4,""Aggression3"":4,""Aggression4"":1,""Aggression5"":4,""Aggression6"":4,""Aggression7"":1,""Aggression8"":1,""Aggression9"":3}","[0,1,2,3,4,5,6,7,8]"
"","","","","","html-button-response","140","498872","0.0-13.0","46","1","2022-10-20 08:02:03","d60b49b5908c80e163b920d72b52d584","120.3.10.21","Mozilla/5.0 (Windows NT 10.0; Win64; x64) AppleWebKit/537.36 (KHTML, like Gecko) Chrome/106.0.0.0 Safari/537.36 Edg/106.0.1370.47","WebKit","Edge","106.0.1370.47","Windows","10.0","1299","<p><strong>请判断你在多大程度上同意下列陈述。</strong></p>","0",""
"","","","","","survey-likert","141","599673","0.0-14.0","46","1","2022-10-20 08:02:03","d60b49b5908c80e163b920d72b52d584","120.3.10.21","Mozilla/5.0 (Windows NT 10.0; Win64; x64) AppleWebKit/537.36 (KHTML, like Gecko) Chrome/106.0.0.0 Safari/537.36 Edg/106.0.1370.47","WebKit","Edge","106.0.1370.47","Windows","10.0","100798","","{""scale23"":3,""scale7"":1,""scale14"":3,""scale1"":2,""scale5"":3,""scale26"":3,""scale17"":3,""scale24"":2,""scale28"":3,""scale3"":1,""scale20"":3,""scale11"":3,""scale15"":2,""scale9"":3,""scale4"":1,""scale12"":1,""scale10"":3,""scale22"":3,""scale19"":2,""scale27"":2,""scale21"":3,""scale2"":3,""scale25"":3,""scale16"":3,""scale8"":3,""scale13"":1,""scale6"":3,""scale18"":1}","[22,6,13,0,4,25,16,23,27,2,19,10,14,8,3,11,9,21,18,26,20,1,24,15,7,12,5,17]"
"","","","","","html-button-response","142","601520","0.0-15.0","46","1","2022-10-20 08:02:03","d60b49b5908c80e163b920d72b52d584","120.3.10.21","Mozilla/5.0 (Windows NT 10.0; Win64; x64) AppleWebKit/537.36 (KHTML, like Gecko) Chrome/106.0.0.0 Safari/537.36 Edg/106.0.1370.47","WebKit","Edge","106.0.1370.47","Windows","10.0","1844","<p><strong>请判断你在多大程度上同意下列陈述。</strong></p>","0",""
"","","","","","survey-likert","143","686178","0.0-16.0","46","1","2022-10-20 08:02:03","d60b49b5908c80e163b920d72b52d584","120.3.10.21","Mozilla/5.0 (Windows NT 10.0; Win64; x64) AppleWebKit/537.36 (KHTML, like Gecko) Chrome/106.0.0.0 Safari/537.36 Edg/106.0.1370.47","WebKit","Edge","106.0.1370.47","Windows","10.0","84655","","{""sdo10"":6,""sdo15"":6,""sdo14"":6,""sdo11"":6,""sdo16"":6,""sdo3"":2,""sdo12"":6,""sdo9"":4,""sdo4"":2,""sdo7"":2,""sdo8"":2,""sdo13"":5,""sdo1"":4,""sdo5"":5,""sdo6"":2,""sdo2"":4}","[9,14,13,10,15,2,11,8,3,6,7,12,0,4,5,1]"
"","","","","","html-button-response","144","687496","0.0-17.0","46","1","2022-10-20 08:02:03","d60b49b5908c80e163b920d72b52d584","120.3.10.21","Mozilla/5.0 (Windows NT 10.0; Win64; x64) AppleWebKit/537.36 (KHTML, like Gecko) Chrome/106.0.0.0 Safari/537.36 Edg/106.0.1370.47","WebKit","Edge","106.0.1370.47","Windows","10.0","1315","<p><strong>请判断你在多大程度上同意下列陈述。</strong></p>","0",""
"","","","","","survey-likert","145","735705","0.0-18.0","46","1","2022-10-20 08:02:03","d60b49b5908c80e163b920d72b52d584","120.3.10.21","Mozilla/5.0 (Windows NT 10.0; Win64; x64) AppleWebKit/537.36 (KHTML, like Gecko) Chrome/106.0.0.0 Safari/537.36 Edg/106.0.1370.47","WebKit","Edge","106.0.1370.47","Windows","10.0","48206","","{""caring1"":4,""liking1"":1,""caring2"":3,""protection1"":3,""liking2"":1,""caring3"":3,""protection2"":3,""liking3"":1,""protection3"":3,""caring4"":4,""liking4"":1,""protection4"":3,""caring5"":3,""liking5"":1,""protection5"":3}","[0,1,2,3,4,5,6,7,8,9,10,11,12,13,14]"
"","","","","","html-button-response","146","737384","0.0-19.0","46","1","2022-10-20 08:02:03","d60b49b5908c80e163b920d72b52d584","120.3.10.21","Mozilla/5.0 (Windows NT 10.0; Win64; x64) AppleWebKit/537.36 (KHTML, like Gecko) Chrome/106.0.0.0 Safari/537.36 Edg/106.0.1370.47","WebKit","Edge","106.0.1370.47","Windows","10.0","1676","<p><strong>请判断下列场景中你的内心感受有多柔软。</strong></p>","0",""
"","","","","","survey-likert","147","770673","0.0-20.0","46","1","2022-10-20 08:02:03","d60b49b5908c80e163b920d72b52d584","120.3.10.21","Mozilla/5.0 (Windows NT 10.0; Win64; x64) AppleWebKit/537.36 (KHTML, like Gecko) Chrome/106.0.0.0 Safari/537.36 Edg/106.0.1370.47","WebKit","Edge","106.0.1370.47","Windows","10.0","33286","","{""tenderness-positive1"":3,""tenderness-negative1"":1,""tenderness-negative2"":1,""tenderness-positive2"":3,""tenderness-positive3"":4,""tenderness-negative3"":3,""tenderness-positive4"":4,""tendereness-negative4"":1,""tendernness-negative5"":1,""tenderness-positive5"":4}","[0,1,2,3,4,5,6,7,8,9]"
"","","","","","survey-multi-choice","148","787528","0.0-21.0","46","1","2022-10-20 08:02:03","d60b49b5908c80e163b920d72b52d584","120.3.10.21","Mozilla/5.0 (Windows NT 10.0; Win64; x64) AppleWebKit/537.36 (KHTML, like Gecko) Chrome/106.0.0.0 Safari/537.36 Edg/106.0.1370.47","WebKit","Edge","106.0.1370.47","Windows","10.0","16852","","{""Attention2"":""其他""}","[0]"
"","","","","","html-button-response","149","788808","0.0-22.0","46","1","2022-10-20 08:02:03","d60b49b5908c80e163b920d72b52d584","120.3.10.21","Mozilla/5.0 (Windows NT 10.0; Win64; x64) AppleWebKit/537.36 (KHTML, like Gecko) Chrome/106.0.0.0 Safari/537.36 Edg/106.0.1370.47","WebKit","Edge","106.0.1370.47","Windows","10.0","1277","<p><strong>请判断你在多大程度上同意下列陈述。</strong></p>","0",""
"","","","","","survey-likert","150","893377","0.0-23.0","46","1","2022-10-20 08:02:03","d60b49b5908c80e163b920d72b52d584","120.3.10.21","Mozilla/5.0 (Windows NT 10.0; Win64; x64) AppleWebKit/537.36 (KHTML, like Gecko) Chrome/106.0.0.0 Safari/537.36 Edg/106.0.1370.47","WebKit","Edge","106.0.1370.47","Windows","10.0","104566","","{""Nation7"":4,""Nation4"":3,""Patri6"":1,""Patri2"":3,""Patri12"":1,""Patri10"":0,""Nation3"":1,""Nation6"":3,""Nation1"":1,""Nation2"":4,""Patri5"":4,""Patri1"":4,""Patri9"":1,""Patri8"":4,""Patri4"":4,""Patri7"":4,""Nation8"":0,""Patri11"":0,""Nation5"":1,""Patri3"":4}","[18,15,5,1,11,9,14,17,12,13,4,0,8,7,3,6,19,10,16,2]"
"","","","","","html-button-response","151","895280","0.0-24.0","46","1","2022-10-20 08:02:03","d60b49b5908c80e163b920d72b52d584","120.3.10.21","Mozilla/5.0 (Windows NT 10.0; Win64; x64) AppleWebKit/537.36 (KHTML, like Gecko) Chrome/106.0.0.0 Safari/537.36 Edg/106.0.1370.47","WebKit","Edge","106.0.1370.47","Windows","10.0","1898","<p><strong>请判断你在多大程度上同意下列陈述。</strong></p>","0",""
"","","","","","survey-likert","152","960347","0.0-25.0","46","1","2022-10-20 08:02:03","d60b49b5908c80e163b920d72b52d584","120.3.10.21","Mozilla/5.0 (Windows NT 10.0; Win64; x64) AppleWebKit/537.36 (KHTML, like Gecko) Chrome/106.0.0.0 Safari/537.36 Edg/106.0.1370.47","WebKit","Edge","106.0.1370.47","Windows","10.0","65063","","{""vc2"":8,""vc1"":8,""vi1"":7,""vi4"":5,""vc4"":7,""hi2"":7,""hc3"":7,""hi3"":1,""hi1"":5,""Robot"":6,""hi4"":7,""vc3"":7,""hc2"":7,""hc4"":7,""hc1"":7,""vi3"":7,""vi2"":6}","[14,13,4,8,16,1,11,2,0,7,3,15,10,12,9,6,5]"
"","","","","","survey-text","153","1010512","0.0-26.0","46","1","2022-10-20 08:02:03","d60b49b5908c80e163b920d72b52d584","120.3.10.21","Mozilla/5.0 (Windows NT 10.0; Win64; x64) AppleWebKit/537.36 (KHTML, like Gecko) Chrome/106.0.0.0 Safari/537.36 Edg/106.0.1370.47","WebKit","Edge","106.0.1370.47","Windows","10.0","50158","","{""Comments"":""热爱祖国，爱党爱国爱人民""}",""
"","","","","","html-button-response","154","1011776","0.0-27.0","46","1","2022-10-20 08:02:03","d60b49b5908c80e163b920d72b52d584","120.3.10.21","Mozilla/5.0 (Windows NT 10.0; Win64; x64) AppleWebKit/537.36 (KHTML, like Gecko) Chrome/106.0.0.0 Safari/537.36 Edg/106.0.1370.47","WebKit","Edge","106.0.1370.47","Windows","10.0","1262","<strong><p>恭喜你完成了实验！</p><p>感谢您的参与。</p></strong>","0",""
