"success","timeout","failed_images","failed_audio","failed_video","trial_type","trial_index","time_elapsed","internal_node_id","run_id","condition","recorded_at","source_code_version","ip","user_agent","device","browser","browser_version","platform","platform_version","rt","stimulus","response","question_order"
"true","false","[]","[]","[]","preload","0","1012","0.0-0.0","49","1","2022-10-20 08:19:44","d60b49b5908c80e163b920d72b52d584","59.36.162.115","Mozilla/5.0 (Windows NT 10.0; Win64; x64) AppleWebKit/537.36 (KHTML, like Gecko) Chrome/99.0.4844.51 Safari/537.36","WebKit","Chrome","99.0.4844.51","Windows","10.0","","","",""
"true","","","","","fullscreen","1","4458","0.0-1.0","49","1","2022-10-20 08:19:44","d60b49b5908c80e163b920d72b52d584","59.36.162.115","Mozilla/5.0 (Windows NT 10.0; Win64; x64) AppleWebKit/537.36 (KHTML, like Gecko) Chrome/99.0.4844.51 Safari/537.36","WebKit","Chrome","99.0.4844.51","Windows","10.0","","","",""
"","","","","","html-button-response","2","8117","0.0-2.0","49","1","2022-10-20 08:19:44","d60b49b5908c80e163b920d72b52d584","59.36.162.115","Mozilla/5.0 (Windows NT 10.0; Win64; x64) AppleWebKit/537.36 (KHTML, like Gecko) Chrome/99.0.4844.51 Safari/537.36","WebKit","Chrome","99.0.4844.51","Windows","10.0","3656","<p style=""font-size:20px;font-weight:bold;"">实验知情同意书</p><p style=""text-align:left;""><strong>实验名称：</strong>社会冲突研究</p><p style=""text-align:left;""><strong>主要研究者：</strong>韩晓春副教授（北京师范大学心理学部）</p><p style=""text-align:left;""><strong>联系方式：</strong>发送邮件至xiaochun.han@bnu.edu.cn</p><p style=""text-align:left;""><strong>研究目的：</strong>研究旨在了解人类面对群体冲突时的决策方式，以及相关的心理学特质。实验调查大约需要20分钟。</p><p style=""text-align:left;""><strong>实验流程：</strong>实验包含两部分。第一部分呈现一系列群体冲突场景，请你决定如何对这些冲突进行反应，大约需要10分钟完成。第二部分包含一系列人口统计学信息收集和心理学问卷，大约需要10分钟完成。</p><p style=""text-align:left;""><strong>参加及退出规则：</strong>参加本实验完全取决于您的个人意愿。在参与过程中，您可以随时退出，并且不用承担任何后果。</p><p style=""text-align:left;""><strong>隐私：</strong>本实验完全匿名进行，不会收集您的姓名或其他能够识别您身份的信息。实验中收集的作答仅用作科学研究使用，可能会在学术期刊/书籍上发表，或者用于教学，您的数据未来可能会和其他研究者或实验室分享，但您的个人身份不会被识别。</p><p style=""text-align:left;""><strong>实验报酬：</strong>实验完成后，您将获得15元人民币报酬，以感谢您的时间和努力。调查问卷中包含几道题目用以测验您作答时的认真度。只有完成全部实验，并且正确回答认真度测验的被试才能获得实验报酬。实验报酬将通过支付宝转账发放。</p><p style=""text-align:left;font-size:20px;""><strong>如果您同意以上实验知情同意书的内容，请点击'同意并且开始实验'按钮；否则请关闭浏览器界面，退出实验。</strong></p>","0",""
"","","","","","html-button-response","3","12628","0.0-3.0","49","1","2022-10-20 08:19:44","d60b49b5908c80e163b920d72b52d584","59.36.162.115","Mozilla/5.0 (Windows NT 10.0; Win64; x64) AppleWebKit/537.36 (KHTML, like Gecko) Chrome/99.0.4844.51 Safari/537.36","WebKit","Chrome","99.0.4844.51","Windows","10.0","4508","<p ><strong>实验任务一：</strong></p><p>请想象你的国家与另一个国家发生了军事冲突。</p><p>你是国家军队的指挥官，你将如何在冲突中进行决策。</p><p>具体来说，作为军队指挥官，请你决定是否发射导弹进行打击。</p><p>接下来，你会面对一系列场景，请仔细阅读每个场景，然后进行决策。</p><p>这部分实验任务大约需要10分钟。</p><p><strong>实验过程中，请集中注意力。</strong></p>","0",""
"","","","","","html-keyboard-response","4","13633","0.0-4.0-0.0","49","1","2022-10-20 08:19:44","d60b49b5908c80e163b920d72b52d584","59.36.162.115","Mozilla/5.0 (Windows NT 10.0; Win64; x64) AppleWebKit/537.36 (KHTML, like Gecko) Chrome/99.0.4844.51 Safari/537.36","WebKit","Chrome","99.0.4844.51","Windows","10.0","null","<div style=""font-size:60px;"">+</div>","null",""
"","","","","","html-button-response","5","15843","0.0-4.0-1.0","49","1","2022-10-20 08:19:44","d60b49b5908c80e163b920d72b52d584","59.36.162.115","Mozilla/5.0 (Windows NT 10.0; Win64; x64) AppleWebKit/537.36 (KHTML, like Gecko) Chrome/99.0.4844.51 Safari/537.36","WebKit","Chrome","99.0.4844.51","Windows","10.0","2206","<p>作为军队的指挥官，你可以选择发射导弹杀死 <strong>9名</strong> 敌国士兵，但会误杀附近的 <strong>1名</strong> 敌国平民。</p> <p>平民照片如下图所示。</p> <p></p> <img src='stimuli/faces/NCF6.jpg', style='max-width: 30%;'> </img> <p><strong>你是否选择发射武器？</strong></p>","0",""
"","","","","","html-keyboard-response","6","16846","0.0-4.0-0.1","49","1","2022-10-20 08:19:44","d60b49b5908c80e163b920d72b52d584","59.36.162.115","Mozilla/5.0 (Windows NT 10.0; Win64; x64) AppleWebKit/537.36 (KHTML, like Gecko) Chrome/99.0.4844.51 Safari/537.36","WebKit","Chrome","99.0.4844.51","Windows","10.0","null","<div style=""font-size:60px;"">+</div>","null",""
"","","","","","html-button-response","7","18035","0.0-4.0-1.1","49","1","2022-10-20 08:19:44","d60b49b5908c80e163b920d72b52d584","59.36.162.115","Mozilla/5.0 (Windows NT 10.0; Win64; x64) AppleWebKit/537.36 (KHTML, like Gecko) Chrome/99.0.4844.51 Safari/537.36","WebKit","Chrome","99.0.4844.51","Windows","10.0","1186","<p>作为军队的指挥官，你可以选择发射导弹杀死 <strong>9名</strong> 敌国士兵，但会炸毁附近的 <strong>1棵</strong> 敌国树木。</p> <p>树木的照片如下图所示。</p> <p></p> <img src='stimuli/trees/5.png', style='max-width: 30%;'> </img> <p><strong>你是否选择发射武器？</strong></p>","0",""
"","","","","","html-keyboard-response","8","19039","0.0-4.0-0.2","49","1","2022-10-20 08:19:44","d60b49b5908c80e163b920d72b52d584","59.36.162.115","Mozilla/5.0 (Windows NT 10.0; Win64; x64) AppleWebKit/537.36 (KHTML, like Gecko) Chrome/99.0.4844.51 Safari/537.36","WebKit","Chrome","99.0.4844.51","Windows","10.0","null","<div style=""font-size:60px;"">+</div>","null",""
"","","","","","html-button-response","9","21269","0.0-4.0-1.2","49","1","2022-10-20 08:19:44","d60b49b5908c80e163b920d72b52d584","59.36.162.115","Mozilla/5.0 (Windows NT 10.0; Win64; x64) AppleWebKit/537.36 (KHTML, like Gecko) Chrome/99.0.4844.51 Safari/537.36","WebKit","Chrome","99.0.4844.51","Windows","10.0","2226","<p>作为军队的指挥官，你可以选择发射导弹杀死 <strong>9名</strong> 敌国士兵，但会误杀附近的 <strong>1名</strong> 敌国平民。</p> <p>平民照片如下图所示。</p> <p></p> <img src='stimuli/faces/NCM3.jpg', style='max-width: 30%;'> </img> <p><strong>你是否选择发射武器？</strong></p>","0",""
"","","","","","html-keyboard-response","10","22273","0.0-4.0-0.3","49","1","2022-10-20 08:19:44","d60b49b5908c80e163b920d72b52d584","59.36.162.115","Mozilla/5.0 (Windows NT 10.0; Win64; x64) AppleWebKit/537.36 (KHTML, like Gecko) Chrome/99.0.4844.51 Safari/537.36","WebKit","Chrome","99.0.4844.51","Windows","10.0","null","<div style=""font-size:60px;"">+</div>","null",""
"","","","","","html-button-response","11","24067","0.0-4.0-1.3","49","1","2022-10-20 08:19:44","d60b49b5908c80e163b920d72b52d584","59.36.162.115","Mozilla/5.0 (Windows NT 10.0; Win64; x64) AppleWebKit/537.36 (KHTML, like Gecko) Chrome/99.0.4844.51 Safari/537.36","WebKit","Chrome","99.0.4844.51","Windows","10.0","1789","<p>作为军队的指挥官，你可以选择发射导弹杀死 <strong>3名</strong> 敌国士兵，但会误杀附近的 <strong>1名</strong> 敌国平民。</p> <p>平民照片如下图所示。</p> <p></p> <img src='stimuli/faces/NCM5.jpg', style='max-width: 30%;'> </img> <p><strong>你是否选择发射武器？</strong></p>","1",""
"","","","","","html-keyboard-response","12","25070","0.0-4.0-0.4","49","1","2022-10-20 08:19:44","d60b49b5908c80e163b920d72b52d584","59.36.162.115","Mozilla/5.0 (Windows NT 10.0; Win64; x64) AppleWebKit/537.36 (KHTML, like Gecko) Chrome/99.0.4844.51 Safari/537.36","WebKit","Chrome","99.0.4844.51","Windows","10.0","null","<div style=""font-size:60px;"">+</div>","null",""
"","","","","","html-button-response","13","26285","0.0-4.0-1.4","49","1","2022-10-20 08:19:44","d60b49b5908c80e163b920d72b52d584","59.36.162.115","Mozilla/5.0 (Windows NT 10.0; Win64; x64) AppleWebKit/537.36 (KHTML, like Gecko) Chrome/99.0.4844.51 Safari/537.36","WebKit","Chrome","99.0.4844.51","Windows","10.0","1210","<p>作为军队的指挥官，你可以选择发射导弹杀死 <strong>10名</strong> 敌国士兵，但会炸毁附近的 <strong>1棵</strong> 敌国树木。</p> <p>树木的照片如下图所示。</p> <p></p> <img src='stimuli/trees/2.png', style='max-width: 30%;'> </img> <p><strong>你是否选择发射武器？</strong></p>","0",""
"","","","","","html-keyboard-response","14","27288","0.0-4.0-0.5","49","1","2022-10-20 08:19:44","d60b49b5908c80e163b920d72b52d584","59.36.162.115","Mozilla/5.0 (Windows NT 10.0; Win64; x64) AppleWebKit/537.36 (KHTML, like Gecko) Chrome/99.0.4844.51 Safari/537.36","WebKit","Chrome","99.0.4844.51","Windows","10.0","null","<div style=""font-size:60px;"">+</div>","null",""
"","","","","","html-button-response","15","27899","0.0-4.0-1.5","49","1","2022-10-20 08:19:44","d60b49b5908c80e163b920d72b52d584","59.36.162.115","Mozilla/5.0 (Windows NT 10.0; Win64; x64) AppleWebKit/537.36 (KHTML, like Gecko) Chrome/99.0.4844.51 Safari/537.36","WebKit","Chrome","99.0.4844.51","Windows","10.0","606","<p>作为军队的指挥官，你可以选择发射导弹杀死 <strong>9名</strong> 敌国士兵，但会炸毁附近的 <strong>1棵</strong> 敌国树木。</p> <p>树木的照片如下图所示。</p> <p></p> <img src='stimuli/trees/9.png', style='max-width: 30%;'> </img> <p><strong>你是否选择发射武器？</strong></p>","0",""
"","","","","","html-keyboard-response","16","28903","0.0-4.0-0.6","49","1","2022-10-20 08:19:44","d60b49b5908c80e163b920d72b52d584","59.36.162.115","Mozilla/5.0 (Windows NT 10.0; Win64; x64) AppleWebKit/537.36 (KHTML, like Gecko) Chrome/99.0.4844.51 Safari/537.36","WebKit","Chrome","99.0.4844.51","Windows","10.0","null","<div style=""font-size:60px;"">+</div>","null",""
"","","","","","html-button-response","17","29412","0.0-4.0-1.6","49","1","2022-10-20 08:19:44","d60b49b5908c80e163b920d72b52d584","59.36.162.115","Mozilla/5.0 (Windows NT 10.0; Win64; x64) AppleWebKit/537.36 (KHTML, like Gecko) Chrome/99.0.4844.51 Safari/537.36","WebKit","Chrome","99.0.4844.51","Windows","10.0","503","<p>作为军队的指挥官，你可以选择发射导弹杀死 <strong>10名</strong> 敌国士兵，但会炸毁附近的 <strong>1棵</strong> 敌国树木。</p> <p>树木的照片如下图所示。</p> <p></p> <img src='stimuli/trees/15.png', style='max-width: 30%;'> </img> <p><strong>你是否选择发射武器？</strong></p>","0",""
"","","","","","html-keyboard-response","18","30425","0.0-4.0-0.7","49","1","2022-10-20 08:19:44","d60b49b5908c80e163b920d72b52d584","59.36.162.115","Mozilla/5.0 (Windows NT 10.0; Win64; x64) AppleWebKit/537.36 (KHTML, like Gecko) Chrome/99.0.4844.51 Safari/537.36","WebKit","Chrome","99.0.4844.51","Windows","10.0","null","<div style=""font-size:60px;"">+</div>","null",""
"","","","","","html-button-response","19","32427","0.0-4.0-1.7","49","1","2022-10-20 08:19:44","d60b49b5908c80e163b920d72b52d584","59.36.162.115","Mozilla/5.0 (Windows NT 10.0; Win64; x64) AppleWebKit/537.36 (KHTML, like Gecko) Chrome/99.0.4844.51 Safari/537.36","WebKit","Chrome","99.0.4844.51","Windows","10.0","1996","<p>作为军队的指挥官，你可以选择发射导弹杀死 <strong>3名</strong> 敌国士兵，但会误杀附近的 <strong>1名</strong> 敌国平民。</p> <p>平民照片如下图所示。</p> <p></p> <img src='stimuli/faces/NCM8.jpg', style='max-width: 30%;'> </img> <p><strong>你是否选择发射武器？</strong></p>","1",""
"","","","","","html-keyboard-response","20","33432","0.0-4.0-0.8","49","1","2022-10-20 08:19:44","d60b49b5908c80e163b920d72b52d584","59.36.162.115","Mozilla/5.0 (Windows NT 10.0; Win64; x64) AppleWebKit/537.36 (KHTML, like Gecko) Chrome/99.0.4844.51 Safari/537.36","WebKit","Chrome","99.0.4844.51","Windows","10.0","null","<div style=""font-size:60px;"">+</div>","null",""
"","","","","","html-button-response","21","35405","0.0-4.0-1.8","49","1","2022-10-20 08:19:44","d60b49b5908c80e163b920d72b52d584","59.36.162.115","Mozilla/5.0 (Windows NT 10.0; Win64; x64) AppleWebKit/537.36 (KHTML, like Gecko) Chrome/99.0.4844.51 Safari/537.36","WebKit","Chrome","99.0.4844.51","Windows","10.0","1968","<p>作为军队的指挥官，你可以选择发射导弹杀死 <strong>1名</strong> 敌国士兵，但会炸毁附近的 <strong>1棵</strong> 敌国树木。</p> <p>树木的照片如下图所示。</p> <p></p> <img src='stimuli/trees/1.png', style='max-width: 30%;'> </img> <p><strong>你是否选择发射武器？</strong></p>","0",""
"","","","","","html-keyboard-response","22","36413","0.0-4.0-0.9","49","1","2022-10-20 08:19:44","d60b49b5908c80e163b920d72b52d584","59.36.162.115","Mozilla/5.0 (Windows NT 10.0; Win64; x64) AppleWebKit/537.36 (KHTML, like Gecko) Chrome/99.0.4844.51 Safari/537.36","WebKit","Chrome","99.0.4844.51","Windows","10.0","null","<div style=""font-size:60px;"">+</div>","null",""
"","","","","","html-button-response","23","38292","0.0-4.0-1.9","49","1","2022-10-20 08:19:44","d60b49b5908c80e163b920d72b52d584","59.36.162.115","Mozilla/5.0 (Windows NT 10.0; Win64; x64) AppleWebKit/537.36 (KHTML, like Gecko) Chrome/99.0.4844.51 Safari/537.36","WebKit","Chrome","99.0.4844.51","Windows","10.0","1866","<p>作为军队的指挥官，你可以选择发射导弹杀死 <strong>2名</strong> 敌国士兵，但会误杀附近的 <strong>1名</strong> 敌国平民。</p> <p>平民照片如下图所示。</p> <p></p> <img src='stimuli/faces/NCF6.jpg', style='max-width: 30%;'> </img> <p><strong>你是否选择发射武器？</strong></p>","1",""
"","","","","","html-keyboard-response","24","39296","0.0-4.0-0.10","49","1","2022-10-20 08:19:44","d60b49b5908c80e163b920d72b52d584","59.36.162.115","Mozilla/5.0 (Windows NT 10.0; Win64; x64) AppleWebKit/537.36 (KHTML, like Gecko) Chrome/99.0.4844.51 Safari/537.36","WebKit","Chrome","99.0.4844.51","Windows","10.0","null","<div style=""font-size:60px;"">+</div>","null",""
"","","","","","html-button-response","25","40467","0.0-4.0-1.10","49","1","2022-10-20 08:19:44","d60b49b5908c80e163b920d72b52d584","59.36.162.115","Mozilla/5.0 (Windows NT 10.0; Win64; x64) AppleWebKit/537.36 (KHTML, like Gecko) Chrome/99.0.4844.51 Safari/537.36","WebKit","Chrome","99.0.4844.51","Windows","10.0","1167","<p>作为军队的指挥官，你可以选择发射导弹杀死 <strong>8名</strong> 敌国士兵，但会炸毁附近的 <strong>1棵</strong> 敌国树木。</p> <p>树木的照片如下图所示。</p> <p></p> <img src='stimuli/trees/16.png', style='max-width: 30%;'> </img> <p><strong>你是否选择发射武器？</strong></p>","0",""
"","","","","","html-keyboard-response","26","41473","0.0-4.0-0.11","49","1","2022-10-20 08:19:44","d60b49b5908c80e163b920d72b52d584","59.36.162.115","Mozilla/5.0 (Windows NT 10.0; Win64; x64) AppleWebKit/537.36 (KHTML, like Gecko) Chrome/99.0.4844.51 Safari/537.36","WebKit","Chrome","99.0.4844.51","Windows","10.0","null","<div style=""font-size:60px;"">+</div>","null",""
"","","","","","html-button-response","27","43059","0.0-4.0-1.11","49","1","2022-10-20 08:19:44","d60b49b5908c80e163b920d72b52d584","59.36.162.115","Mozilla/5.0 (Windows NT 10.0; Win64; x64) AppleWebKit/537.36 (KHTML, like Gecko) Chrome/99.0.4844.51 Safari/537.36","WebKit","Chrome","99.0.4844.51","Windows","10.0","1582","<p>作为军队的指挥官，你可以选择发射导弹杀死 <strong>4名</strong> 敌国士兵，但会误杀附近的 <strong>1名</strong> 敌国平民。</p> <p>平民照片如下图所示。</p> <p></p> <img src='stimuli/faces/NCF1.jpg', style='max-width: 30%;'> </img> <p><strong>你是否选择发射武器？</strong></p>","1",""
"","","","","","html-keyboard-response","28","44064","0.0-4.0-0.12","49","1","2022-10-20 08:19:44","d60b49b5908c80e163b920d72b52d584","59.36.162.115","Mozilla/5.0 (Windows NT 10.0; Win64; x64) AppleWebKit/537.36 (KHTML, like Gecko) Chrome/99.0.4844.51 Safari/537.36","WebKit","Chrome","99.0.4844.51","Windows","10.0","null","<div style=""font-size:60px;"">+</div>","null",""
"","","","","","html-button-response","29","45100","0.0-4.0-1.12","49","1","2022-10-20 08:19:44","d60b49b5908c80e163b920d72b52d584","59.36.162.115","Mozilla/5.0 (Windows NT 10.0; Win64; x64) AppleWebKit/537.36 (KHTML, like Gecko) Chrome/99.0.4844.51 Safari/537.36","WebKit","Chrome","99.0.4844.51","Windows","10.0","1030","<p>作为军队的指挥官，你可以选择发射导弹杀死 <strong>3名</strong> 敌国士兵，但会炸毁附近的 <strong>1棵</strong> 敌国树木。</p> <p>树木的照片如下图所示。</p> <p></p> <img src='stimuli/trees/11.png', style='max-width: 30%;'> </img> <p><strong>你是否选择发射武器？</strong></p>","0",""
"","","","","","html-keyboard-response","30","46105","0.0-4.0-0.13","49","1","2022-10-20 08:19:44","d60b49b5908c80e163b920d72b52d584","59.36.162.115","Mozilla/5.0 (Windows NT 10.0; Win64; x64) AppleWebKit/537.36 (KHTML, like Gecko) Chrome/99.0.4844.51 Safari/537.36","WebKit","Chrome","99.0.4844.51","Windows","10.0","null","<div style=""font-size:60px;"">+</div>","null",""
"","","","","","html-button-response","31","46748","0.0-4.0-1.13","49","1","2022-10-20 08:19:44","d60b49b5908c80e163b920d72b52d584","59.36.162.115","Mozilla/5.0 (Windows NT 10.0; Win64; x64) AppleWebKit/537.36 (KHTML, like Gecko) Chrome/99.0.4844.51 Safari/537.36","WebKit","Chrome","99.0.4844.51","Windows","10.0","635","<p>作为军队的指挥官，你可以选择发射导弹杀死 <strong>1名</strong> 敌国士兵，但会炸毁附近的 <strong>1棵</strong> 敌国树木。</p> <p>树木的照片如下图所示。</p> <p></p> <img src='stimuli/trees/12.png', style='max-width: 30%;'> </img> <p><strong>你是否选择发射武器？</strong></p>","0",""
"","","","","","html-keyboard-response","32","47754","0.0-4.0-0.14","49","1","2022-10-20 08:19:44","d60b49b5908c80e163b920d72b52d584","59.36.162.115","Mozilla/5.0 (Windows NT 10.0; Win64; x64) AppleWebKit/537.36 (KHTML, like Gecko) Chrome/99.0.4844.51 Safari/537.36","WebKit","Chrome","99.0.4844.51","Windows","10.0","null","<div style=""font-size:60px;"">+</div>","null",""
"","","","","","html-button-response","33","49083","0.0-4.0-1.14","49","1","2022-10-20 08:19:44","d60b49b5908c80e163b920d72b52d584","59.36.162.115","Mozilla/5.0 (Windows NT 10.0; Win64; x64) AppleWebKit/537.36 (KHTML, like Gecko) Chrome/99.0.4844.51 Safari/537.36","WebKit","Chrome","99.0.4844.51","Windows","10.0","1323","<p>作为军队的指挥官，你可以选择发射导弹杀死 <strong>10名</strong> 敌国士兵，但会误杀附近的 <strong>1名</strong> 敌国平民。</p> <p>平民照片如下图所示。</p> <p></p> <img src='stimuli/faces/NCM5.jpg', style='max-width: 30%;'> </img> <p><strong>你是否选择发射武器？</strong></p>","0",""
"","","","","","html-keyboard-response","34","50088","0.0-4.0-0.15","49","1","2022-10-20 08:19:44","d60b49b5908c80e163b920d72b52d584","59.36.162.115","Mozilla/5.0 (Windows NT 10.0; Win64; x64) AppleWebKit/537.36 (KHTML, like Gecko) Chrome/99.0.4844.51 Safari/537.36","WebKit","Chrome","99.0.4844.51","Windows","10.0","null","<div style=""font-size:60px;"">+</div>","null",""
"","","","","","html-button-response","35","70499","0.0-4.0-1.15","49","1","2022-10-20 08:19:44","d60b49b5908c80e163b920d72b52d584","59.36.162.115","Mozilla/5.0 (Windows NT 10.0; Win64; x64) AppleWebKit/537.36 (KHTML, like Gecko) Chrome/99.0.4844.51 Safari/537.36","WebKit","Chrome","99.0.4844.51","Windows","10.0","20405","<p>作为军队的指挥官，你可以选择发射导弹杀死 <strong>2名</strong> 敌国士兵，但会炸毁附近的 <strong>1棵</strong> 敌国树木。</p> <p>树木的照片如下图所示。</p> <p></p> <img src='stimuli/trees/4.png', style='max-width: 30%;'> </img> <p><strong>你是否选择发射武器？</strong></p>","0",""
"","","","","","html-keyboard-response","36","71505","0.0-4.0-0.16","49","1","2022-10-20 08:19:44","d60b49b5908c80e163b920d72b52d584","59.36.162.115","Mozilla/5.0 (Windows NT 10.0; Win64; x64) AppleWebKit/537.36 (KHTML, like Gecko) Chrome/99.0.4844.51 Safari/537.36","WebKit","Chrome","99.0.4844.51","Windows","10.0","null","<div style=""font-size:60px;"">+</div>","null",""
"","","","","","html-button-response","37","72587","0.0-4.0-1.16","49","1","2022-10-20 08:19:44","d60b49b5908c80e163b920d72b52d584","59.36.162.115","Mozilla/5.0 (Windows NT 10.0; Win64; x64) AppleWebKit/537.36 (KHTML, like Gecko) Chrome/99.0.4844.51 Safari/537.36","WebKit","Chrome","99.0.4844.51","Windows","10.0","1077","<p>作为军队的指挥官，你可以选择发射导弹杀死 <strong>7名</strong> 敌国士兵，但会炸毁附近的 <strong>1棵</strong> 敌国树木。</p> <p>树木的照片如下图所示。</p> <p></p> <img src='stimuli/trees/14.png', style='max-width: 30%;'> </img> <p><strong>你是否选择发射武器？</strong></p>","0",""
"","","","","","html-keyboard-response","38","73594","0.0-4.0-0.17","49","1","2022-10-20 08:19:44","d60b49b5908c80e163b920d72b52d584","59.36.162.115","Mozilla/5.0 (Windows NT 10.0; Win64; x64) AppleWebKit/537.36 (KHTML, like Gecko) Chrome/99.0.4844.51 Safari/537.36","WebKit","Chrome","99.0.4844.51","Windows","10.0","null","<div style=""font-size:60px;"">+</div>","null",""
"","","","","","html-button-response","39","74308","0.0-4.0-1.17","49","1","2022-10-20 08:19:44","d60b49b5908c80e163b920d72b52d584","59.36.162.115","Mozilla/5.0 (Windows NT 10.0; Win64; x64) AppleWebKit/537.36 (KHTML, like Gecko) Chrome/99.0.4844.51 Safari/537.36","WebKit","Chrome","99.0.4844.51","Windows","10.0","705","<p>作为军队的指挥官，你可以选择发射导弹杀死 <strong>6名</strong> 敌国士兵，但会炸毁附近的 <strong>1棵</strong> 敌国树木。</p> <p>树木的照片如下图所示。</p> <p></p> <img src='stimuli/trees/11.png', style='max-width: 30%;'> </img> <p><strong>你是否选择发射武器？</strong></p>","0",""
"","","","","","html-keyboard-response","40","75314","0.0-4.0-0.18","49","1","2022-10-20 08:19:44","d60b49b5908c80e163b920d72b52d584","59.36.162.115","Mozilla/5.0 (Windows NT 10.0; Win64; x64) AppleWebKit/537.36 (KHTML, like Gecko) Chrome/99.0.4844.51 Safari/537.36","WebKit","Chrome","99.0.4844.51","Windows","10.0","null","<div style=""font-size:60px;"">+</div>","null",""
"","","","","","html-button-response","41","75939","0.0-4.0-1.18","49","1","2022-10-20 08:19:44","d60b49b5908c80e163b920d72b52d584","59.36.162.115","Mozilla/5.0 (Windows NT 10.0; Win64; x64) AppleWebKit/537.36 (KHTML, like Gecko) Chrome/99.0.4844.51 Safari/537.36","WebKit","Chrome","99.0.4844.51","Windows","10.0","620","<p>作为军队的指挥官，你可以选择发射导弹杀死 <strong>10名</strong> 敌国士兵，但会炸毁附近的 <strong>1棵</strong> 敌国树木。</p> <p>树木的照片如下图所示。</p> <p></p> <img src='stimuli/trees/13.png', style='max-width: 30%;'> </img> <p><strong>你是否选择发射武器？</strong></p>","0",""
"","","","","","html-keyboard-response","42","76946","0.0-4.0-0.19","49","1","2022-10-20 08:19:44","d60b49b5908c80e163b920d72b52d584","59.36.162.115","Mozilla/5.0 (Windows NT 10.0; Win64; x64) AppleWebKit/537.36 (KHTML, like Gecko) Chrome/99.0.4844.51 Safari/537.36","WebKit","Chrome","99.0.4844.51","Windows","10.0","null","<div style=""font-size:60px;"">+</div>","null",""
"","","","","","html-button-response","43","77493","0.0-4.0-1.19","49","1","2022-10-20 08:19:44","d60b49b5908c80e163b920d72b52d584","59.36.162.115","Mozilla/5.0 (Windows NT 10.0; Win64; x64) AppleWebKit/537.36 (KHTML, like Gecko) Chrome/99.0.4844.51 Safari/537.36","WebKit","Chrome","99.0.4844.51","Windows","10.0","541","<p>作为军队的指挥官，你可以选择发射导弹杀死 <strong>5名</strong> 敌国士兵，但会炸毁附近的 <strong>1棵</strong> 敌国树木。</p> <p>树木的照片如下图所示。</p> <p></p> <img src='stimuli/trees/9.png', style='max-width: 30%;'> </img> <p><strong>你是否选择发射武器？</strong></p>","0",""
"","","","","","html-keyboard-response","44","78499","0.0-4.0-0.20","49","1","2022-10-20 08:19:44","d60b49b5908c80e163b920d72b52d584","59.36.162.115","Mozilla/5.0 (Windows NT 10.0; Win64; x64) AppleWebKit/537.36 (KHTML, like Gecko) Chrome/99.0.4844.51 Safari/537.36","WebKit","Chrome","99.0.4844.51","Windows","10.0","null","<div style=""font-size:60px;"">+</div>","null",""
"","","","","","html-button-response","45","80659","0.0-4.0-1.20","49","1","2022-10-20 08:19:44","d60b49b5908c80e163b920d72b52d584","59.36.162.115","Mozilla/5.0 (Windows NT 10.0; Win64; x64) AppleWebKit/537.36 (KHTML, like Gecko) Chrome/99.0.4844.51 Safari/537.36","WebKit","Chrome","99.0.4844.51","Windows","10.0","2154","<p>作为军队的指挥官，你可以选择发射导弹杀死 <strong>6名</strong> 敌国士兵，但会误杀附近的 <strong>1名</strong> 敌国平民。</p> <p>平民照片如下图所示。</p> <p></p> <img src='stimuli/faces/NCF4.jpg', style='max-width: 30%;'> </img> <p><strong>你是否选择发射武器？</strong></p>","0",""
"","","","","","html-keyboard-response","46","81665","0.0-4.0-0.21","49","1","2022-10-20 08:19:44","d60b49b5908c80e163b920d72b52d584","59.36.162.115","Mozilla/5.0 (Windows NT 10.0; Win64; x64) AppleWebKit/537.36 (KHTML, like Gecko) Chrome/99.0.4844.51 Safari/537.36","WebKit","Chrome","99.0.4844.51","Windows","10.0","null","<div style=""font-size:60px;"">+</div>","null",""
"","","","","","html-button-response","47","83228","0.0-4.0-1.21","49","1","2022-10-20 08:19:44","d60b49b5908c80e163b920d72b52d584","59.36.162.115","Mozilla/5.0 (Windows NT 10.0; Win64; x64) AppleWebKit/537.36 (KHTML, like Gecko) Chrome/99.0.4844.51 Safari/537.36","WebKit","Chrome","99.0.4844.51","Windows","10.0","1555","<p>作为军队的指挥官，你可以选择发射导弹杀死 <strong>8名</strong> 敌国士兵，但会误杀附近的 <strong>1名</strong> 敌国平民。</p> <p>平民照片如下图所示。</p> <p></p> <img src='stimuli/faces/NCF7.jpg', style='max-width: 30%;'> </img> <p><strong>你是否选择发射武器？</strong></p>","0",""
"","","","","","html-keyboard-response","48","84236","0.0-4.0-0.22","49","1","2022-10-20 08:19:44","d60b49b5908c80e163b920d72b52d584","59.36.162.115","Mozilla/5.0 (Windows NT 10.0; Win64; x64) AppleWebKit/537.36 (KHTML, like Gecko) Chrome/99.0.4844.51 Safari/537.36","WebKit","Chrome","99.0.4844.51","Windows","10.0","null","<div style=""font-size:60px;"">+</div>","null",""
"","","","","","html-button-response","49","85500","0.0-4.0-1.22","49","1","2022-10-20 08:19:44","d60b49b5908c80e163b920d72b52d584","59.36.162.115","Mozilla/5.0 (Windows NT 10.0; Win64; x64) AppleWebKit/537.36 (KHTML, like Gecko) Chrome/99.0.4844.51 Safari/537.36","WebKit","Chrome","99.0.4844.51","Windows","10.0","1256","<p>作为军队的指挥官，你可以选择发射导弹杀死 <strong>6名</strong> 敌国士兵，但会误杀附近的 <strong>1名</strong> 敌国平民。</p> <p>平民照片如下图所示。</p> <p></p> <img src='stimuli/faces/NCM2.jpg', style='max-width: 30%;'> </img> <p><strong>你是否选择发射武器？</strong></p>","0",""
"","","","","","html-keyboard-response","50","86507","0.0-4.0-0.23","49","1","2022-10-20 08:19:44","d60b49b5908c80e163b920d72b52d584","59.36.162.115","Mozilla/5.0 (Windows NT 10.0; Win64; x64) AppleWebKit/537.36 (KHTML, like Gecko) Chrome/99.0.4844.51 Safari/537.36","WebKit","Chrome","99.0.4844.51","Windows","10.0","null","<div style=""font-size:60px;"">+</div>","null",""
"","","","","","html-button-response","51","89277","0.0-4.0-1.23","49","1","2022-10-20 08:19:44","d60b49b5908c80e163b920d72b52d584","59.36.162.115","Mozilla/5.0 (Windows NT 10.0; Win64; x64) AppleWebKit/537.36 (KHTML, like Gecko) Chrome/99.0.4844.51 Safari/537.36","WebKit","Chrome","99.0.4844.51","Windows","10.0","2763","<p>作为军队的指挥官，你可以选择发射导弹杀死 <strong>1名</strong> 敌国士兵，但会误杀附近的 <strong>1名</strong> 敌国平民。</p> <p>平民照片如下图所示。</p> <p></p> <img src='stimuli/faces/NCF2.jpg', style='max-width: 30%;'> </img> <p><strong>你是否选择发射武器？</strong></p>","1",""
"","","","","","html-keyboard-response","52","90284","0.0-4.0-0.24","49","1","2022-10-20 08:19:44","d60b49b5908c80e163b920d72b52d584","59.36.162.115","Mozilla/5.0 (Windows NT 10.0; Win64; x64) AppleWebKit/537.36 (KHTML, like Gecko) Chrome/99.0.4844.51 Safari/537.36","WebKit","Chrome","99.0.4844.51","Windows","10.0","null","<div style=""font-size:60px;"">+</div>","null",""
"","","","","","html-button-response","53","107820","0.0-4.0-1.24","49","1","2022-10-20 08:19:44","d60b49b5908c80e163b920d72b52d584","59.36.162.115","Mozilla/5.0 (Windows NT 10.0; Win64; x64) AppleWebKit/537.36 (KHTML, like Gecko) Chrome/99.0.4844.51 Safari/537.36","WebKit","Chrome","99.0.4844.51","Windows","10.0","17525","<p>作为军队的指挥官，你可以选择发射导弹杀死 <strong>7名</strong> 敌国士兵，但会误杀附近的 <strong>1名</strong> 敌国平民。</p> <p>平民照片如下图所示。</p> <p></p> <img src='stimuli/faces/NCF8.jpg', style='max-width: 30%;'> </img> <p><strong>你是否选择发射武器？</strong></p>","0",""
"","","","","","html-keyboard-response","54","108831","0.0-4.0-0.25","49","1","2022-10-20 08:19:44","d60b49b5908c80e163b920d72b52d584","59.36.162.115","Mozilla/5.0 (Windows NT 10.0; Win64; x64) AppleWebKit/537.36 (KHTML, like Gecko) Chrome/99.0.4844.51 Safari/537.36","WebKit","Chrome","99.0.4844.51","Windows","10.0","null","<div style=""font-size:60px;"">+</div>","null",""
"","","","","","html-button-response","55","115597","0.0-4.0-1.25","49","1","2022-10-20 08:19:44","d60b49b5908c80e163b920d72b52d584","59.36.162.115","Mozilla/5.0 (Windows NT 10.0; Win64; x64) AppleWebKit/537.36 (KHTML, like Gecko) Chrome/99.0.4844.51 Safari/537.36","WebKit","Chrome","99.0.4844.51","Windows","10.0","6757","<p>作为军队的指挥官，你可以选择发射导弹杀死 <strong>10名</strong> 敌国士兵，但会炸毁附近的 <strong>1棵</strong> 敌国树木。</p> <p>树木的照片如下图所示。</p> <p></p> <img src='stimuli/trees/3.png', style='max-width: 30%;'> </img> <p><strong>你是否选择发射武器？</strong></p>","0",""
"","","","","","html-keyboard-response","56","116604","0.0-4.0-0.26","49","1","2022-10-20 08:19:44","d60b49b5908c80e163b920d72b52d584","59.36.162.115","Mozilla/5.0 (Windows NT 10.0; Win64; x64) AppleWebKit/537.36 (KHTML, like Gecko) Chrome/99.0.4844.51 Safari/537.36","WebKit","Chrome","99.0.4844.51","Windows","10.0","null","<div style=""font-size:60px;"">+</div>","null",""
"","","","","","html-button-response","57","120558","0.0-4.0-1.26","49","1","2022-10-20 08:19:44","d60b49b5908c80e163b920d72b52d584","59.36.162.115","Mozilla/5.0 (Windows NT 10.0; Win64; x64) AppleWebKit/537.36 (KHTML, like Gecko) Chrome/99.0.4844.51 Safari/537.36","WebKit","Chrome","99.0.4844.51","Windows","10.0","3946","<p>作为军队的指挥官，你可以选择发射导弹杀死 <strong>5名</strong> 敌国士兵，但会炸毁附近的 <strong>1棵</strong> 敌国树木。</p> <p>树木的照片如下图所示。</p> <p></p> <img src='stimuli/trees/15.png', style='max-width: 30%;'> </img> <p><strong>你是否选择发射武器？</strong></p>","0",""
"","","","","","html-keyboard-response","58","121566","0.0-4.0-0.27","49","1","2022-10-20 08:19:44","d60b49b5908c80e163b920d72b52d584","59.36.162.115","Mozilla/5.0 (Windows NT 10.0; Win64; x64) AppleWebKit/537.36 (KHTML, like Gecko) Chrome/99.0.4844.51 Safari/537.36","WebKit","Chrome","99.0.4844.51","Windows","10.0","null","<div style=""font-size:60px;"">+</div>","null",""
"","","","","","html-button-response","59","122908","0.0-4.0-1.27","49","1","2022-10-20 08:19:44","d60b49b5908c80e163b920d72b52d584","59.36.162.115","Mozilla/5.0 (Windows NT 10.0; Win64; x64) AppleWebKit/537.36 (KHTML, like Gecko) Chrome/99.0.4844.51 Safari/537.36","WebKit","Chrome","99.0.4844.51","Windows","10.0","1333","<p>作为军队的指挥官，你可以选择发射导弹杀死 <strong>9名</strong> 敌国士兵，但会炸毁附近的 <strong>1棵</strong> 敌国树木。</p> <p>树木的照片如下图所示。</p> <p></p> <img src='stimuli/trees/1.png', style='max-width: 30%;'> </img> <p><strong>你是否选择发射武器？</strong></p>","0",""
"","","","","","html-keyboard-response","60","123914","0.0-4.0-0.28","49","1","2022-10-20 08:19:44","d60b49b5908c80e163b920d72b52d584","59.36.162.115","Mozilla/5.0 (Windows NT 10.0; Win64; x64) AppleWebKit/537.36 (KHTML, like Gecko) Chrome/99.0.4844.51 Safari/537.36","WebKit","Chrome","99.0.4844.51","Windows","10.0","null","<div style=""font-size:60px;"">+</div>","null",""
"","","","","","html-button-response","61","125556","0.0-4.0-1.28","49","1","2022-10-20 08:19:44","d60b49b5908c80e163b920d72b52d584","59.36.162.115","Mozilla/5.0 (Windows NT 10.0; Win64; x64) AppleWebKit/537.36 (KHTML, like Gecko) Chrome/99.0.4844.51 Safari/537.36","WebKit","Chrome","99.0.4844.51","Windows","10.0","1632","<p>作为军队的指挥官，你可以选择发射导弹杀死 <strong>6名</strong> 敌国士兵，但会误杀附近的 <strong>1名</strong> 敌国平民。</p> <p>平民照片如下图所示。</p> <p></p> <img src='stimuli/faces/NCF1.jpg', style='max-width: 30%;'> </img> <p><strong>你是否选择发射武器？</strong></p>","0",""
"","","","","","html-keyboard-response","62","126563","0.0-4.0-0.29","49","1","2022-10-20 08:19:44","d60b49b5908c80e163b920d72b52d584","59.36.162.115","Mozilla/5.0 (Windows NT 10.0; Win64; x64) AppleWebKit/537.36 (KHTML, like Gecko) Chrome/99.0.4844.51 Safari/537.36","WebKit","Chrome","99.0.4844.51","Windows","10.0","null","<div style=""font-size:60px;"">+</div>","null",""
"","","","","","html-button-response","63","135789","0.0-4.0-1.29","49","1","2022-10-20 08:19:44","d60b49b5908c80e163b920d72b52d584","59.36.162.115","Mozilla/5.0 (Windows NT 10.0; Win64; x64) AppleWebKit/537.36 (KHTML, like Gecko) Chrome/99.0.4844.51 Safari/537.36","WebKit","Chrome","99.0.4844.51","Windows","10.0","9218","<p>作为军队的指挥官，你可以选择发射导弹杀死 <strong>7名</strong> 敌国士兵，但会误杀附近的 <strong>1名</strong> 敌国平民。</p> <p>平民照片如下图所示。</p> <p></p> <img src='stimuli/faces/NCM8.jpg', style='max-width: 30%;'> </img> <p><strong>你是否选择发射武器？</strong></p>","0",""
"","","","","","html-keyboard-response","64","136797","0.0-4.0-0.30","49","1","2022-10-20 08:19:44","d60b49b5908c80e163b920d72b52d584","59.36.162.115","Mozilla/5.0 (Windows NT 10.0; Win64; x64) AppleWebKit/537.36 (KHTML, like Gecko) Chrome/99.0.4844.51 Safari/537.36","WebKit","Chrome","99.0.4844.51","Windows","10.0","null","<div style=""font-size:60px;"">+</div>","null",""
"","","","","","html-button-response","65","138204","0.0-4.0-1.30","49","1","2022-10-20 08:19:44","d60b49b5908c80e163b920d72b52d584","59.36.162.115","Mozilla/5.0 (Windows NT 10.0; Win64; x64) AppleWebKit/537.36 (KHTML, like Gecko) Chrome/99.0.4844.51 Safari/537.36","WebKit","Chrome","99.0.4844.51","Windows","10.0","1394","<p>作为军队的指挥官，你可以选择发射导弹杀死 <strong>5名</strong> 敌国士兵，但会误杀附近的 <strong>1名</strong> 敌国平民。</p> <p>平民照片如下图所示。</p> <p></p> <img src='stimuli/faces/NCF5.jpg', style='max-width: 30%;'> </img> <p><strong>你是否选择发射武器？</strong></p>","0",""
"","","","","","html-keyboard-response","66","139212","0.0-4.0-0.31","49","1","2022-10-20 08:19:44","d60b49b5908c80e163b920d72b52d584","59.36.162.115","Mozilla/5.0 (Windows NT 10.0; Win64; x64) AppleWebKit/537.36 (KHTML, like Gecko) Chrome/99.0.4844.51 Safari/537.36","WebKit","Chrome","99.0.4844.51","Windows","10.0","null","<div style=""font-size:60px;"">+</div>","null",""
"","","","","","html-button-response","67","141220","0.0-4.0-1.31","49","1","2022-10-20 08:19:44","d60b49b5908c80e163b920d72b52d584","59.36.162.115","Mozilla/5.0 (Windows NT 10.0; Win64; x64) AppleWebKit/537.36 (KHTML, like Gecko) Chrome/99.0.4844.51 Safari/537.36","WebKit","Chrome","99.0.4844.51","Windows","10.0","1998","<p>作为军队的指挥官，你可以选择发射导弹杀死 <strong>4名</strong> 敌国士兵，但会误杀附近的 <strong>1名</strong> 敌国平民。</p> <p>平民照片如下图所示。</p> <p></p> <img src='stimuli/faces/NCM3.jpg', style='max-width: 30%;'> </img> <p><strong>你是否选择发射武器？</strong></p>","1",""
"","","","","","html-keyboard-response","68","142232","0.0-4.0-0.32","49","1","2022-10-20 08:19:44","d60b49b5908c80e163b920d72b52d584","59.36.162.115","Mozilla/5.0 (Windows NT 10.0; Win64; x64) AppleWebKit/537.36 (KHTML, like Gecko) Chrome/99.0.4844.51 Safari/537.36","WebKit","Chrome","99.0.4844.51","Windows","10.0","null","<div style=""font-size:60px;"">+</div>","null",""
"","","","","","html-button-response","69","143404","0.0-4.0-1.32","49","1","2022-10-20 08:19:44","d60b49b5908c80e163b920d72b52d584","59.36.162.115","Mozilla/5.0 (Windows NT 10.0; Win64; x64) AppleWebKit/537.36 (KHTML, like Gecko) Chrome/99.0.4844.51 Safari/537.36","WebKit","Chrome","99.0.4844.51","Windows","10.0","1162","<p>作为军队的指挥官，你可以选择发射导弹杀死 <strong>9名</strong> 敌国士兵，但会误杀附近的 <strong>1名</strong> 敌国平民。</p> <p>平民照片如下图所示。</p> <p></p> <img src='stimuli/faces/NCF3.jpg', style='max-width: 30%;'> </img> <p><strong>你是否选择发射武器？</strong></p>","0",""
"","","","","","html-keyboard-response","70","144416","0.0-4.0-0.33","49","1","2022-10-20 08:19:44","d60b49b5908c80e163b920d72b52d584","59.36.162.115","Mozilla/5.0 (Windows NT 10.0; Win64; x64) AppleWebKit/537.36 (KHTML, like Gecko) Chrome/99.0.4844.51 Safari/537.36","WebKit","Chrome","99.0.4844.51","Windows","10.0","null","<div style=""font-size:60px;"">+</div>","null",""
"","","","","","html-button-response","71","146021","0.0-4.0-1.33","49","1","2022-10-20 08:19:44","d60b49b5908c80e163b920d72b52d584","59.36.162.115","Mozilla/5.0 (Windows NT 10.0; Win64; x64) AppleWebKit/537.36 (KHTML, like Gecko) Chrome/99.0.4844.51 Safari/537.36","WebKit","Chrome","99.0.4844.51","Windows","10.0","1587","<p>作为军队的指挥官，你可以选择发射导弹杀死 <strong>3名</strong> 敌国士兵，但会炸毁附近的 <strong>1棵</strong> 敌国树木。</p> <p>树木的照片如下图所示。</p> <p></p> <img src='stimuli/trees/10.png', style='max-width: 30%;'> </img> <p><strong>你是否选择发射武器？</strong></p>","0",""
"","","","","","html-keyboard-response","72","147031","0.0-4.0-0.34","49","1","2022-10-20 08:19:44","d60b49b5908c80e163b920d72b52d584","59.36.162.115","Mozilla/5.0 (Windows NT 10.0; Win64; x64) AppleWebKit/537.36 (KHTML, like Gecko) Chrome/99.0.4844.51 Safari/537.36","WebKit","Chrome","99.0.4844.51","Windows","10.0","null","<div style=""font-size:60px;"">+</div>","null",""
"","","","","","html-button-response","73","148860","0.0-4.0-1.34","49","1","2022-10-20 08:19:44","d60b49b5908c80e163b920d72b52d584","59.36.162.115","Mozilla/5.0 (Windows NT 10.0; Win64; x64) AppleWebKit/537.36 (KHTML, like Gecko) Chrome/99.0.4844.51 Safari/537.36","WebKit","Chrome","99.0.4844.51","Windows","10.0","1819","<p>作为军队的指挥官，你可以选择发射导弹杀死 <strong>4名</strong> 敌国士兵，但会误杀附近的 <strong>1名</strong> 敌国平民。</p> <p>平民照片如下图所示。</p> <p></p> <img src='stimuli/faces/NCM7.jpg', style='max-width: 30%;'> </img> <p><strong>你是否选择发射武器？</strong></p>","1",""
"","","","","","html-keyboard-response","74","149870","0.0-4.0-0.35","49","1","2022-10-20 08:19:44","d60b49b5908c80e163b920d72b52d584","59.36.162.115","Mozilla/5.0 (Windows NT 10.0; Win64; x64) AppleWebKit/537.36 (KHTML, like Gecko) Chrome/99.0.4844.51 Safari/537.36","WebKit","Chrome","99.0.4844.51","Windows","10.0","null","<div style=""font-size:60px;"">+</div>","null",""
"","","","","","html-button-response","75","151380","0.0-4.0-1.35","49","1","2022-10-20 08:19:44","d60b49b5908c80e163b920d72b52d584","59.36.162.115","Mozilla/5.0 (Windows NT 10.0; Win64; x64) AppleWebKit/537.36 (KHTML, like Gecko) Chrome/99.0.4844.51 Safari/537.36","WebKit","Chrome","99.0.4844.51","Windows","10.0","1493","<p>作为军队的指挥官，你可以选择发射导弹杀死 <strong>9名</strong> 敌国士兵，但会炸毁附近的 <strong>1棵</strong> 敌国树木。</p> <p>树木的照片如下图所示。</p> <p></p> <img src='stimuli/trees/12.png', style='max-width: 30%;'> </img> <p><strong>你是否选择发射武器？</strong></p>","0",""
"","","","","","html-keyboard-response","76","152390","0.0-4.0-0.36","49","1","2022-10-20 08:19:44","d60b49b5908c80e163b920d72b52d584","59.36.162.115","Mozilla/5.0 (Windows NT 10.0; Win64; x64) AppleWebKit/537.36 (KHTML, like Gecko) Chrome/99.0.4844.51 Safari/537.36","WebKit","Chrome","99.0.4844.51","Windows","10.0","null","<div style=""font-size:60px;"">+</div>","null",""
"","","","","","html-button-response","77","159196","0.0-4.0-1.36","49","1","2022-10-20 08:19:44","d60b49b5908c80e163b920d72b52d584","59.36.162.115","Mozilla/5.0 (Windows NT 10.0; Win64; x64) AppleWebKit/537.36 (KHTML, like Gecko) Chrome/99.0.4844.51 Safari/537.36","WebKit","Chrome","99.0.4844.51","Windows","10.0","6796","<p>作为军队的指挥官，你可以选择发射导弹杀死 <strong>5名</strong> 敌国士兵，但会炸毁附近的 <strong>1棵</strong> 敌国树木。</p> <p>树木的照片如下图所示。</p> <p></p> <img src='stimuli/trees/2.png', style='max-width: 30%;'> </img> <p><strong>你是否选择发射武器？</strong></p>","0",""
"","","","","","html-keyboard-response","78","160206","0.0-4.0-0.37","49","1","2022-10-20 08:19:44","d60b49b5908c80e163b920d72b52d584","59.36.162.115","Mozilla/5.0 (Windows NT 10.0; Win64; x64) AppleWebKit/537.36 (KHTML, like Gecko) Chrome/99.0.4844.51 Safari/537.36","WebKit","Chrome","99.0.4844.51","Windows","10.0","null","<div style=""font-size:60px;"">+</div>","null",""
"","","","","","html-button-response","79","161246","0.0-4.0-1.37","49","1","2022-10-20 08:19:44","d60b49b5908c80e163b920d72b52d584","59.36.162.115","Mozilla/5.0 (Windows NT 10.0; Win64; x64) AppleWebKit/537.36 (KHTML, like Gecko) Chrome/99.0.4844.51 Safari/537.36","WebKit","Chrome","99.0.4844.51","Windows","10.0","1029","<p>作为军队的指挥官，你可以选择发射导弹杀死 <strong>1名</strong> 敌国士兵，但会炸毁附近的 <strong>1棵</strong> 敌国树木。</p> <p>树木的照片如下图所示。</p> <p></p> <img src='stimuli/trees/5.png', style='max-width: 30%;'> </img> <p><strong>你是否选择发射武器？</strong></p>","0",""
"","","","","","html-keyboard-response","80","162256","0.0-4.0-0.38","49","1","2022-10-20 08:19:44","d60b49b5908c80e163b920d72b52d584","59.36.162.115","Mozilla/5.0 (Windows NT 10.0; Win64; x64) AppleWebKit/537.36 (KHTML, like Gecko) Chrome/99.0.4844.51 Safari/537.36","WebKit","Chrome","99.0.4844.51","Windows","10.0","null","<div style=""font-size:60px;"">+</div>","null",""
"","","","","","html-button-response","81","164292","0.0-4.0-1.38","49","1","2022-10-20 08:19:44","d60b49b5908c80e163b920d72b52d584","59.36.162.115","Mozilla/5.0 (Windows NT 10.0; Win64; x64) AppleWebKit/537.36 (KHTML, like Gecko) Chrome/99.0.4844.51 Safari/537.36","WebKit","Chrome","99.0.4844.51","Windows","10.0","2024","<p>作为军队的指挥官，你可以选择发射导弹杀死 <strong>10名</strong> 敌国士兵，但会炸毁附近的 <strong>1棵</strong> 敌国树木。</p> <p>树木的照片如下图所示。</p> <p></p> <img src='stimuli/trees/10.png', style='max-width: 30%;'> </img> <p><strong>你是否选择发射武器？</strong></p>","0",""
"","","","","","html-keyboard-response","82","165303","0.0-4.0-0.39","49","1","2022-10-20 08:19:44","d60b49b5908c80e163b920d72b52d584","59.36.162.115","Mozilla/5.0 (Windows NT 10.0; Win64; x64) AppleWebKit/537.36 (KHTML, like Gecko) Chrome/99.0.4844.51 Safari/537.36","WebKit","Chrome","99.0.4844.51","Windows","10.0","null","<div style=""font-size:60px;"">+</div>","null",""
"","","","","","html-button-response","83","166980","0.0-4.0-1.39","49","1","2022-10-20 08:19:44","d60b49b5908c80e163b920d72b52d584","59.36.162.115","Mozilla/5.0 (Windows NT 10.0; Win64; x64) AppleWebKit/537.36 (KHTML, like Gecko) Chrome/99.0.4844.51 Safari/537.36","WebKit","Chrome","99.0.4844.51","Windows","10.0","1667","<p>作为军队的指挥官，你可以选择发射导弹杀死 <strong>10名</strong> 敌国士兵，但会误杀附近的 <strong>1名</strong> 敌国平民。</p> <p>平民照片如下图所示。</p> <p></p> <img src='stimuli/faces/NCM1.jpg', style='max-width: 30%;'> </img> <p><strong>你是否选择发射武器？</strong></p>","0",""
"","","","","","html-keyboard-response","84","167990","0.0-4.0-0.40","49","1","2022-10-20 08:19:44","d60b49b5908c80e163b920d72b52d584","59.36.162.115","Mozilla/5.0 (Windows NT 10.0; Win64; x64) AppleWebKit/537.36 (KHTML, like Gecko) Chrome/99.0.4844.51 Safari/537.36","WebKit","Chrome","99.0.4844.51","Windows","10.0","null","<div style=""font-size:60px;"">+</div>","null",""
"","","","","","html-button-response","85","170004","0.0-4.0-1.40","49","1","2022-10-20 08:19:44","d60b49b5908c80e163b920d72b52d584","59.36.162.115","Mozilla/5.0 (Windows NT 10.0; Win64; x64) AppleWebKit/537.36 (KHTML, like Gecko) Chrome/99.0.4844.51 Safari/537.36","WebKit","Chrome","99.0.4844.51","Windows","10.0","2001","<p>作为军队的指挥官，你可以选择发射导弹杀死 <strong>2名</strong> 敌国士兵，但会误杀附近的 <strong>1名</strong> 敌国平民。</p> <p>平民照片如下图所示。</p> <p></p> <img src='stimuli/faces/NCM6.jpg', style='max-width: 30%;'> </img> <p><strong>你是否选择发射武器？</strong></p>","1",""
"","","","","","html-keyboard-response","86","171014","0.0-4.0-0.41","49","1","2022-10-20 08:19:44","d60b49b5908c80e163b920d72b52d584","59.36.162.115","Mozilla/5.0 (Windows NT 10.0; Win64; x64) AppleWebKit/537.36 (KHTML, like Gecko) Chrome/99.0.4844.51 Safari/537.36","WebKit","Chrome","99.0.4844.51","Windows","10.0","null","<div style=""font-size:60px;"">+</div>","null",""
"","","","","","html-button-response","87","173868","0.0-4.0-1.41","49","1","2022-10-20 08:19:44","d60b49b5908c80e163b920d72b52d584","59.36.162.115","Mozilla/5.0 (Windows NT 10.0; Win64; x64) AppleWebKit/537.36 (KHTML, like Gecko) Chrome/99.0.4844.51 Safari/537.36","WebKit","Chrome","99.0.4844.51","Windows","10.0","2840","<p>作为军队的指挥官，你可以选择发射导弹杀死 <strong>3名</strong> 敌国士兵，但会误杀附近的 <strong>1名</strong> 敌国平民。</p> <p>平民照片如下图所示。</p> <p></p> <img src='stimuli/faces/NCM1.jpg', style='max-width: 30%;'> </img> <p><strong>你是否选择发射武器？</strong></p>","1",""
"","","","","","html-keyboard-response","88","174878","0.0-4.0-0.42","49","1","2022-10-20 08:19:44","d60b49b5908c80e163b920d72b52d584","59.36.162.115","Mozilla/5.0 (Windows NT 10.0; Win64; x64) AppleWebKit/537.36 (KHTML, like Gecko) Chrome/99.0.4844.51 Safari/537.36","WebKit","Chrome","99.0.4844.51","Windows","10.0","null","<div style=""font-size:60px;"">+</div>","null",""
"","","","","","html-button-response","89","176317","0.0-4.0-1.42","49","1","2022-10-20 08:19:44","d60b49b5908c80e163b920d72b52d584","59.36.162.115","Mozilla/5.0 (Windows NT 10.0; Win64; x64) AppleWebKit/537.36 (KHTML, like Gecko) Chrome/99.0.4844.51 Safari/537.36","WebKit","Chrome","99.0.4844.51","Windows","10.0","1425","<p>作为军队的指挥官，你可以选择发射导弹杀死 <strong>2名</strong> 敌国士兵，但会误杀附近的 <strong>1名</strong> 敌国平民。</p> <p>平民照片如下图所示。</p> <p></p> <img src='stimuli/faces/NCM2.jpg', style='max-width: 30%;'> </img> <p><strong>你是否选择发射武器？</strong></p>","1",""
"","","","","","html-keyboard-response","90","177329","0.0-4.0-0.43","49","1","2022-10-20 08:19:44","d60b49b5908c80e163b920d72b52d584","59.36.162.115","Mozilla/5.0 (Windows NT 10.0; Win64; x64) AppleWebKit/537.36 (KHTML, like Gecko) Chrome/99.0.4844.51 Safari/537.36","WebKit","Chrome","99.0.4844.51","Windows","10.0","null","<div style=""font-size:60px;"">+</div>","null",""
"","","","","","html-button-response","91","184524","0.0-4.0-1.43","49","1","2022-10-20 08:19:44","d60b49b5908c80e163b920d72b52d584","59.36.162.115","Mozilla/5.0 (Windows NT 10.0; Win64; x64) AppleWebKit/537.36 (KHTML, like Gecko) Chrome/99.0.4844.51 Safari/537.36","WebKit","Chrome","99.0.4844.51","Windows","10.0","7184","<p>作为军队的指挥官，你可以选择发射导弹杀死 <strong>7名</strong> 敌国士兵，但会误杀附近的 <strong>1名</strong> 敌国平民。</p> <p>平民照片如下图所示。</p> <p></p> <img src='stimuli/faces/NCM7.jpg', style='max-width: 30%;'> </img> <p><strong>你是否选择发射武器？</strong></p>","0",""
"","","","","","html-keyboard-response","92","185536","0.0-4.0-0.44","49","1","2022-10-20 08:19:44","d60b49b5908c80e163b920d72b52d584","59.36.162.115","Mozilla/5.0 (Windows NT 10.0; Win64; x64) AppleWebKit/537.36 (KHTML, like Gecko) Chrome/99.0.4844.51 Safari/537.36","WebKit","Chrome","99.0.4844.51","Windows","10.0","null","<div style=""font-size:60px;"">+</div>","null",""
"","","","","","html-button-response","93","186476","0.0-4.0-1.44","49","1","2022-10-20 08:19:44","d60b49b5908c80e163b920d72b52d584","59.36.162.115","Mozilla/5.0 (Windows NT 10.0; Win64; x64) AppleWebKit/537.36 (KHTML, like Gecko) Chrome/99.0.4844.51 Safari/537.36","WebKit","Chrome","99.0.4844.51","Windows","10.0","929","<p>作为军队的指挥官，你可以选择发射导弹杀死 <strong>9名</strong> 敌国士兵，但会炸毁附近的 <strong>1棵</strong> 敌国树木。</p> <p>树木的照片如下图所示。</p> <p></p> <img src='stimuli/trees/4.png', style='max-width: 30%;'> </img> <p><strong>你是否选择发射武器？</strong></p>","0",""
"","","","","","html-keyboard-response","94","187487","0.0-4.0-0.45","49","1","2022-10-20 08:19:44","d60b49b5908c80e163b920d72b52d584","59.36.162.115","Mozilla/5.0 (Windows NT 10.0; Win64; x64) AppleWebKit/537.36 (KHTML, like Gecko) Chrome/99.0.4844.51 Safari/537.36","WebKit","Chrome","99.0.4844.51","Windows","10.0","null","<div style=""font-size:60px;"">+</div>","null",""
"","","","","","html-button-response","95","188844","0.0-4.0-1.45","49","1","2022-10-20 08:19:44","d60b49b5908c80e163b920d72b52d584","59.36.162.115","Mozilla/5.0 (Windows NT 10.0; Win64; x64) AppleWebKit/537.36 (KHTML, like Gecko) Chrome/99.0.4844.51 Safari/537.36","WebKit","Chrome","99.0.4844.51","Windows","10.0","1347","<p>作为军队的指挥官，你可以选择发射导弹杀死 <strong>6名</strong> 敌国士兵，但会误杀附近的 <strong>1名</strong> 敌国平民。</p> <p>平民照片如下图所示。</p> <p></p> <img src='stimuli/faces/NCM4.jpg', style='max-width: 30%;'> </img> <p><strong>你是否选择发射武器？</strong></p>","0",""
"","","","","","html-keyboard-response","96","189854","0.0-4.0-0.46","49","1","2022-10-20 08:19:44","d60b49b5908c80e163b920d72b52d584","59.36.162.115","Mozilla/5.0 (Windows NT 10.0; Win64; x64) AppleWebKit/537.36 (KHTML, like Gecko) Chrome/99.0.4844.51 Safari/537.36","WebKit","Chrome","99.0.4844.51","Windows","10.0","null","<div style=""font-size:60px;"">+</div>","null",""
"","","","","","html-button-response","97","190724","0.0-4.0-1.46","49","1","2022-10-20 08:19:44","d60b49b5908c80e163b920d72b52d584","59.36.162.115","Mozilla/5.0 (Windows NT 10.0; Win64; x64) AppleWebKit/537.36 (KHTML, like Gecko) Chrome/99.0.4844.51 Safari/537.36","WebKit","Chrome","99.0.4844.51","Windows","10.0","857","<p>作为军队的指挥官，你可以选择发射导弹杀死 <strong>6名</strong> 敌国士兵，但会炸毁附近的 <strong>1棵</strong> 敌国树木。</p> <p>树木的照片如下图所示。</p> <p></p> <img src='stimuli/trees/7.png', style='max-width: 30%;'> </img> <p><strong>你是否选择发射武器？</strong></p>","0",""
"","","","","","html-keyboard-response","98","191735","0.0-4.0-0.47","49","1","2022-10-20 08:19:44","d60b49b5908c80e163b920d72b52d584","59.36.162.115","Mozilla/5.0 (Windows NT 10.0; Win64; x64) AppleWebKit/537.36 (KHTML, like Gecko) Chrome/99.0.4844.51 Safari/537.36","WebKit","Chrome","99.0.4844.51","Windows","10.0","null","<div style=""font-size:60px;"">+</div>","null",""
"","","","","","html-button-response","99","192540","0.0-4.0-1.47","49","1","2022-10-20 08:19:44","d60b49b5908c80e163b920d72b52d584","59.36.162.115","Mozilla/5.0 (Windows NT 10.0; Win64; x64) AppleWebKit/537.36 (KHTML, like Gecko) Chrome/99.0.4844.51 Safari/537.36","WebKit","Chrome","99.0.4844.51","Windows","10.0","792","<p>作为军队的指挥官，你可以选择发射导弹杀死 <strong>8名</strong> 敌国士兵，但会炸毁附近的 <strong>1棵</strong> 敌国树木。</p> <p>树木的照片如下图所示。</p> <p></p> <img src='stimuli/trees/8.png', style='max-width: 30%;'> </img> <p><strong>你是否选择发射武器？</strong></p>","0",""
"","","","","","html-keyboard-response","100","193551","0.0-4.0-0.48","49","1","2022-10-20 08:19:44","d60b49b5908c80e163b920d72b52d584","59.36.162.115","Mozilla/5.0 (Windows NT 10.0; Win64; x64) AppleWebKit/537.36 (KHTML, like Gecko) Chrome/99.0.4844.51 Safari/537.36","WebKit","Chrome","99.0.4844.51","Windows","10.0","null","<div style=""font-size:60px;"">+</div>","null",""
"","","","","","html-button-response","101","194902","0.0-4.0-1.48","49","1","2022-10-20 08:19:44","d60b49b5908c80e163b920d72b52d584","59.36.162.115","Mozilla/5.0 (Windows NT 10.0; Win64; x64) AppleWebKit/537.36 (KHTML, like Gecko) Chrome/99.0.4844.51 Safari/537.36","WebKit","Chrome","99.0.4844.51","Windows","10.0","1341","<p>作为军队的指挥官，你可以选择发射导弹杀死 <strong>5名</strong> 敌国士兵，但会误杀附近的 <strong>1名</strong> 敌国平民。</p> <p>平民照片如下图所示。</p> <p></p> <img src='stimuli/faces/NCM4.jpg', style='max-width: 30%;'> </img> <p><strong>你是否选择发射武器？</strong></p>","0",""
"","","","","","html-keyboard-response","102","195914","0.0-4.0-0.49","49","1","2022-10-20 08:19:44","d60b49b5908c80e163b920d72b52d584","59.36.162.115","Mozilla/5.0 (Windows NT 10.0; Win64; x64) AppleWebKit/537.36 (KHTML, like Gecko) Chrome/99.0.4844.51 Safari/537.36","WebKit","Chrome","99.0.4844.51","Windows","10.0","null","<div style=""font-size:60px;"">+</div>","null",""
"","","","","","html-button-response","103","196741","0.0-4.0-1.49","49","1","2022-10-20 08:19:44","d60b49b5908c80e163b920d72b52d584","59.36.162.115","Mozilla/5.0 (Windows NT 10.0; Win64; x64) AppleWebKit/537.36 (KHTML, like Gecko) Chrome/99.0.4844.51 Safari/537.36","WebKit","Chrome","99.0.4844.51","Windows","10.0","815","<p>作为军队的指挥官，你可以选择发射导弹杀死 <strong>5名</strong> 敌国士兵，但会误杀附近的 <strong>1名</strong> 敌国平民。</p> <p>平民照片如下图所示。</p> <p></p> <img src='stimuli/faces/NCF3.jpg', style='max-width: 30%;'> </img> <p><strong>你是否选择发射武器？</strong></p>","0",""
"","","","","","html-keyboard-response","104","197753","0.0-4.0-0.50","49","1","2022-10-20 08:19:44","d60b49b5908c80e163b920d72b52d584","59.36.162.115","Mozilla/5.0 (Windows NT 10.0; Win64; x64) AppleWebKit/537.36 (KHTML, like Gecko) Chrome/99.0.4844.51 Safari/537.36","WebKit","Chrome","99.0.4844.51","Windows","10.0","null","<div style=""font-size:60px;"">+</div>","null",""
"","","","","","html-button-response","105","198421","0.0-4.0-1.50","49","1","2022-10-20 08:19:44","d60b49b5908c80e163b920d72b52d584","59.36.162.115","Mozilla/5.0 (Windows NT 10.0; Win64; x64) AppleWebKit/537.36 (KHTML, like Gecko) Chrome/99.0.4844.51 Safari/537.36","WebKit","Chrome","99.0.4844.51","Windows","10.0","654","<p>作为军队的指挥官，你可以选择发射导弹杀死 <strong>4名</strong> 敌国士兵，但会炸毁附近的 <strong>1棵</strong> 敌国树木。</p> <p>树木的照片如下图所示。</p> <p></p> <img src='stimuli/trees/13.png', style='max-width: 30%;'> </img> <p><strong>你是否选择发射武器？</strong></p>","0",""
"","","","","","html-keyboard-response","106","199434","0.0-4.0-0.51","49","1","2022-10-20 08:19:44","d60b49b5908c80e163b920d72b52d584","59.36.162.115","Mozilla/5.0 (Windows NT 10.0; Win64; x64) AppleWebKit/537.36 (KHTML, like Gecko) Chrome/99.0.4844.51 Safari/537.36","WebKit","Chrome","99.0.4844.51","Windows","10.0","null","<div style=""font-size:60px;"">+</div>","null",""
"","","","","","html-button-response","107","200141","0.0-4.0-1.51","49","1","2022-10-20 08:19:44","d60b49b5908c80e163b920d72b52d584","59.36.162.115","Mozilla/5.0 (Windows NT 10.0; Win64; x64) AppleWebKit/537.36 (KHTML, like Gecko) Chrome/99.0.4844.51 Safari/537.36","WebKit","Chrome","99.0.4844.51","Windows","10.0","695","<p>作为军队的指挥官，你可以选择发射导弹杀死 <strong>5名</strong> 敌国士兵，但会炸毁附近的 <strong>1棵</strong> 敌国树木。</p> <p>树木的照片如下图所示。</p> <p></p> <img src='stimuli/trees/14.png', style='max-width: 30%;'> </img> <p><strong>你是否选择发射武器？</strong></p>","0",""
"","","","","","html-keyboard-response","108","201154","0.0-4.0-0.52","49","1","2022-10-20 08:19:44","d60b49b5908c80e163b920d72b52d584","59.36.162.115","Mozilla/5.0 (Windows NT 10.0; Win64; x64) AppleWebKit/537.36 (KHTML, like Gecko) Chrome/99.0.4844.51 Safari/537.36","WebKit","Chrome","99.0.4844.51","Windows","10.0","null","<div style=""font-size:60px;"">+</div>","null",""
"","","","","","html-button-response","109","201916","0.0-4.0-1.52","49","1","2022-10-20 08:19:44","d60b49b5908c80e163b920d72b52d584","59.36.162.115","Mozilla/5.0 (Windows NT 10.0; Win64; x64) AppleWebKit/537.36 (KHTML, like Gecko) Chrome/99.0.4844.51 Safari/537.36","WebKit","Chrome","99.0.4844.51","Windows","10.0","749","<p>作为军队的指挥官，你可以选择发射导弹杀死 <strong>3名</strong> 敌国士兵，但会炸毁附近的 <strong>1棵</strong> 敌国树木。</p> <p>树木的照片如下图所示。</p> <p></p> <img src='stimuli/trees/8.png', style='max-width: 30%;'> </img> <p><strong>你是否选择发射武器？</strong></p>","0",""
"","","","","","html-keyboard-response","110","202927","0.0-4.0-0.53","49","1","2022-10-20 08:19:44","d60b49b5908c80e163b920d72b52d584","59.36.162.115","Mozilla/5.0 (Windows NT 10.0; Win64; x64) AppleWebKit/537.36 (KHTML, like Gecko) Chrome/99.0.4844.51 Safari/537.36","WebKit","Chrome","99.0.4844.51","Windows","10.0","null","<div style=""font-size:60px;"">+</div>","null",""
"","","","","","html-button-response","111","205124","0.0-4.0-1.53","49","1","2022-10-20 08:19:44","d60b49b5908c80e163b920d72b52d584","59.36.162.115","Mozilla/5.0 (Windows NT 10.0; Win64; x64) AppleWebKit/537.36 (KHTML, like Gecko) Chrome/99.0.4844.51 Safari/537.36","WebKit","Chrome","99.0.4844.51","Windows","10.0","2185","<p>作为军队的指挥官，你可以选择发射导弹杀死 <strong>4名</strong> 敌国士兵，但会炸毁附近的 <strong>1棵</strong> 敌国树木。</p> <p>树木的照片如下图所示。</p> <p></p> <img src='stimuli/trees/3.png', style='max-width: 30%;'> </img> <p><strong>你是否选择发射武器？</strong></p>","0",""
"","","","","","html-keyboard-response","112","206137","0.0-4.0-0.54","49","1","2022-10-20 08:19:44","d60b49b5908c80e163b920d72b52d584","59.36.162.115","Mozilla/5.0 (Windows NT 10.0; Win64; x64) AppleWebKit/537.36 (KHTML, like Gecko) Chrome/99.0.4844.51 Safari/537.36","WebKit","Chrome","99.0.4844.51","Windows","10.0","null","<div style=""font-size:60px;"">+</div>","null",""
"","","","","","html-button-response","113","206708","0.0-4.0-1.54","49","1","2022-10-20 08:19:44","d60b49b5908c80e163b920d72b52d584","59.36.162.115","Mozilla/5.0 (Windows NT 10.0; Win64; x64) AppleWebKit/537.36 (KHTML, like Gecko) Chrome/99.0.4844.51 Safari/537.36","WebKit","Chrome","99.0.4844.51","Windows","10.0","557","<p>作为军队的指挥官，你可以选择发射导弹杀死 <strong>3名</strong> 敌国士兵，但会炸毁附近的 <strong>1棵</strong> 敌国树木。</p> <p>树木的照片如下图所示。</p> <p></p> <img src='stimuli/trees/7.png', style='max-width: 30%;'> </img> <p><strong>你是否选择发射武器？</strong></p>","0",""
"","","","","","html-keyboard-response","114","207721","0.0-4.0-0.55","49","1","2022-10-20 08:19:44","d60b49b5908c80e163b920d72b52d584","59.36.162.115","Mozilla/5.0 (Windows NT 10.0; Win64; x64) AppleWebKit/537.36 (KHTML, like Gecko) Chrome/99.0.4844.51 Safari/537.36","WebKit","Chrome","99.0.4844.51","Windows","10.0","null","<div style=""font-size:60px;"">+</div>","null",""
"","","","","","html-button-response","115","209461","0.0-4.0-1.55","49","1","2022-10-20 08:19:44","d60b49b5908c80e163b920d72b52d584","59.36.162.115","Mozilla/5.0 (Windows NT 10.0; Win64; x64) AppleWebKit/537.36 (KHTML, like Gecko) Chrome/99.0.4844.51 Safari/537.36","WebKit","Chrome","99.0.4844.51","Windows","10.0","1726","<p>作为军队的指挥官，你可以选择发射导弹杀死 <strong>2名</strong> 敌国士兵，但会误杀附近的 <strong>1名</strong> 敌国平民。</p> <p>平民照片如下图所示。</p> <p></p> <img src='stimuli/faces/NCF7.jpg', style='max-width: 30%;'> </img> <p><strong>你是否选择发射武器？</strong></p>","1",""
"","","","","","html-keyboard-response","116","210473","0.0-4.0-0.56","49","1","2022-10-20 08:19:44","d60b49b5908c80e163b920d72b52d584","59.36.162.115","Mozilla/5.0 (Windows NT 10.0; Win64; x64) AppleWebKit/537.36 (KHTML, like Gecko) Chrome/99.0.4844.51 Safari/537.36","WebKit","Chrome","99.0.4844.51","Windows","10.0","null","<div style=""font-size:60px;"">+</div>","null",""
"","","","","","html-button-response","117","211892","0.0-4.0-1.56","49","1","2022-10-20 08:19:44","d60b49b5908c80e163b920d72b52d584","59.36.162.115","Mozilla/5.0 (Windows NT 10.0; Win64; x64) AppleWebKit/537.36 (KHTML, like Gecko) Chrome/99.0.4844.51 Safari/537.36","WebKit","Chrome","99.0.4844.51","Windows","10.0","1406","<p>作为军队的指挥官，你可以选择发射导弹杀死 <strong>1名</strong> 敌国士兵，但会误杀附近的 <strong>1名</strong> 敌国平民。</p> <p>平民照片如下图所示。</p> <p></p> <img src='stimuli/faces/NCF8.jpg', style='max-width: 30%;'> </img> <p><strong>你是否选择发射武器？</strong></p>","1",""
"","","","","","html-keyboard-response","118","212903","0.0-4.0-0.57","49","1","2022-10-20 08:19:44","d60b49b5908c80e163b920d72b52d584","59.36.162.115","Mozilla/5.0 (Windows NT 10.0; Win64; x64) AppleWebKit/537.36 (KHTML, like Gecko) Chrome/99.0.4844.51 Safari/537.36","WebKit","Chrome","99.0.4844.51","Windows","10.0","null","<div style=""font-size:60px;"">+</div>","null",""
"","","","","","html-button-response","119","215276","0.0-4.0-1.57","49","1","2022-10-20 08:19:44","d60b49b5908c80e163b920d72b52d584","59.36.162.115","Mozilla/5.0 (Windows NT 10.0; Win64; x64) AppleWebKit/537.36 (KHTML, like Gecko) Chrome/99.0.4844.51 Safari/537.36","WebKit","Chrome","99.0.4844.51","Windows","10.0","2354","<p>作为军队的指挥官，你可以选择发射导弹杀死 <strong>10名</strong> 敌国士兵，但会误杀附近的 <strong>1名</strong> 敌国平民。</p> <p>平民照片如下图所示。</p> <p></p> <img src='stimuli/faces/NCM6.jpg', style='max-width: 30%;'> </img> <p><strong>你是否选择发射武器？</strong></p>","0",""
"","","","","","html-keyboard-response","120","216289","0.0-4.0-0.58","49","1","2022-10-20 08:19:44","d60b49b5908c80e163b920d72b52d584","59.36.162.115","Mozilla/5.0 (Windows NT 10.0; Win64; x64) AppleWebKit/537.36 (KHTML, like Gecko) Chrome/99.0.4844.51 Safari/537.36","WebKit","Chrome","99.0.4844.51","Windows","10.0","null","<div style=""font-size:60px;"">+</div>","null",""
"","","","","","html-button-response","121","217580","0.0-4.0-1.58","49","1","2022-10-20 08:19:44","d60b49b5908c80e163b920d72b52d584","59.36.162.115","Mozilla/5.0 (Windows NT 10.0; Win64; x64) AppleWebKit/537.36 (KHTML, like Gecko) Chrome/99.0.4844.51 Safari/537.36","WebKit","Chrome","99.0.4844.51","Windows","10.0","1276","<p>作为军队的指挥官，你可以选择发射导弹杀死 <strong>10名</strong> 敌国士兵，但会炸毁附近的 <strong>1棵</strong> 敌国树木。</p> <p>树木的照片如下图所示。</p> <p></p> <img src='stimuli/trees/6.png', style='max-width: 30%;'> </img> <p><strong>你是否选择发射武器？</strong></p>","0",""
"","","","","","html-keyboard-response","122","218594","0.0-4.0-0.59","49","1","2022-10-20 08:19:44","d60b49b5908c80e163b920d72b52d584","59.36.162.115","Mozilla/5.0 (Windows NT 10.0; Win64; x64) AppleWebKit/537.36 (KHTML, like Gecko) Chrome/99.0.4844.51 Safari/537.36","WebKit","Chrome","99.0.4844.51","Windows","10.0","null","<div style=""font-size:60px;"">+</div>","null",""
"","","","","","html-button-response","123","219644","0.0-4.0-1.59","49","1","2022-10-20 08:19:44","d60b49b5908c80e163b920d72b52d584","59.36.162.115","Mozilla/5.0 (Windows NT 10.0; Win64; x64) AppleWebKit/537.36 (KHTML, like Gecko) Chrome/99.0.4844.51 Safari/537.36","WebKit","Chrome","99.0.4844.51","Windows","10.0","1035","<p>作为军队的指挥官，你可以选择发射导弹杀死 <strong>10名</strong> 敌国士兵，但会误杀附近的 <strong>1名</strong> 敌国平民。</p> <p>平民照片如下图所示。</p> <p></p> <img src='stimuli/faces/NCF5.jpg', style='max-width: 30%;'> </img> <p><strong>你是否选择发射武器？</strong></p>","0",""
"","","","","","html-keyboard-response","124","220659","0.0-4.0-0.60","49","1","2022-10-20 08:19:44","d60b49b5908c80e163b920d72b52d584","59.36.162.115","Mozilla/5.0 (Windows NT 10.0; Win64; x64) AppleWebKit/537.36 (KHTML, like Gecko) Chrome/99.0.4844.51 Safari/537.36","WebKit","Chrome","99.0.4844.51","Windows","10.0","null","<div style=""font-size:60px;"">+</div>","null",""
"","","","","","html-button-response","125","222253","0.0-4.0-1.60","49","1","2022-10-20 08:19:44","d60b49b5908c80e163b920d72b52d584","59.36.162.115","Mozilla/5.0 (Windows NT 10.0; Win64; x64) AppleWebKit/537.36 (KHTML, like Gecko) Chrome/99.0.4844.51 Safari/537.36","WebKit","Chrome","99.0.4844.51","Windows","10.0","1579","<p>作为军队的指挥官，你可以选择发射导弹杀死 <strong>1名</strong> 敌国士兵，但会误杀附近的 <strong>1名</strong> 敌国平民。</p> <p>平民照片如下图所示。</p> <p></p> <img src='stimuli/faces/NCF4.jpg', style='max-width: 30%;'> </img> <p><strong>你是否选择发射武器？</strong></p>","1",""
"","","","","","html-keyboard-response","126","223267","0.0-4.0-0.61","49","1","2022-10-20 08:19:44","d60b49b5908c80e163b920d72b52d584","59.36.162.115","Mozilla/5.0 (Windows NT 10.0; Win64; x64) AppleWebKit/537.36 (KHTML, like Gecko) Chrome/99.0.4844.51 Safari/537.36","WebKit","Chrome","99.0.4844.51","Windows","10.0","null","<div style=""font-size:60px;"">+</div>","null",""
"","","","","","html-button-response","127","224860","0.0-4.0-1.61","49","1","2022-10-20 08:19:44","d60b49b5908c80e163b920d72b52d584","59.36.162.115","Mozilla/5.0 (Windows NT 10.0; Win64; x64) AppleWebKit/537.36 (KHTML, like Gecko) Chrome/99.0.4844.51 Safari/537.36","WebKit","Chrome","99.0.4844.51","Windows","10.0","1580","<p>作为军队的指挥官，你可以选择发射导弹杀死 <strong>7名</strong> 敌国士兵，但会误杀附近的 <strong>1名</strong> 敌国平民。</p> <p>平民照片如下图所示。</p> <p></p> <img src='stimuli/faces/NCF2.jpg', style='max-width: 30%;'> </img> <p><strong>你是否选择发射武器？</strong></p>","0",""
"","","","","","html-keyboard-response","128","225873","0.0-4.0-0.62","49","1","2022-10-20 08:19:44","d60b49b5908c80e163b920d72b52d584","59.36.162.115","Mozilla/5.0 (Windows NT 10.0; Win64; x64) AppleWebKit/537.36 (KHTML, like Gecko) Chrome/99.0.4844.51 Safari/537.36","WebKit","Chrome","99.0.4844.51","Windows","10.0","null","<div style=""font-size:60px;"">+</div>","null",""
"","","","","","html-button-response","129","230180","0.0-4.0-1.62","49","1","2022-10-20 08:19:44","d60b49b5908c80e163b920d72b52d584","59.36.162.115","Mozilla/5.0 (Windows NT 10.0; Win64; x64) AppleWebKit/537.36 (KHTML, like Gecko) Chrome/99.0.4844.51 Safari/537.36","WebKit","Chrome","99.0.4844.51","Windows","10.0","4292","<p>作为军队的指挥官，你可以选择发射导弹杀死 <strong>5名</strong> 敌国士兵，但会炸毁附近的 <strong>1棵</strong> 敌国树木。</p> <p>树木的照片如下图所示。</p> <p></p> <img src='stimuli/trees/6.png', style='max-width: 30%;'> </img> <p><strong>你是否选择发射武器？</strong></p>","0",""
"","","","","","html-keyboard-response","130","231194","0.0-4.0-0.63","49","1","2022-10-20 08:19:44","d60b49b5908c80e163b920d72b52d584","59.36.162.115","Mozilla/5.0 (Windows NT 10.0; Win64; x64) AppleWebKit/537.36 (KHTML, like Gecko) Chrome/99.0.4844.51 Safari/537.36","WebKit","Chrome","99.0.4844.51","Windows","10.0","null","<div style=""font-size:60px;"">+</div>","null",""
"","","","","","html-button-response","131","232004","0.0-4.0-1.63","49","1","2022-10-20 08:19:44","d60b49b5908c80e163b920d72b52d584","59.36.162.115","Mozilla/5.0 (Windows NT 10.0; Win64; x64) AppleWebKit/537.36 (KHTML, like Gecko) Chrome/99.0.4844.51 Safari/537.36","WebKit","Chrome","99.0.4844.51","Windows","10.0","792","<p>作为军队的指挥官，你可以选择发射导弹杀死 <strong>5名</strong> 敌国士兵，但会炸毁附近的 <strong>1棵</strong> 敌国树木。</p> <p>树木的照片如下图所示。</p> <p></p> <img src='stimuli/trees/16.png', style='max-width: 30%;'> </img> <p><strong>你是否选择发射武器？</strong></p>","0",""
"","","","","","survey-multi-choice","132","236901","0.0-5.0","49","1","2022-10-20 08:19:44","d60b49b5908c80e163b920d72b52d584","59.36.162.115","Mozilla/5.0 (Windows NT 10.0; Win64; x64) AppleWebKit/537.36 (KHTML, like Gecko) Chrome/99.0.4844.51 Safari/537.36","WebKit","Chrome","99.0.4844.51","Windows","10.0","4881","","{""Attention1"":""""}","[0]"
"","","","","","html-button-response","133","238149","0.0-6.0","49","1","2022-10-20 08:19:44","d60b49b5908c80e163b920d72b52d584","59.36.162.115","Mozilla/5.0 (Windows NT 10.0; Win64; x64) AppleWebKit/537.36 (KHTML, like Gecko) Chrome/99.0.4844.51 Safari/537.36","WebKit","Chrome","99.0.4844.51","Windows","10.0","1227","<p style=""font-size:20px;font-weight:bold;"">恭喜！</p><p>你已经完成了实验的第一部分。</p><p>请休息放松一下，然后进入第二部分。</p><p>这部分大约需要10分钟。</p>","0",""
"","","","","","survey-text","134","352973","0.0-7.0","49","1","2022-10-20 08:19:44","d60b49b5908c80e163b920d72b52d584","59.36.162.115","Mozilla/5.0 (Windows NT 10.0; Win64; x64) AppleWebKit/537.36 (KHTML, like Gecko) Chrome/99.0.4844.51 Safari/537.36","WebKit","Chrome","99.0.4844.51","Windows","10.0","113792","","{""Age"":""36"",""Nation"":""中国"",""Born"":""广东揭阳"",""Live"":""广东佛山"",""Ethnic"":""汉族"",""Alipay"":""15017657826""}",""
"","","","","","survey-multi-choice","135","372030","0.0-8.0","49","1","2022-10-20 08:19:44","d60b49b5908c80e163b920d72b52d584","59.36.162.115","Mozilla/5.0 (Windows NT 10.0; Win64; x64) AppleWebKit/537.36 (KHTML, like Gecko) Chrome/99.0.4844.51 Safari/537.36","WebKit","Chrome","99.0.4844.51","Windows","10.0","19038","","{""Gender"":""女"",""Education"":""本科毕业"",""Income"":""￥140,000-￥269,999"",""Children"":""1"",""Race"":""亚洲人""}","[0,1,2,3,4]"
"","","","","","survey-multi-select","136","380966","0.0-9.0","49","1","2022-10-20 08:19:44","d60b49b5908c80e163b920d72b52d584","59.36.162.115","Mozilla/5.0 (Windows NT 10.0; Win64; x64) AppleWebKit/537.36 (KHTML, like Gecko) Chrome/99.0.4844.51 Safari/537.36","WebKit","Chrome","99.0.4844.51","Windows","10.0","8893","","{""Marriage"":[""已婚""],""Religion"":[""无宗教信仰""]}","[0,1]"
"","","","","","survey-multi-choice","137","386164","0.0-10.0","49","1","2022-10-20 08:19:44","d60b49b5908c80e163b920d72b52d584","59.36.162.115","Mozilla/5.0 (Windows NT 10.0; Win64; x64) AppleWebKit/537.36 (KHTML, like Gecko) Chrome/99.0.4844.51 Safari/537.36","WebKit","Chrome","99.0.4844.51","Windows","10.0","5176","","{""SES"":""6""}","[0]"
"","","","","","html-button-response","138","387861","0.0-11.0","49","1","2022-10-20 08:19:44","d60b49b5908c80e163b920d72b52d584","59.36.162.115","Mozilla/5.0 (Windows NT 10.0; Win64; x64) AppleWebKit/537.36 (KHTML, like Gecko) Chrome/99.0.4844.51 Safari/537.36","WebKit","Chrome","99.0.4844.51","Windows","10.0","1675","<p><strong>请判断下列陈述在多大程度上可以形容你？</p><p> (1 = ""和我一点都不像"" to 5 = ""非常像我"".)</strong></p>","0",""
"","","","","","survey-likert","139","417743","0.0-12.0","49","1","2022-10-20 08:19:44","d60b49b5908c80e163b920d72b52d584","59.36.162.115","Mozilla/5.0 (Windows NT 10.0; Win64; x64) AppleWebKit/537.36 (KHTML, like Gecko) Chrome/99.0.4844.51 Safari/537.36","WebKit","Chrome","99.0.4844.51","Windows","10.0","29864","","{""Aggression1"":0,""Aggression2"":0,""Aggression3"":0,""Aggression4"":0,""Aggression5"":0,""Aggression6"":0,""Aggression7"":4,""Aggression8"":0,""Aggression9"":0}","[0,1,2,3,4,5,6,7,8]"
"","","","","","html-button-response","140","419228","0.0-13.0","49","1","2022-10-20 08:19:44","d60b49b5908c80e163b920d72b52d584","59.36.162.115","Mozilla/5.0 (Windows NT 10.0; Win64; x64) AppleWebKit/537.36 (KHTML, like Gecko) Chrome/99.0.4844.51 Safari/537.36","WebKit","Chrome","99.0.4844.51","Windows","10.0","1462","<p><strong>请判断你在多大程度上同意下列陈述。</strong></p>","0",""
"","","","","","survey-likert","141","524556","0.0-14.0","49","1","2022-10-20 08:19:44","d60b49b5908c80e163b920d72b52d584","59.36.162.115","Mozilla/5.0 (Windows NT 10.0; Win64; x64) AppleWebKit/537.36 (KHTML, like Gecko) Chrome/99.0.4844.51 Safari/537.36","WebKit","Chrome","99.0.4844.51","Windows","10.0","105304","","{""scale11"":2,""scale26"":2,""scale7"":2,""scale10"":3,""scale2"":1,""scale14"":2,""scale22"":2,""scale3"":2,""scale28"":2,""scale27"":1,""scale25"":2,""scale21"":2,""scale5"":2,""scale19"":1,""scale17"":3,""scale13"":2,""scale18"":2,""scale20"":2,""scale1"":2,""scale6"":3,""scale9"":1,""scale16"":2,""scale23"":2,""scale4"":2,""scale12"":2,""scale24"":3,""scale15"":2,""scale8"":2}","[10,25,6,9,1,13,21,2,27,26,24,20,4,18,16,12,17,19,0,5,8,15,22,3,11,23,14,7]"
"","","","","","html-button-response","142","526141","0.0-15.0","49","1","2022-10-20 08:19:44","d60b49b5908c80e163b920d72b52d584","59.36.162.115","Mozilla/5.0 (Windows NT 10.0; Win64; x64) AppleWebKit/537.36 (KHTML, like Gecko) Chrome/99.0.4844.51 Safari/537.36","WebKit","Chrome","99.0.4844.51","Windows","10.0","1565","<p><strong>请判断你在多大程度上同意下列陈述。</strong></p>","0",""
"","","","","","survey-likert","143","631656","0.0-16.0","49","1","2022-10-20 08:19:44","d60b49b5908c80e163b920d72b52d584","59.36.162.115","Mozilla/5.0 (Windows NT 10.0; Win64; x64) AppleWebKit/537.36 (KHTML, like Gecko) Chrome/99.0.4844.51 Safari/537.36","WebKit","Chrome","99.0.4844.51","Windows","10.0","105494","","{""sdo16"":6,""sdo6"":4,""sdo4"":6,""sdo11"":4,""sdo8"":4,""sdo2"":3,""sdo15"":4,""sdo1"":5,""sdo14"":5,""sdo3"":3,""sdo12"":5,""sdo10"":5,""sdo7"":2,""sdo5"":4,""sdo9"":5,""sdo13"":6}","[15,5,3,10,7,1,14,0,13,2,11,9,6,4,8,12]"
"","","","","","html-button-response","144","633516","0.0-17.0","49","1","2022-10-20 08:19:44","d60b49b5908c80e163b920d72b52d584","59.36.162.115","Mozilla/5.0 (Windows NT 10.0; Win64; x64) AppleWebKit/537.36 (KHTML, like Gecko) Chrome/99.0.4844.51 Safari/537.36","WebKit","Chrome","99.0.4844.51","Windows","10.0","1839","<p><strong>请判断你在多大程度上同意下列陈述。</strong></p>","0",""
"","","","","","survey-likert","145","673583","0.0-18.0","49","1","2022-10-20 08:19:44","d60b49b5908c80e163b920d72b52d584","59.36.162.115","Mozilla/5.0 (Windows NT 10.0; Win64; x64) AppleWebKit/537.36 (KHTML, like Gecko) Chrome/99.0.4844.51 Safari/537.36","WebKit","Chrome","99.0.4844.51","Windows","10.0","40049","","{""caring1"":4,""liking1"":1,""caring2"":4,""protection1"":3,""liking2"":2,""caring3"":4,""protection2"":2,""liking3"":1,""protection3"":4,""caring4"":3,""liking4"":2,""protection4"":3,""caring5"":3,""liking5"":2,""protection5"":4}","[0,1,2,3,4,5,6,7,8,9,10,11,12,13,14]"
"","","","","","html-button-response","146","675164","0.0-19.0","49","1","2022-10-20 08:19:44","d60b49b5908c80e163b920d72b52d584","59.36.162.115","Mozilla/5.0 (Windows NT 10.0; Win64; x64) AppleWebKit/537.36 (KHTML, like Gecko) Chrome/99.0.4844.51 Safari/537.36","WebKit","Chrome","99.0.4844.51","Windows","10.0","1560","<p><strong>请判断下列场景中你的内心感受有多柔软。</strong></p>","0",""
"","","","","","survey-likert","147","700534","0.0-20.0","49","1","2022-10-20 08:19:44","d60b49b5908c80e163b920d72b52d584","59.36.162.115","Mozilla/5.0 (Windows NT 10.0; Win64; x64) AppleWebKit/537.36 (KHTML, like Gecko) Chrome/99.0.4844.51 Safari/537.36","WebKit","Chrome","99.0.4844.51","Windows","10.0","25353","","{""tenderness-positive1"":4,""tenderness-negative1"":3,""tenderness-negative2"":2,""tenderness-positive2"":3,""tenderness-positive3"":4,""tenderness-negative3"":1,""tenderness-positive4"":4,""tendereness-negative4"":3,""tendernness-negative5"":3,""tenderness-positive5"":4}","[0,1,2,3,4,5,6,7,8,9]"
"","","","","","survey-multi-choice","148","759029","0.0-21.0","49","1","2022-10-20 08:19:44","d60b49b5908c80e163b920d72b52d584","59.36.162.115","Mozilla/5.0 (Windows NT 10.0; Win64; x64) AppleWebKit/537.36 (KHTML, like Gecko) Chrome/99.0.4844.51 Safari/537.36","WebKit","Chrome","99.0.4844.51","Windows","10.0","58473","","{""Attention2"":""其他""}","[0]"
"","","","","","html-button-response","149","760332","0.0-22.0","49","1","2022-10-20 08:19:44","d60b49b5908c80e163b920d72b52d584","59.36.162.115","Mozilla/5.0 (Windows NT 10.0; Win64; x64) AppleWebKit/537.36 (KHTML, like Gecko) Chrome/99.0.4844.51 Safari/537.36","WebKit","Chrome","99.0.4844.51","Windows","10.0","1279","<p><strong>请判断你在多大程度上同意下列陈述。</strong></p>","0",""
"","","","","","survey-likert","150","840777","0.0-23.0","49","1","2022-10-20 08:19:44","d60b49b5908c80e163b920d72b52d584","59.36.162.115","Mozilla/5.0 (Windows NT 10.0; Win64; x64) AppleWebKit/537.36 (KHTML, like Gecko) Chrome/99.0.4844.51 Safari/537.36","WebKit","Chrome","99.0.4844.51","Windows","10.0","80421","","{""Patri4"":4,""Patri10"":2,""Nation8"":0,""Nation4"":2,""Patri7"":4,""Nation5"":2,""Nation6"":3,""Patri8"":4,""Patri1"":4,""Patri2"":4,""Nation2"":4,""Patri3"":3,""Nation3"":3,""Patri9"":2,""Nation7"":4,""Nation1"":3,""Patri12"":3,""Patri6"":1,""Patri5"":4,""Patri11"":0}","[3,9,19,15,6,16,17,7,0,1,13,2,14,8,18,12,11,5,4,10]"
"","","","","","html-button-response","151","843700","0.0-24.0","49","1","2022-10-20 08:19:44","d60b49b5908c80e163b920d72b52d584","59.36.162.115","Mozilla/5.0 (Windows NT 10.0; Win64; x64) AppleWebKit/537.36 (KHTML, like Gecko) Chrome/99.0.4844.51 Safari/537.36","WebKit","Chrome","99.0.4844.51","Windows","10.0","2899","<p><strong>请判断你在多大程度上同意下列陈述。</strong></p>","0",""
"","","","","","survey-likert","152","923635","0.0-25.0","49","1","2022-10-20 08:19:44","d60b49b5908c80e163b920d72b52d584","59.36.162.115","Mozilla/5.0 (Windows NT 10.0; Win64; x64) AppleWebKit/537.36 (KHTML, like Gecko) Chrome/99.0.4844.51 Safari/537.36","WebKit","Chrome","99.0.4844.51","Windows","10.0","79911","","{""hc3"":6,""vi3"":8,""hc1"":5,""vc3"":8,""Robot"":6,""hi1"":5,""vc1"":7,""vi2"":8,""vi4"":5,""hi2"":5,""hi3"":6,""vc4"":6,""vi1"":7,""hc4"":6,""hi4"":7,""vc2"":8,""hc2"":5}","[11,6,9,15,7,0,13,5,8,1,2,16,4,12,3,14,10]"
"","","","","","survey-text","153","936399","0.0-26.0","49","1","2022-10-20 08:19:44","d60b49b5908c80e163b920d72b52d584","59.36.162.115","Mozilla/5.0 (Windows NT 10.0; Win64; x64) AppleWebKit/537.36 (KHTML, like Gecko) Chrome/99.0.4844.51 Safari/537.36","WebKit","Chrome","99.0.4844.51","Windows","10.0","12723","","{""Comments"":""再接再厉""}",""
"","","","","","html-button-response","154","938117","0.0-27.0","49","1","2022-10-20 08:19:44","d60b49b5908c80e163b920d72b52d584","59.36.162.115","Mozilla/5.0 (Windows NT 10.0; Win64; x64) AppleWebKit/537.36 (KHTML, like Gecko) Chrome/99.0.4844.51 Safari/537.36","WebKit","Chrome","99.0.4844.51","Windows","10.0","1687","<strong><p>恭喜你完成了实验！</p><p>感谢您的参与。</p></strong>","0",""
