"success","timeout","failed_images","failed_audio","failed_video","trial_type","trial_index","time_elapsed","internal_node_id","run_id","condition","recorded_at","source_code_version","ip","user_agent","device","browser","browser_version","platform","platform_version","rt","stimulus","response","question_order"
"true","false","[]","[]","[]","preload","0","2320","0.0-0.0","59","1","2022-10-20 08:40:01","d60b49b5908c80e163b920d72b52d584","120.232.252.92","Mozilla/5.0 (Windows NT 10.0; Win64; x64) AppleWebKit/537.36 (KHTML, like Gecko) Chrome/99.0.4844.51 Safari/537.36","WebKit","Chrome","99.0.4844.51","Windows","10.0","","","",""
"true","","","","","fullscreen","1","7610","0.0-1.0","59","1","2022-10-20 08:40:01","d60b49b5908c80e163b920d72b52d584","120.232.252.92","Mozilla/5.0 (Windows NT 10.0; Win64; x64) AppleWebKit/537.36 (KHTML, like Gecko) Chrome/99.0.4844.51 Safari/537.36","WebKit","Chrome","99.0.4844.51","Windows","10.0","","","",""
"","","","","","html-button-response","2","10097","0.0-2.0","59","1","2022-10-20 08:40:01","d60b49b5908c80e163b920d72b52d584","120.232.252.92","Mozilla/5.0 (Windows NT 10.0; Win64; x64) AppleWebKit/537.36 (KHTML, like Gecko) Chrome/99.0.4844.51 Safari/537.36","WebKit","Chrome","99.0.4844.51","Windows","10.0","2484","<p style=""font-size:20px;font-weight:bold;"">实验知情同意书</p><p style=""text-align:left;""><strong>实验名称：</strong>社会冲突研究</p><p style=""text-align:left;""><strong>主要研究者：</strong>韩晓春副教授（北京师范大学心理学部）</p><p style=""text-align:left;""><strong>联系方式：</strong>发送邮件至xiaochun.han@bnu.edu.cn</p><p style=""text-align:left;""><strong>研究目的：</strong>研究旨在了解人类面对群体冲突时的决策方式，以及相关的心理学特质。实验调查大约需要20分钟。</p><p style=""text-align:left;""><strong>实验流程：</strong>实验包含两部分。第一部分呈现一系列群体冲突场景，请你决定如何对这些冲突进行反应，大约需要10分钟完成。第二部分包含一系列人口统计学信息收集和心理学问卷，大约需要10分钟完成。</p><p style=""text-align:left;""><strong>参加及退出规则：</strong>参加本实验完全取决于您的个人意愿。在参与过程中，您可以随时退出，并且不用承担任何后果。</p><p style=""text-align:left;""><strong>隐私：</strong>本实验完全匿名进行，不会收集您的姓名或其他能够识别您身份的信息。实验中收集的作答仅用作科学研究使用，可能会在学术期刊/书籍上发表，或者用于教学，您的数据未来可能会和其他研究者或实验室分享，但您的个人身份不会被识别。</p><p style=""text-align:left;""><strong>实验报酬：</strong>实验完成后，您将获得15元人民币报酬，以感谢您的时间和努力。调查问卷中包含几道题目用以测验您作答时的认真度。只有完成全部实验，并且正确回答认真度测验的被试才能获得实验报酬。实验报酬将通过支付宝转账发放。</p><p style=""text-align:left;font-size:20px;""><strong>如果您同意以上实验知情同意书的内容，请点击'同意并且开始实验'按钮；否则请关闭浏览器界面，退出实验。</strong></p>","0",""
"","","","","","html-button-response","3","11440","0.0-3.0","59","1","2022-10-20 08:40:01","d60b49b5908c80e163b920d72b52d584","120.232.252.92","Mozilla/5.0 (Windows NT 10.0; Win64; x64) AppleWebKit/537.36 (KHTML, like Gecko) Chrome/99.0.4844.51 Safari/537.36","WebKit","Chrome","99.0.4844.51","Windows","10.0","1339","<p ><strong>实验任务一：</strong></p><p>请想象你的国家与另一个国家发生了军事冲突。</p><p>你是国家军队的指挥官，你将如何在冲突中进行决策。</p><p>具体来说，作为军队指挥官，请你决定是否发射导弹进行打击。</p><p>接下来，你会面对一系列场景，请仔细阅读每个场景，然后进行决策。</p><p>这部分实验任务大约需要10分钟。</p><p><strong>实验过程中，请集中注意力。</strong></p>","0",""
"","","","","","html-keyboard-response","4","12442","0.0-4.0-0.0","59","1","2022-10-20 08:40:01","d60b49b5908c80e163b920d72b52d584","120.232.252.92","Mozilla/5.0 (Windows NT 10.0; Win64; x64) AppleWebKit/537.36 (KHTML, like Gecko) Chrome/99.0.4844.51 Safari/537.36","WebKit","Chrome","99.0.4844.51","Windows","10.0","null","<div style=""font-size:60px;"">+</div>","null",""
"","","","","","html-button-response","5","15105","0.0-4.0-1.0","59","1","2022-10-20 08:40:01","d60b49b5908c80e163b920d72b52d584","120.232.252.92","Mozilla/5.0 (Windows NT 10.0; Win64; x64) AppleWebKit/537.36 (KHTML, like Gecko) Chrome/99.0.4844.51 Safari/537.36","WebKit","Chrome","99.0.4844.51","Windows","10.0","2660","<p>作为军队的指挥官，你可以选择发射导弹杀死 <strong>8名</strong> 敌国士兵，但会误杀附近的 <strong>1名</strong> 敌国平民。</p> <p>平民照片如下图所示。</p> <p></p> <img src='stimuli/faces/NCF4.jpg', style='max-width: 30%;'> </img> <p><strong>你是否选择发射武器？</strong></p>","0",""
"","","","","","html-keyboard-response","6","16109","0.0-4.0-0.1","59","1","2022-10-20 08:40:01","d60b49b5908c80e163b920d72b52d584","120.232.252.92","Mozilla/5.0 (Windows NT 10.0; Win64; x64) AppleWebKit/537.36 (KHTML, like Gecko) Chrome/99.0.4844.51 Safari/537.36","WebKit","Chrome","99.0.4844.51","Windows","10.0","null","<div style=""font-size:60px;"">+</div>","null",""
"","","","","","html-button-response","7","17625","0.0-4.0-1.1","59","1","2022-10-20 08:40:01","d60b49b5908c80e163b920d72b52d584","120.232.252.92","Mozilla/5.0 (Windows NT 10.0; Win64; x64) AppleWebKit/537.36 (KHTML, like Gecko) Chrome/99.0.4844.51 Safari/537.36","WebKit","Chrome","99.0.4844.51","Windows","10.0","1512","<p>作为军队的指挥官，你可以选择发射导弹杀死 <strong>1名</strong> 敌国士兵，但会炸毁附近的 <strong>1棵</strong> 敌国树木。</p> <p>树木的照片如下图所示。</p> <p></p> <img src='stimuli/trees/7.png', style='max-width: 30%;'> </img> <p><strong>你是否选择发射武器？</strong></p>","0",""
"","","","","","html-keyboard-response","8","18629","0.0-4.0-0.2","59","1","2022-10-20 08:40:01","d60b49b5908c80e163b920d72b52d584","120.232.252.92","Mozilla/5.0 (Windows NT 10.0; Win64; x64) AppleWebKit/537.36 (KHTML, like Gecko) Chrome/99.0.4844.51 Safari/537.36","WebKit","Chrome","99.0.4844.51","Windows","10.0","null","<div style=""font-size:60px;"">+</div>","null",""
"","","","","","html-button-response","9","19928","0.0-4.0-1.2","59","1","2022-10-20 08:40:01","d60b49b5908c80e163b920d72b52d584","120.232.252.92","Mozilla/5.0 (Windows NT 10.0; Win64; x64) AppleWebKit/537.36 (KHTML, like Gecko) Chrome/99.0.4844.51 Safari/537.36","WebKit","Chrome","99.0.4844.51","Windows","10.0","1295","<p>作为军队的指挥官，你可以选择发射导弹杀死 <strong>10名</strong> 敌国士兵，但会误杀附近的 <strong>1名</strong> 敌国平民。</p> <p>平民照片如下图所示。</p> <p></p> <img src='stimuli/faces/NCM2.jpg', style='max-width: 30%;'> </img> <p><strong>你是否选择发射武器？</strong></p>","0",""
"","","","","","html-keyboard-response","10","20932","0.0-4.0-0.3","59","1","2022-10-20 08:40:01","d60b49b5908c80e163b920d72b52d584","120.232.252.92","Mozilla/5.0 (Windows NT 10.0; Win64; x64) AppleWebKit/537.36 (KHTML, like Gecko) Chrome/99.0.4844.51 Safari/537.36","WebKit","Chrome","99.0.4844.51","Windows","10.0","null","<div style=""font-size:60px;"">+</div>","null",""
"","","","","","html-button-response","11","22097","0.0-4.0-1.3","59","1","2022-10-20 08:40:01","d60b49b5908c80e163b920d72b52d584","120.232.252.92","Mozilla/5.0 (Windows NT 10.0; Win64; x64) AppleWebKit/537.36 (KHTML, like Gecko) Chrome/99.0.4844.51 Safari/537.36","WebKit","Chrome","99.0.4844.51","Windows","10.0","1160","<p>作为军队的指挥官，你可以选择发射导弹杀死 <strong>9名</strong> 敌国士兵，但会炸毁附近的 <strong>1棵</strong> 敌国树木。</p> <p>树木的照片如下图所示。</p> <p></p> <img src='stimuli/trees/12.png', style='max-width: 30%;'> </img> <p><strong>你是否选择发射武器？</strong></p>","0",""
"","","","","","html-keyboard-response","12","23101","0.0-4.0-0.4","59","1","2022-10-20 08:40:01","d60b49b5908c80e163b920d72b52d584","120.232.252.92","Mozilla/5.0 (Windows NT 10.0; Win64; x64) AppleWebKit/537.36 (KHTML, like Gecko) Chrome/99.0.4844.51 Safari/537.36","WebKit","Chrome","99.0.4844.51","Windows","10.0","null","<div style=""font-size:60px;"">+</div>","null",""
"","","","","","html-button-response","13","24753","0.0-4.0-1.4","59","1","2022-10-20 08:40:01","d60b49b5908c80e163b920d72b52d584","120.232.252.92","Mozilla/5.0 (Windows NT 10.0; Win64; x64) AppleWebKit/537.36 (KHTML, like Gecko) Chrome/99.0.4844.51 Safari/537.36","WebKit","Chrome","99.0.4844.51","Windows","10.0","1643","<p>作为军队的指挥官，你可以选择发射导弹杀死 <strong>9名</strong> 敌国士兵，但会误杀附近的 <strong>1名</strong> 敌国平民。</p> <p>平民照片如下图所示。</p> <p></p> <img src='stimuli/faces/NCM4.jpg', style='max-width: 30%;'> </img> <p><strong>你是否选择发射武器？</strong></p>","0",""
"","","","","","html-keyboard-response","14","25757","0.0-4.0-0.5","59","1","2022-10-20 08:40:01","d60b49b5908c80e163b920d72b52d584","120.232.252.92","Mozilla/5.0 (Windows NT 10.0; Win64; x64) AppleWebKit/537.36 (KHTML, like Gecko) Chrome/99.0.4844.51 Safari/537.36","WebKit","Chrome","99.0.4844.51","Windows","10.0","null","<div style=""font-size:60px;"">+</div>","null",""
"","","","","","html-button-response","15","27904","0.0-4.0-1.5","59","1","2022-10-20 08:40:01","d60b49b5908c80e163b920d72b52d584","120.232.252.92","Mozilla/5.0 (Windows NT 10.0; Win64; x64) AppleWebKit/537.36 (KHTML, like Gecko) Chrome/99.0.4844.51 Safari/537.36","WebKit","Chrome","99.0.4844.51","Windows","10.0","2142","<p>作为军队的指挥官，你可以选择发射导弹杀死 <strong>5名</strong> 敌国士兵，但会误杀附近的 <strong>1名</strong> 敌国平民。</p> <p>平民照片如下图所示。</p> <p></p> <img src='stimuli/faces/NCM2.jpg', style='max-width: 30%;'> </img> <p><strong>你是否选择发射武器？</strong></p>","0",""
"","","","","","html-keyboard-response","16","28908","0.0-4.0-0.6","59","1","2022-10-20 08:40:01","d60b49b5908c80e163b920d72b52d584","120.232.252.92","Mozilla/5.0 (Windows NT 10.0; Win64; x64) AppleWebKit/537.36 (KHTML, like Gecko) Chrome/99.0.4844.51 Safari/537.36","WebKit","Chrome","99.0.4844.51","Windows","10.0","null","<div style=""font-size:60px;"">+</div>","null",""
"","","","","","html-button-response","17","29952","0.0-4.0-1.6","59","1","2022-10-20 08:40:01","d60b49b5908c80e163b920d72b52d584","120.232.252.92","Mozilla/5.0 (Windows NT 10.0; Win64; x64) AppleWebKit/537.36 (KHTML, like Gecko) Chrome/99.0.4844.51 Safari/537.36","WebKit","Chrome","99.0.4844.51","Windows","10.0","1040","<p>作为军队的指挥官，你可以选择发射导弹杀死 <strong>9名</strong> 敌国士兵，但会炸毁附近的 <strong>1棵</strong> 敌国树木。</p> <p>树木的照片如下图所示。</p> <p></p> <img src='stimuli/trees/7.png', style='max-width: 30%;'> </img> <p><strong>你是否选择发射武器？</strong></p>","0",""
"","","","","","html-keyboard-response","18","30957","0.0-4.0-0.7","59","1","2022-10-20 08:40:01","d60b49b5908c80e163b920d72b52d584","120.232.252.92","Mozilla/5.0 (Windows NT 10.0; Win64; x64) AppleWebKit/537.36 (KHTML, like Gecko) Chrome/99.0.4844.51 Safari/537.36","WebKit","Chrome","99.0.4844.51","Windows","10.0","null","<div style=""font-size:60px;"">+</div>","null",""
"","","","","","html-button-response","19","32304","0.0-4.0-1.7","59","1","2022-10-20 08:40:01","d60b49b5908c80e163b920d72b52d584","120.232.252.92","Mozilla/5.0 (Windows NT 10.0; Win64; x64) AppleWebKit/537.36 (KHTML, like Gecko) Chrome/99.0.4844.51 Safari/537.36","WebKit","Chrome","99.0.4844.51","Windows","10.0","1342","<p>作为军队的指挥官，你可以选择发射导弹杀死 <strong>7名</strong> 敌国士兵，但会炸毁附近的 <strong>1棵</strong> 敌国树木。</p> <p>树木的照片如下图所示。</p> <p></p> <img src='stimuli/trees/13.png', style='max-width: 30%;'> </img> <p><strong>你是否选择发射武器？</strong></p>","0",""
"","","","","","html-keyboard-response","20","33309","0.0-4.0-0.8","59","1","2022-10-20 08:40:01","d60b49b5908c80e163b920d72b52d584","120.232.252.92","Mozilla/5.0 (Windows NT 10.0; Win64; x64) AppleWebKit/537.36 (KHTML, like Gecko) Chrome/99.0.4844.51 Safari/537.36","WebKit","Chrome","99.0.4844.51","Windows","10.0","null","<div style=""font-size:60px;"">+</div>","null",""
"","","","","","html-button-response","21","34281","0.0-4.0-1.8","59","1","2022-10-20 08:40:01","d60b49b5908c80e163b920d72b52d584","120.232.252.92","Mozilla/5.0 (Windows NT 10.0; Win64; x64) AppleWebKit/537.36 (KHTML, like Gecko) Chrome/99.0.4844.51 Safari/537.36","WebKit","Chrome","99.0.4844.51","Windows","10.0","969","<p>作为军队的指挥官，你可以选择发射导弹杀死 <strong>5名</strong> 敌国士兵，但会炸毁附近的 <strong>1棵</strong> 敌国树木。</p> <p>树木的照片如下图所示。</p> <p></p> <img src='stimuli/trees/3.png', style='max-width: 30%;'> </img> <p><strong>你是否选择发射武器？</strong></p>","0",""
"","","","","","html-keyboard-response","22","35286","0.0-4.0-0.9","59","1","2022-10-20 08:40:01","d60b49b5908c80e163b920d72b52d584","120.232.252.92","Mozilla/5.0 (Windows NT 10.0; Win64; x64) AppleWebKit/537.36 (KHTML, like Gecko) Chrome/99.0.4844.51 Safari/537.36","WebKit","Chrome","99.0.4844.51","Windows","10.0","null","<div style=""font-size:60px;"">+</div>","null",""
"","","","","","html-button-response","23","36968","0.0-4.0-1.9","59","1","2022-10-20 08:40:01","d60b49b5908c80e163b920d72b52d584","120.232.252.92","Mozilla/5.0 (Windows NT 10.0; Win64; x64) AppleWebKit/537.36 (KHTML, like Gecko) Chrome/99.0.4844.51 Safari/537.36","WebKit","Chrome","99.0.4844.51","Windows","10.0","1677","<p>作为军队的指挥官，你可以选择发射导弹杀死 <strong>3名</strong> 敌国士兵，但会误杀附近的 <strong>1名</strong> 敌国平民。</p> <p>平民照片如下图所示。</p> <p></p> <img src='stimuli/faces/NCM8.jpg', style='max-width: 30%;'> </img> <p><strong>你是否选择发射武器？</strong></p>","1",""
"","","","","","html-keyboard-response","24","37972","0.0-4.0-0.10","59","1","2022-10-20 08:40:01","d60b49b5908c80e163b920d72b52d584","120.232.252.92","Mozilla/5.0 (Windows NT 10.0; Win64; x64) AppleWebKit/537.36 (KHTML, like Gecko) Chrome/99.0.4844.51 Safari/537.36","WebKit","Chrome","99.0.4844.51","Windows","10.0","null","<div style=""font-size:60px;"">+</div>","null",""
"","","","","","html-button-response","25","39625","0.0-4.0-1.10","59","1","2022-10-20 08:40:01","d60b49b5908c80e163b920d72b52d584","120.232.252.92","Mozilla/5.0 (Windows NT 10.0; Win64; x64) AppleWebKit/537.36 (KHTML, like Gecko) Chrome/99.0.4844.51 Safari/537.36","WebKit","Chrome","99.0.4844.51","Windows","10.0","1647","<p>作为军队的指挥官，你可以选择发射导弹杀死 <strong>7名</strong> 敌国士兵，但会误杀附近的 <strong>1名</strong> 敌国平民。</p> <p>平民照片如下图所示。</p> <p></p> <img src='stimuli/faces/NCM8.jpg', style='max-width: 30%;'> </img> <p><strong>你是否选择发射武器？</strong></p>","0",""
"","","","","","html-keyboard-response","26","40630","0.0-4.0-0.11","59","1","2022-10-20 08:40:01","d60b49b5908c80e163b920d72b52d584","120.232.252.92","Mozilla/5.0 (Windows NT 10.0; Win64; x64) AppleWebKit/537.36 (KHTML, like Gecko) Chrome/99.0.4844.51 Safari/537.36","WebKit","Chrome","99.0.4844.51","Windows","10.0","null","<div style=""font-size:60px;"">+</div>","null",""
"","","","","","html-button-response","27","42904","0.0-4.0-1.11","59","1","2022-10-20 08:40:01","d60b49b5908c80e163b920d72b52d584","120.232.252.92","Mozilla/5.0 (Windows NT 10.0; Win64; x64) AppleWebKit/537.36 (KHTML, like Gecko) Chrome/99.0.4844.51 Safari/537.36","WebKit","Chrome","99.0.4844.51","Windows","10.0","2268","<p>作为军队的指挥官，你可以选择发射导弹杀死 <strong>9名</strong> 敌国士兵，但会误杀附近的 <strong>1名</strong> 敌国平民。</p> <p>平民照片如下图所示。</p> <p></p> <img src='stimuli/faces/NCF2.jpg', style='max-width: 30%;'> </img> <p><strong>你是否选择发射武器？</strong></p>","0",""
"","","","","","html-keyboard-response","28","43909","0.0-4.0-0.12","59","1","2022-10-20 08:40:01","d60b49b5908c80e163b920d72b52d584","120.232.252.92","Mozilla/5.0 (Windows NT 10.0; Win64; x64) AppleWebKit/537.36 (KHTML, like Gecko) Chrome/99.0.4844.51 Safari/537.36","WebKit","Chrome","99.0.4844.51","Windows","10.0","null","<div style=""font-size:60px;"">+</div>","null",""
"","","","","","html-button-response","29","44936","0.0-4.0-1.12","59","1","2022-10-20 08:40:01","d60b49b5908c80e163b920d72b52d584","120.232.252.92","Mozilla/5.0 (Windows NT 10.0; Win64; x64) AppleWebKit/537.36 (KHTML, like Gecko) Chrome/99.0.4844.51 Safari/537.36","WebKit","Chrome","99.0.4844.51","Windows","10.0","1021","<p>作为军队的指挥官，你可以选择发射导弹杀死 <strong>9名</strong> 敌国士兵，但会炸毁附近的 <strong>1棵</strong> 敌国树木。</p> <p>树木的照片如下图所示。</p> <p></p> <img src='stimuli/trees/5.png', style='max-width: 30%;'> </img> <p><strong>你是否选择发射武器？</strong></p>","0",""
"","","","","","html-keyboard-response","30","45941","0.0-4.0-0.13","59","1","2022-10-20 08:40:01","d60b49b5908c80e163b920d72b52d584","120.232.252.92","Mozilla/5.0 (Windows NT 10.0; Win64; x64) AppleWebKit/537.36 (KHTML, like Gecko) Chrome/99.0.4844.51 Safari/537.36","WebKit","Chrome","99.0.4844.51","Windows","10.0","null","<div style=""font-size:60px;"">+</div>","null",""
"","","","","","html-button-response","31","50529","0.0-4.0-1.13","59","1","2022-10-20 08:40:01","d60b49b5908c80e163b920d72b52d584","120.232.252.92","Mozilla/5.0 (Windows NT 10.0; Win64; x64) AppleWebKit/537.36 (KHTML, like Gecko) Chrome/99.0.4844.51 Safari/537.36","WebKit","Chrome","99.0.4844.51","Windows","10.0","4582","<p>作为军队的指挥官，你可以选择发射导弹杀死 <strong>3名</strong> 敌国士兵，但会误杀附近的 <strong>1名</strong> 敌国平民。</p> <p>平民照片如下图所示。</p> <p></p> <img src='stimuli/faces/NCM3.jpg', style='max-width: 30%;'> </img> <p><strong>你是否选择发射武器？</strong></p>","1",""
"","","","","","html-keyboard-response","32","51537","0.0-4.0-0.14","59","1","2022-10-20 08:40:01","d60b49b5908c80e163b920d72b52d584","120.232.252.92","Mozilla/5.0 (Windows NT 10.0; Win64; x64) AppleWebKit/537.36 (KHTML, like Gecko) Chrome/99.0.4844.51 Safari/537.36","WebKit","Chrome","99.0.4844.51","Windows","10.0","null","<div style=""font-size:60px;"">+</div>","null",""
"","","","","","html-button-response","33","72711","0.0-4.0-1.14","59","1","2022-10-20 08:40:01","d60b49b5908c80e163b920d72b52d584","120.232.252.92","Mozilla/5.0 (Windows NT 10.0; Win64; x64) AppleWebKit/537.36 (KHTML, like Gecko) Chrome/99.0.4844.51 Safari/537.36","WebKit","Chrome","99.0.4844.51","Windows","10.0","21166","<p>作为军队的指挥官，你可以选择发射导弹杀死 <strong>9名</strong> 敌国士兵，但会误杀附近的 <strong>1名</strong> 敌国平民。</p> <p>平民照片如下图所示。</p> <p></p> <img src='stimuli/faces/NCF7.jpg', style='max-width: 30%;'> </img> <p><strong>你是否选择发射武器？</strong></p>","0",""
"","","","","","html-keyboard-response","34","73718","0.0-4.0-0.15","59","1","2022-10-20 08:40:01","d60b49b5908c80e163b920d72b52d584","120.232.252.92","Mozilla/5.0 (Windows NT 10.0; Win64; x64) AppleWebKit/537.36 (KHTML, like Gecko) Chrome/99.0.4844.51 Safari/537.36","WebKit","Chrome","99.0.4844.51","Windows","10.0","null","<div style=""font-size:60px;"">+</div>","null",""
"","","","","","html-button-response","35","75687","0.0-4.0-1.15","59","1","2022-10-20 08:40:01","d60b49b5908c80e163b920d72b52d584","120.232.252.92","Mozilla/5.0 (Windows NT 10.0; Win64; x64) AppleWebKit/537.36 (KHTML, like Gecko) Chrome/99.0.4844.51 Safari/537.36","WebKit","Chrome","99.0.4844.51","Windows","10.0","1962","<p>作为军队的指挥官，你可以选择发射导弹杀死 <strong>8名</strong> 敌国士兵，但会炸毁附近的 <strong>1棵</strong> 敌国树木。</p> <p>树木的照片如下图所示。</p> <p></p> <img src='stimuli/trees/10.png', style='max-width: 30%;'> </img> <p><strong>你是否选择发射武器？</strong></p>","0",""
"","","","","","html-keyboard-response","36","76693","0.0-4.0-0.16","59","1","2022-10-20 08:40:01","d60b49b5908c80e163b920d72b52d584","120.232.252.92","Mozilla/5.0 (Windows NT 10.0; Win64; x64) AppleWebKit/537.36 (KHTML, like Gecko) Chrome/99.0.4844.51 Safari/537.36","WebKit","Chrome","99.0.4844.51","Windows","10.0","null","<div style=""font-size:60px;"">+</div>","null",""
"","","","","","html-button-response","37","78312","0.0-4.0-1.16","59","1","2022-10-20 08:40:01","d60b49b5908c80e163b920d72b52d584","120.232.252.92","Mozilla/5.0 (Windows NT 10.0; Win64; x64) AppleWebKit/537.36 (KHTML, like Gecko) Chrome/99.0.4844.51 Safari/537.36","WebKit","Chrome","99.0.4844.51","Windows","10.0","1612","<p>作为军队的指挥官，你可以选择发射导弹杀死 <strong>5名</strong> 敌国士兵，但会误杀附近的 <strong>1名</strong> 敌国平民。</p> <p>平民照片如下图所示。</p> <p></p> <img src='stimuli/faces/NCF7.jpg', style='max-width: 30%;'> </img> <p><strong>你是否选择发射武器？</strong></p>","0",""
"","","","","","html-keyboard-response","38","79317","0.0-4.0-0.17","59","1","2022-10-20 08:40:01","d60b49b5908c80e163b920d72b52d584","120.232.252.92","Mozilla/5.0 (Windows NT 10.0; Win64; x64) AppleWebKit/537.36 (KHTML, like Gecko) Chrome/99.0.4844.51 Safari/537.36","WebKit","Chrome","99.0.4844.51","Windows","10.0","null","<div style=""font-size:60px;"">+</div>","null",""
"","","","","","html-button-response","39","81647","0.0-4.0-1.17","59","1","2022-10-20 08:40:01","d60b49b5908c80e163b920d72b52d584","120.232.252.92","Mozilla/5.0 (Windows NT 10.0; Win64; x64) AppleWebKit/537.36 (KHTML, like Gecko) Chrome/99.0.4844.51 Safari/537.36","WebKit","Chrome","99.0.4844.51","Windows","10.0","2325","<p>作为军队的指挥官，你可以选择发射导弹杀死 <strong>10名</strong> 敌国士兵，但会误杀附近的 <strong>1名</strong> 敌国平民。</p> <p>平民照片如下图所示。</p> <p></p> <img src='stimuli/faces/NCF1.jpg', style='max-width: 30%;'> </img> <p><strong>你是否选择发射武器？</strong></p>","0",""
"","","","","","html-keyboard-response","40","82653","0.0-4.0-0.18","59","1","2022-10-20 08:40:01","d60b49b5908c80e163b920d72b52d584","120.232.252.92","Mozilla/5.0 (Windows NT 10.0; Win64; x64) AppleWebKit/537.36 (KHTML, like Gecko) Chrome/99.0.4844.51 Safari/537.36","WebKit","Chrome","99.0.4844.51","Windows","10.0","null","<div style=""font-size:60px;"">+</div>","null",""
"","","","","","html-button-response","41","83840","0.0-4.0-1.18","59","1","2022-10-20 08:40:01","d60b49b5908c80e163b920d72b52d584","120.232.252.92","Mozilla/5.0 (Windows NT 10.0; Win64; x64) AppleWebKit/537.36 (KHTML, like Gecko) Chrome/99.0.4844.51 Safari/537.36","WebKit","Chrome","99.0.4844.51","Windows","10.0","1179","<p>作为军队的指挥官，你可以选择发射导弹杀死 <strong>8名</strong> 敌国士兵，但会炸毁附近的 <strong>1棵</strong> 敌国树木。</p> <p>树木的照片如下图所示。</p> <p></p> <img src='stimuli/trees/2.png', style='max-width: 30%;'> </img> <p><strong>你是否选择发射武器？</strong></p>","0",""
"","","","","","html-keyboard-response","42","84845","0.0-4.0-0.19","59","1","2022-10-20 08:40:01","d60b49b5908c80e163b920d72b52d584","120.232.252.92","Mozilla/5.0 (Windows NT 10.0; Win64; x64) AppleWebKit/537.36 (KHTML, like Gecko) Chrome/99.0.4844.51 Safari/537.36","WebKit","Chrome","99.0.4844.51","Windows","10.0","null","<div style=""font-size:60px;"">+</div>","null",""
"","","","","","html-button-response","43","87343","0.0-4.0-1.19","59","1","2022-10-20 08:40:01","d60b49b5908c80e163b920d72b52d584","120.232.252.92","Mozilla/5.0 (Windows NT 10.0; Win64; x64) AppleWebKit/537.36 (KHTML, like Gecko) Chrome/99.0.4844.51 Safari/537.36","WebKit","Chrome","99.0.4844.51","Windows","10.0","2489","<p>作为军队的指挥官，你可以选择发射导弹杀死 <strong>5名</strong> 敌国士兵，但会误杀附近的 <strong>1名</strong> 敌国平民。</p> <p>平民照片如下图所示。</p> <p></p> <img src='stimuli/faces/NCF8.jpg', style='max-width: 30%;'> </img> <p><strong>你是否选择发射武器？</strong></p>","0",""
"","","","","","html-keyboard-response","44","88350","0.0-4.0-0.20","59","1","2022-10-20 08:40:01","d60b49b5908c80e163b920d72b52d584","120.232.252.92","Mozilla/5.0 (Windows NT 10.0; Win64; x64) AppleWebKit/537.36 (KHTML, like Gecko) Chrome/99.0.4844.51 Safari/537.36","WebKit","Chrome","99.0.4844.51","Windows","10.0","null","<div style=""font-size:60px;"">+</div>","null",""
"","","","","","html-button-response","45","97784","0.0-4.0-1.20","59","1","2022-10-20 08:40:01","d60b49b5908c80e163b920d72b52d584","120.232.252.92","Mozilla/5.0 (Windows NT 10.0; Win64; x64) AppleWebKit/537.36 (KHTML, like Gecko) Chrome/99.0.4844.51 Safari/537.36","WebKit","Chrome","99.0.4844.51","Windows","10.0","9427","<p>作为军队的指挥官，你可以选择发射导弹杀死 <strong>1名</strong> 敌国士兵，但会炸毁附近的 <strong>1棵</strong> 敌国树木。</p> <p>树木的照片如下图所示。</p> <p></p> <img src='stimuli/trees/14.png', style='max-width: 30%;'> </img> <p><strong>你是否选择发射武器？</strong></p>","0",""
"","","","","","html-keyboard-response","46","98790","0.0-4.0-0.21","59","1","2022-10-20 08:40:01","d60b49b5908c80e163b920d72b52d584","120.232.252.92","Mozilla/5.0 (Windows NT 10.0; Win64; x64) AppleWebKit/537.36 (KHTML, like Gecko) Chrome/99.0.4844.51 Safari/537.36","WebKit","Chrome","99.0.4844.51","Windows","10.0","null","<div style=""font-size:60px;"">+</div>","null",""
"","","","","","html-button-response","47","99672","0.0-4.0-1.21","59","1","2022-10-20 08:40:01","d60b49b5908c80e163b920d72b52d584","120.232.252.92","Mozilla/5.0 (Windows NT 10.0; Win64; x64) AppleWebKit/537.36 (KHTML, like Gecko) Chrome/99.0.4844.51 Safari/537.36","WebKit","Chrome","99.0.4844.51","Windows","10.0","872","<p>作为军队的指挥官，你可以选择发射导弹杀死 <strong>1名</strong> 敌国士兵，但会炸毁附近的 <strong>1棵</strong> 敌国树木。</p> <p>树木的照片如下图所示。</p> <p></p> <img src='stimuli/trees/5.png', style='max-width: 30%;'> </img> <p><strong>你是否选择发射武器？</strong></p>","0",""
"","","","","","html-keyboard-response","48","100678","0.0-4.0-0.22","59","1","2022-10-20 08:40:01","d60b49b5908c80e163b920d72b52d584","120.232.252.92","Mozilla/5.0 (Windows NT 10.0; Win64; x64) AppleWebKit/537.36 (KHTML, like Gecko) Chrome/99.0.4844.51 Safari/537.36","WebKit","Chrome","99.0.4844.51","Windows","10.0","null","<div style=""font-size:60px;"">+</div>","null",""
"","","","","","html-button-response","49","102655","0.0-4.0-1.22","59","1","2022-10-20 08:40:01","d60b49b5908c80e163b920d72b52d584","120.232.252.92","Mozilla/5.0 (Windows NT 10.0; Win64; x64) AppleWebKit/537.36 (KHTML, like Gecko) Chrome/99.0.4844.51 Safari/537.36","WebKit","Chrome","99.0.4844.51","Windows","10.0","1968","<p>作为军队的指挥官，你可以选择发射导弹杀死 <strong>7名</strong> 敌国士兵，但会误杀附近的 <strong>1名</strong> 敌国平民。</p> <p>平民照片如下图所示。</p> <p></p> <img src='stimuli/faces/NCM1.jpg', style='max-width: 30%;'> </img> <p><strong>你是否选择发射武器？</strong></p>","0",""
"","","","","","html-keyboard-response","50","103662","0.0-4.0-0.23","59","1","2022-10-20 08:40:01","d60b49b5908c80e163b920d72b52d584","120.232.252.92","Mozilla/5.0 (Windows NT 10.0; Win64; x64) AppleWebKit/537.36 (KHTML, like Gecko) Chrome/99.0.4844.51 Safari/537.36","WebKit","Chrome","99.0.4844.51","Windows","10.0","null","<div style=""font-size:60px;"">+</div>","null",""
"","","","","","html-button-response","51","105271","0.0-4.0-1.23","59","1","2022-10-20 08:40:01","d60b49b5908c80e163b920d72b52d584","120.232.252.92","Mozilla/5.0 (Windows NT 10.0; Win64; x64) AppleWebKit/537.36 (KHTML, like Gecko) Chrome/99.0.4844.51 Safari/537.36","WebKit","Chrome","99.0.4844.51","Windows","10.0","1601","<p>作为军队的指挥官，你可以选择发射导弹杀死 <strong>6名</strong> 敌国士兵，但会误杀附近的 <strong>1名</strong> 敌国平民。</p> <p>平民照片如下图所示。</p> <p></p> <img src='stimuli/faces/NCM3.jpg', style='max-width: 30%;'> </img> <p><strong>你是否选择发射武器？</strong></p>","0",""
"","","","","","html-keyboard-response","52","106278","0.0-4.0-0.24","59","1","2022-10-20 08:40:01","d60b49b5908c80e163b920d72b52d584","120.232.252.92","Mozilla/5.0 (Windows NT 10.0; Win64; x64) AppleWebKit/537.36 (KHTML, like Gecko) Chrome/99.0.4844.51 Safari/537.36","WebKit","Chrome","99.0.4844.51","Windows","10.0","null","<div style=""font-size:60px;"">+</div>","null",""
"","","","","","html-button-response","53","110351","0.0-4.0-1.24","59","1","2022-10-20 08:40:01","d60b49b5908c80e163b920d72b52d584","120.232.252.92","Mozilla/5.0 (Windows NT 10.0; Win64; x64) AppleWebKit/537.36 (KHTML, like Gecko) Chrome/99.0.4844.51 Safari/537.36","WebKit","Chrome","99.0.4844.51","Windows","10.0","4065","<p>作为军队的指挥官，你可以选择发射导弹杀死 <strong>3名</strong> 敌国士兵，但会误杀附近的 <strong>1名</strong> 敌国平民。</p> <p>平民照片如下图所示。</p> <p></p> <img src='stimuli/faces/NCF3.jpg', style='max-width: 30%;'> </img> <p><strong>你是否选择发射武器？</strong></p>","1",""
"","","","","","html-keyboard-response","54","111359","0.0-4.0-0.25","59","1","2022-10-20 08:40:01","d60b49b5908c80e163b920d72b52d584","120.232.252.92","Mozilla/5.0 (Windows NT 10.0; Win64; x64) AppleWebKit/537.36 (KHTML, like Gecko) Chrome/99.0.4844.51 Safari/537.36","WebKit","Chrome","99.0.4844.51","Windows","10.0","null","<div style=""font-size:60px;"">+</div>","null",""
"","","","","","html-button-response","55","113199","0.0-4.0-1.25","59","1","2022-10-20 08:40:01","d60b49b5908c80e163b920d72b52d584","120.232.252.92","Mozilla/5.0 (Windows NT 10.0; Win64; x64) AppleWebKit/537.36 (KHTML, like Gecko) Chrome/99.0.4844.51 Safari/537.36","WebKit","Chrome","99.0.4844.51","Windows","10.0","1833","<p>作为军队的指挥官，你可以选择发射导弹杀死 <strong>5名</strong> 敌国士兵，但会炸毁附近的 <strong>1棵</strong> 敌国树木。</p> <p>树木的照片如下图所示。</p> <p></p> <img src='stimuli/trees/10.png', style='max-width: 30%;'> </img> <p><strong>你是否选择发射武器？</strong></p>","0",""
"","","","","","html-keyboard-response","56","114208","0.0-4.0-0.26","59","1","2022-10-20 08:40:01","d60b49b5908c80e163b920d72b52d584","120.232.252.92","Mozilla/5.0 (Windows NT 10.0; Win64; x64) AppleWebKit/537.36 (KHTML, like Gecko) Chrome/99.0.4844.51 Safari/537.36","WebKit","Chrome","99.0.4844.51","Windows","10.0","null","<div style=""font-size:60px;"">+</div>","null",""
"","","","","","html-button-response","57","115943","0.0-4.0-1.26","59","1","2022-10-20 08:40:01","d60b49b5908c80e163b920d72b52d584","120.232.252.92","Mozilla/5.0 (Windows NT 10.0; Win64; x64) AppleWebKit/537.36 (KHTML, like Gecko) Chrome/99.0.4844.51 Safari/537.36","WebKit","Chrome","99.0.4844.51","Windows","10.0","1728","<p>作为军队的指挥官，你可以选择发射导弹杀死 <strong>3名</strong> 敌国士兵，但会炸毁附近的 <strong>1棵</strong> 敌国树木。</p> <p>树木的照片如下图所示。</p> <p></p> <img src='stimuli/trees/13.png', style='max-width: 30%;'> </img> <p><strong>你是否选择发射武器？</strong></p>","0",""
"","","","","","html-keyboard-response","58","116952","0.0-4.0-0.27","59","1","2022-10-20 08:40:01","d60b49b5908c80e163b920d72b52d584","120.232.252.92","Mozilla/5.0 (Windows NT 10.0; Win64; x64) AppleWebKit/537.36 (KHTML, like Gecko) Chrome/99.0.4844.51 Safari/537.36","WebKit","Chrome","99.0.4844.51","Windows","10.0","null","<div style=""font-size:60px;"">+</div>","null",""
"","","","","","html-button-response","59","121511","0.0-4.0-1.27","59","1","2022-10-20 08:40:01","d60b49b5908c80e163b920d72b52d584","120.232.252.92","Mozilla/5.0 (Windows NT 10.0; Win64; x64) AppleWebKit/537.36 (KHTML, like Gecko) Chrome/99.0.4844.51 Safari/537.36","WebKit","Chrome","99.0.4844.51","Windows","10.0","4551","<p>作为军队的指挥官，你可以选择发射导弹杀死 <strong>4名</strong> 敌国士兵，但会误杀附近的 <strong>1名</strong> 敌国平民。</p> <p>平民照片如下图所示。</p> <p></p> <img src='stimuli/faces/NCF1.jpg', style='max-width: 30%;'> </img> <p><strong>你是否选择发射武器？</strong></p>","1",""
"","","","","","html-keyboard-response","60","122520","0.0-4.0-0.28","59","1","2022-10-20 08:40:01","d60b49b5908c80e163b920d72b52d584","120.232.252.92","Mozilla/5.0 (Windows NT 10.0; Win64; x64) AppleWebKit/537.36 (KHTML, like Gecko) Chrome/99.0.4844.51 Safari/537.36","WebKit","Chrome","99.0.4844.51","Windows","10.0","null","<div style=""font-size:60px;"">+</div>","null",""
"","","","","","html-button-response","61","130768","0.0-4.0-1.28","59","1","2022-10-20 08:40:01","d60b49b5908c80e163b920d72b52d584","120.232.252.92","Mozilla/5.0 (Windows NT 10.0; Win64; x64) AppleWebKit/537.36 (KHTML, like Gecko) Chrome/99.0.4844.51 Safari/537.36","WebKit","Chrome","99.0.4844.51","Windows","10.0","8235","<p>作为军队的指挥官，你可以选择发射导弹杀死 <strong>4名</strong> 敌国士兵，但会炸毁附近的 <strong>1棵</strong> 敌国树木。</p> <p>树木的照片如下图所示。</p> <p></p> <img src='stimuli/trees/12.png', style='max-width: 30%;'> </img> <p><strong>你是否选择发射武器？</strong></p>","0",""
"","","","","","html-keyboard-response","62","131776","0.0-4.0-0.29","59","1","2022-10-20 08:40:01","d60b49b5908c80e163b920d72b52d584","120.232.252.92","Mozilla/5.0 (Windows NT 10.0; Win64; x64) AppleWebKit/537.36 (KHTML, like Gecko) Chrome/99.0.4844.51 Safari/537.36","WebKit","Chrome","99.0.4844.51","Windows","10.0","null","<div style=""font-size:60px;"">+</div>","null",""
"","","","","","html-button-response","63","135543","0.0-4.0-1.29","59","1","2022-10-20 08:40:01","d60b49b5908c80e163b920d72b52d584","120.232.252.92","Mozilla/5.0 (Windows NT 10.0; Win64; x64) AppleWebKit/537.36 (KHTML, like Gecko) Chrome/99.0.4844.51 Safari/537.36","WebKit","Chrome","99.0.4844.51","Windows","10.0","3755","<p>作为军队的指挥官，你可以选择发射导弹杀死 <strong>6名</strong> 敌国士兵，但会炸毁附近的 <strong>1棵</strong> 敌国树木。</p> <p>树木的照片如下图所示。</p> <p></p> <img src='stimuli/trees/3.png', style='max-width: 30%;'> </img> <p><strong>你是否选择发射武器？</strong></p>","0",""
"","","","","","html-keyboard-response","64","136552","0.0-4.0-0.30","59","1","2022-10-20 08:40:01","d60b49b5908c80e163b920d72b52d584","120.232.252.92","Mozilla/5.0 (Windows NT 10.0; Win64; x64) AppleWebKit/537.36 (KHTML, like Gecko) Chrome/99.0.4844.51 Safari/537.36","WebKit","Chrome","99.0.4844.51","Windows","10.0","null","<div style=""font-size:60px;"">+</div>","null",""
"","","","","","html-button-response","65","140199","0.0-4.0-1.30","59","1","2022-10-20 08:40:01","d60b49b5908c80e163b920d72b52d584","120.232.252.92","Mozilla/5.0 (Windows NT 10.0; Win64; x64) AppleWebKit/537.36 (KHTML, like Gecko) Chrome/99.0.4844.51 Safari/537.36","WebKit","Chrome","99.0.4844.51","Windows","10.0","3638","<p>作为军队的指挥官，你可以选择发射导弹杀死 <strong>6名</strong> 敌国士兵，但会炸毁附近的 <strong>1棵</strong> 敌国树木。</p> <p>树木的照片如下图所示。</p> <p></p> <img src='stimuli/trees/9.png', style='max-width: 30%;'> </img> <p><strong>你是否选择发射武器？</strong></p>","0",""
"","","","","","html-keyboard-response","66","141207","0.0-4.0-0.31","59","1","2022-10-20 08:40:01","d60b49b5908c80e163b920d72b52d584","120.232.252.92","Mozilla/5.0 (Windows NT 10.0; Win64; x64) AppleWebKit/537.36 (KHTML, like Gecko) Chrome/99.0.4844.51 Safari/537.36","WebKit","Chrome","99.0.4844.51","Windows","10.0","null","<div style=""font-size:60px;"">+</div>","null",""
"","","","","","html-button-response","67","142535","0.0-4.0-1.31","59","1","2022-10-20 08:40:01","d60b49b5908c80e163b920d72b52d584","120.232.252.92","Mozilla/5.0 (Windows NT 10.0; Win64; x64) AppleWebKit/537.36 (KHTML, like Gecko) Chrome/99.0.4844.51 Safari/537.36","WebKit","Chrome","99.0.4844.51","Windows","10.0","1320","<p>作为军队的指挥官，你可以选择发射导弹杀死 <strong>3名</strong> 敌国士兵，但会炸毁附近的 <strong>1棵</strong> 敌国树木。</p> <p>树木的照片如下图所示。</p> <p></p> <img src='stimuli/trees/16.png', style='max-width: 30%;'> </img> <p><strong>你是否选择发射武器？</strong></p>","0",""
"","","","","","html-keyboard-response","68","143545","0.0-4.0-0.32","59","1","2022-10-20 08:40:01","d60b49b5908c80e163b920d72b52d584","120.232.252.92","Mozilla/5.0 (Windows NT 10.0; Win64; x64) AppleWebKit/537.36 (KHTML, like Gecko) Chrome/99.0.4844.51 Safari/537.36","WebKit","Chrome","99.0.4844.51","Windows","10.0","null","<div style=""font-size:60px;"">+</div>","null",""
"","","","","","html-button-response","69","146065","0.0-4.0-1.32","59","1","2022-10-20 08:40:01","d60b49b5908c80e163b920d72b52d584","120.232.252.92","Mozilla/5.0 (Windows NT 10.0; Win64; x64) AppleWebKit/537.36 (KHTML, like Gecko) Chrome/99.0.4844.51 Safari/537.36","WebKit","Chrome","99.0.4844.51","Windows","10.0","2509","<p>作为军队的指挥官，你可以选择发射导弹杀死 <strong>6名</strong> 敌国士兵，但会炸毁附近的 <strong>1棵</strong> 敌国树木。</p> <p>树木的照片如下图所示。</p> <p></p> <img src='stimuli/trees/14.png', style='max-width: 30%;'> </img> <p><strong>你是否选择发射武器？</strong></p>","0",""
"","","","","","html-keyboard-response","70","147074","0.0-4.0-0.33","59","1","2022-10-20 08:40:01","d60b49b5908c80e163b920d72b52d584","120.232.252.92","Mozilla/5.0 (Windows NT 10.0; Win64; x64) AppleWebKit/537.36 (KHTML, like Gecko) Chrome/99.0.4844.51 Safari/537.36","WebKit","Chrome","99.0.4844.51","Windows","10.0","null","<div style=""font-size:60px;"">+</div>","null",""
"","","","","","html-button-response","71","149207","0.0-4.0-1.33","59","1","2022-10-20 08:40:01","d60b49b5908c80e163b920d72b52d584","120.232.252.92","Mozilla/5.0 (Windows NT 10.0; Win64; x64) AppleWebKit/537.36 (KHTML, like Gecko) Chrome/99.0.4844.51 Safari/537.36","WebKit","Chrome","99.0.4844.51","Windows","10.0","2122","<p>作为军队的指挥官，你可以选择发射导弹杀死 <strong>1名</strong> 敌国士兵，但会炸毁附近的 <strong>1棵</strong> 敌国树木。</p> <p>树木的照片如下图所示。</p> <p></p> <img src='stimuli/trees/8.png', style='max-width: 30%;'> </img> <p><strong>你是否选择发射武器？</strong></p>","0",""
"","","","","","html-keyboard-response","72","150217","0.0-4.0-0.34","59","1","2022-10-20 08:40:01","d60b49b5908c80e163b920d72b52d584","120.232.252.92","Mozilla/5.0 (Windows NT 10.0; Win64; x64) AppleWebKit/537.36 (KHTML, like Gecko) Chrome/99.0.4844.51 Safari/537.36","WebKit","Chrome","99.0.4844.51","Windows","10.0","null","<div style=""font-size:60px;"">+</div>","null",""
"","","","","","html-button-response","73","159016","0.0-4.0-1.34","59","1","2022-10-20 08:40:01","d60b49b5908c80e163b920d72b52d584","120.232.252.92","Mozilla/5.0 (Windows NT 10.0; Win64; x64) AppleWebKit/537.36 (KHTML, like Gecko) Chrome/99.0.4844.51 Safari/537.36","WebKit","Chrome","99.0.4844.51","Windows","10.0","8790","<p>作为军队的指挥官，你可以选择发射导弹杀死 <strong>4名</strong> 敌国士兵，但会炸毁附近的 <strong>1棵</strong> 敌国树木。</p> <p>树木的照片如下图所示。</p> <p></p> <img src='stimuli/trees/11.png', style='max-width: 30%;'> </img> <p><strong>你是否选择发射武器？</strong></p>","0",""
"","","","","","html-keyboard-response","74","160024","0.0-4.0-0.35","59","1","2022-10-20 08:40:01","d60b49b5908c80e163b920d72b52d584","120.232.252.92","Mozilla/5.0 (Windows NT 10.0; Win64; x64) AppleWebKit/537.36 (KHTML, like Gecko) Chrome/99.0.4844.51 Safari/537.36","WebKit","Chrome","99.0.4844.51","Windows","10.0","null","<div style=""font-size:60px;"">+</div>","null",""
"","","","","","html-button-response","75","161535","0.0-4.0-1.35","59","1","2022-10-20 08:40:01","d60b49b5908c80e163b920d72b52d584","120.232.252.92","Mozilla/5.0 (Windows NT 10.0; Win64; x64) AppleWebKit/537.36 (KHTML, like Gecko) Chrome/99.0.4844.51 Safari/537.36","WebKit","Chrome","99.0.4844.51","Windows","10.0","1500","<p>作为军队的指挥官，你可以选择发射导弹杀死 <strong>6名</strong> 敌国士兵，但会炸毁附近的 <strong>1棵</strong> 敌国树木。</p> <p>树木的照片如下图所示。</p> <p></p> <img src='stimuli/trees/1.png', style='max-width: 30%;'> </img> <p><strong>你是否选择发射武器？</strong></p>","0",""
"","","","","","html-keyboard-response","76","162546","0.0-4.0-0.36","59","1","2022-10-20 08:40:01","d60b49b5908c80e163b920d72b52d584","120.232.252.92","Mozilla/5.0 (Windows NT 10.0; Win64; x64) AppleWebKit/537.36 (KHTML, like Gecko) Chrome/99.0.4844.51 Safari/537.36","WebKit","Chrome","99.0.4844.51","Windows","10.0","null","<div style=""font-size:60px;"">+</div>","null",""
"","","","","","html-button-response","77","170936","0.0-4.0-1.36","59","1","2022-10-20 08:40:01","d60b49b5908c80e163b920d72b52d584","120.232.252.92","Mozilla/5.0 (Windows NT 10.0; Win64; x64) AppleWebKit/537.36 (KHTML, like Gecko) Chrome/99.0.4844.51 Safari/537.36","WebKit","Chrome","99.0.4844.51","Windows","10.0","8380","<p>作为军队的指挥官，你可以选择发射导弹杀死 <strong>5名</strong> 敌国士兵，但会误杀附近的 <strong>1名</strong> 敌国平民。</p> <p>平民照片如下图所示。</p> <p></p> <img src='stimuli/faces/NCF5.jpg', style='max-width: 30%;'> </img> <p><strong>你是否选择发射武器？</strong></p>","0",""
"","","","","","html-keyboard-response","78","171946","0.0-4.0-0.37","59","1","2022-10-20 08:40:01","d60b49b5908c80e163b920d72b52d584","120.232.252.92","Mozilla/5.0 (Windows NT 10.0; Win64; x64) AppleWebKit/537.36 (KHTML, like Gecko) Chrome/99.0.4844.51 Safari/537.36","WebKit","Chrome","99.0.4844.51","Windows","10.0","null","<div style=""font-size:60px;"">+</div>","null",""
"","","","","","html-button-response","79","175647","0.0-4.0-1.37","59","1","2022-10-20 08:40:01","d60b49b5908c80e163b920d72b52d584","120.232.252.92","Mozilla/5.0 (Windows NT 10.0; Win64; x64) AppleWebKit/537.36 (KHTML, like Gecko) Chrome/99.0.4844.51 Safari/537.36","WebKit","Chrome","99.0.4844.51","Windows","10.0","3692","<p>作为军队的指挥官，你可以选择发射导弹杀死 <strong>5名</strong> 敌国士兵，但会误杀附近的 <strong>1名</strong> 敌国平民。</p> <p>平民照片如下图所示。</p> <p></p> <img src='stimuli/faces/NCM6.jpg', style='max-width: 30%;'> </img> <p><strong>你是否选择发射武器？</strong></p>","0",""
"","","","","","html-keyboard-response","80","176659","0.0-4.0-0.38","59","1","2022-10-20 08:40:01","d60b49b5908c80e163b920d72b52d584","120.232.252.92","Mozilla/5.0 (Windows NT 10.0; Win64; x64) AppleWebKit/537.36 (KHTML, like Gecko) Chrome/99.0.4844.51 Safari/537.36","WebKit","Chrome","99.0.4844.51","Windows","10.0","null","<div style=""font-size:60px;"">+</div>","null",""
"","","","","","html-button-response","81","178831","0.0-4.0-1.38","59","1","2022-10-20 08:40:01","d60b49b5908c80e163b920d72b52d584","120.232.252.92","Mozilla/5.0 (Windows NT 10.0; Win64; x64) AppleWebKit/537.36 (KHTML, like Gecko) Chrome/99.0.4844.51 Safari/537.36","WebKit","Chrome","99.0.4844.51","Windows","10.0","2161","<p>作为军队的指挥官，你可以选择发射导弹杀死 <strong>4名</strong> 敌国士兵，但会炸毁附近的 <strong>1棵</strong> 敌国树木。</p> <p>树木的照片如下图所示。</p> <p></p> <img src='stimuli/trees/2.png', style='max-width: 30%;'> </img> <p><strong>你是否选择发射武器？</strong></p>","0",""
"","","","","","html-keyboard-response","82","179845","0.0-4.0-0.39","59","1","2022-10-20 08:40:01","d60b49b5908c80e163b920d72b52d584","120.232.252.92","Mozilla/5.0 (Windows NT 10.0; Win64; x64) AppleWebKit/537.36 (KHTML, like Gecko) Chrome/99.0.4844.51 Safari/537.36","WebKit","Chrome","99.0.4844.51","Windows","10.0","null","<div style=""font-size:60px;"">+</div>","null",""
"","","","","","html-button-response","83","184247","0.0-4.0-1.39","59","1","2022-10-20 08:40:01","d60b49b5908c80e163b920d72b52d584","120.232.252.92","Mozilla/5.0 (Windows NT 10.0; Win64; x64) AppleWebKit/537.36 (KHTML, like Gecko) Chrome/99.0.4844.51 Safari/537.36","WebKit","Chrome","99.0.4844.51","Windows","10.0","4385","<p>作为军队的指挥官，你可以选择发射导弹杀死 <strong>5名</strong> 敌国士兵，但会炸毁附近的 <strong>1棵</strong> 敌国树木。</p> <p>树木的照片如下图所示。</p> <p></p> <img src='stimuli/trees/9.png', style='max-width: 30%;'> </img> <p><strong>你是否选择发射武器？</strong></p>","0",""
"","","","","","html-keyboard-response","84","185258","0.0-4.0-0.40","59","1","2022-10-20 08:40:01","d60b49b5908c80e163b920d72b52d584","120.232.252.92","Mozilla/5.0 (Windows NT 10.0; Win64; x64) AppleWebKit/537.36 (KHTML, like Gecko) Chrome/99.0.4844.51 Safari/537.36","WebKit","Chrome","99.0.4844.51","Windows","10.0","null","<div style=""font-size:60px;"">+</div>","null",""
"","","","","","html-button-response","85","185848","0.0-4.0-1.40","59","1","2022-10-20 08:40:01","d60b49b5908c80e163b920d72b52d584","120.232.252.92","Mozilla/5.0 (Windows NT 10.0; Win64; x64) AppleWebKit/537.36 (KHTML, like Gecko) Chrome/99.0.4844.51 Safari/537.36","WebKit","Chrome","99.0.4844.51","Windows","10.0","580","<p>作为军队的指挥官，你可以选择发射导弹杀死 <strong>5名</strong> 敌国士兵，但会炸毁附近的 <strong>1棵</strong> 敌国树木。</p> <p>树木的照片如下图所示。</p> <p></p> <img src='stimuli/trees/1.png', style='max-width: 30%;'> </img> <p><strong>你是否选择发射武器？</strong></p>","0",""
"","","","","","html-keyboard-response","86","186860","0.0-4.0-0.41","59","1","2022-10-20 08:40:01","d60b49b5908c80e163b920d72b52d584","120.232.252.92","Mozilla/5.0 (Windows NT 10.0; Win64; x64) AppleWebKit/537.36 (KHTML, like Gecko) Chrome/99.0.4844.51 Safari/537.36","WebKit","Chrome","99.0.4844.51","Windows","10.0","null","<div style=""font-size:60px;"">+</div>","null",""
"","","","","","html-button-response","87","192391","0.0-4.0-1.41","59","1","2022-10-20 08:40:01","d60b49b5908c80e163b920d72b52d584","120.232.252.92","Mozilla/5.0 (Windows NT 10.0; Win64; x64) AppleWebKit/537.36 (KHTML, like Gecko) Chrome/99.0.4844.51 Safari/537.36","WebKit","Chrome","99.0.4844.51","Windows","10.0","5518","<p>作为军队的指挥官，你可以选择发射导弹杀死 <strong>1名</strong> 敌国士兵，但会误杀附近的 <strong>1名</strong> 敌国平民。</p> <p>平民照片如下图所示。</p> <p></p> <img src='stimuli/faces/NCF4.jpg', style='max-width: 30%;'> </img> <p><strong>你是否选择发射武器？</strong></p>","1",""
"","","","","","html-keyboard-response","88","193402","0.0-4.0-0.42","59","1","2022-10-20 08:40:01","d60b49b5908c80e163b920d72b52d584","120.232.252.92","Mozilla/5.0 (Windows NT 10.0; Win64; x64) AppleWebKit/537.36 (KHTML, like Gecko) Chrome/99.0.4844.51 Safari/537.36","WebKit","Chrome","99.0.4844.51","Windows","10.0","null","<div style=""font-size:60px;"">+</div>","null",""
"","","","","","html-button-response","89","206856","0.0-4.0-1.42","59","1","2022-10-20 08:40:01","d60b49b5908c80e163b920d72b52d584","120.232.252.92","Mozilla/5.0 (Windows NT 10.0; Win64; x64) AppleWebKit/537.36 (KHTML, like Gecko) Chrome/99.0.4844.51 Safari/537.36","WebKit","Chrome","99.0.4844.51","Windows","10.0","13442","<p>作为军队的指挥官，你可以选择发射导弹杀死 <strong>2名</strong> 敌国士兵，但会误杀附近的 <strong>1名</strong> 敌国平民。</p> <p>平民照片如下图所示。</p> <p></p> <img src='stimuli/faces/NCM4.jpg', style='max-width: 30%;'> </img> <p><strong>你是否选择发射武器？</strong></p>","1",""
"","","","","","html-keyboard-response","90","207873","0.0-4.0-0.43","59","1","2022-10-20 08:40:01","d60b49b5908c80e163b920d72b52d584","120.232.252.92","Mozilla/5.0 (Windows NT 10.0; Win64; x64) AppleWebKit/537.36 (KHTML, like Gecko) Chrome/99.0.4844.51 Safari/537.36","WebKit","Chrome","99.0.4844.51","Windows","10.0","null","<div style=""font-size:60px;"">+</div>","null",""
"","","","","","html-button-response","91","209919","0.0-4.0-1.43","59","1","2022-10-20 08:40:01","d60b49b5908c80e163b920d72b52d584","120.232.252.92","Mozilla/5.0 (Windows NT 10.0; Win64; x64) AppleWebKit/537.36 (KHTML, like Gecko) Chrome/99.0.4844.51 Safari/537.36","WebKit","Chrome","99.0.4844.51","Windows","10.0","2030","<p>作为军队的指挥官，你可以选择发射导弹杀死 <strong>7名</strong> 敌国士兵，但会炸毁附近的 <strong>1棵</strong> 敌国树木。</p> <p>树木的照片如下图所示。</p> <p></p> <img src='stimuli/trees/6.png', style='max-width: 30%;'> </img> <p><strong>你是否选择发射武器？</strong></p>","0",""
"","","","","","html-keyboard-response","92","210932","0.0-4.0-0.44","59","1","2022-10-20 08:40:01","d60b49b5908c80e163b920d72b52d584","120.232.252.92","Mozilla/5.0 (Windows NT 10.0; Win64; x64) AppleWebKit/537.36 (KHTML, like Gecko) Chrome/99.0.4844.51 Safari/537.36","WebKit","Chrome","99.0.4844.51","Windows","10.0","null","<div style=""font-size:60px;"">+</div>","null",""
"","","","","","html-button-response","93","235969","0.0-4.0-1.44","59","1","2022-10-20 08:40:01","d60b49b5908c80e163b920d72b52d584","120.232.252.92","Mozilla/5.0 (Windows NT 10.0; Win64; x64) AppleWebKit/537.36 (KHTML, like Gecko) Chrome/99.0.4844.51 Safari/537.36","WebKit","Chrome","99.0.4844.51","Windows","10.0","25024","<p>作为军队的指挥官，你可以选择发射导弹杀死 <strong>3名</strong> 敌国士兵，但会误杀附近的 <strong>1名</strong> 敌国平民。</p> <p>平民照片如下图所示。</p> <p></p> <img src='stimuli/faces/NCM7.jpg', style='max-width: 30%;'> </img> <p><strong>你是否选择发射武器？</strong></p>","1",""
"","","","","","html-keyboard-response","94","236986","0.0-4.0-0.45","59","1","2022-10-20 08:40:01","d60b49b5908c80e163b920d72b52d584","120.232.252.92","Mozilla/5.0 (Windows NT 10.0; Win64; x64) AppleWebKit/537.36 (KHTML, like Gecko) Chrome/99.0.4844.51 Safari/537.36","WebKit","Chrome","99.0.4844.51","Windows","10.0","null","<div style=""font-size:60px;"">+</div>","null",""
"","","","","","html-button-response","95","239576","0.0-4.0-1.45","59","1","2022-10-20 08:40:01","d60b49b5908c80e163b920d72b52d584","120.232.252.92","Mozilla/5.0 (Windows NT 10.0; Win64; x64) AppleWebKit/537.36 (KHTML, like Gecko) Chrome/99.0.4844.51 Safari/537.36","WebKit","Chrome","99.0.4844.51","Windows","10.0","2578","<p>作为军队的指挥官，你可以选择发射导弹杀死 <strong>1名</strong> 敌国士兵，但会炸毁附近的 <strong>1棵</strong> 敌国树木。</p> <p>树木的照片如下图所示。</p> <p></p> <img src='stimuli/trees/15.png', style='max-width: 30%;'> </img> <p><strong>你是否选择发射武器？</strong></p>","0",""
"","","","","","html-keyboard-response","96","240588","0.0-4.0-0.46","59","1","2022-10-20 08:40:01","d60b49b5908c80e163b920d72b52d584","120.232.252.92","Mozilla/5.0 (Windows NT 10.0; Win64; x64) AppleWebKit/537.36 (KHTML, like Gecko) Chrome/99.0.4844.51 Safari/537.36","WebKit","Chrome","99.0.4844.51","Windows","10.0","null","<div style=""font-size:60px;"">+</div>","null",""
"","","","","","html-button-response","97","243600","0.0-4.0-1.46","59","1","2022-10-20 08:40:01","d60b49b5908c80e163b920d72b52d584","120.232.252.92","Mozilla/5.0 (Windows NT 10.0; Win64; x64) AppleWebKit/537.36 (KHTML, like Gecko) Chrome/99.0.4844.51 Safari/537.36","WebKit","Chrome","99.0.4844.51","Windows","10.0","3000","<p>作为军队的指挥官，你可以选择发射导弹杀死 <strong>10名</strong> 敌国士兵，但会误杀附近的 <strong>1名</strong> 敌国平民。</p> <p>平民照片如下图所示。</p> <p></p> <img src='stimuli/faces/NCM6.jpg', style='max-width: 30%;'> </img> <p><strong>你是否选择发射武器？</strong></p>","0",""
"","","","","","html-keyboard-response","98","244612","0.0-4.0-0.47","59","1","2022-10-20 08:40:01","d60b49b5908c80e163b920d72b52d584","120.232.252.92","Mozilla/5.0 (Windows NT 10.0; Win64; x64) AppleWebKit/537.36 (KHTML, like Gecko) Chrome/99.0.4844.51 Safari/537.36","WebKit","Chrome","99.0.4844.51","Windows","10.0","null","<div style=""font-size:60px;"">+</div>","null",""
"","","","","","html-button-response","99","246160","0.0-4.0-1.47","59","1","2022-10-20 08:40:01","d60b49b5908c80e163b920d72b52d584","120.232.252.92","Mozilla/5.0 (Windows NT 10.0; Win64; x64) AppleWebKit/537.36 (KHTML, like Gecko) Chrome/99.0.4844.51 Safari/537.36","WebKit","Chrome","99.0.4844.51","Windows","10.0","1537","<p>作为军队的指挥官，你可以选择发射导弹杀死 <strong>6名</strong> 敌国士兵，但会炸毁附近的 <strong>1棵</strong> 敌国树木。</p> <p>树木的照片如下图所示。</p> <p></p> <img src='stimuli/trees/15.png', style='max-width: 30%;'> </img> <p><strong>你是否选择发射武器？</strong></p>","0",""
"","","","","","html-keyboard-response","100","247173","0.0-4.0-0.48","59","1","2022-10-20 08:40:01","d60b49b5908c80e163b920d72b52d584","120.232.252.92","Mozilla/5.0 (Windows NT 10.0; Win64; x64) AppleWebKit/537.36 (KHTML, like Gecko) Chrome/99.0.4844.51 Safari/537.36","WebKit","Chrome","99.0.4844.51","Windows","10.0","null","<div style=""font-size:60px;"">+</div>","null",""
"","","","","","html-button-response","101","249840","0.0-4.0-1.48","59","1","2022-10-20 08:40:01","d60b49b5908c80e163b920d72b52d584","120.232.252.92","Mozilla/5.0 (Windows NT 10.0; Win64; x64) AppleWebKit/537.36 (KHTML, like Gecko) Chrome/99.0.4844.51 Safari/537.36","WebKit","Chrome","99.0.4844.51","Windows","10.0","2655","<p>作为军队的指挥官，你可以选择发射导弹杀死 <strong>7名</strong> 敌国士兵，但会误杀附近的 <strong>1名</strong> 敌国平民。</p> <p>平民照片如下图所示。</p> <p></p> <img src='stimuli/faces/NCM5.jpg', style='max-width: 30%;'> </img> <p><strong>你是否选择发射武器？</strong></p>","0",""
"","","","","","html-keyboard-response","102","250854","0.0-4.0-0.49","59","1","2022-10-20 08:40:01","d60b49b5908c80e163b920d72b52d584","120.232.252.92","Mozilla/5.0 (Windows NT 10.0; Win64; x64) AppleWebKit/537.36 (KHTML, like Gecko) Chrome/99.0.4844.51 Safari/537.36","WebKit","Chrome","99.0.4844.51","Windows","10.0","null","<div style=""font-size:60px;"">+</div>","null",""
"","","","","","html-button-response","103","252976","0.0-4.0-1.49","59","1","2022-10-20 08:40:01","d60b49b5908c80e163b920d72b52d584","120.232.252.92","Mozilla/5.0 (Windows NT 10.0; Win64; x64) AppleWebKit/537.36 (KHTML, like Gecko) Chrome/99.0.4844.51 Safari/537.36","WebKit","Chrome","99.0.4844.51","Windows","10.0","2109","<p>作为军队的指挥官，你可以选择发射导弹杀死 <strong>3名</strong> 敌国士兵，但会误杀附近的 <strong>1名</strong> 敌国平民。</p> <p>平民照片如下图所示。</p> <p></p> <img src='stimuli/faces/NCF6.jpg', style='max-width: 30%;'> </img> <p><strong>你是否选择发射武器？</strong></p>","1",""
"","","","","","html-keyboard-response","104","253987","0.0-4.0-0.50","59","1","2022-10-20 08:40:01","d60b49b5908c80e163b920d72b52d584","120.232.252.92","Mozilla/5.0 (Windows NT 10.0; Win64; x64) AppleWebKit/537.36 (KHTML, like Gecko) Chrome/99.0.4844.51 Safari/537.36","WebKit","Chrome","99.0.4844.51","Windows","10.0","null","<div style=""font-size:60px;"">+</div>","null",""
"","","","","","html-button-response","105","263064","0.0-4.0-1.50","59","1","2022-10-20 08:40:01","d60b49b5908c80e163b920d72b52d584","120.232.252.92","Mozilla/5.0 (Windows NT 10.0; Win64; x64) AppleWebKit/537.36 (KHTML, like Gecko) Chrome/99.0.4844.51 Safari/537.36","WebKit","Chrome","99.0.4844.51","Windows","10.0","9065","<p>作为军队的指挥官，你可以选择发射导弹杀死 <strong>2名</strong> 敌国士兵，但会误杀附近的 <strong>1名</strong> 敌国平民。</p> <p>平民照片如下图所示。</p> <p></p> <img src='stimuli/faces/NCM5.jpg', style='max-width: 30%;'> </img> <p><strong>你是否选择发射武器？</strong></p>","1",""
"","","","","","html-keyboard-response","106","264077","0.0-4.0-0.51","59","1","2022-10-20 08:40:01","d60b49b5908c80e163b920d72b52d584","120.232.252.92","Mozilla/5.0 (Windows NT 10.0; Win64; x64) AppleWebKit/537.36 (KHTML, like Gecko) Chrome/99.0.4844.51 Safari/537.36","WebKit","Chrome","99.0.4844.51","Windows","10.0","null","<div style=""font-size:60px;"">+</div>","null",""
"","","","","","html-button-response","107","267408","0.0-4.0-1.51","59","1","2022-10-20 08:40:01","d60b49b5908c80e163b920d72b52d584","120.232.252.92","Mozilla/5.0 (Windows NT 10.0; Win64; x64) AppleWebKit/537.36 (KHTML, like Gecko) Chrome/99.0.4844.51 Safari/537.36","WebKit","Chrome","99.0.4844.51","Windows","10.0","3319","<p>作为军队的指挥官，你可以选择发射导弹杀死 <strong>10名</strong> 敌国士兵，但会误杀附近的 <strong>1名</strong> 敌国平民。</p> <p>平民照片如下图所示。</p> <p></p> <img src='stimuli/faces/NCM7.jpg', style='max-width: 30%;'> </img> <p><strong>你是否选择发射武器？</strong></p>","0",""
"","","","","","html-keyboard-response","108","268421","0.0-4.0-0.52","59","1","2022-10-20 08:40:01","d60b49b5908c80e163b920d72b52d584","120.232.252.92","Mozilla/5.0 (Windows NT 10.0; Win64; x64) AppleWebKit/537.36 (KHTML, like Gecko) Chrome/99.0.4844.51 Safari/537.36","WebKit","Chrome","99.0.4844.51","Windows","10.0","null","<div style=""font-size:60px;"">+</div>","null",""
"","","","","","html-button-response","109","269745","0.0-4.0-1.52","59","1","2022-10-20 08:40:01","d60b49b5908c80e163b920d72b52d584","120.232.252.92","Mozilla/5.0 (Windows NT 10.0; Win64; x64) AppleWebKit/537.36 (KHTML, like Gecko) Chrome/99.0.4844.51 Safari/537.36","WebKit","Chrome","99.0.4844.51","Windows","10.0","1309","<p>作为军队的指挥官，你可以选择发射导弹杀死 <strong>4名</strong> 敌国士兵，但会炸毁附近的 <strong>1棵</strong> 敌国树木。</p> <p>树木的照片如下图所示。</p> <p></p> <img src='stimuli/trees/6.png', style='max-width: 30%;'> </img> <p><strong>你是否选择发射武器？</strong></p>","0",""
"","","","","","html-keyboard-response","110","270758","0.0-4.0-0.53","59","1","2022-10-20 08:40:01","d60b49b5908c80e163b920d72b52d584","120.232.252.92","Mozilla/5.0 (Windows NT 10.0; Win64; x64) AppleWebKit/537.36 (KHTML, like Gecko) Chrome/99.0.4844.51 Safari/537.36","WebKit","Chrome","99.0.4844.51","Windows","10.0","null","<div style=""font-size:60px;"">+</div>","null",""
"","","","","","html-button-response","111","271920","0.0-4.0-1.53","59","1","2022-10-20 08:40:01","d60b49b5908c80e163b920d72b52d584","120.232.252.92","Mozilla/5.0 (Windows NT 10.0; Win64; x64) AppleWebKit/537.36 (KHTML, like Gecko) Chrome/99.0.4844.51 Safari/537.36","WebKit","Chrome","99.0.4844.51","Windows","10.0","1148","<p>作为军队的指挥官，你可以选择发射导弹杀死 <strong>8名</strong> 敌国士兵，但会炸毁附近的 <strong>1棵</strong> 敌国树木。</p> <p>树木的照片如下图所示。</p> <p></p> <img src='stimuli/trees/4.png', style='max-width: 30%;'> </img> <p><strong>你是否选择发射武器？</strong></p>","0",""
"","","","","","html-keyboard-response","112","272933","0.0-4.0-0.54","59","1","2022-10-20 08:40:01","d60b49b5908c80e163b920d72b52d584","120.232.252.92","Mozilla/5.0 (Windows NT 10.0; Win64; x64) AppleWebKit/537.36 (KHTML, like Gecko) Chrome/99.0.4844.51 Safari/537.36","WebKit","Chrome","99.0.4844.51","Windows","10.0","null","<div style=""font-size:60px;"">+</div>","null",""
"","","","","","html-button-response","113","274448","0.0-4.0-1.54","59","1","2022-10-20 08:40:01","d60b49b5908c80e163b920d72b52d584","120.232.252.92","Mozilla/5.0 (Windows NT 10.0; Win64; x64) AppleWebKit/537.36 (KHTML, like Gecko) Chrome/99.0.4844.51 Safari/537.36","WebKit","Chrome","99.0.4844.51","Windows","10.0","1498","<p>作为军队的指挥官，你可以选择发射导弹杀死 <strong>3名</strong> 敌国士兵，但会误杀附近的 <strong>1名</strong> 敌国平民。</p> <p>平民照片如下图所示。</p> <p></p> <img src='stimuli/faces/NCF2.jpg', style='max-width: 30%;'> </img> <p><strong>你是否选择发射武器？</strong></p>","1",""
"","","","","","html-keyboard-response","114","275460","0.0-4.0-0.55","59","1","2022-10-20 08:40:01","d60b49b5908c80e163b920d72b52d584","120.232.252.92","Mozilla/5.0 (Windows NT 10.0; Win64; x64) AppleWebKit/537.36 (KHTML, like Gecko) Chrome/99.0.4844.51 Safari/537.36","WebKit","Chrome","99.0.4844.51","Windows","10.0","null","<div style=""font-size:60px;"">+</div>","null",""
"","","","","","html-button-response","115","276856","0.0-4.0-1.55","59","1","2022-10-20 08:40:01","d60b49b5908c80e163b920d72b52d584","120.232.252.92","Mozilla/5.0 (Windows NT 10.0; Win64; x64) AppleWebKit/537.36 (KHTML, like Gecko) Chrome/99.0.4844.51 Safari/537.36","WebKit","Chrome","99.0.4844.51","Windows","10.0","1384","<p>作为军队的指挥官，你可以选择发射导弹杀死 <strong>9名</strong> 敌国士兵，但会误杀附近的 <strong>1名</strong> 敌国平民。</p> <p>平民照片如下图所示。</p> <p></p> <img src='stimuli/faces/NCF5.jpg', style='max-width: 30%;'> </img> <p><strong>你是否选择发射武器？</strong></p>","0",""
"","","","","","html-keyboard-response","116","277868","0.0-4.0-0.56","59","1","2022-10-20 08:40:01","d60b49b5908c80e163b920d72b52d584","120.232.252.92","Mozilla/5.0 (Windows NT 10.0; Win64; x64) AppleWebKit/537.36 (KHTML, like Gecko) Chrome/99.0.4844.51 Safari/537.36","WebKit","Chrome","99.0.4844.51","Windows","10.0","null","<div style=""font-size:60px;"">+</div>","null",""
"","","","","","html-button-response","117","279073","0.0-4.0-1.56","59","1","2022-10-20 08:40:01","d60b49b5908c80e163b920d72b52d584","120.232.252.92","Mozilla/5.0 (Windows NT 10.0; Win64; x64) AppleWebKit/537.36 (KHTML, like Gecko) Chrome/99.0.4844.51 Safari/537.36","WebKit","Chrome","99.0.4844.51","Windows","10.0","1192","<p>作为军队的指挥官，你可以选择发射导弹杀死 <strong>8名</strong> 敌国士兵，但会炸毁附近的 <strong>1棵</strong> 敌国树木。</p> <p>树木的照片如下图所示。</p> <p></p> <img src='stimuli/trees/8.png', style='max-width: 30%;'> </img> <p><strong>你是否选择发射武器？</strong></p>","0",""
"","","","","","html-keyboard-response","118","280085","0.0-4.0-0.57","59","1","2022-10-20 08:40:01","d60b49b5908c80e163b920d72b52d584","120.232.252.92","Mozilla/5.0 (Windows NT 10.0; Win64; x64) AppleWebKit/537.36 (KHTML, like Gecko) Chrome/99.0.4844.51 Safari/537.36","WebKit","Chrome","99.0.4844.51","Windows","10.0","null","<div style=""font-size:60px;"">+</div>","null",""
"","","","","","html-button-response","119","280928","0.0-4.0-1.57","59","1","2022-10-20 08:40:01","d60b49b5908c80e163b920d72b52d584","120.232.252.92","Mozilla/5.0 (Windows NT 10.0; Win64; x64) AppleWebKit/537.36 (KHTML, like Gecko) Chrome/99.0.4844.51 Safari/537.36","WebKit","Chrome","99.0.4844.51","Windows","10.0","831","<p>作为军队的指挥官，你可以选择发射导弹杀死 <strong>2名</strong> 敌国士兵，但会炸毁附近的 <strong>1棵</strong> 敌国树木。</p> <p>树木的照片如下图所示。</p> <p></p> <img src='stimuli/trees/4.png', style='max-width: 30%;'> </img> <p><strong>你是否选择发射武器？</strong></p>","0",""
"","","","","","html-keyboard-response","120","281941","0.0-4.0-0.58","59","1","2022-10-20 08:40:01","d60b49b5908c80e163b920d72b52d584","120.232.252.92","Mozilla/5.0 (Windows NT 10.0; Win64; x64) AppleWebKit/537.36 (KHTML, like Gecko) Chrome/99.0.4844.51 Safari/537.36","WebKit","Chrome","99.0.4844.51","Windows","10.0","null","<div style=""font-size:60px;"">+</div>","null",""
"","","","","","html-button-response","121","283040","0.0-4.0-1.58","59","1","2022-10-20 08:40:01","d60b49b5908c80e163b920d72b52d584","120.232.252.92","Mozilla/5.0 (Windows NT 10.0; Win64; x64) AppleWebKit/537.36 (KHTML, like Gecko) Chrome/99.0.4844.51 Safari/537.36","WebKit","Chrome","99.0.4844.51","Windows","10.0","1085","<p>作为军队的指挥官，你可以选择发射导弹杀死 <strong>10名</strong> 敌国士兵，但会误杀附近的 <strong>1名</strong> 敌国平民。</p> <p>平民照片如下图所示。</p> <p></p> <img src='stimuli/faces/NCF8.jpg', style='max-width: 30%;'> </img> <p><strong>你是否选择发射武器？</strong></p>","0",""
"","","","","","html-keyboard-response","122","284053","0.0-4.0-0.59","59","1","2022-10-20 08:40:01","d60b49b5908c80e163b920d72b52d584","120.232.252.92","Mozilla/5.0 (Windows NT 10.0; Win64; x64) AppleWebKit/537.36 (KHTML, like Gecko) Chrome/99.0.4844.51 Safari/537.36","WebKit","Chrome","99.0.4844.51","Windows","10.0","null","<div style=""font-size:60px;"">+</div>","null",""
"","","","","","html-button-response","123","285224","0.0-4.0-1.59","59","1","2022-10-20 08:40:01","d60b49b5908c80e163b920d72b52d584","120.232.252.92","Mozilla/5.0 (Windows NT 10.0; Win64; x64) AppleWebKit/537.36 (KHTML, like Gecko) Chrome/99.0.4844.51 Safari/537.36","WebKit","Chrome","99.0.4844.51","Windows","10.0","1159","<p>作为军队的指挥官，你可以选择发射导弹杀死 <strong>9名</strong> 敌国士兵，但会炸毁附近的 <strong>1棵</strong> 敌国树木。</p> <p>树木的照片如下图所示。</p> <p></p> <img src='stimuli/trees/11.png', style='max-width: 30%;'> </img> <p><strong>你是否选择发射武器？</strong></p>","0",""
"","","","","","html-keyboard-response","124","286238","0.0-4.0-0.60","59","1","2022-10-20 08:40:01","d60b49b5908c80e163b920d72b52d584","120.232.252.92","Mozilla/5.0 (Windows NT 10.0; Win64; x64) AppleWebKit/537.36 (KHTML, like Gecko) Chrome/99.0.4844.51 Safari/537.36","WebKit","Chrome","99.0.4844.51","Windows","10.0","null","<div style=""font-size:60px;"">+</div>","null",""
"","","","","","html-button-response","125","287857","0.0-4.0-1.60","59","1","2022-10-20 08:40:01","d60b49b5908c80e163b920d72b52d584","120.232.252.92","Mozilla/5.0 (Windows NT 10.0; Win64; x64) AppleWebKit/537.36 (KHTML, like Gecko) Chrome/99.0.4844.51 Safari/537.36","WebKit","Chrome","99.0.4844.51","Windows","10.0","1606","<p>作为军队的指挥官，你可以选择发射导弹杀死 <strong>8名</strong> 敌国士兵，但会炸毁附近的 <strong>1棵</strong> 敌国树木。</p> <p>树木的照片如下图所示。</p> <p></p> <img src='stimuli/trees/16.png', style='max-width: 30%;'> </img> <p><strong>你是否选择发射武器？</strong></p>","0",""
"","","","","","html-keyboard-response","126","288873","0.0-4.0-0.61","59","1","2022-10-20 08:40:01","d60b49b5908c80e163b920d72b52d584","120.232.252.92","Mozilla/5.0 (Windows NT 10.0; Win64; x64) AppleWebKit/537.36 (KHTML, like Gecko) Chrome/99.0.4844.51 Safari/537.36","WebKit","Chrome","99.0.4844.51","Windows","10.0","null","<div style=""font-size:60px;"">+</div>","null",""
"","","","","","html-button-response","127","290904","0.0-4.0-1.61","59","1","2022-10-20 08:40:01","d60b49b5908c80e163b920d72b52d584","120.232.252.92","Mozilla/5.0 (Windows NT 10.0; Win64; x64) AppleWebKit/537.36 (KHTML, like Gecko) Chrome/99.0.4844.51 Safari/537.36","WebKit","Chrome","99.0.4844.51","Windows","10.0","2016","<p>作为军队的指挥官，你可以选择发射导弹杀死 <strong>1名</strong> 敌国士兵，但会误杀附近的 <strong>1名</strong> 敌国平民。</p> <p>平民照片如下图所示。</p> <p></p> <img src='stimuli/faces/NCM1.jpg', style='max-width: 30%;'> </img> <p><strong>你是否选择发射武器？</strong></p>","1",""
"","","","","","html-keyboard-response","128","291918","0.0-4.0-0.62","59","1","2022-10-20 08:40:01","d60b49b5908c80e163b920d72b52d584","120.232.252.92","Mozilla/5.0 (Windows NT 10.0; Win64; x64) AppleWebKit/537.36 (KHTML, like Gecko) Chrome/99.0.4844.51 Safari/537.36","WebKit","Chrome","99.0.4844.51","Windows","10.0","null","<div style=""font-size:60px;"">+</div>","null",""
"","","","","","html-button-response","129","294128","0.0-4.0-1.62","59","1","2022-10-20 08:40:01","d60b49b5908c80e163b920d72b52d584","120.232.252.92","Mozilla/5.0 (Windows NT 10.0; Win64; x64) AppleWebKit/537.36 (KHTML, like Gecko) Chrome/99.0.4844.51 Safari/537.36","WebKit","Chrome","99.0.4844.51","Windows","10.0","2197","<p>作为军队的指挥官，你可以选择发射导弹杀死 <strong>10名</strong> 敌国士兵，但会误杀附近的 <strong>1名</strong> 敌国平民。</p> <p>平民照片如下图所示。</p> <p></p> <img src='stimuli/faces/NCF6.jpg', style='max-width: 30%;'> </img> <p><strong>你是否选择发射武器？</strong></p>","0",""
"","","","","","html-keyboard-response","130","295143","0.0-4.0-0.63","59","1","2022-10-20 08:40:01","d60b49b5908c80e163b920d72b52d584","120.232.252.92","Mozilla/5.0 (Windows NT 10.0; Win64; x64) AppleWebKit/537.36 (KHTML, like Gecko) Chrome/99.0.4844.51 Safari/537.36","WebKit","Chrome","99.0.4844.51","Windows","10.0","null","<div style=""font-size:60px;"">+</div>","null",""
"","","","","","html-button-response","131","303184","0.0-4.0-1.63","59","1","2022-10-20 08:40:01","d60b49b5908c80e163b920d72b52d584","120.232.252.92","Mozilla/5.0 (Windows NT 10.0; Win64; x64) AppleWebKit/537.36 (KHTML, like Gecko) Chrome/99.0.4844.51 Safari/537.36","WebKit","Chrome","99.0.4844.51","Windows","10.0","8025","<p>作为军队的指挥官，你可以选择发射导弹杀死 <strong>9名</strong> 敌国士兵，但会误杀附近的 <strong>1名</strong> 敌国平民。</p> <p>平民照片如下图所示。</p> <p></p> <img src='stimuli/faces/NCF3.jpg', style='max-width: 30%;'> </img> <p><strong>你是否选择发射武器？</strong></p>","0",""
"","","","","","survey-multi-choice","132","307202","0.0-5.0","59","1","2022-10-20 08:40:01","d60b49b5908c80e163b920d72b52d584","120.232.252.92","Mozilla/5.0 (Windows NT 10.0; Win64; x64) AppleWebKit/537.36 (KHTML, like Gecko) Chrome/99.0.4844.51 Safari/537.36","WebKit","Chrome","99.0.4844.51","Windows","10.0","4000","","{""Attention1"":""""}","[0]"
"","","","","","html-button-response","133","308896","0.0-6.0","59","1","2022-10-20 08:40:01","d60b49b5908c80e163b920d72b52d584","120.232.252.92","Mozilla/5.0 (Windows NT 10.0; Win64; x64) AppleWebKit/537.36 (KHTML, like Gecko) Chrome/99.0.4844.51 Safari/537.36","WebKit","Chrome","99.0.4844.51","Windows","10.0","1672","<p style=""font-size:20px;font-weight:bold;"">恭喜！</p><p>你已经完成了实验的第一部分。</p><p>请休息放松一下，然后进入第二部分。</p><p>这部分大约需要10分钟。</p>","0",""
"","","","","","survey-text","134","388705","0.0-7.0","59","1","2022-10-20 08:40:01","d60b49b5908c80e163b920d72b52d584","120.232.252.92","Mozilla/5.0 (Windows NT 10.0; Win64; x64) AppleWebKit/537.36 (KHTML, like Gecko) Chrome/99.0.4844.51 Safari/537.36","WebKit","Chrome","99.0.4844.51","Windows","10.0","78784","","{""Age"":""38"",""Nation"":""中国"",""Born"":""广东汕尾"",""Live"":""广东深圳"",""Ethnic"":""汉族"",""Alipay"":""13760373070""}",""
"","","","","","survey-multi-choice","135","429425","0.0-8.0","59","1","2022-10-20 08:40:01","d60b49b5908c80e163b920d72b52d584","120.232.252.92","Mozilla/5.0 (Windows NT 10.0; Win64; x64) AppleWebKit/537.36 (KHTML, like Gecko) Chrome/99.0.4844.51 Safari/537.36","WebKit","Chrome","99.0.4844.51","Windows","10.0","40702","","{""Gender"":""女"",""Education"":""专科毕业"",""Income"":""￥270,000-￥489,999"",""Children"":"">=3"",""Race"":""亚洲人""}","[0,1,2,3,4]"
"","","","","","survey-multi-select","136","442329","0.0-9.0","59","1","2022-10-20 08:40:01","d60b49b5908c80e163b920d72b52d584","120.232.252.92","Mozilla/5.0 (Windows NT 10.0; Win64; x64) AppleWebKit/537.36 (KHTML, like Gecko) Chrome/99.0.4844.51 Safari/537.36","WebKit","Chrome","99.0.4844.51","Windows","10.0","12869","","{""Marriage"":[""已婚""],""Religion"":[""无宗教信仰""]}","[0,1]"
"","","","","","survey-multi-choice","137","445833","0.0-10.0","59","1","2022-10-20 08:40:01","d60b49b5908c80e163b920d72b52d584","120.232.252.92","Mozilla/5.0 (Windows NT 10.0; Win64; x64) AppleWebKit/537.36 (KHTML, like Gecko) Chrome/99.0.4844.51 Safari/537.36","WebKit","Chrome","99.0.4844.51","Windows","10.0","3480","","{""SES"":""7""}","[0]"
"","","","","","html-button-response","138","447193","0.0-11.0","59","1","2022-10-20 08:40:01","d60b49b5908c80e163b920d72b52d584","120.232.252.92","Mozilla/5.0 (Windows NT 10.0; Win64; x64) AppleWebKit/537.36 (KHTML, like Gecko) Chrome/99.0.4844.51 Safari/537.36","WebKit","Chrome","99.0.4844.51","Windows","10.0","1341","<p><strong>请判断下列陈述在多大程度上可以形容你？</p><p> (1 = ""和我一点都不像"" to 5 = ""非常像我"".)</strong></p>","0",""
"","","","","","survey-likert","139","480722","0.0-12.0","59","1","2022-10-20 08:40:01","d60b49b5908c80e163b920d72b52d584","120.232.252.92","Mozilla/5.0 (Windows NT 10.0; Win64; x64) AppleWebKit/537.36 (KHTML, like Gecko) Chrome/99.0.4844.51 Safari/537.36","WebKit","Chrome","99.0.4844.51","Windows","10.0","33509","","{""Aggression1"":0,""Aggression2"":0,""Aggression3"":0,""Aggression4"":0,""Aggression5"":1,""Aggression6"":0,""Aggression7"":4,""Aggression8"":0,""Aggression9"":0}","[0,1,2,3,4,5,6,7,8]"
"","","","","","html-button-response","140","496455","0.0-13.0","59","1","2022-10-20 08:40:01","d60b49b5908c80e163b920d72b52d584","120.232.252.92","Mozilla/5.0 (Windows NT 10.0; Win64; x64) AppleWebKit/537.36 (KHTML, like Gecko) Chrome/99.0.4844.51 Safari/537.36","WebKit","Chrome","99.0.4844.51","Windows","10.0","15712","<p><strong>请判断你在多大程度上同意下列陈述。</strong></p>","0",""
"","","","","","survey-likert","141","646454","0.0-14.0","59","1","2022-10-20 08:40:01","d60b49b5908c80e163b920d72b52d584","120.232.252.92","Mozilla/5.0 (Windows NT 10.0; Win64; x64) AppleWebKit/537.36 (KHTML, like Gecko) Chrome/99.0.4844.51 Safari/537.36","WebKit","Chrome","99.0.4844.51","Windows","10.0","149973","","{""scale5"":1,""scale14"":3,""scale23"":1,""scale21"":2,""scale15"":2,""scale12"":3,""scale13"":2,""scale19"":2,""scale24"":1,""scale10"":2,""scale8"":2,""scale3"":2,""scale28"":2,""scale11"":2,""scale26"":1,""scale9"":1,""scale20"":2,""scale22"":2,""scale25"":1,""scale1"":1,""scale16"":1,""scale2"":1,""scale4"":2,""scale7"":2,""scale27"":1,""scale6"":2,""scale18"":1,""scale17"":2}","[4,13,22,20,14,11,12,18,23,9,7,2,27,10,25,8,19,21,24,0,15,1,3,6,26,5,17,16]"
"","","","","","html-button-response","142","647832","0.0-15.0","59","1","2022-10-20 08:40:01","d60b49b5908c80e163b920d72b52d584","120.232.252.92","Mozilla/5.0 (Windows NT 10.0; Win64; x64) AppleWebKit/537.36 (KHTML, like Gecko) Chrome/99.0.4844.51 Safari/537.36","WebKit","Chrome","99.0.4844.51","Windows","10.0","1353","<p><strong>请判断你在多大程度上同意下列陈述。</strong></p>","0",""
"","","","","","survey-likert","143","761381","0.0-16.0","59","1","2022-10-20 08:40:01","d60b49b5908c80e163b920d72b52d584","120.232.252.92","Mozilla/5.0 (Windows NT 10.0; Win64; x64) AppleWebKit/537.36 (KHTML, like Gecko) Chrome/99.0.4844.51 Safari/537.36","WebKit","Chrome","99.0.4844.51","Windows","10.0","113527","","{""sdo13"":4,""sdo15"":5,""sdo10"":5,""sdo12"":4,""sdo7"":3,""sdo1"":4,""sdo9"":4,""sdo11"":4,""sdo2"":3,""sdo3"":3,""sdo4"":4,""sdo5"":6,""sdo6"":3,""sdo14"":5,""sdo16"":6,""sdo8"":6}","[12,14,9,11,6,0,8,10,1,2,3,4,5,13,15,7]"
"","","","","","html-button-response","144","762482","0.0-17.0","59","1","2022-10-20 08:40:01","d60b49b5908c80e163b920d72b52d584","120.232.252.92","Mozilla/5.0 (Windows NT 10.0; Win64; x64) AppleWebKit/537.36 (KHTML, like Gecko) Chrome/99.0.4844.51 Safari/537.36","WebKit","Chrome","99.0.4844.51","Windows","10.0","1080","<p><strong>请判断你在多大程度上同意下列陈述。</strong></p>","0",""
"","","","","","survey-likert","145","823323","0.0-18.0","59","1","2022-10-20 08:40:01","d60b49b5908c80e163b920d72b52d584","120.232.252.92","Mozilla/5.0 (Windows NT 10.0; Win64; x64) AppleWebKit/537.36 (KHTML, like Gecko) Chrome/99.0.4844.51 Safari/537.36","WebKit","Chrome","99.0.4844.51","Windows","10.0","60820","","{""caring1"":4,""liking1"":1,""caring2"":3,""protection1"":2,""liking2"":1,""caring3"":3,""protection2"":2,""liking3"":1,""protection3"":4,""caring4"":4,""liking4"":2,""protection4"":2,""caring5"":3,""liking5"":2,""protection5"":4}","[0,1,2,3,4,5,6,7,8,9,10,11,12,13,14]"
"","","","","","html-button-response","146","855208","0.0-19.0","59","1","2022-10-20 08:40:01","d60b49b5908c80e163b920d72b52d584","120.232.252.92","Mozilla/5.0 (Windows NT 10.0; Win64; x64) AppleWebKit/537.36 (KHTML, like Gecko) Chrome/99.0.4844.51 Safari/537.36","WebKit","Chrome","99.0.4844.51","Windows","10.0","31864","<p><strong>请判断下列场景中你的内心感受有多柔软。</strong></p>","0",""
"","","","","","survey-likert","147","877563","0.0-20.0","59","1","2022-10-20 08:40:01","d60b49b5908c80e163b920d72b52d584","120.232.252.92","Mozilla/5.0 (Windows NT 10.0; Win64; x64) AppleWebKit/537.36 (KHTML, like Gecko) Chrome/99.0.4844.51 Safari/537.36","WebKit","Chrome","99.0.4844.51","Windows","10.0","22336","","{""tenderness-positive1"":4,""tenderness-negative1"":3,""tenderness-negative2"":2,""tenderness-positive2"":3,""tenderness-positive3"":4,""tenderness-negative3"":2,""tenderness-positive4"":4,""tendereness-negative4"":3,""tendernness-negative5"":3,""tenderness-positive5"":4}","[0,1,2,3,4,5,6,7,8,9]"
"","","","","","survey-multi-choice","148","881610","0.0-21.0","59","1","2022-10-20 08:40:01","d60b49b5908c80e163b920d72b52d584","120.232.252.92","Mozilla/5.0 (Windows NT 10.0; Win64; x64) AppleWebKit/537.36 (KHTML, like Gecko) Chrome/99.0.4844.51 Safari/537.36","WebKit","Chrome","99.0.4844.51","Windows","10.0","4024","","{""Attention2"":""其他""}","[0]"
"","","","","","html-button-response","149","882847","0.0-22.0","59","1","2022-10-20 08:40:01","d60b49b5908c80e163b920d72b52d584","120.232.252.92","Mozilla/5.0 (Windows NT 10.0; Win64; x64) AppleWebKit/537.36 (KHTML, like Gecko) Chrome/99.0.4844.51 Safari/537.36","WebKit","Chrome","99.0.4844.51","Windows","10.0","1216","<p><strong>请判断你在多大程度上同意下列陈述。</strong></p>","0",""
"","","","","","survey-likert","150","979206","0.0-23.0","59","1","2022-10-20 08:40:01","d60b49b5908c80e163b920d72b52d584","120.232.252.92","Mozilla/5.0 (Windows NT 10.0; Win64; x64) AppleWebKit/537.36 (KHTML, like Gecko) Chrome/99.0.4844.51 Safari/537.36","WebKit","Chrome","99.0.4844.51","Windows","10.0","96332","","{""Nation8"":0,""Patri10"":3,""Patri7"":4,""Nation2"":4,""Patri3"":3,""Patri9"":2,""Patri4"":3,""Patri12"":2,""Patri2"":4,""Patri11"":0,""Nation1"":2,""Nation3"":2,""Nation7"":4,""Nation5"":2,""Nation6"":2,""Nation4"":3,""Patri6"":2,""Patri8"":4,""Patri1"":4,""Patri5"":4}","[19,9,6,13,2,8,3,11,1,10,12,14,18,16,17,15,5,7,0,4]"
"","","","","","html-button-response","151","980560","0.0-24.0","59","1","2022-10-20 08:40:01","d60b49b5908c80e163b920d72b52d584","120.232.252.92","Mozilla/5.0 (Windows NT 10.0; Win64; x64) AppleWebKit/537.36 (KHTML, like Gecko) Chrome/99.0.4844.51 Safari/537.36","WebKit","Chrome","99.0.4844.51","Windows","10.0","1331","<p><strong>请判断你在多大程度上同意下列陈述。</strong></p>","0",""
"","","","","","survey-likert","152","1036118","0.0-25.0","59","1","2022-10-20 08:40:01","d60b49b5908c80e163b920d72b52d584","120.232.252.92","Mozilla/5.0 (Windows NT 10.0; Win64; x64) AppleWebKit/537.36 (KHTML, like Gecko) Chrome/99.0.4844.51 Safari/537.36","WebKit","Chrome","99.0.4844.51","Windows","10.0","55535","","{""vi2"":8,""vc4"":7,""hc2"":5,""vi4"":5,""hi3"":6,""hc3"":6,""vc3"":8,""vc1"":8,""vc2"":8,""vi1"":7,""hi2"":6,""hc4"":6,""hc1"":5,""vi3"":8,""hi1"":6,""hi4"":6,""Robot"":6}","[5,16,10,8,2,11,15,13,14,4,1,12,9,6,0,3,7]"
"","","","","","survey-text","153","1045608","0.0-26.0","59","1","2022-10-20 08:40:01","d60b49b5908c80e163b920d72b52d584","120.232.252.92","Mozilla/5.0 (Windows NT 10.0; Win64; x64) AppleWebKit/537.36 (KHTML, like Gecko) Chrome/99.0.4844.51 Safari/537.36","WebKit","Chrome","99.0.4844.51","Windows","10.0","9451","","{""Comments"":""细化""}",""
"","","","","","html-button-response","154","1047040","0.0-27.0","59","1","2022-10-20 08:40:01","d60b49b5908c80e163b920d72b52d584","120.232.252.92","Mozilla/5.0 (Windows NT 10.0; Win64; x64) AppleWebKit/537.36 (KHTML, like Gecko) Chrome/99.0.4844.51 Safari/537.36","WebKit","Chrome","99.0.4844.51","Windows","10.0","1414","<strong><p>恭喜你完成了实验！</p><p>感谢您的参与。</p></strong>","0",""
