"success","timeout","failed_images","failed_audio","failed_video","trial_type","trial_index","time_elapsed","internal_node_id","run_id","condition","recorded_at","source_code_version","ip","user_agent","device","browser","browser_version","platform","platform_version","rt","stimulus","response","question_order"
"true","false","[]","[]","[]","preload","0","3761","0.0-0.0","62","1","2022-10-20 08:58:24","d60b49b5908c80e163b920d72b52d584","218.64.115.222","Mozilla/5.0 (Windows NT 10.0; Win64; x64) AppleWebKit/537.36 (KHTML, like Gecko) Chrome/106.0.0.0 Safari/537.36 Edg/106.0.1370.47","WebKit","Edge","106.0.1370.47","Windows","10.0","","","",""
"true","","","","","fullscreen","1","5120796","0.0-1.0","62","1","2022-10-20 08:58:24","d60b49b5908c80e163b920d72b52d584","218.64.115.222","Mozilla/5.0 (Windows NT 10.0; Win64; x64) AppleWebKit/537.36 (KHTML, like Gecko) Chrome/106.0.0.0 Safari/537.36 Edg/106.0.1370.47","WebKit","Edge","106.0.1370.47","Windows","10.0","","","",""
"","","","","","html-button-response","2","5122275","0.0-2.0","62","1","2022-10-20 08:58:24","d60b49b5908c80e163b920d72b52d584","218.64.115.222","Mozilla/5.0 (Windows NT 10.0; Win64; x64) AppleWebKit/537.36 (KHTML, like Gecko) Chrome/106.0.0.0 Safari/537.36 Edg/106.0.1370.47","WebKit","Edge","106.0.1370.47","Windows","10.0","1476","<p style=""font-size:20px;font-weight:bold;"">实验知情同意书</p><p style=""text-align:left;""><strong>实验名称：</strong>社会冲突研究</p><p style=""text-align:left;""><strong>主要研究者：</strong>韩晓春副教授（北京师范大学心理学部）</p><p style=""text-align:left;""><strong>联系方式：</strong>发送邮件至xiaochun.han@bnu.edu.cn</p><p style=""text-align:left;""><strong>研究目的：</strong>研究旨在了解人类面对群体冲突时的决策方式，以及相关的心理学特质。实验调查大约需要20分钟。</p><p style=""text-align:left;""><strong>实验流程：</strong>实验包含两部分。第一部分呈现一系列群体冲突场景，请你决定如何对这些冲突进行反应，大约需要10分钟完成。第二部分包含一系列人口统计学信息收集和心理学问卷，大约需要10分钟完成。</p><p style=""text-align:left;""><strong>参加及退出规则：</strong>参加本实验完全取决于您的个人意愿。在参与过程中，您可以随时退出，并且不用承担任何后果。</p><p style=""text-align:left;""><strong>隐私：</strong>本实验完全匿名进行，不会收集您的姓名或其他能够识别您身份的信息。实验中收集的作答仅用作科学研究使用，可能会在学术期刊/书籍上发表，或者用于教学，您的数据未来可能会和其他研究者或实验室分享，但您的个人身份不会被识别。</p><p style=""text-align:left;""><strong>实验报酬：</strong>实验完成后，您将获得15元人民币报酬，以感谢您的时间和努力。调查问卷中包含几道题目用以测验您作答时的认真度。只有完成全部实验，并且正确回答认真度测验的被试才能获得实验报酬。实验报酬将通过支付宝转账发放。</p><p style=""text-align:left;font-size:20px;""><strong>如果您同意以上实验知情同意书的内容，请点击'同意并且开始实验'按钮；否则请关闭浏览器界面，退出实验。</strong></p>","0",""
"","","","","","html-button-response","3","5125938","0.0-3.0","62","1","2022-10-20 08:58:24","d60b49b5908c80e163b920d72b52d584","218.64.115.222","Mozilla/5.0 (Windows NT 10.0; Win64; x64) AppleWebKit/537.36 (KHTML, like Gecko) Chrome/106.0.0.0 Safari/537.36 Edg/106.0.1370.47","WebKit","Edge","106.0.1370.47","Windows","10.0","3663","<p ><strong>实验任务一：</strong></p><p>请想象你的国家与另一个国家发生了军事冲突。</p><p>你是国家军队的指挥官，你将如何在冲突中进行决策。</p><p>具体来说，作为军队指挥官，请你决定是否发射导弹进行打击。</p><p>接下来，你会面对一系列场景，请仔细阅读每个场景，然后进行决策。</p><p>这部分实验任务大约需要10分钟。</p><p><strong>实验过程中，请集中注意力。</strong></p>","0",""
"","","","","","html-keyboard-response","4","5126948","0.0-4.0-0.0","62","1","2022-10-20 08:58:24","d60b49b5908c80e163b920d72b52d584","218.64.115.222","Mozilla/5.0 (Windows NT 10.0; Win64; x64) AppleWebKit/537.36 (KHTML, like Gecko) Chrome/106.0.0.0 Safari/537.36 Edg/106.0.1370.47","WebKit","Edge","106.0.1370.47","Windows","10.0","null","<div style=""font-size:60px;"">+</div>","null",""
"","","","","","html-button-response","5","5129082","0.0-4.0-1.0","62","1","2022-10-20 08:58:24","d60b49b5908c80e163b920d72b52d584","218.64.115.222","Mozilla/5.0 (Windows NT 10.0; Win64; x64) AppleWebKit/537.36 (KHTML, like Gecko) Chrome/106.0.0.0 Safari/537.36 Edg/106.0.1370.47","WebKit","Edge","106.0.1370.47","Windows","10.0","2132","<p>作为军队的指挥官，你可以选择发射导弹杀死 <strong>4名</strong> 敌国士兵，但会误杀附近的 <strong>1名</strong> 敌国平民。</p> <p>平民照片如下图所示。</p> <p></p> <img src='stimuli/faces/NCF1.jpg', style='max-width: 30%;'> </img> <p><strong>你是否选择发射武器？</strong></p>","1",""
"","","","","","html-keyboard-response","6","5130100","0.0-4.0-0.1","62","1","2022-10-20 08:58:24","d60b49b5908c80e163b920d72b52d584","218.64.115.222","Mozilla/5.0 (Windows NT 10.0; Win64; x64) AppleWebKit/537.36 (KHTML, like Gecko) Chrome/106.0.0.0 Safari/537.36 Edg/106.0.1370.47","WebKit","Edge","106.0.1370.47","Windows","10.0","null","<div style=""font-size:60px;"">+</div>","null",""
"","","","","","html-button-response","7","5131538","0.0-4.0-1.1","62","1","2022-10-20 08:58:24","d60b49b5908c80e163b920d72b52d584","218.64.115.222","Mozilla/5.0 (Windows NT 10.0; Win64; x64) AppleWebKit/537.36 (KHTML, like Gecko) Chrome/106.0.0.0 Safari/537.36 Edg/106.0.1370.47","WebKit","Edge","106.0.1370.47","Windows","10.0","1437","<p>作为军队的指挥官，你可以选择发射导弹杀死 <strong>4名</strong> 敌国士兵，但会炸毁附近的 <strong>1棵</strong> 敌国树木。</p> <p>树木的照片如下图所示。</p> <p></p> <img src='stimuli/trees/4.png', style='max-width: 30%;'> </img> <p><strong>你是否选择发射武器？</strong></p>","0",""
"","","","","","html-keyboard-response","8","5132552","0.0-4.0-0.2","62","1","2022-10-20 08:58:24","d60b49b5908c80e163b920d72b52d584","218.64.115.222","Mozilla/5.0 (Windows NT 10.0; Win64; x64) AppleWebKit/537.36 (KHTML, like Gecko) Chrome/106.0.0.0 Safari/537.36 Edg/106.0.1370.47","WebKit","Edge","106.0.1370.47","Windows","10.0","null","<div style=""font-size:60px;"">+</div>","null",""
"","","","","","html-button-response","9","5141306","0.0-4.0-1.2","62","1","2022-10-20 08:58:24","d60b49b5908c80e163b920d72b52d584","218.64.115.222","Mozilla/5.0 (Windows NT 10.0; Win64; x64) AppleWebKit/537.36 (KHTML, like Gecko) Chrome/106.0.0.0 Safari/537.36 Edg/106.0.1370.47","WebKit","Edge","106.0.1370.47","Windows","10.0","8753","<p>作为军队的指挥官，你可以选择发射导弹杀死 <strong>3名</strong> 敌国士兵，但会炸毁附近的 <strong>1棵</strong> 敌国树木。</p> <p>树木的照片如下图所示。</p> <p></p> <img src='stimuli/trees/12.png', style='max-width: 30%;'> </img> <p><strong>你是否选择发射武器？</strong></p>","0",""
"","","","","","html-keyboard-response","10","5142324","0.0-4.0-0.3","62","1","2022-10-20 08:58:24","d60b49b5908c80e163b920d72b52d584","218.64.115.222","Mozilla/5.0 (Windows NT 10.0; Win64; x64) AppleWebKit/537.36 (KHTML, like Gecko) Chrome/106.0.0.0 Safari/537.36 Edg/106.0.1370.47","WebKit","Edge","106.0.1370.47","Windows","10.0","null","<div style=""font-size:60px;"">+</div>","null",""
"","","","","","html-button-response","11","5145922","0.0-4.0-1.3","62","1","2022-10-20 08:58:24","d60b49b5908c80e163b920d72b52d584","218.64.115.222","Mozilla/5.0 (Windows NT 10.0; Win64; x64) AppleWebKit/537.36 (KHTML, like Gecko) Chrome/106.0.0.0 Safari/537.36 Edg/106.0.1370.47","WebKit","Edge","106.0.1370.47","Windows","10.0","3597","<p>作为军队的指挥官，你可以选择发射导弹杀死 <strong>5名</strong> 敌国士兵，但会炸毁附近的 <strong>1棵</strong> 敌国树木。</p> <p>树木的照片如下图所示。</p> <p></p> <img src='stimuli/trees/1.png', style='max-width: 30%;'> </img> <p><strong>你是否选择发射武器？</strong></p>","1",""
"","","","","","html-keyboard-response","12","5146939","0.0-4.0-0.4","62","1","2022-10-20 08:58:24","d60b49b5908c80e163b920d72b52d584","218.64.115.222","Mozilla/5.0 (Windows NT 10.0; Win64; x64) AppleWebKit/537.36 (KHTML, like Gecko) Chrome/106.0.0.0 Safari/537.36 Edg/106.0.1370.47","WebKit","Edge","106.0.1370.47","Windows","10.0","null","<div style=""font-size:60px;"">+</div>","null",""
"","","","","","html-button-response","13","5148138","0.0-4.0-1.4","62","1","2022-10-20 08:58:24","d60b49b5908c80e163b920d72b52d584","218.64.115.222","Mozilla/5.0 (Windows NT 10.0; Win64; x64) AppleWebKit/537.36 (KHTML, like Gecko) Chrome/106.0.0.0 Safari/537.36 Edg/106.0.1370.47","WebKit","Edge","106.0.1370.47","Windows","10.0","1198","<p>作为军队的指挥官，你可以选择发射导弹杀死 <strong>7名</strong> 敌国士兵，但会误杀附近的 <strong>1名</strong> 敌国平民。</p> <p>平民照片如下图所示。</p> <p></p> <img src='stimuli/faces/NCM8.jpg', style='max-width: 30%;'> </img> <p><strong>你是否选择发射武器？</strong></p>","1",""
"","","","","","html-keyboard-response","14","5149140","0.0-4.0-0.5","62","1","2022-10-20 08:58:24","d60b49b5908c80e163b920d72b52d584","218.64.115.222","Mozilla/5.0 (Windows NT 10.0; Win64; x64) AppleWebKit/537.36 (KHTML, like Gecko) Chrome/106.0.0.0 Safari/537.36 Edg/106.0.1370.47","WebKit","Edge","106.0.1370.47","Windows","10.0","null","<div style=""font-size:60px;"">+</div>","null",""
"","","","","","html-button-response","15","5151243","0.0-4.0-1.5","62","1","2022-10-20 08:58:24","d60b49b5908c80e163b920d72b52d584","218.64.115.222","Mozilla/5.0 (Windows NT 10.0; Win64; x64) AppleWebKit/537.36 (KHTML, like Gecko) Chrome/106.0.0.0 Safari/537.36 Edg/106.0.1370.47","WebKit","Edge","106.0.1370.47","Windows","10.0","2102","<p>作为军队的指挥官，你可以选择发射导弹杀死 <strong>10名</strong> 敌国士兵，但会误杀附近的 <strong>1名</strong> 敌国平民。</p> <p>平民照片如下图所示。</p> <p></p> <img src='stimuli/faces/NCF5.jpg', style='max-width: 30%;'> </img> <p><strong>你是否选择发射武器？</strong></p>","1",""
"","","","","","html-keyboard-response","16","5152245","0.0-4.0-0.6","62","1","2022-10-20 08:58:24","d60b49b5908c80e163b920d72b52d584","218.64.115.222","Mozilla/5.0 (Windows NT 10.0; Win64; x64) AppleWebKit/537.36 (KHTML, like Gecko) Chrome/106.0.0.0 Safari/537.36 Edg/106.0.1370.47","WebKit","Edge","106.0.1370.47","Windows","10.0","null","<div style=""font-size:60px;"">+</div>","null",""
"","","","","","html-button-response","17","5153458","0.0-4.0-1.6","62","1","2022-10-20 08:58:24","d60b49b5908c80e163b920d72b52d584","218.64.115.222","Mozilla/5.0 (Windows NT 10.0; Win64; x64) AppleWebKit/537.36 (KHTML, like Gecko) Chrome/106.0.0.0 Safari/537.36 Edg/106.0.1370.47","WebKit","Edge","106.0.1370.47","Windows","10.0","1212","<p>作为军队的指挥官，你可以选择发射导弹杀死 <strong>9名</strong> 敌国士兵，但会误杀附近的 <strong>1名</strong> 敌国平民。</p> <p>平民照片如下图所示。</p> <p></p> <img src='stimuli/faces/NCF7.jpg', style='max-width: 30%;'> </img> <p><strong>你是否选择发射武器？</strong></p>","1",""
"","","","","","html-keyboard-response","18","5154471","0.0-4.0-0.7","62","1","2022-10-20 08:58:24","d60b49b5908c80e163b920d72b52d584","218.64.115.222","Mozilla/5.0 (Windows NT 10.0; Win64; x64) AppleWebKit/537.36 (KHTML, like Gecko) Chrome/106.0.0.0 Safari/537.36 Edg/106.0.1370.47","WebKit","Edge","106.0.1370.47","Windows","10.0","null","<div style=""font-size:60px;"">+</div>","null",""
"","","","","","html-button-response","19","5156050","0.0-4.0-1.7","62","1","2022-10-20 08:58:24","d60b49b5908c80e163b920d72b52d584","218.64.115.222","Mozilla/5.0 (Windows NT 10.0; Win64; x64) AppleWebKit/537.36 (KHTML, like Gecko) Chrome/106.0.0.0 Safari/537.36 Edg/106.0.1370.47","WebKit","Edge","106.0.1370.47","Windows","10.0","1577","<p>作为军队的指挥官，你可以选择发射导弹杀死 <strong>3名</strong> 敌国士兵，但会炸毁附近的 <strong>1棵</strong> 敌国树木。</p> <p>树木的照片如下图所示。</p> <p></p> <img src='stimuli/trees/6.png', style='max-width: 30%;'> </img> <p><strong>你是否选择发射武器？</strong></p>","0",""
"","","","","","html-keyboard-response","20","5157057","0.0-4.0-0.8","62","1","2022-10-20 08:58:24","d60b49b5908c80e163b920d72b52d584","218.64.115.222","Mozilla/5.0 (Windows NT 10.0; Win64; x64) AppleWebKit/537.36 (KHTML, like Gecko) Chrome/106.0.0.0 Safari/537.36 Edg/106.0.1370.47","WebKit","Edge","106.0.1370.47","Windows","10.0","null","<div style=""font-size:60px;"">+</div>","null",""
"","","","","","html-button-response","21","5159706","0.0-4.0-1.8","62","1","2022-10-20 08:58:24","d60b49b5908c80e163b920d72b52d584","218.64.115.222","Mozilla/5.0 (Windows NT 10.0; Win64; x64) AppleWebKit/537.36 (KHTML, like Gecko) Chrome/106.0.0.0 Safari/537.36 Edg/106.0.1370.47","WebKit","Edge","106.0.1370.47","Windows","10.0","2648","<p>作为军队的指挥官，你可以选择发射导弹杀死 <strong>2名</strong> 敌国士兵，但会误杀附近的 <strong>1名</strong> 敌国平民。</p> <p>平民照片如下图所示。</p> <p></p> <img src='stimuli/faces/NCF6.jpg', style='max-width: 30%;'> </img> <p><strong>你是否选择发射武器？</strong></p>","1",""
"","","","","","html-keyboard-response","22","5160711","0.0-4.0-0.9","62","1","2022-10-20 08:58:24","d60b49b5908c80e163b920d72b52d584","218.64.115.222","Mozilla/5.0 (Windows NT 10.0; Win64; x64) AppleWebKit/537.36 (KHTML, like Gecko) Chrome/106.0.0.0 Safari/537.36 Edg/106.0.1370.47","WebKit","Edge","106.0.1370.47","Windows","10.0","null","<div style=""font-size:60px;"">+</div>","null",""
"","","","","","html-button-response","23","5167074","0.0-4.0-1.9","62","1","2022-10-20 08:58:24","d60b49b5908c80e163b920d72b52d584","218.64.115.222","Mozilla/5.0 (Windows NT 10.0; Win64; x64) AppleWebKit/537.36 (KHTML, like Gecko) Chrome/106.0.0.0 Safari/537.36 Edg/106.0.1370.47","WebKit","Edge","106.0.1370.47","Windows","10.0","6361","<p>作为军队的指挥官，你可以选择发射导弹杀死 <strong>6名</strong> 敌国士兵，但会误杀附近的 <strong>1名</strong> 敌国平民。</p> <p>平民照片如下图所示。</p> <p></p> <img src='stimuli/faces/NCM1.jpg', style='max-width: 30%;'> </img> <p><strong>你是否选择发射武器？</strong></p>","1",""
"","","","","","html-keyboard-response","24","5168079","0.0-4.0-0.10","62","1","2022-10-20 08:58:24","d60b49b5908c80e163b920d72b52d584","218.64.115.222","Mozilla/5.0 (Windows NT 10.0; Win64; x64) AppleWebKit/537.36 (KHTML, like Gecko) Chrome/106.0.0.0 Safari/537.36 Edg/106.0.1370.47","WebKit","Edge","106.0.1370.47","Windows","10.0","null","<div style=""font-size:60px;"">+</div>","null",""
"","","","","","html-button-response","25","5174930","0.0-4.0-1.10","62","1","2022-10-20 08:58:24","d60b49b5908c80e163b920d72b52d584","218.64.115.222","Mozilla/5.0 (Windows NT 10.0; Win64; x64) AppleWebKit/537.36 (KHTML, like Gecko) Chrome/106.0.0.0 Safari/537.36 Edg/106.0.1370.47","WebKit","Edge","106.0.1370.47","Windows","10.0","6850","<p>作为军队的指挥官，你可以选择发射导弹杀死 <strong>9名</strong> 敌国士兵，但会炸毁附近的 <strong>1棵</strong> 敌国树木。</p> <p>树木的照片如下图所示。</p> <p></p> <img src='stimuli/trees/9.png', style='max-width: 30%;'> </img> <p><strong>你是否选择发射武器？</strong></p>","0",""
"","","","","","html-keyboard-response","26","5175932","0.0-4.0-0.11","62","1","2022-10-20 08:58:24","d60b49b5908c80e163b920d72b52d584","218.64.115.222","Mozilla/5.0 (Windows NT 10.0; Win64; x64) AppleWebKit/537.36 (KHTML, like Gecko) Chrome/106.0.0.0 Safari/537.36 Edg/106.0.1370.47","WebKit","Edge","106.0.1370.47","Windows","10.0","null","<div style=""font-size:60px;"">+</div>","null",""
"","","","","","html-button-response","27","5178138","0.0-4.0-1.11","62","1","2022-10-20 08:58:24","d60b49b5908c80e163b920d72b52d584","218.64.115.222","Mozilla/5.0 (Windows NT 10.0; Win64; x64) AppleWebKit/537.36 (KHTML, like Gecko) Chrome/106.0.0.0 Safari/537.36 Edg/106.0.1370.47","WebKit","Edge","106.0.1370.47","Windows","10.0","2205","<p>作为军队的指挥官，你可以选择发射导弹杀死 <strong>5名</strong> 敌国士兵，但会炸毁附近的 <strong>1棵</strong> 敌国树木。</p> <p>树木的照片如下图所示。</p> <p></p> <img src='stimuli/trees/14.png', style='max-width: 30%;'> </img> <p><strong>你是否选择发射武器？</strong></p>","1",""
"","","","","","html-keyboard-response","28","5179142","0.0-4.0-0.12","62","1","2022-10-20 08:58:24","d60b49b5908c80e163b920d72b52d584","218.64.115.222","Mozilla/5.0 (Windows NT 10.0; Win64; x64) AppleWebKit/537.36 (KHTML, like Gecko) Chrome/106.0.0.0 Safari/537.36 Edg/106.0.1370.47","WebKit","Edge","106.0.1370.47","Windows","10.0","null","<div style=""font-size:60px;"">+</div>","null",""
"","","","","","html-button-response","29","5182394","0.0-4.0-1.12","62","1","2022-10-20 08:58:24","d60b49b5908c80e163b920d72b52d584","218.64.115.222","Mozilla/5.0 (Windows NT 10.0; Win64; x64) AppleWebKit/537.36 (KHTML, like Gecko) Chrome/106.0.0.0 Safari/537.36 Edg/106.0.1370.47","WebKit","Edge","106.0.1370.47","Windows","10.0","3251","<p>作为军队的指挥官，你可以选择发射导弹杀死 <strong>9名</strong> 敌国士兵，但会炸毁附近的 <strong>1棵</strong> 敌国树木。</p> <p>树木的照片如下图所示。</p> <p></p> <img src='stimuli/trees/1.png', style='max-width: 30%;'> </img> <p><strong>你是否选择发射武器？</strong></p>","1",""
"","","","","","html-keyboard-response","30","5183404","0.0-4.0-0.13","62","1","2022-10-20 08:58:24","d60b49b5908c80e163b920d72b52d584","218.64.115.222","Mozilla/5.0 (Windows NT 10.0; Win64; x64) AppleWebKit/537.36 (KHTML, like Gecko) Chrome/106.0.0.0 Safari/537.36 Edg/106.0.1370.47","WebKit","Edge","106.0.1370.47","Windows","10.0","null","<div style=""font-size:60px;"">+</div>","null",""
"","","","","","html-button-response","31","5196354","0.0-4.0-1.13","62","1","2022-10-20 08:58:24","d60b49b5908c80e163b920d72b52d584","218.64.115.222","Mozilla/5.0 (Windows NT 10.0; Win64; x64) AppleWebKit/537.36 (KHTML, like Gecko) Chrome/106.0.0.0 Safari/537.36 Edg/106.0.1370.47","WebKit","Edge","106.0.1370.47","Windows","10.0","12949","<p>作为军队的指挥官，你可以选择发射导弹杀死 <strong>3名</strong> 敌国士兵，但会炸毁附近的 <strong>1棵</strong> 敌国树木。</p> <p>树木的照片如下图所示。</p> <p></p> <img src='stimuli/trees/11.png', style='max-width: 30%;'> </img> <p><strong>你是否选择发射武器？</strong></p>","0",""
"","","","","","html-keyboard-response","32","5197361","0.0-4.0-0.14","62","1","2022-10-20 08:58:24","d60b49b5908c80e163b920d72b52d584","218.64.115.222","Mozilla/5.0 (Windows NT 10.0; Win64; x64) AppleWebKit/537.36 (KHTML, like Gecko) Chrome/106.0.0.0 Safari/537.36 Edg/106.0.1370.47","WebKit","Edge","106.0.1370.47","Windows","10.0","null","<div style=""font-size:60px;"">+</div>","null",""
"","","","","","html-button-response","33","5200298","0.0-4.0-1.14","62","1","2022-10-20 08:58:24","d60b49b5908c80e163b920d72b52d584","218.64.115.222","Mozilla/5.0 (Windows NT 10.0; Win64; x64) AppleWebKit/537.36 (KHTML, like Gecko) Chrome/106.0.0.0 Safari/537.36 Edg/106.0.1370.47","WebKit","Edge","106.0.1370.47","Windows","10.0","2935","<p>作为军队的指挥官，你可以选择发射导弹杀死 <strong>10名</strong> 敌国士兵，但会误杀附近的 <strong>1名</strong> 敌国平民。</p> <p>平民照片如下图所示。</p> <p></p> <img src='stimuli/faces/NCF6.jpg', style='max-width: 30%;'> </img> <p><strong>你是否选择发射武器？</strong></p>","1",""
"","","","","","html-keyboard-response","34","5201301","0.0-4.0-0.15","62","1","2022-10-20 08:58:24","d60b49b5908c80e163b920d72b52d584","218.64.115.222","Mozilla/5.0 (Windows NT 10.0; Win64; x64) AppleWebKit/537.36 (KHTML, like Gecko) Chrome/106.0.0.0 Safari/537.36 Edg/106.0.1370.47","WebKit","Edge","106.0.1370.47","Windows","10.0","null","<div style=""font-size:60px;"">+</div>","null",""
"","","","","","html-button-response","35","5204810","0.0-4.0-1.15","62","1","2022-10-20 08:58:24","d60b49b5908c80e163b920d72b52d584","218.64.115.222","Mozilla/5.0 (Windows NT 10.0; Win64; x64) AppleWebKit/537.36 (KHTML, like Gecko) Chrome/106.0.0.0 Safari/537.36 Edg/106.0.1370.47","WebKit","Edge","106.0.1370.47","Windows","10.0","3508","<p>作为军队的指挥官，你可以选择发射导弹杀死 <strong>6名</strong> 敌国士兵，但会炸毁附近的 <strong>1棵</strong> 敌国树木。</p> <p>树木的照片如下图所示。</p> <p></p> <img src='stimuli/trees/5.png', style='max-width: 30%;'> </img> <p><strong>你是否选择发射武器？</strong></p>","0",""
"","","","","","html-keyboard-response","36","5205824","0.0-4.0-0.16","62","1","2022-10-20 08:58:24","d60b49b5908c80e163b920d72b52d584","218.64.115.222","Mozilla/5.0 (Windows NT 10.0; Win64; x64) AppleWebKit/537.36 (KHTML, like Gecko) Chrome/106.0.0.0 Safari/537.36 Edg/106.0.1370.47","WebKit","Edge","106.0.1370.47","Windows","10.0","null","<div style=""font-size:60px;"">+</div>","null",""
"","","","","","html-button-response","37","5208859","0.0-4.0-1.16","62","1","2022-10-20 08:58:24","d60b49b5908c80e163b920d72b52d584","218.64.115.222","Mozilla/5.0 (Windows NT 10.0; Win64; x64) AppleWebKit/537.36 (KHTML, like Gecko) Chrome/106.0.0.0 Safari/537.36 Edg/106.0.1370.47","WebKit","Edge","106.0.1370.47","Windows","10.0","3034","<p>作为军队的指挥官，你可以选择发射导弹杀死 <strong>7名</strong> 敌国士兵，但会误杀附近的 <strong>1名</strong> 敌国平民。</p> <p>平民照片如下图所示。</p> <p></p> <img src='stimuli/faces/NCF4.jpg', style='max-width: 30%;'> </img> <p><strong>你是否选择发射武器？</strong></p>","1",""
"","","","","","html-keyboard-response","38","5209872","0.0-4.0-0.17","62","1","2022-10-20 08:58:24","d60b49b5908c80e163b920d72b52d584","218.64.115.222","Mozilla/5.0 (Windows NT 10.0; Win64; x64) AppleWebKit/537.36 (KHTML, like Gecko) Chrome/106.0.0.0 Safari/537.36 Edg/106.0.1370.47","WebKit","Edge","106.0.1370.47","Windows","10.0","null","<div style=""font-size:60px;"">+</div>","null",""
"","","","","","html-button-response","39","5212363","0.0-4.0-1.17","62","1","2022-10-20 08:58:24","d60b49b5908c80e163b920d72b52d584","218.64.115.222","Mozilla/5.0 (Windows NT 10.0; Win64; x64) AppleWebKit/537.36 (KHTML, like Gecko) Chrome/106.0.0.0 Safari/537.36 Edg/106.0.1370.47","WebKit","Edge","106.0.1370.47","Windows","10.0","2489","<p>作为军队的指挥官，你可以选择发射导弹杀死 <strong>7名</strong> 敌国士兵，但会误杀附近的 <strong>1名</strong> 敌国平民。</p> <p>平民照片如下图所示。</p> <p></p> <img src='stimuli/faces/NCM4.jpg', style='max-width: 30%;'> </img> <p><strong>你是否选择发射武器？</strong></p>","1",""
"","","","","","html-keyboard-response","40","5213372","0.0-4.0-0.18","62","1","2022-10-20 08:58:24","d60b49b5908c80e163b920d72b52d584","218.64.115.222","Mozilla/5.0 (Windows NT 10.0; Win64; x64) AppleWebKit/537.36 (KHTML, like Gecko) Chrome/106.0.0.0 Safari/537.36 Edg/106.0.1370.47","WebKit","Edge","106.0.1370.47","Windows","10.0","null","<div style=""font-size:60px;"">+</div>","null",""
"","","","","","html-button-response","41","5214530","0.0-4.0-1.18","62","1","2022-10-20 08:58:24","d60b49b5908c80e163b920d72b52d584","218.64.115.222","Mozilla/5.0 (Windows NT 10.0; Win64; x64) AppleWebKit/537.36 (KHTML, like Gecko) Chrome/106.0.0.0 Safari/537.36 Edg/106.0.1370.47","WebKit","Edge","106.0.1370.47","Windows","10.0","1156","<p>作为军队的指挥官，你可以选择发射导弹杀死 <strong>4名</strong> 敌国士兵，但会误杀附近的 <strong>1名</strong> 敌国平民。</p> <p>平民照片如下图所示。</p> <p></p> <img src='stimuli/faces/NCF3.jpg', style='max-width: 30%;'> </img> <p><strong>你是否选择发射武器？</strong></p>","1",""
"","","","","","html-keyboard-response","42","5215543","0.0-4.0-0.19","62","1","2022-10-20 08:58:24","d60b49b5908c80e163b920d72b52d584","218.64.115.222","Mozilla/5.0 (Windows NT 10.0; Win64; x64) AppleWebKit/537.36 (KHTML, like Gecko) Chrome/106.0.0.0 Safari/537.36 Edg/106.0.1370.47","WebKit","Edge","106.0.1370.47","Windows","10.0","null","<div style=""font-size:60px;"">+</div>","null",""
"","","","","","html-button-response","43","5216938","0.0-4.0-1.19","62","1","2022-10-20 08:58:24","d60b49b5908c80e163b920d72b52d584","218.64.115.222","Mozilla/5.0 (Windows NT 10.0; Win64; x64) AppleWebKit/537.36 (KHTML, like Gecko) Chrome/106.0.0.0 Safari/537.36 Edg/106.0.1370.47","WebKit","Edge","106.0.1370.47","Windows","10.0","1394","<p>作为军队的指挥官，你可以选择发射导弹杀死 <strong>5名</strong> 敌国士兵，但会炸毁附近的 <strong>1棵</strong> 敌国树木。</p> <p>树木的照片如下图所示。</p> <p></p> <img src='stimuli/trees/5.png', style='max-width: 30%;'> </img> <p><strong>你是否选择发射武器？</strong></p>","0",""
"","","","","","html-keyboard-response","44","5217953","0.0-4.0-0.20","62","1","2022-10-20 08:58:24","d60b49b5908c80e163b920d72b52d584","218.64.115.222","Mozilla/5.0 (Windows NT 10.0; Win64; x64) AppleWebKit/537.36 (KHTML, like Gecko) Chrome/106.0.0.0 Safari/537.36 Edg/106.0.1370.47","WebKit","Edge","106.0.1370.47","Windows","10.0","null","<div style=""font-size:60px;"">+</div>","null",""
"","","","","","html-button-response","45","5220226","0.0-4.0-1.20","62","1","2022-10-20 08:58:24","d60b49b5908c80e163b920d72b52d584","218.64.115.222","Mozilla/5.0 (Windows NT 10.0; Win64; x64) AppleWebKit/537.36 (KHTML, like Gecko) Chrome/106.0.0.0 Safari/537.36 Edg/106.0.1370.47","WebKit","Edge","106.0.1370.47","Windows","10.0","2272","<p>作为军队的指挥官，你可以选择发射导弹杀死 <strong>5名</strong> 敌国士兵，但会误杀附近的 <strong>1名</strong> 敌国平民。</p> <p>平民照片如下图所示。</p> <p></p> <img src='stimuli/faces/NCM8.jpg', style='max-width: 30%;'> </img> <p><strong>你是否选择发射武器？</strong></p>","1",""
"","","","","","html-keyboard-response","46","5221233","0.0-4.0-0.21","62","1","2022-10-20 08:58:24","d60b49b5908c80e163b920d72b52d584","218.64.115.222","Mozilla/5.0 (Windows NT 10.0; Win64; x64) AppleWebKit/537.36 (KHTML, like Gecko) Chrome/106.0.0.0 Safari/537.36 Edg/106.0.1370.47","WebKit","Edge","106.0.1370.47","Windows","10.0","null","<div style=""font-size:60px;"">+</div>","null",""
"","","","","","html-button-response","47","5225163","0.0-4.0-1.21","62","1","2022-10-20 08:58:24","d60b49b5908c80e163b920d72b52d584","218.64.115.222","Mozilla/5.0 (Windows NT 10.0; Win64; x64) AppleWebKit/537.36 (KHTML, like Gecko) Chrome/106.0.0.0 Safari/537.36 Edg/106.0.1370.47","WebKit","Edge","106.0.1370.47","Windows","10.0","3928","<p>作为军队的指挥官，你可以选择发射导弹杀死 <strong>10名</strong> 敌国士兵，但会炸毁附近的 <strong>1棵</strong> 敌国树木。</p> <p>树木的照片如下图所示。</p> <p></p> <img src='stimuli/trees/13.png', style='max-width: 30%;'> </img> <p><strong>你是否选择发射武器？</strong></p>","1",""
"","","","","","html-keyboard-response","48","5226172","0.0-4.0-0.22","62","1","2022-10-20 08:58:24","d60b49b5908c80e163b920d72b52d584","218.64.115.222","Mozilla/5.0 (Windows NT 10.0; Win64; x64) AppleWebKit/537.36 (KHTML, like Gecko) Chrome/106.0.0.0 Safari/537.36 Edg/106.0.1370.47","WebKit","Edge","106.0.1370.47","Windows","10.0","null","<div style=""font-size:60px;"">+</div>","null",""
"","","","","","html-button-response","49","5228004","0.0-4.0-1.22","62","1","2022-10-20 08:58:24","d60b49b5908c80e163b920d72b52d584","218.64.115.222","Mozilla/5.0 (Windows NT 10.0; Win64; x64) AppleWebKit/537.36 (KHTML, like Gecko) Chrome/106.0.0.0 Safari/537.36 Edg/106.0.1370.47","WebKit","Edge","106.0.1370.47","Windows","10.0","1830","<p>作为军队的指挥官，你可以选择发射导弹杀死 <strong>9名</strong> 敌国士兵，但会误杀附近的 <strong>1名</strong> 敌国平民。</p> <p>平民照片如下图所示。</p> <p></p> <img src='stimuli/faces/NCM2.jpg', style='max-width: 30%;'> </img> <p><strong>你是否选择发射武器？</strong></p>","1",""
"","","","","","html-keyboard-response","50","5229011","0.0-4.0-0.23","62","1","2022-10-20 08:58:24","d60b49b5908c80e163b920d72b52d584","218.64.115.222","Mozilla/5.0 (Windows NT 10.0; Win64; x64) AppleWebKit/537.36 (KHTML, like Gecko) Chrome/106.0.0.0 Safari/537.36 Edg/106.0.1370.47","WebKit","Edge","106.0.1370.47","Windows","10.0","null","<div style=""font-size:60px;"">+</div>","null",""
"","","","","","html-button-response","51","5231466","0.0-4.0-1.23","62","1","2022-10-20 08:58:24","d60b49b5908c80e163b920d72b52d584","218.64.115.222","Mozilla/5.0 (Windows NT 10.0; Win64; x64) AppleWebKit/537.36 (KHTML, like Gecko) Chrome/106.0.0.0 Safari/537.36 Edg/106.0.1370.47","WebKit","Edge","106.0.1370.47","Windows","10.0","2454","<p>作为军队的指挥官，你可以选择发射导弹杀死 <strong>3名</strong> 敌国士兵，但会炸毁附近的 <strong>1棵</strong> 敌国树木。</p> <p>树木的照片如下图所示。</p> <p></p> <img src='stimuli/trees/9.png', style='max-width: 30%;'> </img> <p><strong>你是否选择发射武器？</strong></p>","0",""
"","","","","","html-keyboard-response","52","5232468","0.0-4.0-0.24","62","1","2022-10-20 08:58:24","d60b49b5908c80e163b920d72b52d584","218.64.115.222","Mozilla/5.0 (Windows NT 10.0; Win64; x64) AppleWebKit/537.36 (KHTML, like Gecko) Chrome/106.0.0.0 Safari/537.36 Edg/106.0.1370.47","WebKit","Edge","106.0.1370.47","Windows","10.0","null","<div style=""font-size:60px;"">+</div>","null",""
"","","","","","html-button-response","53","5234579","0.0-4.0-1.24","62","1","2022-10-20 08:58:24","d60b49b5908c80e163b920d72b52d584","218.64.115.222","Mozilla/5.0 (Windows NT 10.0; Win64; x64) AppleWebKit/537.36 (KHTML, like Gecko) Chrome/106.0.0.0 Safari/537.36 Edg/106.0.1370.47","WebKit","Edge","106.0.1370.47","Windows","10.0","2109","<p>作为军队的指挥官，你可以选择发射导弹杀死 <strong>5名</strong> 敌国士兵，但会误杀附近的 <strong>1名</strong> 敌国平民。</p> <p>平民照片如下图所示。</p> <p></p> <img src='stimuli/faces/NCM3.jpg', style='max-width: 30%;'> </img> <p><strong>你是否选择发射武器？</strong></p>","1",""
"","","","","","html-keyboard-response","54","5235584","0.0-4.0-0.25","62","1","2022-10-20 08:58:24","d60b49b5908c80e163b920d72b52d584","218.64.115.222","Mozilla/5.0 (Windows NT 10.0; Win64; x64) AppleWebKit/537.36 (KHTML, like Gecko) Chrome/106.0.0.0 Safari/537.36 Edg/106.0.1370.47","WebKit","Edge","106.0.1370.47","Windows","10.0","null","<div style=""font-size:60px;"">+</div>","null",""
"","","","","","html-button-response","55","5237755","0.0-4.0-1.25","62","1","2022-10-20 08:58:24","d60b49b5908c80e163b920d72b52d584","218.64.115.222","Mozilla/5.0 (Windows NT 10.0; Win64; x64) AppleWebKit/537.36 (KHTML, like Gecko) Chrome/106.0.0.0 Safari/537.36 Edg/106.0.1370.47","WebKit","Edge","106.0.1370.47","Windows","10.0","2169","<p>作为军队的指挥官，你可以选择发射导弹杀死 <strong>5名</strong> 敌国士兵，但会误杀附近的 <strong>1名</strong> 敌国平民。</p> <p>平民照片如下图所示。</p> <p></p> <img src='stimuli/faces/NCM7.jpg', style='max-width: 30%;'> </img> <p><strong>你是否选择发射武器？</strong></p>","1",""
"","","","","","html-keyboard-response","56","5238771","0.0-4.0-0.26","62","1","2022-10-20 08:58:24","d60b49b5908c80e163b920d72b52d584","218.64.115.222","Mozilla/5.0 (Windows NT 10.0; Win64; x64) AppleWebKit/537.36 (KHTML, like Gecko) Chrome/106.0.0.0 Safari/537.36 Edg/106.0.1370.47","WebKit","Edge","106.0.1370.47","Windows","10.0","null","<div style=""font-size:60px;"">+</div>","null",""
"","","","","","html-button-response","57","5245603","0.0-4.0-1.26","62","1","2022-10-20 08:58:24","d60b49b5908c80e163b920d72b52d584","218.64.115.222","Mozilla/5.0 (Windows NT 10.0; Win64; x64) AppleWebKit/537.36 (KHTML, like Gecko) Chrome/106.0.0.0 Safari/537.36 Edg/106.0.1370.47","WebKit","Edge","106.0.1370.47","Windows","10.0","6830","<p>作为军队的指挥官，你可以选择发射导弹杀死 <strong>4名</strong> 敌国士兵，但会误杀附近的 <strong>1名</strong> 敌国平民。</p> <p>平民照片如下图所示。</p> <p></p> <img src='stimuli/faces/NCM4.jpg', style='max-width: 30%;'> </img> <p><strong>你是否选择发射武器？</strong></p>","1",""
"","","","","","html-keyboard-response","58","5246618","0.0-4.0-0.27","62","1","2022-10-20 08:58:24","d60b49b5908c80e163b920d72b52d584","218.64.115.222","Mozilla/5.0 (Windows NT 10.0; Win64; x64) AppleWebKit/537.36 (KHTML, like Gecko) Chrome/106.0.0.0 Safari/537.36 Edg/106.0.1370.47","WebKit","Edge","106.0.1370.47","Windows","10.0","null","<div style=""font-size:60px;"">+</div>","null",""
"","","","","","html-button-response","59","5250131","0.0-4.0-1.27","62","1","2022-10-20 08:58:24","d60b49b5908c80e163b920d72b52d584","218.64.115.222","Mozilla/5.0 (Windows NT 10.0; Win64; x64) AppleWebKit/537.36 (KHTML, like Gecko) Chrome/106.0.0.0 Safari/537.36 Edg/106.0.1370.47","WebKit","Edge","106.0.1370.47","Windows","10.0","3511","<p>作为军队的指挥官，你可以选择发射导弹杀死 <strong>10名</strong> 敌国士兵，但会炸毁附近的 <strong>1棵</strong> 敌国树木。</p> <p>树木的照片如下图所示。</p> <p></p> <img src='stimuli/trees/15.png', style='max-width: 30%;'> </img> <p><strong>你是否选择发射武器？</strong></p>","1",""
"","","","","","html-keyboard-response","60","5251145","0.0-4.0-0.28","62","1","2022-10-20 08:58:24","d60b49b5908c80e163b920d72b52d584","218.64.115.222","Mozilla/5.0 (Windows NT 10.0; Win64; x64) AppleWebKit/537.36 (KHTML, like Gecko) Chrome/106.0.0.0 Safari/537.36 Edg/106.0.1370.47","WebKit","Edge","106.0.1370.47","Windows","10.0","null","<div style=""font-size:60px;"">+</div>","null",""
"","","","","","html-button-response","61","5256931","0.0-4.0-1.28","62","1","2022-10-20 08:58:24","d60b49b5908c80e163b920d72b52d584","218.64.115.222","Mozilla/5.0 (Windows NT 10.0; Win64; x64) AppleWebKit/537.36 (KHTML, like Gecko) Chrome/106.0.0.0 Safari/537.36 Edg/106.0.1370.47","WebKit","Edge","106.0.1370.47","Windows","10.0","5784","<p>作为军队的指挥官，你可以选择发射导弹杀死 <strong>8名</strong> 敌国士兵，但会误杀附近的 <strong>1名</strong> 敌国平民。</p> <p>平民照片如下图所示。</p> <p></p> <img src='stimuli/faces/NCF2.jpg', style='max-width: 30%;'> </img> <p><strong>你是否选择发射武器？</strong></p>","1",""
"","","","","","html-keyboard-response","62","5257942","0.0-4.0-0.29","62","1","2022-10-20 08:58:24","d60b49b5908c80e163b920d72b52d584","218.64.115.222","Mozilla/5.0 (Windows NT 10.0; Win64; x64) AppleWebKit/537.36 (KHTML, like Gecko) Chrome/106.0.0.0 Safari/537.36 Edg/106.0.1370.47","WebKit","Edge","106.0.1370.47","Windows","10.0","null","<div style=""font-size:60px;"">+</div>","null",""
"","","","","","html-button-response","63","5261091","0.0-4.0-1.29","62","1","2022-10-20 08:58:24","d60b49b5908c80e163b920d72b52d584","218.64.115.222","Mozilla/5.0 (Windows NT 10.0; Win64; x64) AppleWebKit/537.36 (KHTML, like Gecko) Chrome/106.0.0.0 Safari/537.36 Edg/106.0.1370.47","WebKit","Edge","106.0.1370.47","Windows","10.0","3147","<p>作为军队的指挥官，你可以选择发射导弹杀死 <strong>1名</strong> 敌国士兵，但会炸毁附近的 <strong>1棵</strong> 敌国树木。</p> <p>树木的照片如下图所示。</p> <p></p> <img src='stimuli/trees/3.png', style='max-width: 30%;'> </img> <p><strong>你是否选择发射武器？</strong></p>","1",""
"","","","","","html-keyboard-response","64","5262104","0.0-4.0-0.30","62","1","2022-10-20 08:58:24","d60b49b5908c80e163b920d72b52d584","218.64.115.222","Mozilla/5.0 (Windows NT 10.0; Win64; x64) AppleWebKit/537.36 (KHTML, like Gecko) Chrome/106.0.0.0 Safari/537.36 Edg/106.0.1370.47","WebKit","Edge","106.0.1370.47","Windows","10.0","null","<div style=""font-size:60px;"">+</div>","null",""
"","","","","","html-button-response","65","5272395","0.0-4.0-1.30","62","1","2022-10-20 08:58:24","d60b49b5908c80e163b920d72b52d584","218.64.115.222","Mozilla/5.0 (Windows NT 10.0; Win64; x64) AppleWebKit/537.36 (KHTML, like Gecko) Chrome/106.0.0.0 Safari/537.36 Edg/106.0.1370.47","WebKit","Edge","106.0.1370.47","Windows","10.0","10289","<p>作为军队的指挥官，你可以选择发射导弹杀死 <strong>7名</strong> 敌国士兵，但会误杀附近的 <strong>1名</strong> 敌国平民。</p> <p>平民照片如下图所示。</p> <p></p> <img src='stimuli/faces/NCM3.jpg', style='max-width: 30%;'> </img> <p><strong>你是否选择发射武器？</strong></p>","1",""
"","","","","","html-keyboard-response","66","5273406","0.0-4.0-0.31","62","1","2022-10-20 08:58:24","d60b49b5908c80e163b920d72b52d584","218.64.115.222","Mozilla/5.0 (Windows NT 10.0; Win64; x64) AppleWebKit/537.36 (KHTML, like Gecko) Chrome/106.0.0.0 Safari/537.36 Edg/106.0.1370.47","WebKit","Edge","106.0.1370.47","Windows","10.0","null","<div style=""font-size:60px;"">+</div>","null",""
"","","","","","html-button-response","67","5274691","0.0-4.0-1.31","62","1","2022-10-20 08:58:24","d60b49b5908c80e163b920d72b52d584","218.64.115.222","Mozilla/5.0 (Windows NT 10.0; Win64; x64) AppleWebKit/537.36 (KHTML, like Gecko) Chrome/106.0.0.0 Safari/537.36 Edg/106.0.1370.47","WebKit","Edge","106.0.1370.47","Windows","10.0","1282","<p>作为军队的指挥官，你可以选择发射导弹杀死 <strong>9名</strong> 敌国士兵，但会炸毁附近的 <strong>1棵</strong> 敌国树木。</p> <p>树木的照片如下图所示。</p> <p></p> <img src='stimuli/trees/6.png', style='max-width: 30%;'> </img> <p><strong>你是否选择发射武器？</strong></p>","0",""
"","","","","","html-keyboard-response","68","5275693","0.0-4.0-0.32","62","1","2022-10-20 08:58:24","d60b49b5908c80e163b920d72b52d584","218.64.115.222","Mozilla/5.0 (Windows NT 10.0; Win64; x64) AppleWebKit/537.36 (KHTML, like Gecko) Chrome/106.0.0.0 Safari/537.36 Edg/106.0.1370.47","WebKit","Edge","106.0.1370.47","Windows","10.0","null","<div style=""font-size:60px;"">+</div>","null",""
"","","","","","html-button-response","69","5276707","0.0-4.0-1.32","62","1","2022-10-20 08:58:24","d60b49b5908c80e163b920d72b52d584","218.64.115.222","Mozilla/5.0 (Windows NT 10.0; Win64; x64) AppleWebKit/537.36 (KHTML, like Gecko) Chrome/106.0.0.0 Safari/537.36 Edg/106.0.1370.47","WebKit","Edge","106.0.1370.47","Windows","10.0","1012","<p>作为军队的指挥官，你可以选择发射导弹杀死 <strong>9名</strong> 敌国士兵，但会误杀附近的 <strong>1名</strong> 敌国平民。</p> <p>平民照片如下图所示。</p> <p></p> <img src='stimuli/faces/NCF1.jpg', style='max-width: 30%;'> </img> <p><strong>你是否选择发射武器？</strong></p>","1",""
"","","","","","html-keyboard-response","70","5277715","0.0-4.0-0.33","62","1","2022-10-20 08:58:24","d60b49b5908c80e163b920d72b52d584","218.64.115.222","Mozilla/5.0 (Windows NT 10.0; Win64; x64) AppleWebKit/537.36 (KHTML, like Gecko) Chrome/106.0.0.0 Safari/537.36 Edg/106.0.1370.47","WebKit","Edge","106.0.1370.47","Windows","10.0","null","<div style=""font-size:60px;"">+</div>","null",""
"","","","","","html-button-response","71","5278730","0.0-4.0-1.33","62","1","2022-10-20 08:58:24","d60b49b5908c80e163b920d72b52d584","218.64.115.222","Mozilla/5.0 (Windows NT 10.0; Win64; x64) AppleWebKit/537.36 (KHTML, like Gecko) Chrome/106.0.0.0 Safari/537.36 Edg/106.0.1370.47","WebKit","Edge","106.0.1370.47","Windows","10.0","1013","<p>作为军队的指挥官，你可以选择发射导弹杀死 <strong>9名</strong> 敌国士兵，但会炸毁附近的 <strong>1棵</strong> 敌国树木。</p> <p>树木的照片如下图所示。</p> <p></p> <img src='stimuli/trees/3.png', style='max-width: 30%;'> </img> <p><strong>你是否选择发射武器？</strong></p>","1",""
"","","","","","html-keyboard-response","72","5279741","0.0-4.0-0.34","62","1","2022-10-20 08:58:24","d60b49b5908c80e163b920d72b52d584","218.64.115.222","Mozilla/5.0 (Windows NT 10.0; Win64; x64) AppleWebKit/537.36 (KHTML, like Gecko) Chrome/106.0.0.0 Safari/537.36 Edg/106.0.1370.47","WebKit","Edge","106.0.1370.47","Windows","10.0","null","<div style=""font-size:60px;"">+</div>","null",""
"","","","","","html-button-response","73","5282682","0.0-4.0-1.34","62","1","2022-10-20 08:58:24","d60b49b5908c80e163b920d72b52d584","218.64.115.222","Mozilla/5.0 (Windows NT 10.0; Win64; x64) AppleWebKit/537.36 (KHTML, like Gecko) Chrome/106.0.0.0 Safari/537.36 Edg/106.0.1370.47","WebKit","Edge","106.0.1370.47","Windows","10.0","2938","<p>作为军队的指挥官，你可以选择发射导弹杀死 <strong>8名</strong> 敌国士兵，但会误杀附近的 <strong>1名</strong> 敌国平民。</p> <p>平民照片如下图所示。</p> <p></p> <img src='stimuli/faces/NCM6.jpg', style='max-width: 30%;'> </img> <p><strong>你是否选择发射武器？</strong></p>","1",""
"","","","","","html-keyboard-response","74","5283685","0.0-4.0-0.35","62","1","2022-10-20 08:58:24","d60b49b5908c80e163b920d72b52d584","218.64.115.222","Mozilla/5.0 (Windows NT 10.0; Win64; x64) AppleWebKit/537.36 (KHTML, like Gecko) Chrome/106.0.0.0 Safari/537.36 Edg/106.0.1370.47","WebKit","Edge","106.0.1370.47","Windows","10.0","null","<div style=""font-size:60px;"">+</div>","null",""
"","","","","","html-button-response","75","5285179","0.0-4.0-1.35","62","1","2022-10-20 08:58:24","d60b49b5908c80e163b920d72b52d584","218.64.115.222","Mozilla/5.0 (Windows NT 10.0; Win64; x64) AppleWebKit/537.36 (KHTML, like Gecko) Chrome/106.0.0.0 Safari/537.36 Edg/106.0.1370.47","WebKit","Edge","106.0.1370.47","Windows","10.0","1492","<p>作为军队的指挥官，你可以选择发射导弹杀死 <strong>6名</strong> 敌国士兵，但会炸毁附近的 <strong>1棵</strong> 敌国树木。</p> <p>树木的照片如下图所示。</p> <p></p> <img src='stimuli/trees/12.png', style='max-width: 30%;'> </img> <p><strong>你是否选择发射武器？</strong></p>","0",""
"","","","","","html-keyboard-response","76","5286180","0.0-4.0-0.36","62","1","2022-10-20 08:58:24","d60b49b5908c80e163b920d72b52d584","218.64.115.222","Mozilla/5.0 (Windows NT 10.0; Win64; x64) AppleWebKit/537.36 (KHTML, like Gecko) Chrome/106.0.0.0 Safari/537.36 Edg/106.0.1370.47","WebKit","Edge","106.0.1370.47","Windows","10.0","null","<div style=""font-size:60px;"">+</div>","null",""
"","","","","","html-button-response","77","5287315","0.0-4.0-1.36","62","1","2022-10-20 08:58:24","d60b49b5908c80e163b920d72b52d584","218.64.115.222","Mozilla/5.0 (Windows NT 10.0; Win64; x64) AppleWebKit/537.36 (KHTML, like Gecko) Chrome/106.0.0.0 Safari/537.36 Edg/106.0.1370.47","WebKit","Edge","106.0.1370.47","Windows","10.0","1132","<p>作为军队的指挥官，你可以选择发射导弹杀死 <strong>6名</strong> 敌国士兵，但会炸毁附近的 <strong>1棵</strong> 敌国树木。</p> <p>树木的照片如下图所示。</p> <p></p> <img src='stimuli/trees/2.png', style='max-width: 30%;'> </img> <p><strong>你是否选择发射武器？</strong></p>","0",""
"","","","","","html-keyboard-response","78","5288318","0.0-4.0-0.37","62","1","2022-10-20 08:58:24","d60b49b5908c80e163b920d72b52d584","218.64.115.222","Mozilla/5.0 (Windows NT 10.0; Win64; x64) AppleWebKit/537.36 (KHTML, like Gecko) Chrome/106.0.0.0 Safari/537.36 Edg/106.0.1370.47","WebKit","Edge","106.0.1370.47","Windows","10.0","null","<div style=""font-size:60px;"">+</div>","null",""
"","","","","","html-button-response","79","5290131","0.0-4.0-1.37","62","1","2022-10-20 08:58:24","d60b49b5908c80e163b920d72b52d584","218.64.115.222","Mozilla/5.0 (Windows NT 10.0; Win64; x64) AppleWebKit/537.36 (KHTML, like Gecko) Chrome/106.0.0.0 Safari/537.36 Edg/106.0.1370.47","WebKit","Edge","106.0.1370.47","Windows","10.0","1811","<p>作为军队的指挥官，你可以选择发射导弹杀死 <strong>1名</strong> 敌国士兵，但会误杀附近的 <strong>1名</strong> 敌国平民。</p> <p>平民照片如下图所示。</p> <p></p> <img src='stimuli/faces/NCF2.jpg', style='max-width: 30%;'> </img> <p><strong>你是否选择发射武器？</strong></p>","1",""
"","","","","","html-keyboard-response","80","5291138","0.0-4.0-0.38","62","1","2022-10-20 08:58:24","d60b49b5908c80e163b920d72b52d584","218.64.115.222","Mozilla/5.0 (Windows NT 10.0; Win64; x64) AppleWebKit/537.36 (KHTML, like Gecko) Chrome/106.0.0.0 Safari/537.36 Edg/106.0.1370.47","WebKit","Edge","106.0.1370.47","Windows","10.0","null","<div style=""font-size:60px;"">+</div>","null",""
"","","","","","html-button-response","81","5304827","0.0-4.0-1.38","62","1","2022-10-20 08:58:24","d60b49b5908c80e163b920d72b52d584","218.64.115.222","Mozilla/5.0 (Windows NT 10.0; Win64; x64) AppleWebKit/537.36 (KHTML, like Gecko) Chrome/106.0.0.0 Safari/537.36 Edg/106.0.1370.47","WebKit","Edge","106.0.1370.47","Windows","10.0","13687","<p>作为军队的指挥官，你可以选择发射导弹杀死 <strong>1名</strong> 敌国士兵，但会炸毁附近的 <strong>1棵</strong> 敌国树木。</p> <p>树木的照片如下图所示。</p> <p></p> <img src='stimuli/trees/2.png', style='max-width: 30%;'> </img> <p><strong>你是否选择发射武器？</strong></p>","0",""
"","","","","","html-keyboard-response","82","5305829","0.0-4.0-0.39","62","1","2022-10-20 08:58:24","d60b49b5908c80e163b920d72b52d584","218.64.115.222","Mozilla/5.0 (Windows NT 10.0; Win64; x64) AppleWebKit/537.36 (KHTML, like Gecko) Chrome/106.0.0.0 Safari/537.36 Edg/106.0.1370.47","WebKit","Edge","106.0.1370.47","Windows","10.0","null","<div style=""font-size:60px;"">+</div>","null",""
"","","","","","html-button-response","83","5308788","0.0-4.0-1.39","62","1","2022-10-20 08:58:24","d60b49b5908c80e163b920d72b52d584","218.64.115.222","Mozilla/5.0 (Windows NT 10.0; Win64; x64) AppleWebKit/537.36 (KHTML, like Gecko) Chrome/106.0.0.0 Safari/537.36 Edg/106.0.1370.47","WebKit","Edge","106.0.1370.47","Windows","10.0","2956","<p>作为军队的指挥官，你可以选择发射导弹杀死 <strong>4名</strong> 敌国士兵，但会误杀附近的 <strong>1名</strong> 敌国平民。</p> <p>平民照片如下图所示。</p> <p></p> <img src='stimuli/faces/NCM1.jpg', style='max-width: 30%;'> </img> <p><strong>你是否选择发射武器？</strong></p>","1",""
"","","","","","html-keyboard-response","84","5309794","0.0-4.0-0.40","62","1","2022-10-20 08:58:24","d60b49b5908c80e163b920d72b52d584","218.64.115.222","Mozilla/5.0 (Windows NT 10.0; Win64; x64) AppleWebKit/537.36 (KHTML, like Gecko) Chrome/106.0.0.0 Safari/537.36 Edg/106.0.1370.47","WebKit","Edge","106.0.1370.47","Windows","10.0","null","<div style=""font-size:60px;"">+</div>","null",""
"","","","","","html-button-response","85","5310786","0.0-4.0-1.40","62","1","2022-10-20 08:58:24","d60b49b5908c80e163b920d72b52d584","218.64.115.222","Mozilla/5.0 (Windows NT 10.0; Win64; x64) AppleWebKit/537.36 (KHTML, like Gecko) Chrome/106.0.0.0 Safari/537.36 Edg/106.0.1370.47","WebKit","Edge","106.0.1370.47","Windows","10.0","990","<p>作为军队的指挥官，你可以选择发射导弹杀死 <strong>7名</strong> 敌国士兵，但会炸毁附近的 <strong>1棵</strong> 敌国树木。</p> <p>树木的照片如下图所示。</p> <p></p> <img src='stimuli/trees/7.png', style='max-width: 30%;'> </img> <p><strong>你是否选择发射武器？</strong></p>","0",""
"","","","","","html-keyboard-response","86","5311795","0.0-4.0-0.41","62","1","2022-10-20 08:58:24","d60b49b5908c80e163b920d72b52d584","218.64.115.222","Mozilla/5.0 (Windows NT 10.0; Win64; x64) AppleWebKit/537.36 (KHTML, like Gecko) Chrome/106.0.0.0 Safari/537.36 Edg/106.0.1370.47","WebKit","Edge","106.0.1370.47","Windows","10.0","null","<div style=""font-size:60px;"">+</div>","null",""
"","","","","","html-button-response","87","5313027","0.0-4.0-1.41","62","1","2022-10-20 08:58:24","d60b49b5908c80e163b920d72b52d584","218.64.115.222","Mozilla/5.0 (Windows NT 10.0; Win64; x64) AppleWebKit/537.36 (KHTML, like Gecko) Chrome/106.0.0.0 Safari/537.36 Edg/106.0.1370.47","WebKit","Edge","106.0.1370.47","Windows","10.0","1230","<p>作为军队的指挥官，你可以选择发射导弹杀死 <strong>5名</strong> 敌国士兵，但会误杀附近的 <strong>1名</strong> 敌国平民。</p> <p>平民照片如下图所示。</p> <p></p> <img src='stimuli/faces/NCF7.jpg', style='max-width: 30%;'> </img> <p><strong>你是否选择发射武器？</strong></p>","1",""
"","","","","","html-keyboard-response","88","5314033","0.0-4.0-0.42","62","1","2022-10-20 08:58:24","d60b49b5908c80e163b920d72b52d584","218.64.115.222","Mozilla/5.0 (Windows NT 10.0; Win64; x64) AppleWebKit/537.36 (KHTML, like Gecko) Chrome/106.0.0.0 Safari/537.36 Edg/106.0.1370.47","WebKit","Edge","106.0.1370.47","Windows","10.0","null","<div style=""font-size:60px;"">+</div>","null",""
"","","","","","html-button-response","89","5320595","0.0-4.0-1.42","62","1","2022-10-20 08:58:24","d60b49b5908c80e163b920d72b52d584","218.64.115.222","Mozilla/5.0 (Windows NT 10.0; Win64; x64) AppleWebKit/537.36 (KHTML, like Gecko) Chrome/106.0.0.0 Safari/537.36 Edg/106.0.1370.47","WebKit","Edge","106.0.1370.47","Windows","10.0","6559","<p>作为军队的指挥官，你可以选择发射导弹杀死 <strong>2名</strong> 敌国士兵，但会误杀附近的 <strong>1名</strong> 敌国平民。</p> <p>平民照片如下图所示。</p> <p></p> <img src='stimuli/faces/NCF4.jpg', style='max-width: 30%;'> </img> <p><strong>你是否选择发射武器？</strong></p>","1",""
"","","","","","html-keyboard-response","90","5321597","0.0-4.0-0.43","62","1","2022-10-20 08:58:24","d60b49b5908c80e163b920d72b52d584","218.64.115.222","Mozilla/5.0 (Windows NT 10.0; Win64; x64) AppleWebKit/537.36 (KHTML, like Gecko) Chrome/106.0.0.0 Safari/537.36 Edg/106.0.1370.47","WebKit","Edge","106.0.1370.47","Windows","10.0","null","<div style=""font-size:60px;"">+</div>","null",""
"","","","","","html-button-response","91","5326306","0.0-4.0-1.43","62","1","2022-10-20 08:58:24","d60b49b5908c80e163b920d72b52d584","218.64.115.222","Mozilla/5.0 (Windows NT 10.0; Win64; x64) AppleWebKit/537.36 (KHTML, like Gecko) Chrome/106.0.0.0 Safari/537.36 Edg/106.0.1370.47","WebKit","Edge","106.0.1370.47","Windows","10.0","4707","<p>作为军队的指挥官，你可以选择发射导弹杀死 <strong>3名</strong> 敌国士兵，但会炸毁附近的 <strong>1棵</strong> 敌国树木。</p> <p>树木的照片如下图所示。</p> <p></p> <img src='stimuli/trees/7.png', style='max-width: 30%;'> </img> <p><strong>你是否选择发射武器？</strong></p>","0",""
"","","","","","html-keyboard-response","92","5327309","0.0-4.0-0.44","62","1","2022-10-20 08:58:24","d60b49b5908c80e163b920d72b52d584","218.64.115.222","Mozilla/5.0 (Windows NT 10.0; Win64; x64) AppleWebKit/537.36 (KHTML, like Gecko) Chrome/106.0.0.0 Safari/537.36 Edg/106.0.1370.47","WebKit","Edge","106.0.1370.47","Windows","10.0","null","<div style=""font-size:60px;"">+</div>","null",""
"","","","","","html-button-response","93","5328083","0.0-4.0-1.44","62","1","2022-10-20 08:58:24","d60b49b5908c80e163b920d72b52d584","218.64.115.222","Mozilla/5.0 (Windows NT 10.0; Win64; x64) AppleWebKit/537.36 (KHTML, like Gecko) Chrome/106.0.0.0 Safari/537.36 Edg/106.0.1370.47","WebKit","Edge","106.0.1370.47","Windows","10.0","771","<p>作为军队的指挥官，你可以选择发射导弹杀死 <strong>8名</strong> 敌国士兵，但会误杀附近的 <strong>1名</strong> 敌国平民。</p> <p>平民照片如下图所示。</p> <p></p> <img src='stimuli/faces/NCF3.jpg', style='max-width: 30%;'> </img> <p><strong>你是否选择发射武器？</strong></p>","1",""
"","","","","","html-keyboard-response","94","5329096","0.0-4.0-0.45","62","1","2022-10-20 08:58:24","d60b49b5908c80e163b920d72b52d584","218.64.115.222","Mozilla/5.0 (Windows NT 10.0; Win64; x64) AppleWebKit/537.36 (KHTML, like Gecko) Chrome/106.0.0.0 Safari/537.36 Edg/106.0.1370.47","WebKit","Edge","106.0.1370.47","Windows","10.0","null","<div style=""font-size:60px;"">+</div>","null",""
"","","","","","html-button-response","95","5330475","0.0-4.0-1.45","62","1","2022-10-20 08:58:24","d60b49b5908c80e163b920d72b52d584","218.64.115.222","Mozilla/5.0 (Windows NT 10.0; Win64; x64) AppleWebKit/537.36 (KHTML, like Gecko) Chrome/106.0.0.0 Safari/537.36 Edg/106.0.1370.47","WebKit","Edge","106.0.1370.47","Windows","10.0","1376","<p>作为军队的指挥官，你可以选择发射导弹杀死 <strong>2名</strong> 敌国士兵，但会炸毁附近的 <strong>1棵</strong> 敌国树木。</p> <p>树木的照片如下图所示。</p> <p></p> <img src='stimuli/trees/10.png', style='max-width: 30%;'> </img> <p><strong>你是否选择发射武器？</strong></p>","1",""
"","","","","","html-keyboard-response","96","5331478","0.0-4.0-0.46","62","1","2022-10-20 08:58:24","d60b49b5908c80e163b920d72b52d584","218.64.115.222","Mozilla/5.0 (Windows NT 10.0; Win64; x64) AppleWebKit/537.36 (KHTML, like Gecko) Chrome/106.0.0.0 Safari/537.36 Edg/106.0.1370.47","WebKit","Edge","106.0.1370.47","Windows","10.0","null","<div style=""font-size:60px;"">+</div>","null",""
"","","","","","html-button-response","97","5333331","0.0-4.0-1.46","62","1","2022-10-20 08:58:24","d60b49b5908c80e163b920d72b52d584","218.64.115.222","Mozilla/5.0 (Windows NT 10.0; Win64; x64) AppleWebKit/537.36 (KHTML, like Gecko) Chrome/106.0.0.0 Safari/537.36 Edg/106.0.1370.47","WebKit","Edge","106.0.1370.47","Windows","10.0","1851","<p>作为军队的指挥官，你可以选择发射导弹杀死 <strong>7名</strong> 敌国士兵，但会炸毁附近的 <strong>1棵</strong> 敌国树木。</p> <p>树木的照片如下图所示。</p> <p></p> <img src='stimuli/trees/10.png', style='max-width: 30%;'> </img> <p><strong>你是否选择发射武器？</strong></p>","0",""
"","","","","","html-keyboard-response","98","5334333","0.0-4.0-0.47","62","1","2022-10-20 08:58:24","d60b49b5908c80e163b920d72b52d584","218.64.115.222","Mozilla/5.0 (Windows NT 10.0; Win64; x64) AppleWebKit/537.36 (KHTML, like Gecko) Chrome/106.0.0.0 Safari/537.36 Edg/106.0.1370.47","WebKit","Edge","106.0.1370.47","Windows","10.0","null","<div style=""font-size:60px;"">+</div>","null",""
"","","","","","html-button-response","99","5335443","0.0-4.0-1.47","62","1","2022-10-20 08:58:24","d60b49b5908c80e163b920d72b52d584","218.64.115.222","Mozilla/5.0 (Windows NT 10.0; Win64; x64) AppleWebKit/537.36 (KHTML, like Gecko) Chrome/106.0.0.0 Safari/537.36 Edg/106.0.1370.47","WebKit","Edge","106.0.1370.47","Windows","10.0","1107","<p>作为军队的指挥官，你可以选择发射导弹杀死 <strong>3名</strong> 敌国士兵，但会炸毁附近的 <strong>1棵</strong> 敌国树木。</p> <p>树木的照片如下图所示。</p> <p></p> <img src='stimuli/trees/15.png', style='max-width: 30%;'> </img> <p><strong>你是否选择发射武器？</strong></p>","0",""
"","","","","","html-keyboard-response","100","5336454","0.0-4.0-0.48","62","1","2022-10-20 08:58:24","d60b49b5908c80e163b920d72b52d584","218.64.115.222","Mozilla/5.0 (Windows NT 10.0; Win64; x64) AppleWebKit/537.36 (KHTML, like Gecko) Chrome/106.0.0.0 Safari/537.36 Edg/106.0.1370.47","WebKit","Edge","106.0.1370.47","Windows","10.0","null","<div style=""font-size:60px;"">+</div>","null",""
"","","","","","html-button-response","101","5337275","0.0-4.0-1.48","62","1","2022-10-20 08:58:24","d60b49b5908c80e163b920d72b52d584","218.64.115.222","Mozilla/5.0 (Windows NT 10.0; Win64; x64) AppleWebKit/537.36 (KHTML, like Gecko) Chrome/106.0.0.0 Safari/537.36 Edg/106.0.1370.47","WebKit","Edge","106.0.1370.47","Windows","10.0","818","<p>作为军队的指挥官，你可以选择发射导弹杀死 <strong>8名</strong> 敌国士兵，但会误杀附近的 <strong>1名</strong> 敌国平民。</p> <p>平民照片如下图所示。</p> <p></p> <img src='stimuli/faces/NCM7.jpg', style='max-width: 30%;'> </img> <p><strong>你是否选择发射武器？</strong></p>","1",""
"","","","","","html-keyboard-response","102","5338277","0.0-4.0-0.49","62","1","2022-10-20 08:58:24","d60b49b5908c80e163b920d72b52d584","218.64.115.222","Mozilla/5.0 (Windows NT 10.0; Win64; x64) AppleWebKit/537.36 (KHTML, like Gecko) Chrome/106.0.0.0 Safari/537.36 Edg/106.0.1370.47","WebKit","Edge","106.0.1370.47","Windows","10.0","null","<div style=""font-size:60px;"">+</div>","null",""
"","","","","","html-button-response","103","5339434","0.0-4.0-1.49","62","1","2022-10-20 08:58:24","d60b49b5908c80e163b920d72b52d584","218.64.115.222","Mozilla/5.0 (Windows NT 10.0; Win64; x64) AppleWebKit/537.36 (KHTML, like Gecko) Chrome/106.0.0.0 Safari/537.36 Edg/106.0.1370.47","WebKit","Edge","106.0.1370.47","Windows","10.0","1154","<p>作为军队的指挥官，你可以选择发射导弹杀死 <strong>8名</strong> 敌国士兵，但会炸毁附近的 <strong>1棵</strong> 敌国树木。</p> <p>树木的照片如下图所示。</p> <p></p> <img src='stimuli/trees/11.png', style='max-width: 30%;'> </img> <p><strong>你是否选择发射武器？</strong></p>","1",""
"","","","","","html-keyboard-response","104","5340437","0.0-4.0-0.50","62","1","2022-10-20 08:58:24","d60b49b5908c80e163b920d72b52d584","218.64.115.222","Mozilla/5.0 (Windows NT 10.0; Win64; x64) AppleWebKit/537.36 (KHTML, like Gecko) Chrome/106.0.0.0 Safari/537.36 Edg/106.0.1370.47","WebKit","Edge","106.0.1370.47","Windows","10.0","null","<div style=""font-size:60px;"">+</div>","null",""
"","","","","","html-button-response","105","5341706","0.0-4.0-1.50","62","1","2022-10-20 08:58:24","d60b49b5908c80e163b920d72b52d584","218.64.115.222","Mozilla/5.0 (Windows NT 10.0; Win64; x64) AppleWebKit/537.36 (KHTML, like Gecko) Chrome/106.0.0.0 Safari/537.36 Edg/106.0.1370.47","WebKit","Edge","106.0.1370.47","Windows","10.0","1267","<p>作为军队的指挥官，你可以选择发射导弹杀死 <strong>1名</strong> 敌国士兵，但会误杀附近的 <strong>1名</strong> 敌国平民。</p> <p>平民照片如下图所示。</p> <p></p> <img src='stimuli/faces/NCF5.jpg', style='max-width: 30%;'> </img> <p><strong>你是否选择发射武器？</strong></p>","1",""
"","","","","","html-keyboard-response","106","5342713","0.0-4.0-0.51","62","1","2022-10-20 08:58:24","d60b49b5908c80e163b920d72b52d584","218.64.115.222","Mozilla/5.0 (Windows NT 10.0; Win64; x64) AppleWebKit/537.36 (KHTML, like Gecko) Chrome/106.0.0.0 Safari/537.36 Edg/106.0.1370.47","WebKit","Edge","106.0.1370.47","Windows","10.0","null","<div style=""font-size:60px;"">+</div>","null",""
"","","","","","html-button-response","107","5344547","0.0-4.0-1.51","62","1","2022-10-20 08:58:24","d60b49b5908c80e163b920d72b52d584","218.64.115.222","Mozilla/5.0 (Windows NT 10.0; Win64; x64) AppleWebKit/537.36 (KHTML, like Gecko) Chrome/106.0.0.0 Safari/537.36 Edg/106.0.1370.47","WebKit","Edge","106.0.1370.47","Windows","10.0","1832","<p>作为军队的指挥官，你可以选择发射导弹杀死 <strong>2名</strong> 敌国士兵，但会炸毁附近的 <strong>1棵</strong> 敌国树木。</p> <p>树木的照片如下图所示。</p> <p></p> <img src='stimuli/trees/16.png', style='max-width: 30%;'> </img> <p><strong>你是否选择发射武器？</strong></p>","1",""
"","","","","","html-keyboard-response","108","5345556","0.0-4.0-0.52","62","1","2022-10-20 08:58:24","d60b49b5908c80e163b920d72b52d584","218.64.115.222","Mozilla/5.0 (Windows NT 10.0; Win64; x64) AppleWebKit/537.36 (KHTML, like Gecko) Chrome/106.0.0.0 Safari/537.36 Edg/106.0.1370.47","WebKit","Edge","106.0.1370.47","Windows","10.0","null","<div style=""font-size:60px;"">+</div>","null",""
"","","","","","html-button-response","109","5346506","0.0-4.0-1.52","62","1","2022-10-20 08:58:24","d60b49b5908c80e163b920d72b52d584","218.64.115.222","Mozilla/5.0 (Windows NT 10.0; Win64; x64) AppleWebKit/537.36 (KHTML, like Gecko) Chrome/106.0.0.0 Safari/537.36 Edg/106.0.1370.47","WebKit","Edge","106.0.1370.47","Windows","10.0","949","<p>作为军队的指挥官，你可以选择发射导弹杀死 <strong>3名</strong> 敌国士兵，但会误杀附近的 <strong>1名</strong> 敌国平民。</p> <p>平民照片如下图所示。</p> <p></p> <img src='stimuli/faces/NCM2.jpg', style='max-width: 30%;'> </img> <p><strong>你是否选择发射武器？</strong></p>","1",""
"","","","","","html-keyboard-response","110","5347520","0.0-4.0-0.53","62","1","2022-10-20 08:58:24","d60b49b5908c80e163b920d72b52d584","218.64.115.222","Mozilla/5.0 (Windows NT 10.0; Win64; x64) AppleWebKit/537.36 (KHTML, like Gecko) Chrome/106.0.0.0 Safari/537.36 Edg/106.0.1370.47","WebKit","Edge","106.0.1370.47","Windows","10.0","null","<div style=""font-size:60px;"">+</div>","null",""
"","","","","","html-button-response","111","5349003","0.0-4.0-1.53","62","1","2022-10-20 08:58:24","d60b49b5908c80e163b920d72b52d584","218.64.115.222","Mozilla/5.0 (Windows NT 10.0; Win64; x64) AppleWebKit/537.36 (KHTML, like Gecko) Chrome/106.0.0.0 Safari/537.36 Edg/106.0.1370.47","WebKit","Edge","106.0.1370.47","Windows","10.0","1481","<p>作为军队的指挥官，你可以选择发射导弹杀死 <strong>10名</strong> 敌国士兵，但会炸毁附近的 <strong>1棵</strong> 敌国树木。</p> <p>树木的照片如下图所示。</p> <p></p> <img src='stimuli/trees/8.png', style='max-width: 30%;'> </img> <p><strong>你是否选择发射武器？</strong></p>","0",""
"","","","","","html-keyboard-response","112","5350006","0.0-4.0-0.54","62","1","2022-10-20 08:58:24","d60b49b5908c80e163b920d72b52d584","218.64.115.222","Mozilla/5.0 (Windows NT 10.0; Win64; x64) AppleWebKit/537.36 (KHTML, like Gecko) Chrome/106.0.0.0 Safari/537.36 Edg/106.0.1370.47","WebKit","Edge","106.0.1370.47","Windows","10.0","null","<div style=""font-size:60px;"">+</div>","null",""
"","","","","","html-button-response","113","5350746","0.0-4.0-1.54","62","1","2022-10-20 08:58:24","d60b49b5908c80e163b920d72b52d584","218.64.115.222","Mozilla/5.0 (Windows NT 10.0; Win64; x64) AppleWebKit/537.36 (KHTML, like Gecko) Chrome/106.0.0.0 Safari/537.36 Edg/106.0.1370.47","WebKit","Edge","106.0.1370.47","Windows","10.0","737","<p>作为军队的指挥官，你可以选择发射导弹杀死 <strong>8名</strong> 敌国士兵，但会误杀附近的 <strong>1名</strong> 敌国平民。</p> <p>平民照片如下图所示。</p> <p></p> <img src='stimuli/faces/NCM5.jpg', style='max-width: 30%;'> </img> <p><strong>你是否选择发射武器？</strong></p>","1",""
"","","","","","html-keyboard-response","114","5351754","0.0-4.0-0.55","62","1","2022-10-20 08:58:24","d60b49b5908c80e163b920d72b52d584","218.64.115.222","Mozilla/5.0 (Windows NT 10.0; Win64; x64) AppleWebKit/537.36 (KHTML, like Gecko) Chrome/106.0.0.0 Safari/537.36 Edg/106.0.1370.47","WebKit","Edge","106.0.1370.47","Windows","10.0","null","<div style=""font-size:60px;"">+</div>","null",""
"","","","","","html-button-response","115","5352499","0.0-4.0-1.55","62","1","2022-10-20 08:58:24","d60b49b5908c80e163b920d72b52d584","218.64.115.222","Mozilla/5.0 (Windows NT 10.0; Win64; x64) AppleWebKit/537.36 (KHTML, like Gecko) Chrome/106.0.0.0 Safari/537.36 Edg/106.0.1370.47","WebKit","Edge","106.0.1370.47","Windows","10.0","742","<p>作为军队的指挥官，你可以选择发射导弹杀死 <strong>8名</strong> 敌国士兵，但会误杀附近的 <strong>1名</strong> 敌国平民。</p> <p>平民照片如下图所示。</p> <p></p> <img src='stimuli/faces/NCF8.jpg', style='max-width: 30%;'> </img> <p><strong>你是否选择发射武器？</strong></p>","1",""
"","","","","","html-keyboard-response","116","5353509","0.0-4.0-0.56","62","1","2022-10-20 08:58:24","d60b49b5908c80e163b920d72b52d584","218.64.115.222","Mozilla/5.0 (Windows NT 10.0; Win64; x64) AppleWebKit/537.36 (KHTML, like Gecko) Chrome/106.0.0.0 Safari/537.36 Edg/106.0.1370.47","WebKit","Edge","106.0.1370.47","Windows","10.0","null","<div style=""font-size:60px;"">+</div>","null",""
"","","","","","html-button-response","117","5354810","0.0-4.0-1.56","62","1","2022-10-20 08:58:24","d60b49b5908c80e163b920d72b52d584","218.64.115.222","Mozilla/5.0 (Windows NT 10.0; Win64; x64) AppleWebKit/537.36 (KHTML, like Gecko) Chrome/106.0.0.0 Safari/537.36 Edg/106.0.1370.47","WebKit","Edge","106.0.1370.47","Windows","10.0","1299","<p>作为军队的指挥官，你可以选择发射导弹杀死 <strong>5名</strong> 敌国士兵，但会炸毁附近的 <strong>1棵</strong> 敌国树木。</p> <p>树木的照片如下图所示。</p> <p></p> <img src='stimuli/trees/8.png', style='max-width: 30%;'> </img> <p><strong>你是否选择发射武器？</strong></p>","0",""
"","","","","","html-keyboard-response","118","5355812","0.0-4.0-0.57","62","1","2022-10-20 08:58:24","d60b49b5908c80e163b920d72b52d584","218.64.115.222","Mozilla/5.0 (Windows NT 10.0; Win64; x64) AppleWebKit/537.36 (KHTML, like Gecko) Chrome/106.0.0.0 Safari/537.36 Edg/106.0.1370.47","WebKit","Edge","106.0.1370.47","Windows","10.0","null","<div style=""font-size:60px;"">+</div>","null",""
"","","","","","html-button-response","119","5357939","0.0-4.0-1.57","62","1","2022-10-20 08:58:24","d60b49b5908c80e163b920d72b52d584","218.64.115.222","Mozilla/5.0 (Windows NT 10.0; Win64; x64) AppleWebKit/537.36 (KHTML, like Gecko) Chrome/106.0.0.0 Safari/537.36 Edg/106.0.1370.47","WebKit","Edge","106.0.1370.47","Windows","10.0","2124","<p>作为军队的指挥官，你可以选择发射导弹杀死 <strong>8名</strong> 敌国士兵，但会炸毁附近的 <strong>1棵</strong> 敌国树木。</p> <p>树木的照片如下图所示。</p> <p></p> <img src='stimuli/trees/4.png', style='max-width: 30%;'> </img> <p><strong>你是否选择发射武器？</strong></p>","1",""
"","","","","","html-keyboard-response","120","5358947","0.0-4.0-0.58","62","1","2022-10-20 08:58:24","d60b49b5908c80e163b920d72b52d584","218.64.115.222","Mozilla/5.0 (Windows NT 10.0; Win64; x64) AppleWebKit/537.36 (KHTML, like Gecko) Chrome/106.0.0.0 Safari/537.36 Edg/106.0.1370.47","WebKit","Edge","106.0.1370.47","Windows","10.0","null","<div style=""font-size:60px;"">+</div>","null",""
"","","","","","html-button-response","121","5361090","0.0-4.0-1.58","62","1","2022-10-20 08:58:24","d60b49b5908c80e163b920d72b52d584","218.64.115.222","Mozilla/5.0 (Windows NT 10.0; Win64; x64) AppleWebKit/537.36 (KHTML, like Gecko) Chrome/106.0.0.0 Safari/537.36 Edg/106.0.1370.47","WebKit","Edge","106.0.1370.47","Windows","10.0","2140","<p>作为军队的指挥官，你可以选择发射导弹杀死 <strong>10名</strong> 敌国士兵，但会炸毁附近的 <strong>1棵</strong> 敌国树木。</p> <p>树木的照片如下图所示。</p> <p></p> <img src='stimuli/trees/14.png', style='max-width: 30%;'> </img> <p><strong>你是否选择发射武器？</strong></p>","1",""
"","","","","","html-keyboard-response","122","5362106","0.0-4.0-0.59","62","1","2022-10-20 08:58:24","d60b49b5908c80e163b920d72b52d584","218.64.115.222","Mozilla/5.0 (Windows NT 10.0; Win64; x64) AppleWebKit/537.36 (KHTML, like Gecko) Chrome/106.0.0.0 Safari/537.36 Edg/106.0.1370.47","WebKit","Edge","106.0.1370.47","Windows","10.0","null","<div style=""font-size:60px;"">+</div>","null",""
"","","","","","html-button-response","123","5364019","0.0-4.0-1.59","62","1","2022-10-20 08:58:24","d60b49b5908c80e163b920d72b52d584","218.64.115.222","Mozilla/5.0 (Windows NT 10.0; Win64; x64) AppleWebKit/537.36 (KHTML, like Gecko) Chrome/106.0.0.0 Safari/537.36 Edg/106.0.1370.47","WebKit","Edge","106.0.1370.47","Windows","10.0","1910","<p>作为军队的指挥官，你可以选择发射导弹杀死 <strong>4名</strong> 敌国士兵，但会误杀附近的 <strong>1名</strong> 敌国平民。</p> <p>平民照片如下图所示。</p> <p></p> <img src='stimuli/faces/NCF8.jpg', style='max-width: 30%;'> </img> <p><strong>你是否选择发射武器？</strong></p>","1",""
"","","","","","html-keyboard-response","124","5365031","0.0-4.0-0.60","62","1","2022-10-20 08:58:24","d60b49b5908c80e163b920d72b52d584","218.64.115.222","Mozilla/5.0 (Windows NT 10.0; Win64; x64) AppleWebKit/537.36 (KHTML, like Gecko) Chrome/106.0.0.0 Safari/537.36 Edg/106.0.1370.47","WebKit","Edge","106.0.1370.47","Windows","10.0","null","<div style=""font-size:60px;"">+</div>","null",""
"","","","","","html-button-response","125","5367754","0.0-4.0-1.60","62","1","2022-10-20 08:58:24","d60b49b5908c80e163b920d72b52d584","218.64.115.222","Mozilla/5.0 (Windows NT 10.0; Win64; x64) AppleWebKit/537.36 (KHTML, like Gecko) Chrome/106.0.0.0 Safari/537.36 Edg/106.0.1370.47","WebKit","Edge","106.0.1370.47","Windows","10.0","2721","<p>作为军队的指挥官，你可以选择发射导弹杀死 <strong>10名</strong> 敌国士兵，但会炸毁附近的 <strong>1棵</strong> 敌国树木。</p> <p>树木的照片如下图所示。</p> <p></p> <img src='stimuli/trees/16.png', style='max-width: 30%;'> </img> <p><strong>你是否选择发射武器？</strong></p>","0",""
"","","","","","html-keyboard-response","126","5368756","0.0-4.0-0.61","62","1","2022-10-20 08:58:24","d60b49b5908c80e163b920d72b52d584","218.64.115.222","Mozilla/5.0 (Windows NT 10.0; Win64; x64) AppleWebKit/537.36 (KHTML, like Gecko) Chrome/106.0.0.0 Safari/537.36 Edg/106.0.1370.47","WebKit","Edge","106.0.1370.47","Windows","10.0","null","<div style=""font-size:60px;"">+</div>","null",""
"","","","","","html-button-response","127","5370595","0.0-4.0-1.61","62","1","2022-10-20 08:58:24","d60b49b5908c80e163b920d72b52d584","218.64.115.222","Mozilla/5.0 (Windows NT 10.0; Win64; x64) AppleWebKit/537.36 (KHTML, like Gecko) Chrome/106.0.0.0 Safari/537.36 Edg/106.0.1370.47","WebKit","Edge","106.0.1370.47","Windows","10.0","1836","<p>作为军队的指挥官，你可以选择发射导弹杀死 <strong>1名</strong> 敌国士兵，但会误杀附近的 <strong>1名</strong> 敌国平民。</p> <p>平民照片如下图所示。</p> <p></p> <img src='stimuli/faces/NCM5.jpg', style='max-width: 30%;'> </img> <p><strong>你是否选择发射武器？</strong></p>","1",""
"","","","","","html-keyboard-response","128","5371597","0.0-4.0-0.62","62","1","2022-10-20 08:58:24","d60b49b5908c80e163b920d72b52d584","218.64.115.222","Mozilla/5.0 (Windows NT 10.0; Win64; x64) AppleWebKit/537.36 (KHTML, like Gecko) Chrome/106.0.0.0 Safari/537.36 Edg/106.0.1370.47","WebKit","Edge","106.0.1370.47","Windows","10.0","null","<div style=""font-size:60px;"">+</div>","null",""
"","","","","","html-button-response","129","5372451","0.0-4.0-1.62","62","1","2022-10-20 08:58:24","d60b49b5908c80e163b920d72b52d584","218.64.115.222","Mozilla/5.0 (Windows NT 10.0; Win64; x64) AppleWebKit/537.36 (KHTML, like Gecko) Chrome/106.0.0.0 Safari/537.36 Edg/106.0.1370.47","WebKit","Edge","106.0.1370.47","Windows","10.0","851","<p>作为军队的指挥官，你可以选择发射导弹杀死 <strong>1名</strong> 敌国士兵，但会误杀附近的 <strong>1名</strong> 敌国平民。</p> <p>平民照片如下图所示。</p> <p></p> <img src='stimuli/faces/NCM6.jpg', style='max-width: 30%;'> </img> <p><strong>你是否选择发射武器？</strong></p>","1",""
"","","","","","html-keyboard-response","130","5373454","0.0-4.0-0.63","62","1","2022-10-20 08:58:24","d60b49b5908c80e163b920d72b52d584","218.64.115.222","Mozilla/5.0 (Windows NT 10.0; Win64; x64) AppleWebKit/537.36 (KHTML, like Gecko) Chrome/106.0.0.0 Safari/537.36 Edg/106.0.1370.47","WebKit","Edge","106.0.1370.47","Windows","10.0","null","<div style=""font-size:60px;"">+</div>","null",""
"","","","","","html-button-response","131","5374883","0.0-4.0-1.63","62","1","2022-10-20 08:58:24","d60b49b5908c80e163b920d72b52d584","218.64.115.222","Mozilla/5.0 (Windows NT 10.0; Win64; x64) AppleWebKit/537.36 (KHTML, like Gecko) Chrome/106.0.0.0 Safari/537.36 Edg/106.0.1370.47","WebKit","Edge","106.0.1370.47","Windows","10.0","1427","<p>作为军队的指挥官，你可以选择发射导弹杀死 <strong>4名</strong> 敌国士兵，但会炸毁附近的 <strong>1棵</strong> 敌国树木。</p> <p>树木的照片如下图所示。</p> <p></p> <img src='stimuli/trees/13.png', style='max-width: 30%;'> </img> <p><strong>你是否选择发射武器？</strong></p>","0",""
"","","","","","survey-multi-choice","132","5385171","0.0-5.0","62","1","2022-10-20 08:58:24","d60b49b5908c80e163b920d72b52d584","218.64.115.222","Mozilla/5.0 (Windows NT 10.0; Win64; x64) AppleWebKit/537.36 (KHTML, like Gecko) Chrome/106.0.0.0 Safari/537.36 Edg/106.0.1370.47","WebKit","Edge","106.0.1370.47","Windows","10.0","10285","","{""Attention1"":""""}","[0]"
"","","","","","html-button-response","133","5942556","0.0-6.0","62","1","2022-10-20 08:58:24","d60b49b5908c80e163b920d72b52d584","218.64.115.222","Mozilla/5.0 (Windows NT 10.0; Win64; x64) AppleWebKit/537.36 (KHTML, like Gecko) Chrome/106.0.0.0 Safari/537.36 Edg/106.0.1370.47","WebKit","Edge","106.0.1370.47","Windows","10.0","557380","<p style=""font-size:20px;font-weight:bold;"">恭喜！</p><p>你已经完成了实验的第一部分。</p><p>请休息放松一下，然后进入第二部分。</p><p>这部分大约需要10分钟。</p>","0",""
"","","","","","survey-text","134","5992892","0.0-7.0","62","1","2022-10-20 08:58:24","d60b49b5908c80e163b920d72b52d584","218.64.115.222","Mozilla/5.0 (Windows NT 10.0; Win64; x64) AppleWebKit/537.36 (KHTML, like Gecko) Chrome/106.0.0.0 Safari/537.36 Edg/106.0.1370.47","WebKit","Edge","106.0.1370.47","Windows","10.0","49330","","{""Age"":""20"",""Nation"":""中国"",""Born"":""江西九江"",""Live"":""江西宜春"",""Ethnic"":""汉"",""Alipay"":""17379256895""}",""
"","","","","","survey-multi-choice","135","6005131","0.0-8.0","62","1","2022-10-20 08:58:24","d60b49b5908c80e163b920d72b52d584","218.64.115.222","Mozilla/5.0 (Windows NT 10.0; Win64; x64) AppleWebKit/537.36 (KHTML, like Gecko) Chrome/106.0.0.0 Safari/537.36 Edg/106.0.1370.47","WebKit","Edge","106.0.1370.47","Windows","10.0","12237","","{""Gender"":""女"",""Education"":""本科毕业"",""Income"":""￥140,000-￥269,999"",""Children"":""0"",""Race"":""亚洲人""}","[0,1,2,3,4]"
"","","","","","survey-multi-select","136","6011131","0.0-9.0","62","1","2022-10-20 08:58:24","d60b49b5908c80e163b920d72b52d584","218.64.115.222","Mozilla/5.0 (Windows NT 10.0; Win64; x64) AppleWebKit/537.36 (KHTML, like Gecko) Chrome/106.0.0.0 Safari/537.36 Edg/106.0.1370.47","WebKit","Edge","106.0.1370.47","Windows","10.0","5991","","{""Marriage"":[""未婚""],""Religion"":[""无宗教信仰""]}","[0,1]"
"","","","","","survey-multi-choice","137","6014291","0.0-10.0","62","1","2022-10-20 08:58:24","d60b49b5908c80e163b920d72b52d584","218.64.115.222","Mozilla/5.0 (Windows NT 10.0; Win64; x64) AppleWebKit/537.36 (KHTML, like Gecko) Chrome/106.0.0.0 Safari/537.36 Edg/106.0.1370.47","WebKit","Edge","106.0.1370.47","Windows","10.0","3156","","{""SES"":""5""}","[0]"
"","","","","","html-button-response","138","6016211","0.0-11.0","62","1","2022-10-20 08:58:24","d60b49b5908c80e163b920d72b52d584","218.64.115.222","Mozilla/5.0 (Windows NT 10.0; Win64; x64) AppleWebKit/537.36 (KHTML, like Gecko) Chrome/106.0.0.0 Safari/537.36 Edg/106.0.1370.47","WebKit","Edge","106.0.1370.47","Windows","10.0","1915","<p><strong>请判断下列陈述在多大程度上可以形容你？</p><p> (1 = ""和我一点都不像"" to 5 = ""非常像我"".)</strong></p>","0",""
"","","","","","survey-likert","139","6035339","0.0-12.0","62","1","2022-10-20 08:58:24","d60b49b5908c80e163b920d72b52d584","218.64.115.222","Mozilla/5.0 (Windows NT 10.0; Win64; x64) AppleWebKit/537.36 (KHTML, like Gecko) Chrome/106.0.0.0 Safari/537.36 Edg/106.0.1370.47","WebKit","Edge","106.0.1370.47","Windows","10.0","19125","","{""Aggression1"":1,""Aggression2"":0,""Aggression3"":1,""Aggression4"":0,""Aggression5"":0,""Aggression6"":0,""Aggression7"":4,""Aggression8"":0,""Aggression9"":1}","[0,1,2,3,4,5,6,7,8]"
"","","","","","html-button-response","140","6036634","0.0-13.0","62","1","2022-10-20 08:58:24","d60b49b5908c80e163b920d72b52d584","218.64.115.222","Mozilla/5.0 (Windows NT 10.0; Win64; x64) AppleWebKit/537.36 (KHTML, like Gecko) Chrome/106.0.0.0 Safari/537.36 Edg/106.0.1370.47","WebKit","Edge","106.0.1370.47","Windows","10.0","1291","<p><strong>请判断你在多大程度上同意下列陈述。</strong></p>","0",""
"","","","","","survey-likert","141","6145789","0.0-14.0","62","1","2022-10-20 08:58:24","d60b49b5908c80e163b920d72b52d584","218.64.115.222","Mozilla/5.0 (Windows NT 10.0; Win64; x64) AppleWebKit/537.36 (KHTML, like Gecko) Chrome/106.0.0.0 Safari/537.36 Edg/106.0.1370.47","WebKit","Edge","106.0.1370.47","Windows","10.0","109151","","{""scale16"":3,""scale14"":1,""scale8"":3,""scale9"":3,""scale24"":2,""scale4"":1,""scale18"":0,""scale12"":1,""scale5"":3,""scale21"":3,""scale20"":4,""scale3"":1,""scale15"":3,""scale19"":3,""scale2"":3,""scale13"":1,""scale28"":3,""scale10"":3,""scale25"":3,""scale17"":4,""scale7"":1,""scale1"":3,""scale11"":4,""scale22"":3,""scale26"":4,""scale23"":3,""scale27"":3,""scale6"":4}","[15,13,7,8,23,3,17,11,4,20,19,2,14,18,1,12,27,9,24,16,6,0,10,21,25,22,26,5]"
"","","","","","html-button-response","142","6146596","0.0-15.0","62","1","2022-10-20 08:58:24","d60b49b5908c80e163b920d72b52d584","218.64.115.222","Mozilla/5.0 (Windows NT 10.0; Win64; x64) AppleWebKit/537.36 (KHTML, like Gecko) Chrome/106.0.0.0 Safari/537.36 Edg/106.0.1370.47","WebKit","Edge","106.0.1370.47","Windows","10.0","802","<p><strong>请判断你在多大程度上同意下列陈述。</strong></p>","0",""
"","","","","","survey-likert","143","6203717","0.0-16.0","62","1","2022-10-20 08:58:24","d60b49b5908c80e163b920d72b52d584","218.64.115.222","Mozilla/5.0 (Windows NT 10.0; Win64; x64) AppleWebKit/537.36 (KHTML, like Gecko) Chrome/106.0.0.0 Safari/537.36 Edg/106.0.1370.47","WebKit","Edge","106.0.1370.47","Windows","10.0","57118","","{""sdo12"":4,""sdo5"":2,""sdo8"":5,""sdo6"":6,""sdo15"":4,""sdo16"":5,""sdo4"":1,""sdo10"":5,""sdo9"":6,""sdo3"":3,""sdo1"":1,""sdo14"":5,""sdo7"":2,""sdo11"":5,""sdo2"":2,""sdo13"":5}","[11,4,7,5,14,15,3,9,8,2,0,13,6,10,1,12]"
"","","","","","html-button-response","144","6204548","0.0-17.0","62","1","2022-10-20 08:58:24","d60b49b5908c80e163b920d72b52d584","218.64.115.222","Mozilla/5.0 (Windows NT 10.0; Win64; x64) AppleWebKit/537.36 (KHTML, like Gecko) Chrome/106.0.0.0 Safari/537.36 Edg/106.0.1370.47","WebKit","Edge","106.0.1370.47","Windows","10.0","827","<p><strong>请判断你在多大程度上同意下列陈述。</strong></p>","0",""
"","","","","","survey-likert","145","6238324","0.0-18.0","62","1","2022-10-20 08:58:24","d60b49b5908c80e163b920d72b52d584","218.64.115.222","Mozilla/5.0 (Windows NT 10.0; Win64; x64) AppleWebKit/537.36 (KHTML, like Gecko) Chrome/106.0.0.0 Safari/537.36 Edg/106.0.1370.47","WebKit","Edge","106.0.1370.47","Windows","10.0","33773","","{""caring1"":3,""liking1"":0,""caring2"":3,""protection1"":4,""liking2"":1,""caring3"":3,""protection2"":0,""liking3"":1,""protection3"":3,""caring4"":4,""liking4"":0,""protection4"":1,""caring5"":3,""liking5"":1,""protection5"":3}","[0,1,2,3,4,5,6,7,8,9,10,11,12,13,14]"
"","","","","","html-button-response","146","6239468","0.0-19.0","62","1","2022-10-20 08:58:24","d60b49b5908c80e163b920d72b52d584","218.64.115.222","Mozilla/5.0 (Windows NT 10.0; Win64; x64) AppleWebKit/537.36 (KHTML, like Gecko) Chrome/106.0.0.0 Safari/537.36 Edg/106.0.1370.47","WebKit","Edge","106.0.1370.47","Windows","10.0","1139","<p><strong>请判断下列场景中你的内心感受有多柔软。</strong></p>","0",""
"","","","","","survey-likert","147","6272604","0.0-20.0","62","1","2022-10-20 08:58:24","d60b49b5908c80e163b920d72b52d584","218.64.115.222","Mozilla/5.0 (Windows NT 10.0; Win64; x64) AppleWebKit/537.36 (KHTML, like Gecko) Chrome/106.0.0.0 Safari/537.36 Edg/106.0.1370.47","WebKit","Edge","106.0.1370.47","Windows","10.0","33133","","{""tenderness-positive1"":3,""tenderness-negative1"":4,""tenderness-negative2"":1,""tenderness-positive2"":3,""tenderness-positive3"":4,""tenderness-negative3"":3,""tenderness-positive4"":3,""tendereness-negative4"":4,""tendernness-negative5"":3,""tenderness-positive5"":4}","[0,1,2,3,4,5,6,7,8,9]"
"","","","","","survey-multi-choice","148","6277491","0.0-21.0","62","1","2022-10-20 08:58:24","d60b49b5908c80e163b920d72b52d584","218.64.115.222","Mozilla/5.0 (Windows NT 10.0; Win64; x64) AppleWebKit/537.36 (KHTML, like Gecko) Chrome/106.0.0.0 Safari/537.36 Edg/106.0.1370.47","WebKit","Edge","106.0.1370.47","Windows","10.0","4883","","{""Attention2"":""其他""}","[0]"
"","","","","","html-button-response","149","6278587","0.0-22.0","62","1","2022-10-20 08:58:24","d60b49b5908c80e163b920d72b52d584","218.64.115.222","Mozilla/5.0 (Windows NT 10.0; Win64; x64) AppleWebKit/537.36 (KHTML, like Gecko) Chrome/106.0.0.0 Safari/537.36 Edg/106.0.1370.47","WebKit","Edge","106.0.1370.47","Windows","10.0","1092","<p><strong>请判断你在多大程度上同意下列陈述。</strong></p>","0",""
"","","","","","survey-likert","150","6326021","0.0-23.0","62","1","2022-10-20 08:58:24","d60b49b5908c80e163b920d72b52d584","218.64.115.222","Mozilla/5.0 (Windows NT 10.0; Win64; x64) AppleWebKit/537.36 (KHTML, like Gecko) Chrome/106.0.0.0 Safari/537.36 Edg/106.0.1370.47","WebKit","Edge","106.0.1370.47","Windows","10.0","47430","","{""Nation1"":3,""Nation5"":3,""Patri9"":1,""Patri7"":3,""Patri3"":3,""Patri6"":0,""Nation4"":3,""Nation6"":3,""Patri12"":0,""Patri5"":3,""Patri4"":4,""Nation3"":3,""Patri10"":4,""Nation7"":4,""Nation2"":3,""Patri8"":4,""Patri2"":3,""Nation8"":1,""Patri1"":4,""Patri11"":0}","[12,16,8,6,2,5,15,17,11,4,3,14,9,18,13,7,1,19,0,10]"
"","","","","","html-button-response","151","6326964","0.0-24.0","62","1","2022-10-20 08:58:24","d60b49b5908c80e163b920d72b52d584","218.64.115.222","Mozilla/5.0 (Windows NT 10.0; Win64; x64) AppleWebKit/537.36 (KHTML, like Gecko) Chrome/106.0.0.0 Safari/537.36 Edg/106.0.1370.47","WebKit","Edge","106.0.1370.47","Windows","10.0","939","<p><strong>请判断你在多大程度上同意下列陈述。</strong></p>","0",""
"","","","","","survey-likert","152","6372094","0.0-25.0","62","1","2022-10-20 08:58:24","d60b49b5908c80e163b920d72b52d584","218.64.115.222","Mozilla/5.0 (Windows NT 10.0; Win64; x64) AppleWebKit/537.36 (KHTML, like Gecko) Chrome/106.0.0.0 Safari/537.36 Edg/106.0.1370.47","WebKit","Edge","106.0.1370.47","Windows","10.0","45125","","{""hi1"":1,""vi1"":6,""hi3"":1,""vc4"":6,""Robot"":6,""vi3"":5,""hc4"":7,""hc2"":8,""hi4"":5,""vc3"":6,""vc2"":6,""vc1"":7,""hc1"":8,""vi2"":5,""hi2"":7,""vi4"":3,""hc3"":7}","[0,4,2,16,7,6,12,10,3,15,14,13,9,5,1,8,11]"
"","","","","","survey-text","153","6377275","0.0-26.0","62","1","2022-10-20 08:58:24","d60b49b5908c80e163b920d72b52d584","218.64.115.222","Mozilla/5.0 (Windows NT 10.0; Win64; x64) AppleWebKit/537.36 (KHTML, like Gecko) Chrome/106.0.0.0 Safari/537.36 Edg/106.0.1370.47","WebKit","Edge","106.0.1370.47","Windows","10.0","5173","","{""Comments"":""没有""}",""
"","","","","","html-button-response","154","6378283","0.0-27.0","62","1","2022-10-20 08:58:24","d60b49b5908c80e163b920d72b52d584","218.64.115.222","Mozilla/5.0 (Windows NT 10.0; Win64; x64) AppleWebKit/537.36 (KHTML, like Gecko) Chrome/106.0.0.0 Safari/537.36 Edg/106.0.1370.47","WebKit","Edge","106.0.1370.47","Windows","10.0","1006","<strong><p>恭喜你完成了实验！</p><p>感谢您的参与。</p></strong>","0",""
