"success","timeout","failed_images","failed_audio","failed_video","trial_type","trial_index","time_elapsed","internal_node_id","run_id","condition","recorded_at","source_code_version","ip","user_agent","device","browser","browser_version","platform","platform_version","rt","stimulus","response","question_order"
"true","false","[]","[]","[]","preload","0","2553","0.0-0.0","84","1","2022-10-20 14:39:48","d60b49b5908c80e163b920d72b52d584","113.87.138.199","Mozilla/5.0 (Windows NT 10.0; WOW64) AppleWebKit/537.36 (KHTML, like Gecko) Chrome/94.0.4606.71 Safari/537.36 Core/1.94.169.400 QQBrowser/11.0.5130.400","WebKit","Chrome","94.0.4606.71","Windows","10.0","","","",""
"true","","","","","fullscreen","1","4387","0.0-1.0","84","1","2022-10-20 14:39:48","d60b49b5908c80e163b920d72b52d584","113.87.138.199","Mozilla/5.0 (Windows NT 10.0; WOW64) AppleWebKit/537.36 (KHTML, like Gecko) Chrome/94.0.4606.71 Safari/537.36 Core/1.94.169.400 QQBrowser/11.0.5130.400","WebKit","Chrome","94.0.4606.71","Windows","10.0","","","",""
"","","","","","html-button-response","2","7756","0.0-2.0","84","1","2022-10-20 14:39:48","d60b49b5908c80e163b920d72b52d584","113.87.138.199","Mozilla/5.0 (Windows NT 10.0; WOW64) AppleWebKit/537.36 (KHTML, like Gecko) Chrome/94.0.4606.71 Safari/537.36 Core/1.94.169.400 QQBrowser/11.0.5130.400","WebKit","Chrome","94.0.4606.71","Windows","10.0","3368","<p style=""font-size:20px;font-weight:bold;"">实验知情同意书</p><p style=""text-align:left;""><strong>实验名称：</strong>社会冲突研究</p><p style=""text-align:left;""><strong>主要研究者：</strong>韩晓春副教授（北京师范大学心理学部）</p><p style=""text-align:left;""><strong>联系方式：</strong>发送邮件至xiaochun.han@bnu.edu.cn</p><p style=""text-align:left;""><strong>研究目的：</strong>研究旨在了解人类面对群体冲突时的决策方式，以及相关的心理学特质。实验调查大约需要20分钟。</p><p style=""text-align:left;""><strong>实验流程：</strong>实验包含两部分。第一部分呈现一系列群体冲突场景，请你决定如何对这些冲突进行反应，大约需要10分钟完成。第二部分包含一系列人口统计学信息收集和心理学问卷，大约需要10分钟完成。</p><p style=""text-align:left;""><strong>参加及退出规则：</strong>参加本实验完全取决于您的个人意愿。在参与过程中，您可以随时退出，并且不用承担任何后果。</p><p style=""text-align:left;""><strong>隐私：</strong>本实验完全匿名进行，不会收集您的姓名或其他能够识别您身份的信息。实验中收集的作答仅用作科学研究使用，可能会在学术期刊/书籍上发表，或者用于教学，您的数据未来可能会和其他研究者或实验室分享，但您的个人身份不会被识别。</p><p style=""text-align:left;""><strong>实验报酬：</strong>实验完成后，您将获得15元人民币报酬，以感谢您的时间和努力。调查问卷中包含几道题目用以测验您作答时的认真度。只有完成全部实验，并且正确回答认真度测验的被试才能获得实验报酬。实验报酬将通过支付宝转账发放。</p><p style=""text-align:left;font-size:20px;""><strong>如果您同意以上实验知情同意书的内容，请点击'同意并且开始实验'按钮；否则请关闭浏览器界面，退出实验。</strong></p>","0",""
"","","","","","html-button-response","3","8940","0.0-3.0","84","1","2022-10-20 14:39:48","d60b49b5908c80e163b920d72b52d584","113.87.138.199","Mozilla/5.0 (Windows NT 10.0; WOW64) AppleWebKit/537.36 (KHTML, like Gecko) Chrome/94.0.4606.71 Safari/537.36 Core/1.94.169.400 QQBrowser/11.0.5130.400","WebKit","Chrome","94.0.4606.71","Windows","10.0","1183","<p ><strong>实验任务一：</strong></p><p>请想象你的国家与另一个国家发生了军事冲突。</p><p>你是国家军队的指挥官，你将如何在冲突中进行决策。</p><p>具体来说，作为军队指挥官，请你决定是否发射导弹进行打击。</p><p>接下来，你会面对一系列场景，请仔细阅读每个场景，然后进行决策。</p><p>这部分实验任务大约需要10分钟。</p><p><strong>实验过程中，请集中注意力。</strong></p>","0",""
"","","","","","html-keyboard-response","4","9943","0.0-4.0-0.0","84","1","2022-10-20 14:39:48","d60b49b5908c80e163b920d72b52d584","113.87.138.199","Mozilla/5.0 (Windows NT 10.0; WOW64) AppleWebKit/537.36 (KHTML, like Gecko) Chrome/94.0.4606.71 Safari/537.36 Core/1.94.169.400 QQBrowser/11.0.5130.400","WebKit","Chrome","94.0.4606.71","Windows","10.0","null","<div style=""font-size:60px;"">+</div>","null",""
"","","","","","html-button-response","5","11804","0.0-4.0-1.0","84","1","2022-10-20 14:39:48","d60b49b5908c80e163b920d72b52d584","113.87.138.199","Mozilla/5.0 (Windows NT 10.0; WOW64) AppleWebKit/537.36 (KHTML, like Gecko) Chrome/94.0.4606.71 Safari/537.36 Core/1.94.169.400 QQBrowser/11.0.5130.400","WebKit","Chrome","94.0.4606.71","Windows","10.0","1859","<p>作为军队的指挥官，你可以选择发射导弹杀死 <strong>5名</strong> 敌国士兵，但会炸毁附近的 <strong>1棵</strong> 敌国树木。</p> <p>树木的照片如下图所示。</p> <p></p> <img src='stimuli/trees/11.png', style='max-width: 30%;'> </img> <p><strong>你是否选择发射武器？</strong></p>","0",""
"","","","","","html-keyboard-response","6","12805","0.0-4.0-0.1","84","1","2022-10-20 14:39:48","d60b49b5908c80e163b920d72b52d584","113.87.138.199","Mozilla/5.0 (Windows NT 10.0; WOW64) AppleWebKit/537.36 (KHTML, like Gecko) Chrome/94.0.4606.71 Safari/537.36 Core/1.94.169.400 QQBrowser/11.0.5130.400","WebKit","Chrome","94.0.4606.71","Windows","10.0","null","<div style=""font-size:60px;"">+</div>","null",""
"","","","","","html-button-response","7","15412","0.0-4.0-1.1","84","1","2022-10-20 14:39:48","d60b49b5908c80e163b920d72b52d584","113.87.138.199","Mozilla/5.0 (Windows NT 10.0; WOW64) AppleWebKit/537.36 (KHTML, like Gecko) Chrome/94.0.4606.71 Safari/537.36 Core/1.94.169.400 QQBrowser/11.0.5130.400","WebKit","Chrome","94.0.4606.71","Windows","10.0","2605","<p>作为军队的指挥官，你可以选择发射导弹杀死 <strong>4名</strong> 敌国士兵，但会误杀附近的 <strong>1名</strong> 敌国平民。</p> <p>平民照片如下图所示。</p> <p></p> <img src='stimuli/faces/NCF5.jpg', style='max-width: 30%;'> </img> <p><strong>你是否选择发射武器？</strong></p>","1",""
"","","","","","html-keyboard-response","8","16414","0.0-4.0-0.2","84","1","2022-10-20 14:39:48","d60b49b5908c80e163b920d72b52d584","113.87.138.199","Mozilla/5.0 (Windows NT 10.0; WOW64) AppleWebKit/537.36 (KHTML, like Gecko) Chrome/94.0.4606.71 Safari/537.36 Core/1.94.169.400 QQBrowser/11.0.5130.400","WebKit","Chrome","94.0.4606.71","Windows","10.0","null","<div style=""font-size:60px;"">+</div>","null",""
"","","","","","html-button-response","9","17164","0.0-4.0-1.2","84","1","2022-10-20 14:39:48","d60b49b5908c80e163b920d72b52d584","113.87.138.199","Mozilla/5.0 (Windows NT 10.0; WOW64) AppleWebKit/537.36 (KHTML, like Gecko) Chrome/94.0.4606.71 Safari/537.36 Core/1.94.169.400 QQBrowser/11.0.5130.400","WebKit","Chrome","94.0.4606.71","Windows","10.0","749","<p>作为军队的指挥官，你可以选择发射导弹杀死 <strong>10名</strong> 敌国士兵，但会炸毁附近的 <strong>1棵</strong> 敌国树木。</p> <p>树木的照片如下图所示。</p> <p></p> <img src='stimuli/trees/6.png', style='max-width: 30%;'> </img> <p><strong>你是否选择发射武器？</strong></p>","0",""
"","","","","","html-keyboard-response","10","18168","0.0-4.0-0.3","84","1","2022-10-20 14:39:48","d60b49b5908c80e163b920d72b52d584","113.87.138.199","Mozilla/5.0 (Windows NT 10.0; WOW64) AppleWebKit/537.36 (KHTML, like Gecko) Chrome/94.0.4606.71 Safari/537.36 Core/1.94.169.400 QQBrowser/11.0.5130.400","WebKit","Chrome","94.0.4606.71","Windows","10.0","null","<div style=""font-size:60px;"">+</div>","null",""
"","","","","","html-button-response","11","19156","0.0-4.0-1.3","84","1","2022-10-20 14:39:48","d60b49b5908c80e163b920d72b52d584","113.87.138.199","Mozilla/5.0 (Windows NT 10.0; WOW64) AppleWebKit/537.36 (KHTML, like Gecko) Chrome/94.0.4606.71 Safari/537.36 Core/1.94.169.400 QQBrowser/11.0.5130.400","WebKit","Chrome","94.0.4606.71","Windows","10.0","985","<p>作为军队的指挥官，你可以选择发射导弹杀死 <strong>8名</strong> 敌国士兵，但会误杀附近的 <strong>1名</strong> 敌国平民。</p> <p>平民照片如下图所示。</p> <p></p> <img src='stimuli/faces/NCF3.jpg', style='max-width: 30%;'> </img> <p><strong>你是否选择发射武器？</strong></p>","0",""
"","","","","","html-keyboard-response","12","20157","0.0-4.0-0.4","84","1","2022-10-20 14:39:48","d60b49b5908c80e163b920d72b52d584","113.87.138.199","Mozilla/5.0 (Windows NT 10.0; WOW64) AppleWebKit/537.36 (KHTML, like Gecko) Chrome/94.0.4606.71 Safari/537.36 Core/1.94.169.400 QQBrowser/11.0.5130.400","WebKit","Chrome","94.0.4606.71","Windows","10.0","null","<div style=""font-size:60px;"">+</div>","null",""
"","","","","","html-button-response","13","20845","0.0-4.0-1.4","84","1","2022-10-20 14:39:48","d60b49b5908c80e163b920d72b52d584","113.87.138.199","Mozilla/5.0 (Windows NT 10.0; WOW64) AppleWebKit/537.36 (KHTML, like Gecko) Chrome/94.0.4606.71 Safari/537.36 Core/1.94.169.400 QQBrowser/11.0.5130.400","WebKit","Chrome","94.0.4606.71","Windows","10.0","686","<p>作为军队的指挥官，你可以选择发射导弹杀死 <strong>8名</strong> 敌国士兵，但会误杀附近的 <strong>1名</strong> 敌国平民。</p> <p>平民照片如下图所示。</p> <p></p> <img src='stimuli/faces/NCF5.jpg', style='max-width: 30%;'> </img> <p><strong>你是否选择发射武器？</strong></p>","0",""
"","","","","","html-keyboard-response","14","21847","0.0-4.0-0.5","84","1","2022-10-20 14:39:48","d60b49b5908c80e163b920d72b52d584","113.87.138.199","Mozilla/5.0 (Windows NT 10.0; WOW64) AppleWebKit/537.36 (KHTML, like Gecko) Chrome/94.0.4606.71 Safari/537.36 Core/1.94.169.400 QQBrowser/11.0.5130.400","WebKit","Chrome","94.0.4606.71","Windows","10.0","null","<div style=""font-size:60px;"">+</div>","null",""
"","","","","","html-button-response","15","23015","0.0-4.0-1.5","84","1","2022-10-20 14:39:48","d60b49b5908c80e163b920d72b52d584","113.87.138.199","Mozilla/5.0 (Windows NT 10.0; WOW64) AppleWebKit/537.36 (KHTML, like Gecko) Chrome/94.0.4606.71 Safari/537.36 Core/1.94.169.400 QQBrowser/11.0.5130.400","WebKit","Chrome","94.0.4606.71","Windows","10.0","1166","<p>作为军队的指挥官，你可以选择发射导弹杀死 <strong>3名</strong> 敌国士兵，但会误杀附近的 <strong>1名</strong> 敌国平民。</p> <p>平民照片如下图所示。</p> <p></p> <img src='stimuli/faces/NCM1.jpg', style='max-width: 30%;'> </img> <p><strong>你是否选择发射武器？</strong></p>","1",""
"","","","","","html-keyboard-response","16","24016","0.0-4.0-0.6","84","1","2022-10-20 14:39:48","d60b49b5908c80e163b920d72b52d584","113.87.138.199","Mozilla/5.0 (Windows NT 10.0; WOW64) AppleWebKit/537.36 (KHTML, like Gecko) Chrome/94.0.4606.71 Safari/537.36 Core/1.94.169.400 QQBrowser/11.0.5130.400","WebKit","Chrome","94.0.4606.71","Windows","10.0","null","<div style=""font-size:60px;"">+</div>","null",""
"","","","","","html-button-response","17","25133","0.0-4.0-1.6","84","1","2022-10-20 14:39:48","d60b49b5908c80e163b920d72b52d584","113.87.138.199","Mozilla/5.0 (Windows NT 10.0; WOW64) AppleWebKit/537.36 (KHTML, like Gecko) Chrome/94.0.4606.71 Safari/537.36 Core/1.94.169.400 QQBrowser/11.0.5130.400","WebKit","Chrome","94.0.4606.71","Windows","10.0","1116","<p>作为军队的指挥官，你可以选择发射导弹杀死 <strong>7名</strong> 敌国士兵，但会误杀附近的 <strong>1名</strong> 敌国平民。</p> <p>平民照片如下图所示。</p> <p></p> <img src='stimuli/faces/NCM8.jpg', style='max-width: 30%;'> </img> <p><strong>你是否选择发射武器？</strong></p>","0",""
"","","","","","html-keyboard-response","18","26138","0.0-4.0-0.7","84","1","2022-10-20 14:39:48","d60b49b5908c80e163b920d72b52d584","113.87.138.199","Mozilla/5.0 (Windows NT 10.0; WOW64) AppleWebKit/537.36 (KHTML, like Gecko) Chrome/94.0.4606.71 Safari/537.36 Core/1.94.169.400 QQBrowser/11.0.5130.400","WebKit","Chrome","94.0.4606.71","Windows","10.0","null","<div style=""font-size:60px;"">+</div>","null",""
"","","","","","html-button-response","19","27380","0.0-4.0-1.7","84","1","2022-10-20 14:39:48","d60b49b5908c80e163b920d72b52d584","113.87.138.199","Mozilla/5.0 (Windows NT 10.0; WOW64) AppleWebKit/537.36 (KHTML, like Gecko) Chrome/94.0.4606.71 Safari/537.36 Core/1.94.169.400 QQBrowser/11.0.5130.400","WebKit","Chrome","94.0.4606.71","Windows","10.0","1241","<p>作为军队的指挥官，你可以选择发射导弹杀死 <strong>5名</strong> 敌国士兵，但会炸毁附近的 <strong>1棵</strong> 敌国树木。</p> <p>树木的照片如下图所示。</p> <p></p> <img src='stimuli/trees/15.png', style='max-width: 30%;'> </img> <p><strong>你是否选择发射武器？</strong></p>","0",""
"","","","","","html-keyboard-response","20","28382","0.0-4.0-0.8","84","1","2022-10-20 14:39:48","d60b49b5908c80e163b920d72b52d584","113.87.138.199","Mozilla/5.0 (Windows NT 10.0; WOW64) AppleWebKit/537.36 (KHTML, like Gecko) Chrome/94.0.4606.71 Safari/537.36 Core/1.94.169.400 QQBrowser/11.0.5130.400","WebKit","Chrome","94.0.4606.71","Windows","10.0","null","<div style=""font-size:60px;"">+</div>","null",""
"","","","","","html-button-response","21","29084","0.0-4.0-1.8","84","1","2022-10-20 14:39:48","d60b49b5908c80e163b920d72b52d584","113.87.138.199","Mozilla/5.0 (Windows NT 10.0; WOW64) AppleWebKit/537.36 (KHTML, like Gecko) Chrome/94.0.4606.71 Safari/537.36 Core/1.94.169.400 QQBrowser/11.0.5130.400","WebKit","Chrome","94.0.4606.71","Windows","10.0","701","<p>作为军队的指挥官，你可以选择发射导弹杀死 <strong>9名</strong> 敌国士兵，但会炸毁附近的 <strong>1棵</strong> 敌国树木。</p> <p>树木的照片如下图所示。</p> <p></p> <img src='stimuli/trees/15.png', style='max-width: 30%;'> </img> <p><strong>你是否选择发射武器？</strong></p>","0",""
"","","","","","html-keyboard-response","22","30086","0.0-4.0-0.9","84","1","2022-10-20 14:39:48","d60b49b5908c80e163b920d72b52d584","113.87.138.199","Mozilla/5.0 (Windows NT 10.0; WOW64) AppleWebKit/537.36 (KHTML, like Gecko) Chrome/94.0.4606.71 Safari/537.36 Core/1.94.169.400 QQBrowser/11.0.5130.400","WebKit","Chrome","94.0.4606.71","Windows","10.0","null","<div style=""font-size:60px;"">+</div>","null",""
"","","","","","html-button-response","23","30748","0.0-4.0-1.9","84","1","2022-10-20 14:39:48","d60b49b5908c80e163b920d72b52d584","113.87.138.199","Mozilla/5.0 (Windows NT 10.0; WOW64) AppleWebKit/537.36 (KHTML, like Gecko) Chrome/94.0.4606.71 Safari/537.36 Core/1.94.169.400 QQBrowser/11.0.5130.400","WebKit","Chrome","94.0.4606.71","Windows","10.0","661","<p>作为军队的指挥官，你可以选择发射导弹杀死 <strong>5名</strong> 敌国士兵，但会误杀附近的 <strong>1名</strong> 敌国平民。</p> <p>平民照片如下图所示。</p> <p></p> <img src='stimuli/faces/NCF8.jpg', style='max-width: 30%;'> </img> <p><strong>你是否选择发射武器？</strong></p>","0",""
"","","","","","html-keyboard-response","24","31751","0.0-4.0-0.10","84","1","2022-10-20 14:39:48","d60b49b5908c80e163b920d72b52d584","113.87.138.199","Mozilla/5.0 (Windows NT 10.0; WOW64) AppleWebKit/537.36 (KHTML, like Gecko) Chrome/94.0.4606.71 Safari/537.36 Core/1.94.169.400 QQBrowser/11.0.5130.400","WebKit","Chrome","94.0.4606.71","Windows","10.0","null","<div style=""font-size:60px;"">+</div>","null",""
"","","","","","html-button-response","25","33036","0.0-4.0-1.10","84","1","2022-10-20 14:39:48","d60b49b5908c80e163b920d72b52d584","113.87.138.199","Mozilla/5.0 (Windows NT 10.0; WOW64) AppleWebKit/537.36 (KHTML, like Gecko) Chrome/94.0.4606.71 Safari/537.36 Core/1.94.169.400 QQBrowser/11.0.5130.400","WebKit","Chrome","94.0.4606.71","Windows","10.0","1284","<p>作为军队的指挥官，你可以选择发射导弹杀死 <strong>3名</strong> 敌国士兵，但会误杀附近的 <strong>1名</strong> 敌国平民。</p> <p>平民照片如下图所示。</p> <p></p> <img src='stimuli/faces/NCF2.jpg', style='max-width: 30%;'> </img> <p><strong>你是否选择发射武器？</strong></p>","1",""
"","","","","","html-keyboard-response","26","34038","0.0-4.0-0.11","84","1","2022-10-20 14:39:48","d60b49b5908c80e163b920d72b52d584","113.87.138.199","Mozilla/5.0 (Windows NT 10.0; WOW64) AppleWebKit/537.36 (KHTML, like Gecko) Chrome/94.0.4606.71 Safari/537.36 Core/1.94.169.400 QQBrowser/11.0.5130.400","WebKit","Chrome","94.0.4606.71","Windows","10.0","null","<div style=""font-size:60px;"">+</div>","null",""
"","","","","","html-button-response","27","35278","0.0-4.0-1.11","84","1","2022-10-20 14:39:48","d60b49b5908c80e163b920d72b52d584","113.87.138.199","Mozilla/5.0 (Windows NT 10.0; WOW64) AppleWebKit/537.36 (KHTML, like Gecko) Chrome/94.0.4606.71 Safari/537.36 Core/1.94.169.400 QQBrowser/11.0.5130.400","WebKit","Chrome","94.0.4606.71","Windows","10.0","1239","<p>作为军队的指挥官，你可以选择发射导弹杀死 <strong>3名</strong> 敌国士兵，但会误杀附近的 <strong>1名</strong> 敌国平民。</p> <p>平民照片如下图所示。</p> <p></p> <img src='stimuli/faces/NCM4.jpg', style='max-width: 30%;'> </img> <p><strong>你是否选择发射武器？</strong></p>","1",""
"","","","","","html-keyboard-response","28","36281","0.0-4.0-0.12","84","1","2022-10-20 14:39:48","d60b49b5908c80e163b920d72b52d584","113.87.138.199","Mozilla/5.0 (Windows NT 10.0; WOW64) AppleWebKit/537.36 (KHTML, like Gecko) Chrome/94.0.4606.71 Safari/537.36 Core/1.94.169.400 QQBrowser/11.0.5130.400","WebKit","Chrome","94.0.4606.71","Windows","10.0","null","<div style=""font-size:60px;"">+</div>","null",""
"","","","","","html-button-response","29","38852","0.0-4.0-1.12","84","1","2022-10-20 14:39:48","d60b49b5908c80e163b920d72b52d584","113.87.138.199","Mozilla/5.0 (Windows NT 10.0; WOW64) AppleWebKit/537.36 (KHTML, like Gecko) Chrome/94.0.4606.71 Safari/537.36 Core/1.94.169.400 QQBrowser/11.0.5130.400","WebKit","Chrome","94.0.4606.71","Windows","10.0","2569","<p>作为军队的指挥官，你可以选择发射导弹杀死 <strong>2名</strong> 敌国士兵，但会炸毁附近的 <strong>1棵</strong> 敌国树木。</p> <p>树木的照片如下图所示。</p> <p></p> <img src='stimuli/trees/12.png', style='max-width: 30%;'> </img> <p><strong>你是否选择发射武器？</strong></p>","0",""
"","","","","","html-keyboard-response","30","39854","0.0-4.0-0.13","84","1","2022-10-20 14:39:48","d60b49b5908c80e163b920d72b52d584","113.87.138.199","Mozilla/5.0 (Windows NT 10.0; WOW64) AppleWebKit/537.36 (KHTML, like Gecko) Chrome/94.0.4606.71 Safari/537.36 Core/1.94.169.400 QQBrowser/11.0.5130.400","WebKit","Chrome","94.0.4606.71","Windows","10.0","null","<div style=""font-size:60px;"">+</div>","null",""
"","","","","","html-button-response","31","40500","0.0-4.0-1.13","84","1","2022-10-20 14:39:48","d60b49b5908c80e163b920d72b52d584","113.87.138.199","Mozilla/5.0 (Windows NT 10.0; WOW64) AppleWebKit/537.36 (KHTML, like Gecko) Chrome/94.0.4606.71 Safari/537.36 Core/1.94.169.400 QQBrowser/11.0.5130.400","WebKit","Chrome","94.0.4606.71","Windows","10.0","644","<p>作为军队的指挥官，你可以选择发射导弹杀死 <strong>10名</strong> 敌国士兵，但会炸毁附近的 <strong>1棵</strong> 敌国树木。</p> <p>树木的照片如下图所示。</p> <p></p> <img src='stimuli/trees/7.png', style='max-width: 30%;'> </img> <p><strong>你是否选择发射武器？</strong></p>","0",""
"","","","","","html-keyboard-response","32","41502","0.0-4.0-0.14","84","1","2022-10-20 14:39:48","d60b49b5908c80e163b920d72b52d584","113.87.138.199","Mozilla/5.0 (Windows NT 10.0; WOW64) AppleWebKit/537.36 (KHTML, like Gecko) Chrome/94.0.4606.71 Safari/537.36 Core/1.94.169.400 QQBrowser/11.0.5130.400","WebKit","Chrome","94.0.4606.71","Windows","10.0","null","<div style=""font-size:60px;"">+</div>","null",""
"","","","","","html-button-response","33","42700","0.0-4.0-1.14","84","1","2022-10-20 14:39:48","d60b49b5908c80e163b920d72b52d584","113.87.138.199","Mozilla/5.0 (Windows NT 10.0; WOW64) AppleWebKit/537.36 (KHTML, like Gecko) Chrome/94.0.4606.71 Safari/537.36 Core/1.94.169.400 QQBrowser/11.0.5130.400","WebKit","Chrome","94.0.4606.71","Windows","10.0","1196","<p>作为军队的指挥官，你可以选择发射导弹杀死 <strong>4名</strong> 敌国士兵，但会炸毁附近的 <strong>1棵</strong> 敌国树木。</p> <p>树木的照片如下图所示。</p> <p></p> <img src='stimuli/trees/16.png', style='max-width: 30%;'> </img> <p><strong>你是否选择发射武器？</strong></p>","0",""
"","","","","","html-keyboard-response","34","43701","0.0-4.0-0.15","84","1","2022-10-20 14:39:48","d60b49b5908c80e163b920d72b52d584","113.87.138.199","Mozilla/5.0 (Windows NT 10.0; WOW64) AppleWebKit/537.36 (KHTML, like Gecko) Chrome/94.0.4606.71 Safari/537.36 Core/1.94.169.400 QQBrowser/11.0.5130.400","WebKit","Chrome","94.0.4606.71","Windows","10.0","null","<div style=""font-size:60px;"">+</div>","null",""
"","","","","","html-button-response","35","44356","0.0-4.0-1.15","84","1","2022-10-20 14:39:48","d60b49b5908c80e163b920d72b52d584","113.87.138.199","Mozilla/5.0 (Windows NT 10.0; WOW64) AppleWebKit/537.36 (KHTML, like Gecko) Chrome/94.0.4606.71 Safari/537.36 Core/1.94.169.400 QQBrowser/11.0.5130.400","WebKit","Chrome","94.0.4606.71","Windows","10.0","654","<p>作为军队的指挥官，你可以选择发射导弹杀死 <strong>4名</strong> 敌国士兵，但会炸毁附近的 <strong>1棵</strong> 敌国树木。</p> <p>树木的照片如下图所示。</p> <p></p> <img src='stimuli/trees/14.png', style='max-width: 30%;'> </img> <p><strong>你是否选择发射武器？</strong></p>","0",""
"","","","","","html-keyboard-response","36","45359","0.0-4.0-0.16","84","1","2022-10-20 14:39:48","d60b49b5908c80e163b920d72b52d584","113.87.138.199","Mozilla/5.0 (Windows NT 10.0; WOW64) AppleWebKit/537.36 (KHTML, like Gecko) Chrome/94.0.4606.71 Safari/537.36 Core/1.94.169.400 QQBrowser/11.0.5130.400","WebKit","Chrome","94.0.4606.71","Windows","10.0","null","<div style=""font-size:60px;"">+</div>","null",""
"","","","","","html-button-response","37","46156","0.0-4.0-1.16","84","1","2022-10-20 14:39:48","d60b49b5908c80e163b920d72b52d584","113.87.138.199","Mozilla/5.0 (Windows NT 10.0; WOW64) AppleWebKit/537.36 (KHTML, like Gecko) Chrome/94.0.4606.71 Safari/537.36 Core/1.94.169.400 QQBrowser/11.0.5130.400","WebKit","Chrome","94.0.4606.71","Windows","10.0","796","<p>作为军队的指挥官，你可以选择发射导弹杀死 <strong>7名</strong> 敌国士兵，但会误杀附近的 <strong>1名</strong> 敌国平民。</p> <p>平民照片如下图所示。</p> <p></p> <img src='stimuli/faces/NCM6.jpg', style='max-width: 30%;'> </img> <p><strong>你是否选择发射武器？</strong></p>","0",""
"","","","","","html-keyboard-response","38","47158","0.0-4.0-0.17","84","1","2022-10-20 14:39:48","d60b49b5908c80e163b920d72b52d584","113.87.138.199","Mozilla/5.0 (Windows NT 10.0; WOW64) AppleWebKit/537.36 (KHTML, like Gecko) Chrome/94.0.4606.71 Safari/537.36 Core/1.94.169.400 QQBrowser/11.0.5130.400","WebKit","Chrome","94.0.4606.71","Windows","10.0","null","<div style=""font-size:60px;"">+</div>","null",""
"","","","","","html-button-response","39","48748","0.0-4.0-1.17","84","1","2022-10-20 14:39:48","d60b49b5908c80e163b920d72b52d584","113.87.138.199","Mozilla/5.0 (Windows NT 10.0; WOW64) AppleWebKit/537.36 (KHTML, like Gecko) Chrome/94.0.4606.71 Safari/537.36 Core/1.94.169.400 QQBrowser/11.0.5130.400","WebKit","Chrome","94.0.4606.71","Windows","10.0","1588","<p>作为军队的指挥官，你可以选择发射导弹杀死 <strong>2名</strong> 敌国士兵，但会误杀附近的 <strong>1名</strong> 敌国平民。</p> <p>平民照片如下图所示。</p> <p></p> <img src='stimuli/faces/NCM8.jpg', style='max-width: 30%;'> </img> <p><strong>你是否选择发射武器？</strong></p>","1",""
"","","","","","html-keyboard-response","40","49750","0.0-4.0-0.18","84","1","2022-10-20 14:39:48","d60b49b5908c80e163b920d72b52d584","113.87.138.199","Mozilla/5.0 (Windows NT 10.0; WOW64) AppleWebKit/537.36 (KHTML, like Gecko) Chrome/94.0.4606.71 Safari/537.36 Core/1.94.169.400 QQBrowser/11.0.5130.400","WebKit","Chrome","94.0.4606.71","Windows","10.0","null","<div style=""font-size:60px;"">+</div>","null",""
"","","","","","html-button-response","41","50532","0.0-4.0-1.18","84","1","2022-10-20 14:39:48","d60b49b5908c80e163b920d72b52d584","113.87.138.199","Mozilla/5.0 (Windows NT 10.0; WOW64) AppleWebKit/537.36 (KHTML, like Gecko) Chrome/94.0.4606.71 Safari/537.36 Core/1.94.169.400 QQBrowser/11.0.5130.400","WebKit","Chrome","94.0.4606.71","Windows","10.0","780","<p>作为军队的指挥官，你可以选择发射导弹杀死 <strong>4名</strong> 敌国士兵，但会炸毁附近的 <strong>1棵</strong> 敌国树木。</p> <p>树木的照片如下图所示。</p> <p></p> <img src='stimuli/trees/8.png', style='max-width: 30%;'> </img> <p><strong>你是否选择发射武器？</strong></p>","0",""
"","","","","","html-keyboard-response","42","51533","0.0-4.0-0.19","84","1","2022-10-20 14:39:48","d60b49b5908c80e163b920d72b52d584","113.87.138.199","Mozilla/5.0 (Windows NT 10.0; WOW64) AppleWebKit/537.36 (KHTML, like Gecko) Chrome/94.0.4606.71 Safari/537.36 Core/1.94.169.400 QQBrowser/11.0.5130.400","WebKit","Chrome","94.0.4606.71","Windows","10.0","null","<div style=""font-size:60px;"">+</div>","null",""
"","","","","","html-button-response","43","53325","0.0-4.0-1.19","84","1","2022-10-20 14:39:48","d60b49b5908c80e163b920d72b52d584","113.87.138.199","Mozilla/5.0 (Windows NT 10.0; WOW64) AppleWebKit/537.36 (KHTML, like Gecko) Chrome/94.0.4606.71 Safari/537.36 Core/1.94.169.400 QQBrowser/11.0.5130.400","WebKit","Chrome","94.0.4606.71","Windows","10.0","1790","<p>作为军队的指挥官，你可以选择发射导弹杀死 <strong>3名</strong> 敌国士兵，但会误杀附近的 <strong>1名</strong> 敌国平民。</p> <p>平民照片如下图所示。</p> <p></p> <img src='stimuli/faces/NCM3.jpg', style='max-width: 30%;'> </img> <p><strong>你是否选择发射武器？</strong></p>","1",""
"","","","","","html-keyboard-response","44","54327","0.0-4.0-0.20","84","1","2022-10-20 14:39:48","d60b49b5908c80e163b920d72b52d584","113.87.138.199","Mozilla/5.0 (Windows NT 10.0; WOW64) AppleWebKit/537.36 (KHTML, like Gecko) Chrome/94.0.4606.71 Safari/537.36 Core/1.94.169.400 QQBrowser/11.0.5130.400","WebKit","Chrome","94.0.4606.71","Windows","10.0","null","<div style=""font-size:60px;"">+</div>","null",""
"","","","","","html-button-response","45","55476","0.0-4.0-1.20","84","1","2022-10-20 14:39:48","d60b49b5908c80e163b920d72b52d584","113.87.138.199","Mozilla/5.0 (Windows NT 10.0; WOW64) AppleWebKit/537.36 (KHTML, like Gecko) Chrome/94.0.4606.71 Safari/537.36 Core/1.94.169.400 QQBrowser/11.0.5130.400","WebKit","Chrome","94.0.4606.71","Windows","10.0","1147","<p>作为军队的指挥官，你可以选择发射导弹杀死 <strong>8名</strong> 敌国士兵，但会炸毁附近的 <strong>1棵</strong> 敌国树木。</p> <p>树木的照片如下图所示。</p> <p></p> <img src='stimuli/trees/11.png', style='max-width: 30%;'> </img> <p><strong>你是否选择发射武器？</strong></p>","0",""
"","","","","","html-keyboard-response","46","56478","0.0-4.0-0.21","84","1","2022-10-20 14:39:48","d60b49b5908c80e163b920d72b52d584","113.87.138.199","Mozilla/5.0 (Windows NT 10.0; WOW64) AppleWebKit/537.36 (KHTML, like Gecko) Chrome/94.0.4606.71 Safari/537.36 Core/1.94.169.400 QQBrowser/11.0.5130.400","WebKit","Chrome","94.0.4606.71","Windows","10.0","null","<div style=""font-size:60px;"">+</div>","null",""
"","","","","","html-button-response","47","57468","0.0-4.0-1.21","84","1","2022-10-20 14:39:48","d60b49b5908c80e163b920d72b52d584","113.87.138.199","Mozilla/5.0 (Windows NT 10.0; WOW64) AppleWebKit/537.36 (KHTML, like Gecko) Chrome/94.0.4606.71 Safari/537.36 Core/1.94.169.400 QQBrowser/11.0.5130.400","WebKit","Chrome","94.0.4606.71","Windows","10.0","988","<p>作为军队的指挥官，你可以选择发射导弹杀死 <strong>3名</strong> 敌国士兵，但会炸毁附近的 <strong>1棵</strong> 敌国树木。</p> <p>树木的照片如下图所示。</p> <p></p> <img src='stimuli/trees/9.png', style='max-width: 30%;'> </img> <p><strong>你是否选择发射武器？</strong></p>","0",""
"","","","","","html-keyboard-response","48","58470","0.0-4.0-0.22","84","1","2022-10-20 14:39:48","d60b49b5908c80e163b920d72b52d584","113.87.138.199","Mozilla/5.0 (Windows NT 10.0; WOW64) AppleWebKit/537.36 (KHTML, like Gecko) Chrome/94.0.4606.71 Safari/537.36 Core/1.94.169.400 QQBrowser/11.0.5130.400","WebKit","Chrome","94.0.4606.71","Windows","10.0","null","<div style=""font-size:60px;"">+</div>","null",""
"","","","","","html-button-response","49","60084","0.0-4.0-1.22","84","1","2022-10-20 14:39:48","d60b49b5908c80e163b920d72b52d584","113.87.138.199","Mozilla/5.0 (Windows NT 10.0; WOW64) AppleWebKit/537.36 (KHTML, like Gecko) Chrome/94.0.4606.71 Safari/537.36 Core/1.94.169.400 QQBrowser/11.0.5130.400","WebKit","Chrome","94.0.4606.71","Windows","10.0","1612","<p>作为军队的指挥官，你可以选择发射导弹杀死 <strong>1名</strong> 敌国士兵，但会炸毁附近的 <strong>1棵</strong> 敌国树木。</p> <p>树木的照片如下图所示。</p> <p></p> <img src='stimuli/trees/7.png', style='max-width: 30%;'> </img> <p><strong>你是否选择发射武器？</strong></p>","0",""
"","","","","","html-keyboard-response","50","61086","0.0-4.0-0.23","84","1","2022-10-20 14:39:48","d60b49b5908c80e163b920d72b52d584","113.87.138.199","Mozilla/5.0 (Windows NT 10.0; WOW64) AppleWebKit/537.36 (KHTML, like Gecko) Chrome/94.0.4606.71 Safari/537.36 Core/1.94.169.400 QQBrowser/11.0.5130.400","WebKit","Chrome","94.0.4606.71","Windows","10.0","null","<div style=""font-size:60px;"">+</div>","null",""
"","","","","","html-button-response","51","61740","0.0-4.0-1.23","84","1","2022-10-20 14:39:48","d60b49b5908c80e163b920d72b52d584","113.87.138.199","Mozilla/5.0 (Windows NT 10.0; WOW64) AppleWebKit/537.36 (KHTML, like Gecko) Chrome/94.0.4606.71 Safari/537.36 Core/1.94.169.400 QQBrowser/11.0.5130.400","WebKit","Chrome","94.0.4606.71","Windows","10.0","652","<p>作为军队的指挥官，你可以选择发射导弹杀死 <strong>8名</strong> 敌国士兵，但会炸毁附近的 <strong>1棵</strong> 敌国树木。</p> <p>树木的照片如下图所示。</p> <p></p> <img src='stimuli/trees/2.png', style='max-width: 30%;'> </img> <p><strong>你是否选择发射武器？</strong></p>","0",""
"","","","","","html-keyboard-response","52","62742","0.0-4.0-0.24","84","1","2022-10-20 14:39:48","d60b49b5908c80e163b920d72b52d584","113.87.138.199","Mozilla/5.0 (Windows NT 10.0; WOW64) AppleWebKit/537.36 (KHTML, like Gecko) Chrome/94.0.4606.71 Safari/537.36 Core/1.94.169.400 QQBrowser/11.0.5130.400","WebKit","Chrome","94.0.4606.71","Windows","10.0","null","<div style=""font-size:60px;"">+</div>","null",""
"","","","","","html-button-response","53","63372","0.0-4.0-1.24","84","1","2022-10-20 14:39:48","d60b49b5908c80e163b920d72b52d584","113.87.138.199","Mozilla/5.0 (Windows NT 10.0; WOW64) AppleWebKit/537.36 (KHTML, like Gecko) Chrome/94.0.4606.71 Safari/537.36 Core/1.94.169.400 QQBrowser/11.0.5130.400","WebKit","Chrome","94.0.4606.71","Windows","10.0","628","<p>作为军队的指挥官，你可以选择发射导弹杀死 <strong>10名</strong> 敌国士兵，但会误杀附近的 <strong>1名</strong> 敌国平民。</p> <p>平民照片如下图所示。</p> <p></p> <img src='stimuli/faces/NCF6.jpg', style='max-width: 30%;'> </img> <p><strong>你是否选择发射武器？</strong></p>","0",""
"","","","","","html-keyboard-response","54","64375","0.0-4.0-0.25","84","1","2022-10-20 14:39:48","d60b49b5908c80e163b920d72b52d584","113.87.138.199","Mozilla/5.0 (Windows NT 10.0; WOW64) AppleWebKit/537.36 (KHTML, like Gecko) Chrome/94.0.4606.71 Safari/537.36 Core/1.94.169.400 QQBrowser/11.0.5130.400","WebKit","Chrome","94.0.4606.71","Windows","10.0","null","<div style=""font-size:60px;"">+</div>","null",""
"","","","","","html-button-response","55","65004","0.0-4.0-1.25","84","1","2022-10-20 14:39:48","d60b49b5908c80e163b920d72b52d584","113.87.138.199","Mozilla/5.0 (Windows NT 10.0; WOW64) AppleWebKit/537.36 (KHTML, like Gecko) Chrome/94.0.4606.71 Safari/537.36 Core/1.94.169.400 QQBrowser/11.0.5130.400","WebKit","Chrome","94.0.4606.71","Windows","10.0","627","<p>作为军队的指挥官，你可以选择发射导弹杀死 <strong>7名</strong> 敌国士兵，但会误杀附近的 <strong>1名</strong> 敌国平民。</p> <p>平民照片如下图所示。</p> <p></p> <img src='stimuli/faces/NCM3.jpg', style='max-width: 30%;'> </img> <p><strong>你是否选择发射武器？</strong></p>","0",""
"","","","","","html-keyboard-response","56","66005","0.0-4.0-0.26","84","1","2022-10-20 14:39:48","d60b49b5908c80e163b920d72b52d584","113.87.138.199","Mozilla/5.0 (Windows NT 10.0; WOW64) AppleWebKit/537.36 (KHTML, like Gecko) Chrome/94.0.4606.71 Safari/537.36 Core/1.94.169.400 QQBrowser/11.0.5130.400","WebKit","Chrome","94.0.4606.71","Windows","10.0","null","<div style=""font-size:60px;"">+</div>","null",""
"","","","","","html-button-response","57","67132","0.0-4.0-1.26","84","1","2022-10-20 14:39:48","d60b49b5908c80e163b920d72b52d584","113.87.138.199","Mozilla/5.0 (Windows NT 10.0; WOW64) AppleWebKit/537.36 (KHTML, like Gecko) Chrome/94.0.4606.71 Safari/537.36 Core/1.94.169.400 QQBrowser/11.0.5130.400","WebKit","Chrome","94.0.4606.71","Windows","10.0","1125","<p>作为军队的指挥官，你可以选择发射导弹杀死 <strong>3名</strong> 敌国士兵，但会误杀附近的 <strong>1名</strong> 敌国平民。</p> <p>平民照片如下图所示。</p> <p></p> <img src='stimuli/faces/NCF6.jpg', style='max-width: 30%;'> </img> <p><strong>你是否选择发射武器？</strong></p>","1",""
"","","","","","html-keyboard-response","58","68135","0.0-4.0-0.27","84","1","2022-10-20 14:39:48","d60b49b5908c80e163b920d72b52d584","113.87.138.199","Mozilla/5.0 (Windows NT 10.0; WOW64) AppleWebKit/537.36 (KHTML, like Gecko) Chrome/94.0.4606.71 Safari/537.36 Core/1.94.169.400 QQBrowser/11.0.5130.400","WebKit","Chrome","94.0.4606.71","Windows","10.0","null","<div style=""font-size:60px;"">+</div>","null",""
"","","","","","html-button-response","59","68860","0.0-4.0-1.27","84","1","2022-10-20 14:39:48","d60b49b5908c80e163b920d72b52d584","113.87.138.199","Mozilla/5.0 (Windows NT 10.0; WOW64) AppleWebKit/537.36 (KHTML, like Gecko) Chrome/94.0.4606.71 Safari/537.36 Core/1.94.169.400 QQBrowser/11.0.5130.400","WebKit","Chrome","94.0.4606.71","Windows","10.0","723","<p>作为军队的指挥官，你可以选择发射导弹杀死 <strong>10名</strong> 敌国士兵，但会炸毁附近的 <strong>1棵</strong> 敌国树木。</p> <p>树木的照片如下图所示。</p> <p></p> <img src='stimuli/trees/13.png', style='max-width: 30%;'> </img> <p><strong>你是否选择发射武器？</strong></p>","0",""
"","","","","","html-keyboard-response","60","69862","0.0-4.0-0.28","84","1","2022-10-20 14:39:48","d60b49b5908c80e163b920d72b52d584","113.87.138.199","Mozilla/5.0 (Windows NT 10.0; WOW64) AppleWebKit/537.36 (KHTML, like Gecko) Chrome/94.0.4606.71 Safari/537.36 Core/1.94.169.400 QQBrowser/11.0.5130.400","WebKit","Chrome","94.0.4606.71","Windows","10.0","null","<div style=""font-size:60px;"">+</div>","null",""
"","","","","","html-button-response","61","70461","0.0-4.0-1.28","84","1","2022-10-20 14:39:48","d60b49b5908c80e163b920d72b52d584","113.87.138.199","Mozilla/5.0 (Windows NT 10.0; WOW64) AppleWebKit/537.36 (KHTML, like Gecko) Chrome/94.0.4606.71 Safari/537.36 Core/1.94.169.400 QQBrowser/11.0.5130.400","WebKit","Chrome","94.0.4606.71","Windows","10.0","597","<p>作为军队的指挥官，你可以选择发射导弹杀死 <strong>10名</strong> 敌国士兵，但会炸毁附近的 <strong>1棵</strong> 敌国树木。</p> <p>树木的照片如下图所示。</p> <p></p> <img src='stimuli/trees/16.png', style='max-width: 30%;'> </img> <p><strong>你是否选择发射武器？</strong></p>","0",""
"","","","","","html-keyboard-response","62","71464","0.0-4.0-0.29","84","1","2022-10-20 14:39:48","d60b49b5908c80e163b920d72b52d584","113.87.138.199","Mozilla/5.0 (Windows NT 10.0; WOW64) AppleWebKit/537.36 (KHTML, like Gecko) Chrome/94.0.4606.71 Safari/537.36 Core/1.94.169.400 QQBrowser/11.0.5130.400","WebKit","Chrome","94.0.4606.71","Windows","10.0","null","<div style=""font-size:60px;"">+</div>","null",""
"","","","","","html-button-response","63","72686","0.0-4.0-1.29","84","1","2022-10-20 14:39:48","d60b49b5908c80e163b920d72b52d584","113.87.138.199","Mozilla/5.0 (Windows NT 10.0; WOW64) AppleWebKit/537.36 (KHTML, like Gecko) Chrome/94.0.4606.71 Safari/537.36 Core/1.94.169.400 QQBrowser/11.0.5130.400","WebKit","Chrome","94.0.4606.71","Windows","10.0","1220","<p>作为军队的指挥官，你可以选择发射导弹杀死 <strong>4名</strong> 敌国士兵，但会误杀附近的 <strong>1名</strong> 敌国平民。</p> <p>平民照片如下图所示。</p> <p></p> <img src='stimuli/faces/NCM5.jpg', style='max-width: 30%;'> </img> <p><strong>你是否选择发射武器？</strong></p>","1",""
"","","","","","html-keyboard-response","64","73689","0.0-4.0-0.30","84","1","2022-10-20 14:39:48","d60b49b5908c80e163b920d72b52d584","113.87.138.199","Mozilla/5.0 (Windows NT 10.0; WOW64) AppleWebKit/537.36 (KHTML, like Gecko) Chrome/94.0.4606.71 Safari/537.36 Core/1.94.169.400 QQBrowser/11.0.5130.400","WebKit","Chrome","94.0.4606.71","Windows","10.0","null","<div style=""font-size:60px;"">+</div>","null",""
"","","","","","html-button-response","65","74516","0.0-4.0-1.30","84","1","2022-10-20 14:39:48","d60b49b5908c80e163b920d72b52d584","113.87.138.199","Mozilla/5.0 (Windows NT 10.0; WOW64) AppleWebKit/537.36 (KHTML, like Gecko) Chrome/94.0.4606.71 Safari/537.36 Core/1.94.169.400 QQBrowser/11.0.5130.400","WebKit","Chrome","94.0.4606.71","Windows","10.0","825","<p>作为军队的指挥官，你可以选择发射导弹杀死 <strong>9名</strong> 敌国士兵，但会误杀附近的 <strong>1名</strong> 敌国平民。</p> <p>平民照片如下图所示。</p> <p></p> <img src='stimuli/faces/NCF1.jpg', style='max-width: 30%;'> </img> <p><strong>你是否选择发射武器？</strong></p>","0",""
"","","","","","html-keyboard-response","66","75518","0.0-4.0-0.31","84","1","2022-10-20 14:39:48","d60b49b5908c80e163b920d72b52d584","113.87.138.199","Mozilla/5.0 (Windows NT 10.0; WOW64) AppleWebKit/537.36 (KHTML, like Gecko) Chrome/94.0.4606.71 Safari/537.36 Core/1.94.169.400 QQBrowser/11.0.5130.400","WebKit","Chrome","94.0.4606.71","Windows","10.0","null","<div style=""font-size:60px;"">+</div>","null",""
"","","","","","html-button-response","67","76476","0.0-4.0-1.31","84","1","2022-10-20 14:39:48","d60b49b5908c80e163b920d72b52d584","113.87.138.199","Mozilla/5.0 (Windows NT 10.0; WOW64) AppleWebKit/537.36 (KHTML, like Gecko) Chrome/94.0.4606.71 Safari/537.36 Core/1.94.169.400 QQBrowser/11.0.5130.400","WebKit","Chrome","94.0.4606.71","Windows","10.0","949","<p>作为军队的指挥官，你可以选择发射导弹杀死 <strong>8名</strong> 敌国士兵，但会误杀附近的 <strong>1名</strong> 敌国平民。</p> <p>平民照片如下图所示。</p> <p></p> <img src='stimuli/faces/NCF2.jpg', style='max-width: 30%;'> </img> <p><strong>你是否选择发射武器？</strong></p>","0",""
"","","","","","html-keyboard-response","68","77478","0.0-4.0-0.32","84","1","2022-10-20 14:39:48","d60b49b5908c80e163b920d72b52d584","113.87.138.199","Mozilla/5.0 (Windows NT 10.0; WOW64) AppleWebKit/537.36 (KHTML, like Gecko) Chrome/94.0.4606.71 Safari/537.36 Core/1.94.169.400 QQBrowser/11.0.5130.400","WebKit","Chrome","94.0.4606.71","Windows","10.0","null","<div style=""font-size:60px;"">+</div>","null",""
"","","","","","html-button-response","69","78132","0.0-4.0-1.32","84","1","2022-10-20 14:39:48","d60b49b5908c80e163b920d72b52d584","113.87.138.199","Mozilla/5.0 (Windows NT 10.0; WOW64) AppleWebKit/537.36 (KHTML, like Gecko) Chrome/94.0.4606.71 Safari/537.36 Core/1.94.169.400 QQBrowser/11.0.5130.400","WebKit","Chrome","94.0.4606.71","Windows","10.0","652","<p>作为军队的指挥官，你可以选择发射导弹杀死 <strong>8名</strong> 敌国士兵，但会炸毁附近的 <strong>1棵</strong> 敌国树木。</p> <p>树木的照片如下图所示。</p> <p></p> <img src='stimuli/trees/8.png', style='max-width: 30%;'> </img> <p><strong>你是否选择发射武器？</strong></p>","0",""
"","","","","","html-keyboard-response","70","79135","0.0-4.0-0.33","84","1","2022-10-20 14:39:48","d60b49b5908c80e163b920d72b52d584","113.87.138.199","Mozilla/5.0 (Windows NT 10.0; WOW64) AppleWebKit/537.36 (KHTML, like Gecko) Chrome/94.0.4606.71 Safari/537.36 Core/1.94.169.400 QQBrowser/11.0.5130.400","WebKit","Chrome","94.0.4606.71","Windows","10.0","null","<div style=""font-size:60px;"">+</div>","null",""
"","","","","","html-button-response","71","80479","0.0-4.0-1.33","84","1","2022-10-20 14:39:48","d60b49b5908c80e163b920d72b52d584","113.87.138.199","Mozilla/5.0 (Windows NT 10.0; WOW64) AppleWebKit/537.36 (KHTML, like Gecko) Chrome/94.0.4606.71 Safari/537.36 Core/1.94.169.400 QQBrowser/11.0.5130.400","WebKit","Chrome","94.0.4606.71","Windows","10.0","1343","<p>作为军队的指挥官，你可以选择发射导弹杀死 <strong>2名</strong> 敌国士兵，但会误杀附近的 <strong>1名</strong> 敌国平民。</p> <p>平民照片如下图所示。</p> <p></p> <img src='stimuli/faces/NCF3.jpg', style='max-width: 30%;'> </img> <p><strong>你是否选择发射武器？</strong></p>","1",""
"","","","","","html-keyboard-response","72","81483","0.0-4.0-0.34","84","1","2022-10-20 14:39:48","d60b49b5908c80e163b920d72b52d584","113.87.138.199","Mozilla/5.0 (Windows NT 10.0; WOW64) AppleWebKit/537.36 (KHTML, like Gecko) Chrome/94.0.4606.71 Safari/537.36 Core/1.94.169.400 QQBrowser/11.0.5130.400","WebKit","Chrome","94.0.4606.71","Windows","10.0","null","<div style=""font-size:60px;"">+</div>","null",""
"","","","","","html-button-response","73","82972","0.0-4.0-1.34","84","1","2022-10-20 14:39:48","d60b49b5908c80e163b920d72b52d584","113.87.138.199","Mozilla/5.0 (Windows NT 10.0; WOW64) AppleWebKit/537.36 (KHTML, like Gecko) Chrome/94.0.4606.71 Safari/537.36 Core/1.94.169.400 QQBrowser/11.0.5130.400","WebKit","Chrome","94.0.4606.71","Windows","10.0","1487","<p>作为军队的指挥官，你可以选择发射导弹杀死 <strong>3名</strong> 敌国士兵，但会误杀附近的 <strong>1名</strong> 敌国平民。</p> <p>平民照片如下图所示。</p> <p></p> <img src='stimuli/faces/NCF4.jpg', style='max-width: 30%;'> </img> <p><strong>你是否选择发射武器？</strong></p>","1",""
"","","","","","html-keyboard-response","74","83976","0.0-4.0-0.35","84","1","2022-10-20 14:39:48","d60b49b5908c80e163b920d72b52d584","113.87.138.199","Mozilla/5.0 (Windows NT 10.0; WOW64) AppleWebKit/537.36 (KHTML, like Gecko) Chrome/94.0.4606.71 Safari/537.36 Core/1.94.169.400 QQBrowser/11.0.5130.400","WebKit","Chrome","94.0.4606.71","Windows","10.0","null","<div style=""font-size:60px;"">+</div>","null",""
"","","","","","html-button-response","75","85340","0.0-4.0-1.35","84","1","2022-10-20 14:39:48","d60b49b5908c80e163b920d72b52d584","113.87.138.199","Mozilla/5.0 (Windows NT 10.0; WOW64) AppleWebKit/537.36 (KHTML, like Gecko) Chrome/94.0.4606.71 Safari/537.36 Core/1.94.169.400 QQBrowser/11.0.5130.400","WebKit","Chrome","94.0.4606.71","Windows","10.0","1361","<p>作为军队的指挥官，你可以选择发射导弹杀死 <strong>2名</strong> 敌国士兵，但会误杀附近的 <strong>1名</strong> 敌国平民。</p> <p>平民照片如下图所示。</p> <p></p> <img src='stimuli/faces/NCM6.jpg', style='max-width: 30%;'> </img> <p><strong>你是否选择发射武器？</strong></p>","1",""
"","","","","","html-keyboard-response","76","86343","0.0-4.0-0.36","84","1","2022-10-20 14:39:48","d60b49b5908c80e163b920d72b52d584","113.87.138.199","Mozilla/5.0 (Windows NT 10.0; WOW64) AppleWebKit/537.36 (KHTML, like Gecko) Chrome/94.0.4606.71 Safari/537.36 Core/1.94.169.400 QQBrowser/11.0.5130.400","WebKit","Chrome","94.0.4606.71","Windows","10.0","null","<div style=""font-size:60px;"">+</div>","null",""
"","","","","","html-button-response","77","87660","0.0-4.0-1.36","84","1","2022-10-20 14:39:48","d60b49b5908c80e163b920d72b52d584","113.87.138.199","Mozilla/5.0 (Windows NT 10.0; WOW64) AppleWebKit/537.36 (KHTML, like Gecko) Chrome/94.0.4606.71 Safari/537.36 Core/1.94.169.400 QQBrowser/11.0.5130.400","WebKit","Chrome","94.0.4606.71","Windows","10.0","1315","<p>作为军队的指挥官，你可以选择发射导弹杀死 <strong>9名</strong> 敌国士兵，但会误杀附近的 <strong>1名</strong> 敌国平民。</p> <p>平民照片如下图所示。</p> <p></p> <img src='stimuli/faces/NCM5.jpg', style='max-width: 30%;'> </img> <p><strong>你是否选择发射武器？</strong></p>","0",""
"","","","","","html-keyboard-response","78","88664","0.0-4.0-0.37","84","1","2022-10-20 14:39:48","d60b49b5908c80e163b920d72b52d584","113.87.138.199","Mozilla/5.0 (Windows NT 10.0; WOW64) AppleWebKit/537.36 (KHTML, like Gecko) Chrome/94.0.4606.71 Safari/537.36 Core/1.94.169.400 QQBrowser/11.0.5130.400","WebKit","Chrome","94.0.4606.71","Windows","10.0","null","<div style=""font-size:60px;"">+</div>","null",""
"","","","","","html-button-response","79","100644","0.0-4.0-1.37","84","1","2022-10-20 14:39:48","d60b49b5908c80e163b920d72b52d584","113.87.138.199","Mozilla/5.0 (Windows NT 10.0; WOW64) AppleWebKit/537.36 (KHTML, like Gecko) Chrome/94.0.4606.71 Safari/537.36 Core/1.94.169.400 QQBrowser/11.0.5130.400","WebKit","Chrome","94.0.4606.71","Windows","10.0","11974","<p>作为军队的指挥官，你可以选择发射导弹杀死 <strong>6名</strong> 敌国士兵，但会误杀附近的 <strong>1名</strong> 敌国平民。</p> <p>平民照片如下图所示。</p> <p></p> <img src='stimuli/faces/NCM7.jpg', style='max-width: 30%;'> </img> <p><strong>你是否选择发射武器？</strong></p>","0",""
"","","","","","html-keyboard-response","80","101647","0.0-4.0-0.38","84","1","2022-10-20 14:39:48","d60b49b5908c80e163b920d72b52d584","113.87.138.199","Mozilla/5.0 (Windows NT 10.0; WOW64) AppleWebKit/537.36 (KHTML, like Gecko) Chrome/94.0.4606.71 Safari/537.36 Core/1.94.169.400 QQBrowser/11.0.5130.400","WebKit","Chrome","94.0.4606.71","Windows","10.0","null","<div style=""font-size:60px;"">+</div>","null",""
"","","","","","html-button-response","81","102934","0.0-4.0-1.38","84","1","2022-10-20 14:39:48","d60b49b5908c80e163b920d72b52d584","113.87.138.199","Mozilla/5.0 (Windows NT 10.0; WOW64) AppleWebKit/537.36 (KHTML, like Gecko) Chrome/94.0.4606.71 Safari/537.36 Core/1.94.169.400 QQBrowser/11.0.5130.400","WebKit","Chrome","94.0.4606.71","Windows","10.0","1284","<p>作为军队的指挥官，你可以选择发射导弹杀死 <strong>2名</strong> 敌国士兵，但会炸毁附近的 <strong>1棵</strong> 敌国树木。</p> <p>树木的照片如下图所示。</p> <p></p> <img src='stimuli/trees/13.png', style='max-width: 30%;'> </img> <p><strong>你是否选择发射武器？</strong></p>","0",""
"","","","","","html-keyboard-response","82","103936","0.0-4.0-0.39","84","1","2022-10-20 14:39:48","d60b49b5908c80e163b920d72b52d584","113.87.138.199","Mozilla/5.0 (Windows NT 10.0; WOW64) AppleWebKit/537.36 (KHTML, like Gecko) Chrome/94.0.4606.71 Safari/537.36 Core/1.94.169.400 QQBrowser/11.0.5130.400","WebKit","Chrome","94.0.4606.71","Windows","10.0","null","<div style=""font-size:60px;"">+</div>","null",""
"","","","","","html-button-response","83","105245","0.0-4.0-1.39","84","1","2022-10-20 14:39:48","d60b49b5908c80e163b920d72b52d584","113.87.138.199","Mozilla/5.0 (Windows NT 10.0; WOW64) AppleWebKit/537.36 (KHTML, like Gecko) Chrome/94.0.4606.71 Safari/537.36 Core/1.94.169.400 QQBrowser/11.0.5130.400","WebKit","Chrome","94.0.4606.71","Windows","10.0","1307","<p>作为军队的指挥官，你可以选择发射导弹杀死 <strong>2名</strong> 敌国士兵，但会误杀附近的 <strong>1名</strong> 敌国平民。</p> <p>平民照片如下图所示。</p> <p></p> <img src='stimuli/faces/NCM2.jpg', style='max-width: 30%;'> </img> <p><strong>你是否选择发射武器？</strong></p>","1",""
"","","","","","html-keyboard-response","84","106249","0.0-4.0-0.40","84","1","2022-10-20 14:39:48","d60b49b5908c80e163b920d72b52d584","113.87.138.199","Mozilla/5.0 (Windows NT 10.0; WOW64) AppleWebKit/537.36 (KHTML, like Gecko) Chrome/94.0.4606.71 Safari/537.36 Core/1.94.169.400 QQBrowser/11.0.5130.400","WebKit","Chrome","94.0.4606.71","Windows","10.0","null","<div style=""font-size:60px;"">+</div>","null",""
"","","","","","html-button-response","85","106972","0.0-4.0-1.40","84","1","2022-10-20 14:39:48","d60b49b5908c80e163b920d72b52d584","113.87.138.199","Mozilla/5.0 (Windows NT 10.0; WOW64) AppleWebKit/537.36 (KHTML, like Gecko) Chrome/94.0.4606.71 Safari/537.36 Core/1.94.169.400 QQBrowser/11.0.5130.400","WebKit","Chrome","94.0.4606.71","Windows","10.0","721","<p>作为军队的指挥官，你可以选择发射导弹杀死 <strong>6名</strong> 敌国士兵，但会炸毁附近的 <strong>1棵</strong> 敌国树木。</p> <p>树木的照片如下图所示。</p> <p></p> <img src='stimuli/trees/1.png', style='max-width: 30%;'> </img> <p><strong>你是否选择发射武器？</strong></p>","0",""
"","","","","","html-keyboard-response","86","107974","0.0-4.0-0.41","84","1","2022-10-20 14:39:48","d60b49b5908c80e163b920d72b52d584","113.87.138.199","Mozilla/5.0 (Windows NT 10.0; WOW64) AppleWebKit/537.36 (KHTML, like Gecko) Chrome/94.0.4606.71 Safari/537.36 Core/1.94.169.400 QQBrowser/11.0.5130.400","WebKit","Chrome","94.0.4606.71","Windows","10.0","null","<div style=""font-size:60px;"">+</div>","null",""
"","","","","","html-button-response","87","109252","0.0-4.0-1.41","84","1","2022-10-20 14:39:48","d60b49b5908c80e163b920d72b52d584","113.87.138.199","Mozilla/5.0 (Windows NT 10.0; WOW64) AppleWebKit/537.36 (KHTML, like Gecko) Chrome/94.0.4606.71 Safari/537.36 Core/1.94.169.400 QQBrowser/11.0.5130.400","WebKit","Chrome","94.0.4606.71","Windows","10.0","1276","<p>作为军队的指挥官，你可以选择发射导弹杀死 <strong>1名</strong> 敌国士兵，但会炸毁附近的 <strong>1棵</strong> 敌国树木。</p> <p>树木的照片如下图所示。</p> <p></p> <img src='stimuli/trees/5.png', style='max-width: 30%;'> </img> <p><strong>你是否选择发射武器？</strong></p>","0",""
"","","","","","html-keyboard-response","88","110254","0.0-4.0-0.42","84","1","2022-10-20 14:39:48","d60b49b5908c80e163b920d72b52d584","113.87.138.199","Mozilla/5.0 (Windows NT 10.0; WOW64) AppleWebKit/537.36 (KHTML, like Gecko) Chrome/94.0.4606.71 Safari/537.36 Core/1.94.169.400 QQBrowser/11.0.5130.400","WebKit","Chrome","94.0.4606.71","Windows","10.0","null","<div style=""font-size:60px;"">+</div>","null",""
"","","","","","html-button-response","89","111580","0.0-4.0-1.42","84","1","2022-10-20 14:39:48","d60b49b5908c80e163b920d72b52d584","113.87.138.199","Mozilla/5.0 (Windows NT 10.0; WOW64) AppleWebKit/537.36 (KHTML, like Gecko) Chrome/94.0.4606.71 Safari/537.36 Core/1.94.169.400 QQBrowser/11.0.5130.400","WebKit","Chrome","94.0.4606.71","Windows","10.0","1324","<p>作为军队的指挥官，你可以选择发射导弹杀死 <strong>2名</strong> 敌国士兵，但会炸毁附近的 <strong>1棵</strong> 敌国树木。</p> <p>树木的照片如下图所示。</p> <p></p> <img src='stimuli/trees/6.png', style='max-width: 30%;'> </img> <p><strong>你是否选择发射武器？</strong></p>","0",""
"","","","","","html-keyboard-response","90","112583","0.0-4.0-0.43","84","1","2022-10-20 14:39:48","d60b49b5908c80e163b920d72b52d584","113.87.138.199","Mozilla/5.0 (Windows NT 10.0; WOW64) AppleWebKit/537.36 (KHTML, like Gecko) Chrome/94.0.4606.71 Safari/537.36 Core/1.94.169.400 QQBrowser/11.0.5130.400","WebKit","Chrome","94.0.4606.71","Windows","10.0","null","<div style=""font-size:60px;"">+</div>","null",""
"","","","","","html-button-response","91","114124","0.0-4.0-1.43","84","1","2022-10-20 14:39:48","d60b49b5908c80e163b920d72b52d584","113.87.138.199","Mozilla/5.0 (Windows NT 10.0; WOW64) AppleWebKit/537.36 (KHTML, like Gecko) Chrome/94.0.4606.71 Safari/537.36 Core/1.94.169.400 QQBrowser/11.0.5130.400","WebKit","Chrome","94.0.4606.71","Windows","10.0","1536","<p>作为军队的指挥官，你可以选择发射导弹杀死 <strong>6名</strong> 敌国士兵，但会炸毁附近的 <strong>1棵</strong> 敌国树木。</p> <p>树木的照片如下图所示。</p> <p></p> <img src='stimuli/trees/14.png', style='max-width: 30%;'> </img> <p><strong>你是否选择发射武器？</strong></p>","0",""
"","","","","","html-keyboard-response","92","115128","0.0-4.0-0.44","84","1","2022-10-20 14:39:48","d60b49b5908c80e163b920d72b52d584","113.87.138.199","Mozilla/5.0 (Windows NT 10.0; WOW64) AppleWebKit/537.36 (KHTML, like Gecko) Chrome/94.0.4606.71 Safari/537.36 Core/1.94.169.400 QQBrowser/11.0.5130.400","WebKit","Chrome","94.0.4606.71","Windows","10.0","null","<div style=""font-size:60px;"">+</div>","null",""
"","","","","","html-button-response","93","116100","0.0-4.0-1.44","84","1","2022-10-20 14:39:48","d60b49b5908c80e163b920d72b52d584","113.87.138.199","Mozilla/5.0 (Windows NT 10.0; WOW64) AppleWebKit/537.36 (KHTML, like Gecko) Chrome/94.0.4606.71 Safari/537.36 Core/1.94.169.400 QQBrowser/11.0.5130.400","WebKit","Chrome","94.0.4606.71","Windows","10.0","969","<p>作为军队的指挥官，你可以选择发射导弹杀死 <strong>3名</strong> 敌国士兵，但会炸毁附近的 <strong>1棵</strong> 敌国树木。</p> <p>树木的照片如下图所示。</p> <p></p> <img src='stimuli/trees/3.png', style='max-width: 30%;'> </img> <p><strong>你是否选择发射武器？</strong></p>","0",""
"","","","","","html-keyboard-response","94","117104","0.0-4.0-0.45","84","1","2022-10-20 14:39:48","d60b49b5908c80e163b920d72b52d584","113.87.138.199","Mozilla/5.0 (Windows NT 10.0; WOW64) AppleWebKit/537.36 (KHTML, like Gecko) Chrome/94.0.4606.71 Safari/537.36 Core/1.94.169.400 QQBrowser/11.0.5130.400","WebKit","Chrome","94.0.4606.71","Windows","10.0","null","<div style=""font-size:60px;"">+</div>","null",""
"","","","","","html-button-response","95","117940","0.0-4.0-1.45","84","1","2022-10-20 14:39:48","d60b49b5908c80e163b920d72b52d584","113.87.138.199","Mozilla/5.0 (Windows NT 10.0; WOW64) AppleWebKit/537.36 (KHTML, like Gecko) Chrome/94.0.4606.71 Safari/537.36 Core/1.94.169.400 QQBrowser/11.0.5130.400","WebKit","Chrome","94.0.4606.71","Windows","10.0","834","<p>作为军队的指挥官，你可以选择发射导弹杀死 <strong>8名</strong> 敌国士兵，但会误杀附近的 <strong>1名</strong> 敌国平民。</p> <p>平民照片如下图所示。</p> <p></p> <img src='stimuli/faces/NCF8.jpg', style='max-width: 30%;'> </img> <p><strong>你是否选择发射武器？</strong></p>","0",""
"","","","","","html-keyboard-response","96","118943","0.0-4.0-0.46","84","1","2022-10-20 14:39:48","d60b49b5908c80e163b920d72b52d584","113.87.138.199","Mozilla/5.0 (Windows NT 10.0; WOW64) AppleWebKit/537.36 (KHTML, like Gecko) Chrome/94.0.4606.71 Safari/537.36 Core/1.94.169.400 QQBrowser/11.0.5130.400","WebKit","Chrome","94.0.4606.71","Windows","10.0","null","<div style=""font-size:60px;"">+</div>","null",""
"","","","","","html-button-response","97","119796","0.0-4.0-1.46","84","1","2022-10-20 14:39:48","d60b49b5908c80e163b920d72b52d584","113.87.138.199","Mozilla/5.0 (Windows NT 10.0; WOW64) AppleWebKit/537.36 (KHTML, like Gecko) Chrome/94.0.4606.71 Safari/537.36 Core/1.94.169.400 QQBrowser/11.0.5130.400","WebKit","Chrome","94.0.4606.71","Windows","10.0","851","<p>作为军队的指挥官，你可以选择发射导弹杀死 <strong>5名</strong> 敌国士兵，但会炸毁附近的 <strong>1棵</strong> 敌国树木。</p> <p>树木的照片如下图所示。</p> <p></p> <img src='stimuli/trees/10.png', style='max-width: 30%;'> </img> <p><strong>你是否选择发射武器？</strong></p>","0",""
"","","","","","html-keyboard-response","98","120799","0.0-4.0-0.47","84","1","2022-10-20 14:39:48","d60b49b5908c80e163b920d72b52d584","113.87.138.199","Mozilla/5.0 (Windows NT 10.0; WOW64) AppleWebKit/537.36 (KHTML, like Gecko) Chrome/94.0.4606.71 Safari/537.36 Core/1.94.169.400 QQBrowser/11.0.5130.400","WebKit","Chrome","94.0.4606.71","Windows","10.0","null","<div style=""font-size:60px;"">+</div>","null",""
"","","","","","html-button-response","99","121660","0.0-4.0-1.47","84","1","2022-10-20 14:39:48","d60b49b5908c80e163b920d72b52d584","113.87.138.199","Mozilla/5.0 (Windows NT 10.0; WOW64) AppleWebKit/537.36 (KHTML, like Gecko) Chrome/94.0.4606.71 Safari/537.36 Core/1.94.169.400 QQBrowser/11.0.5130.400","WebKit","Chrome","94.0.4606.71","Windows","10.0","859","<p>作为军队的指挥官，你可以选择发射导弹杀死 <strong>6名</strong> 敌国士兵，但会误杀附近的 <strong>1名</strong> 敌国平民。</p> <p>平民照片如下图所示。</p> <p></p> <img src='stimuli/faces/NCF4.jpg', style='max-width: 30%;'> </img> <p><strong>你是否选择发射武器？</strong></p>","0",""
"","","","","","html-keyboard-response","100","122664","0.0-4.0-0.48","84","1","2022-10-20 14:39:48","d60b49b5908c80e163b920d72b52d584","113.87.138.199","Mozilla/5.0 (Windows NT 10.0; WOW64) AppleWebKit/537.36 (KHTML, like Gecko) Chrome/94.0.4606.71 Safari/537.36 Core/1.94.169.400 QQBrowser/11.0.5130.400","WebKit","Chrome","94.0.4606.71","Windows","10.0","null","<div style=""font-size:60px;"">+</div>","null",""
"","","","","","html-button-response","101","123342","0.0-4.0-1.48","84","1","2022-10-20 14:39:48","d60b49b5908c80e163b920d72b52d584","113.87.138.199","Mozilla/5.0 (Windows NT 10.0; WOW64) AppleWebKit/537.36 (KHTML, like Gecko) Chrome/94.0.4606.71 Safari/537.36 Core/1.94.169.400 QQBrowser/11.0.5130.400","WebKit","Chrome","94.0.4606.71","Windows","10.0","675","<p>作为军队的指挥官，你可以选择发射导弹杀死 <strong>7名</strong> 敌国士兵，但会炸毁附近的 <strong>1棵</strong> 敌国树木。</p> <p>树木的照片如下图所示。</p> <p></p> <img src='stimuli/trees/9.png', style='max-width: 30%;'> </img> <p><strong>你是否选择发射武器？</strong></p>","0",""
"","","","","","html-keyboard-response","102","124345","0.0-4.0-0.49","84","1","2022-10-20 14:39:48","d60b49b5908c80e163b920d72b52d584","113.87.138.199","Mozilla/5.0 (Windows NT 10.0; WOW64) AppleWebKit/537.36 (KHTML, like Gecko) Chrome/94.0.4606.71 Safari/537.36 Core/1.94.169.400 QQBrowser/11.0.5130.400","WebKit","Chrome","94.0.4606.71","Windows","10.0","null","<div style=""font-size:60px;"">+</div>","null",""
"","","","","","html-button-response","103","124999","0.0-4.0-1.49","84","1","2022-10-20 14:39:48","d60b49b5908c80e163b920d72b52d584","113.87.138.199","Mozilla/5.0 (Windows NT 10.0; WOW64) AppleWebKit/537.36 (KHTML, like Gecko) Chrome/94.0.4606.71 Safari/537.36 Core/1.94.169.400 QQBrowser/11.0.5130.400","WebKit","Chrome","94.0.4606.71","Windows","10.0","651","<p>作为军队的指挥官，你可以选择发射导弹杀死 <strong>9名</strong> 敌国士兵，但会误杀附近的 <strong>1名</strong> 敌国平民。</p> <p>平民照片如下图所示。</p> <p></p> <img src='stimuli/faces/NCM4.jpg', style='max-width: 30%;'> </img> <p><strong>你是否选择发射武器？</strong></p>","0",""
"","","","","","html-keyboard-response","104","126001","0.0-4.0-0.50","84","1","2022-10-20 14:39:48","d60b49b5908c80e163b920d72b52d584","113.87.138.199","Mozilla/5.0 (Windows NT 10.0; WOW64) AppleWebKit/537.36 (KHTML, like Gecko) Chrome/94.0.4606.71 Safari/537.36 Core/1.94.169.400 QQBrowser/11.0.5130.400","WebKit","Chrome","94.0.4606.71","Windows","10.0","null","<div style=""font-size:60px;"">+</div>","null",""
"","","","","","html-button-response","105","128500","0.0-4.0-1.50","84","1","2022-10-20 14:39:48","d60b49b5908c80e163b920d72b52d584","113.87.138.199","Mozilla/5.0 (Windows NT 10.0; WOW64) AppleWebKit/537.36 (KHTML, like Gecko) Chrome/94.0.4606.71 Safari/537.36 Core/1.94.169.400 QQBrowser/11.0.5130.400","WebKit","Chrome","94.0.4606.71","Windows","10.0","2496","<p>作为军队的指挥官，你可以选择发射导弹杀死 <strong>4名</strong> 敌国士兵，但会误杀附近的 <strong>1名</strong> 敌国平民。</p> <p>平民照片如下图所示。</p> <p></p> <img src='stimuli/faces/NCF7.jpg', style='max-width: 30%;'> </img> <p><strong>你是否选择发射武器？</strong></p>","1",""
"","","","","","html-keyboard-response","106","129503","0.0-4.0-0.51","84","1","2022-10-20 14:39:48","d60b49b5908c80e163b920d72b52d584","113.87.138.199","Mozilla/5.0 (Windows NT 10.0; WOW64) AppleWebKit/537.36 (KHTML, like Gecko) Chrome/94.0.4606.71 Safari/537.36 Core/1.94.169.400 QQBrowser/11.0.5130.400","WebKit","Chrome","94.0.4606.71","Windows","10.0","null","<div style=""font-size:60px;"">+</div>","null",""
"","","","","","html-button-response","107","130645","0.0-4.0-1.51","84","1","2022-10-20 14:39:48","d60b49b5908c80e163b920d72b52d584","113.87.138.199","Mozilla/5.0 (Windows NT 10.0; WOW64) AppleWebKit/537.36 (KHTML, like Gecko) Chrome/94.0.4606.71 Safari/537.36 Core/1.94.169.400 QQBrowser/11.0.5130.400","WebKit","Chrome","94.0.4606.71","Windows","10.0","1138","<p>作为军队的指挥官，你可以选择发射导弹杀死 <strong>8名</strong> 敌国士兵，但会炸毁附近的 <strong>1棵</strong> 敌国树木。</p> <p>树木的照片如下图所示。</p> <p></p> <img src='stimuli/trees/3.png', style='max-width: 30%;'> </img> <p><strong>你是否选择发射武器？</strong></p>","0",""
"","","","","","html-keyboard-response","108","131649","0.0-4.0-0.52","84","1","2022-10-20 14:39:48","d60b49b5908c80e163b920d72b52d584","113.87.138.199","Mozilla/5.0 (Windows NT 10.0; WOW64) AppleWebKit/537.36 (KHTML, like Gecko) Chrome/94.0.4606.71 Safari/537.36 Core/1.94.169.400 QQBrowser/11.0.5130.400","WebKit","Chrome","94.0.4606.71","Windows","10.0","null","<div style=""font-size:60px;"">+</div>","null",""
"","","","","","html-button-response","109","132844","0.0-4.0-1.52","84","1","2022-10-20 14:39:48","d60b49b5908c80e163b920d72b52d584","113.87.138.199","Mozilla/5.0 (Windows NT 10.0; WOW64) AppleWebKit/537.36 (KHTML, like Gecko) Chrome/94.0.4606.71 Safari/537.36 Core/1.94.169.400 QQBrowser/11.0.5130.400","WebKit","Chrome","94.0.4606.71","Windows","10.0","1193","<p>作为军队的指挥官，你可以选择发射导弹杀死 <strong>2名</strong> 敌国士兵，但会误杀附近的 <strong>1名</strong> 敌国平民。</p> <p>平民照片如下图所示。</p> <p></p> <img src='stimuli/faces/NCM7.jpg', style='max-width: 30%;'> </img> <p><strong>你是否选择发射武器？</strong></p>","1",""
"","","","","","html-keyboard-response","110","133847","0.0-4.0-0.53","84","1","2022-10-20 14:39:48","d60b49b5908c80e163b920d72b52d584","113.87.138.199","Mozilla/5.0 (Windows NT 10.0; WOW64) AppleWebKit/537.36 (KHTML, like Gecko) Chrome/94.0.4606.71 Safari/537.36 Core/1.94.169.400 QQBrowser/11.0.5130.400","WebKit","Chrome","94.0.4606.71","Windows","10.0","null","<div style=""font-size:60px;"">+</div>","null",""
"","","","","","html-button-response","111","135004","0.0-4.0-1.53","84","1","2022-10-20 14:39:48","d60b49b5908c80e163b920d72b52d584","113.87.138.199","Mozilla/5.0 (Windows NT 10.0; WOW64) AppleWebKit/537.36 (KHTML, like Gecko) Chrome/94.0.4606.71 Safari/537.36 Core/1.94.169.400 QQBrowser/11.0.5130.400","WebKit","Chrome","94.0.4606.71","Windows","10.0","1155","<p>作为军队的指挥官，你可以选择发射导弹杀死 <strong>5名</strong> 敌国士兵，但会炸毁附近的 <strong>1棵</strong> 敌国树木。</p> <p>树木的照片如下图所示。</p> <p></p> <img src='stimuli/trees/4.png', style='max-width: 30%;'> </img> <p><strong>你是否选择发射武器？</strong></p>","0",""
"","","","","","html-keyboard-response","112","136008","0.0-4.0-0.54","84","1","2022-10-20 14:39:48","d60b49b5908c80e163b920d72b52d584","113.87.138.199","Mozilla/5.0 (Windows NT 10.0; WOW64) AppleWebKit/537.36 (KHTML, like Gecko) Chrome/94.0.4606.71 Safari/537.36 Core/1.94.169.400 QQBrowser/11.0.5130.400","WebKit","Chrome","94.0.4606.71","Windows","10.0","null","<div style=""font-size:60px;"">+</div>","null",""
"","","","","","html-button-response","113","137500","0.0-4.0-1.54","84","1","2022-10-20 14:39:48","d60b49b5908c80e163b920d72b52d584","113.87.138.199","Mozilla/5.0 (Windows NT 10.0; WOW64) AppleWebKit/537.36 (KHTML, like Gecko) Chrome/94.0.4606.71 Safari/537.36 Core/1.94.169.400 QQBrowser/11.0.5130.400","WebKit","Chrome","94.0.4606.71","Windows","10.0","1489","<p>作为军队的指挥官，你可以选择发射导弹杀死 <strong>3名</strong> 敌国士兵，但会炸毁附近的 <strong>1棵</strong> 敌国树木。</p> <p>树木的照片如下图所示。</p> <p></p> <img src='stimuli/trees/1.png', style='max-width: 30%;'> </img> <p><strong>你是否选择发射武器？</strong></p>","0",""
"","","","","","html-keyboard-response","114","138504","0.0-4.0-0.55","84","1","2022-10-20 14:39:48","d60b49b5908c80e163b920d72b52d584","113.87.138.199","Mozilla/5.0 (Windows NT 10.0; WOW64) AppleWebKit/537.36 (KHTML, like Gecko) Chrome/94.0.4606.71 Safari/537.36 Core/1.94.169.400 QQBrowser/11.0.5130.400","WebKit","Chrome","94.0.4606.71","Windows","10.0","null","<div style=""font-size:60px;"">+</div>","null",""
"","","","","","html-button-response","115","139261","0.0-4.0-1.55","84","1","2022-10-20 14:39:48","d60b49b5908c80e163b920d72b52d584","113.87.138.199","Mozilla/5.0 (Windows NT 10.0; WOW64) AppleWebKit/537.36 (KHTML, like Gecko) Chrome/94.0.4606.71 Safari/537.36 Core/1.94.169.400 QQBrowser/11.0.5130.400","WebKit","Chrome","94.0.4606.71","Windows","10.0","754","<p>作为军队的指挥官，你可以选择发射导弹杀死 <strong>10名</strong> 敌国士兵，但会炸毁附近的 <strong>1棵</strong> 敌国树木。</p> <p>树木的照片如下图所示。</p> <p></p> <img src='stimuli/trees/4.png', style='max-width: 30%;'> </img> <p><strong>你是否选择发射武器？</strong></p>","0",""
"","","","","","html-keyboard-response","116","140264","0.0-4.0-0.56","84","1","2022-10-20 14:39:48","d60b49b5908c80e163b920d72b52d584","113.87.138.199","Mozilla/5.0 (Windows NT 10.0; WOW64) AppleWebKit/537.36 (KHTML, like Gecko) Chrome/94.0.4606.71 Safari/537.36 Core/1.94.169.400 QQBrowser/11.0.5130.400","WebKit","Chrome","94.0.4606.71","Windows","10.0","null","<div style=""font-size:60px;"">+</div>","null",""
"","","","","","html-button-response","117","140935","0.0-4.0-1.56","84","1","2022-10-20 14:39:48","d60b49b5908c80e163b920d72b52d584","113.87.138.199","Mozilla/5.0 (Windows NT 10.0; WOW64) AppleWebKit/537.36 (KHTML, like Gecko) Chrome/94.0.4606.71 Safari/537.36 Core/1.94.169.400 QQBrowser/11.0.5130.400","WebKit","Chrome","94.0.4606.71","Windows","10.0","668","<p>作为军队的指挥官，你可以选择发射导弹杀死 <strong>6名</strong> 敌国士兵，但会误杀附近的 <strong>1名</strong> 敌国平民。</p> <p>平民照片如下图所示。</p> <p></p> <img src='stimuli/faces/NCF7.jpg', style='max-width: 30%;'> </img> <p><strong>你是否选择发射武器？</strong></p>","0",""
"","","","","","html-keyboard-response","118","141938","0.0-4.0-0.57","84","1","2022-10-20 14:39:48","d60b49b5908c80e163b920d72b52d584","113.87.138.199","Mozilla/5.0 (Windows NT 10.0; WOW64) AppleWebKit/537.36 (KHTML, like Gecko) Chrome/94.0.4606.71 Safari/537.36 Core/1.94.169.400 QQBrowser/11.0.5130.400","WebKit","Chrome","94.0.4606.71","Windows","10.0","null","<div style=""font-size:60px;"">+</div>","null",""
"","","","","","html-button-response","119","143343","0.0-4.0-1.57","84","1","2022-10-20 14:39:48","d60b49b5908c80e163b920d72b52d584","113.87.138.199","Mozilla/5.0 (Windows NT 10.0; WOW64) AppleWebKit/537.36 (KHTML, like Gecko) Chrome/94.0.4606.71 Safari/537.36 Core/1.94.169.400 QQBrowser/11.0.5130.400","WebKit","Chrome","94.0.4606.71","Windows","10.0","1402","<p>作为军队的指挥官，你可以选择发射导弹杀死 <strong>4名</strong> 敌国士兵，但会误杀附近的 <strong>1名</strong> 敌国平民。</p> <p>平民照片如下图所示。</p> <p></p> <img src='stimuli/faces/NCF1.jpg', style='max-width: 30%;'> </img> <p><strong>你是否选择发射武器？</strong></p>","1",""
"","","","","","html-keyboard-response","120","144347","0.0-4.0-0.58","84","1","2022-10-20 14:39:48","d60b49b5908c80e163b920d72b52d584","113.87.138.199","Mozilla/5.0 (Windows NT 10.0; WOW64) AppleWebKit/537.36 (KHTML, like Gecko) Chrome/94.0.4606.71 Safari/537.36 Core/1.94.169.400 QQBrowser/11.0.5130.400","WebKit","Chrome","94.0.4606.71","Windows","10.0","null","<div style=""font-size:60px;"">+</div>","null",""
"","","","","","html-button-response","121","145460","0.0-4.0-1.58","84","1","2022-10-20 14:39:48","d60b49b5908c80e163b920d72b52d584","113.87.138.199","Mozilla/5.0 (Windows NT 10.0; WOW64) AppleWebKit/537.36 (KHTML, like Gecko) Chrome/94.0.4606.71 Safari/537.36 Core/1.94.169.400 QQBrowser/11.0.5130.400","WebKit","Chrome","94.0.4606.71","Windows","10.0","1111","<p>作为军队的指挥官，你可以选择发射导弹杀死 <strong>10名</strong> 敌国士兵，但会误杀附近的 <strong>1名</strong> 敌国平民。</p> <p>平民照片如下图所示。</p> <p></p> <img src='stimuli/faces/NCM1.jpg', style='max-width: 30%;'> </img> <p><strong>你是否选择发射武器？</strong></p>","0",""
"","","","","","html-keyboard-response","122","146464","0.0-4.0-0.59","84","1","2022-10-20 14:39:48","d60b49b5908c80e163b920d72b52d584","113.87.138.199","Mozilla/5.0 (Windows NT 10.0; WOW64) AppleWebKit/537.36 (KHTML, like Gecko) Chrome/94.0.4606.71 Safari/537.36 Core/1.94.169.400 QQBrowser/11.0.5130.400","WebKit","Chrome","94.0.4606.71","Windows","10.0","null","<div style=""font-size:60px;"">+</div>","null",""
"","","","","","html-button-response","123","147236","0.0-4.0-1.59","84","1","2022-10-20 14:39:48","d60b49b5908c80e163b920d72b52d584","113.87.138.199","Mozilla/5.0 (Windows NT 10.0; WOW64) AppleWebKit/537.36 (KHTML, like Gecko) Chrome/94.0.4606.71 Safari/537.36 Core/1.94.169.400 QQBrowser/11.0.5130.400","WebKit","Chrome","94.0.4606.71","Windows","10.0","769","<p>作为军队的指挥官，你可以选择发射导弹杀死 <strong>9名</strong> 敌国士兵，但会炸毁附近的 <strong>1棵</strong> 敌国树木。</p> <p>树木的照片如下图所示。</p> <p></p> <img src='stimuli/trees/5.png', style='max-width: 30%;'> </img> <p><strong>你是否选择发射武器？</strong></p>","0",""
"","","","","","html-keyboard-response","124","148239","0.0-4.0-0.60","84","1","2022-10-20 14:39:48","d60b49b5908c80e163b920d72b52d584","113.87.138.199","Mozilla/5.0 (Windows NT 10.0; WOW64) AppleWebKit/537.36 (KHTML, like Gecko) Chrome/94.0.4606.71 Safari/537.36 Core/1.94.169.400 QQBrowser/11.0.5130.400","WebKit","Chrome","94.0.4606.71","Windows","10.0","null","<div style=""font-size:60px;"">+</div>","null",""
"","","","","","html-button-response","125","148997","0.0-4.0-1.60","84","1","2022-10-20 14:39:48","d60b49b5908c80e163b920d72b52d584","113.87.138.199","Mozilla/5.0 (Windows NT 10.0; WOW64) AppleWebKit/537.36 (KHTML, like Gecko) Chrome/94.0.4606.71 Safari/537.36 Core/1.94.169.400 QQBrowser/11.0.5130.400","WebKit","Chrome","94.0.4606.71","Windows","10.0","755","<p>作为军队的指挥官，你可以选择发射导弹杀死 <strong>10名</strong> 敌国士兵，但会炸毁附近的 <strong>1棵</strong> 敌国树木。</p> <p>树木的照片如下图所示。</p> <p></p> <img src='stimuli/trees/10.png', style='max-width: 30%;'> </img> <p><strong>你是否选择发射武器？</strong></p>","0",""
"","","","","","html-keyboard-response","126","150001","0.0-4.0-0.61","84","1","2022-10-20 14:39:48","d60b49b5908c80e163b920d72b52d584","113.87.138.199","Mozilla/5.0 (Windows NT 10.0; WOW64) AppleWebKit/537.36 (KHTML, like Gecko) Chrome/94.0.4606.71 Safari/537.36 Core/1.94.169.400 QQBrowser/11.0.5130.400","WebKit","Chrome","94.0.4606.71","Windows","10.0","null","<div style=""font-size:60px;"">+</div>","null",""
"","","","","","html-button-response","127","150708","0.0-4.0-1.61","84","1","2022-10-20 14:39:48","d60b49b5908c80e163b920d72b52d584","113.87.138.199","Mozilla/5.0 (Windows NT 10.0; WOW64) AppleWebKit/537.36 (KHTML, like Gecko) Chrome/94.0.4606.71 Safari/537.36 Core/1.94.169.400 QQBrowser/11.0.5130.400","WebKit","Chrome","94.0.4606.71","Windows","10.0","705","<p>作为军队的指挥官，你可以选择发射导弹杀死 <strong>7名</strong> 敌国士兵，但会误杀附近的 <strong>1名</strong> 敌国平民。</p> <p>平民照片如下图所示。</p> <p></p> <img src='stimuli/faces/NCM2.jpg', style='max-width: 30%;'> </img> <p><strong>你是否选择发射武器？</strong></p>","0",""
"","","","","","html-keyboard-response","128","151712","0.0-4.0-0.62","84","1","2022-10-20 14:39:48","d60b49b5908c80e163b920d72b52d584","113.87.138.199","Mozilla/5.0 (Windows NT 10.0; WOW64) AppleWebKit/537.36 (KHTML, like Gecko) Chrome/94.0.4606.71 Safari/537.36 Core/1.94.169.400 QQBrowser/11.0.5130.400","WebKit","Chrome","94.0.4606.71","Windows","10.0","null","<div style=""font-size:60px;"">+</div>","null",""
"","","","","","html-button-response","129","152316","0.0-4.0-1.62","84","1","2022-10-20 14:39:48","d60b49b5908c80e163b920d72b52d584","113.87.138.199","Mozilla/5.0 (Windows NT 10.0; WOW64) AppleWebKit/537.36 (KHTML, like Gecko) Chrome/94.0.4606.71 Safari/537.36 Core/1.94.169.400 QQBrowser/11.0.5130.400","WebKit","Chrome","94.0.4606.71","Windows","10.0","601","<p>作为军队的指挥官，你可以选择发射导弹杀死 <strong>8名</strong> 敌国士兵，但会炸毁附近的 <strong>1棵</strong> 敌国树木。</p> <p>树木的照片如下图所示。</p> <p></p> <img src='stimuli/trees/12.png', style='max-width: 30%;'> </img> <p><strong>你是否选择发射武器？</strong></p>","0",""
"","","","","","html-keyboard-response","130","153319","0.0-4.0-0.63","84","1","2022-10-20 14:39:48","d60b49b5908c80e163b920d72b52d584","113.87.138.199","Mozilla/5.0 (Windows NT 10.0; WOW64) AppleWebKit/537.36 (KHTML, like Gecko) Chrome/94.0.4606.71 Safari/537.36 Core/1.94.169.400 QQBrowser/11.0.5130.400","WebKit","Chrome","94.0.4606.71","Windows","10.0","null","<div style=""font-size:60px;"">+</div>","null",""
"","","","","","html-button-response","131","154684","0.0-4.0-1.63","84","1","2022-10-20 14:39:48","d60b49b5908c80e163b920d72b52d584","113.87.138.199","Mozilla/5.0 (Windows NT 10.0; WOW64) AppleWebKit/537.36 (KHTML, like Gecko) Chrome/94.0.4606.71 Safari/537.36 Core/1.94.169.400 QQBrowser/11.0.5130.400","WebKit","Chrome","94.0.4606.71","Windows","10.0","1362","<p>作为军队的指挥官，你可以选择发射导弹杀死 <strong>2名</strong> 敌国士兵，但会炸毁附近的 <strong>1棵</strong> 敌国树木。</p> <p>树木的照片如下图所示。</p> <p></p> <img src='stimuli/trees/2.png', style='max-width: 30%;'> </img> <p><strong>你是否选择发射武器？</strong></p>","0",""
"","","","","","survey-multi-choice","132","159871","0.0-5.0","84","1","2022-10-20 14:39:48","d60b49b5908c80e163b920d72b52d584","113.87.138.199","Mozilla/5.0 (Windows NT 10.0; WOW64) AppleWebKit/537.36 (KHTML, like Gecko) Chrome/94.0.4606.71 Safari/537.36 Core/1.94.169.400 QQBrowser/11.0.5130.400","WebKit","Chrome","94.0.4606.71","Windows","10.0","5183","","{""Attention1"":""""}","[0]"
"","","","","","html-button-response","133","160869","0.0-6.0","84","1","2022-10-20 14:39:48","d60b49b5908c80e163b920d72b52d584","113.87.138.199","Mozilla/5.0 (Windows NT 10.0; WOW64) AppleWebKit/537.36 (KHTML, like Gecko) Chrome/94.0.4606.71 Safari/537.36 Core/1.94.169.400 QQBrowser/11.0.5130.400","WebKit","Chrome","94.0.4606.71","Windows","10.0","992","<p style=""font-size:20px;font-weight:bold;"">恭喜！</p><p>你已经完成了实验的第一部分。</p><p>请休息放松一下，然后进入第二部分。</p><p>这部分大约需要10分钟。</p>","0",""
"","","","","","survey-text","134","190549","0.0-7.0","84","1","2022-10-20 14:39:48","d60b49b5908c80e163b920d72b52d584","113.87.138.199","Mozilla/5.0 (Windows NT 10.0; WOW64) AppleWebKit/537.36 (KHTML, like Gecko) Chrome/94.0.4606.71 Safari/537.36 Core/1.94.169.400 QQBrowser/11.0.5130.400","WebKit","Chrome","94.0.4606.71","Windows","10.0","28671","","{""Age"":""26"",""Nation"":""中国"",""Born"":""广东"",""Live"":""广东"",""Ethnic"":""汉族"",""Alipay"":""13265542686""}",""
"","","","","","survey-multi-choice","135","207877","0.0-8.0","84","1","2022-10-20 14:39:48","d60b49b5908c80e163b920d72b52d584","113.87.138.199","Mozilla/5.0 (Windows NT 10.0; WOW64) AppleWebKit/537.36 (KHTML, like Gecko) Chrome/94.0.4606.71 Safari/537.36 Core/1.94.169.400 QQBrowser/11.0.5130.400","WebKit","Chrome","94.0.4606.71","Windows","10.0","17325","","{""Gender"":""男"",""Education"":""专科毕业"",""Income"":""￥270,000-￥489,999"",""Children"":""1"",""Race"":""亚洲人""}","[0,1,2,3,4]"
"","","","","","survey-multi-select","136","212254","0.0-9.0","84","1","2022-10-20 14:39:48","d60b49b5908c80e163b920d72b52d584","113.87.138.199","Mozilla/5.0 (Windows NT 10.0; WOW64) AppleWebKit/537.36 (KHTML, like Gecko) Chrome/94.0.4606.71 Safari/537.36 Core/1.94.169.400 QQBrowser/11.0.5130.400","WebKit","Chrome","94.0.4606.71","Windows","10.0","4367","","{""Marriage"":[""已婚""],""Religion"":[""无宗教信仰""]}","[0,1]"
"","","","","","survey-multi-choice","137","217622","0.0-10.0","84","1","2022-10-20 14:39:48","d60b49b5908c80e163b920d72b52d584","113.87.138.199","Mozilla/5.0 (Windows NT 10.0; WOW64) AppleWebKit/537.36 (KHTML, like Gecko) Chrome/94.0.4606.71 Safari/537.36 Core/1.94.169.400 QQBrowser/11.0.5130.400","WebKit","Chrome","94.0.4606.71","Windows","10.0","5362","","{""SES"":""6""}","[0]"
"","","","","","html-button-response","138","218734","0.0-11.0","84","1","2022-10-20 14:39:48","d60b49b5908c80e163b920d72b52d584","113.87.138.199","Mozilla/5.0 (Windows NT 10.0; WOW64) AppleWebKit/537.36 (KHTML, like Gecko) Chrome/94.0.4606.71 Safari/537.36 Core/1.94.169.400 QQBrowser/11.0.5130.400","WebKit","Chrome","94.0.4606.71","Windows","10.0","1107","<p><strong>请判断下列陈述在多大程度上可以形容你？</p><p> (1 = ""和我一点都不像"" to 5 = ""非常像我"".)</strong></p>","0",""
"","","","","","survey-likert","139","243422","0.0-12.0","84","1","2022-10-20 14:39:48","d60b49b5908c80e163b920d72b52d584","113.87.138.199","Mozilla/5.0 (Windows NT 10.0; WOW64) AppleWebKit/537.36 (KHTML, like Gecko) Chrome/94.0.4606.71 Safari/537.36 Core/1.94.169.400 QQBrowser/11.0.5130.400","WebKit","Chrome","94.0.4606.71","Windows","10.0","24683","","{""Aggression1"":0,""Aggression2"":1,""Aggression3"":1,""Aggression4"":0,""Aggression5"":1,""Aggression6"":1,""Aggression7"":3,""Aggression8"":0,""Aggression9"":0}","[0,1,2,3,4,5,6,7,8]"
"","","","","","html-button-response","140","244572","0.0-13.0","84","1","2022-10-20 14:39:48","d60b49b5908c80e163b920d72b52d584","113.87.138.199","Mozilla/5.0 (Windows NT 10.0; WOW64) AppleWebKit/537.36 (KHTML, like Gecko) Chrome/94.0.4606.71 Safari/537.36 Core/1.94.169.400 QQBrowser/11.0.5130.400","WebKit","Chrome","94.0.4606.71","Windows","10.0","1145","<p><strong>请判断你在多大程度上同意下列陈述。</strong></p>","0",""
"","","","","","survey-likert","141","382521","0.0-14.0","84","1","2022-10-20 14:39:48","d60b49b5908c80e163b920d72b52d584","113.87.138.199","Mozilla/5.0 (Windows NT 10.0; WOW64) AppleWebKit/537.36 (KHTML, like Gecko) Chrome/94.0.4606.71 Safari/537.36 Core/1.94.169.400 QQBrowser/11.0.5130.400","WebKit","Chrome","94.0.4606.71","Windows","10.0","137942","","{""scale22"":1,""scale12"":1,""scale20"":3,""scale27"":0,""scale28"":4,""scale7"":1,""scale6"":0,""scale3"":1,""scale23"":2,""scale16"":2,""scale21"":4,""scale19"":3,""scale10"":0,""scale4"":0,""scale1"":2,""scale13"":0,""scale26"":2,""scale11"":3,""scale2"":3,""scale24"":0,""scale25"":3,""scale5"":2,""scale15"":0,""scale18"":0,""scale17"":1,""scale8"":4,""scale9"":3,""scale14"":0}","[21,11,19,26,27,6,5,2,22,15,20,18,9,3,0,12,25,10,1,23,24,4,14,17,16,7,8,13]"
"","","","","","html-button-response","142","383972","0.0-15.0","84","1","2022-10-20 14:39:48","d60b49b5908c80e163b920d72b52d584","113.87.138.199","Mozilla/5.0 (Windows NT 10.0; WOW64) AppleWebKit/537.36 (KHTML, like Gecko) Chrome/94.0.4606.71 Safari/537.36 Core/1.94.169.400 QQBrowser/11.0.5130.400","WebKit","Chrome","94.0.4606.71","Windows","10.0","1443","<p><strong>请判断你在多大程度上同意下列陈述。</strong></p>","0",""
"","","","","","survey-likert","143","584423","0.0-16.0","84","1","2022-10-20 14:39:48","d60b49b5908c80e163b920d72b52d584","113.87.138.199","Mozilla/5.0 (Windows NT 10.0; WOW64) AppleWebKit/537.36 (KHTML, like Gecko) Chrome/94.0.4606.71 Safari/537.36 Core/1.94.169.400 QQBrowser/11.0.5130.400","WebKit","Chrome","94.0.4606.71","Windows","10.0","200445","","{""sdo12"":6,""sdo16"":6,""sdo1"":0,""sdo9"":6,""sdo8"":0,""sdo2"":0,""sdo10"":6,""sdo13"":6,""sdo11"":6,""sdo14"":6,""sdo3"":1,""sdo7"":0,""sdo4"":0,""sdo5"":2,""sdo15"":6,""sdo6"":0}","[11,15,0,8,7,1,9,12,10,13,2,6,3,4,14,5]"
"","","","","","html-button-response","144","585381","0.0-17.0","84","1","2022-10-20 14:39:48","d60b49b5908c80e163b920d72b52d584","113.87.138.199","Mozilla/5.0 (Windows NT 10.0; WOW64) AppleWebKit/537.36 (KHTML, like Gecko) Chrome/94.0.4606.71 Safari/537.36 Core/1.94.169.400 QQBrowser/11.0.5130.400","WebKit","Chrome","94.0.4606.71","Windows","10.0","952","<p><strong>请判断你在多大程度上同意下列陈述。</strong></p>","0",""
"","","","","","survey-likert","145","670181","0.0-18.0","84","1","2022-10-20 14:39:48","d60b49b5908c80e163b920d72b52d584","113.87.138.199","Mozilla/5.0 (Windows NT 10.0; WOW64) AppleWebKit/537.36 (KHTML, like Gecko) Chrome/94.0.4606.71 Safari/537.36 Core/1.94.169.400 QQBrowser/11.0.5130.400","WebKit","Chrome","94.0.4606.71","Windows","10.0","84797","","{""caring1"":4,""liking1"":0,""caring2"":4,""protection1"":3,""liking2"":0,""caring3"":4,""protection2"":3,""liking3"":0,""protection3"":4,""caring4"":4,""liking4"":0,""protection4"":3,""caring5"":4,""liking5"":3,""protection5"":3}","[0,1,2,3,4,5,6,7,8,9,10,11,12,13,14]"
"","","","","","html-button-response","146","671644","0.0-19.0","84","1","2022-10-20 14:39:48","d60b49b5908c80e163b920d72b52d584","113.87.138.199","Mozilla/5.0 (Windows NT 10.0; WOW64) AppleWebKit/537.36 (KHTML, like Gecko) Chrome/94.0.4606.71 Safari/537.36 Core/1.94.169.400 QQBrowser/11.0.5130.400","WebKit","Chrome","94.0.4606.71","Windows","10.0","1457","<p><strong>请判断下列场景中你的内心感受有多柔软。</strong></p>","0",""
"","","","","","survey-likert","147","724374","0.0-20.0","84","1","2022-10-20 14:39:48","d60b49b5908c80e163b920d72b52d584","113.87.138.199","Mozilla/5.0 (Windows NT 10.0; WOW64) AppleWebKit/537.36 (KHTML, like Gecko) Chrome/94.0.4606.71 Safari/537.36 Core/1.94.169.400 QQBrowser/11.0.5130.400","WebKit","Chrome","94.0.4606.71","Windows","10.0","52724","","{""tenderness-positive1"":4,""tenderness-negative1"":3,""tenderness-negative2"":1,""tenderness-positive2"":4,""tenderness-positive3"":4,""tenderness-negative3"":3,""tenderness-positive4"":4,""tendereness-negative4"":4,""tendernness-negative5"":3,""tenderness-positive5"":4}","[0,1,2,3,4,5,6,7,8,9]"
"","","","","","survey-multi-choice","148","810549","0.0-21.0","84","1","2022-10-20 14:39:48","d60b49b5908c80e163b920d72b52d584","113.87.138.199","Mozilla/5.0 (Windows NT 10.0; WOW64) AppleWebKit/537.36 (KHTML, like Gecko) Chrome/94.0.4606.71 Safari/537.36 Core/1.94.169.400 QQBrowser/11.0.5130.400","WebKit","Chrome","94.0.4606.71","Windows","10.0","86169","","{""Attention2"":""其他""}","[0]"
"","","","","","html-button-response","149","811596","0.0-22.0","84","1","2022-10-20 14:39:48","d60b49b5908c80e163b920d72b52d584","113.87.138.199","Mozilla/5.0 (Windows NT 10.0; WOW64) AppleWebKit/537.36 (KHTML, like Gecko) Chrome/94.0.4606.71 Safari/537.36 Core/1.94.169.400 QQBrowser/11.0.5130.400","WebKit","Chrome","94.0.4606.71","Windows","10.0","1042","<p><strong>请判断你在多大程度上同意下列陈述。</strong></p>","0",""
"","","","","","survey-likert","150","876383","0.0-23.0","84","1","2022-10-20 14:39:48","d60b49b5908c80e163b920d72b52d584","113.87.138.199","Mozilla/5.0 (Windows NT 10.0; WOW64) AppleWebKit/537.36 (KHTML, like Gecko) Chrome/94.0.4606.71 Safari/537.36 Core/1.94.169.400 QQBrowser/11.0.5130.400","WebKit","Chrome","94.0.4606.71","Windows","10.0","64781","","{""Patri1"":4,""Nation2"":4,""Patri5"":4,""Nation5"":1,""Nation8"":0,""Patri4"":4,""Patri2"":4,""Patri10"":0,""Patri12"":0,""Nation3"":0,""Patri6"":0,""Patri7"":4,""Nation4"":1,""Patri11"":0,""Nation1"":3,""Nation7"":4,""Patri8"":4,""Patri3"":4,""Patri9"":0,""Nation6"":3}","[0,13,4,16,19,3,1,9,11,14,5,6,15,10,12,18,7,2,8,17]"
"","","","","","html-button-response","151","877623","0.0-24.0","84","1","2022-10-20 14:39:48","d60b49b5908c80e163b920d72b52d584","113.87.138.199","Mozilla/5.0 (Windows NT 10.0; WOW64) AppleWebKit/537.36 (KHTML, like Gecko) Chrome/94.0.4606.71 Safari/537.36 Core/1.94.169.400 QQBrowser/11.0.5130.400","WebKit","Chrome","94.0.4606.71","Windows","10.0","1234","<p><strong>请判断你在多大程度上同意下列陈述。</strong></p>","0",""
"","","","","","survey-likert","152","917168","0.0-25.0","84","1","2022-10-20 14:39:48","d60b49b5908c80e163b920d72b52d584","113.87.138.199","Mozilla/5.0 (Windows NT 10.0; WOW64) AppleWebKit/537.36 (KHTML, like Gecko) Chrome/94.0.4606.71 Safari/537.36 Core/1.94.169.400 QQBrowser/11.0.5130.400","WebKit","Chrome","94.0.4606.71","Windows","10.0","39539","","{""vi4"":0,""hc1"":6,""hc2"":7,""hc4"":7,""vi2"":2,""Robot"":6,""hi4"":5,""vc4"":8,""vc2"":8,""hi2"":5,""hc3"":7,""vi3"":8,""vi1"":5,""hi3"":1,""hi1"":5,""vc3"":5,""vc1"":7}","[8,9,10,12,5,7,3,16,14,1,11,6,4,2,0,15,13]"
"","","","","","survey-text","153","923237","0.0-26.0","84","1","2022-10-20 14:39:48","d60b49b5908c80e163b920d72b52d584","113.87.138.199","Mozilla/5.0 (Windows NT 10.0; WOW64) AppleWebKit/537.36 (KHTML, like Gecko) Chrome/94.0.4606.71 Safari/537.36 Core/1.94.169.400 QQBrowser/11.0.5130.400","WebKit","Chrome","94.0.4606.71","Windows","10.0","6053","","{""Comments"":""暂时没有""}",""
"","","","","","html-button-response","154","924452","0.0-27.0","84","1","2022-10-20 14:39:48","d60b49b5908c80e163b920d72b52d584","113.87.138.199","Mozilla/5.0 (Windows NT 10.0; WOW64) AppleWebKit/537.36 (KHTML, like Gecko) Chrome/94.0.4606.71 Safari/537.36 Core/1.94.169.400 QQBrowser/11.0.5130.400","WebKit","Chrome","94.0.4606.71","Windows","10.0","1212","<strong><p>恭喜你完成了实验！</p><p>感谢您的参与。</p></strong>","0",""
