"success","timeout","failed_images","failed_audio","failed_video","trial_type","trial_index","time_elapsed","internal_node_id","run_id","condition","recorded_at","source_code_version","ip","user_agent","device","browser","browser_version","platform","platform_version","rt","stimulus","response","question_order"
"true","false","[]","[]","[]","preload","0","2930","0.0-0.0","87","1","2022-10-21 11:27:08","d60b49b5908c80e163b920d72b52d584","221.182.115.253","Mozilla/5.0 (Windows NT 10.0; Win64; x64; rv:105.0) Gecko/20100101 Firefox/105.0","","Firefox","105.0","Windows","10.0","","","",""
"true","","","","","fullscreen","1","5857","0.0-1.0","87","1","2022-10-21 11:27:08","d60b49b5908c80e163b920d72b52d584","221.182.115.253","Mozilla/5.0 (Windows NT 10.0; Win64; x64; rv:105.0) Gecko/20100101 Firefox/105.0","","Firefox","105.0","Windows","10.0","","","",""
"","","","","","html-button-response","2","8120","0.0-2.0","87","1","2022-10-21 11:27:08","d60b49b5908c80e163b920d72b52d584","221.182.115.253","Mozilla/5.0 (Windows NT 10.0; Win64; x64; rv:105.0) Gecko/20100101 Firefox/105.0","","Firefox","105.0","Windows","10.0","2260","<p style=""font-size:20px;font-weight:bold;"">实验知情同意书</p><p style=""text-align:left;""><strong>实验名称：</strong>社会冲突研究</p><p style=""text-align:left;""><strong>主要研究者：</strong>韩晓春副教授（北京师范大学心理学部）</p><p style=""text-align:left;""><strong>联系方式：</strong>发送邮件至xiaochun.han@bnu.edu.cn</p><p style=""text-align:left;""><strong>研究目的：</strong>研究旨在了解人类面对群体冲突时的决策方式，以及相关的心理学特质。实验调查大约需要20分钟。</p><p style=""text-align:left;""><strong>实验流程：</strong>实验包含两部分。第一部分呈现一系列群体冲突场景，请你决定如何对这些冲突进行反应，大约需要10分钟完成。第二部分包含一系列人口统计学信息收集和心理学问卷，大约需要10分钟完成。</p><p style=""text-align:left;""><strong>参加及退出规则：</strong>参加本实验完全取决于您的个人意愿。在参与过程中，您可以随时退出，并且不用承担任何后果。</p><p style=""text-align:left;""><strong>隐私：</strong>本实验完全匿名进行，不会收集您的姓名或其他能够识别您身份的信息。实验中收集的作答仅用作科学研究使用，可能会在学术期刊/书籍上发表，或者用于教学，您的数据未来可能会和其他研究者或实验室分享，但您的个人身份不会被识别。</p><p style=""text-align:left;""><strong>实验报酬：</strong>实验完成后，您将获得15元人民币报酬，以感谢您的时间和努力。调查问卷中包含几道题目用以测验您作答时的认真度。只有完成全部实验，并且正确回答认真度测验的被试才能获得实验报酬。实验报酬将通过支付宝转账发放。</p><p style=""text-align:left;font-size:20px;""><strong>如果您同意以上实验知情同意书的内容，请点击'同意并且开始实验'按钮；否则请关闭浏览器界面，退出实验。</strong></p>","0",""
"","","","","","html-button-response","3","16640","0.0-3.0","87","1","2022-10-21 11:27:08","d60b49b5908c80e163b920d72b52d584","221.182.115.253","Mozilla/5.0 (Windows NT 10.0; Win64; x64; rv:105.0) Gecko/20100101 Firefox/105.0","","Firefox","105.0","Windows","10.0","8519","<p ><strong>实验任务一：</strong></p><p>请想象你的国家与另一个国家发生了军事冲突。</p><p>你是国家军队的指挥官，你将如何在冲突中进行决策。</p><p>具体来说，作为军队指挥官，请你决定是否发射导弹进行打击。</p><p>接下来，你会面对一系列场景，请仔细阅读每个场景，然后进行决策。</p><p>这部分实验任务大约需要10分钟。</p><p><strong>实验过程中，请集中注意力。</strong></p>","0",""
"","","","","","html-keyboard-response","4","17643","0.0-4.0-0.0","87","1","2022-10-21 11:27:08","d60b49b5908c80e163b920d72b52d584","221.182.115.253","Mozilla/5.0 (Windows NT 10.0; Win64; x64; rv:105.0) Gecko/20100101 Firefox/105.0","","Firefox","105.0","Windows","10.0","null","<div style=""font-size:60px;"">+</div>","null",""
"","","","","","html-button-response","5","21575","0.0-4.0-1.0","87","1","2022-10-21 11:27:08","d60b49b5908c80e163b920d72b52d584","221.182.115.253","Mozilla/5.0 (Windows NT 10.0; Win64; x64; rv:105.0) Gecko/20100101 Firefox/105.0","","Firefox","105.0","Windows","10.0","3930","<p>作为军队的指挥官，你可以选择发射导弹杀死 <strong>5名</strong> 敌国士兵，但会炸毁附近的 <strong>1棵</strong> 敌国树木。</p> <p>树木的照片如下图所示。</p> <p></p> <img src='stimuli/trees/14.png', style='max-width: 30%;'> </img> <p><strong>你是否选择发射武器？</strong></p>","0",""
"","","","","","html-keyboard-response","6","22578","0.0-4.0-0.1","87","1","2022-10-21 11:27:08","d60b49b5908c80e163b920d72b52d584","221.182.115.253","Mozilla/5.0 (Windows NT 10.0; Win64; x64; rv:105.0) Gecko/20100101 Firefox/105.0","","Firefox","105.0","Windows","10.0","null","<div style=""font-size:60px;"">+</div>","null",""
"","","","","","html-button-response","7","26120","0.0-4.0-1.1","87","1","2022-10-21 11:27:08","d60b49b5908c80e163b920d72b52d584","221.182.115.253","Mozilla/5.0 (Windows NT 10.0; Win64; x64; rv:105.0) Gecko/20100101 Firefox/105.0","","Firefox","105.0","Windows","10.0","3541","<p>作为军队的指挥官，你可以选择发射导弹杀死 <strong>8名</strong> 敌国士兵，但会误杀附近的 <strong>1名</strong> 敌国平民。</p> <p>平民照片如下图所示。</p> <p></p> <img src='stimuli/faces/NCF8.jpg', style='max-width: 30%;'> </img> <p><strong>你是否选择发射武器？</strong></p>","0",""
"","","","","","html-keyboard-response","8","27122","0.0-4.0-0.2","87","1","2022-10-21 11:27:08","d60b49b5908c80e163b920d72b52d584","221.182.115.253","Mozilla/5.0 (Windows NT 10.0; Win64; x64; rv:105.0) Gecko/20100101 Firefox/105.0","","Firefox","105.0","Windows","10.0","null","<div style=""font-size:60px;"">+</div>","null",""
"","","","","","html-button-response","9","29512","0.0-4.0-1.2","87","1","2022-10-21 11:27:08","d60b49b5908c80e163b920d72b52d584","221.182.115.253","Mozilla/5.0 (Windows NT 10.0; Win64; x64; rv:105.0) Gecko/20100101 Firefox/105.0","","Firefox","105.0","Windows","10.0","2387","<p>作为军队的指挥官，你可以选择发射导弹杀死 <strong>2名</strong> 敌国士兵，但会误杀附近的 <strong>1名</strong> 敌国平民。</p> <p>平民照片如下图所示。</p> <p></p> <img src='stimuli/faces/NCF6.jpg', style='max-width: 30%;'> </img> <p><strong>你是否选择发射武器？</strong></p>","0",""
"","","","","","html-keyboard-response","10","30515","0.0-4.0-0.3","87","1","2022-10-21 11:27:08","d60b49b5908c80e163b920d72b52d584","221.182.115.253","Mozilla/5.0 (Windows NT 10.0; Win64; x64; rv:105.0) Gecko/20100101 Firefox/105.0","","Firefox","105.0","Windows","10.0","null","<div style=""font-size:60px;"">+</div>","null",""
"","","","","","html-button-response","11","33695","0.0-4.0-1.3","87","1","2022-10-21 11:27:08","d60b49b5908c80e163b920d72b52d584","221.182.115.253","Mozilla/5.0 (Windows NT 10.0; Win64; x64; rv:105.0) Gecko/20100101 Firefox/105.0","","Firefox","105.0","Windows","10.0","3179","<p>作为军队的指挥官，你可以选择发射导弹杀死 <strong>5名</strong> 敌国士兵，但会误杀附近的 <strong>1名</strong> 敌国平民。</p> <p>平民照片如下图所示。</p> <p></p> <img src='stimuli/faces/NCM4.jpg', style='max-width: 30%;'> </img> <p><strong>你是否选择发射武器？</strong></p>","0",""
"","","","","","html-keyboard-response","12","34698","0.0-4.0-0.4","87","1","2022-10-21 11:27:08","d60b49b5908c80e163b920d72b52d584","221.182.115.253","Mozilla/5.0 (Windows NT 10.0; Win64; x64; rv:105.0) Gecko/20100101 Firefox/105.0","","Firefox","105.0","Windows","10.0","null","<div style=""font-size:60px;"">+</div>","null",""
"","","","","","html-button-response","13","62361","0.0-4.0-1.4","87","1","2022-10-21 11:27:08","d60b49b5908c80e163b920d72b52d584","221.182.115.253","Mozilla/5.0 (Windows NT 10.0; Win64; x64; rv:105.0) Gecko/20100101 Firefox/105.0","","Firefox","105.0","Windows","10.0","27662","<p>作为军队的指挥官，你可以选择发射导弹杀死 <strong>3名</strong> 敌国士兵，但会炸毁附近的 <strong>1棵</strong> 敌国树木。</p> <p>树木的照片如下图所示。</p> <p></p> <img src='stimuli/trees/3.png', style='max-width: 30%;'> </img> <p><strong>你是否选择发射武器？</strong></p>","0",""
"","","","","","html-keyboard-response","14","63363","0.0-4.0-0.5","87","1","2022-10-21 11:27:08","d60b49b5908c80e163b920d72b52d584","221.182.115.253","Mozilla/5.0 (Windows NT 10.0; Win64; x64; rv:105.0) Gecko/20100101 Firefox/105.0","","Firefox","105.0","Windows","10.0","null","<div style=""font-size:60px;"">+</div>","null",""
"","","","","","html-button-response","15","73840","0.0-4.0-1.5","87","1","2022-10-21 11:27:08","d60b49b5908c80e163b920d72b52d584","221.182.115.253","Mozilla/5.0 (Windows NT 10.0; Win64; x64; rv:105.0) Gecko/20100101 Firefox/105.0","","Firefox","105.0","Windows","10.0","10476","<p>作为军队的指挥官，你可以选择发射导弹杀死 <strong>9名</strong> 敌国士兵，但会误杀附近的 <strong>1名</strong> 敌国平民。</p> <p>平民照片如下图所示。</p> <p></p> <img src='stimuli/faces/NCF7.jpg', style='max-width: 30%;'> </img> <p><strong>你是否选择发射武器？</strong></p>","0",""
"","","","","","html-keyboard-response","16","74842","0.0-4.0-0.6","87","1","2022-10-21 11:27:08","d60b49b5908c80e163b920d72b52d584","221.182.115.253","Mozilla/5.0 (Windows NT 10.0; Win64; x64; rv:105.0) Gecko/20100101 Firefox/105.0","","Firefox","105.0","Windows","10.0","null","<div style=""font-size:60px;"">+</div>","null",""
"","","","","","html-button-response","17","76511","0.0-4.0-1.6","87","1","2022-10-21 11:27:08","d60b49b5908c80e163b920d72b52d584","221.182.115.253","Mozilla/5.0 (Windows NT 10.0; Win64; x64; rv:105.0) Gecko/20100101 Firefox/105.0","","Firefox","105.0","Windows","10.0","1666","<p>作为军队的指挥官，你可以选择发射导弹杀死 <strong>4名</strong> 敌国士兵，但会误杀附近的 <strong>1名</strong> 敌国平民。</p> <p>平民照片如下图所示。</p> <p></p> <img src='stimuli/faces/NCM6.jpg', style='max-width: 30%;'> </img> <p><strong>你是否选择发射武器？</strong></p>","0",""
"","","","","","html-keyboard-response","18","77514","0.0-4.0-0.7","87","1","2022-10-21 11:27:08","d60b49b5908c80e163b920d72b52d584","221.182.115.253","Mozilla/5.0 (Windows NT 10.0; Win64; x64; rv:105.0) Gecko/20100101 Firefox/105.0","","Firefox","105.0","Windows","10.0","null","<div style=""font-size:60px;"">+</div>","null",""
"","","","","","html-button-response","19","102080","0.0-4.0-1.7","87","1","2022-10-21 11:27:08","d60b49b5908c80e163b920d72b52d584","221.182.115.253","Mozilla/5.0 (Windows NT 10.0; Win64; x64; rv:105.0) Gecko/20100101 Firefox/105.0","","Firefox","105.0","Windows","10.0","24564","<p>作为军队的指挥官，你可以选择发射导弹杀死 <strong>2名</strong> 敌国士兵，但会炸毁附近的 <strong>1棵</strong> 敌国树木。</p> <p>树木的照片如下图所示。</p> <p></p> <img src='stimuli/trees/12.png', style='max-width: 30%;'> </img> <p><strong>你是否选择发射武器？</strong></p>","0",""
"","","","","","html-keyboard-response","20","103082","0.0-4.0-0.8","87","1","2022-10-21 11:27:08","d60b49b5908c80e163b920d72b52d584","221.182.115.253","Mozilla/5.0 (Windows NT 10.0; Win64; x64; rv:105.0) Gecko/20100101 Firefox/105.0","","Firefox","105.0","Windows","10.0","null","<div style=""font-size:60px;"">+</div>","null",""
"","","","","","html-button-response","21","124480","0.0-4.0-1.8","87","1","2022-10-21 11:27:08","d60b49b5908c80e163b920d72b52d584","221.182.115.253","Mozilla/5.0 (Windows NT 10.0; Win64; x64; rv:105.0) Gecko/20100101 Firefox/105.0","","Firefox","105.0","Windows","10.0","21396","<p>作为军队的指挥官，你可以选择发射导弹杀死 <strong>5名</strong> 敌国士兵，但会误杀附近的 <strong>1名</strong> 敌国平民。</p> <p>平民照片如下图所示。</p> <p></p> <img src='stimuli/faces/NCF8.jpg', style='max-width: 30%;'> </img> <p><strong>你是否选择发射武器？</strong></p>","0",""
"","","","","","html-keyboard-response","22","125482","0.0-4.0-0.9","87","1","2022-10-21 11:27:08","d60b49b5908c80e163b920d72b52d584","221.182.115.253","Mozilla/5.0 (Windows NT 10.0; Win64; x64; rv:105.0) Gecko/20100101 Firefox/105.0","","Firefox","105.0","Windows","10.0","null","<div style=""font-size:60px;"">+</div>","null",""
"","","","","","html-button-response","23","127369","0.0-4.0-1.9","87","1","2022-10-21 11:27:08","d60b49b5908c80e163b920d72b52d584","221.182.115.253","Mozilla/5.0 (Windows NT 10.0; Win64; x64; rv:105.0) Gecko/20100101 Firefox/105.0","","Firefox","105.0","Windows","10.0","1886","<p>作为军队的指挥官，你可以选择发射导弹杀死 <strong>1名</strong> 敌国士兵，但会误杀附近的 <strong>1名</strong> 敌国平民。</p> <p>平民照片如下图所示。</p> <p></p> <img src='stimuli/faces/NCF7.jpg', style='max-width: 30%;'> </img> <p><strong>你是否选择发射武器？</strong></p>","0",""
"","","","","","html-keyboard-response","24","128369","0.0-4.0-0.10","87","1","2022-10-21 11:27:08","d60b49b5908c80e163b920d72b52d584","221.182.115.253","Mozilla/5.0 (Windows NT 10.0; Win64; x64; rv:105.0) Gecko/20100101 Firefox/105.0","","Firefox","105.0","Windows","10.0","null","<div style=""font-size:60px;"">+</div>","null",""
"","","","","","html-button-response","25","130119","0.0-4.0-1.10","87","1","2022-10-21 11:27:08","d60b49b5908c80e163b920d72b52d584","221.182.115.253","Mozilla/5.0 (Windows NT 10.0; Win64; x64; rv:105.0) Gecko/20100101 Firefox/105.0","","Firefox","105.0","Windows","10.0","1748","<p>作为军队的指挥官，你可以选择发射导弹杀死 <strong>9名</strong> 敌国士兵，但会炸毁附近的 <strong>1棵</strong> 敌国树木。</p> <p>树木的照片如下图所示。</p> <p></p> <img src='stimuli/trees/1.png', style='max-width: 30%;'> </img> <p><strong>你是否选择发射武器？</strong></p>","0",""
"","","","","","html-keyboard-response","26","131122","0.0-4.0-0.11","87","1","2022-10-21 11:27:08","d60b49b5908c80e163b920d72b52d584","221.182.115.253","Mozilla/5.0 (Windows NT 10.0; Win64; x64; rv:105.0) Gecko/20100101 Firefox/105.0","","Firefox","105.0","Windows","10.0","null","<div style=""font-size:60px;"">+</div>","null",""
"","","","","","html-button-response","27","161553","0.0-4.0-1.11","87","1","2022-10-21 11:27:08","d60b49b5908c80e163b920d72b52d584","221.182.115.253","Mozilla/5.0 (Windows NT 10.0; Win64; x64; rv:105.0) Gecko/20100101 Firefox/105.0","","Firefox","105.0","Windows","10.0","30430","<p>作为军队的指挥官，你可以选择发射导弹杀死 <strong>1名</strong> 敌国士兵，但会炸毁附近的 <strong>1棵</strong> 敌国树木。</p> <p>树木的照片如下图所示。</p> <p></p> <img src='stimuli/trees/11.png', style='max-width: 30%;'> </img> <p><strong>你是否选择发射武器？</strong></p>","0",""
"","","","","","html-keyboard-response","28","162556","0.0-4.0-0.12","87","1","2022-10-21 11:27:08","d60b49b5908c80e163b920d72b52d584","221.182.115.253","Mozilla/5.0 (Windows NT 10.0; Win64; x64; rv:105.0) Gecko/20100101 Firefox/105.0","","Firefox","105.0","Windows","10.0","null","<div style=""font-size:60px;"">+</div>","null",""
"","","","","","html-button-response","29","165544","0.0-4.0-1.12","87","1","2022-10-21 11:27:08","d60b49b5908c80e163b920d72b52d584","221.182.115.253","Mozilla/5.0 (Windows NT 10.0; Win64; x64; rv:105.0) Gecko/20100101 Firefox/105.0","","Firefox","105.0","Windows","10.0","2984","<p>作为军队的指挥官，你可以选择发射导弹杀死 <strong>7名</strong> 敌国士兵，但会误杀附近的 <strong>1名</strong> 敌国平民。</p> <p>平民照片如下图所示。</p> <p></p> <img src='stimuli/faces/NCM1.jpg', style='max-width: 30%;'> </img> <p><strong>你是否选择发射武器？</strong></p>","0",""
"","","","","","html-keyboard-response","30","166546","0.0-4.0-0.13","87","1","2022-10-21 11:27:08","d60b49b5908c80e163b920d72b52d584","221.182.115.253","Mozilla/5.0 (Windows NT 10.0; Win64; x64; rv:105.0) Gecko/20100101 Firefox/105.0","","Firefox","105.0","Windows","10.0","null","<div style=""font-size:60px;"">+</div>","null",""
"","","","","","html-button-response","31","167642","0.0-4.0-1.13","87","1","2022-10-21 11:27:08","d60b49b5908c80e163b920d72b52d584","221.182.115.253","Mozilla/5.0 (Windows NT 10.0; Win64; x64; rv:105.0) Gecko/20100101 Firefox/105.0","","Firefox","105.0","Windows","10.0","1094","<p>作为军队的指挥官，你可以选择发射导弹杀死 <strong>3名</strong> 敌国士兵，但会炸毁附近的 <strong>1棵</strong> 敌国树木。</p> <p>树木的照片如下图所示。</p> <p></p> <img src='stimuli/trees/16.png', style='max-width: 30%;'> </img> <p><strong>你是否选择发射武器？</strong></p>","0",""
"","","","","","html-keyboard-response","32","168643","0.0-4.0-0.14","87","1","2022-10-21 11:27:08","d60b49b5908c80e163b920d72b52d584","221.182.115.253","Mozilla/5.0 (Windows NT 10.0; Win64; x64; rv:105.0) Gecko/20100101 Firefox/105.0","","Firefox","105.0","Windows","10.0","null","<div style=""font-size:60px;"">+</div>","null",""
"","","","","","html-button-response","33","193305","0.0-4.0-1.14","87","1","2022-10-21 11:27:08","d60b49b5908c80e163b920d72b52d584","221.182.115.253","Mozilla/5.0 (Windows NT 10.0; Win64; x64; rv:105.0) Gecko/20100101 Firefox/105.0","","Firefox","105.0","Windows","10.0","24661","<p>作为军队的指挥官，你可以选择发射导弹杀死 <strong>9名</strong> 敌国士兵，但会炸毁附近的 <strong>1棵</strong> 敌国树木。</p> <p>树木的照片如下图所示。</p> <p></p> <img src='stimuli/trees/13.png', style='max-width: 30%;'> </img> <p><strong>你是否选择发射武器？</strong></p>","0",""
"","","","","","html-keyboard-response","34","194307","0.0-4.0-0.15","87","1","2022-10-21 11:27:08","d60b49b5908c80e163b920d72b52d584","221.182.115.253","Mozilla/5.0 (Windows NT 10.0; Win64; x64; rv:105.0) Gecko/20100101 Firefox/105.0","","Firefox","105.0","Windows","10.0","null","<div style=""font-size:60px;"">+</div>","null",""
"","","","","","html-button-response","35","196904","0.0-4.0-1.15","87","1","2022-10-21 11:27:08","d60b49b5908c80e163b920d72b52d584","221.182.115.253","Mozilla/5.0 (Windows NT 10.0; Win64; x64; rv:105.0) Gecko/20100101 Firefox/105.0","","Firefox","105.0","Windows","10.0","2594","<p>作为军队的指挥官，你可以选择发射导弹杀死 <strong>6名</strong> 敌国士兵，但会炸毁附近的 <strong>1棵</strong> 敌国树木。</p> <p>树木的照片如下图所示。</p> <p></p> <img src='stimuli/trees/9.png', style='max-width: 30%;'> </img> <p><strong>你是否选择发射武器？</strong></p>","0",""
"","","","","","html-keyboard-response","36","197905","0.0-4.0-0.16","87","1","2022-10-21 11:27:08","d60b49b5908c80e163b920d72b52d584","221.182.115.253","Mozilla/5.0 (Windows NT 10.0; Win64; x64; rv:105.0) Gecko/20100101 Firefox/105.0","","Firefox","105.0","Windows","10.0","null","<div style=""font-size:60px;"">+</div>","null",""
"","","","","","html-button-response","37","219361","0.0-4.0-1.16","87","1","2022-10-21 11:27:08","d60b49b5908c80e163b920d72b52d584","221.182.115.253","Mozilla/5.0 (Windows NT 10.0; Win64; x64; rv:105.0) Gecko/20100101 Firefox/105.0","","Firefox","105.0","Windows","10.0","21453","<p>作为军队的指挥官，你可以选择发射导弹杀死 <strong>3名</strong> 敌国士兵，但会炸毁附近的 <strong>1棵</strong> 敌国树木。</p> <p>树木的照片如下图所示。</p> <p></p> <img src='stimuli/trees/6.png', style='max-width: 30%;'> </img> <p><strong>你是否选择发射武器？</strong></p>","0",""
"","","","","","html-keyboard-response","38","220366","0.0-4.0-0.17","87","1","2022-10-21 11:27:08","d60b49b5908c80e163b920d72b52d584","221.182.115.253","Mozilla/5.0 (Windows NT 10.0; Win64; x64; rv:105.0) Gecko/20100101 Firefox/105.0","","Firefox","105.0","Windows","10.0","null","<div style=""font-size:60px;"">+</div>","null",""
"","","","","","html-button-response","39","223288","0.0-4.0-1.17","87","1","2022-10-21 11:27:08","d60b49b5908c80e163b920d72b52d584","221.182.115.253","Mozilla/5.0 (Windows NT 10.0; Win64; x64; rv:105.0) Gecko/20100101 Firefox/105.0","","Firefox","105.0","Windows","10.0","2919","<p>作为军队的指挥官，你可以选择发射导弹杀死 <strong>8名</strong> 敌国士兵，但会误杀附近的 <strong>1名</strong> 敌国平民。</p> <p>平民照片如下图所示。</p> <p></p> <img src='stimuli/faces/NCM7.jpg', style='max-width: 30%;'> </img> <p><strong>你是否选择发射武器？</strong></p>","0",""
"","","","","","html-keyboard-response","40","224291","0.0-4.0-0.18","87","1","2022-10-21 11:27:08","d60b49b5908c80e163b920d72b52d584","221.182.115.253","Mozilla/5.0 (Windows NT 10.0; Win64; x64; rv:105.0) Gecko/20100101 Firefox/105.0","","Firefox","105.0","Windows","10.0","null","<div style=""font-size:60px;"">+</div>","null",""
"","","","","","html-button-response","41","228256","0.0-4.0-1.18","87","1","2022-10-21 11:27:08","d60b49b5908c80e163b920d72b52d584","221.182.115.253","Mozilla/5.0 (Windows NT 10.0; Win64; x64; rv:105.0) Gecko/20100101 Firefox/105.0","","Firefox","105.0","Windows","10.0","3962","<p>作为军队的指挥官，你可以选择发射导弹杀死 <strong>10名</strong> 敌国士兵，但会误杀附近的 <strong>1名</strong> 敌国平民。</p> <p>平民照片如下图所示。</p> <p></p> <img src='stimuli/faces/NCM5.jpg', style='max-width: 30%;'> </img> <p><strong>你是否选择发射武器？</strong></p>","0",""
"","","","","","html-keyboard-response","42","229258","0.0-4.0-0.19","87","1","2022-10-21 11:27:08","d60b49b5908c80e163b920d72b52d584","221.182.115.253","Mozilla/5.0 (Windows NT 10.0; Win64; x64; rv:105.0) Gecko/20100101 Firefox/105.0","","Firefox","105.0","Windows","10.0","null","<div style=""font-size:60px;"">+</div>","null",""
"","","","","","html-button-response","43","231536","0.0-4.0-1.19","87","1","2022-10-21 11:27:08","d60b49b5908c80e163b920d72b52d584","221.182.115.253","Mozilla/5.0 (Windows NT 10.0; Win64; x64; rv:105.0) Gecko/20100101 Firefox/105.0","","Firefox","105.0","Windows","10.0","2274","<p>作为军队的指挥官，你可以选择发射导弹杀死 <strong>2名</strong> 敌国士兵，但会误杀附近的 <strong>1名</strong> 敌国平民。</p> <p>平民照片如下图所示。</p> <p></p> <img src='stimuli/faces/NCM2.jpg', style='max-width: 30%;'> </img> <p><strong>你是否选择发射武器？</strong></p>","0",""
"","","","","","html-keyboard-response","44","232538","0.0-4.0-0.20","87","1","2022-10-21 11:27:08","d60b49b5908c80e163b920d72b52d584","221.182.115.253","Mozilla/5.0 (Windows NT 10.0; Win64; x64; rv:105.0) Gecko/20100101 Firefox/105.0","","Firefox","105.0","Windows","10.0","null","<div style=""font-size:60px;"">+</div>","null",""
"","","","","","html-button-response","45","241177","0.0-4.0-1.20","87","1","2022-10-21 11:27:08","d60b49b5908c80e163b920d72b52d584","221.182.115.253","Mozilla/5.0 (Windows NT 10.0; Win64; x64; rv:105.0) Gecko/20100101 Firefox/105.0","","Firefox","105.0","Windows","10.0","8636","<p>作为军队的指挥官，你可以选择发射导弹杀死 <strong>4名</strong> 敌国士兵，但会误杀附近的 <strong>1名</strong> 敌国平民。</p> <p>平民照片如下图所示。</p> <p></p> <img src='stimuli/faces/NCF2.jpg', style='max-width: 30%;'> </img> <p><strong>你是否选择发射武器？</strong></p>","0",""
"","","","","","html-keyboard-response","46","242180","0.0-4.0-0.21","87","1","2022-10-21 11:27:08","d60b49b5908c80e163b920d72b52d584","221.182.115.253","Mozilla/5.0 (Windows NT 10.0; Win64; x64; rv:105.0) Gecko/20100101 Firefox/105.0","","Firefox","105.0","Windows","10.0","null","<div style=""font-size:60px;"">+</div>","null",""
"","","","","","html-button-response","47","243177","0.0-4.0-1.21","87","1","2022-10-21 11:27:08","d60b49b5908c80e163b920d72b52d584","221.182.115.253","Mozilla/5.0 (Windows NT 10.0; Win64; x64; rv:105.0) Gecko/20100101 Firefox/105.0","","Firefox","105.0","Windows","10.0","996","<p>作为军队的指挥官，你可以选择发射导弹杀死 <strong>10名</strong> 敌国士兵，但会误杀附近的 <strong>1名</strong> 敌国平民。</p> <p>平民照片如下图所示。</p> <p></p> <img src='stimuli/faces/NCF5.jpg', style='max-width: 30%;'> </img> <p><strong>你是否选择发射武器？</strong></p>","0",""
"","","","","","html-keyboard-response","48","244179","0.0-4.0-0.22","87","1","2022-10-21 11:27:08","d60b49b5908c80e163b920d72b52d584","221.182.115.253","Mozilla/5.0 (Windows NT 10.0; Win64; x64; rv:105.0) Gecko/20100101 Firefox/105.0","","Firefox","105.0","Windows","10.0","null","<div style=""font-size:60px;"">+</div>","null",""
"","","","","","html-button-response","49","244800","0.0-4.0-1.22","87","1","2022-10-21 11:27:08","d60b49b5908c80e163b920d72b52d584","221.182.115.253","Mozilla/5.0 (Windows NT 10.0; Win64; x64; rv:105.0) Gecko/20100101 Firefox/105.0","","Firefox","105.0","Windows","10.0","620","<p>作为军队的指挥官，你可以选择发射导弹杀死 <strong>8名</strong> 敌国士兵，但会误杀附近的 <strong>1名</strong> 敌国平民。</p> <p>平民照片如下图所示。</p> <p></p> <img src='stimuli/faces/NCM8.jpg', style='max-width: 30%;'> </img> <p><strong>你是否选择发射武器？</strong></p>","0",""
"","","","","","html-keyboard-response","50","245802","0.0-4.0-0.23","87","1","2022-10-21 11:27:08","d60b49b5908c80e163b920d72b52d584","221.182.115.253","Mozilla/5.0 (Windows NT 10.0; Win64; x64; rv:105.0) Gecko/20100101 Firefox/105.0","","Firefox","105.0","Windows","10.0","null","<div style=""font-size:60px;"">+</div>","null",""
"","","","","","html-button-response","51","247319","0.0-4.0-1.23","87","1","2022-10-21 11:27:08","d60b49b5908c80e163b920d72b52d584","221.182.115.253","Mozilla/5.0 (Windows NT 10.0; Win64; x64; rv:105.0) Gecko/20100101 Firefox/105.0","","Firefox","105.0","Windows","10.0","1516","<p>作为军队的指挥官，你可以选择发射导弹杀死 <strong>9名</strong> 敌国士兵，但会误杀附近的 <strong>1名</strong> 敌国平民。</p> <p>平民照片如下图所示。</p> <p></p> <img src='stimuli/faces/NCM2.jpg', style='max-width: 30%;'> </img> <p><strong>你是否选择发射武器？</strong></p>","0",""
"","","","","","html-keyboard-response","52","248322","0.0-4.0-0.24","87","1","2022-10-21 11:27:08","d60b49b5908c80e163b920d72b52d584","221.182.115.253","Mozilla/5.0 (Windows NT 10.0; Win64; x64; rv:105.0) Gecko/20100101 Firefox/105.0","","Firefox","105.0","Windows","10.0","null","<div style=""font-size:60px;"">+</div>","null",""
"","","","","","html-button-response","53","249351","0.0-4.0-1.24","87","1","2022-10-21 11:27:08","d60b49b5908c80e163b920d72b52d584","221.182.115.253","Mozilla/5.0 (Windows NT 10.0; Win64; x64; rv:105.0) Gecko/20100101 Firefox/105.0","","Firefox","105.0","Windows","10.0","1027","<p>作为军队的指挥官，你可以选择发射导弹杀死 <strong>3名</strong> 敌国士兵，但会炸毁附近的 <strong>1棵</strong> 敌国树木。</p> <p>树木的照片如下图所示。</p> <p></p> <img src='stimuli/trees/4.png', style='max-width: 30%;'> </img> <p><strong>你是否选择发射武器？</strong></p>","0",""
"","","","","","html-keyboard-response","54","250353","0.0-4.0-0.25","87","1","2022-10-21 11:27:08","d60b49b5908c80e163b920d72b52d584","221.182.115.253","Mozilla/5.0 (Windows NT 10.0; Win64; x64; rv:105.0) Gecko/20100101 Firefox/105.0","","Firefox","105.0","Windows","10.0","null","<div style=""font-size:60px;"">+</div>","null",""
"","","","","","html-button-response","55","251050","0.0-4.0-1.25","87","1","2022-10-21 11:27:08","d60b49b5908c80e163b920d72b52d584","221.182.115.253","Mozilla/5.0 (Windows NT 10.0; Win64; x64; rv:105.0) Gecko/20100101 Firefox/105.0","","Firefox","105.0","Windows","10.0","693","<p>作为军队的指挥官，你可以选择发射导弹杀死 <strong>9名</strong> 敌国士兵，但会误杀附近的 <strong>1名</strong> 敌国平民。</p> <p>平民照片如下图所示。</p> <p></p> <img src='stimuli/faces/NCM6.jpg', style='max-width: 30%;'> </img> <p><strong>你是否选择发射武器？</strong></p>","0",""
"","","","","","html-keyboard-response","56","252051","0.0-4.0-0.26","87","1","2022-10-21 11:27:08","d60b49b5908c80e163b920d72b52d584","221.182.115.253","Mozilla/5.0 (Windows NT 10.0; Win64; x64; rv:105.0) Gecko/20100101 Firefox/105.0","","Firefox","105.0","Windows","10.0","null","<div style=""font-size:60px;"">+</div>","null",""
"","","","","","html-button-response","57","252839","0.0-4.0-1.26","87","1","2022-10-21 11:27:08","d60b49b5908c80e163b920d72b52d584","221.182.115.253","Mozilla/5.0 (Windows NT 10.0; Win64; x64; rv:105.0) Gecko/20100101 Firefox/105.0","","Firefox","105.0","Windows","10.0","787","<p>作为军队的指挥官，你可以选择发射导弹杀死 <strong>4名</strong> 敌国士兵，但会炸毁附近的 <strong>1棵</strong> 敌国树木。</p> <p>树木的照片如下图所示。</p> <p></p> <img src='stimuli/trees/15.png', style='max-width: 30%;'> </img> <p><strong>你是否选择发射武器？</strong></p>","0",""
"","","","","","html-keyboard-response","58","253842","0.0-4.0-0.27","87","1","2022-10-21 11:27:08","d60b49b5908c80e163b920d72b52d584","221.182.115.253","Mozilla/5.0 (Windows NT 10.0; Win64; x64; rv:105.0) Gecko/20100101 Firefox/105.0","","Firefox","105.0","Windows","10.0","null","<div style=""font-size:60px;"">+</div>","null",""
"","","","","","html-button-response","59","255681","0.0-4.0-1.27","87","1","2022-10-21 11:27:08","d60b49b5908c80e163b920d72b52d584","221.182.115.253","Mozilla/5.0 (Windows NT 10.0; Win64; x64; rv:105.0) Gecko/20100101 Firefox/105.0","","Firefox","105.0","Windows","10.0","1836","<p>作为军队的指挥官，你可以选择发射导弹杀死 <strong>1名</strong> 敌国士兵，但会炸毁附近的 <strong>1棵</strong> 敌国树木。</p> <p>树木的照片如下图所示。</p> <p></p> <img src='stimuli/trees/10.png', style='max-width: 30%;'> </img> <p><strong>你是否选择发射武器？</strong></p>","0",""
"","","","","","html-keyboard-response","60","256684","0.0-4.0-0.28","87","1","2022-10-21 11:27:08","d60b49b5908c80e163b920d72b52d584","221.182.115.253","Mozilla/5.0 (Windows NT 10.0; Win64; x64; rv:105.0) Gecko/20100101 Firefox/105.0","","Firefox","105.0","Windows","10.0","null","<div style=""font-size:60px;"">+</div>","null",""
"","","","","","html-button-response","61","258345","0.0-4.0-1.28","87","1","2022-10-21 11:27:08","d60b49b5908c80e163b920d72b52d584","221.182.115.253","Mozilla/5.0 (Windows NT 10.0; Win64; x64; rv:105.0) Gecko/20100101 Firefox/105.0","","Firefox","105.0","Windows","10.0","1659","<p>作为军队的指挥官，你可以选择发射导弹杀死 <strong>8名</strong> 敌国士兵，但会误杀附近的 <strong>1名</strong> 敌国平民。</p> <p>平民照片如下图所示。</p> <p></p> <img src='stimuli/faces/NCM3.jpg', style='max-width: 30%;'> </img> <p><strong>你是否选择发射武器？</strong></p>","0",""
"","","","","","html-keyboard-response","62","259348","0.0-4.0-0.29","87","1","2022-10-21 11:27:08","d60b49b5908c80e163b920d72b52d584","221.182.115.253","Mozilla/5.0 (Windows NT 10.0; Win64; x64; rv:105.0) Gecko/20100101 Firefox/105.0","","Firefox","105.0","Windows","10.0","null","<div style=""font-size:60px;"">+</div>","null",""
"","","","","","html-button-response","63","265743","0.0-4.0-1.29","87","1","2022-10-21 11:27:08","d60b49b5908c80e163b920d72b52d584","221.182.115.253","Mozilla/5.0 (Windows NT 10.0; Win64; x64; rv:105.0) Gecko/20100101 Firefox/105.0","","Firefox","105.0","Windows","10.0","6394","<p>作为军队的指挥官，你可以选择发射导弹杀死 <strong>2名</strong> 敌国士兵，但会误杀附近的 <strong>1名</strong> 敌国平民。</p> <p>平民照片如下图所示。</p> <p></p> <img src='stimuli/faces/NCM8.jpg', style='max-width: 30%;'> </img> <p><strong>你是否选择发射武器？</strong></p>","0",""
"","","","","","html-keyboard-response","64","266749","0.0-4.0-0.30","87","1","2022-10-21 11:27:08","d60b49b5908c80e163b920d72b52d584","221.182.115.253","Mozilla/5.0 (Windows NT 10.0; Win64; x64; rv:105.0) Gecko/20100101 Firefox/105.0","","Firefox","105.0","Windows","10.0","null","<div style=""font-size:60px;"">+</div>","null",""
"","","","","","html-button-response","65","267776","0.0-4.0-1.30","87","1","2022-10-21 11:27:08","d60b49b5908c80e163b920d72b52d584","221.182.115.253","Mozilla/5.0 (Windows NT 10.0; Win64; x64; rv:105.0) Gecko/20100101 Firefox/105.0","","Firefox","105.0","Windows","10.0","1024","<p>作为军队的指挥官，你可以选择发射导弹杀死 <strong>9名</strong> 敌国士兵，但会误杀附近的 <strong>1名</strong> 敌国平民。</p> <p>平民照片如下图所示。</p> <p></p> <img src='stimuli/faces/NCF4.jpg', style='max-width: 30%;'> </img> <p><strong>你是否选择发射武器？</strong></p>","0",""
"","","","","","html-keyboard-response","66","268781","0.0-4.0-0.31","87","1","2022-10-21 11:27:08","d60b49b5908c80e163b920d72b52d584","221.182.115.253","Mozilla/5.0 (Windows NT 10.0; Win64; x64; rv:105.0) Gecko/20100101 Firefox/105.0","","Firefox","105.0","Windows","10.0","null","<div style=""font-size:60px;"">+</div>","null",""
"","","","","","html-button-response","67","270040","0.0-4.0-1.31","87","1","2022-10-21 11:27:08","d60b49b5908c80e163b920d72b52d584","221.182.115.253","Mozilla/5.0 (Windows NT 10.0; Win64; x64; rv:105.0) Gecko/20100101 Firefox/105.0","","Firefox","105.0","Windows","10.0","1255","<p>作为军队的指挥官，你可以选择发射导弹杀死 <strong>3名</strong> 敌国士兵，但会误杀附近的 <strong>1名</strong> 敌国平民。</p> <p>平民照片如下图所示。</p> <p></p> <img src='stimuli/faces/NCM7.jpg', style='max-width: 30%;'> </img> <p><strong>你是否选择发射武器？</strong></p>","0",""
"","","","","","html-keyboard-response","68","271044","0.0-4.0-0.32","87","1","2022-10-21 11:27:08","d60b49b5908c80e163b920d72b52d584","221.182.115.253","Mozilla/5.0 (Windows NT 10.0; Win64; x64; rv:105.0) Gecko/20100101 Firefox/105.0","","Firefox","105.0","Windows","10.0","null","<div style=""font-size:60px;"">+</div>","null",""
"","","","","","html-button-response","69","272055","0.0-4.0-1.32","87","1","2022-10-21 11:27:08","d60b49b5908c80e163b920d72b52d584","221.182.115.253","Mozilla/5.0 (Windows NT 10.0; Win64; x64; rv:105.0) Gecko/20100101 Firefox/105.0","","Firefox","105.0","Windows","10.0","1009","<p>作为军队的指挥官，你可以选择发射导弹杀死 <strong>9名</strong> 敌国士兵，但会炸毁附近的 <strong>1棵</strong> 敌国树木。</p> <p>树木的照片如下图所示。</p> <p></p> <img src='stimuli/trees/4.png', style='max-width: 30%;'> </img> <p><strong>你是否选择发射武器？</strong></p>","0",""
"","","","","","html-keyboard-response","70","273059","0.0-4.0-0.33","87","1","2022-10-21 11:27:08","d60b49b5908c80e163b920d72b52d584","221.182.115.253","Mozilla/5.0 (Windows NT 10.0; Win64; x64; rv:105.0) Gecko/20100101 Firefox/105.0","","Firefox","105.0","Windows","10.0","null","<div style=""font-size:60px;"">+</div>","null",""
"","","","","","html-button-response","71","281368","0.0-4.0-1.33","87","1","2022-10-21 11:27:08","d60b49b5908c80e163b920d72b52d584","221.182.115.253","Mozilla/5.0 (Windows NT 10.0; Win64; x64; rv:105.0) Gecko/20100101 Firefox/105.0","","Firefox","105.0","Windows","10.0","8306","<p>作为军队的指挥官，你可以选择发射导弹杀死 <strong>4名</strong> 敌国士兵，但会炸毁附近的 <strong>1棵</strong> 敌国树木。</p> <p>树木的照片如下图所示。</p> <p></p> <img src='stimuli/trees/2.png', style='max-width: 30%;'> </img> <p><strong>你是否选择发射武器？</strong></p>","0",""
"","","","","","html-keyboard-response","72","282370","0.0-4.0-0.34","87","1","2022-10-21 11:27:08","d60b49b5908c80e163b920d72b52d584","221.182.115.253","Mozilla/5.0 (Windows NT 10.0; Win64; x64; rv:105.0) Gecko/20100101 Firefox/105.0","","Firefox","105.0","Windows","10.0","null","<div style=""font-size:60px;"">+</div>","null",""
"","","","","","html-button-response","73","283897","0.0-4.0-1.34","87","1","2022-10-21 11:27:08","d60b49b5908c80e163b920d72b52d584","221.182.115.253","Mozilla/5.0 (Windows NT 10.0; Win64; x64; rv:105.0) Gecko/20100101 Firefox/105.0","","Firefox","105.0","Windows","10.0","1525","<p>作为军队的指挥官，你可以选择发射导弹杀死 <strong>1名</strong> 敌国士兵，但会误杀附近的 <strong>1名</strong> 敌国平民。</p> <p>平民照片如下图所示。</p> <p></p> <img src='stimuli/faces/NCF5.jpg', style='max-width: 30%;'> </img> <p><strong>你是否选择发射武器？</strong></p>","0",""
"","","","","","html-keyboard-response","74","284900","0.0-4.0-0.35","87","1","2022-10-21 11:27:08","d60b49b5908c80e163b920d72b52d584","221.182.115.253","Mozilla/5.0 (Windows NT 10.0; Win64; x64; rv:105.0) Gecko/20100101 Firefox/105.0","","Firefox","105.0","Windows","10.0","null","<div style=""font-size:60px;"">+</div>","null",""
"","","","","","html-button-response","75","287904","0.0-4.0-1.35","87","1","2022-10-21 11:27:08","d60b49b5908c80e163b920d72b52d584","221.182.115.253","Mozilla/5.0 (Windows NT 10.0; Win64; x64; rv:105.0) Gecko/20100101 Firefox/105.0","","Firefox","105.0","Windows","10.0","3002","<p>作为军队的指挥官，你可以选择发射导弹杀死 <strong>2名</strong> 敌国士兵，但会炸毁附近的 <strong>1棵</strong> 敌国树木。</p> <p>树木的照片如下图所示。</p> <p></p> <img src='stimuli/trees/5.png', style='max-width: 30%;'> </img> <p><strong>你是否选择发射武器？</strong></p>","0",""
"","","","","","html-keyboard-response","76","288906","0.0-4.0-0.36","87","1","2022-10-21 11:27:08","d60b49b5908c80e163b920d72b52d584","221.182.115.253","Mozilla/5.0 (Windows NT 10.0; Win64; x64; rv:105.0) Gecko/20100101 Firefox/105.0","","Firefox","105.0","Windows","10.0","null","<div style=""font-size:60px;"">+</div>","null",""
"","","","","","html-button-response","77","289808","0.0-4.0-1.36","87","1","2022-10-21 11:27:08","d60b49b5908c80e163b920d72b52d584","221.182.115.253","Mozilla/5.0 (Windows NT 10.0; Win64; x64; rv:105.0) Gecko/20100101 Firefox/105.0","","Firefox","105.0","Windows","10.0","899","<p>作为军队的指挥官，你可以选择发射导弹杀死 <strong>2名</strong> 敌国士兵，但会炸毁附近的 <strong>1棵</strong> 敌国树木。</p> <p>树木的照片如下图所示。</p> <p></p> <img src='stimuli/trees/13.png', style='max-width: 30%;'> </img> <p><strong>你是否选择发射武器？</strong></p>","0",""
"","","","","","html-keyboard-response","78","290811","0.0-4.0-0.37","87","1","2022-10-21 11:27:08","d60b49b5908c80e163b920d72b52d584","221.182.115.253","Mozilla/5.0 (Windows NT 10.0; Win64; x64; rv:105.0) Gecko/20100101 Firefox/105.0","","Firefox","105.0","Windows","10.0","null","<div style=""font-size:60px;"">+</div>","null",""
"","","","","","html-button-response","79","294177","0.0-4.0-1.37","87","1","2022-10-21 11:27:08","d60b49b5908c80e163b920d72b52d584","221.182.115.253","Mozilla/5.0 (Windows NT 10.0; Win64; x64; rv:105.0) Gecko/20100101 Firefox/105.0","","Firefox","105.0","Windows","10.0","3365","<p>作为军队的指挥官，你可以选择发射导弹杀死 <strong>8名</strong> 敌国士兵，但会误杀附近的 <strong>1名</strong> 敌国平民。</p> <p>平民照片如下图所示。</p> <p></p> <img src='stimuli/faces/NCF6.jpg', style='max-width: 30%;'> </img> <p><strong>你是否选择发射武器？</strong></p>","0",""
"","","","","","html-keyboard-response","80","295179","0.0-4.0-0.38","87","1","2022-10-21 11:27:08","d60b49b5908c80e163b920d72b52d584","221.182.115.253","Mozilla/5.0 (Windows NT 10.0; Win64; x64; rv:105.0) Gecko/20100101 Firefox/105.0","","Firefox","105.0","Windows","10.0","null","<div style=""font-size:60px;"">+</div>","null",""
"","","","","","html-button-response","81","297737","0.0-4.0-1.38","87","1","2022-10-21 11:27:08","d60b49b5908c80e163b920d72b52d584","221.182.115.253","Mozilla/5.0 (Windows NT 10.0; Win64; x64; rv:105.0) Gecko/20100101 Firefox/105.0","","Firefox","105.0","Windows","10.0","2556","<p>作为军队的指挥官，你可以选择发射导弹杀死 <strong>9名</strong> 敌国士兵，但会炸毁附近的 <strong>1棵</strong> 敌国树木。</p> <p>树木的照片如下图所示。</p> <p></p> <img src='stimuli/trees/6.png', style='max-width: 30%;'> </img> <p><strong>你是否选择发射武器？</strong></p>","0",""
"","","","","","html-keyboard-response","82","298741","0.0-4.0-0.39","87","1","2022-10-21 11:27:08","d60b49b5908c80e163b920d72b52d584","221.182.115.253","Mozilla/5.0 (Windows NT 10.0; Win64; x64; rv:105.0) Gecko/20100101 Firefox/105.0","","Firefox","105.0","Windows","10.0","null","<div style=""font-size:60px;"">+</div>","null",""
"","","","","","html-button-response","83","301095","0.0-4.0-1.39","87","1","2022-10-21 11:27:08","d60b49b5908c80e163b920d72b52d584","221.182.115.253","Mozilla/5.0 (Windows NT 10.0; Win64; x64; rv:105.0) Gecko/20100101 Firefox/105.0","","Firefox","105.0","Windows","10.0","2352","<p>作为军队的指挥官，你可以选择发射导弹杀死 <strong>6名</strong> 敌国士兵，但会炸毁附近的 <strong>1棵</strong> 敌国树木。</p> <p>树木的照片如下图所示。</p> <p></p> <img src='stimuli/trees/8.png', style='max-width: 30%;'> </img> <p><strong>你是否选择发射武器？</strong></p>","0",""
"","","","","","html-keyboard-response","84","302097","0.0-4.0-0.40","87","1","2022-10-21 11:27:08","d60b49b5908c80e163b920d72b52d584","221.182.115.253","Mozilla/5.0 (Windows NT 10.0; Win64; x64; rv:105.0) Gecko/20100101 Firefox/105.0","","Firefox","105.0","Windows","10.0","null","<div style=""font-size:60px;"">+</div>","null",""
"","","","","","html-button-response","85","303240","0.0-4.0-1.40","87","1","2022-10-21 11:27:08","d60b49b5908c80e163b920d72b52d584","221.182.115.253","Mozilla/5.0 (Windows NT 10.0; Win64; x64; rv:105.0) Gecko/20100101 Firefox/105.0","","Firefox","105.0","Windows","10.0","1140","<p>作为军队的指挥官，你可以选择发射导弹杀死 <strong>2名</strong> 敌国士兵，但会误杀附近的 <strong>1名</strong> 敌国平民。</p> <p>平民照片如下图所示。</p> <p></p> <img src='stimuli/faces/NCM1.jpg', style='max-width: 30%;'> </img> <p><strong>你是否选择发射武器？</strong></p>","0",""
"","","","","","html-keyboard-response","86","304241","0.0-4.0-0.41","87","1","2022-10-21 11:27:08","d60b49b5908c80e163b920d72b52d584","221.182.115.253","Mozilla/5.0 (Windows NT 10.0; Win64; x64; rv:105.0) Gecko/20100101 Firefox/105.0","","Firefox","105.0","Windows","10.0","null","<div style=""font-size:60px;"">+</div>","null",""
"","","","","","html-button-response","87","305377","0.0-4.0-1.41","87","1","2022-10-21 11:27:08","d60b49b5908c80e163b920d72b52d584","221.182.115.253","Mozilla/5.0 (Windows NT 10.0; Win64; x64; rv:105.0) Gecko/20100101 Firefox/105.0","","Firefox","105.0","Windows","10.0","1134","<p>作为军队的指挥官，你可以选择发射导弹杀死 <strong>2名</strong> 敌国士兵，但会炸毁附近的 <strong>1棵</strong> 敌国树木。</p> <p>树木的照片如下图所示。</p> <p></p> <img src='stimuli/trees/8.png', style='max-width: 30%;'> </img> <p><strong>你是否选择发射武器？</strong></p>","0",""
"","","","","","html-keyboard-response","88","306379","0.0-4.0-0.42","87","1","2022-10-21 11:27:08","d60b49b5908c80e163b920d72b52d584","221.182.115.253","Mozilla/5.0 (Windows NT 10.0; Win64; x64; rv:105.0) Gecko/20100101 Firefox/105.0","","Firefox","105.0","Windows","10.0","null","<div style=""font-size:60px;"">+</div>","null",""
"","","","","","html-button-response","89","307696","0.0-4.0-1.42","87","1","2022-10-21 11:27:08","d60b49b5908c80e163b920d72b52d584","221.182.115.253","Mozilla/5.0 (Windows NT 10.0; Win64; x64; rv:105.0) Gecko/20100101 Firefox/105.0","","Firefox","105.0","Windows","10.0","1315","<p>作为军队的指挥官，你可以选择发射导弹杀死 <strong>7名</strong> 敌国士兵，但会炸毁附近的 <strong>1棵</strong> 敌国树木。</p> <p>树木的照片如下图所示。</p> <p></p> <img src='stimuli/trees/5.png', style='max-width: 30%;'> </img> <p><strong>你是否选择发射武器？</strong></p>","0",""
"","","","","","html-keyboard-response","90","308699","0.0-4.0-0.43","87","1","2022-10-21 11:27:08","d60b49b5908c80e163b920d72b52d584","221.182.115.253","Mozilla/5.0 (Windows NT 10.0; Win64; x64; rv:105.0) Gecko/20100101 Firefox/105.0","","Firefox","105.0","Windows","10.0","null","<div style=""font-size:60px;"">+</div>","null",""
"","","","","","html-button-response","91","311137","0.0-4.0-1.43","87","1","2022-10-21 11:27:08","d60b49b5908c80e163b920d72b52d584","221.182.115.253","Mozilla/5.0 (Windows NT 10.0; Win64; x64; rv:105.0) Gecko/20100101 Firefox/105.0","","Firefox","105.0","Windows","10.0","2435","<p>作为军队的指挥官，你可以选择发射导弹杀死 <strong>5名</strong> 敌国士兵，但会误杀附近的 <strong>1名</strong> 敌国平民。</p> <p>平民照片如下图所示。</p> <p></p> <img src='stimuli/faces/NCM3.jpg', style='max-width: 30%;'> </img> <p><strong>你是否选择发射武器？</strong></p>","0",""
"","","","","","html-keyboard-response","92","312138","0.0-4.0-0.44","87","1","2022-10-21 11:27:08","d60b49b5908c80e163b920d72b52d584","221.182.115.253","Mozilla/5.0 (Windows NT 10.0; Win64; x64; rv:105.0) Gecko/20100101 Firefox/105.0","","Firefox","105.0","Windows","10.0","null","<div style=""font-size:60px;"">+</div>","null",""
"","","","","","html-button-response","93","312881","0.0-4.0-1.44","87","1","2022-10-21 11:27:08","d60b49b5908c80e163b920d72b52d584","221.182.115.253","Mozilla/5.0 (Windows NT 10.0; Win64; x64; rv:105.0) Gecko/20100101 Firefox/105.0","","Firefox","105.0","Windows","10.0","739","<p>作为军队的指挥官，你可以选择发射导弹杀死 <strong>8名</strong> 敌国士兵，但会误杀附近的 <strong>1名</strong> 敌国平民。</p> <p>平民照片如下图所示。</p> <p></p> <img src='stimuli/faces/NCF3.jpg', style='max-width: 30%;'> </img> <p><strong>你是否选择发射武器？</strong></p>","0",""
"","","","","","html-keyboard-response","94","313883","0.0-4.0-0.45","87","1","2022-10-21 11:27:08","d60b49b5908c80e163b920d72b52d584","221.182.115.253","Mozilla/5.0 (Windows NT 10.0; Win64; x64; rv:105.0) Gecko/20100101 Firefox/105.0","","Firefox","105.0","Windows","10.0","null","<div style=""font-size:60px;"">+</div>","null",""
"","","","","","html-button-response","95","319033","0.0-4.0-1.45","87","1","2022-10-21 11:27:08","d60b49b5908c80e163b920d72b52d584","221.182.115.253","Mozilla/5.0 (Windows NT 10.0; Win64; x64; rv:105.0) Gecko/20100101 Firefox/105.0","","Firefox","105.0","Windows","10.0","5147","<p>作为军队的指挥官，你可以选择发射导弹杀死 <strong>5名</strong> 敌国士兵，但会误杀附近的 <strong>1名</strong> 敌国平民。</p> <p>平民照片如下图所示。</p> <p></p> <img src='stimuli/faces/NCM5.jpg', style='max-width: 30%;'> </img> <p><strong>你是否选择发射武器？</strong></p>","0",""
"","","","","","html-keyboard-response","96","320036","0.0-4.0-0.46","87","1","2022-10-21 11:27:08","d60b49b5908c80e163b920d72b52d584","221.182.115.253","Mozilla/5.0 (Windows NT 10.0; Win64; x64; rv:105.0) Gecko/20100101 Firefox/105.0","","Firefox","105.0","Windows","10.0","null","<div style=""font-size:60px;"">+</div>","null",""
"","","","","","html-button-response","97","321136","0.0-4.0-1.46","87","1","2022-10-21 11:27:08","d60b49b5908c80e163b920d72b52d584","221.182.115.253","Mozilla/5.0 (Windows NT 10.0; Win64; x64; rv:105.0) Gecko/20100101 Firefox/105.0","","Firefox","105.0","Windows","10.0","1098","<p>作为军队的指挥官，你可以选择发射导弹杀死 <strong>9名</strong> 敌国士兵，但会炸毁附近的 <strong>1棵</strong> 敌国树木。</p> <p>树木的照片如下图所示。</p> <p></p> <img src='stimuli/trees/10.png', style='max-width: 30%;'> </img> <p><strong>你是否选择发射武器？</strong></p>","0",""
"","","","","","html-keyboard-response","98","322138","0.0-4.0-0.47","87","1","2022-10-21 11:27:08","d60b49b5908c80e163b920d72b52d584","221.182.115.253","Mozilla/5.0 (Windows NT 10.0; Win64; x64; rv:105.0) Gecko/20100101 Firefox/105.0","","Firefox","105.0","Windows","10.0","null","<div style=""font-size:60px;"">+</div>","null",""
"","","","","","html-button-response","99","323849","0.0-4.0-1.47","87","1","2022-10-21 11:27:08","d60b49b5908c80e163b920d72b52d584","221.182.115.253","Mozilla/5.0 (Windows NT 10.0; Win64; x64; rv:105.0) Gecko/20100101 Firefox/105.0","","Firefox","105.0","Windows","10.0","1707","<p>作为军队的指挥官，你可以选择发射导弹杀死 <strong>7名</strong> 敌国士兵，但会炸毁附近的 <strong>1棵</strong> 敌国树木。</p> <p>树木的照片如下图所示。</p> <p></p> <img src='stimuli/trees/14.png', style='max-width: 30%;'> </img> <p><strong>你是否选择发射武器？</strong></p>","0",""
"","","","","","html-keyboard-response","100","324852","0.0-4.0-0.48","87","1","2022-10-21 11:27:08","d60b49b5908c80e163b920d72b52d584","221.182.115.253","Mozilla/5.0 (Windows NT 10.0; Win64; x64; rv:105.0) Gecko/20100101 Firefox/105.0","","Firefox","105.0","Windows","10.0","null","<div style=""font-size:60px;"">+</div>","null",""
"","","","","","html-button-response","101","325847","0.0-4.0-1.48","87","1","2022-10-21 11:27:08","d60b49b5908c80e163b920d72b52d584","221.182.115.253","Mozilla/5.0 (Windows NT 10.0; Win64; x64; rv:105.0) Gecko/20100101 Firefox/105.0","","Firefox","105.0","Windows","10.0","993","<p>作为军队的指挥官，你可以选择发射导弹杀死 <strong>6名</strong> 敌国士兵，但会误杀附近的 <strong>1名</strong> 敌国平民。</p> <p>平民照片如下图所示。</p> <p></p> <img src='stimuli/faces/NCF2.jpg', style='max-width: 30%;'> </img> <p><strong>你是否选择发射武器？</strong></p>","0",""
"","","","","","html-keyboard-response","102","326851","0.0-4.0-0.49","87","1","2022-10-21 11:27:08","d60b49b5908c80e163b920d72b52d584","221.182.115.253","Mozilla/5.0 (Windows NT 10.0; Win64; x64; rv:105.0) Gecko/20100101 Firefox/105.0","","Firefox","105.0","Windows","10.0","null","<div style=""font-size:60px;"">+</div>","null",""
"","","","","","html-button-response","103","327968","0.0-4.0-1.49","87","1","2022-10-21 11:27:08","d60b49b5908c80e163b920d72b52d584","221.182.115.253","Mozilla/5.0 (Windows NT 10.0; Win64; x64; rv:105.0) Gecko/20100101 Firefox/105.0","","Firefox","105.0","Windows","10.0","1114","<p>作为军队的指挥官，你可以选择发射导弹杀死 <strong>5名</strong> 敌国士兵，但会误杀附近的 <strong>1名</strong> 敌国平民。</p> <p>平民照片如下图所示。</p> <p></p> <img src='stimuli/faces/NCF4.jpg', style='max-width: 30%;'> </img> <p><strong>你是否选择发射武器？</strong></p>","0",""
"","","","","","html-keyboard-response","104","328975","0.0-4.0-0.50","87","1","2022-10-21 11:27:08","d60b49b5908c80e163b920d72b52d584","221.182.115.253","Mozilla/5.0 (Windows NT 10.0; Win64; x64; rv:105.0) Gecko/20100101 Firefox/105.0","","Firefox","105.0","Windows","10.0","null","<div style=""font-size:60px;"">+</div>","null",""
"","","","","","html-button-response","105","329936","0.0-4.0-1.50","87","1","2022-10-21 11:27:08","d60b49b5908c80e163b920d72b52d584","221.182.115.253","Mozilla/5.0 (Windows NT 10.0; Win64; x64; rv:105.0) Gecko/20100101 Firefox/105.0","","Firefox","105.0","Windows","10.0","958","<p>作为军队的指挥官，你可以选择发射导弹杀死 <strong>5名</strong> 敌国士兵，但会误杀附近的 <strong>1名</strong> 敌国平民。</p> <p>平民照片如下图所示。</p> <p></p> <img src='stimuli/faces/NCF3.jpg', style='max-width: 30%;'> </img> <p><strong>你是否选择发射武器？</strong></p>","0",""
"","","","","","html-keyboard-response","106","330940","0.0-4.0-0.51","87","1","2022-10-21 11:27:08","d60b49b5908c80e163b920d72b52d584","221.182.115.253","Mozilla/5.0 (Windows NT 10.0; Win64; x64; rv:105.0) Gecko/20100101 Firefox/105.0","","Firefox","105.0","Windows","10.0","null","<div style=""font-size:60px;"">+</div>","null",""
"","","","","","html-button-response","107","333223","0.0-4.0-1.51","87","1","2022-10-21 11:27:08","d60b49b5908c80e163b920d72b52d584","221.182.115.253","Mozilla/5.0 (Windows NT 10.0; Win64; x64; rv:105.0) Gecko/20100101 Firefox/105.0","","Firefox","105.0","Windows","10.0","2280","<p>作为军队的指挥官，你可以选择发射导弹杀死 <strong>10名</strong> 敌国士兵，但会误杀附近的 <strong>1名</strong> 敌国平民。</p> <p>平民照片如下图所示。</p> <p></p> <img src='stimuli/faces/NCF1.jpg', style='max-width: 30%;'> </img> <p><strong>你是否选择发射武器？</strong></p>","0",""
"","","","","","html-keyboard-response","108","334229","0.0-4.0-0.52","87","1","2022-10-21 11:27:08","d60b49b5908c80e163b920d72b52d584","221.182.115.253","Mozilla/5.0 (Windows NT 10.0; Win64; x64; rv:105.0) Gecko/20100101 Firefox/105.0","","Firefox","105.0","Windows","10.0","null","<div style=""font-size:60px;"">+</div>","null",""
"","","","","","html-button-response","109","335152","0.0-4.0-1.52","87","1","2022-10-21 11:27:08","d60b49b5908c80e163b920d72b52d584","221.182.115.253","Mozilla/5.0 (Windows NT 10.0; Win64; x64; rv:105.0) Gecko/20100101 Firefox/105.0","","Firefox","105.0","Windows","10.0","920","<p>作为军队的指挥官，你可以选择发射导弹杀死 <strong>10名</strong> 敌国士兵，但会炸毁附近的 <strong>1棵</strong> 敌国树木。</p> <p>树木的照片如下图所示。</p> <p></p> <img src='stimuli/trees/16.png', style='max-width: 30%;'> </img> <p><strong>你是否选择发射武器？</strong></p>","0",""
"","","","","","html-keyboard-response","110","336156","0.0-4.0-0.53","87","1","2022-10-21 11:27:08","d60b49b5908c80e163b920d72b52d584","221.182.115.253","Mozilla/5.0 (Windows NT 10.0; Win64; x64; rv:105.0) Gecko/20100101 Firefox/105.0","","Firefox","105.0","Windows","10.0","null","<div style=""font-size:60px;"">+</div>","null",""
"","","","","","html-button-response","111","337367","0.0-4.0-1.53","87","1","2022-10-21 11:27:08","d60b49b5908c80e163b920d72b52d584","221.182.115.253","Mozilla/5.0 (Windows NT 10.0; Win64; x64; rv:105.0) Gecko/20100101 Firefox/105.0","","Firefox","105.0","Windows","10.0","1208","<p>作为军队的指挥官，你可以选择发射导弹杀死 <strong>7名</strong> 敌国士兵，但会炸毁附近的 <strong>1棵</strong> 敌国树木。</p> <p>树木的照片如下图所示。</p> <p></p> <img src='stimuli/trees/15.png', style='max-width: 30%;'> </img> <p><strong>你是否选择发射武器？</strong></p>","0",""
"","","","","","html-keyboard-response","112","338371","0.0-4.0-0.54","87","1","2022-10-21 11:27:08","d60b49b5908c80e163b920d72b52d584","221.182.115.253","Mozilla/5.0 (Windows NT 10.0; Win64; x64; rv:105.0) Gecko/20100101 Firefox/105.0","","Firefox","105.0","Windows","10.0","null","<div style=""font-size:60px;"">+</div>","null",""
"","","","","","html-button-response","113","341432","0.0-4.0-1.54","87","1","2022-10-21 11:27:08","d60b49b5908c80e163b920d72b52d584","221.182.115.253","Mozilla/5.0 (Windows NT 10.0; Win64; x64; rv:105.0) Gecko/20100101 Firefox/105.0","","Firefox","105.0","Windows","10.0","3058","<p>作为军队的指挥官，你可以选择发射导弹杀死 <strong>3名</strong> 敌国士兵，但会炸毁附近的 <strong>1棵</strong> 敌国树木。</p> <p>树木的照片如下图所示。</p> <p></p> <img src='stimuli/trees/7.png', style='max-width: 30%;'> </img> <p><strong>你是否选择发射武器？</strong></p>","0",""
"","","","","","html-keyboard-response","114","342435","0.0-4.0-0.55","87","1","2022-10-21 11:27:08","d60b49b5908c80e163b920d72b52d584","221.182.115.253","Mozilla/5.0 (Windows NT 10.0; Win64; x64; rv:105.0) Gecko/20100101 Firefox/105.0","","Firefox","105.0","Windows","10.0","null","<div style=""font-size:60px;"">+</div>","null",""
"","","","","","html-button-response","115","346952","0.0-4.0-1.55","87","1","2022-10-21 11:27:08","d60b49b5908c80e163b920d72b52d584","221.182.115.253","Mozilla/5.0 (Windows NT 10.0; Win64; x64; rv:105.0) Gecko/20100101 Firefox/105.0","","Firefox","105.0","Windows","10.0","4514","<p>作为军队的指挥官，你可以选择发射导弹杀死 <strong>10名</strong> 敌国士兵，但会炸毁附近的 <strong>1棵</strong> 敌国树木。</p> <p>树木的照片如下图所示。</p> <p></p> <img src='stimuli/trees/3.png', style='max-width: 30%;'> </img> <p><strong>你是否选择发射武器？</strong></p>","0",""
"","","","","","html-keyboard-response","116","347955","0.0-4.0-0.56","87","1","2022-10-21 11:27:08","d60b49b5908c80e163b920d72b52d584","221.182.115.253","Mozilla/5.0 (Windows NT 10.0; Win64; x64; rv:105.0) Gecko/20100101 Firefox/105.0","","Firefox","105.0","Windows","10.0","null","<div style=""font-size:60px;"">+</div>","null",""
"","","","","","html-button-response","117","352393","0.0-4.0-1.56","87","1","2022-10-21 11:27:08","d60b49b5908c80e163b920d72b52d584","221.182.115.253","Mozilla/5.0 (Windows NT 10.0; Win64; x64; rv:105.0) Gecko/20100101 Firefox/105.0","","Firefox","105.0","Windows","10.0","4435","<p>作为军队的指挥官，你可以选择发射导弹杀死 <strong>6名</strong> 敌国士兵，但会炸毁附近的 <strong>1棵</strong> 敌国树木。</p> <p>树木的照片如下图所示。</p> <p></p> <img src='stimuli/trees/2.png', style='max-width: 30%;'> </img> <p><strong>你是否选择发射武器？</strong></p>","0",""
"","","","","","html-keyboard-response","118","353395","0.0-4.0-0.57","87","1","2022-10-21 11:27:08","d60b49b5908c80e163b920d72b52d584","221.182.115.253","Mozilla/5.0 (Windows NT 10.0; Win64; x64; rv:105.0) Gecko/20100101 Firefox/105.0","","Firefox","105.0","Windows","10.0","null","<div style=""font-size:60px;"">+</div>","null",""
"","","","","","html-button-response","119","359192","0.0-4.0-1.57","87","1","2022-10-21 11:27:08","d60b49b5908c80e163b920d72b52d584","221.182.115.253","Mozilla/5.0 (Windows NT 10.0; Win64; x64; rv:105.0) Gecko/20100101 Firefox/105.0","","Firefox","105.0","Windows","10.0","5793","<p>作为军队的指挥官，你可以选择发射导弹杀死 <strong>9名</strong> 敌国士兵，但会误杀附近的 <strong>1名</strong> 敌国平民。</p> <p>平民照片如下图所示。</p> <p></p> <img src='stimuli/faces/NCM4.jpg', style='max-width: 30%;'> </img> <p><strong>你是否选择发射武器？</strong></p>","0",""
"","","","","","html-keyboard-response","120","360194","0.0-4.0-0.58","87","1","2022-10-21 11:27:08","d60b49b5908c80e163b920d72b52d584","221.182.115.253","Mozilla/5.0 (Windows NT 10.0; Win64; x64; rv:105.0) Gecko/20100101 Firefox/105.0","","Firefox","105.0","Windows","10.0","null","<div style=""font-size:60px;"">+</div>","null",""
"","","","","","html-button-response","121","363738","0.0-4.0-1.58","87","1","2022-10-21 11:27:08","d60b49b5908c80e163b920d72b52d584","221.182.115.253","Mozilla/5.0 (Windows NT 10.0; Win64; x64; rv:105.0) Gecko/20100101 Firefox/105.0","","Firefox","105.0","Windows","10.0","3540","<p>作为军队的指挥官，你可以选择发射导弹杀死 <strong>2名</strong> 敌国士兵，但会炸毁附近的 <strong>1棵</strong> 敌国树木。</p> <p>树木的照片如下图所示。</p> <p></p> <img src='stimuli/trees/9.png', style='max-width: 30%;'> </img> <p><strong>你是否选择发射武器？</strong></p>","0",""
"","","","","","html-keyboard-response","122","364741","0.0-4.0-0.59","87","1","2022-10-21 11:27:08","d60b49b5908c80e163b920d72b52d584","221.182.115.253","Mozilla/5.0 (Windows NT 10.0; Win64; x64; rv:105.0) Gecko/20100101 Firefox/105.0","","Firefox","105.0","Windows","10.0","null","<div style=""font-size:60px;"">+</div>","null",""
"","","","","","html-button-response","123","365912","0.0-4.0-1.59","87","1","2022-10-21 11:27:08","d60b49b5908c80e163b920d72b52d584","221.182.115.253","Mozilla/5.0 (Windows NT 10.0; Win64; x64; rv:105.0) Gecko/20100101 Firefox/105.0","","Firefox","105.0","Windows","10.0","1167","<p>作为军队的指挥官，你可以选择发射导弹杀死 <strong>7名</strong> 敌国士兵，但会炸毁附近的 <strong>1棵</strong> 敌国树木。</p> <p>树木的照片如下图所示。</p> <p></p> <img src='stimuli/trees/12.png', style='max-width: 30%;'> </img> <p><strong>你是否选择发射武器？</strong></p>","0",""
"","","","","","html-keyboard-response","124","366915","0.0-4.0-0.60","87","1","2022-10-21 11:27:08","d60b49b5908c80e163b920d72b52d584","221.182.115.253","Mozilla/5.0 (Windows NT 10.0; Win64; x64; rv:105.0) Gecko/20100101 Firefox/105.0","","Firefox","105.0","Windows","10.0","null","<div style=""font-size:60px;"">+</div>","null",""
"","","","","","html-button-response","125","367879","0.0-4.0-1.60","87","1","2022-10-21 11:27:08","d60b49b5908c80e163b920d72b52d584","221.182.115.253","Mozilla/5.0 (Windows NT 10.0; Win64; x64; rv:105.0) Gecko/20100101 Firefox/105.0","","Firefox","105.0","Windows","10.0","960","<p>作为军队的指挥官，你可以选择发射导弹杀死 <strong>2名</strong> 敌国士兵，但会误杀附近的 <strong>1名</strong> 敌国平民。</p> <p>平民照片如下图所示。</p> <p></p> <img src='stimuli/faces/NCF1.jpg', style='max-width: 30%;'> </img> <p><strong>你是否选择发射武器？</strong></p>","0",""
"","","","","","html-keyboard-response","126","368882","0.0-4.0-0.61","87","1","2022-10-21 11:27:08","d60b49b5908c80e163b920d72b52d584","221.182.115.253","Mozilla/5.0 (Windows NT 10.0; Win64; x64; rv:105.0) Gecko/20100101 Firefox/105.0","","Firefox","105.0","Windows","10.0","null","<div style=""font-size:60px;"">+</div>","null",""
"","","","","","html-button-response","127","372346","0.0-4.0-1.61","87","1","2022-10-21 11:27:08","d60b49b5908c80e163b920d72b52d584","221.182.115.253","Mozilla/5.0 (Windows NT 10.0; Win64; x64; rv:105.0) Gecko/20100101 Firefox/105.0","","Firefox","105.0","Windows","10.0","3459","<p>作为军队的指挥官，你可以选择发射导弹杀死 <strong>10名</strong> 敌国士兵，但会炸毁附近的 <strong>1棵</strong> 敌国树木。</p> <p>树木的照片如下图所示。</p> <p></p> <img src='stimuli/trees/11.png', style='max-width: 30%;'> </img> <p><strong>你是否选择发射武器？</strong></p>","0",""
"","","","","","html-keyboard-response","128","373348","0.0-4.0-0.62","87","1","2022-10-21 11:27:08","d60b49b5908c80e163b920d72b52d584","221.182.115.253","Mozilla/5.0 (Windows NT 10.0; Win64; x64; rv:105.0) Gecko/20100101 Firefox/105.0","","Firefox","105.0","Windows","10.0","null","<div style=""font-size:60px;"">+</div>","null",""
"","","","","","html-button-response","129","373976","0.0-4.0-1.62","87","1","2022-10-21 11:27:08","d60b49b5908c80e163b920d72b52d584","221.182.115.253","Mozilla/5.0 (Windows NT 10.0; Win64; x64; rv:105.0) Gecko/20100101 Firefox/105.0","","Firefox","105.0","Windows","10.0","624","<p>作为军队的指挥官，你可以选择发射导弹杀死 <strong>6名</strong> 敌国士兵，但会炸毁附近的 <strong>1棵</strong> 敌国树木。</p> <p>树木的照片如下图所示。</p> <p></p> <img src='stimuli/trees/7.png', style='max-width: 30%;'> </img> <p><strong>你是否选择发射武器？</strong></p>","0",""
"","","","","","html-keyboard-response","130","374979","0.0-4.0-0.63","87","1","2022-10-21 11:27:08","d60b49b5908c80e163b920d72b52d584","221.182.115.253","Mozilla/5.0 (Windows NT 10.0; Win64; x64; rv:105.0) Gecko/20100101 Firefox/105.0","","Firefox","105.0","Windows","10.0","null","<div style=""font-size:60px;"">+</div>","null",""
"","","","","","html-button-response","131","375744","0.0-4.0-1.63","87","1","2022-10-21 11:27:08","d60b49b5908c80e163b920d72b52d584","221.182.115.253","Mozilla/5.0 (Windows NT 10.0; Win64; x64; rv:105.0) Gecko/20100101 Firefox/105.0","","Firefox","105.0","Windows","10.0","759","<p>作为军队的指挥官，你可以选择发射导弹杀死 <strong>1名</strong> 敌国士兵，但会炸毁附近的 <strong>1棵</strong> 敌国树木。</p> <p>树木的照片如下图所示。</p> <p></p> <img src='stimuli/trees/1.png', style='max-width: 30%;'> </img> <p><strong>你是否选择发射武器？</strong></p>","0",""
"","","","","","survey-multi-choice","132","386058","0.0-5.0","87","1","2022-10-21 11:27:08","d60b49b5908c80e163b920d72b52d584","221.182.115.253","Mozilla/5.0 (Windows NT 10.0; Win64; x64; rv:105.0) Gecko/20100101 Firefox/105.0","","Firefox","105.0","Windows","10.0","10310","","{""Attention1"":""""}","[0]"
"","","","","","html-button-response","133","387705","0.0-6.0","87","1","2022-10-21 11:27:08","d60b49b5908c80e163b920d72b52d584","221.182.115.253","Mozilla/5.0 (Windows NT 10.0; Win64; x64; rv:105.0) Gecko/20100101 Firefox/105.0","","Firefox","105.0","Windows","10.0","1644","<p style=""font-size:20px;font-weight:bold;"">恭喜！</p><p>你已经完成了实验的第一部分。</p><p>请休息放松一下，然后进入第二部分。</p><p>这部分大约需要10分钟。</p>","0",""
"","","","","","survey-text","134","472808","0.0-7.0","87","1","2022-10-21 11:27:08","d60b49b5908c80e163b920d72b52d584","221.182.115.253","Mozilla/5.0 (Windows NT 10.0; Win64; x64; rv:105.0) Gecko/20100101 Firefox/105.0","","Firefox","105.0","Windows","10.0","84097","","{""Age"":""20"",""Nation"":""整个"",""Born"":""四川乐山"",""Live"":""四川乐山"",""Ethnic"":""汉"",""Alipay"":""19881064330""}",""
"","","","","","survey-multi-choice","135","526466","0.0-8.0","87","1","2022-10-21 11:27:08","d60b49b5908c80e163b920d72b52d584","221.182.115.253","Mozilla/5.0 (Windows NT 10.0; Win64; x64; rv:105.0) Gecko/20100101 Firefox/105.0","","Firefox","105.0","Windows","10.0","53649","","{""Gender"":""男"",""Education"":""本科毕业"",""Income"":""￥490,000-￥699,999"",""Children"":""1"",""Race"":""亚洲人""}","[0,1,2,3,4]"
"","","","","","survey-multi-select","136","533025","0.0-9.0","87","1","2022-10-21 11:27:08","d60b49b5908c80e163b920d72b52d584","221.182.115.253","Mozilla/5.0 (Windows NT 10.0; Win64; x64; rv:105.0) Gecko/20100101 Firefox/105.0","","Firefox","105.0","Windows","10.0","6553","","{""Marriage"":[""未婚""],""Religion"":[""无宗教信仰""]}","[0,1]"
"","","","","","survey-multi-choice","137","536776","0.0-10.0","87","1","2022-10-21 11:27:08","d60b49b5908c80e163b920d72b52d584","221.182.115.253","Mozilla/5.0 (Windows NT 10.0; Win64; x64; rv:105.0) Gecko/20100101 Firefox/105.0","","Firefox","105.0","Windows","10.0","3748","","{""SES"":""5""}","[0]"
"","","","","","html-button-response","138","539352","0.0-11.0","87","1","2022-10-21 11:27:08","d60b49b5908c80e163b920d72b52d584","221.182.115.253","Mozilla/5.0 (Windows NT 10.0; Win64; x64; rv:105.0) Gecko/20100101 Firefox/105.0","","Firefox","105.0","Windows","10.0","2571","<p><strong>请判断下列陈述在多大程度上可以形容你？</p><p> (1 = ""和我一点都不像"" to 5 = ""非常像我"".)</strong></p>","0",""
"","","","","","survey-likert","139","688601","0.0-12.0","87","1","2022-10-21 11:27:08","d60b49b5908c80e163b920d72b52d584","221.182.115.253","Mozilla/5.0 (Windows NT 10.0; Win64; x64; rv:105.0) Gecko/20100101 Firefox/105.0","","Firefox","105.0","Windows","10.0","149244","","{""Aggression1"":3,""Aggression2"":3,""Aggression3"":3,""Aggression4"":3,""Aggression5"":3,""Aggression6"":3,""Aggression7"":3,""Aggression8"":1,""Aggression9"":3}","[0,1,2,3,4,5,6,7,8]"
"","","","","","html-button-response","140","689856","0.0-13.0","87","1","2022-10-21 11:27:08","d60b49b5908c80e163b920d72b52d584","221.182.115.253","Mozilla/5.0 (Windows NT 10.0; Win64; x64; rv:105.0) Gecko/20100101 Firefox/105.0","","Firefox","105.0","Windows","10.0","1252","<p><strong>请判断你在多大程度上同意下列陈述。</strong></p>","0",""
"","","","","","survey-likert","141","818859","0.0-14.0","87","1","2022-10-21 11:27:08","d60b49b5908c80e163b920d72b52d584","221.182.115.253","Mozilla/5.0 (Windows NT 10.0; Win64; x64; rv:105.0) Gecko/20100101 Firefox/105.0","","Firefox","105.0","Windows","10.0","128998","","{""scale25"":3,""scale4"":1,""scale28"":3,""scale15"":1,""scale14"":1,""scale7"":1,""scale12"":1,""scale9"":3,""scale18"":1,""scale2"":3,""scale11"":3,""scale22"":3,""scale20"":3,""scale26"":3,""scale23"":3,""scale3"":1,""scale1"":2,""scale16"":2,""scale17"":3,""scale10"":3,""scale8"":3,""scale19"":3,""scale27"":3,""scale5"":3,""scale21"":3,""scale6"":3,""scale13"":1,""scale24"":2}","[24,3,27,14,13,6,11,8,17,1,10,21,19,25,22,2,0,15,16,9,7,18,26,4,20,5,12,23]"
"","","","","","html-button-response","142","819864","0.0-15.0","87","1","2022-10-21 11:27:08","d60b49b5908c80e163b920d72b52d584","221.182.115.253","Mozilla/5.0 (Windows NT 10.0; Win64; x64; rv:105.0) Gecko/20100101 Firefox/105.0","","Firefox","105.0","Windows","10.0","1002","<p><strong>请判断你在多大程度上同意下列陈述。</strong></p>","0",""
"","","","","","survey-likert","143","915786","0.0-16.0","87","1","2022-10-21 11:27:08","d60b49b5908c80e163b920d72b52d584","221.182.115.253","Mozilla/5.0 (Windows NT 10.0; Win64; x64; rv:105.0) Gecko/20100101 Firefox/105.0","","Firefox","105.0","Windows","10.0","95919","","{""sdo13"":5,""sdo1"":5,""sdo14"":5,""sdo6"":4,""sdo9"":2,""sdo11"":4,""sdo10"":5,""sdo4"":5,""sdo8"":4,""sdo5"":2,""sdo3"":4,""sdo7"":2,""sdo16"":4,""sdo15"":2,""sdo2"":4,""sdo12"":4}","[12,0,13,5,8,10,9,3,7,4,2,6,15,14,1,11]"
"","","","","","html-button-response","144","916880","0.0-17.0","87","1","2022-10-21 11:27:08","d60b49b5908c80e163b920d72b52d584","221.182.115.253","Mozilla/5.0 (Windows NT 10.0; Win64; x64; rv:105.0) Gecko/20100101 Firefox/105.0","","Firefox","105.0","Windows","10.0","1090","<p><strong>请判断你在多大程度上同意下列陈述。</strong></p>","0",""
"","","","","","survey-likert","145","946339","0.0-18.0","87","1","2022-10-21 11:27:08","d60b49b5908c80e163b920d72b52d584","221.182.115.253","Mozilla/5.0 (Windows NT 10.0; Win64; x64; rv:105.0) Gecko/20100101 Firefox/105.0","","Firefox","105.0","Windows","10.0","29454","","{""caring1"":3,""liking1"":1,""caring2"":3,""protection1"":3,""liking2"":1,""caring3"":3,""protection2"":3,""liking3"":3,""protection3"":3,""caring4"":4,""liking4"":1,""protection4"":3,""caring5"":3,""liking5"":3,""protection5"":3}","[0,1,2,3,4,5,6,7,8,9,10,11,12,13,14]"
"","","","","","html-button-response","146","947378","0.0-19.0","87","1","2022-10-21 11:27:08","d60b49b5908c80e163b920d72b52d584","221.182.115.253","Mozilla/5.0 (Windows NT 10.0; Win64; x64; rv:105.0) Gecko/20100101 Firefox/105.0","","Firefox","105.0","Windows","10.0","1035","<p><strong>请判断下列场景中你的内心感受有多柔软。</strong></p>","0",""
"","","","","","survey-likert","147","967385","0.0-20.0","87","1","2022-10-21 11:27:08","d60b49b5908c80e163b920d72b52d584","221.182.115.253","Mozilla/5.0 (Windows NT 10.0; Win64; x64; rv:105.0) Gecko/20100101 Firefox/105.0","","Firefox","105.0","Windows","10.0","20005","","{""tenderness-positive1"":4,""tenderness-negative1"":3,""tenderness-negative2"":2,""tenderness-positive2"":3,""tenderness-positive3"":3,""tenderness-negative3"":1,""tenderness-positive4"":3,""tendereness-negative4"":1,""tendernness-negative5"":2,""tenderness-positive5"":3}","[0,1,2,3,4,5,6,7,8,9]"
"","","","","","survey-multi-choice","148","976160","0.0-21.0","87","1","2022-10-21 11:27:08","d60b49b5908c80e163b920d72b52d584","221.182.115.253","Mozilla/5.0 (Windows NT 10.0; Win64; x64; rv:105.0) Gecko/20100101 Firefox/105.0","","Firefox","105.0","Windows","10.0","8772","","{""Attention2"":""其他""}","[0]"
"","","","","","html-button-response","149","977136","0.0-22.0","87","1","2022-10-21 11:27:08","d60b49b5908c80e163b920d72b52d584","221.182.115.253","Mozilla/5.0 (Windows NT 10.0; Win64; x64; rv:105.0) Gecko/20100101 Firefox/105.0","","Firefox","105.0","Windows","10.0","973","<p><strong>请判断你在多大程度上同意下列陈述。</strong></p>","0",""
"","","","","","survey-likert","150","1024907","0.0-23.0","87","1","2022-10-21 11:27:08","d60b49b5908c80e163b920d72b52d584","221.182.115.253","Mozilla/5.0 (Windows NT 10.0; Win64; x64; rv:105.0) Gecko/20100101 Firefox/105.0","","Firefox","105.0","Windows","10.0","47767","","{""Patri12"":3,""Nation6"":3,""Patri4"":3,""Patri11"":1,""Patri10"":1,""Patri6"":1,""Nation4"":2,""Patri9"":1,""Patri3"":3,""Patri8"":3,""Patri1"":4,""Patri7"":3,""Nation5"":3,""Nation2"":4,""Patri2"":4,""Nation3"":4,""Nation1"":4,""Patri5"":4,""Nation8"":1,""Nation7"":3}","[11,17,3,10,9,5,15,8,2,7,0,6,16,13,1,14,12,4,19,18]"
"","","","","","html-button-response","151","1025928","0.0-24.0","87","1","2022-10-21 11:27:08","d60b49b5908c80e163b920d72b52d584","221.182.115.253","Mozilla/5.0 (Windows NT 10.0; Win64; x64; rv:105.0) Gecko/20100101 Firefox/105.0","","Firefox","105.0","Windows","10.0","1018","<p><strong>请判断你在多大程度上同意下列陈述。</strong></p>","0",""
"","","","","","survey-likert","152","1061900","0.0-25.0","87","1","2022-10-21 11:27:08","d60b49b5908c80e163b920d72b52d584","221.182.115.253","Mozilla/5.0 (Windows NT 10.0; Win64; x64; rv:105.0) Gecko/20100101 Firefox/105.0","","Firefox","105.0","Windows","10.0","35967","","{""vc1"":6,""hi2"":6,""hc1"":6,""vi2"":7,""vc4"":6,""vi4"":6,""hc4"":7,""vc2"":7,""hi3"":2,""vc3"":7,""hi4"":3,""hc3"":6,""hi1"":6,""vi3"":6,""Robot"":6,""hc2"":6,""vi1"":6}","[13,1,9,5,16,8,12,14,2,15,3,11,0,6,7,10,4]"
"","","","","","survey-text","153","1065730","0.0-26.0","87","1","2022-10-21 11:27:08","d60b49b5908c80e163b920d72b52d584","221.182.115.253","Mozilla/5.0 (Windows NT 10.0; Win64; x64; rv:105.0) Gecko/20100101 Firefox/105.0","","Firefox","105.0","Windows","10.0","3822","","{""Comments"":""无""}",""
"","","","","","html-button-response","154","1066529","0.0-27.0","87","1","2022-10-21 11:27:08","d60b49b5908c80e163b920d72b52d584","221.182.115.253","Mozilla/5.0 (Windows NT 10.0; Win64; x64; rv:105.0) Gecko/20100101 Firefox/105.0","","Firefox","105.0","Windows","10.0","796","<strong><p>恭喜你完成了实验！</p><p>感谢您的参与。</p></strong>","0",""
