"success","timeout","failed_images","failed_audio","failed_video","trial_type","trial_index","time_elapsed","internal_node_id","run_id","condition","recorded_at","source_code_version","ip","user_agent","device","browser","browser_version","platform","platform_version","rt","stimulus","response","question_order"
"true","false","[]","[]","[]","preload","0","5664","0.0-0.0","89","1","2022-10-23 14:27:31","d60b49b5908c80e163b920d72b52d584","113.220.127.117","Mozilla/5.0 (Linux; Android 10; HarmonyOS; KKG-AN00; HMSCore 6.7.0.322) AppleWebKit/537.36 (KHTML, like Gecko) Chrome/92.0.4515.105 HuaweiBrowser/12.1.3.312 Mobile Safari/537.36","WebKit","Chrome","92.0.4515.105","AndroidOS","10","","","",""
"true","","","","","fullscreen","1","8737","0.0-1.0","89","1","2022-10-23 14:27:31","d60b49b5908c80e163b920d72b52d584","113.220.127.117","Mozilla/5.0 (Linux; Android 10; HarmonyOS; KKG-AN00; HMSCore 6.7.0.322) AppleWebKit/537.36 (KHTML, like Gecko) Chrome/92.0.4515.105 HuaweiBrowser/12.1.3.312 Mobile Safari/537.36","WebKit","Chrome","92.0.4515.105","AndroidOS","10","","","",""
"","","","","","html-button-response","2","15995","0.0-2.0","89","1","2022-10-23 14:27:31","d60b49b5908c80e163b920d72b52d584","113.220.127.117","Mozilla/5.0 (Linux; Android 10; HarmonyOS; KKG-AN00; HMSCore 6.7.0.322) AppleWebKit/537.36 (KHTML, like Gecko) Chrome/92.0.4515.105 HuaweiBrowser/12.1.3.312 Mobile Safari/537.36","WebKit","Chrome","92.0.4515.105","AndroidOS","10","7247","<p style=""font-size:20px;font-weight:bold;"">实验知情同意书</p><p style=""text-align:left;""><strong>实验名称：</strong>社会冲突研究</p><p style=""text-align:left;""><strong>主要研究者：</strong>韩晓春副教授（北京师范大学心理学部）</p><p style=""text-align:left;""><strong>联系方式：</strong>发送邮件至xiaochun.han@bnu.edu.cn</p><p style=""text-align:left;""><strong>研究目的：</strong>研究旨在了解人类面对群体冲突时的决策方式，以及相关的心理学特质。实验调查大约需要20分钟。</p><p style=""text-align:left;""><strong>实验流程：</strong>实验包含两部分。第一部分呈现一系列群体冲突场景，请你决定如何对这些冲突进行反应，大约需要10分钟完成。第二部分包含一系列人口统计学信息收集和心理学问卷，大约需要10分钟完成。</p><p style=""text-align:left;""><strong>参加及退出规则：</strong>参加本实验完全取决于您的个人意愿。在参与过程中，您可以随时退出，并且不用承担任何后果。</p><p style=""text-align:left;""><strong>隐私：</strong>本实验完全匿名进行，不会收集您的姓名或其他能够识别您身份的信息。实验中收集的作答仅用作科学研究使用，可能会在学术期刊/书籍上发表，或者用于教学，您的数据未来可能会和其他研究者或实验室分享，但您的个人身份不会被识别。</p><p style=""text-align:left;""><strong>实验报酬：</strong>实验完成后，您将获得15元人民币报酬，以感谢您的时间和努力。调查问卷中包含几道题目用以测验您作答时的认真度。只有完成全部实验，并且正确回答认真度测验的被试才能获得实验报酬。实验报酬将通过支付宝转账发放。</p><p style=""text-align:left;font-size:20px;""><strong>如果您同意以上实验知情同意书的内容，请点击'同意并且开始实验'按钮；否则请关闭浏览器界面，退出实验。</strong></p>","0",""
"","","","","","html-button-response","3","19935","0.0-3.0","89","1","2022-10-23 14:27:31","d60b49b5908c80e163b920d72b52d584","113.220.127.117","Mozilla/5.0 (Linux; Android 10; HarmonyOS; KKG-AN00; HMSCore 6.7.0.322) AppleWebKit/537.36 (KHTML, like Gecko) Chrome/92.0.4515.105 HuaweiBrowser/12.1.3.312 Mobile Safari/537.36","WebKit","Chrome","92.0.4515.105","AndroidOS","10","3935","<p ><strong>实验任务一：</strong></p><p>请想象你的国家与另一个国家发生了军事冲突。</p><p>你是国家军队的指挥官，你将如何在冲突中进行决策。</p><p>具体来说，作为军队指挥官，请你决定是否发射导弹进行打击。</p><p>接下来，你会面对一系列场景，请仔细阅读每个场景，然后进行决策。</p><p>这部分实验任务大约需要10分钟。</p><p><strong>实验过程中，请集中注意力。</strong></p>","0",""
"","","","","","html-keyboard-response","4","20942","0.0-4.0-0.0","89","1","2022-10-23 14:27:31","d60b49b5908c80e163b920d72b52d584","113.220.127.117","Mozilla/5.0 (Linux; Android 10; HarmonyOS; KKG-AN00; HMSCore 6.7.0.322) AppleWebKit/537.36 (KHTML, like Gecko) Chrome/92.0.4515.105 HuaweiBrowser/12.1.3.312 Mobile Safari/537.36","WebKit","Chrome","92.0.4515.105","AndroidOS","10","null","<div style=""font-size:60px;"">+</div>","null",""
"","","","","","html-button-response","5","22177","0.0-4.0-1.0","89","1","2022-10-23 14:27:31","d60b49b5908c80e163b920d72b52d584","113.220.127.117","Mozilla/5.0 (Linux; Android 10; HarmonyOS; KKG-AN00; HMSCore 6.7.0.322) AppleWebKit/537.36 (KHTML, like Gecko) Chrome/92.0.4515.105 HuaweiBrowser/12.1.3.312 Mobile Safari/537.36","WebKit","Chrome","92.0.4515.105","AndroidOS","10","1210","<p>作为军队的指挥官，你可以选择发射导弹杀死 <strong>4名</strong> 敌国士兵，但会炸毁附近的 <strong>1棵</strong> 敌国树木。</p> <p>树木的照片如下图所示。</p> <p></p> <img src='stimuli/trees/4.png', style='max-width: 30%;'> </img> <p><strong>你是否选择发射武器？</strong></p>","0",""
"","","","","","html-keyboard-response","6","23182","0.0-4.0-0.1","89","1","2022-10-23 14:27:31","d60b49b5908c80e163b920d72b52d584","113.220.127.117","Mozilla/5.0 (Linux; Android 10; HarmonyOS; KKG-AN00; HMSCore 6.7.0.322) AppleWebKit/537.36 (KHTML, like Gecko) Chrome/92.0.4515.105 HuaweiBrowser/12.1.3.312 Mobile Safari/537.36","WebKit","Chrome","92.0.4515.105","AndroidOS","10","null","<div style=""font-size:60px;"">+</div>","null",""
"","","","","","html-button-response","7","24049","0.0-4.0-1.1","89","1","2022-10-23 14:27:31","d60b49b5908c80e163b920d72b52d584","113.220.127.117","Mozilla/5.0 (Linux; Android 10; HarmonyOS; KKG-AN00; HMSCore 6.7.0.322) AppleWebKit/537.36 (KHTML, like Gecko) Chrome/92.0.4515.105 HuaweiBrowser/12.1.3.312 Mobile Safari/537.36","WebKit","Chrome","92.0.4515.105","AndroidOS","10","858","<p>作为军队的指挥官，你可以选择发射导弹杀死 <strong>4名</strong> 敌国士兵，但会误杀附近的 <strong>1名</strong> 敌国平民。</p> <p>平民照片如下图所示。</p> <p></p> <img src='stimuli/faces/NCM1.jpg', style='max-width: 30%;'> </img> <p><strong>你是否选择发射武器？</strong></p>","1",""
"","","","","","html-keyboard-response","8","25055","0.0-4.0-0.2","89","1","2022-10-23 14:27:31","d60b49b5908c80e163b920d72b52d584","113.220.127.117","Mozilla/5.0 (Linux; Android 10; HarmonyOS; KKG-AN00; HMSCore 6.7.0.322) AppleWebKit/537.36 (KHTML, like Gecko) Chrome/92.0.4515.105 HuaweiBrowser/12.1.3.312 Mobile Safari/537.36","WebKit","Chrome","92.0.4515.105","AndroidOS","10","null","<div style=""font-size:60px;"">+</div>","null",""
"","","","","","html-button-response","9","25613","0.0-4.0-1.2","89","1","2022-10-23 14:27:31","d60b49b5908c80e163b920d72b52d584","113.220.127.117","Mozilla/5.0 (Linux; Android 10; HarmonyOS; KKG-AN00; HMSCore 6.7.0.322) AppleWebKit/537.36 (KHTML, like Gecko) Chrome/92.0.4515.105 HuaweiBrowser/12.1.3.312 Mobile Safari/537.36","WebKit","Chrome","92.0.4515.105","AndroidOS","10","549","<p>作为军队的指挥官，你可以选择发射导弹杀死 <strong>1名</strong> 敌国士兵，但会误杀附近的 <strong>1名</strong> 敌国平民。</p> <p>平民照片如下图所示。</p> <p></p> <img src='stimuli/faces/NCM3.jpg', style='max-width: 30%;'> </img> <p><strong>你是否选择发射武器？</strong></p>","0",""
"","","","","","html-keyboard-response","10","26620","0.0-4.0-0.3","89","1","2022-10-23 14:27:31","d60b49b5908c80e163b920d72b52d584","113.220.127.117","Mozilla/5.0 (Linux; Android 10; HarmonyOS; KKG-AN00; HMSCore 6.7.0.322) AppleWebKit/537.36 (KHTML, like Gecko) Chrome/92.0.4515.105 HuaweiBrowser/12.1.3.312 Mobile Safari/537.36","WebKit","Chrome","92.0.4515.105","AndroidOS","10","null","<div style=""font-size:60px;"">+</div>","null",""
"","","","","","html-button-response","11","27179","0.0-4.0-1.3","89","1","2022-10-23 14:27:31","d60b49b5908c80e163b920d72b52d584","113.220.127.117","Mozilla/5.0 (Linux; Android 10; HarmonyOS; KKG-AN00; HMSCore 6.7.0.322) AppleWebKit/537.36 (KHTML, like Gecko) Chrome/92.0.4515.105 HuaweiBrowser/12.1.3.312 Mobile Safari/537.36","WebKit","Chrome","92.0.4515.105","AndroidOS","10","541","<p>作为军队的指挥官，你可以选择发射导弹杀死 <strong>1名</strong> 敌国士兵，但会炸毁附近的 <strong>1棵</strong> 敌国树木。</p> <p>树木的照片如下图所示。</p> <p></p> <img src='stimuli/trees/10.png', style='max-width: 30%;'> </img> <p><strong>你是否选择发射武器？</strong></p>","0",""
"","","","","","html-keyboard-response","12","28186","0.0-4.0-0.4","89","1","2022-10-23 14:27:31","d60b49b5908c80e163b920d72b52d584","113.220.127.117","Mozilla/5.0 (Linux; Android 10; HarmonyOS; KKG-AN00; HMSCore 6.7.0.322) AppleWebKit/537.36 (KHTML, like Gecko) Chrome/92.0.4515.105 HuaweiBrowser/12.1.3.312 Mobile Safari/537.36","WebKit","Chrome","92.0.4515.105","AndroidOS","10","null","<div style=""font-size:60px;"">+</div>","null",""
"","","","","","html-button-response","13","28767","0.0-4.0-1.4","89","1","2022-10-23 14:27:31","d60b49b5908c80e163b920d72b52d584","113.220.127.117","Mozilla/5.0 (Linux; Android 10; HarmonyOS; KKG-AN00; HMSCore 6.7.0.322) AppleWebKit/537.36 (KHTML, like Gecko) Chrome/92.0.4515.105 HuaweiBrowser/12.1.3.312 Mobile Safari/537.36","WebKit","Chrome","92.0.4515.105","AndroidOS","10","572","<p>作为军队的指挥官，你可以选择发射导弹杀死 <strong>2名</strong> 敌国士兵，但会误杀附近的 <strong>1名</strong> 敌国平民。</p> <p>平民照片如下图所示。</p> <p></p> <img src='stimuli/faces/NCM6.jpg', style='max-width: 30%;'> </img> <p><strong>你是否选择发射武器？</strong></p>","0",""
"","","","","","html-keyboard-response","14","29772","0.0-4.0-0.5","89","1","2022-10-23 14:27:31","d60b49b5908c80e163b920d72b52d584","113.220.127.117","Mozilla/5.0 (Linux; Android 10; HarmonyOS; KKG-AN00; HMSCore 6.7.0.322) AppleWebKit/537.36 (KHTML, like Gecko) Chrome/92.0.4515.105 HuaweiBrowser/12.1.3.312 Mobile Safari/537.36","WebKit","Chrome","92.0.4515.105","AndroidOS","10","null","<div style=""font-size:60px;"">+</div>","null",""
"","","","","","html-button-response","15","30447","0.0-4.0-1.5","89","1","2022-10-23 14:27:31","d60b49b5908c80e163b920d72b52d584","113.220.127.117","Mozilla/5.0 (Linux; Android 10; HarmonyOS; KKG-AN00; HMSCore 6.7.0.322) AppleWebKit/537.36 (KHTML, like Gecko) Chrome/92.0.4515.105 HuaweiBrowser/12.1.3.312 Mobile Safari/537.36","WebKit","Chrome","92.0.4515.105","AndroidOS","10","660","<p>作为军队的指挥官，你可以选择发射导弹杀死 <strong>7名</strong> 敌国士兵，但会炸毁附近的 <strong>1棵</strong> 敌国树木。</p> <p>树木的照片如下图所示。</p> <p></p> <img src='stimuli/trees/16.png', style='max-width: 30%;'> </img> <p><strong>你是否选择发射武器？</strong></p>","0",""
"","","","","","html-keyboard-response","16","31454","0.0-4.0-0.6","89","1","2022-10-23 14:27:31","d60b49b5908c80e163b920d72b52d584","113.220.127.117","Mozilla/5.0 (Linux; Android 10; HarmonyOS; KKG-AN00; HMSCore 6.7.0.322) AppleWebKit/537.36 (KHTML, like Gecko) Chrome/92.0.4515.105 HuaweiBrowser/12.1.3.312 Mobile Safari/537.36","WebKit","Chrome","92.0.4515.105","AndroidOS","10","null","<div style=""font-size:60px;"">+</div>","null",""
"","","","","","html-button-response","17","32134","0.0-4.0-1.6","89","1","2022-10-23 14:27:31","d60b49b5908c80e163b920d72b52d584","113.220.127.117","Mozilla/5.0 (Linux; Android 10; HarmonyOS; KKG-AN00; HMSCore 6.7.0.322) AppleWebKit/537.36 (KHTML, like Gecko) Chrome/92.0.4515.105 HuaweiBrowser/12.1.3.312 Mobile Safari/537.36","WebKit","Chrome","92.0.4515.105","AndroidOS","10","664","<p>作为军队的指挥官，你可以选择发射导弹杀死 <strong>5名</strong> 敌国士兵，但会误杀附近的 <strong>1名</strong> 敌国平民。</p> <p>平民照片如下图所示。</p> <p></p> <img src='stimuli/faces/NCF8.jpg', style='max-width: 30%;'> </img> <p><strong>你是否选择发射武器？</strong></p>","1",""
"","","","","","html-keyboard-response","18","33151","0.0-4.0-0.7","89","1","2022-10-23 14:27:31","d60b49b5908c80e163b920d72b52d584","113.220.127.117","Mozilla/5.0 (Linux; Android 10; HarmonyOS; KKG-AN00; HMSCore 6.7.0.322) AppleWebKit/537.36 (KHTML, like Gecko) Chrome/92.0.4515.105 HuaweiBrowser/12.1.3.312 Mobile Safari/537.36","WebKit","Chrome","92.0.4515.105","AndroidOS","10","null","<div style=""font-size:60px;"">+</div>","null",""
"","","","","","html-button-response","19","33693","0.0-4.0-1.7","89","1","2022-10-23 14:27:31","d60b49b5908c80e163b920d72b52d584","113.220.127.117","Mozilla/5.0 (Linux; Android 10; HarmonyOS; KKG-AN00; HMSCore 6.7.0.322) AppleWebKit/537.36 (KHTML, like Gecko) Chrome/92.0.4515.105 HuaweiBrowser/12.1.3.312 Mobile Safari/537.36","WebKit","Chrome","92.0.4515.105","AndroidOS","10","532","<p>作为军队的指挥官，你可以选择发射导弹杀死 <strong>6名</strong> 敌国士兵，但会误杀附近的 <strong>1名</strong> 敌国平民。</p> <p>平民照片如下图所示。</p> <p></p> <img src='stimuli/faces/NCM6.jpg', style='max-width: 30%;'> </img> <p><strong>你是否选择发射武器？</strong></p>","0",""
"","","","","","html-keyboard-response","20","34700","0.0-4.0-0.8","89","1","2022-10-23 14:27:31","d60b49b5908c80e163b920d72b52d584","113.220.127.117","Mozilla/5.0 (Linux; Android 10; HarmonyOS; KKG-AN00; HMSCore 6.7.0.322) AppleWebKit/537.36 (KHTML, like Gecko) Chrome/92.0.4515.105 HuaweiBrowser/12.1.3.312 Mobile Safari/537.36","WebKit","Chrome","92.0.4515.105","AndroidOS","10","null","<div style=""font-size:60px;"">+</div>","null",""
"","","","","","html-button-response","21","35284","0.0-4.0-1.8","89","1","2022-10-23 14:27:31","d60b49b5908c80e163b920d72b52d584","113.220.127.117","Mozilla/5.0 (Linux; Android 10; HarmonyOS; KKG-AN00; HMSCore 6.7.0.322) AppleWebKit/537.36 (KHTML, like Gecko) Chrome/92.0.4515.105 HuaweiBrowser/12.1.3.312 Mobile Safari/537.36","WebKit","Chrome","92.0.4515.105","AndroidOS","10","575","<p>作为军队的指挥官，你可以选择发射导弹杀死 <strong>6名</strong> 敌国士兵，但会误杀附近的 <strong>1名</strong> 敌国平民。</p> <p>平民照片如下图所示。</p> <p></p> <img src='stimuli/faces/NCM7.jpg', style='max-width: 30%;'> </img> <p><strong>你是否选择发射武器？</strong></p>","0",""
"","","","","","html-keyboard-response","22","36290","0.0-4.0-0.9","89","1","2022-10-23 14:27:31","d60b49b5908c80e163b920d72b52d584","113.220.127.117","Mozilla/5.0 (Linux; Android 10; HarmonyOS; KKG-AN00; HMSCore 6.7.0.322) AppleWebKit/537.36 (KHTML, like Gecko) Chrome/92.0.4515.105 HuaweiBrowser/12.1.3.312 Mobile Safari/537.36","WebKit","Chrome","92.0.4515.105","AndroidOS","10","null","<div style=""font-size:60px;"">+</div>","null",""
"","","","","","html-button-response","23","36824","0.0-4.0-1.9","89","1","2022-10-23 14:27:31","d60b49b5908c80e163b920d72b52d584","113.220.127.117","Mozilla/5.0 (Linux; Android 10; HarmonyOS; KKG-AN00; HMSCore 6.7.0.322) AppleWebKit/537.36 (KHTML, like Gecko) Chrome/92.0.4515.105 HuaweiBrowser/12.1.3.312 Mobile Safari/537.36","WebKit","Chrome","92.0.4515.105","AndroidOS","10","514","<p>作为军队的指挥官，你可以选择发射导弹杀死 <strong>9名</strong> 敌国士兵，但会炸毁附近的 <strong>1棵</strong> 敌国树木。</p> <p>树木的照片如下图所示。</p> <p></p> <img src='stimuli/trees/5.png', style='max-width: 30%;'> </img> <p><strong>你是否选择发射武器？</strong></p>","0",""
"","","","","","html-keyboard-response","24","37829","0.0-4.0-0.10","89","1","2022-10-23 14:27:31","d60b49b5908c80e163b920d72b52d584","113.220.127.117","Mozilla/5.0 (Linux; Android 10; HarmonyOS; KKG-AN00; HMSCore 6.7.0.322) AppleWebKit/537.36 (KHTML, like Gecko) Chrome/92.0.4515.105 HuaweiBrowser/12.1.3.312 Mobile Safari/537.36","WebKit","Chrome","92.0.4515.105","AndroidOS","10","null","<div style=""font-size:60px;"">+</div>","null",""
"","","","","","html-button-response","25","38373","0.0-4.0-1.10","89","1","2022-10-23 14:27:31","d60b49b5908c80e163b920d72b52d584","113.220.127.117","Mozilla/5.0 (Linux; Android 10; HarmonyOS; KKG-AN00; HMSCore 6.7.0.322) AppleWebKit/537.36 (KHTML, like Gecko) Chrome/92.0.4515.105 HuaweiBrowser/12.1.3.312 Mobile Safari/537.36","WebKit","Chrome","92.0.4515.105","AndroidOS","10","535","<p>作为军队的指挥官，你可以选择发射导弹杀死 <strong>4名</strong> 敌国士兵，但会炸毁附近的 <strong>1棵</strong> 敌国树木。</p> <p>树木的照片如下图所示。</p> <p></p> <img src='stimuli/trees/15.png', style='max-width: 30%;'> </img> <p><strong>你是否选择发射武器？</strong></p>","0",""
"","","","","","html-keyboard-response","26","39380","0.0-4.0-0.11","89","1","2022-10-23 14:27:31","d60b49b5908c80e163b920d72b52d584","113.220.127.117","Mozilla/5.0 (Linux; Android 10; HarmonyOS; KKG-AN00; HMSCore 6.7.0.322) AppleWebKit/537.36 (KHTML, like Gecko) Chrome/92.0.4515.105 HuaweiBrowser/12.1.3.312 Mobile Safari/537.36","WebKit","Chrome","92.0.4515.105","AndroidOS","10","null","<div style=""font-size:60px;"">+</div>","null",""
"","","","","","html-button-response","27","39976","0.0-4.0-1.11","89","1","2022-10-23 14:27:31","d60b49b5908c80e163b920d72b52d584","113.220.127.117","Mozilla/5.0 (Linux; Android 10; HarmonyOS; KKG-AN00; HMSCore 6.7.0.322) AppleWebKit/537.36 (KHTML, like Gecko) Chrome/92.0.4515.105 HuaweiBrowser/12.1.3.312 Mobile Safari/537.36","WebKit","Chrome","92.0.4515.105","AndroidOS","10","575","<p>作为军队的指挥官，你可以选择发射导弹杀死 <strong>9名</strong> 敌国士兵，但会炸毁附近的 <strong>1棵</strong> 敌国树木。</p> <p>树木的照片如下图所示。</p> <p></p> <img src='stimuli/trees/11.png', style='max-width: 30%;'> </img> <p><strong>你是否选择发射武器？</strong></p>","0",""
"","","","","","html-keyboard-response","28","40982","0.0-4.0-0.12","89","1","2022-10-23 14:27:31","d60b49b5908c80e163b920d72b52d584","113.220.127.117","Mozilla/5.0 (Linux; Android 10; HarmonyOS; KKG-AN00; HMSCore 6.7.0.322) AppleWebKit/537.36 (KHTML, like Gecko) Chrome/92.0.4515.105 HuaweiBrowser/12.1.3.312 Mobile Safari/537.36","WebKit","Chrome","92.0.4515.105","AndroidOS","10","null","<div style=""font-size:60px;"">+</div>","null",""
"","","","","","html-button-response","29","41745","0.0-4.0-1.12","89","1","2022-10-23 14:27:31","d60b49b5908c80e163b920d72b52d584","113.220.127.117","Mozilla/5.0 (Linux; Android 10; HarmonyOS; KKG-AN00; HMSCore 6.7.0.322) AppleWebKit/537.36 (KHTML, like Gecko) Chrome/92.0.4515.105 HuaweiBrowser/12.1.3.312 Mobile Safari/537.36","WebKit","Chrome","92.0.4515.105","AndroidOS","10","755","<p>作为军队的指挥官，你可以选择发射导弹杀死 <strong>9名</strong> 敌国士兵，但会炸毁附近的 <strong>1棵</strong> 敌国树木。</p> <p>树木的照片如下图所示。</p> <p></p> <img src='stimuli/trees/15.png', style='max-width: 30%;'> </img> <p><strong>你是否选择发射武器？</strong></p>","0",""
"","","","","","html-keyboard-response","30","42751","0.0-4.0-0.13","89","1","2022-10-23 14:27:31","d60b49b5908c80e163b920d72b52d584","113.220.127.117","Mozilla/5.0 (Linux; Android 10; HarmonyOS; KKG-AN00; HMSCore 6.7.0.322) AppleWebKit/537.36 (KHTML, like Gecko) Chrome/92.0.4515.105 HuaweiBrowser/12.1.3.312 Mobile Safari/537.36","WebKit","Chrome","92.0.4515.105","AndroidOS","10","null","<div style=""font-size:60px;"">+</div>","null",""
"","","","","","html-button-response","31","43460","0.0-4.0-1.13","89","1","2022-10-23 14:27:31","d60b49b5908c80e163b920d72b52d584","113.220.127.117","Mozilla/5.0 (Linux; Android 10; HarmonyOS; KKG-AN00; HMSCore 6.7.0.322) AppleWebKit/537.36 (KHTML, like Gecko) Chrome/92.0.4515.105 HuaweiBrowser/12.1.3.312 Mobile Safari/537.36","WebKit","Chrome","92.0.4515.105","AndroidOS","10","698","<p>作为军队的指挥官，你可以选择发射导弹杀死 <strong>9名</strong> 敌国士兵，但会炸毁附近的 <strong>1棵</strong> 敌国树木。</p> <p>树木的照片如下图所示。</p> <p></p> <img src='stimuli/trees/4.png', style='max-width: 30%;'> </img> <p><strong>你是否选择发射武器？</strong></p>","0",""
"","","","","","html-keyboard-response","32","44466","0.0-4.0-0.14","89","1","2022-10-23 14:27:31","d60b49b5908c80e163b920d72b52d584","113.220.127.117","Mozilla/5.0 (Linux; Android 10; HarmonyOS; KKG-AN00; HMSCore 6.7.0.322) AppleWebKit/537.36 (KHTML, like Gecko) Chrome/92.0.4515.105 HuaweiBrowser/12.1.3.312 Mobile Safari/537.36","WebKit","Chrome","92.0.4515.105","AndroidOS","10","null","<div style=""font-size:60px;"">+</div>","null",""
"","","","","","html-button-response","33","45072","0.0-4.0-1.14","89","1","2022-10-23 14:27:31","d60b49b5908c80e163b920d72b52d584","113.220.127.117","Mozilla/5.0 (Linux; Android 10; HarmonyOS; KKG-AN00; HMSCore 6.7.0.322) AppleWebKit/537.36 (KHTML, like Gecko) Chrome/92.0.4515.105 HuaweiBrowser/12.1.3.312 Mobile Safari/537.36","WebKit","Chrome","92.0.4515.105","AndroidOS","10","598","<p>作为军队的指挥官，你可以选择发射导弹杀死 <strong>6名</strong> 敌国士兵，但会误杀附近的 <strong>1名</strong> 敌国平民。</p> <p>平民照片如下图所示。</p> <p></p> <img src='stimuli/faces/NCM1.jpg', style='max-width: 30%;'> </img> <p><strong>你是否选择发射武器？</strong></p>","0",""
"","","","","","html-keyboard-response","34","46078","0.0-4.0-0.15","89","1","2022-10-23 14:27:31","d60b49b5908c80e163b920d72b52d584","113.220.127.117","Mozilla/5.0 (Linux; Android 10; HarmonyOS; KKG-AN00; HMSCore 6.7.0.322) AppleWebKit/537.36 (KHTML, like Gecko) Chrome/92.0.4515.105 HuaweiBrowser/12.1.3.312 Mobile Safari/537.36","WebKit","Chrome","92.0.4515.105","AndroidOS","10","null","<div style=""font-size:60px;"">+</div>","null",""
"","","","","","html-button-response","35","46774","0.0-4.0-1.15","89","1","2022-10-23 14:27:31","d60b49b5908c80e163b920d72b52d584","113.220.127.117","Mozilla/5.0 (Linux; Android 10; HarmonyOS; KKG-AN00; HMSCore 6.7.0.322) AppleWebKit/537.36 (KHTML, like Gecko) Chrome/92.0.4515.105 HuaweiBrowser/12.1.3.312 Mobile Safari/537.36","WebKit","Chrome","92.0.4515.105","AndroidOS","10","683","<p>作为军队的指挥官，你可以选择发射导弹杀死 <strong>1名</strong> 敌国士兵，但会误杀附近的 <strong>1名</strong> 敌国平民。</p> <p>平民照片如下图所示。</p> <p></p> <img src='stimuli/faces/NCF5.jpg', style='max-width: 30%;'> </img> <p><strong>你是否选择发射武器？</strong></p>","0",""
"","","","","","html-keyboard-response","36","47782","0.0-4.0-0.16","89","1","2022-10-23 14:27:31","d60b49b5908c80e163b920d72b52d584","113.220.127.117","Mozilla/5.0 (Linux; Android 10; HarmonyOS; KKG-AN00; HMSCore 6.7.0.322) AppleWebKit/537.36 (KHTML, like Gecko) Chrome/92.0.4515.105 HuaweiBrowser/12.1.3.312 Mobile Safari/537.36","WebKit","Chrome","92.0.4515.105","AndroidOS","10","null","<div style=""font-size:60px;"">+</div>","null",""
"","","","","","html-button-response","37","48467","0.0-4.0-1.16","89","1","2022-10-23 14:27:31","d60b49b5908c80e163b920d72b52d584","113.220.127.117","Mozilla/5.0 (Linux; Android 10; HarmonyOS; KKG-AN00; HMSCore 6.7.0.322) AppleWebKit/537.36 (KHTML, like Gecko) Chrome/92.0.4515.105 HuaweiBrowser/12.1.3.312 Mobile Safari/537.36","WebKit","Chrome","92.0.4515.105","AndroidOS","10","670","<p>作为军队的指挥官，你可以选择发射导弹杀死 <strong>9名</strong> 敌国士兵，但会误杀附近的 <strong>1名</strong> 敌国平民。</p> <p>平民照片如下图所示。</p> <p></p> <img src='stimuli/faces/NCM5.jpg', style='max-width: 30%;'> </img> <p><strong>你是否选择发射武器？</strong></p>","0",""
"","","","","","html-keyboard-response","38","49472","0.0-4.0-0.17","89","1","2022-10-23 14:27:31","d60b49b5908c80e163b920d72b52d584","113.220.127.117","Mozilla/5.0 (Linux; Android 10; HarmonyOS; KKG-AN00; HMSCore 6.7.0.322) AppleWebKit/537.36 (KHTML, like Gecko) Chrome/92.0.4515.105 HuaweiBrowser/12.1.3.312 Mobile Safari/537.36","WebKit","Chrome","92.0.4515.105","AndroidOS","10","null","<div style=""font-size:60px;"">+</div>","null",""
"","","","","","html-button-response","39","50212","0.0-4.0-1.17","89","1","2022-10-23 14:27:31","d60b49b5908c80e163b920d72b52d584","113.220.127.117","Mozilla/5.0 (Linux; Android 10; HarmonyOS; KKG-AN00; HMSCore 6.7.0.322) AppleWebKit/537.36 (KHTML, like Gecko) Chrome/92.0.4515.105 HuaweiBrowser/12.1.3.312 Mobile Safari/537.36","WebKit","Chrome","92.0.4515.105","AndroidOS","10","719","<p>作为军队的指挥官，你可以选择发射导弹杀死 <strong>1名</strong> 敌国士兵，但会误杀附近的 <strong>1名</strong> 敌国平民。</p> <p>平民照片如下图所示。</p> <p></p> <img src='stimuli/faces/NCF7.jpg', style='max-width: 30%;'> </img> <p><strong>你是否选择发射武器？</strong></p>","0",""
"","","","","","html-keyboard-response","40","51220","0.0-4.0-0.18","89","1","2022-10-23 14:27:31","d60b49b5908c80e163b920d72b52d584","113.220.127.117","Mozilla/5.0 (Linux; Android 10; HarmonyOS; KKG-AN00; HMSCore 6.7.0.322) AppleWebKit/537.36 (KHTML, like Gecko) Chrome/92.0.4515.105 HuaweiBrowser/12.1.3.312 Mobile Safari/537.36","WebKit","Chrome","92.0.4515.105","AndroidOS","10","null","<div style=""font-size:60px;"">+</div>","null",""
"","","","","","html-button-response","41","51874","0.0-4.0-1.18","89","1","2022-10-23 14:27:31","d60b49b5908c80e163b920d72b52d584","113.220.127.117","Mozilla/5.0 (Linux; Android 10; HarmonyOS; KKG-AN00; HMSCore 6.7.0.322) AppleWebKit/537.36 (KHTML, like Gecko) Chrome/92.0.4515.105 HuaweiBrowser/12.1.3.312 Mobile Safari/537.36","WebKit","Chrome","92.0.4515.105","AndroidOS","10","638","<p>作为军队的指挥官，你可以选择发射导弹杀死 <strong>4名</strong> 敌国士兵，但会误杀附近的 <strong>1名</strong> 敌国平民。</p> <p>平民照片如下图所示。</p> <p></p> <img src='stimuli/faces/NCM7.jpg', style='max-width: 30%;'> </img> <p><strong>你是否选择发射武器？</strong></p>","0",""
"","","","","","html-keyboard-response","42","52879","0.0-4.0-0.19","89","1","2022-10-23 14:27:31","d60b49b5908c80e163b920d72b52d584","113.220.127.117","Mozilla/5.0 (Linux; Android 10; HarmonyOS; KKG-AN00; HMSCore 6.7.0.322) AppleWebKit/537.36 (KHTML, like Gecko) Chrome/92.0.4515.105 HuaweiBrowser/12.1.3.312 Mobile Safari/537.36","WebKit","Chrome","92.0.4515.105","AndroidOS","10","null","<div style=""font-size:60px;"">+</div>","null",""
"","","","","","html-button-response","43","53587","0.0-4.0-1.19","89","1","2022-10-23 14:27:31","d60b49b5908c80e163b920d72b52d584","113.220.127.117","Mozilla/5.0 (Linux; Android 10; HarmonyOS; KKG-AN00; HMSCore 6.7.0.322) AppleWebKit/537.36 (KHTML, like Gecko) Chrome/92.0.4515.105 HuaweiBrowser/12.1.3.312 Mobile Safari/537.36","WebKit","Chrome","92.0.4515.105","AndroidOS","10","698","<p>作为军队的指挥官，你可以选择发射导弹杀死 <strong>1名</strong> 敌国士兵，但会炸毁附近的 <strong>1棵</strong> 敌国树木。</p> <p>树木的照片如下图所示。</p> <p></p> <img src='stimuli/trees/12.png', style='max-width: 30%;'> </img> <p><strong>你是否选择发射武器？</strong></p>","0",""
"","","","","","html-keyboard-response","44","54594","0.0-4.0-0.20","89","1","2022-10-23 14:27:31","d60b49b5908c80e163b920d72b52d584","113.220.127.117","Mozilla/5.0 (Linux; Android 10; HarmonyOS; KKG-AN00; HMSCore 6.7.0.322) AppleWebKit/537.36 (KHTML, like Gecko) Chrome/92.0.4515.105 HuaweiBrowser/12.1.3.312 Mobile Safari/537.36","WebKit","Chrome","92.0.4515.105","AndroidOS","10","null","<div style=""font-size:60px;"">+</div>","null",""
"","","","","","html-button-response","45","55214","0.0-4.0-1.20","89","1","2022-10-23 14:27:31","d60b49b5908c80e163b920d72b52d584","113.220.127.117","Mozilla/5.0 (Linux; Android 10; HarmonyOS; KKG-AN00; HMSCore 6.7.0.322) AppleWebKit/537.36 (KHTML, like Gecko) Chrome/92.0.4515.105 HuaweiBrowser/12.1.3.312 Mobile Safari/537.36","WebKit","Chrome","92.0.4515.105","AndroidOS","10","605","<p>作为军队的指挥官，你可以选择发射导弹杀死 <strong>2名</strong> 敌国士兵，但会误杀附近的 <strong>1名</strong> 敌国平民。</p> <p>平民照片如下图所示。</p> <p></p> <img src='stimuli/faces/NCM2.jpg', style='max-width: 30%;'> </img> <p><strong>你是否选择发射武器？</strong></p>","1",""
"","","","","","html-keyboard-response","46","56220","0.0-4.0-0.21","89","1","2022-10-23 14:27:31","d60b49b5908c80e163b920d72b52d584","113.220.127.117","Mozilla/5.0 (Linux; Android 10; HarmonyOS; KKG-AN00; HMSCore 6.7.0.322) AppleWebKit/537.36 (KHTML, like Gecko) Chrome/92.0.4515.105 HuaweiBrowser/12.1.3.312 Mobile Safari/537.36","WebKit","Chrome","92.0.4515.105","AndroidOS","10","null","<div style=""font-size:60px;"">+</div>","null",""
"","","","","","html-button-response","47","56753","0.0-4.0-1.21","89","1","2022-10-23 14:27:31","d60b49b5908c80e163b920d72b52d584","113.220.127.117","Mozilla/5.0 (Linux; Android 10; HarmonyOS; KKG-AN00; HMSCore 6.7.0.322) AppleWebKit/537.36 (KHTML, like Gecko) Chrome/92.0.4515.105 HuaweiBrowser/12.1.3.312 Mobile Safari/537.36","WebKit","Chrome","92.0.4515.105","AndroidOS","10","523","<p>作为军队的指挥官，你可以选择发射导弹杀死 <strong>7名</strong> 敌国士兵，但会炸毁附近的 <strong>1棵</strong> 敌国树木。</p> <p>树木的照片如下图所示。</p> <p></p> <img src='stimuli/trees/6.png', style='max-width: 30%;'> </img> <p><strong>你是否选择发射武器？</strong></p>","0",""
"","","","","","html-keyboard-response","48","57758","0.0-4.0-0.22","89","1","2022-10-23 14:27:31","d60b49b5908c80e163b920d72b52d584","113.220.127.117","Mozilla/5.0 (Linux; Android 10; HarmonyOS; KKG-AN00; HMSCore 6.7.0.322) AppleWebKit/537.36 (KHTML, like Gecko) Chrome/92.0.4515.105 HuaweiBrowser/12.1.3.312 Mobile Safari/537.36","WebKit","Chrome","92.0.4515.105","AndroidOS","10","null","<div style=""font-size:60px;"">+</div>","null",""
"","","","","","html-button-response","49","58295","0.0-4.0-1.22","89","1","2022-10-23 14:27:31","d60b49b5908c80e163b920d72b52d584","113.220.127.117","Mozilla/5.0 (Linux; Android 10; HarmonyOS; KKG-AN00; HMSCore 6.7.0.322) AppleWebKit/537.36 (KHTML, like Gecko) Chrome/92.0.4515.105 HuaweiBrowser/12.1.3.312 Mobile Safari/537.36","WebKit","Chrome","92.0.4515.105","AndroidOS","10","525","<p>作为军队的指挥官，你可以选择发射导弹杀死 <strong>6名</strong> 敌国士兵，但会误杀附近的 <strong>1名</strong> 敌国平民。</p> <p>平民照片如下图所示。</p> <p></p> <img src='stimuli/faces/NCF4.jpg', style='max-width: 30%;'> </img> <p><strong>你是否选择发射武器？</strong></p>","0",""
"","","","","","html-keyboard-response","50","59300","0.0-4.0-0.23","89","1","2022-10-23 14:27:31","d60b49b5908c80e163b920d72b52d584","113.220.127.117","Mozilla/5.0 (Linux; Android 10; HarmonyOS; KKG-AN00; HMSCore 6.7.0.322) AppleWebKit/537.36 (KHTML, like Gecko) Chrome/92.0.4515.105 HuaweiBrowser/12.1.3.312 Mobile Safari/537.36","WebKit","Chrome","92.0.4515.105","AndroidOS","10","null","<div style=""font-size:60px;"">+</div>","null",""
"","","","","","html-button-response","51","59952","0.0-4.0-1.23","89","1","2022-10-23 14:27:31","d60b49b5908c80e163b920d72b52d584","113.220.127.117","Mozilla/5.0 (Linux; Android 10; HarmonyOS; KKG-AN00; HMSCore 6.7.0.322) AppleWebKit/537.36 (KHTML, like Gecko) Chrome/92.0.4515.105 HuaweiBrowser/12.1.3.312 Mobile Safari/537.36","WebKit","Chrome","92.0.4515.105","AndroidOS","10","633","<p>作为军队的指挥官，你可以选择发射导弹杀死 <strong>3名</strong> 敌国士兵，但会误杀附近的 <strong>1名</strong> 敌国平民。</p> <p>平民照片如下图所示。</p> <p></p> <img src='stimuli/faces/NCM4.jpg', style='max-width: 30%;'> </img> <p><strong>你是否选择发射武器？</strong></p>","0",""
"","","","","","html-keyboard-response","52","60959","0.0-4.0-0.24","89","1","2022-10-23 14:27:31","d60b49b5908c80e163b920d72b52d584","113.220.127.117","Mozilla/5.0 (Linux; Android 10; HarmonyOS; KKG-AN00; HMSCore 6.7.0.322) AppleWebKit/537.36 (KHTML, like Gecko) Chrome/92.0.4515.105 HuaweiBrowser/12.1.3.312 Mobile Safari/537.36","WebKit","Chrome","92.0.4515.105","AndroidOS","10","null","<div style=""font-size:60px;"">+</div>","null",""
"","","","","","html-button-response","53","61472","0.0-4.0-1.24","89","1","2022-10-23 14:27:31","d60b49b5908c80e163b920d72b52d584","113.220.127.117","Mozilla/5.0 (Linux; Android 10; HarmonyOS; KKG-AN00; HMSCore 6.7.0.322) AppleWebKit/537.36 (KHTML, like Gecko) Chrome/92.0.4515.105 HuaweiBrowser/12.1.3.312 Mobile Safari/537.36","WebKit","Chrome","92.0.4515.105","AndroidOS","10","498","<p>作为军队的指挥官，你可以选择发射导弹杀死 <strong>8名</strong> 敌国士兵，但会误杀附近的 <strong>1名</strong> 敌国平民。</p> <p>平民照片如下图所示。</p> <p></p> <img src='stimuli/faces/NCM3.jpg', style='max-width: 30%;'> </img> <p><strong>你是否选择发射武器？</strong></p>","0",""
"","","","","","html-keyboard-response","54","62483","0.0-4.0-0.25","89","1","2022-10-23 14:27:31","d60b49b5908c80e163b920d72b52d584","113.220.127.117","Mozilla/5.0 (Linux; Android 10; HarmonyOS; KKG-AN00; HMSCore 6.7.0.322) AppleWebKit/537.36 (KHTML, like Gecko) Chrome/92.0.4515.105 HuaweiBrowser/12.1.3.312 Mobile Safari/537.36","WebKit","Chrome","92.0.4515.105","AndroidOS","10","null","<div style=""font-size:60px;"">+</div>","null",""
"","","","","","html-button-response","55","63137","0.0-4.0-1.25","89","1","2022-10-23 14:27:31","d60b49b5908c80e163b920d72b52d584","113.220.127.117","Mozilla/5.0 (Linux; Android 10; HarmonyOS; KKG-AN00; HMSCore 6.7.0.322) AppleWebKit/537.36 (KHTML, like Gecko) Chrome/92.0.4515.105 HuaweiBrowser/12.1.3.312 Mobile Safari/537.36","WebKit","Chrome","92.0.4515.105","AndroidOS","10","629","<p>作为军队的指挥官，你可以选择发射导弹杀死 <strong>10名</strong> 敌国士兵，但会误杀附近的 <strong>1名</strong> 敌国平民。</p> <p>平民照片如下图所示。</p> <p></p> <img src='stimuli/faces/NCF7.jpg', style='max-width: 30%;'> </img> <p><strong>你是否选择发射武器？</strong></p>","0",""
"","","","","","html-keyboard-response","56","64144","0.0-4.0-0.26","89","1","2022-10-23 14:27:31","d60b49b5908c80e163b920d72b52d584","113.220.127.117","Mozilla/5.0 (Linux; Android 10; HarmonyOS; KKG-AN00; HMSCore 6.7.0.322) AppleWebKit/537.36 (KHTML, like Gecko) Chrome/92.0.4515.105 HuaweiBrowser/12.1.3.312 Mobile Safari/537.36","WebKit","Chrome","92.0.4515.105","AndroidOS","10","null","<div style=""font-size:60px;"">+</div>","null",""
"","","","","","html-button-response","57","64695","0.0-4.0-1.26","89","1","2022-10-23 14:27:31","d60b49b5908c80e163b920d72b52d584","113.220.127.117","Mozilla/5.0 (Linux; Android 10; HarmonyOS; KKG-AN00; HMSCore 6.7.0.322) AppleWebKit/537.36 (KHTML, like Gecko) Chrome/92.0.4515.105 HuaweiBrowser/12.1.3.312 Mobile Safari/537.36","WebKit","Chrome","92.0.4515.105","AndroidOS","10","540","<p>作为军队的指挥官，你可以选择发射导弹杀死 <strong>4名</strong> 敌国士兵，但会误杀附近的 <strong>1名</strong> 敌国平民。</p> <p>平民照片如下图所示。</p> <p></p> <img src='stimuli/faces/NCF2.jpg', style='max-width: 30%;'> </img> <p><strong>你是否选择发射武器？</strong></p>","0",""
"","","","","","html-keyboard-response","58","65704","0.0-4.0-0.27","89","1","2022-10-23 14:27:31","d60b49b5908c80e163b920d72b52d584","113.220.127.117","Mozilla/5.0 (Linux; Android 10; HarmonyOS; KKG-AN00; HMSCore 6.7.0.322) AppleWebKit/537.36 (KHTML, like Gecko) Chrome/92.0.4515.105 HuaweiBrowser/12.1.3.312 Mobile Safari/537.36","WebKit","Chrome","92.0.4515.105","AndroidOS","10","null","<div style=""font-size:60px;"">+</div>","null",""
"","","","","","html-button-response","59","66284","0.0-4.0-1.27","89","1","2022-10-23 14:27:31","d60b49b5908c80e163b920d72b52d584","113.220.127.117","Mozilla/5.0 (Linux; Android 10; HarmonyOS; KKG-AN00; HMSCore 6.7.0.322) AppleWebKit/537.36 (KHTML, like Gecko) Chrome/92.0.4515.105 HuaweiBrowser/12.1.3.312 Mobile Safari/537.36","WebKit","Chrome","92.0.4515.105","AndroidOS","10","563","<p>作为军队的指挥官，你可以选择发射导弹杀死 <strong>3名</strong> 敌国士兵，但会误杀附近的 <strong>1名</strong> 敌国平民。</p> <p>平民照片如下图所示。</p> <p></p> <img src='stimuli/faces/NCF3.jpg', style='max-width: 30%;'> </img> <p><strong>你是否选择发射武器？</strong></p>","0",""
"","","","","","html-keyboard-response","60","67291","0.0-4.0-0.28","89","1","2022-10-23 14:27:31","d60b49b5908c80e163b920d72b52d584","113.220.127.117","Mozilla/5.0 (Linux; Android 10; HarmonyOS; KKG-AN00; HMSCore 6.7.0.322) AppleWebKit/537.36 (KHTML, like Gecko) Chrome/92.0.4515.105 HuaweiBrowser/12.1.3.312 Mobile Safari/537.36","WebKit","Chrome","92.0.4515.105","AndroidOS","10","null","<div style=""font-size:60px;"">+</div>","null",""
"","","","","","html-button-response","61","67809","0.0-4.0-1.28","89","1","2022-10-23 14:27:31","d60b49b5908c80e163b920d72b52d584","113.220.127.117","Mozilla/5.0 (Linux; Android 10; HarmonyOS; KKG-AN00; HMSCore 6.7.0.322) AppleWebKit/537.36 (KHTML, like Gecko) Chrome/92.0.4515.105 HuaweiBrowser/12.1.3.312 Mobile Safari/537.36","WebKit","Chrome","92.0.4515.105","AndroidOS","10","505","<p>作为军队的指挥官，你可以选择发射导弹杀死 <strong>5名</strong> 敌国士兵，但会误杀附近的 <strong>1名</strong> 敌国平民。</p> <p>平民照片如下图所示。</p> <p></p> <img src='stimuli/faces/NCF4.jpg', style='max-width: 30%;'> </img> <p><strong>你是否选择发射武器？</strong></p>","0",""
"","","","","","html-keyboard-response","62","68815","0.0-4.0-0.29","89","1","2022-10-23 14:27:31","d60b49b5908c80e163b920d72b52d584","113.220.127.117","Mozilla/5.0 (Linux; Android 10; HarmonyOS; KKG-AN00; HMSCore 6.7.0.322) AppleWebKit/537.36 (KHTML, like Gecko) Chrome/92.0.4515.105 HuaweiBrowser/12.1.3.312 Mobile Safari/537.36","WebKit","Chrome","92.0.4515.105","AndroidOS","10","null","<div style=""font-size:60px;"">+</div>","null",""
"","","","","","html-button-response","63","69381","0.0-4.0-1.29","89","1","2022-10-23 14:27:31","d60b49b5908c80e163b920d72b52d584","113.220.127.117","Mozilla/5.0 (Linux; Android 10; HarmonyOS; KKG-AN00; HMSCore 6.7.0.322) AppleWebKit/537.36 (KHTML, like Gecko) Chrome/92.0.4515.105 HuaweiBrowser/12.1.3.312 Mobile Safari/537.36","WebKit","Chrome","92.0.4515.105","AndroidOS","10","540","<p>作为军队的指挥官，你可以选择发射导弹杀死 <strong>3名</strong> 敌国士兵，但会炸毁附近的 <strong>1棵</strong> 敌国树木。</p> <p>树木的照片如下图所示。</p> <p></p> <img src='stimuli/trees/2.png', style='max-width: 30%;'> </img> <p><strong>你是否选择发射武器？</strong></p>","0",""
"","","","","","html-keyboard-response","64","70394","0.0-4.0-0.30","89","1","2022-10-23 14:27:31","d60b49b5908c80e163b920d72b52d584","113.220.127.117","Mozilla/5.0 (Linux; Android 10; HarmonyOS; KKG-AN00; HMSCore 6.7.0.322) AppleWebKit/537.36 (KHTML, like Gecko) Chrome/92.0.4515.105 HuaweiBrowser/12.1.3.312 Mobile Safari/537.36","WebKit","Chrome","92.0.4515.105","AndroidOS","10","null","<div style=""font-size:60px;"">+</div>","null",""
"","","","","","html-button-response","65","70982","0.0-4.0-1.30","89","1","2022-10-23 14:27:31","d60b49b5908c80e163b920d72b52d584","113.220.127.117","Mozilla/5.0 (Linux; Android 10; HarmonyOS; KKG-AN00; HMSCore 6.7.0.322) AppleWebKit/537.36 (KHTML, like Gecko) Chrome/92.0.4515.105 HuaweiBrowser/12.1.3.312 Mobile Safari/537.36","WebKit","Chrome","92.0.4515.105","AndroidOS","10","556","<p>作为军队的指挥官，你可以选择发射导弹杀死 <strong>6名</strong> 敌国士兵，但会误杀附近的 <strong>1名</strong> 敌国平民。</p> <p>平民照片如下图所示。</p> <p></p> <img src='stimuli/faces/NCF8.jpg', style='max-width: 30%;'> </img> <p><strong>你是否选择发射武器？</strong></p>","0",""
"","","","","","html-keyboard-response","66","71990","0.0-4.0-0.31","89","1","2022-10-23 14:27:31","d60b49b5908c80e163b920d72b52d584","113.220.127.117","Mozilla/5.0 (Linux; Android 10; HarmonyOS; KKG-AN00; HMSCore 6.7.0.322) AppleWebKit/537.36 (KHTML, like Gecko) Chrome/92.0.4515.105 HuaweiBrowser/12.1.3.312 Mobile Safari/537.36","WebKit","Chrome","92.0.4515.105","AndroidOS","10","null","<div style=""font-size:60px;"">+</div>","null",""
"","","","","","html-button-response","67","72568","0.0-4.0-1.31","89","1","2022-10-23 14:27:31","d60b49b5908c80e163b920d72b52d584","113.220.127.117","Mozilla/5.0 (Linux; Android 10; HarmonyOS; KKG-AN00; HMSCore 6.7.0.322) AppleWebKit/537.36 (KHTML, like Gecko) Chrome/92.0.4515.105 HuaweiBrowser/12.1.3.312 Mobile Safari/537.36","WebKit","Chrome","92.0.4515.105","AndroidOS","10","548","<p>作为军队的指挥官，你可以选择发射导弹杀死 <strong>4名</strong> 敌国士兵，但会炸毁附近的 <strong>1棵</strong> 敌国树木。</p> <p>树木的照片如下图所示。</p> <p></p> <img src='stimuli/trees/7.png', style='max-width: 30%;'> </img> <p><strong>你是否选择发射武器？</strong></p>","0",""
"","","","","","html-keyboard-response","68","73578","0.0-4.0-0.32","89","1","2022-10-23 14:27:31","d60b49b5908c80e163b920d72b52d584","113.220.127.117","Mozilla/5.0 (Linux; Android 10; HarmonyOS; KKG-AN00; HMSCore 6.7.0.322) AppleWebKit/537.36 (KHTML, like Gecko) Chrome/92.0.4515.105 HuaweiBrowser/12.1.3.312 Mobile Safari/537.36","WebKit","Chrome","92.0.4515.105","AndroidOS","10","null","<div style=""font-size:60px;"">+</div>","null",""
"","","","","","html-button-response","69","74210","0.0-4.0-1.32","89","1","2022-10-23 14:27:31","d60b49b5908c80e163b920d72b52d584","113.220.127.117","Mozilla/5.0 (Linux; Android 10; HarmonyOS; KKG-AN00; HMSCore 6.7.0.322) AppleWebKit/537.36 (KHTML, like Gecko) Chrome/92.0.4515.105 HuaweiBrowser/12.1.3.312 Mobile Safari/537.36","WebKit","Chrome","92.0.4515.105","AndroidOS","10","616","<p>作为军队的指挥官，你可以选择发射导弹杀死 <strong>9名</strong> 敌国士兵，但会误杀附近的 <strong>1名</strong> 敌国平民。</p> <p>平民照片如下图所示。</p> <p></p> <img src='stimuli/faces/NCF2.jpg', style='max-width: 30%;'> </img> <p><strong>你是否选择发射武器？</strong></p>","0",""
"","","","","","html-keyboard-response","70","75220","0.0-4.0-0.33","89","1","2022-10-23 14:27:31","d60b49b5908c80e163b920d72b52d584","113.220.127.117","Mozilla/5.0 (Linux; Android 10; HarmonyOS; KKG-AN00; HMSCore 6.7.0.322) AppleWebKit/537.36 (KHTML, like Gecko) Chrome/92.0.4515.105 HuaweiBrowser/12.1.3.312 Mobile Safari/537.36","WebKit","Chrome","92.0.4515.105","AndroidOS","10","null","<div style=""font-size:60px;"">+</div>","null",""
"","","","","","html-button-response","71","75834","0.0-4.0-1.33","89","1","2022-10-23 14:27:31","d60b49b5908c80e163b920d72b52d584","113.220.127.117","Mozilla/5.0 (Linux; Android 10; HarmonyOS; KKG-AN00; HMSCore 6.7.0.322) AppleWebKit/537.36 (KHTML, like Gecko) Chrome/92.0.4515.105 HuaweiBrowser/12.1.3.312 Mobile Safari/537.36","WebKit","Chrome","92.0.4515.105","AndroidOS","10","589","<p>作为军队的指挥官，你可以选择发射导弹杀死 <strong>6名</strong> 敌国士兵，但会炸毁附近的 <strong>1棵</strong> 敌国树木。</p> <p>树木的照片如下图所示。</p> <p></p> <img src='stimuli/trees/7.png', style='max-width: 30%;'> </img> <p><strong>你是否选择发射武器？</strong></p>","0",""
"","","","","","html-keyboard-response","72","76845","0.0-4.0-0.34","89","1","2022-10-23 14:27:31","d60b49b5908c80e163b920d72b52d584","113.220.127.117","Mozilla/5.0 (Linux; Android 10; HarmonyOS; KKG-AN00; HMSCore 6.7.0.322) AppleWebKit/537.36 (KHTML, like Gecko) Chrome/92.0.4515.105 HuaweiBrowser/12.1.3.312 Mobile Safari/537.36","WebKit","Chrome","92.0.4515.105","AndroidOS","10","null","<div style=""font-size:60px;"">+</div>","null",""
"","","","","","html-button-response","73","77443","0.0-4.0-1.34","89","1","2022-10-23 14:27:31","d60b49b5908c80e163b920d72b52d584","113.220.127.117","Mozilla/5.0 (Linux; Android 10; HarmonyOS; KKG-AN00; HMSCore 6.7.0.322) AppleWebKit/537.36 (KHTML, like Gecko) Chrome/92.0.4515.105 HuaweiBrowser/12.1.3.312 Mobile Safari/537.36","WebKit","Chrome","92.0.4515.105","AndroidOS","10","583","<p>作为军队的指挥官，你可以选择发射导弹杀死 <strong>9名</strong> 敌国士兵，但会误杀附近的 <strong>1名</strong> 敌国平民。</p> <p>平民照片如下图所示。</p> <p></p> <img src='stimuli/faces/NCM8.jpg', style='max-width: 30%;'> </img> <p><strong>你是否选择发射武器？</strong></p>","0",""
"","","","","","html-keyboard-response","74","78452","0.0-4.0-0.35","89","1","2022-10-23 14:27:31","d60b49b5908c80e163b920d72b52d584","113.220.127.117","Mozilla/5.0 (Linux; Android 10; HarmonyOS; KKG-AN00; HMSCore 6.7.0.322) AppleWebKit/537.36 (KHTML, like Gecko) Chrome/92.0.4515.105 HuaweiBrowser/12.1.3.312 Mobile Safari/537.36","WebKit","Chrome","92.0.4515.105","AndroidOS","10","null","<div style=""font-size:60px;"">+</div>","null",""
"","","","","","html-button-response","75","79232","0.0-4.0-1.35","89","1","2022-10-23 14:27:31","d60b49b5908c80e163b920d72b52d584","113.220.127.117","Mozilla/5.0 (Linux; Android 10; HarmonyOS; KKG-AN00; HMSCore 6.7.0.322) AppleWebKit/537.36 (KHTML, like Gecko) Chrome/92.0.4515.105 HuaweiBrowser/12.1.3.312 Mobile Safari/537.36","WebKit","Chrome","92.0.4515.105","AndroidOS","10","767","<p>作为军队的指挥官，你可以选择发射导弹杀死 <strong>2名</strong> 敌国士兵，但会误杀附近的 <strong>1名</strong> 敌国平民。</p> <p>平民照片如下图所示。</p> <p></p> <img src='stimuli/faces/NCM8.jpg', style='max-width: 30%;'> </img> <p><strong>你是否选择发射武器？</strong></p>","0",""
"","","","","","html-keyboard-response","76","80249","0.0-4.0-0.36","89","1","2022-10-23 14:27:31","d60b49b5908c80e163b920d72b52d584","113.220.127.117","Mozilla/5.0 (Linux; Android 10; HarmonyOS; KKG-AN00; HMSCore 6.7.0.322) AppleWebKit/537.36 (KHTML, like Gecko) Chrome/92.0.4515.105 HuaweiBrowser/12.1.3.312 Mobile Safari/537.36","WebKit","Chrome","92.0.4515.105","AndroidOS","10","null","<div style=""font-size:60px;"">+</div>","null",""
"","","","","","html-button-response","77","80871","0.0-4.0-1.36","89","1","2022-10-23 14:27:31","d60b49b5908c80e163b920d72b52d584","113.220.127.117","Mozilla/5.0 (Linux; Android 10; HarmonyOS; KKG-AN00; HMSCore 6.7.0.322) AppleWebKit/537.36 (KHTML, like Gecko) Chrome/92.0.4515.105 HuaweiBrowser/12.1.3.312 Mobile Safari/537.36","WebKit","Chrome","92.0.4515.105","AndroidOS","10","606","<p>作为军队的指挥官，你可以选择发射导弹杀死 <strong>7名</strong> 敌国士兵，但会炸毁附近的 <strong>1棵</strong> 敌国树木。</p> <p>树木的照片如下图所示。</p> <p></p> <img src='stimuli/trees/13.png', style='max-width: 30%;'> </img> <p><strong>你是否选择发射武器？</strong></p>","0",""
"","","","","","html-keyboard-response","78","81883","0.0-4.0-0.37","89","1","2022-10-23 14:27:31","d60b49b5908c80e163b920d72b52d584","113.220.127.117","Mozilla/5.0 (Linux; Android 10; HarmonyOS; KKG-AN00; HMSCore 6.7.0.322) AppleWebKit/537.36 (KHTML, like Gecko) Chrome/92.0.4515.105 HuaweiBrowser/12.1.3.312 Mobile Safari/537.36","WebKit","Chrome","92.0.4515.105","AndroidOS","10","null","<div style=""font-size:60px;"">+</div>","null",""
"","","","","","html-button-response","79","82573","0.0-4.0-1.37","89","1","2022-10-23 14:27:31","d60b49b5908c80e163b920d72b52d584","113.220.127.117","Mozilla/5.0 (Linux; Android 10; HarmonyOS; KKG-AN00; HMSCore 6.7.0.322) AppleWebKit/537.36 (KHTML, like Gecko) Chrome/92.0.4515.105 HuaweiBrowser/12.1.3.312 Mobile Safari/537.36","WebKit","Chrome","92.0.4515.105","AndroidOS","10","662","<p>作为军队的指挥官，你可以选择发射导弹杀死 <strong>1名</strong> 敌国士兵，但会炸毁附近的 <strong>1棵</strong> 敌国树木。</p> <p>树木的照片如下图所示。</p> <p></p> <img src='stimuli/trees/11.png', style='max-width: 30%;'> </img> <p><strong>你是否选择发射武器？</strong></p>","0",""
"","","","","","html-keyboard-response","80","83580","0.0-4.0-0.38","89","1","2022-10-23 14:27:31","d60b49b5908c80e163b920d72b52d584","113.220.127.117","Mozilla/5.0 (Linux; Android 10; HarmonyOS; KKG-AN00; HMSCore 6.7.0.322) AppleWebKit/537.36 (KHTML, like Gecko) Chrome/92.0.4515.105 HuaweiBrowser/12.1.3.312 Mobile Safari/537.36","WebKit","Chrome","92.0.4515.105","AndroidOS","10","null","<div style=""font-size:60px;"">+</div>","null",""
"","","","","","html-button-response","81","84239","0.0-4.0-1.38","89","1","2022-10-23 14:27:31","d60b49b5908c80e163b920d72b52d584","113.220.127.117","Mozilla/5.0 (Linux; Android 10; HarmonyOS; KKG-AN00; HMSCore 6.7.0.322) AppleWebKit/537.36 (KHTML, like Gecko) Chrome/92.0.4515.105 HuaweiBrowser/12.1.3.312 Mobile Safari/537.36","WebKit","Chrome","92.0.4515.105","AndroidOS","10","652","<p>作为军队的指挥官，你可以选择发射导弹杀死 <strong>2名</strong> 敌国士兵，但会炸毁附近的 <strong>1棵</strong> 敌国树木。</p> <p>树木的照片如下图所示。</p> <p></p> <img src='stimuli/trees/8.png', style='max-width: 30%;'> </img> <p><strong>你是否选择发射武器？</strong></p>","0",""
"","","","","","html-keyboard-response","82","85248","0.0-4.0-0.39","89","1","2022-10-23 14:27:31","d60b49b5908c80e163b920d72b52d584","113.220.127.117","Mozilla/5.0 (Linux; Android 10; HarmonyOS; KKG-AN00; HMSCore 6.7.0.322) AppleWebKit/537.36 (KHTML, like Gecko) Chrome/92.0.4515.105 HuaweiBrowser/12.1.3.312 Mobile Safari/537.36","WebKit","Chrome","92.0.4515.105","AndroidOS","10","null","<div style=""font-size:60px;"">+</div>","null",""
"","","","","","html-button-response","83","85780","0.0-4.0-1.39","89","1","2022-10-23 14:27:31","d60b49b5908c80e163b920d72b52d584","113.220.127.117","Mozilla/5.0 (Linux; Android 10; HarmonyOS; KKG-AN00; HMSCore 6.7.0.322) AppleWebKit/537.36 (KHTML, like Gecko) Chrome/92.0.4515.105 HuaweiBrowser/12.1.3.312 Mobile Safari/537.36","WebKit","Chrome","92.0.4515.105","AndroidOS","10","493","<p>作为军队的指挥官，你可以选择发射导弹杀死 <strong>4名</strong> 敌国士兵，但会炸毁附近的 <strong>1棵</strong> 敌国树木。</p> <p>树木的照片如下图所示。</p> <p></p> <img src='stimuli/trees/13.png', style='max-width: 30%;'> </img> <p><strong>你是否选择发射武器？</strong></p>","0",""
"","","","","","html-keyboard-response","84","86799","0.0-4.0-0.40","89","1","2022-10-23 14:27:31","d60b49b5908c80e163b920d72b52d584","113.220.127.117","Mozilla/5.0 (Linux; Android 10; HarmonyOS; KKG-AN00; HMSCore 6.7.0.322) AppleWebKit/537.36 (KHTML, like Gecko) Chrome/92.0.4515.105 HuaweiBrowser/12.1.3.312 Mobile Safari/537.36","WebKit","Chrome","92.0.4515.105","AndroidOS","10","null","<div style=""font-size:60px;"">+</div>","null",""
"","","","","","html-button-response","85","87338","0.0-4.0-1.40","89","1","2022-10-23 14:27:31","d60b49b5908c80e163b920d72b52d584","113.220.127.117","Mozilla/5.0 (Linux; Android 10; HarmonyOS; KKG-AN00; HMSCore 6.7.0.322) AppleWebKit/537.36 (KHTML, like Gecko) Chrome/92.0.4515.105 HuaweiBrowser/12.1.3.312 Mobile Safari/537.36","WebKit","Chrome","92.0.4515.105","AndroidOS","10","525","<p>作为军队的指挥官，你可以选择发射导弹杀死 <strong>5名</strong> 敌国士兵，但会误杀附近的 <strong>1名</strong> 敌国平民。</p> <p>平民照片如下图所示。</p> <p></p> <img src='stimuli/faces/NCF6.jpg', style='max-width: 30%;'> </img> <p><strong>你是否选择发射武器？</strong></p>","0",""
"","","","","","html-keyboard-response","86","88346","0.0-4.0-0.41","89","1","2022-10-23 14:27:31","d60b49b5908c80e163b920d72b52d584","113.220.127.117","Mozilla/5.0 (Linux; Android 10; HarmonyOS; KKG-AN00; HMSCore 6.7.0.322) AppleWebKit/537.36 (KHTML, like Gecko) Chrome/92.0.4515.105 HuaweiBrowser/12.1.3.312 Mobile Safari/537.36","WebKit","Chrome","92.0.4515.105","AndroidOS","10","null","<div style=""font-size:60px;"">+</div>","null",""
"","","","","","html-button-response","87","88998","0.0-4.0-1.41","89","1","2022-10-23 14:27:31","d60b49b5908c80e163b920d72b52d584","113.220.127.117","Mozilla/5.0 (Linux; Android 10; HarmonyOS; KKG-AN00; HMSCore 6.7.0.322) AppleWebKit/537.36 (KHTML, like Gecko) Chrome/92.0.4515.105 HuaweiBrowser/12.1.3.312 Mobile Safari/537.36","WebKit","Chrome","92.0.4515.105","AndroidOS","10","642","<p>作为军队的指挥官，你可以选择发射导弹杀死 <strong>8名</strong> 敌国士兵，但会误杀附近的 <strong>1名</strong> 敌国平民。</p> <p>平民照片如下图所示。</p> <p></p> <img src='stimuli/faces/NCM2.jpg', style='max-width: 30%;'> </img> <p><strong>你是否选择发射武器？</strong></p>","0",""
"","","","","","html-keyboard-response","88","90011","0.0-4.0-0.42","89","1","2022-10-23 14:27:31","d60b49b5908c80e163b920d72b52d584","113.220.127.117","Mozilla/5.0 (Linux; Android 10; HarmonyOS; KKG-AN00; HMSCore 6.7.0.322) AppleWebKit/537.36 (KHTML, like Gecko) Chrome/92.0.4515.105 HuaweiBrowser/12.1.3.312 Mobile Safari/537.36","WebKit","Chrome","92.0.4515.105","AndroidOS","10","null","<div style=""font-size:60px;"">+</div>","null",""
"","","","","","html-button-response","89","90616","0.0-4.0-1.42","89","1","2022-10-23 14:27:31","d60b49b5908c80e163b920d72b52d584","113.220.127.117","Mozilla/5.0 (Linux; Android 10; HarmonyOS; KKG-AN00; HMSCore 6.7.0.322) AppleWebKit/537.36 (KHTML, like Gecko) Chrome/92.0.4515.105 HuaweiBrowser/12.1.3.312 Mobile Safari/537.36","WebKit","Chrome","92.0.4515.105","AndroidOS","10","584","<p>作为军队的指挥官，你可以选择发射导弹杀死 <strong>9名</strong> 敌国士兵，但会炸毁附近的 <strong>1棵</strong> 敌国树木。</p> <p>树木的照片如下图所示。</p> <p></p> <img src='stimuli/trees/14.png', style='max-width: 30%;'> </img> <p><strong>你是否选择发射武器？</strong></p>","0",""
"","","","","","html-keyboard-response","90","91627","0.0-4.0-0.43","89","1","2022-10-23 14:27:31","d60b49b5908c80e163b920d72b52d584","113.220.127.117","Mozilla/5.0 (Linux; Android 10; HarmonyOS; KKG-AN00; HMSCore 6.7.0.322) AppleWebKit/537.36 (KHTML, like Gecko) Chrome/92.0.4515.105 HuaweiBrowser/12.1.3.312 Mobile Safari/537.36","WebKit","Chrome","92.0.4515.105","AndroidOS","10","null","<div style=""font-size:60px;"">+</div>","null",""
"","","","","","html-button-response","91","92256","0.0-4.0-1.43","89","1","2022-10-23 14:27:31","d60b49b5908c80e163b920d72b52d584","113.220.127.117","Mozilla/5.0 (Linux; Android 10; HarmonyOS; KKG-AN00; HMSCore 6.7.0.322) AppleWebKit/537.36 (KHTML, like Gecko) Chrome/92.0.4515.105 HuaweiBrowser/12.1.3.312 Mobile Safari/537.36","WebKit","Chrome","92.0.4515.105","AndroidOS","10","593","<p>作为军队的指挥官，你可以选择发射导弹杀死 <strong>10名</strong> 敌国士兵，但会炸毁附近的 <strong>1棵</strong> 敌国树木。</p> <p>树木的照片如下图所示。</p> <p></p> <img src='stimuli/trees/1.png', style='max-width: 30%;'> </img> <p><strong>你是否选择发射武器？</strong></p>","0",""
"","","","","","html-keyboard-response","92","93267","0.0-4.0-0.44","89","1","2022-10-23 14:27:31","d60b49b5908c80e163b920d72b52d584","113.220.127.117","Mozilla/5.0 (Linux; Android 10; HarmonyOS; KKG-AN00; HMSCore 6.7.0.322) AppleWebKit/537.36 (KHTML, like Gecko) Chrome/92.0.4515.105 HuaweiBrowser/12.1.3.312 Mobile Safari/537.36","WebKit","Chrome","92.0.4515.105","AndroidOS","10","null","<div style=""font-size:60px;"">+</div>","null",""
"","","","","","html-button-response","93","93830","0.0-4.0-1.44","89","1","2022-10-23 14:27:31","d60b49b5908c80e163b920d72b52d584","113.220.127.117","Mozilla/5.0 (Linux; Android 10; HarmonyOS; KKG-AN00; HMSCore 6.7.0.322) AppleWebKit/537.36 (KHTML, like Gecko) Chrome/92.0.4515.105 HuaweiBrowser/12.1.3.312 Mobile Safari/537.36","WebKit","Chrome","92.0.4515.105","AndroidOS","10","547","<p>作为军队的指挥官，你可以选择发射导弹杀死 <strong>2名</strong> 敌国士兵，但会炸毁附近的 <strong>1棵</strong> 敌国树木。</p> <p>树木的照片如下图所示。</p> <p></p> <img src='stimuli/trees/3.png', style='max-width: 30%;'> </img> <p><strong>你是否选择发射武器？</strong></p>","0",""
"","","","","","html-keyboard-response","94","94836","0.0-4.0-0.45","89","1","2022-10-23 14:27:31","d60b49b5908c80e163b920d72b52d584","113.220.127.117","Mozilla/5.0 (Linux; Android 10; HarmonyOS; KKG-AN00; HMSCore 6.7.0.322) AppleWebKit/537.36 (KHTML, like Gecko) Chrome/92.0.4515.105 HuaweiBrowser/12.1.3.312 Mobile Safari/537.36","WebKit","Chrome","92.0.4515.105","AndroidOS","10","null","<div style=""font-size:60px;"">+</div>","null",""
"","","","","","html-button-response","95","97523","0.0-4.0-1.45","89","1","2022-10-23 14:27:31","d60b49b5908c80e163b920d72b52d584","113.220.127.117","Mozilla/5.0 (Linux; Android 10; HarmonyOS; KKG-AN00; HMSCore 6.7.0.322) AppleWebKit/537.36 (KHTML, like Gecko) Chrome/92.0.4515.105 HuaweiBrowser/12.1.3.312 Mobile Safari/537.36","WebKit","Chrome","92.0.4515.105","AndroidOS","10","2673","<p>作为军队的指挥官，你可以选择发射导弹杀死 <strong>6名</strong> 敌国士兵，但会误杀附近的 <strong>1名</strong> 敌国平民。</p> <p>平民照片如下图所示。</p> <p></p> <img src='stimuli/faces/NCF6.jpg', style='max-width: 30%;'> </img> <p><strong>你是否选择发射武器？</strong></p>","1",""
"","","","","","html-keyboard-response","96","98531","0.0-4.0-0.46","89","1","2022-10-23 14:27:31","d60b49b5908c80e163b920d72b52d584","113.220.127.117","Mozilla/5.0 (Linux; Android 10; HarmonyOS; KKG-AN00; HMSCore 6.7.0.322) AppleWebKit/537.36 (KHTML, like Gecko) Chrome/92.0.4515.105 HuaweiBrowser/12.1.3.312 Mobile Safari/537.36","WebKit","Chrome","92.0.4515.105","AndroidOS","10","null","<div style=""font-size:60px;"">+</div>","null",""
"","","","","","html-button-response","97","99786","0.0-4.0-1.46","89","1","2022-10-23 14:27:31","d60b49b5908c80e163b920d72b52d584","113.220.127.117","Mozilla/5.0 (Linux; Android 10; HarmonyOS; KKG-AN00; HMSCore 6.7.0.322) AppleWebKit/537.36 (KHTML, like Gecko) Chrome/92.0.4515.105 HuaweiBrowser/12.1.3.312 Mobile Safari/537.36","WebKit","Chrome","92.0.4515.105","AndroidOS","10","1241","<p>作为军队的指挥官，你可以选择发射导弹杀死 <strong>6名</strong> 敌国士兵，但会误杀附近的 <strong>1名</strong> 敌国平民。</p> <p>平民照片如下图所示。</p> <p></p> <img src='stimuli/faces/NCF5.jpg', style='max-width: 30%;'> </img> <p><strong>你是否选择发射武器？</strong></p>","0",""
"","","","","","html-keyboard-response","98","100796","0.0-4.0-0.47","89","1","2022-10-23 14:27:31","d60b49b5908c80e163b920d72b52d584","113.220.127.117","Mozilla/5.0 (Linux; Android 10; HarmonyOS; KKG-AN00; HMSCore 6.7.0.322) AppleWebKit/537.36 (KHTML, like Gecko) Chrome/92.0.4515.105 HuaweiBrowser/12.1.3.312 Mobile Safari/537.36","WebKit","Chrome","92.0.4515.105","AndroidOS","10","null","<div style=""font-size:60px;"">+</div>","null",""
"","","","","","html-button-response","99","101372","0.0-4.0-1.47","89","1","2022-10-23 14:27:31","d60b49b5908c80e163b920d72b52d584","113.220.127.117","Mozilla/5.0 (Linux; Android 10; HarmonyOS; KKG-AN00; HMSCore 6.7.0.322) AppleWebKit/537.36 (KHTML, like Gecko) Chrome/92.0.4515.105 HuaweiBrowser/12.1.3.312 Mobile Safari/537.36","WebKit","Chrome","92.0.4515.105","AndroidOS","10","538","<p>作为军队的指挥官，你可以选择发射导弹杀死 <strong>6名</strong> 敌国士兵，但会误杀附近的 <strong>1名</strong> 敌国平民。</p> <p>平民照片如下图所示。</p> <p></p> <img src='stimuli/faces/NCM4.jpg', style='max-width: 30%;'> </img> <p><strong>你是否选择发射武器？</strong></p>","0",""
"","","","","","html-keyboard-response","100","102380","0.0-4.0-0.48","89","1","2022-10-23 14:27:31","d60b49b5908c80e163b920d72b52d584","113.220.127.117","Mozilla/5.0 (Linux; Android 10; HarmonyOS; KKG-AN00; HMSCore 6.7.0.322) AppleWebKit/537.36 (KHTML, like Gecko) Chrome/92.0.4515.105 HuaweiBrowser/12.1.3.312 Mobile Safari/537.36","WebKit","Chrome","92.0.4515.105","AndroidOS","10","null","<div style=""font-size:60px;"">+</div>","null",""
"","","","","","html-button-response","101","103142","0.0-4.0-1.48","89","1","2022-10-23 14:27:31","d60b49b5908c80e163b920d72b52d584","113.220.127.117","Mozilla/5.0 (Linux; Android 10; HarmonyOS; KKG-AN00; HMSCore 6.7.0.322) AppleWebKit/537.36 (KHTML, like Gecko) Chrome/92.0.4515.105 HuaweiBrowser/12.1.3.312 Mobile Safari/537.36","WebKit","Chrome","92.0.4515.105","AndroidOS","10","749","<p>作为军队的指挥官，你可以选择发射导弹杀死 <strong>2名</strong> 敌国士兵，但会误杀附近的 <strong>1名</strong> 敌国平民。</p> <p>平民照片如下图所示。</p> <p></p> <img src='stimuli/faces/NCM5.jpg', style='max-width: 30%;'> </img> <p><strong>你是否选择发射武器？</strong></p>","0",""
"","","","","","html-keyboard-response","102","104151","0.0-4.0-0.49","89","1","2022-10-23 14:27:31","d60b49b5908c80e163b920d72b52d584","113.220.127.117","Mozilla/5.0 (Linux; Android 10; HarmonyOS; KKG-AN00; HMSCore 6.7.0.322) AppleWebKit/537.36 (KHTML, like Gecko) Chrome/92.0.4515.105 HuaweiBrowser/12.1.3.312 Mobile Safari/537.36","WebKit","Chrome","92.0.4515.105","AndroidOS","10","null","<div style=""font-size:60px;"">+</div>","null",""
"","","","","","html-button-response","103","104706","0.0-4.0-1.49","89","1","2022-10-23 14:27:31","d60b49b5908c80e163b920d72b52d584","113.220.127.117","Mozilla/5.0 (Linux; Android 10; HarmonyOS; KKG-AN00; HMSCore 6.7.0.322) AppleWebKit/537.36 (KHTML, like Gecko) Chrome/92.0.4515.105 HuaweiBrowser/12.1.3.312 Mobile Safari/537.36","WebKit","Chrome","92.0.4515.105","AndroidOS","10","540","<p>作为军队的指挥官，你可以选择发射导弹杀死 <strong>6名</strong> 敌国士兵，但会炸毁附近的 <strong>1棵</strong> 敌国树木。</p> <p>树木的照片如下图所示。</p> <p></p> <img src='stimuli/trees/12.png', style='max-width: 30%;'> </img> <p><strong>你是否选择发射武器？</strong></p>","0",""
"","","","","","html-keyboard-response","104","105720","0.0-4.0-0.50","89","1","2022-10-23 14:27:31","d60b49b5908c80e163b920d72b52d584","113.220.127.117","Mozilla/5.0 (Linux; Android 10; HarmonyOS; KKG-AN00; HMSCore 6.7.0.322) AppleWebKit/537.36 (KHTML, like Gecko) Chrome/92.0.4515.105 HuaweiBrowser/12.1.3.312 Mobile Safari/537.36","WebKit","Chrome","92.0.4515.105","AndroidOS","10","null","<div style=""font-size:60px;"">+</div>","null",""
"","","","","","html-button-response","105","106288","0.0-4.0-1.50","89","1","2022-10-23 14:27:31","d60b49b5908c80e163b920d72b52d584","113.220.127.117","Mozilla/5.0 (Linux; Android 10; HarmonyOS; KKG-AN00; HMSCore 6.7.0.322) AppleWebKit/537.36 (KHTML, like Gecko) Chrome/92.0.4515.105 HuaweiBrowser/12.1.3.312 Mobile Safari/537.36","WebKit","Chrome","92.0.4515.105","AndroidOS","10","540","<p>作为军队的指挥官，你可以选择发射导弹杀死 <strong>7名</strong> 敌国士兵，但会炸毁附近的 <strong>1棵</strong> 敌国树木。</p> <p>树木的照片如下图所示。</p> <p></p> <img src='stimuli/trees/9.png', style='max-width: 30%;'> </img> <p><strong>你是否选择发射武器？</strong></p>","0",""
"","","","","","html-keyboard-response","106","107298","0.0-4.0-0.51","89","1","2022-10-23 14:27:31","d60b49b5908c80e163b920d72b52d584","113.220.127.117","Mozilla/5.0 (Linux; Android 10; HarmonyOS; KKG-AN00; HMSCore 6.7.0.322) AppleWebKit/537.36 (KHTML, like Gecko) Chrome/92.0.4515.105 HuaweiBrowser/12.1.3.312 Mobile Safari/537.36","WebKit","Chrome","92.0.4515.105","AndroidOS","10","null","<div style=""font-size:60px;"">+</div>","null",""
"","","","","","html-button-response","107","107872","0.0-4.0-1.51","89","1","2022-10-23 14:27:31","d60b49b5908c80e163b920d72b52d584","113.220.127.117","Mozilla/5.0 (Linux; Android 10; HarmonyOS; KKG-AN00; HMSCore 6.7.0.322) AppleWebKit/537.36 (KHTML, like Gecko) Chrome/92.0.4515.105 HuaweiBrowser/12.1.3.312 Mobile Safari/537.36","WebKit","Chrome","92.0.4515.105","AndroidOS","10","535","<p>作为军队的指挥官，你可以选择发射导弹杀死 <strong>10名</strong> 敌国士兵，但会炸毁附近的 <strong>1棵</strong> 敌国树木。</p> <p>树木的照片如下图所示。</p> <p></p> <img src='stimuli/trees/2.png', style='max-width: 30%;'> </img> <p><strong>你是否选择发射武器？</strong></p>","0",""
"","","","","","html-keyboard-response","108","108881","0.0-4.0-0.52","89","1","2022-10-23 14:27:31","d60b49b5908c80e163b920d72b52d584","113.220.127.117","Mozilla/5.0 (Linux; Android 10; HarmonyOS; KKG-AN00; HMSCore 6.7.0.322) AppleWebKit/537.36 (KHTML, like Gecko) Chrome/92.0.4515.105 HuaweiBrowser/12.1.3.312 Mobile Safari/537.36","WebKit","Chrome","92.0.4515.105","AndroidOS","10","null","<div style=""font-size:60px;"">+</div>","null",""
"","","","","","html-button-response","109","109429","0.0-4.0-1.52","89","1","2022-10-23 14:27:31","d60b49b5908c80e163b920d72b52d584","113.220.127.117","Mozilla/5.0 (Linux; Android 10; HarmonyOS; KKG-AN00; HMSCore 6.7.0.322) AppleWebKit/537.36 (KHTML, like Gecko) Chrome/92.0.4515.105 HuaweiBrowser/12.1.3.312 Mobile Safari/537.36","WebKit","Chrome","92.0.4515.105","AndroidOS","10","526","<p>作为军队的指挥官，你可以选择发射导弹杀死 <strong>10名</strong> 敌国士兵，但会误杀附近的 <strong>1名</strong> 敌国平民。</p> <p>平民照片如下图所示。</p> <p></p> <img src='stimuli/faces/NCF1.jpg', style='max-width: 30%;'> </img> <p><strong>你是否选择发射武器？</strong></p>","0",""
"","","","","","html-keyboard-response","110","110436","0.0-4.0-0.53","89","1","2022-10-23 14:27:31","d60b49b5908c80e163b920d72b52d584","113.220.127.117","Mozilla/5.0 (Linux; Android 10; HarmonyOS; KKG-AN00; HMSCore 6.7.0.322) AppleWebKit/537.36 (KHTML, like Gecko) Chrome/92.0.4515.105 HuaweiBrowser/12.1.3.312 Mobile Safari/537.36","WebKit","Chrome","92.0.4515.105","AndroidOS","10","null","<div style=""font-size:60px;"">+</div>","null",""
"","","","","","html-button-response","111","111253","0.0-4.0-1.53","89","1","2022-10-23 14:27:31","d60b49b5908c80e163b920d72b52d584","113.220.127.117","Mozilla/5.0 (Linux; Android 10; HarmonyOS; KKG-AN00; HMSCore 6.7.0.322) AppleWebKit/537.36 (KHTML, like Gecko) Chrome/92.0.4515.105 HuaweiBrowser/12.1.3.312 Mobile Safari/537.36","WebKit","Chrome","92.0.4515.105","AndroidOS","10","788","<p>作为军队的指挥官，你可以选择发射导弹杀死 <strong>7名</strong> 敌国士兵，但会炸毁附近的 <strong>1棵</strong> 敌国树木。</p> <p>树木的照片如下图所示。</p> <p></p> <img src='stimuli/trees/3.png', style='max-width: 30%;'> </img> <p><strong>你是否选择发射武器？</strong></p>","0",""
"","","","","","html-keyboard-response","112","112264","0.0-4.0-0.54","89","1","2022-10-23 14:27:31","d60b49b5908c80e163b920d72b52d584","113.220.127.117","Mozilla/5.0 (Linux; Android 10; HarmonyOS; KKG-AN00; HMSCore 6.7.0.322) AppleWebKit/537.36 (KHTML, like Gecko) Chrome/92.0.4515.105 HuaweiBrowser/12.1.3.312 Mobile Safari/537.36","WebKit","Chrome","92.0.4515.105","AndroidOS","10","null","<div style=""font-size:60px;"">+</div>","null",""
"","","","","","html-button-response","113","112838","0.0-4.0-1.54","89","1","2022-10-23 14:27:31","d60b49b5908c80e163b920d72b52d584","113.220.127.117","Mozilla/5.0 (Linux; Android 10; HarmonyOS; KKG-AN00; HMSCore 6.7.0.322) AppleWebKit/537.36 (KHTML, like Gecko) Chrome/92.0.4515.105 HuaweiBrowser/12.1.3.312 Mobile Safari/537.36","WebKit","Chrome","92.0.4515.105","AndroidOS","10","557","<p>作为军队的指挥官，你可以选择发射导弹杀死 <strong>7名</strong> 敌国士兵，但会炸毁附近的 <strong>1棵</strong> 敌国树木。</p> <p>树木的照片如下图所示。</p> <p></p> <img src='stimuli/trees/8.png', style='max-width: 30%;'> </img> <p><strong>你是否选择发射武器？</strong></p>","0",""
"","","","","","html-keyboard-response","114","113846","0.0-4.0-0.55","89","1","2022-10-23 14:27:31","d60b49b5908c80e163b920d72b52d584","113.220.127.117","Mozilla/5.0 (Linux; Android 10; HarmonyOS; KKG-AN00; HMSCore 6.7.0.322) AppleWebKit/537.36 (KHTML, like Gecko) Chrome/92.0.4515.105 HuaweiBrowser/12.1.3.312 Mobile Safari/537.36","WebKit","Chrome","92.0.4515.105","AndroidOS","10","null","<div style=""font-size:60px;"">+</div>","null",""
"","","","","","html-button-response","115","114383","0.0-4.0-1.55","89","1","2022-10-23 14:27:31","d60b49b5908c80e163b920d72b52d584","113.220.127.117","Mozilla/5.0 (Linux; Android 10; HarmonyOS; KKG-AN00; HMSCore 6.7.0.322) AppleWebKit/537.36 (KHTML, like Gecko) Chrome/92.0.4515.105 HuaweiBrowser/12.1.3.312 Mobile Safari/537.36","WebKit","Chrome","92.0.4515.105","AndroidOS","10","517","<p>作为军队的指挥官，你可以选择发射导弹杀死 <strong>5名</strong> 敌国士兵，但会炸毁附近的 <strong>1棵</strong> 敌国树木。</p> <p>树木的照片如下图所示。</p> <p></p> <img src='stimuli/trees/1.png', style='max-width: 30%;'> </img> <p><strong>你是否选择发射武器？</strong></p>","0",""
"","","","","","html-keyboard-response","116","115393","0.0-4.0-0.56","89","1","2022-10-23 14:27:31","d60b49b5908c80e163b920d72b52d584","113.220.127.117","Mozilla/5.0 (Linux; Android 10; HarmonyOS; KKG-AN00; HMSCore 6.7.0.322) AppleWebKit/537.36 (KHTML, like Gecko) Chrome/92.0.4515.105 HuaweiBrowser/12.1.3.312 Mobile Safari/537.36","WebKit","Chrome","92.0.4515.105","AndroidOS","10","null","<div style=""font-size:60px;"">+</div>","null",""
"","","","","","html-button-response","117","116242","0.0-4.0-1.56","89","1","2022-10-23 14:27:31","d60b49b5908c80e163b920d72b52d584","113.220.127.117","Mozilla/5.0 (Linux; Android 10; HarmonyOS; KKG-AN00; HMSCore 6.7.0.322) AppleWebKit/537.36 (KHTML, like Gecko) Chrome/92.0.4515.105 HuaweiBrowser/12.1.3.312 Mobile Safari/537.36","WebKit","Chrome","92.0.4515.105","AndroidOS","10","833","<p>作为军队的指挥官，你可以选择发射导弹杀死 <strong>6名</strong> 敌国士兵，但会炸毁附近的 <strong>1棵</strong> 敌国树木。</p> <p>树木的照片如下图所示。</p> <p></p> <img src='stimuli/trees/10.png', style='max-width: 30%;'> </img> <p><strong>你是否选择发射武器？</strong></p>","0",""
"","","","","","html-keyboard-response","118","117251","0.0-4.0-0.57","89","1","2022-10-23 14:27:31","d60b49b5908c80e163b920d72b52d584","113.220.127.117","Mozilla/5.0 (Linux; Android 10; HarmonyOS; KKG-AN00; HMSCore 6.7.0.322) AppleWebKit/537.36 (KHTML, like Gecko) Chrome/92.0.4515.105 HuaweiBrowser/12.1.3.312 Mobile Safari/537.36","WebKit","Chrome","92.0.4515.105","AndroidOS","10","null","<div style=""font-size:60px;"">+</div>","null",""
"","","","","","html-button-response","119","117888","0.0-4.0-1.57","89","1","2022-10-23 14:27:31","d60b49b5908c80e163b920d72b52d584","113.220.127.117","Mozilla/5.0 (Linux; Android 10; HarmonyOS; KKG-AN00; HMSCore 6.7.0.322) AppleWebKit/537.36 (KHTML, like Gecko) Chrome/92.0.4515.105 HuaweiBrowser/12.1.3.312 Mobile Safari/537.36","WebKit","Chrome","92.0.4515.105","AndroidOS","10","610","<p>作为军队的指挥官，你可以选择发射导弹杀死 <strong>2名</strong> 敌国士兵，但会误杀附近的 <strong>1名</strong> 敌国平民。</p> <p>平民照片如下图所示。</p> <p></p> <img src='stimuli/faces/NCF1.jpg', style='max-width: 30%;'> </img> <p><strong>你是否选择发射武器？</strong></p>","0",""
"","","","","","html-keyboard-response","120","118898","0.0-4.0-0.58","89","1","2022-10-23 14:27:31","d60b49b5908c80e163b920d72b52d584","113.220.127.117","Mozilla/5.0 (Linux; Android 10; HarmonyOS; KKG-AN00; HMSCore 6.7.0.322) AppleWebKit/537.36 (KHTML, like Gecko) Chrome/92.0.4515.105 HuaweiBrowser/12.1.3.312 Mobile Safari/537.36","WebKit","Chrome","92.0.4515.105","AndroidOS","10","null","<div style=""font-size:60px;"">+</div>","null",""
"","","","","","html-button-response","121","119507","0.0-4.0-1.58","89","1","2022-10-23 14:27:31","d60b49b5908c80e163b920d72b52d584","113.220.127.117","Mozilla/5.0 (Linux; Android 10; HarmonyOS; KKG-AN00; HMSCore 6.7.0.322) AppleWebKit/537.36 (KHTML, like Gecko) Chrome/92.0.4515.105 HuaweiBrowser/12.1.3.312 Mobile Safari/537.36","WebKit","Chrome","92.0.4515.105","AndroidOS","10","594","<p>作为军队的指挥官，你可以选择发射导弹杀死 <strong>7名</strong> 敌国士兵，但会误杀附近的 <strong>1名</strong> 敌国平民。</p> <p>平民照片如下图所示。</p> <p></p> <img src='stimuli/faces/NCF3.jpg', style='max-width: 30%;'> </img> <p><strong>你是否选择发射武器？</strong></p>","0",""
"","","","","","html-keyboard-response","122","120516","0.0-4.0-0.59","89","1","2022-10-23 14:27:31","d60b49b5908c80e163b920d72b52d584","113.220.127.117","Mozilla/5.0 (Linux; Android 10; HarmonyOS; KKG-AN00; HMSCore 6.7.0.322) AppleWebKit/537.36 (KHTML, like Gecko) Chrome/92.0.4515.105 HuaweiBrowser/12.1.3.312 Mobile Safari/537.36","WebKit","Chrome","92.0.4515.105","AndroidOS","10","null","<div style=""font-size:60px;"">+</div>","null",""
"","","","","","html-button-response","123","121133","0.0-4.0-1.59","89","1","2022-10-23 14:27:31","d60b49b5908c80e163b920d72b52d584","113.220.127.117","Mozilla/5.0 (Linux; Android 10; HarmonyOS; KKG-AN00; HMSCore 6.7.0.322) AppleWebKit/537.36 (KHTML, like Gecko) Chrome/92.0.4515.105 HuaweiBrowser/12.1.3.312 Mobile Safari/537.36","WebKit","Chrome","92.0.4515.105","AndroidOS","10","599","<p>作为军队的指挥官，你可以选择发射导弹杀死 <strong>1名</strong> 敌国士兵，但会炸毁附近的 <strong>1棵</strong> 敌国树木。</p> <p>树木的照片如下图所示。</p> <p></p> <img src='stimuli/trees/5.png', style='max-width: 30%;'> </img> <p><strong>你是否选择发射武器？</strong></p>","0",""
"","","","","","html-keyboard-response","124","122160","0.0-4.0-0.60","89","1","2022-10-23 14:27:31","d60b49b5908c80e163b920d72b52d584","113.220.127.117","Mozilla/5.0 (Linux; Android 10; HarmonyOS; KKG-AN00; HMSCore 6.7.0.322) AppleWebKit/537.36 (KHTML, like Gecko) Chrome/92.0.4515.105 HuaweiBrowser/12.1.3.312 Mobile Safari/537.36","WebKit","Chrome","92.0.4515.105","AndroidOS","10","null","<div style=""font-size:60px;"">+</div>","null",""
"","","","","","html-button-response","125","122739","0.0-4.0-1.60","89","1","2022-10-23 14:27:31","d60b49b5908c80e163b920d72b52d584","113.220.127.117","Mozilla/5.0 (Linux; Android 10; HarmonyOS; KKG-AN00; HMSCore 6.7.0.322) AppleWebKit/537.36 (KHTML, like Gecko) Chrome/92.0.4515.105 HuaweiBrowser/12.1.3.312 Mobile Safari/537.36","WebKit","Chrome","92.0.4515.105","AndroidOS","10","537","<p>作为军队的指挥官，你可以选择发射导弹杀死 <strong>4名</strong> 敌国士兵，但会炸毁附近的 <strong>1棵</strong> 敌国树木。</p> <p>树木的照片如下图所示。</p> <p></p> <img src='stimuli/trees/16.png', style='max-width: 30%;'> </img> <p><strong>你是否选择发射武器？</strong></p>","0",""
"","","","","","html-keyboard-response","126","123748","0.0-4.0-0.61","89","1","2022-10-23 14:27:31","d60b49b5908c80e163b920d72b52d584","113.220.127.117","Mozilla/5.0 (Linux; Android 10; HarmonyOS; KKG-AN00; HMSCore 6.7.0.322) AppleWebKit/537.36 (KHTML, like Gecko) Chrome/92.0.4515.105 HuaweiBrowser/12.1.3.312 Mobile Safari/537.36","WebKit","Chrome","92.0.4515.105","AndroidOS","10","null","<div style=""font-size:60px;"">+</div>","null",""
"","","","","","html-button-response","127","124308","0.0-4.0-1.61","89","1","2022-10-23 14:27:31","d60b49b5908c80e163b920d72b52d584","113.220.127.117","Mozilla/5.0 (Linux; Android 10; HarmonyOS; KKG-AN00; HMSCore 6.7.0.322) AppleWebKit/537.36 (KHTML, like Gecko) Chrome/92.0.4515.105 HuaweiBrowser/12.1.3.312 Mobile Safari/537.36","WebKit","Chrome","92.0.4515.105","AndroidOS","10","536","<p>作为军队的指挥官，你可以选择发射导弹杀死 <strong>4名</strong> 敌国士兵，但会炸毁附近的 <strong>1棵</strong> 敌国树木。</p> <p>树木的照片如下图所示。</p> <p></p> <img src='stimuli/trees/6.png', style='max-width: 30%;'> </img> <p><strong>你是否选择发射武器？</strong></p>","0",""
"","","","","","html-keyboard-response","128","125317","0.0-4.0-0.62","89","1","2022-10-23 14:27:31","d60b49b5908c80e163b920d72b52d584","113.220.127.117","Mozilla/5.0 (Linux; Android 10; HarmonyOS; KKG-AN00; HMSCore 6.7.0.322) AppleWebKit/537.36 (KHTML, like Gecko) Chrome/92.0.4515.105 HuaweiBrowser/12.1.3.312 Mobile Safari/537.36","WebKit","Chrome","92.0.4515.105","AndroidOS","10","null","<div style=""font-size:60px;"">+</div>","null",""
"","","","","","html-button-response","129","125849","0.0-4.0-1.62","89","1","2022-10-23 14:27:31","d60b49b5908c80e163b920d72b52d584","113.220.127.117","Mozilla/5.0 (Linux; Android 10; HarmonyOS; KKG-AN00; HMSCore 6.7.0.322) AppleWebKit/537.36 (KHTML, like Gecko) Chrome/92.0.4515.105 HuaweiBrowser/12.1.3.312 Mobile Safari/537.36","WebKit","Chrome","92.0.4515.105","AndroidOS","10","524","<p>作为军队的指挥官，你可以选择发射导弹杀死 <strong>4名</strong> 敌国士兵，但会炸毁附近的 <strong>1棵</strong> 敌国树木。</p> <p>树木的照片如下图所示。</p> <p></p> <img src='stimuli/trees/9.png', style='max-width: 30%;'> </img> <p><strong>你是否选择发射武器？</strong></p>","0",""
"","","","","","html-keyboard-response","130","126855","0.0-4.0-0.63","89","1","2022-10-23 14:27:31","d60b49b5908c80e163b920d72b52d584","113.220.127.117","Mozilla/5.0 (Linux; Android 10; HarmonyOS; KKG-AN00; HMSCore 6.7.0.322) AppleWebKit/537.36 (KHTML, like Gecko) Chrome/92.0.4515.105 HuaweiBrowser/12.1.3.312 Mobile Safari/537.36","WebKit","Chrome","92.0.4515.105","AndroidOS","10","null","<div style=""font-size:60px;"">+</div>","null",""
"","","","","","html-button-response","131","129512","0.0-4.0-1.63","89","1","2022-10-23 14:27:31","d60b49b5908c80e163b920d72b52d584","113.220.127.117","Mozilla/5.0 (Linux; Android 10; HarmonyOS; KKG-AN00; HMSCore 6.7.0.322) AppleWebKit/537.36 (KHTML, like Gecko) Chrome/92.0.4515.105 HuaweiBrowser/12.1.3.312 Mobile Safari/537.36","WebKit","Chrome","92.0.4515.105","AndroidOS","10","2643","<p>作为军队的指挥官，你可以选择发射导弹杀死 <strong>5名</strong> 敌国士兵，但会炸毁附近的 <strong>1棵</strong> 敌国树木。</p> <p>树木的照片如下图所示。</p> <p></p> <img src='stimuli/trees/14.png', style='max-width: 30%;'> </img> <p><strong>你是否选择发射武器？</strong></p>","0",""
"","","","","","survey-multi-choice","132","137778","0.0-5.0","89","1","2022-10-23 14:27:31","d60b49b5908c80e163b920d72b52d584","113.220.127.117","Mozilla/5.0 (Linux; Android 10; HarmonyOS; KKG-AN00; HMSCore 6.7.0.322) AppleWebKit/537.36 (KHTML, like Gecko) Chrome/92.0.4515.105 HuaweiBrowser/12.1.3.312 Mobile Safari/537.36","WebKit","Chrome","92.0.4515.105","AndroidOS","10","8247","","{""Attention1"":""""}","[0]"
"","","","","","html-button-response","133","139074","0.0-6.0","89","1","2022-10-23 14:27:31","d60b49b5908c80e163b920d72b52d584","113.220.127.117","Mozilla/5.0 (Linux; Android 10; HarmonyOS; KKG-AN00; HMSCore 6.7.0.322) AppleWebKit/537.36 (KHTML, like Gecko) Chrome/92.0.4515.105 HuaweiBrowser/12.1.3.312 Mobile Safari/537.36","WebKit","Chrome","92.0.4515.105","AndroidOS","10","1270","<p style=""font-size:20px;font-weight:bold;"">恭喜！</p><p>你已经完成了实验的第一部分。</p><p>请休息放松一下，然后进入第二部分。</p><p>这部分大约需要10分钟。</p>","0",""
"","","","","","survey-text","134","180142","0.0-7.0","89","1","2022-10-23 14:27:31","d60b49b5908c80e163b920d72b52d584","113.220.127.117","Mozilla/5.0 (Linux; Android 10; HarmonyOS; KKG-AN00; HMSCore 6.7.0.322) AppleWebKit/537.36 (KHTML, like Gecko) Chrome/92.0.4515.105 HuaweiBrowser/12.1.3.312 Mobile Safari/537.36","WebKit","Chrome","92.0.4515.105","AndroidOS","10","40026","","{""Age"":""28"",""Nation"":""中国"",""Born"":""广东"",""Live"":""深圳"",""Ethnic"":""汉"",""Alipay"":""17762508015""}",""
"","","","","","survey-multi-choice","135","192929","0.0-8.0","89","1","2022-10-23 14:27:31","d60b49b5908c80e163b920d72b52d584","113.220.127.117","Mozilla/5.0 (Linux; Android 10; HarmonyOS; KKG-AN00; HMSCore 6.7.0.322) AppleWebKit/537.36 (KHTML, like Gecko) Chrome/92.0.4515.105 HuaweiBrowser/12.1.3.312 Mobile Safari/537.36","WebKit","Chrome","92.0.4515.105","AndroidOS","10","12775","","{""Gender"":""女"",""Education"":""本科毕业"",""Income"":""￥490,000-￥699,999"",""Children"":""1"",""Race"":""亚洲人""}","[0,1,2,3,4]"
"","","","","","survey-multi-select","136","197438","0.0-9.0","89","1","2022-10-23 14:27:31","d60b49b5908c80e163b920d72b52d584","113.220.127.117","Mozilla/5.0 (Linux; Android 10; HarmonyOS; KKG-AN00; HMSCore 6.7.0.322) AppleWebKit/537.36 (KHTML, like Gecko) Chrome/92.0.4515.105 HuaweiBrowser/12.1.3.312 Mobile Safari/537.36","WebKit","Chrome","92.0.4515.105","AndroidOS","10","4469","","{""Marriage"":[""已婚""],""Religion"":[""印度教""]}","[0,1]"
"","","","","","survey-multi-choice","137","201085","0.0-10.0","89","1","2022-10-23 14:27:31","d60b49b5908c80e163b920d72b52d584","113.220.127.117","Mozilla/5.0 (Linux; Android 10; HarmonyOS; KKG-AN00; HMSCore 6.7.0.322) AppleWebKit/537.36 (KHTML, like Gecko) Chrome/92.0.4515.105 HuaweiBrowser/12.1.3.312 Mobile Safari/537.36","WebKit","Chrome","92.0.4515.105","AndroidOS","10","3619","","{""SES"":""7""}","[0]"
"","","","","","html-button-response","138","202115","0.0-11.0","89","1","2022-10-23 14:27:31","d60b49b5908c80e163b920d72b52d584","113.220.127.117","Mozilla/5.0 (Linux; Android 10; HarmonyOS; KKG-AN00; HMSCore 6.7.0.322) AppleWebKit/537.36 (KHTML, like Gecko) Chrome/92.0.4515.105 HuaweiBrowser/12.1.3.312 Mobile Safari/537.36","WebKit","Chrome","92.0.4515.105","AndroidOS","10","1006","<p><strong>请判断下列陈述在多大程度上可以形容你？</p><p> (1 = ""和我一点都不像"" to 5 = ""非常像我"".)</strong></p>","0",""
"","","","","","survey-likert","139","214121","0.0-12.0","89","1","2022-10-23 14:27:31","d60b49b5908c80e163b920d72b52d584","113.220.127.117","Mozilla/5.0 (Linux; Android 10; HarmonyOS; KKG-AN00; HMSCore 6.7.0.322) AppleWebKit/537.36 (KHTML, like Gecko) Chrome/92.0.4515.105 HuaweiBrowser/12.1.3.312 Mobile Safari/537.36","WebKit","Chrome","92.0.4515.105","AndroidOS","10","11979","","{""Aggression1"":4,""Aggression2"":4,""Aggression3"":3,""Aggression4"":4,""Aggression5"":3,""Aggression6"":4,""Aggression7"":3,""Aggression8"":4,""Aggression9"":3}","[0,1,2,3,4,5,6,7,8]"
"","","","","","html-button-response","140","215547","0.0-13.0","89","1","2022-10-23 14:27:31","d60b49b5908c80e163b920d72b52d584","113.220.127.117","Mozilla/5.0 (Linux; Android 10; HarmonyOS; KKG-AN00; HMSCore 6.7.0.322) AppleWebKit/537.36 (KHTML, like Gecko) Chrome/92.0.4515.105 HuaweiBrowser/12.1.3.312 Mobile Safari/537.36","WebKit","Chrome","92.0.4515.105","AndroidOS","10","1408","<p><strong>请判断你在多大程度上同意下列陈述。</strong></p>","0",""
"","","","","","survey-likert","141","240983","0.0-14.0","89","1","2022-10-23 14:27:31","d60b49b5908c80e163b920d72b52d584","113.220.127.117","Mozilla/5.0 (Linux; Android 10; HarmonyOS; KKG-AN00; HMSCore 6.7.0.322) AppleWebKit/537.36 (KHTML, like Gecko) Chrome/92.0.4515.105 HuaweiBrowser/12.1.3.312 Mobile Safari/537.36","WebKit","Chrome","92.0.4515.105","AndroidOS","10","25394","","{""scale5"":3,""scale12"":4,""scale18"":3,""scale28"":4,""scale24"":3,""scale3"":4,""scale14"":3,""scale13"":4,""scale2"":3,""scale22"":4,""scale16"":3,""scale8"":3,""scale10"":3,""scale17"":4,""scale7"":3,""scale20"":3,""scale19"":3,""scale25"":4,""scale21"":3,""scale1"":3,""scale6"":3,""scale23"":3,""scale27"":3,""scale4"":4,""scale11"":3,""scale15"":4,""scale26"":3,""scale9"":3}","[4,11,17,27,23,2,13,12,1,21,15,7,9,16,6,19,18,24,20,0,5,22,26,3,10,14,25,8]"
"","","","","","html-button-response","142","242062","0.0-15.0","89","1","2022-10-23 14:27:31","d60b49b5908c80e163b920d72b52d584","113.220.127.117","Mozilla/5.0 (Linux; Android 10; HarmonyOS; KKG-AN00; HMSCore 6.7.0.322) AppleWebKit/537.36 (KHTML, like Gecko) Chrome/92.0.4515.105 HuaweiBrowser/12.1.3.312 Mobile Safari/537.36","WebKit","Chrome","92.0.4515.105","AndroidOS","10","1041","<p><strong>请判断你在多大程度上同意下列陈述。</strong></p>","0",""
"","","","","","survey-likert","143","258642","0.0-16.0","89","1","2022-10-23 14:27:31","d60b49b5908c80e163b920d72b52d584","113.220.127.117","Mozilla/5.0 (Linux; Android 10; HarmonyOS; KKG-AN00; HMSCore 6.7.0.322) AppleWebKit/537.36 (KHTML, like Gecko) Chrome/92.0.4515.105 HuaweiBrowser/12.1.3.312 Mobile Safari/537.36","WebKit","Chrome","92.0.4515.105","AndroidOS","10","16547","","{""sdo7"":5,""sdo15"":5,""sdo13"":4,""sdo5"":5,""sdo1"":5,""sdo11"":4,""sdo12"":5,""sdo9"":4,""sdo2"":5,""sdo4"":4,""sdo6"":5,""sdo14"":4,""sdo10"":5,""sdo16"":4,""sdo8"":5,""sdo3"":5}","[6,14,12,4,0,10,11,8,1,3,5,13,9,15,7,2]"
"","","","","","html-button-response","144","259662","0.0-17.0","89","1","2022-10-23 14:27:31","d60b49b5908c80e163b920d72b52d584","113.220.127.117","Mozilla/5.0 (Linux; Android 10; HarmonyOS; KKG-AN00; HMSCore 6.7.0.322) AppleWebKit/537.36 (KHTML, like Gecko) Chrome/92.0.4515.105 HuaweiBrowser/12.1.3.312 Mobile Safari/537.36","WebKit","Chrome","92.0.4515.105","AndroidOS","10","999","<p><strong>请判断你在多大程度上同意下列陈述。</strong></p>","0",""
"","","","","","survey-likert","145","276121","0.0-18.0","89","1","2022-10-23 14:27:31","d60b49b5908c80e163b920d72b52d584","113.220.127.117","Mozilla/5.0 (Linux; Android 10; HarmonyOS; KKG-AN00; HMSCore 6.7.0.322) AppleWebKit/537.36 (KHTML, like Gecko) Chrome/92.0.4515.105 HuaweiBrowser/12.1.3.312 Mobile Safari/537.36","WebKit","Chrome","92.0.4515.105","AndroidOS","10","16424","","{""caring1"":3,""liking1"":3,""caring2"":4,""protection1"":3,""liking2"":3,""caring3"":3,""protection2"":4,""liking3"":3,""protection3"":3,""caring4"":4,""liking4"":3,""protection4"":4,""caring5"":3,""liking5"":3,""protection5"":3}","[0,1,2,3,4,5,6,7,8,9,10,11,12,13,14]"
"","","","","","html-button-response","146","277065","0.0-19.0","89","1","2022-10-23 14:27:31","d60b49b5908c80e163b920d72b52d584","113.220.127.117","Mozilla/5.0 (Linux; Android 10; HarmonyOS; KKG-AN00; HMSCore 6.7.0.322) AppleWebKit/537.36 (KHTML, like Gecko) Chrome/92.0.4515.105 HuaweiBrowser/12.1.3.312 Mobile Safari/537.36","WebKit","Chrome","92.0.4515.105","AndroidOS","10","915","<p><strong>请判断下列场景中你的内心感受有多柔软。</strong></p>","0",""
"","","","","","survey-likert","147","286952","0.0-20.0","89","1","2022-10-23 14:27:31","d60b49b5908c80e163b920d72b52d584","113.220.127.117","Mozilla/5.0 (Linux; Android 10; HarmonyOS; KKG-AN00; HMSCore 6.7.0.322) AppleWebKit/537.36 (KHTML, like Gecko) Chrome/92.0.4515.105 HuaweiBrowser/12.1.3.312 Mobile Safari/537.36","WebKit","Chrome","92.0.4515.105","AndroidOS","10","9861","","{""tenderness-positive1"":3,""tenderness-negative1"":2,""tenderness-negative2"":3,""tenderness-positive2"":3,""tenderness-positive3"":2,""tenderness-negative3"":2,""tenderness-positive4"":3,""tendereness-negative4"":2,""tendernness-negative5"":3,""tenderness-positive5"":2}","[0,1,2,3,4,5,6,7,8,9]"
"","","","","","survey-multi-choice","148","291684","0.0-21.0","89","1","2022-10-23 14:27:31","d60b49b5908c80e163b920d72b52d584","113.220.127.117","Mozilla/5.0 (Linux; Android 10; HarmonyOS; KKG-AN00; HMSCore 6.7.0.322) AppleWebKit/537.36 (KHTML, like Gecko) Chrome/92.0.4515.105 HuaweiBrowser/12.1.3.312 Mobile Safari/537.36","WebKit","Chrome","92.0.4515.105","AndroidOS","10","4695","","{""Attention2"":""其他""}","[0]"
"","","","","","html-button-response","149","292572","0.0-22.0","89","1","2022-10-23 14:27:31","d60b49b5908c80e163b920d72b52d584","113.220.127.117","Mozilla/5.0 (Linux; Android 10; HarmonyOS; KKG-AN00; HMSCore 6.7.0.322) AppleWebKit/537.36 (KHTML, like Gecko) Chrome/92.0.4515.105 HuaweiBrowser/12.1.3.312 Mobile Safari/537.36","WebKit","Chrome","92.0.4515.105","AndroidOS","10","849","<p><strong>请判断你在多大程度上同意下列陈述。</strong></p>","0",""
"","","","","","survey-likert","150","312119","0.0-23.0","89","1","2022-10-23 14:27:31","d60b49b5908c80e163b920d72b52d584","113.220.127.117","Mozilla/5.0 (Linux; Android 10; HarmonyOS; KKG-AN00; HMSCore 6.7.0.322) AppleWebKit/537.36 (KHTML, like Gecko) Chrome/92.0.4515.105 HuaweiBrowser/12.1.3.312 Mobile Safari/537.36","WebKit","Chrome","92.0.4515.105","AndroidOS","10","19511","","{""Patri11"":3,""Patri9"":4,""Nation2"":3,""Patri2"":3,""Patri8"":2,""Patri4"":3,""Patri5"":4,""Nation4"":3,""Patri3"":3,""Patri6"":3,""Nation3"":3,""Patri1"":2,""Patri7"":3,""Nation6"":4,""Nation5"":3,""Patri12"":4,""Nation8"":3,""Patri10"":3,""Nation7"":3,""Nation1"":3}","[10,8,13,1,7,3,4,15,2,5,14,0,6,17,16,11,19,9,18,12]"
"","","","","","html-button-response","151","313079","0.0-24.0","89","1","2022-10-23 14:27:31","d60b49b5908c80e163b920d72b52d584","113.220.127.117","Mozilla/5.0 (Linux; Android 10; HarmonyOS; KKG-AN00; HMSCore 6.7.0.322) AppleWebKit/537.36 (KHTML, like Gecko) Chrome/92.0.4515.105 HuaweiBrowser/12.1.3.312 Mobile Safari/537.36","WebKit","Chrome","92.0.4515.105","AndroidOS","10","930","<p><strong>请判断你在多大程度上同意下列陈述。</strong></p>","0",""
"","","","","","survey-likert","152","333484","0.0-25.0","89","1","2022-10-23 14:27:31","d60b49b5908c80e163b920d72b52d584","113.220.127.117","Mozilla/5.0 (Linux; Android 10; HarmonyOS; KKG-AN00; HMSCore 6.7.0.322) AppleWebKit/537.36 (KHTML, like Gecko) Chrome/92.0.4515.105 HuaweiBrowser/12.1.3.312 Mobile Safari/537.36","WebKit","Chrome","92.0.4515.105","AndroidOS","10","20359","","{""hc2"":6,""hc3"":4,""vi4"":4,""vc2"":3,""hc4"":5,""hi1"":5,""vc3"":5,""vc4"":7,""hi3"":5,""vi1"":5,""hi4"":4,""vi3"":6,""Robot"":6,""hi2"":5,""vc1"":5,""hc1"":6,""vi2"":6}","[10,11,8,14,12,0,15,16,2,4,3,6,7,1,13,9,5]"
"","","","","","survey-text","153","336004","0.0-26.0","89","1","2022-10-23 14:27:31","d60b49b5908c80e163b920d72b52d584","113.220.127.117","Mozilla/5.0 (Linux; Android 10; HarmonyOS; KKG-AN00; HMSCore 6.7.0.322) AppleWebKit/537.36 (KHTML, like Gecko) Chrome/92.0.4515.105 HuaweiBrowser/12.1.3.312 Mobile Safari/537.36","WebKit","Chrome","92.0.4515.105","AndroidOS","10","2488","","{""Comments"":""""}",""
"","","","","","html-button-response","154","337361","0.0-27.0","89","1","2022-10-23 14:27:31","d60b49b5908c80e163b920d72b52d584","113.220.127.117","Mozilla/5.0 (Linux; Android 10; HarmonyOS; KKG-AN00; HMSCore 6.7.0.322) AppleWebKit/537.36 (KHTML, like Gecko) Chrome/92.0.4515.105 HuaweiBrowser/12.1.3.312 Mobile Safari/537.36","WebKit","Chrome","92.0.4515.105","AndroidOS","10","1344","<strong><p>恭喜你完成了实验！</p><p>感谢您的参与。</p></strong>","0",""
