"success","timeout","failed_images","failed_audio","failed_video","trial_type","trial_index","time_elapsed","internal_node_id","run_id","condition","recorded_at","source_code_version","ip","user_agent","device","browser","browser_version","platform","platform_version","rt","stimulus","response","question_order"
"true","false","[]","[]","[]","preload","0","2136","0.0-0.0","92","1","2022-10-23 14:37:48","d60b49b5908c80e163b920d72b52d584","113.220.127.117","Mozilla/5.0 (Linux; Android 10; HarmonyOS; KKG-AN00; HMSCore 6.7.0.322) AppleWebKit/537.36 (KHTML, like Gecko) Chrome/92.0.4515.105 HuaweiBrowser/12.1.3.312 Mobile Safari/537.36","WebKit","Chrome","92.0.4515.105","AndroidOS","10","","","",""
"true","","","","","fullscreen","1","4281","0.0-1.0","92","1","2022-10-23 14:37:48","d60b49b5908c80e163b920d72b52d584","113.220.127.117","Mozilla/5.0 (Linux; Android 10; HarmonyOS; KKG-AN00; HMSCore 6.7.0.322) AppleWebKit/537.36 (KHTML, like Gecko) Chrome/92.0.4515.105 HuaweiBrowser/12.1.3.312 Mobile Safari/537.36","WebKit","Chrome","92.0.4515.105","AndroidOS","10","","","",""
"","","","","","html-button-response","2","23236","0.0-2.0","92","1","2022-10-23 14:37:48","d60b49b5908c80e163b920d72b52d584","113.220.127.117","Mozilla/5.0 (Linux; Android 10; HarmonyOS; KKG-AN00; HMSCore 6.7.0.322) AppleWebKit/537.36 (KHTML, like Gecko) Chrome/92.0.4515.105 HuaweiBrowser/12.1.3.312 Mobile Safari/537.36","WebKit","Chrome","92.0.4515.105","AndroidOS","10","18947","<p style=""font-size:20px;font-weight:bold;"">实验知情同意书</p><p style=""text-align:left;""><strong>实验名称：</strong>社会冲突研究</p><p style=""text-align:left;""><strong>主要研究者：</strong>韩晓春副教授（北京师范大学心理学部）</p><p style=""text-align:left;""><strong>联系方式：</strong>发送邮件至xiaochun.han@bnu.edu.cn</p><p style=""text-align:left;""><strong>研究目的：</strong>研究旨在了解人类面对群体冲突时的决策方式，以及相关的心理学特质。实验调查大约需要20分钟。</p><p style=""text-align:left;""><strong>实验流程：</strong>实验包含两部分。第一部分呈现一系列群体冲突场景，请你决定如何对这些冲突进行反应，大约需要10分钟完成。第二部分包含一系列人口统计学信息收集和心理学问卷，大约需要10分钟完成。</p><p style=""text-align:left;""><strong>参加及退出规则：</strong>参加本实验完全取决于您的个人意愿。在参与过程中，您可以随时退出，并且不用承担任何后果。</p><p style=""text-align:left;""><strong>隐私：</strong>本实验完全匿名进行，不会收集您的姓名或其他能够识别您身份的信息。实验中收集的作答仅用作科学研究使用，可能会在学术期刊/书籍上发表，或者用于教学，您的数据未来可能会和其他研究者或实验室分享，但您的个人身份不会被识别。</p><p style=""text-align:left;""><strong>实验报酬：</strong>实验完成后，您将获得15元人民币报酬，以感谢您的时间和努力。调查问卷中包含几道题目用以测验您作答时的认真度。只有完成全部实验，并且正确回答认真度测验的被试才能获得实验报酬。实验报酬将通过支付宝转账发放。</p><p style=""text-align:left;font-size:20px;""><strong>如果您同意以上实验知情同意书的内容，请点击'同意并且开始实验'按钮；否则请关闭浏览器界面，退出实验。</strong></p>","0",""
"","","","","","html-button-response","3","24738","0.0-3.0","92","1","2022-10-23 14:37:48","d60b49b5908c80e163b920d72b52d584","113.220.127.117","Mozilla/5.0 (Linux; Android 10; HarmonyOS; KKG-AN00; HMSCore 6.7.0.322) AppleWebKit/537.36 (KHTML, like Gecko) Chrome/92.0.4515.105 HuaweiBrowser/12.1.3.312 Mobile Safari/537.36","WebKit","Chrome","92.0.4515.105","AndroidOS","10","1495","<p ><strong>实验任务一：</strong></p><p>请想象你的国家与另一个国家发生了军事冲突。</p><p>你是国家军队的指挥官，你将如何在冲突中进行决策。</p><p>具体来说，作为军队指挥官，请你决定是否发射导弹进行打击。</p><p>接下来，你会面对一系列场景，请仔细阅读每个场景，然后进行决策。</p><p>这部分实验任务大约需要10分钟。</p><p><strong>实验过程中，请集中注意力。</strong></p>","0",""
"","","","","","html-keyboard-response","4","25744","0.0-4.0-0.0","92","1","2022-10-23 14:37:48","d60b49b5908c80e163b920d72b52d584","113.220.127.117","Mozilla/5.0 (Linux; Android 10; HarmonyOS; KKG-AN00; HMSCore 6.7.0.322) AppleWebKit/537.36 (KHTML, like Gecko) Chrome/92.0.4515.105 HuaweiBrowser/12.1.3.312 Mobile Safari/537.36","WebKit","Chrome","92.0.4515.105","AndroidOS","10","null","<div style=""font-size:60px;"">+</div>","null",""
"","","","","","html-button-response","5","26816","0.0-4.0-1.0","92","1","2022-10-23 14:37:48","d60b49b5908c80e163b920d72b52d584","113.220.127.117","Mozilla/5.0 (Linux; Android 10; HarmonyOS; KKG-AN00; HMSCore 6.7.0.322) AppleWebKit/537.36 (KHTML, like Gecko) Chrome/92.0.4515.105 HuaweiBrowser/12.1.3.312 Mobile Safari/537.36","WebKit","Chrome","92.0.4515.105","AndroidOS","10","1052","<p>作为军队的指挥官，你可以选择发射导弹杀死 <strong>2名</strong> 敌国士兵，但会误杀附近的 <strong>1名</strong> 敌国平民。</p> <p>平民照片如下图所示。</p> <p></p> <img src='stimuli/faces/NCF1.jpg', style='max-width: 30%;'> </img> <p><strong>你是否选择发射武器？</strong></p>","0",""
"","","","","","html-keyboard-response","6","27822","0.0-4.0-0.1","92","1","2022-10-23 14:37:48","d60b49b5908c80e163b920d72b52d584","113.220.127.117","Mozilla/5.0 (Linux; Android 10; HarmonyOS; KKG-AN00; HMSCore 6.7.0.322) AppleWebKit/537.36 (KHTML, like Gecko) Chrome/92.0.4515.105 HuaweiBrowser/12.1.3.312 Mobile Safari/537.36","WebKit","Chrome","92.0.4515.105","AndroidOS","10","null","<div style=""font-size:60px;"">+</div>","null",""
"","","","","","html-button-response","7","28786","0.0-4.0-1.1","92","1","2022-10-23 14:37:48","d60b49b5908c80e163b920d72b52d584","113.220.127.117","Mozilla/5.0 (Linux; Android 10; HarmonyOS; KKG-AN00; HMSCore 6.7.0.322) AppleWebKit/537.36 (KHTML, like Gecko) Chrome/92.0.4515.105 HuaweiBrowser/12.1.3.312 Mobile Safari/537.36","WebKit","Chrome","92.0.4515.105","AndroidOS","10","955","<p>作为军队的指挥官，你可以选择发射导弹杀死 <strong>7名</strong> 敌国士兵，但会误杀附近的 <strong>1名</strong> 敌国平民。</p> <p>平民照片如下图所示。</p> <p></p> <img src='stimuli/faces/NCF5.jpg', style='max-width: 30%;'> </img> <p><strong>你是否选择发射武器？</strong></p>","0",""
"","","","","","html-keyboard-response","8","29790","0.0-4.0-0.2","92","1","2022-10-23 14:37:48","d60b49b5908c80e163b920d72b52d584","113.220.127.117","Mozilla/5.0 (Linux; Android 10; HarmonyOS; KKG-AN00; HMSCore 6.7.0.322) AppleWebKit/537.36 (KHTML, like Gecko) Chrome/92.0.4515.105 HuaweiBrowser/12.1.3.312 Mobile Safari/537.36","WebKit","Chrome","92.0.4515.105","AndroidOS","10","null","<div style=""font-size:60px;"">+</div>","null",""
"","","","","","html-button-response","9","30504","0.0-4.0-1.2","92","1","2022-10-23 14:37:48","d60b49b5908c80e163b920d72b52d584","113.220.127.117","Mozilla/5.0 (Linux; Android 10; HarmonyOS; KKG-AN00; HMSCore 6.7.0.322) AppleWebKit/537.36 (KHTML, like Gecko) Chrome/92.0.4515.105 HuaweiBrowser/12.1.3.312 Mobile Safari/537.36","WebKit","Chrome","92.0.4515.105","AndroidOS","10","704","<p>作为军队的指挥官，你可以选择发射导弹杀死 <strong>2名</strong> 敌国士兵，但会误杀附近的 <strong>1名</strong> 敌国平民。</p> <p>平民照片如下图所示。</p> <p></p> <img src='stimuli/faces/NCM1.jpg', style='max-width: 30%;'> </img> <p><strong>你是否选择发射武器？</strong></p>","0",""
"","","","","","html-keyboard-response","10","31507","0.0-4.0-0.3","92","1","2022-10-23 14:37:48","d60b49b5908c80e163b920d72b52d584","113.220.127.117","Mozilla/5.0 (Linux; Android 10; HarmonyOS; KKG-AN00; HMSCore 6.7.0.322) AppleWebKit/537.36 (KHTML, like Gecko) Chrome/92.0.4515.105 HuaweiBrowser/12.1.3.312 Mobile Safari/537.36","WebKit","Chrome","92.0.4515.105","AndroidOS","10","null","<div style=""font-size:60px;"">+</div>","null",""
"","","","","","html-button-response","11","32175","0.0-4.0-1.3","92","1","2022-10-23 14:37:48","d60b49b5908c80e163b920d72b52d584","113.220.127.117","Mozilla/5.0 (Linux; Android 10; HarmonyOS; KKG-AN00; HMSCore 6.7.0.322) AppleWebKit/537.36 (KHTML, like Gecko) Chrome/92.0.4515.105 HuaweiBrowser/12.1.3.312 Mobile Safari/537.36","WebKit","Chrome","92.0.4515.105","AndroidOS","10","653","<p>作为军队的指挥官，你可以选择发射导弹杀死 <strong>3名</strong> 敌国士兵，但会误杀附近的 <strong>1名</strong> 敌国平民。</p> <p>平民照片如下图所示。</p> <p></p> <img src='stimuli/faces/NCF4.jpg', style='max-width: 30%;'> </img> <p><strong>你是否选择发射武器？</strong></p>","0",""
"","","","","","html-keyboard-response","12","33182","0.0-4.0-0.4","92","1","2022-10-23 14:37:48","d60b49b5908c80e163b920d72b52d584","113.220.127.117","Mozilla/5.0 (Linux; Android 10; HarmonyOS; KKG-AN00; HMSCore 6.7.0.322) AppleWebKit/537.36 (KHTML, like Gecko) Chrome/92.0.4515.105 HuaweiBrowser/12.1.3.312 Mobile Safari/537.36","WebKit","Chrome","92.0.4515.105","AndroidOS","10","null","<div style=""font-size:60px;"">+</div>","null",""
"","","","","","html-button-response","13","33815","0.0-4.0-1.4","92","1","2022-10-23 14:37:48","d60b49b5908c80e163b920d72b52d584","113.220.127.117","Mozilla/5.0 (Linux; Android 10; HarmonyOS; KKG-AN00; HMSCore 6.7.0.322) AppleWebKit/537.36 (KHTML, like Gecko) Chrome/92.0.4515.105 HuaweiBrowser/12.1.3.312 Mobile Safari/537.36","WebKit","Chrome","92.0.4515.105","AndroidOS","10","624","<p>作为军队的指挥官，你可以选择发射导弹杀死 <strong>5名</strong> 敌国士兵，但会炸毁附近的 <strong>1棵</strong> 敌国树木。</p> <p>树木的照片如下图所示。</p> <p></p> <img src='stimuli/trees/5.png', style='max-width: 30%;'> </img> <p><strong>你是否选择发射武器？</strong></p>","0",""
"","","","","","html-keyboard-response","14","34820","0.0-4.0-0.5","92","1","2022-10-23 14:37:48","d60b49b5908c80e163b920d72b52d584","113.220.127.117","Mozilla/5.0 (Linux; Android 10; HarmonyOS; KKG-AN00; HMSCore 6.7.0.322) AppleWebKit/537.36 (KHTML, like Gecko) Chrome/92.0.4515.105 HuaweiBrowser/12.1.3.312 Mobile Safari/537.36","WebKit","Chrome","92.0.4515.105","AndroidOS","10","null","<div style=""font-size:60px;"">+</div>","null",""
"","","","","","html-button-response","15","35658","0.0-4.0-1.5","92","1","2022-10-23 14:37:48","d60b49b5908c80e163b920d72b52d584","113.220.127.117","Mozilla/5.0 (Linux; Android 10; HarmonyOS; KKG-AN00; HMSCore 6.7.0.322) AppleWebKit/537.36 (KHTML, like Gecko) Chrome/92.0.4515.105 HuaweiBrowser/12.1.3.312 Mobile Safari/537.36","WebKit","Chrome","92.0.4515.105","AndroidOS","10","821","<p>作为军队的指挥官，你可以选择发射导弹杀死 <strong>3名</strong> 敌国士兵，但会误杀附近的 <strong>1名</strong> 敌国平民。</p> <p>平民照片如下图所示。</p> <p></p> <img src='stimuli/faces/NCM4.jpg', style='max-width: 30%;'> </img> <p><strong>你是否选择发射武器？</strong></p>","0",""
"","","","","","html-keyboard-response","16","36663","0.0-4.0-0.6","92","1","2022-10-23 14:37:48","d60b49b5908c80e163b920d72b52d584","113.220.127.117","Mozilla/5.0 (Linux; Android 10; HarmonyOS; KKG-AN00; HMSCore 6.7.0.322) AppleWebKit/537.36 (KHTML, like Gecko) Chrome/92.0.4515.105 HuaweiBrowser/12.1.3.312 Mobile Safari/537.36","WebKit","Chrome","92.0.4515.105","AndroidOS","10","null","<div style=""font-size:60px;"">+</div>","null",""
"","","","","","html-button-response","17","37283","0.0-4.0-1.6","92","1","2022-10-23 14:37:48","d60b49b5908c80e163b920d72b52d584","113.220.127.117","Mozilla/5.0 (Linux; Android 10; HarmonyOS; KKG-AN00; HMSCore 6.7.0.322) AppleWebKit/537.36 (KHTML, like Gecko) Chrome/92.0.4515.105 HuaweiBrowser/12.1.3.312 Mobile Safari/537.36","WebKit","Chrome","92.0.4515.105","AndroidOS","10","607","<p>作为军队的指挥官，你可以选择发射导弹杀死 <strong>2名</strong> 敌国士兵，但会误杀附近的 <strong>1名</strong> 敌国平民。</p> <p>平民照片如下图所示。</p> <p></p> <img src='stimuli/faces/NCF6.jpg', style='max-width: 30%;'> </img> <p><strong>你是否选择发射武器？</strong></p>","0",""
"","","","","","html-keyboard-response","18","38294","0.0-4.0-0.7","92","1","2022-10-23 14:37:48","d60b49b5908c80e163b920d72b52d584","113.220.127.117","Mozilla/5.0 (Linux; Android 10; HarmonyOS; KKG-AN00; HMSCore 6.7.0.322) AppleWebKit/537.36 (KHTML, like Gecko) Chrome/92.0.4515.105 HuaweiBrowser/12.1.3.312 Mobile Safari/537.36","WebKit","Chrome","92.0.4515.105","AndroidOS","10","null","<div style=""font-size:60px;"">+</div>","null",""
"","","","","","html-button-response","19","39566","0.0-4.0-1.7","92","1","2022-10-23 14:37:48","d60b49b5908c80e163b920d72b52d584","113.220.127.117","Mozilla/5.0 (Linux; Android 10; HarmonyOS; KKG-AN00; HMSCore 6.7.0.322) AppleWebKit/537.36 (KHTML, like Gecko) Chrome/92.0.4515.105 HuaweiBrowser/12.1.3.312 Mobile Safari/537.36","WebKit","Chrome","92.0.4515.105","AndroidOS","10","1265","<p>作为军队的指挥官，你可以选择发射导弹杀死 <strong>9名</strong> 敌国士兵，但会误杀附近的 <strong>1名</strong> 敌国平民。</p> <p>平民照片如下图所示。</p> <p></p> <img src='stimuli/faces/NCF6.jpg', style='max-width: 30%;'> </img> <p><strong>你是否选择发射武器？</strong></p>","0",""
"","","","","","html-keyboard-response","20","40572","0.0-4.0-0.8","92","1","2022-10-23 14:37:48","d60b49b5908c80e163b920d72b52d584","113.220.127.117","Mozilla/5.0 (Linux; Android 10; HarmonyOS; KKG-AN00; HMSCore 6.7.0.322) AppleWebKit/537.36 (KHTML, like Gecko) Chrome/92.0.4515.105 HuaweiBrowser/12.1.3.312 Mobile Safari/537.36","WebKit","Chrome","92.0.4515.105","AndroidOS","10","null","<div style=""font-size:60px;"">+</div>","null",""
"","","","","","html-button-response","21","41223","0.0-4.0-1.8","92","1","2022-10-23 14:37:48","d60b49b5908c80e163b920d72b52d584","113.220.127.117","Mozilla/5.0 (Linux; Android 10; HarmonyOS; KKG-AN00; HMSCore 6.7.0.322) AppleWebKit/537.36 (KHTML, like Gecko) Chrome/92.0.4515.105 HuaweiBrowser/12.1.3.312 Mobile Safari/537.36","WebKit","Chrome","92.0.4515.105","AndroidOS","10","643","<p>作为军队的指挥官，你可以选择发射导弹杀死 <strong>3名</strong> 敌国士兵，但会炸毁附近的 <strong>1棵</strong> 敌国树木。</p> <p>树木的照片如下图所示。</p> <p></p> <img src='stimuli/trees/16.png', style='max-width: 30%;'> </img> <p><strong>你是否选择发射武器？</strong></p>","0",""
"","","","","","html-keyboard-response","22","42228","0.0-4.0-0.9","92","1","2022-10-23 14:37:48","d60b49b5908c80e163b920d72b52d584","113.220.127.117","Mozilla/5.0 (Linux; Android 10; HarmonyOS; KKG-AN00; HMSCore 6.7.0.322) AppleWebKit/537.36 (KHTML, like Gecko) Chrome/92.0.4515.105 HuaweiBrowser/12.1.3.312 Mobile Safari/537.36","WebKit","Chrome","92.0.4515.105","AndroidOS","10","null","<div style=""font-size:60px;"">+</div>","null",""
"","","","","","html-button-response","23","42893","0.0-4.0-1.9","92","1","2022-10-23 14:37:48","d60b49b5908c80e163b920d72b52d584","113.220.127.117","Mozilla/5.0 (Linux; Android 10; HarmonyOS; KKG-AN00; HMSCore 6.7.0.322) AppleWebKit/537.36 (KHTML, like Gecko) Chrome/92.0.4515.105 HuaweiBrowser/12.1.3.312 Mobile Safari/537.36","WebKit","Chrome","92.0.4515.105","AndroidOS","10","650","<p>作为军队的指挥官，你可以选择发射导弹杀死 <strong>8名</strong> 敌国士兵，但会炸毁附近的 <strong>1棵</strong> 敌国树木。</p> <p>树木的照片如下图所示。</p> <p></p> <img src='stimuli/trees/9.png', style='max-width: 30%;'> </img> <p><strong>你是否选择发射武器？</strong></p>","1",""
"","","","","","html-keyboard-response","24","43899","0.0-4.0-0.10","92","1","2022-10-23 14:37:48","d60b49b5908c80e163b920d72b52d584","113.220.127.117","Mozilla/5.0 (Linux; Android 10; HarmonyOS; KKG-AN00; HMSCore 6.7.0.322) AppleWebKit/537.36 (KHTML, like Gecko) Chrome/92.0.4515.105 HuaweiBrowser/12.1.3.312 Mobile Safari/537.36","WebKit","Chrome","92.0.4515.105","AndroidOS","10","null","<div style=""font-size:60px;"">+</div>","null",""
"","","","","","html-button-response","25","44776","0.0-4.0-1.10","92","1","2022-10-23 14:37:48","d60b49b5908c80e163b920d72b52d584","113.220.127.117","Mozilla/5.0 (Linux; Android 10; HarmonyOS; KKG-AN00; HMSCore 6.7.0.322) AppleWebKit/537.36 (KHTML, like Gecko) Chrome/92.0.4515.105 HuaweiBrowser/12.1.3.312 Mobile Safari/537.36","WebKit","Chrome","92.0.4515.105","AndroidOS","10","863","<p>作为军队的指挥官，你可以选择发射导弹杀死 <strong>4名</strong> 敌国士兵，但会炸毁附近的 <strong>1棵</strong> 敌国树木。</p> <p>树木的照片如下图所示。</p> <p></p> <img src='stimuli/trees/8.png', style='max-width: 30%;'> </img> <p><strong>你是否选择发射武器？</strong></p>","1",""
"","","","","","html-keyboard-response","26","45781","0.0-4.0-0.11","92","1","2022-10-23 14:37:48","d60b49b5908c80e163b920d72b52d584","113.220.127.117","Mozilla/5.0 (Linux; Android 10; HarmonyOS; KKG-AN00; HMSCore 6.7.0.322) AppleWebKit/537.36 (KHTML, like Gecko) Chrome/92.0.4515.105 HuaweiBrowser/12.1.3.312 Mobile Safari/537.36","WebKit","Chrome","92.0.4515.105","AndroidOS","10","null","<div style=""font-size:60px;"">+</div>","null",""
"","","","","","html-button-response","27","46390","0.0-4.0-1.11","92","1","2022-10-23 14:37:48","d60b49b5908c80e163b920d72b52d584","113.220.127.117","Mozilla/5.0 (Linux; Android 10; HarmonyOS; KKG-AN00; HMSCore 6.7.0.322) AppleWebKit/537.36 (KHTML, like Gecko) Chrome/92.0.4515.105 HuaweiBrowser/12.1.3.312 Mobile Safari/537.36","WebKit","Chrome","92.0.4515.105","AndroidOS","10","597","<p>作为军队的指挥官，你可以选择发射导弹杀死 <strong>1名</strong> 敌国士兵，但会炸毁附近的 <strong>1棵</strong> 敌国树木。</p> <p>树木的照片如下图所示。</p> <p></p> <img src='stimuli/trees/4.png', style='max-width: 30%;'> </img> <p><strong>你是否选择发射武器？</strong></p>","1",""
"","","","","","html-keyboard-response","28","47396","0.0-4.0-0.12","92","1","2022-10-23 14:37:48","d60b49b5908c80e163b920d72b52d584","113.220.127.117","Mozilla/5.0 (Linux; Android 10; HarmonyOS; KKG-AN00; HMSCore 6.7.0.322) AppleWebKit/537.36 (KHTML, like Gecko) Chrome/92.0.4515.105 HuaweiBrowser/12.1.3.312 Mobile Safari/537.36","WebKit","Chrome","92.0.4515.105","AndroidOS","10","null","<div style=""font-size:60px;"">+</div>","null",""
"","","","","","html-button-response","29","47981","0.0-4.0-1.12","92","1","2022-10-23 14:37:48","d60b49b5908c80e163b920d72b52d584","113.220.127.117","Mozilla/5.0 (Linux; Android 10; HarmonyOS; KKG-AN00; HMSCore 6.7.0.322) AppleWebKit/537.36 (KHTML, like Gecko) Chrome/92.0.4515.105 HuaweiBrowser/12.1.3.312 Mobile Safari/537.36","WebKit","Chrome","92.0.4515.105","AndroidOS","10","563","<p>作为军队的指挥官，你可以选择发射导弹杀死 <strong>2名</strong> 敌国士兵，但会炸毁附近的 <strong>1棵</strong> 敌国树木。</p> <p>树木的照片如下图所示。</p> <p></p> <img src='stimuli/trees/12.png', style='max-width: 30%;'> </img> <p><strong>你是否选择发射武器？</strong></p>","1",""
"","","","","","html-keyboard-response","30","48987","0.0-4.0-0.13","92","1","2022-10-23 14:37:48","d60b49b5908c80e163b920d72b52d584","113.220.127.117","Mozilla/5.0 (Linux; Android 10; HarmonyOS; KKG-AN00; HMSCore 6.7.0.322) AppleWebKit/537.36 (KHTML, like Gecko) Chrome/92.0.4515.105 HuaweiBrowser/12.1.3.312 Mobile Safari/537.36","WebKit","Chrome","92.0.4515.105","AndroidOS","10","null","<div style=""font-size:60px;"">+</div>","null",""
"","","","","","html-button-response","31","49667","0.0-4.0-1.13","92","1","2022-10-23 14:37:48","d60b49b5908c80e163b920d72b52d584","113.220.127.117","Mozilla/5.0 (Linux; Android 10; HarmonyOS; KKG-AN00; HMSCore 6.7.0.322) AppleWebKit/537.36 (KHTML, like Gecko) Chrome/92.0.4515.105 HuaweiBrowser/12.1.3.312 Mobile Safari/537.36","WebKit","Chrome","92.0.4515.105","AndroidOS","10","667","<p>作为军队的指挥官，你可以选择发射导弹杀死 <strong>10名</strong> 敌国士兵，但会误杀附近的 <strong>1名</strong> 敌国平民。</p> <p>平民照片如下图所示。</p> <p></p> <img src='stimuli/faces/NCM4.jpg', style='max-width: 30%;'> </img> <p><strong>你是否选择发射武器？</strong></p>","1",""
"","","","","","html-keyboard-response","32","50671","0.0-4.0-0.14","92","1","2022-10-23 14:37:48","d60b49b5908c80e163b920d72b52d584","113.220.127.117","Mozilla/5.0 (Linux; Android 10; HarmonyOS; KKG-AN00; HMSCore 6.7.0.322) AppleWebKit/537.36 (KHTML, like Gecko) Chrome/92.0.4515.105 HuaweiBrowser/12.1.3.312 Mobile Safari/537.36","WebKit","Chrome","92.0.4515.105","AndroidOS","10","null","<div style=""font-size:60px;"">+</div>","null",""
"","","","","","html-button-response","33","51309","0.0-4.0-1.14","92","1","2022-10-23 14:37:48","d60b49b5908c80e163b920d72b52d584","113.220.127.117","Mozilla/5.0 (Linux; Android 10; HarmonyOS; KKG-AN00; HMSCore 6.7.0.322) AppleWebKit/537.36 (KHTML, like Gecko) Chrome/92.0.4515.105 HuaweiBrowser/12.1.3.312 Mobile Safari/537.36","WebKit","Chrome","92.0.4515.105","AndroidOS","10","614","<p>作为军队的指挥官，你可以选择发射导弹杀死 <strong>2名</strong> 敌国士兵，但会误杀附近的 <strong>1名</strong> 敌国平民。</p> <p>平民照片如下图所示。</p> <p></p> <img src='stimuli/faces/NCF2.jpg', style='max-width: 30%;'> </img> <p><strong>你是否选择发射武器？</strong></p>","1",""
"","","","","","html-keyboard-response","34","52317","0.0-4.0-0.15","92","1","2022-10-23 14:37:48","d60b49b5908c80e163b920d72b52d584","113.220.127.117","Mozilla/5.0 (Linux; Android 10; HarmonyOS; KKG-AN00; HMSCore 6.7.0.322) AppleWebKit/537.36 (KHTML, like Gecko) Chrome/92.0.4515.105 HuaweiBrowser/12.1.3.312 Mobile Safari/537.36","WebKit","Chrome","92.0.4515.105","AndroidOS","10","null","<div style=""font-size:60px;"">+</div>","null",""
"","","","","","html-button-response","35","52947","0.0-4.0-1.15","92","1","2022-10-23 14:37:48","d60b49b5908c80e163b920d72b52d584","113.220.127.117","Mozilla/5.0 (Linux; Android 10; HarmonyOS; KKG-AN00; HMSCore 6.7.0.322) AppleWebKit/537.36 (KHTML, like Gecko) Chrome/92.0.4515.105 HuaweiBrowser/12.1.3.312 Mobile Safari/537.36","WebKit","Chrome","92.0.4515.105","AndroidOS","10","610","<p>作为军队的指挥官，你可以选择发射导弹杀死 <strong>2名</strong> 敌国士兵，但会炸毁附近的 <strong>1棵</strong> 敌国树木。</p> <p>树木的照片如下图所示。</p> <p></p> <img src='stimuli/trees/3.png', style='max-width: 30%;'> </img> <p><strong>你是否选择发射武器？</strong></p>","0",""
"","","","","","html-keyboard-response","36","53953","0.0-4.0-0.16","92","1","2022-10-23 14:37:48","d60b49b5908c80e163b920d72b52d584","113.220.127.117","Mozilla/5.0 (Linux; Android 10; HarmonyOS; KKG-AN00; HMSCore 6.7.0.322) AppleWebKit/537.36 (KHTML, like Gecko) Chrome/92.0.4515.105 HuaweiBrowser/12.1.3.312 Mobile Safari/537.36","WebKit","Chrome","92.0.4515.105","AndroidOS","10","null","<div style=""font-size:60px;"">+</div>","null",""
"","","","","","html-button-response","37","54541","0.0-4.0-1.16","92","1","2022-10-23 14:37:48","d60b49b5908c80e163b920d72b52d584","113.220.127.117","Mozilla/5.0 (Linux; Android 10; HarmonyOS; KKG-AN00; HMSCore 6.7.0.322) AppleWebKit/537.36 (KHTML, like Gecko) Chrome/92.0.4515.105 HuaweiBrowser/12.1.3.312 Mobile Safari/537.36","WebKit","Chrome","92.0.4515.105","AndroidOS","10","569","<p>作为军队的指挥官，你可以选择发射导弹杀死 <strong>2名</strong> 敌国士兵，但会误杀附近的 <strong>1名</strong> 敌国平民。</p> <p>平民照片如下图所示。</p> <p></p> <img src='stimuli/faces/NCM3.jpg', style='max-width: 30%;'> </img> <p><strong>你是否选择发射武器？</strong></p>","1",""
"","","","","","html-keyboard-response","38","55552","0.0-4.0-0.17","92","1","2022-10-23 14:37:48","d60b49b5908c80e163b920d72b52d584","113.220.127.117","Mozilla/5.0 (Linux; Android 10; HarmonyOS; KKG-AN00; HMSCore 6.7.0.322) AppleWebKit/537.36 (KHTML, like Gecko) Chrome/92.0.4515.105 HuaweiBrowser/12.1.3.312 Mobile Safari/537.36","WebKit","Chrome","92.0.4515.105","AndroidOS","10","null","<div style=""font-size:60px;"">+</div>","null",""
"","","","","","html-button-response","39","56459","0.0-4.0-1.17","92","1","2022-10-23 14:37:48","d60b49b5908c80e163b920d72b52d584","113.220.127.117","Mozilla/5.0 (Linux; Android 10; HarmonyOS; KKG-AN00; HMSCore 6.7.0.322) AppleWebKit/537.36 (KHTML, like Gecko) Chrome/92.0.4515.105 HuaweiBrowser/12.1.3.312 Mobile Safari/537.36","WebKit","Chrome","92.0.4515.105","AndroidOS","10","900","<p>作为军队的指挥官，你可以选择发射导弹杀死 <strong>10名</strong> 敌国士兵，但会误杀附近的 <strong>1名</strong> 敌国平民。</p> <p>平民照片如下图所示。</p> <p></p> <img src='stimuli/faces/NCM2.jpg', style='max-width: 30%;'> </img> <p><strong>你是否选择发射武器？</strong></p>","1",""
"","","","","","html-keyboard-response","40","57464","0.0-4.0-0.18","92","1","2022-10-23 14:37:48","d60b49b5908c80e163b920d72b52d584","113.220.127.117","Mozilla/5.0 (Linux; Android 10; HarmonyOS; KKG-AN00; HMSCore 6.7.0.322) AppleWebKit/537.36 (KHTML, like Gecko) Chrome/92.0.4515.105 HuaweiBrowser/12.1.3.312 Mobile Safari/537.36","WebKit","Chrome","92.0.4515.105","AndroidOS","10","null","<div style=""font-size:60px;"">+</div>","null",""
"","","","","","html-button-response","41","61120","0.0-4.0-1.18","92","1","2022-10-23 14:37:48","d60b49b5908c80e163b920d72b52d584","113.220.127.117","Mozilla/5.0 (Linux; Android 10; HarmonyOS; KKG-AN00; HMSCore 6.7.0.322) AppleWebKit/537.36 (KHTML, like Gecko) Chrome/92.0.4515.105 HuaweiBrowser/12.1.3.312 Mobile Safari/537.36","WebKit","Chrome","92.0.4515.105","AndroidOS","10","3634","<p>作为军队的指挥官，你可以选择发射导弹杀死 <strong>6名</strong> 敌国士兵，但会炸毁附近的 <strong>1棵</strong> 敌国树木。</p> <p>树木的照片如下图所示。</p> <p></p> <img src='stimuli/trees/5.png', style='max-width: 30%;'> </img> <p><strong>你是否选择发射武器？</strong></p>","0",""
"","","","","","html-keyboard-response","42","62128","0.0-4.0-0.19","92","1","2022-10-23 14:37:48","d60b49b5908c80e163b920d72b52d584","113.220.127.117","Mozilla/5.0 (Linux; Android 10; HarmonyOS; KKG-AN00; HMSCore 6.7.0.322) AppleWebKit/537.36 (KHTML, like Gecko) Chrome/92.0.4515.105 HuaweiBrowser/12.1.3.312 Mobile Safari/537.36","WebKit","Chrome","92.0.4515.105","AndroidOS","10","null","<div style=""font-size:60px;"">+</div>","null",""
"","","","","","html-button-response","43","62788","0.0-4.0-1.19","92","1","2022-10-23 14:37:48","d60b49b5908c80e163b920d72b52d584","113.220.127.117","Mozilla/5.0 (Linux; Android 10; HarmonyOS; KKG-AN00; HMSCore 6.7.0.322) AppleWebKit/537.36 (KHTML, like Gecko) Chrome/92.0.4515.105 HuaweiBrowser/12.1.3.312 Mobile Safari/537.36","WebKit","Chrome","92.0.4515.105","AndroidOS","10","636","<p>作为军队的指挥官，你可以选择发射导弹杀死 <strong>9名</strong> 敌国士兵，但会误杀附近的 <strong>1名</strong> 敌国平民。</p> <p>平民照片如下图所示。</p> <p></p> <img src='stimuli/faces/NCF8.jpg', style='max-width: 30%;'> </img> <p><strong>你是否选择发射武器？</strong></p>","1",""
"","","","","","html-keyboard-response","44","63794","0.0-4.0-0.20","92","1","2022-10-23 14:37:48","d60b49b5908c80e163b920d72b52d584","113.220.127.117","Mozilla/5.0 (Linux; Android 10; HarmonyOS; KKG-AN00; HMSCore 6.7.0.322) AppleWebKit/537.36 (KHTML, like Gecko) Chrome/92.0.4515.105 HuaweiBrowser/12.1.3.312 Mobile Safari/537.36","WebKit","Chrome","92.0.4515.105","AndroidOS","10","null","<div style=""font-size:60px;"">+</div>","null",""
"","","","","","html-button-response","45","64594","0.0-4.0-1.20","92","1","2022-10-23 14:37:48","d60b49b5908c80e163b920d72b52d584","113.220.127.117","Mozilla/5.0 (Linux; Android 10; HarmonyOS; KKG-AN00; HMSCore 6.7.0.322) AppleWebKit/537.36 (KHTML, like Gecko) Chrome/92.0.4515.105 HuaweiBrowser/12.1.3.312 Mobile Safari/537.36","WebKit","Chrome","92.0.4515.105","AndroidOS","10","786","<p>作为军队的指挥官，你可以选择发射导弹杀死 <strong>5名</strong> 敌国士兵，但会误杀附近的 <strong>1名</strong> 敌国平民。</p> <p>平民照片如下图所示。</p> <p></p> <img src='stimuli/faces/NCF7.jpg', style='max-width: 30%;'> </img> <p><strong>你是否选择发射武器？</strong></p>","0",""
"","","","","","html-keyboard-response","46","65604","0.0-4.0-0.21","92","1","2022-10-23 14:37:48","d60b49b5908c80e163b920d72b52d584","113.220.127.117","Mozilla/5.0 (Linux; Android 10; HarmonyOS; KKG-AN00; HMSCore 6.7.0.322) AppleWebKit/537.36 (KHTML, like Gecko) Chrome/92.0.4515.105 HuaweiBrowser/12.1.3.312 Mobile Safari/537.36","WebKit","Chrome","92.0.4515.105","AndroidOS","10","null","<div style=""font-size:60px;"">+</div>","null",""
"","","","","","html-button-response","47","66252","0.0-4.0-1.21","92","1","2022-10-23 14:37:48","d60b49b5908c80e163b920d72b52d584","113.220.127.117","Mozilla/5.0 (Linux; Android 10; HarmonyOS; KKG-AN00; HMSCore 6.7.0.322) AppleWebKit/537.36 (KHTML, like Gecko) Chrome/92.0.4515.105 HuaweiBrowser/12.1.3.312 Mobile Safari/537.36","WebKit","Chrome","92.0.4515.105","AndroidOS","10","622","<p>作为军队的指挥官，你可以选择发射导弹杀死 <strong>8名</strong> 敌国士兵，但会炸毁附近的 <strong>1棵</strong> 敌国树木。</p> <p>树木的照片如下图所示。</p> <p></p> <img src='stimuli/trees/2.png', style='max-width: 30%;'> </img> <p><strong>你是否选择发射武器？</strong></p>","1",""
"","","","","","html-keyboard-response","48","67264","0.0-4.0-0.22","92","1","2022-10-23 14:37:48","d60b49b5908c80e163b920d72b52d584","113.220.127.117","Mozilla/5.0 (Linux; Android 10; HarmonyOS; KKG-AN00; HMSCore 6.7.0.322) AppleWebKit/537.36 (KHTML, like Gecko) Chrome/92.0.4515.105 HuaweiBrowser/12.1.3.312 Mobile Safari/537.36","WebKit","Chrome","92.0.4515.105","AndroidOS","10","null","<div style=""font-size:60px;"">+</div>","null",""
"","","","","","html-button-response","49","67867","0.0-4.0-1.22","92","1","2022-10-23 14:37:48","d60b49b5908c80e163b920d72b52d584","113.220.127.117","Mozilla/5.0 (Linux; Android 10; HarmonyOS; KKG-AN00; HMSCore 6.7.0.322) AppleWebKit/537.36 (KHTML, like Gecko) Chrome/92.0.4515.105 HuaweiBrowser/12.1.3.312 Mobile Safari/537.36","WebKit","Chrome","92.0.4515.105","AndroidOS","10","589","<p>作为军队的指挥官，你可以选择发射导弹杀死 <strong>8名</strong> 敌国士兵，但会炸毁附近的 <strong>1棵</strong> 敌国树木。</p> <p>树木的照片如下图所示。</p> <p></p> <img src='stimuli/trees/7.png', style='max-width: 30%;'> </img> <p><strong>你是否选择发射武器？</strong></p>","0",""
"","","","","","html-keyboard-response","50","68877","0.0-4.0-0.23","92","1","2022-10-23 14:37:48","d60b49b5908c80e163b920d72b52d584","113.220.127.117","Mozilla/5.0 (Linux; Android 10; HarmonyOS; KKG-AN00; HMSCore 6.7.0.322) AppleWebKit/537.36 (KHTML, like Gecko) Chrome/92.0.4515.105 HuaweiBrowser/12.1.3.312 Mobile Safari/537.36","WebKit","Chrome","92.0.4515.105","AndroidOS","10","null","<div style=""font-size:60px;"">+</div>","null",""
"","","","","","html-button-response","51","69457","0.0-4.0-1.23","92","1","2022-10-23 14:37:48","d60b49b5908c80e163b920d72b52d584","113.220.127.117","Mozilla/5.0 (Linux; Android 10; HarmonyOS; KKG-AN00; HMSCore 6.7.0.322) AppleWebKit/537.36 (KHTML, like Gecko) Chrome/92.0.4515.105 HuaweiBrowser/12.1.3.312 Mobile Safari/537.36","WebKit","Chrome","92.0.4515.105","AndroidOS","10","570","<p>作为军队的指挥官，你可以选择发射导弹杀死 <strong>2名</strong> 敌国士兵，但会炸毁附近的 <strong>1棵</strong> 敌国树木。</p> <p>树木的照片如下图所示。</p> <p></p> <img src='stimuli/trees/13.png', style='max-width: 30%;'> </img> <p><strong>你是否选择发射武器？</strong></p>","1",""
"","","","","","html-keyboard-response","52","70464","0.0-4.0-0.24","92","1","2022-10-23 14:37:48","d60b49b5908c80e163b920d72b52d584","113.220.127.117","Mozilla/5.0 (Linux; Android 10; HarmonyOS; KKG-AN00; HMSCore 6.7.0.322) AppleWebKit/537.36 (KHTML, like Gecko) Chrome/92.0.4515.105 HuaweiBrowser/12.1.3.312 Mobile Safari/537.36","WebKit","Chrome","92.0.4515.105","AndroidOS","10","null","<div style=""font-size:60px;"">+</div>","null",""
"","","","","","html-button-response","53","71041","0.0-4.0-1.24","92","1","2022-10-23 14:37:48","d60b49b5908c80e163b920d72b52d584","113.220.127.117","Mozilla/5.0 (Linux; Android 10; HarmonyOS; KKG-AN00; HMSCore 6.7.0.322) AppleWebKit/537.36 (KHTML, like Gecko) Chrome/92.0.4515.105 HuaweiBrowser/12.1.3.312 Mobile Safari/537.36","WebKit","Chrome","92.0.4515.105","AndroidOS","10","570","<p>作为军队的指挥官，你可以选择发射导弹杀死 <strong>9名</strong> 敌国士兵，但会误杀附近的 <strong>1名</strong> 敌国平民。</p> <p>平民照片如下图所示。</p> <p></p> <img src='stimuli/faces/NCM1.jpg', style='max-width: 30%;'> </img> <p><strong>你是否选择发射武器？</strong></p>","0",""
"","","","","","html-keyboard-response","54","72051","0.0-4.0-0.25","92","1","2022-10-23 14:37:48","d60b49b5908c80e163b920d72b52d584","113.220.127.117","Mozilla/5.0 (Linux; Android 10; HarmonyOS; KKG-AN00; HMSCore 6.7.0.322) AppleWebKit/537.36 (KHTML, like Gecko) Chrome/92.0.4515.105 HuaweiBrowser/12.1.3.312 Mobile Safari/537.36","WebKit","Chrome","92.0.4515.105","AndroidOS","10","null","<div style=""font-size:60px;"">+</div>","null",""
"","","","","","html-button-response","55","72731","0.0-4.0-1.25","92","1","2022-10-23 14:37:48","d60b49b5908c80e163b920d72b52d584","113.220.127.117","Mozilla/5.0 (Linux; Android 10; HarmonyOS; KKG-AN00; HMSCore 6.7.0.322) AppleWebKit/537.36 (KHTML, like Gecko) Chrome/92.0.4515.105 HuaweiBrowser/12.1.3.312 Mobile Safari/537.36","WebKit","Chrome","92.0.4515.105","AndroidOS","10","657","<p>作为军队的指挥官，你可以选择发射导弹杀死 <strong>8名</strong> 敌国士兵，但会炸毁附近的 <strong>1棵</strong> 敌国树木。</p> <p>树木的照片如下图所示。</p> <p></p> <img src='stimuli/trees/1.png', style='max-width: 30%;'> </img> <p><strong>你是否选择发射武器？</strong></p>","1",""
"","","","","","html-keyboard-response","56","73738","0.0-4.0-0.26","92","1","2022-10-23 14:37:48","d60b49b5908c80e163b920d72b52d584","113.220.127.117","Mozilla/5.0 (Linux; Android 10; HarmonyOS; KKG-AN00; HMSCore 6.7.0.322) AppleWebKit/537.36 (KHTML, like Gecko) Chrome/92.0.4515.105 HuaweiBrowser/12.1.3.312 Mobile Safari/537.36","WebKit","Chrome","92.0.4515.105","AndroidOS","10","null","<div style=""font-size:60px;"">+</div>","null",""
"","","","","","html-button-response","57","74389","0.0-4.0-1.26","92","1","2022-10-23 14:37:48","d60b49b5908c80e163b920d72b52d584","113.220.127.117","Mozilla/5.0 (Linux; Android 10; HarmonyOS; KKG-AN00; HMSCore 6.7.0.322) AppleWebKit/537.36 (KHTML, like Gecko) Chrome/92.0.4515.105 HuaweiBrowser/12.1.3.312 Mobile Safari/537.36","WebKit","Chrome","92.0.4515.105","AndroidOS","10","638","<p>作为军队的指挥官，你可以选择发射导弹杀死 <strong>1名</strong> 敌国士兵，但会炸毁附近的 <strong>1棵</strong> 敌国树木。</p> <p>树木的照片如下图所示。</p> <p></p> <img src='stimuli/trees/15.png', style='max-width: 30%;'> </img> <p><strong>你是否选择发射武器？</strong></p>","0",""
"","","","","","html-keyboard-response","58","75397","0.0-4.0-0.27","92","1","2022-10-23 14:37:48","d60b49b5908c80e163b920d72b52d584","113.220.127.117","Mozilla/5.0 (Linux; Android 10; HarmonyOS; KKG-AN00; HMSCore 6.7.0.322) AppleWebKit/537.36 (KHTML, like Gecko) Chrome/92.0.4515.105 HuaweiBrowser/12.1.3.312 Mobile Safari/537.36","WebKit","Chrome","92.0.4515.105","AndroidOS","10","null","<div style=""font-size:60px;"">+</div>","null",""
"","","","","","html-button-response","59","76029","0.0-4.0-1.27","92","1","2022-10-23 14:37:48","d60b49b5908c80e163b920d72b52d584","113.220.127.117","Mozilla/5.0 (Linux; Android 10; HarmonyOS; KKG-AN00; HMSCore 6.7.0.322) AppleWebKit/537.36 (KHTML, like Gecko) Chrome/92.0.4515.105 HuaweiBrowser/12.1.3.312 Mobile Safari/537.36","WebKit","Chrome","92.0.4515.105","AndroidOS","10","621","<p>作为军队的指挥官，你可以选择发射导弹杀死 <strong>1名</strong> 敌国士兵，但会炸毁附近的 <strong>1棵</strong> 敌国树木。</p> <p>树木的照片如下图所示。</p> <p></p> <img src='stimuli/trees/1.png', style='max-width: 30%;'> </img> <p><strong>你是否选择发射武器？</strong></p>","1",""
"","","","","","html-keyboard-response","60","77037","0.0-4.0-0.28","92","1","2022-10-23 14:37:48","d60b49b5908c80e163b920d72b52d584","113.220.127.117","Mozilla/5.0 (Linux; Android 10; HarmonyOS; KKG-AN00; HMSCore 6.7.0.322) AppleWebKit/537.36 (KHTML, like Gecko) Chrome/92.0.4515.105 HuaweiBrowser/12.1.3.312 Mobile Safari/537.36","WebKit","Chrome","92.0.4515.105","AndroidOS","10","null","<div style=""font-size:60px;"">+</div>","null",""
"","","","","","html-button-response","61","77750","0.0-4.0-1.28","92","1","2022-10-23 14:37:48","d60b49b5908c80e163b920d72b52d584","113.220.127.117","Mozilla/5.0 (Linux; Android 10; HarmonyOS; KKG-AN00; HMSCore 6.7.0.322) AppleWebKit/537.36 (KHTML, like Gecko) Chrome/92.0.4515.105 HuaweiBrowser/12.1.3.312 Mobile Safari/537.36","WebKit","Chrome","92.0.4515.105","AndroidOS","10","703","<p>作为军队的指挥官，你可以选择发射导弹杀死 <strong>5名</strong> 敌国士兵，但会炸毁附近的 <strong>1棵</strong> 敌国树木。</p> <p>树木的照片如下图所示。</p> <p></p> <img src='stimuli/trees/10.png', style='max-width: 30%;'> </img> <p><strong>你是否选择发射武器？</strong></p>","0",""
"","","","","","html-keyboard-response","62","78756","0.0-4.0-0.29","92","1","2022-10-23 14:37:48","d60b49b5908c80e163b920d72b52d584","113.220.127.117","Mozilla/5.0 (Linux; Android 10; HarmonyOS; KKG-AN00; HMSCore 6.7.0.322) AppleWebKit/537.36 (KHTML, like Gecko) Chrome/92.0.4515.105 HuaweiBrowser/12.1.3.312 Mobile Safari/537.36","WebKit","Chrome","92.0.4515.105","AndroidOS","10","null","<div style=""font-size:60px;"">+</div>","null",""
"","","","","","html-button-response","63","80748","0.0-4.0-1.29","92","1","2022-10-23 14:37:48","d60b49b5908c80e163b920d72b52d584","113.220.127.117","Mozilla/5.0 (Linux; Android 10; HarmonyOS; KKG-AN00; HMSCore 6.7.0.322) AppleWebKit/537.36 (KHTML, like Gecko) Chrome/92.0.4515.105 HuaweiBrowser/12.1.3.312 Mobile Safari/537.36","WebKit","Chrome","92.0.4515.105","AndroidOS","10","1980","<p>作为军队的指挥官，你可以选择发射导弹杀死 <strong>7名</strong> 敌国士兵，但会炸毁附近的 <strong>1棵</strong> 敌国树木。</p> <p>树木的照片如下图所示。</p> <p></p> <img src='stimuli/trees/8.png', style='max-width: 30%;'> </img> <p><strong>你是否选择发射武器？</strong></p>","0",""
"","","","","","html-keyboard-response","64","81758","0.0-4.0-0.30","92","1","2022-10-23 14:37:48","d60b49b5908c80e163b920d72b52d584","113.220.127.117","Mozilla/5.0 (Linux; Android 10; HarmonyOS; KKG-AN00; HMSCore 6.7.0.322) AppleWebKit/537.36 (KHTML, like Gecko) Chrome/92.0.4515.105 HuaweiBrowser/12.1.3.312 Mobile Safari/537.36","WebKit","Chrome","92.0.4515.105","AndroidOS","10","null","<div style=""font-size:60px;"">+</div>","null",""
"","","","","","html-button-response","65","82410","0.0-4.0-1.30","92","1","2022-10-23 14:37:48","d60b49b5908c80e163b920d72b52d584","113.220.127.117","Mozilla/5.0 (Linux; Android 10; HarmonyOS; KKG-AN00; HMSCore 6.7.0.322) AppleWebKit/537.36 (KHTML, like Gecko) Chrome/92.0.4515.105 HuaweiBrowser/12.1.3.312 Mobile Safari/537.36","WebKit","Chrome","92.0.4515.105","AndroidOS","10","640","<p>作为军队的指挥官，你可以选择发射导弹杀死 <strong>10名</strong> 敌国士兵，但会误杀附近的 <strong>1名</strong> 敌国平民。</p> <p>平民照片如下图所示。</p> <p></p> <img src='stimuli/faces/NCM8.jpg', style='max-width: 30%;'> </img> <p><strong>你是否选择发射武器？</strong></p>","0",""
"","","","","","html-keyboard-response","66","83419","0.0-4.0-0.31","92","1","2022-10-23 14:37:48","d60b49b5908c80e163b920d72b52d584","113.220.127.117","Mozilla/5.0 (Linux; Android 10; HarmonyOS; KKG-AN00; HMSCore 6.7.0.322) AppleWebKit/537.36 (KHTML, like Gecko) Chrome/92.0.4515.105 HuaweiBrowser/12.1.3.312 Mobile Safari/537.36","WebKit","Chrome","92.0.4515.105","AndroidOS","10","null","<div style=""font-size:60px;"">+</div>","null",""
"","","","","","html-button-response","67","84224","0.0-4.0-1.31","92","1","2022-10-23 14:37:48","d60b49b5908c80e163b920d72b52d584","113.220.127.117","Mozilla/5.0 (Linux; Android 10; HarmonyOS; KKG-AN00; HMSCore 6.7.0.322) AppleWebKit/537.36 (KHTML, like Gecko) Chrome/92.0.4515.105 HuaweiBrowser/12.1.3.312 Mobile Safari/537.36","WebKit","Chrome","92.0.4515.105","AndroidOS","10","776","<p>作为军队的指挥官，你可以选择发射导弹杀死 <strong>8名</strong> 敌国士兵，但会炸毁附近的 <strong>1棵</strong> 敌国树木。</p> <p>树木的照片如下图所示。</p> <p></p> <img src='stimuli/trees/10.png', style='max-width: 30%;'> </img> <p><strong>你是否选择发射武器？</strong></p>","0",""
"","","","","","html-keyboard-response","68","85229","0.0-4.0-0.32","92","1","2022-10-23 14:37:48","d60b49b5908c80e163b920d72b52d584","113.220.127.117","Mozilla/5.0 (Linux; Android 10; HarmonyOS; KKG-AN00; HMSCore 6.7.0.322) AppleWebKit/537.36 (KHTML, like Gecko) Chrome/92.0.4515.105 HuaweiBrowser/12.1.3.312 Mobile Safari/537.36","WebKit","Chrome","92.0.4515.105","AndroidOS","10","null","<div style=""font-size:60px;"">+</div>","null",""
"","","","","","html-button-response","69","85885","0.0-4.0-1.32","92","1","2022-10-23 14:37:48","d60b49b5908c80e163b920d72b52d584","113.220.127.117","Mozilla/5.0 (Linux; Android 10; HarmonyOS; KKG-AN00; HMSCore 6.7.0.322) AppleWebKit/537.36 (KHTML, like Gecko) Chrome/92.0.4515.105 HuaweiBrowser/12.1.3.312 Mobile Safari/537.36","WebKit","Chrome","92.0.4515.105","AndroidOS","10","646","<p>作为军队的指挥官，你可以选择发射导弹杀死 <strong>10名</strong> 敌国士兵，但会炸毁附近的 <strong>1棵</strong> 敌国树木。</p> <p>树木的照片如下图所示。</p> <p></p> <img src='stimuli/trees/6.png', style='max-width: 30%;'> </img> <p><strong>你是否选择发射武器？</strong></p>","0",""
"","","","","","html-keyboard-response","70","86897","0.0-4.0-0.33","92","1","2022-10-23 14:37:48","d60b49b5908c80e163b920d72b52d584","113.220.127.117","Mozilla/5.0 (Linux; Android 10; HarmonyOS; KKG-AN00; HMSCore 6.7.0.322) AppleWebKit/537.36 (KHTML, like Gecko) Chrome/92.0.4515.105 HuaweiBrowser/12.1.3.312 Mobile Safari/537.36","WebKit","Chrome","92.0.4515.105","AndroidOS","10","null","<div style=""font-size:60px;"">+</div>","null",""
"","","","","","html-button-response","71","87538","0.0-4.0-1.33","92","1","2022-10-23 14:37:48","d60b49b5908c80e163b920d72b52d584","113.220.127.117","Mozilla/5.0 (Linux; Android 10; HarmonyOS; KKG-AN00; HMSCore 6.7.0.322) AppleWebKit/537.36 (KHTML, like Gecko) Chrome/92.0.4515.105 HuaweiBrowser/12.1.3.312 Mobile Safari/537.36","WebKit","Chrome","92.0.4515.105","AndroidOS","10","629","<p>作为军队的指挥官，你可以选择发射导弹杀死 <strong>2名</strong> 敌国士兵，但会误杀附近的 <strong>1名</strong> 敌国平民。</p> <p>平民照片如下图所示。</p> <p></p> <img src='stimuli/faces/NCF5.jpg', style='max-width: 30%;'> </img> <p><strong>你是否选择发射武器？</strong></p>","0",""
"","","","","","html-keyboard-response","72","88544","0.0-4.0-0.34","92","1","2022-10-23 14:37:48","d60b49b5908c80e163b920d72b52d584","113.220.127.117","Mozilla/5.0 (Linux; Android 10; HarmonyOS; KKG-AN00; HMSCore 6.7.0.322) AppleWebKit/537.36 (KHTML, like Gecko) Chrome/92.0.4515.105 HuaweiBrowser/12.1.3.312 Mobile Safari/537.36","WebKit","Chrome","92.0.4515.105","AndroidOS","10","null","<div style=""font-size:60px;"">+</div>","null",""
"","","","","","html-button-response","73","89216","0.0-4.0-1.34","92","1","2022-10-23 14:37:48","d60b49b5908c80e163b920d72b52d584","113.220.127.117","Mozilla/5.0 (Linux; Android 10; HarmonyOS; KKG-AN00; HMSCore 6.7.0.322) AppleWebKit/537.36 (KHTML, like Gecko) Chrome/92.0.4515.105 HuaweiBrowser/12.1.3.312 Mobile Safari/537.36","WebKit","Chrome","92.0.4515.105","AndroidOS","10","639","<p>作为军队的指挥官，你可以选择发射导弹杀死 <strong>7名</strong> 敌国士兵，但会炸毁附近的 <strong>1棵</strong> 敌国树木。</p> <p>树木的照片如下图所示。</p> <p></p> <img src='stimuli/trees/3.png', style='max-width: 30%;'> </img> <p><strong>你是否选择发射武器？</strong></p>","1",""
"","","","","","html-keyboard-response","74","90224","0.0-4.0-0.35","92","1","2022-10-23 14:37:48","d60b49b5908c80e163b920d72b52d584","113.220.127.117","Mozilla/5.0 (Linux; Android 10; HarmonyOS; KKG-AN00; HMSCore 6.7.0.322) AppleWebKit/537.36 (KHTML, like Gecko) Chrome/92.0.4515.105 HuaweiBrowser/12.1.3.312 Mobile Safari/537.36","WebKit","Chrome","92.0.4515.105","AndroidOS","10","null","<div style=""font-size:60px;"">+</div>","null",""
"","","","","","html-button-response","75","90790","0.0-4.0-1.35","92","1","2022-10-23 14:37:48","d60b49b5908c80e163b920d72b52d584","113.220.127.117","Mozilla/5.0 (Linux; Android 10; HarmonyOS; KKG-AN00; HMSCore 6.7.0.322) AppleWebKit/537.36 (KHTML, like Gecko) Chrome/92.0.4515.105 HuaweiBrowser/12.1.3.312 Mobile Safari/537.36","WebKit","Chrome","92.0.4515.105","AndroidOS","10","551","<p>作为军队的指挥官，你可以选择发射导弹杀死 <strong>7名</strong> 敌国士兵，但会炸毁附近的 <strong>1棵</strong> 敌国树木。</p> <p>树木的照片如下图所示。</p> <p></p> <img src='stimuli/trees/16.png', style='max-width: 30%;'> </img> <p><strong>你是否选择发射武器？</strong></p>","0",""
"","","","","","html-keyboard-response","76","91798","0.0-4.0-0.36","92","1","2022-10-23 14:37:48","d60b49b5908c80e163b920d72b52d584","113.220.127.117","Mozilla/5.0 (Linux; Android 10; HarmonyOS; KKG-AN00; HMSCore 6.7.0.322) AppleWebKit/537.36 (KHTML, like Gecko) Chrome/92.0.4515.105 HuaweiBrowser/12.1.3.312 Mobile Safari/537.36","WebKit","Chrome","92.0.4515.105","AndroidOS","10","null","<div style=""font-size:60px;"">+</div>","null",""
"","","","","","html-button-response","77","92363","0.0-4.0-1.36","92","1","2022-10-23 14:37:48","d60b49b5908c80e163b920d72b52d584","113.220.127.117","Mozilla/5.0 (Linux; Android 10; HarmonyOS; KKG-AN00; HMSCore 6.7.0.322) AppleWebKit/537.36 (KHTML, like Gecko) Chrome/92.0.4515.105 HuaweiBrowser/12.1.3.312 Mobile Safari/537.36","WebKit","Chrome","92.0.4515.105","AndroidOS","10","537","<p>作为军队的指挥官，你可以选择发射导弹杀死 <strong>1名</strong> 敌国士兵，但会误杀附近的 <strong>1名</strong> 敌国平民。</p> <p>平民照片如下图所示。</p> <p></p> <img src='stimuli/faces/NCF3.jpg', style='max-width: 30%;'> </img> <p><strong>你是否选择发射武器？</strong></p>","0",""
"","","","","","html-keyboard-response","78","93373","0.0-4.0-0.37","92","1","2022-10-23 14:37:48","d60b49b5908c80e163b920d72b52d584","113.220.127.117","Mozilla/5.0 (Linux; Android 10; HarmonyOS; KKG-AN00; HMSCore 6.7.0.322) AppleWebKit/537.36 (KHTML, like Gecko) Chrome/92.0.4515.105 HuaweiBrowser/12.1.3.312 Mobile Safari/537.36","WebKit","Chrome","92.0.4515.105","AndroidOS","10","null","<div style=""font-size:60px;"">+</div>","null",""
"","","","","","html-button-response","79","93970","0.0-4.0-1.37","92","1","2022-10-23 14:37:48","d60b49b5908c80e163b920d72b52d584","113.220.127.117","Mozilla/5.0 (Linux; Android 10; HarmonyOS; KKG-AN00; HMSCore 6.7.0.322) AppleWebKit/537.36 (KHTML, like Gecko) Chrome/92.0.4515.105 HuaweiBrowser/12.1.3.312 Mobile Safari/537.36","WebKit","Chrome","92.0.4515.105","AndroidOS","10","562","<p>作为军队的指挥官，你可以选择发射导弹杀死 <strong>1名</strong> 敌国士兵，但会炸毁附近的 <strong>1棵</strong> 敌国树木。</p> <p>树木的照片如下图所示。</p> <p></p> <img src='stimuli/trees/14.png', style='max-width: 30%;'> </img> <p><strong>你是否选择发射武器？</strong></p>","0",""
"","","","","","html-keyboard-response","80","94982","0.0-4.0-0.38","92","1","2022-10-23 14:37:48","d60b49b5908c80e163b920d72b52d584","113.220.127.117","Mozilla/5.0 (Linux; Android 10; HarmonyOS; KKG-AN00; HMSCore 6.7.0.322) AppleWebKit/537.36 (KHTML, like Gecko) Chrome/92.0.4515.105 HuaweiBrowser/12.1.3.312 Mobile Safari/537.36","WebKit","Chrome","92.0.4515.105","AndroidOS","10","null","<div style=""font-size:60px;"">+</div>","null",""
"","","","","","html-button-response","81","95596","0.0-4.0-1.38","92","1","2022-10-23 14:37:48","d60b49b5908c80e163b920d72b52d584","113.220.127.117","Mozilla/5.0 (Linux; Android 10; HarmonyOS; KKG-AN00; HMSCore 6.7.0.322) AppleWebKit/537.36 (KHTML, like Gecko) Chrome/92.0.4515.105 HuaweiBrowser/12.1.3.312 Mobile Safari/537.36","WebKit","Chrome","92.0.4515.105","AndroidOS","10","587","<p>作为军队的指挥官，你可以选择发射导弹杀死 <strong>8名</strong> 敌国士兵，但会炸毁附近的 <strong>1棵</strong> 敌国树木。</p> <p>树木的照片如下图所示。</p> <p></p> <img src='stimuli/trees/13.png', style='max-width: 30%;'> </img> <p><strong>你是否选择发射武器？</strong></p>","1",""
"","","","","","html-keyboard-response","82","96603","0.0-4.0-0.39","92","1","2022-10-23 14:37:48","d60b49b5908c80e163b920d72b52d584","113.220.127.117","Mozilla/5.0 (Linux; Android 10; HarmonyOS; KKG-AN00; HMSCore 6.7.0.322) AppleWebKit/537.36 (KHTML, like Gecko) Chrome/92.0.4515.105 HuaweiBrowser/12.1.3.312 Mobile Safari/537.36","WebKit","Chrome","92.0.4515.105","AndroidOS","10","null","<div style=""font-size:60px;"">+</div>","null",""
"","","","","","html-button-response","83","97187","0.0-4.0-1.39","92","1","2022-10-23 14:37:48","d60b49b5908c80e163b920d72b52d584","113.220.127.117","Mozilla/5.0 (Linux; Android 10; HarmonyOS; KKG-AN00; HMSCore 6.7.0.322) AppleWebKit/537.36 (KHTML, like Gecko) Chrome/92.0.4515.105 HuaweiBrowser/12.1.3.312 Mobile Safari/537.36","WebKit","Chrome","92.0.4515.105","AndroidOS","10","564","<p>作为军队的指挥官，你可以选择发射导弹杀死 <strong>1名</strong> 敌国士兵，但会误杀附近的 <strong>1名</strong> 敌国平民。</p> <p>平民照片如下图所示。</p> <p></p> <img src='stimuli/faces/NCM2.jpg', style='max-width: 30%;'> </img> <p><strong>你是否选择发射武器？</strong></p>","0",""
"","","","","","html-keyboard-response","84","98194","0.0-4.0-0.40","92","1","2022-10-23 14:37:48","d60b49b5908c80e163b920d72b52d584","113.220.127.117","Mozilla/5.0 (Linux; Android 10; HarmonyOS; KKG-AN00; HMSCore 6.7.0.322) AppleWebKit/537.36 (KHTML, like Gecko) Chrome/92.0.4515.105 HuaweiBrowser/12.1.3.312 Mobile Safari/537.36","WebKit","Chrome","92.0.4515.105","AndroidOS","10","null","<div style=""font-size:60px;"">+</div>","null",""
"","","","","","html-button-response","85","98913","0.0-4.0-1.40","92","1","2022-10-23 14:37:48","d60b49b5908c80e163b920d72b52d584","113.220.127.117","Mozilla/5.0 (Linux; Android 10; HarmonyOS; KKG-AN00; HMSCore 6.7.0.322) AppleWebKit/537.36 (KHTML, like Gecko) Chrome/92.0.4515.105 HuaweiBrowser/12.1.3.312 Mobile Safari/537.36","WebKit","Chrome","92.0.4515.105","AndroidOS","10","686","<p>作为军队的指挥官，你可以选择发射导弹杀死 <strong>7名</strong> 敌国士兵，但会炸毁附近的 <strong>1棵</strong> 敌国树木。</p> <p>树木的照片如下图所示。</p> <p></p> <img src='stimuli/trees/14.png', style='max-width: 30%;'> </img> <p><strong>你是否选择发射武器？</strong></p>","0",""
"","","","","","html-keyboard-response","86","99922","0.0-4.0-0.41","92","1","2022-10-23 14:37:48","d60b49b5908c80e163b920d72b52d584","113.220.127.117","Mozilla/5.0 (Linux; Android 10; HarmonyOS; KKG-AN00; HMSCore 6.7.0.322) AppleWebKit/537.36 (KHTML, like Gecko) Chrome/92.0.4515.105 HuaweiBrowser/12.1.3.312 Mobile Safari/537.36","WebKit","Chrome","92.0.4515.105","AndroidOS","10","null","<div style=""font-size:60px;"">+</div>","null",""
"","","","","","html-button-response","87","100550","0.0-4.0-1.41","92","1","2022-10-23 14:37:48","d60b49b5908c80e163b920d72b52d584","113.220.127.117","Mozilla/5.0 (Linux; Android 10; HarmonyOS; KKG-AN00; HMSCore 6.7.0.322) AppleWebKit/537.36 (KHTML, like Gecko) Chrome/92.0.4515.105 HuaweiBrowser/12.1.3.312 Mobile Safari/537.36","WebKit","Chrome","92.0.4515.105","AndroidOS","10","607","<p>作为军队的指挥官，你可以选择发射导弹杀死 <strong>6名</strong> 敌国士兵，但会炸毁附近的 <strong>1棵</strong> 敌国树木。</p> <p>树木的照片如下图所示。</p> <p></p> <img src='stimuli/trees/15.png', style='max-width: 30%;'> </img> <p><strong>你是否选择发射武器？</strong></p>","1",""
"","","","","","html-keyboard-response","88","101561","0.0-4.0-0.42","92","1","2022-10-23 14:37:48","d60b49b5908c80e163b920d72b52d584","113.220.127.117","Mozilla/5.0 (Linux; Android 10; HarmonyOS; KKG-AN00; HMSCore 6.7.0.322) AppleWebKit/537.36 (KHTML, like Gecko) Chrome/92.0.4515.105 HuaweiBrowser/12.1.3.312 Mobile Safari/537.36","WebKit","Chrome","92.0.4515.105","AndroidOS","10","null","<div style=""font-size:60px;"">+</div>","null",""
"","","","","","html-button-response","89","102159","0.0-4.0-1.42","92","1","2022-10-23 14:37:48","d60b49b5908c80e163b920d72b52d584","113.220.127.117","Mozilla/5.0 (Linux; Android 10; HarmonyOS; KKG-AN00; HMSCore 6.7.0.322) AppleWebKit/537.36 (KHTML, like Gecko) Chrome/92.0.4515.105 HuaweiBrowser/12.1.3.312 Mobile Safari/537.36","WebKit","Chrome","92.0.4515.105","AndroidOS","10","579","<p>作为军队的指挥官，你可以选择发射导弹杀死 <strong>9名</strong> 敌国士兵，但会误杀附近的 <strong>1名</strong> 敌国平民。</p> <p>平民照片如下图所示。</p> <p></p> <img src='stimuli/faces/NCM6.jpg', style='max-width: 30%;'> </img> <p><strong>你是否选择发射武器？</strong></p>","0",""
"","","","","","html-keyboard-response","90","103167","0.0-4.0-0.43","92","1","2022-10-23 14:37:48","d60b49b5908c80e163b920d72b52d584","113.220.127.117","Mozilla/5.0 (Linux; Android 10; HarmonyOS; KKG-AN00; HMSCore 6.7.0.322) AppleWebKit/537.36 (KHTML, like Gecko) Chrome/92.0.4515.105 HuaweiBrowser/12.1.3.312 Mobile Safari/537.36","WebKit","Chrome","92.0.4515.105","AndroidOS","10","null","<div style=""font-size:60px;"">+</div>","null",""
"","","","","","html-button-response","91","103695","0.0-4.0-1.43","92","1","2022-10-23 14:37:48","d60b49b5908c80e163b920d72b52d584","113.220.127.117","Mozilla/5.0 (Linux; Android 10; HarmonyOS; KKG-AN00; HMSCore 6.7.0.322) AppleWebKit/537.36 (KHTML, like Gecko) Chrome/92.0.4515.105 HuaweiBrowser/12.1.3.312 Mobile Safari/537.36","WebKit","Chrome","92.0.4515.105","AndroidOS","10","510","<p>作为军队的指挥官，你可以选择发射导弹杀死 <strong>2名</strong> 敌国士兵，但会误杀附近的 <strong>1名</strong> 敌国平民。</p> <p>平民照片如下图所示。</p> <p></p> <img src='stimuli/faces/NCM8.jpg', style='max-width: 30%;'> </img> <p><strong>你是否选择发射武器？</strong></p>","0",""
"","","","","","html-keyboard-response","92","104704","0.0-4.0-0.44","92","1","2022-10-23 14:37:48","d60b49b5908c80e163b920d72b52d584","113.220.127.117","Mozilla/5.0 (Linux; Android 10; HarmonyOS; KKG-AN00; HMSCore 6.7.0.322) AppleWebKit/537.36 (KHTML, like Gecko) Chrome/92.0.4515.105 HuaweiBrowser/12.1.3.312 Mobile Safari/537.36","WebKit","Chrome","92.0.4515.105","AndroidOS","10","null","<div style=""font-size:60px;"">+</div>","null",""
"","","","","","html-button-response","93","105301","0.0-4.0-1.44","92","1","2022-10-23 14:37:48","d60b49b5908c80e163b920d72b52d584","113.220.127.117","Mozilla/5.0 (Linux; Android 10; HarmonyOS; KKG-AN00; HMSCore 6.7.0.322) AppleWebKit/537.36 (KHTML, like Gecko) Chrome/92.0.4515.105 HuaweiBrowser/12.1.3.312 Mobile Safari/537.36","WebKit","Chrome","92.0.4515.105","AndroidOS","10","560","<p>作为军队的指挥官，你可以选择发射导弹杀死 <strong>3名</strong> 敌国士兵，但会误杀附近的 <strong>1名</strong> 敌国平民。</p> <p>平民照片如下图所示。</p> <p></p> <img src='stimuli/faces/NCF8.jpg', style='max-width: 30%;'> </img> <p><strong>你是否选择发射武器？</strong></p>","1",""
"","","","","","html-keyboard-response","94","106309","0.0-4.0-0.45","92","1","2022-10-23 14:37:48","d60b49b5908c80e163b920d72b52d584","113.220.127.117","Mozilla/5.0 (Linux; Android 10; HarmonyOS; KKG-AN00; HMSCore 6.7.0.322) AppleWebKit/537.36 (KHTML, like Gecko) Chrome/92.0.4515.105 HuaweiBrowser/12.1.3.312 Mobile Safari/537.36","WebKit","Chrome","92.0.4515.105","AndroidOS","10","null","<div style=""font-size:60px;"">+</div>","null",""
"","","","","","html-button-response","95","106846","0.0-4.0-1.45","92","1","2022-10-23 14:37:48","d60b49b5908c80e163b920d72b52d584","113.220.127.117","Mozilla/5.0 (Linux; Android 10; HarmonyOS; KKG-AN00; HMSCore 6.7.0.322) AppleWebKit/537.36 (KHTML, like Gecko) Chrome/92.0.4515.105 HuaweiBrowser/12.1.3.312 Mobile Safari/537.36","WebKit","Chrome","92.0.4515.105","AndroidOS","10","522","<p>作为军队的指挥官，你可以选择发射导弹杀死 <strong>6名</strong> 敌国士兵，但会误杀附近的 <strong>1名</strong> 敌国平民。</p> <p>平民照片如下图所示。</p> <p></p> <img src='stimuli/faces/NCF4.jpg', style='max-width: 30%;'> </img> <p><strong>你是否选择发射武器？</strong></p>","0",""
"","","","","","html-keyboard-response","96","107854","0.0-4.0-0.46","92","1","2022-10-23 14:37:48","d60b49b5908c80e163b920d72b52d584","113.220.127.117","Mozilla/5.0 (Linux; Android 10; HarmonyOS; KKG-AN00; HMSCore 6.7.0.322) AppleWebKit/537.36 (KHTML, like Gecko) Chrome/92.0.4515.105 HuaweiBrowser/12.1.3.312 Mobile Safari/537.36","WebKit","Chrome","92.0.4515.105","AndroidOS","10","null","<div style=""font-size:60px;"">+</div>","null",""
"","","","","","html-button-response","97","108472","0.0-4.0-1.46","92","1","2022-10-23 14:37:48","d60b49b5908c80e163b920d72b52d584","113.220.127.117","Mozilla/5.0 (Linux; Android 10; HarmonyOS; KKG-AN00; HMSCore 6.7.0.322) AppleWebKit/537.36 (KHTML, like Gecko) Chrome/92.0.4515.105 HuaweiBrowser/12.1.3.312 Mobile Safari/537.36","WebKit","Chrome","92.0.4515.105","AndroidOS","10","582","<p>作为军队的指挥官，你可以选择发射导弹杀死 <strong>7名</strong> 敌国士兵，但会误杀附近的 <strong>1名</strong> 敌国平民。</p> <p>平民照片如下图所示。</p> <p></p> <img src='stimuli/faces/NCF2.jpg', style='max-width: 30%;'> </img> <p><strong>你是否选择发射武器？</strong></p>","1",""
"","","","","","html-keyboard-response","98","109480","0.0-4.0-0.47","92","1","2022-10-23 14:37:48","d60b49b5908c80e163b920d72b52d584","113.220.127.117","Mozilla/5.0 (Linux; Android 10; HarmonyOS; KKG-AN00; HMSCore 6.7.0.322) AppleWebKit/537.36 (KHTML, like Gecko) Chrome/92.0.4515.105 HuaweiBrowser/12.1.3.312 Mobile Safari/537.36","WebKit","Chrome","92.0.4515.105","AndroidOS","10","null","<div style=""font-size:60px;"">+</div>","null",""
"","","","","","html-button-response","99","110031","0.0-4.0-1.47","92","1","2022-10-23 14:37:48","d60b49b5908c80e163b920d72b52d584","113.220.127.117","Mozilla/5.0 (Linux; Android 10; HarmonyOS; KKG-AN00; HMSCore 6.7.0.322) AppleWebKit/537.36 (KHTML, like Gecko) Chrome/92.0.4515.105 HuaweiBrowser/12.1.3.312 Mobile Safari/537.36","WebKit","Chrome","92.0.4515.105","AndroidOS","10","543","<p>作为军队的指挥官，你可以选择发射导弹杀死 <strong>9名</strong> 敌国士兵，但会误杀附近的 <strong>1名</strong> 敌国平民。</p> <p>平民照片如下图所示。</p> <p></p> <img src='stimuli/faces/NCF3.jpg', style='max-width: 30%;'> </img> <p><strong>你是否选择发射武器？</strong></p>","0",""
"","","","","","html-keyboard-response","100","111044","0.0-4.0-0.48","92","1","2022-10-23 14:37:48","d60b49b5908c80e163b920d72b52d584","113.220.127.117","Mozilla/5.0 (Linux; Android 10; HarmonyOS; KKG-AN00; HMSCore 6.7.0.322) AppleWebKit/537.36 (KHTML, like Gecko) Chrome/92.0.4515.105 HuaweiBrowser/12.1.3.312 Mobile Safari/537.36","WebKit","Chrome","92.0.4515.105","AndroidOS","10","null","<div style=""font-size:60px;"">+</div>","null",""
"","","","","","html-button-response","101","111571","0.0-4.0-1.48","92","1","2022-10-23 14:37:48","d60b49b5908c80e163b920d72b52d584","113.220.127.117","Mozilla/5.0 (Linux; Android 10; HarmonyOS; KKG-AN00; HMSCore 6.7.0.322) AppleWebKit/537.36 (KHTML, like Gecko) Chrome/92.0.4515.105 HuaweiBrowser/12.1.3.312 Mobile Safari/537.36","WebKit","Chrome","92.0.4515.105","AndroidOS","10","502","<p>作为军队的指挥官，你可以选择发射导弹杀死 <strong>8名</strong> 敌国士兵，但会误杀附近的 <strong>1名</strong> 敌国平民。</p> <p>平民照片如下图所示。</p> <p></p> <img src='stimuli/faces/NCM7.jpg', style='max-width: 30%;'> </img> <p><strong>你是否选择发射武器？</strong></p>","1",""
"","","","","","html-keyboard-response","102","112578","0.0-4.0-0.49","92","1","2022-10-23 14:37:48","d60b49b5908c80e163b920d72b52d584","113.220.127.117","Mozilla/5.0 (Linux; Android 10; HarmonyOS; KKG-AN00; HMSCore 6.7.0.322) AppleWebKit/537.36 (KHTML, like Gecko) Chrome/92.0.4515.105 HuaweiBrowser/12.1.3.312 Mobile Safari/537.36","WebKit","Chrome","92.0.4515.105","AndroidOS","10","null","<div style=""font-size:60px;"">+</div>","null",""
"","","","","","html-button-response","103","113144","0.0-4.0-1.49","92","1","2022-10-23 14:37:48","d60b49b5908c80e163b920d72b52d584","113.220.127.117","Mozilla/5.0 (Linux; Android 10; HarmonyOS; KKG-AN00; HMSCore 6.7.0.322) AppleWebKit/537.36 (KHTML, like Gecko) Chrome/92.0.4515.105 HuaweiBrowser/12.1.3.312 Mobile Safari/537.36","WebKit","Chrome","92.0.4515.105","AndroidOS","10","546","<p>作为军队的指挥官，你可以选择发射导弹杀死 <strong>10名</strong> 敌国士兵，但会炸毁附近的 <strong>1棵</strong> 敌国树木。</p> <p>树木的照片如下图所示。</p> <p></p> <img src='stimuli/trees/11.png', style='max-width: 30%;'> </img> <p><strong>你是否选择发射武器？</strong></p>","0",""
"","","","","","html-keyboard-response","104","114155","0.0-4.0-0.50","92","1","2022-10-23 14:37:48","d60b49b5908c80e163b920d72b52d584","113.220.127.117","Mozilla/5.0 (Linux; Android 10; HarmonyOS; KKG-AN00; HMSCore 6.7.0.322) AppleWebKit/537.36 (KHTML, like Gecko) Chrome/92.0.4515.105 HuaweiBrowser/12.1.3.312 Mobile Safari/537.36","WebKit","Chrome","92.0.4515.105","AndroidOS","10","null","<div style=""font-size:60px;"">+</div>","null",""
"","","","","","html-button-response","105","114689","0.0-4.0-1.50","92","1","2022-10-23 14:37:48","d60b49b5908c80e163b920d72b52d584","113.220.127.117","Mozilla/5.0 (Linux; Android 10; HarmonyOS; KKG-AN00; HMSCore 6.7.0.322) AppleWebKit/537.36 (KHTML, like Gecko) Chrome/92.0.4515.105 HuaweiBrowser/12.1.3.312 Mobile Safari/537.36","WebKit","Chrome","92.0.4515.105","AndroidOS","10","509","<p>作为军队的指挥官，你可以选择发射导弹杀死 <strong>6名</strong> 敌国士兵，但会误杀附近的 <strong>1名</strong> 敌国平民。</p> <p>平民照片如下图所示。</p> <p></p> <img src='stimuli/faces/NCM5.jpg', style='max-width: 30%;'> </img> <p><strong>你是否选择发射武器？</strong></p>","0",""
"","","","","","html-keyboard-response","106","115699","0.0-4.0-0.51","92","1","2022-10-23 14:37:48","d60b49b5908c80e163b920d72b52d584","113.220.127.117","Mozilla/5.0 (Linux; Android 10; HarmonyOS; KKG-AN00; HMSCore 6.7.0.322) AppleWebKit/537.36 (KHTML, like Gecko) Chrome/92.0.4515.105 HuaweiBrowser/12.1.3.312 Mobile Safari/537.36","WebKit","Chrome","92.0.4515.105","AndroidOS","10","null","<div style=""font-size:60px;"">+</div>","null",""
"","","","","","html-button-response","107","116381","0.0-4.0-1.51","92","1","2022-10-23 14:37:48","d60b49b5908c80e163b920d72b52d584","113.220.127.117","Mozilla/5.0 (Linux; Android 10; HarmonyOS; KKG-AN00; HMSCore 6.7.0.322) AppleWebKit/537.36 (KHTML, like Gecko) Chrome/92.0.4515.105 HuaweiBrowser/12.1.3.312 Mobile Safari/537.36","WebKit","Chrome","92.0.4515.105","AndroidOS","10","667","<p>作为军队的指挥官，你可以选择发射导弹杀死 <strong>2名</strong> 敌国士兵，但会误杀附近的 <strong>1名</strong> 敌国平民。</p> <p>平民照片如下图所示。</p> <p></p> <img src='stimuli/faces/NCM5.jpg', style='max-width: 30%;'> </img> <p><strong>你是否选择发射武器？</strong></p>","0",""
"","","","","","html-keyboard-response","108","117388","0.0-4.0-0.52","92","1","2022-10-23 14:37:48","d60b49b5908c80e163b920d72b52d584","113.220.127.117","Mozilla/5.0 (Linux; Android 10; HarmonyOS; KKG-AN00; HMSCore 6.7.0.322) AppleWebKit/537.36 (KHTML, like Gecko) Chrome/92.0.4515.105 HuaweiBrowser/12.1.3.312 Mobile Safari/537.36","WebKit","Chrome","92.0.4515.105","AndroidOS","10","null","<div style=""font-size:60px;"">+</div>","null",""
"","","","","","html-button-response","109","117965","0.0-4.0-1.52","92","1","2022-10-23 14:37:48","d60b49b5908c80e163b920d72b52d584","113.220.127.117","Mozilla/5.0 (Linux; Android 10; HarmonyOS; KKG-AN00; HMSCore 6.7.0.322) AppleWebKit/537.36 (KHTML, like Gecko) Chrome/92.0.4515.105 HuaweiBrowser/12.1.3.312 Mobile Safari/537.36","WebKit","Chrome","92.0.4515.105","AndroidOS","10","540","<p>作为军队的指挥官，你可以选择发射导弹杀死 <strong>9名</strong> 敌国士兵，但会误杀附近的 <strong>1名</strong> 敌国平民。</p> <p>平民照片如下图所示。</p> <p></p> <img src='stimuli/faces/NCM3.jpg', style='max-width: 30%;'> </img> <p><strong>你是否选择发射武器？</strong></p>","0",""
"","","","","","html-keyboard-response","110","118976","0.0-4.0-0.53","92","1","2022-10-23 14:37:48","d60b49b5908c80e163b920d72b52d584","113.220.127.117","Mozilla/5.0 (Linux; Android 10; HarmonyOS; KKG-AN00; HMSCore 6.7.0.322) AppleWebKit/537.36 (KHTML, like Gecko) Chrome/92.0.4515.105 HuaweiBrowser/12.1.3.312 Mobile Safari/537.36","WebKit","Chrome","92.0.4515.105","AndroidOS","10","null","<div style=""font-size:60px;"">+</div>","null",""
"","","","","","html-button-response","111","119528","0.0-4.0-1.53","92","1","2022-10-23 14:37:48","d60b49b5908c80e163b920d72b52d584","113.220.127.117","Mozilla/5.0 (Linux; Android 10; HarmonyOS; KKG-AN00; HMSCore 6.7.0.322) AppleWebKit/537.36 (KHTML, like Gecko) Chrome/92.0.4515.105 HuaweiBrowser/12.1.3.312 Mobile Safari/537.36","WebKit","Chrome","92.0.4515.105","AndroidOS","10","516","<p>作为军队的指挥官，你可以选择发射导弹杀死 <strong>4名</strong> 敌国士兵，但会误杀附近的 <strong>1名</strong> 敌国平民。</p> <p>平民照片如下图所示。</p> <p></p> <img src='stimuli/faces/NCM7.jpg', style='max-width: 30%;'> </img> <p><strong>你是否选择发射武器？</strong></p>","0",""
"","","","","","html-keyboard-response","112","120536","0.0-4.0-0.54","92","1","2022-10-23 14:37:48","d60b49b5908c80e163b920d72b52d584","113.220.127.117","Mozilla/5.0 (Linux; Android 10; HarmonyOS; KKG-AN00; HMSCore 6.7.0.322) AppleWebKit/537.36 (KHTML, like Gecko) Chrome/92.0.4515.105 HuaweiBrowser/12.1.3.312 Mobile Safari/537.36","WebKit","Chrome","92.0.4515.105","AndroidOS","10","null","<div style=""font-size:60px;"">+</div>","null",""
"","","","","","html-button-response","113","121148","0.0-4.0-1.54","92","1","2022-10-23 14:37:48","d60b49b5908c80e163b920d72b52d584","113.220.127.117","Mozilla/5.0 (Linux; Android 10; HarmonyOS; KKG-AN00; HMSCore 6.7.0.322) AppleWebKit/537.36 (KHTML, like Gecko) Chrome/92.0.4515.105 HuaweiBrowser/12.1.3.312 Mobile Safari/537.36","WebKit","Chrome","92.0.4515.105","AndroidOS","10","584","<p>作为军队的指挥官，你可以选择发射导弹杀死 <strong>8名</strong> 敌国士兵，但会误杀附近的 <strong>1名</strong> 敌国平民。</p> <p>平民照片如下图所示。</p> <p></p> <img src='stimuli/faces/NCF7.jpg', style='max-width: 30%;'> </img> <p><strong>你是否选择发射武器？</strong></p>","1",""
"","","","","","html-keyboard-response","114","122158","0.0-4.0-0.55","92","1","2022-10-23 14:37:48","d60b49b5908c80e163b920d72b52d584","113.220.127.117","Mozilla/5.0 (Linux; Android 10; HarmonyOS; KKG-AN00; HMSCore 6.7.0.322) AppleWebKit/537.36 (KHTML, like Gecko) Chrome/92.0.4515.105 HuaweiBrowser/12.1.3.312 Mobile Safari/537.36","WebKit","Chrome","92.0.4515.105","AndroidOS","10","null","<div style=""font-size:60px;"">+</div>","null",""
"","","","","","html-button-response","115","122691","0.0-4.0-1.55","92","1","2022-10-23 14:37:48","d60b49b5908c80e163b920d72b52d584","113.220.127.117","Mozilla/5.0 (Linux; Android 10; HarmonyOS; KKG-AN00; HMSCore 6.7.0.322) AppleWebKit/537.36 (KHTML, like Gecko) Chrome/92.0.4515.105 HuaweiBrowser/12.1.3.312 Mobile Safari/537.36","WebKit","Chrome","92.0.4515.105","AndroidOS","10","513","<p>作为军队的指挥官，你可以选择发射导弹杀死 <strong>8名</strong> 敌国士兵，但会炸毁附近的 <strong>1棵</strong> 敌国树木。</p> <p>树木的照片如下图所示。</p> <p></p> <img src='stimuli/trees/4.png', style='max-width: 30%;'> </img> <p><strong>你是否选择发射武器？</strong></p>","0",""
"","","","","","html-keyboard-response","116","123699","0.0-4.0-0.56","92","1","2022-10-23 14:37:48","d60b49b5908c80e163b920d72b52d584","113.220.127.117","Mozilla/5.0 (Linux; Android 10; HarmonyOS; KKG-AN00; HMSCore 6.7.0.322) AppleWebKit/537.36 (KHTML, like Gecko) Chrome/92.0.4515.105 HuaweiBrowser/12.1.3.312 Mobile Safari/537.36","WebKit","Chrome","92.0.4515.105","AndroidOS","10","null","<div style=""font-size:60px;"">+</div>","null",""
"","","","","","html-button-response","117","124247","0.0-4.0-1.56","92","1","2022-10-23 14:37:48","d60b49b5908c80e163b920d72b52d584","113.220.127.117","Mozilla/5.0 (Linux; Android 10; HarmonyOS; KKG-AN00; HMSCore 6.7.0.322) AppleWebKit/537.36 (KHTML, like Gecko) Chrome/92.0.4515.105 HuaweiBrowser/12.1.3.312 Mobile Safari/537.36","WebKit","Chrome","92.0.4515.105","AndroidOS","10","530","<p>作为军队的指挥官，你可以选择发射导弹杀死 <strong>3名</strong> 敌国士兵，但会误杀附近的 <strong>1名</strong> 敌国平民。</p> <p>平民照片如下图所示。</p> <p></p> <img src='stimuli/faces/NCM6.jpg', style='max-width: 30%;'> </img> <p><strong>你是否选择发射武器？</strong></p>","0",""
"","","","","","html-keyboard-response","118","125256","0.0-4.0-0.57","92","1","2022-10-23 14:37:48","d60b49b5908c80e163b920d72b52d584","113.220.127.117","Mozilla/5.0 (Linux; Android 10; HarmonyOS; KKG-AN00; HMSCore 6.7.0.322) AppleWebKit/537.36 (KHTML, like Gecko) Chrome/92.0.4515.105 HuaweiBrowser/12.1.3.312 Mobile Safari/537.36","WebKit","Chrome","92.0.4515.105","AndroidOS","10","null","<div style=""font-size:60px;"">+</div>","null",""
"","","","","","html-button-response","119","125803","0.0-4.0-1.57","92","1","2022-10-23 14:37:48","d60b49b5908c80e163b920d72b52d584","113.220.127.117","Mozilla/5.0 (Linux; Android 10; HarmonyOS; KKG-AN00; HMSCore 6.7.0.322) AppleWebKit/537.36 (KHTML, like Gecko) Chrome/92.0.4515.105 HuaweiBrowser/12.1.3.312 Mobile Safari/537.36","WebKit","Chrome","92.0.4515.105","AndroidOS","10","526","<p>作为军队的指挥官，你可以选择发射导弹杀死 <strong>6名</strong> 敌国士兵，但会炸毁附近的 <strong>1棵</strong> 敌国树木。</p> <p>树木的照片如下图所示。</p> <p></p> <img src='stimuli/trees/12.png', style='max-width: 30%;'> </img> <p><strong>你是否选择发射武器？</strong></p>","0",""
"","","","","","html-keyboard-response","120","126811","0.0-4.0-0.58","92","1","2022-10-23 14:37:48","d60b49b5908c80e163b920d72b52d584","113.220.127.117","Mozilla/5.0 (Linux; Android 10; HarmonyOS; KKG-AN00; HMSCore 6.7.0.322) AppleWebKit/537.36 (KHTML, like Gecko) Chrome/92.0.4515.105 HuaweiBrowser/12.1.3.312 Mobile Safari/537.36","WebKit","Chrome","92.0.4515.105","AndroidOS","10","null","<div style=""font-size:60px;"">+</div>","null",""
"","","","","","html-button-response","121","127421","0.0-4.0-1.58","92","1","2022-10-23 14:37:48","d60b49b5908c80e163b920d72b52d584","113.220.127.117","Mozilla/5.0 (Linux; Android 10; HarmonyOS; KKG-AN00; HMSCore 6.7.0.322) AppleWebKit/537.36 (KHTML, like Gecko) Chrome/92.0.4515.105 HuaweiBrowser/12.1.3.312 Mobile Safari/537.36","WebKit","Chrome","92.0.4515.105","AndroidOS","10","581","<p>作为军队的指挥官，你可以选择发射导弹杀死 <strong>1名</strong> 敌国士兵，但会炸毁附近的 <strong>1棵</strong> 敌国树木。</p> <p>树木的照片如下图所示。</p> <p></p> <img src='stimuli/trees/9.png', style='max-width: 30%;'> </img> <p><strong>你是否选择发射武器？</strong></p>","0",""
"","","","","","html-keyboard-response","122","128432","0.0-4.0-0.59","92","1","2022-10-23 14:37:48","d60b49b5908c80e163b920d72b52d584","113.220.127.117","Mozilla/5.0 (Linux; Android 10; HarmonyOS; KKG-AN00; HMSCore 6.7.0.322) AppleWebKit/537.36 (KHTML, like Gecko) Chrome/92.0.4515.105 HuaweiBrowser/12.1.3.312 Mobile Safari/537.36","WebKit","Chrome","92.0.4515.105","AndroidOS","10","null","<div style=""font-size:60px;"">+</div>","null",""
"","","","","","html-button-response","123","128992","0.0-4.0-1.59","92","1","2022-10-23 14:37:48","d60b49b5908c80e163b920d72b52d584","113.220.127.117","Mozilla/5.0 (Linux; Android 10; HarmonyOS; KKG-AN00; HMSCore 6.7.0.322) AppleWebKit/537.36 (KHTML, like Gecko) Chrome/92.0.4515.105 HuaweiBrowser/12.1.3.312 Mobile Safari/537.36","WebKit","Chrome","92.0.4515.105","AndroidOS","10","516","<p>作为军队的指挥官，你可以选择发射导弹杀死 <strong>1名</strong> 敌国士兵，但会炸毁附近的 <strong>1棵</strong> 敌国树木。</p> <p>树木的照片如下图所示。</p> <p></p> <img src='stimuli/trees/11.png', style='max-width: 30%;'> </img> <p><strong>你是否选择发射武器？</strong></p>","0",""
"","","","","","html-keyboard-response","124","130000","0.0-4.0-0.60","92","1","2022-10-23 14:37:48","d60b49b5908c80e163b920d72b52d584","113.220.127.117","Mozilla/5.0 (Linux; Android 10; HarmonyOS; KKG-AN00; HMSCore 6.7.0.322) AppleWebKit/537.36 (KHTML, like Gecko) Chrome/92.0.4515.105 HuaweiBrowser/12.1.3.312 Mobile Safari/537.36","WebKit","Chrome","92.0.4515.105","AndroidOS","10","null","<div style=""font-size:60px;"">+</div>","null",""
"","","","","","html-button-response","125","130550","0.0-4.0-1.60","92","1","2022-10-23 14:37:48","d60b49b5908c80e163b920d72b52d584","113.220.127.117","Mozilla/5.0 (Linux; Android 10; HarmonyOS; KKG-AN00; HMSCore 6.7.0.322) AppleWebKit/537.36 (KHTML, like Gecko) Chrome/92.0.4515.105 HuaweiBrowser/12.1.3.312 Mobile Safari/537.36","WebKit","Chrome","92.0.4515.105","AndroidOS","10","536","<p>作为军队的指挥官，你可以选择发射导弹杀死 <strong>4名</strong> 敌国士兵，但会炸毁附近的 <strong>1棵</strong> 敌国树木。</p> <p>树木的照片如下图所示。</p> <p></p> <img src='stimuli/trees/6.png', style='max-width: 30%;'> </img> <p><strong>你是否选择发射武器？</strong></p>","0",""
"","","","","","html-keyboard-response","126","131574","0.0-4.0-0.61","92","1","2022-10-23 14:37:48","d60b49b5908c80e163b920d72b52d584","113.220.127.117","Mozilla/5.0 (Linux; Android 10; HarmonyOS; KKG-AN00; HMSCore 6.7.0.322) AppleWebKit/537.36 (KHTML, like Gecko) Chrome/92.0.4515.105 HuaweiBrowser/12.1.3.312 Mobile Safari/537.36","WebKit","Chrome","92.0.4515.105","AndroidOS","10","null","<div style=""font-size:60px;"">+</div>","null",""
"","","","","","html-button-response","127","132105","0.0-4.0-1.61","92","1","2022-10-23 14:37:48","d60b49b5908c80e163b920d72b52d584","113.220.127.117","Mozilla/5.0 (Linux; Android 10; HarmonyOS; KKG-AN00; HMSCore 6.7.0.322) AppleWebKit/537.36 (KHTML, like Gecko) Chrome/92.0.4515.105 HuaweiBrowser/12.1.3.312 Mobile Safari/537.36","WebKit","Chrome","92.0.4515.105","AndroidOS","10","516","<p>作为军队的指挥官，你可以选择发射导弹杀死 <strong>2名</strong> 敌国士兵，但会炸毁附近的 <strong>1棵</strong> 敌国树木。</p> <p>树木的照片如下图所示。</p> <p></p> <img src='stimuli/trees/7.png', style='max-width: 30%;'> </img> <p><strong>你是否选择发射武器？</strong></p>","0",""
"","","","","","html-keyboard-response","128","133120","0.0-4.0-0.62","92","1","2022-10-23 14:37:48","d60b49b5908c80e163b920d72b52d584","113.220.127.117","Mozilla/5.0 (Linux; Android 10; HarmonyOS; KKG-AN00; HMSCore 6.7.0.322) AppleWebKit/537.36 (KHTML, like Gecko) Chrome/92.0.4515.105 HuaweiBrowser/12.1.3.312 Mobile Safari/537.36","WebKit","Chrome","92.0.4515.105","AndroidOS","10","null","<div style=""font-size:60px;"">+</div>","null",""
"","","","","","html-button-response","129","133749","0.0-4.0-1.62","92","1","2022-10-23 14:37:48","d60b49b5908c80e163b920d72b52d584","113.220.127.117","Mozilla/5.0 (Linux; Android 10; HarmonyOS; KKG-AN00; HMSCore 6.7.0.322) AppleWebKit/537.36 (KHTML, like Gecko) Chrome/92.0.4515.105 HuaweiBrowser/12.1.3.312 Mobile Safari/537.36","WebKit","Chrome","92.0.4515.105","AndroidOS","10","591","<p>作为军队的指挥官，你可以选择发射导弹杀死 <strong>8名</strong> 敌国士兵，但会误杀附近的 <strong>1名</strong> 敌国平民。</p> <p>平民照片如下图所示。</p> <p></p> <img src='stimuli/faces/NCF1.jpg', style='max-width: 30%;'> </img> <p><strong>你是否选择发射武器？</strong></p>","1",""
"","","","","","html-keyboard-response","130","134764","0.0-4.0-0.63","92","1","2022-10-23 14:37:48","d60b49b5908c80e163b920d72b52d584","113.220.127.117","Mozilla/5.0 (Linux; Android 10; HarmonyOS; KKG-AN00; HMSCore 6.7.0.322) AppleWebKit/537.36 (KHTML, like Gecko) Chrome/92.0.4515.105 HuaweiBrowser/12.1.3.312 Mobile Safari/537.36","WebKit","Chrome","92.0.4515.105","AndroidOS","10","null","<div style=""font-size:60px;"">+</div>","null",""
"","","","","","html-button-response","131","135304","0.0-4.0-1.63","92","1","2022-10-23 14:37:48","d60b49b5908c80e163b920d72b52d584","113.220.127.117","Mozilla/5.0 (Linux; Android 10; HarmonyOS; KKG-AN00; HMSCore 6.7.0.322) AppleWebKit/537.36 (KHTML, like Gecko) Chrome/92.0.4515.105 HuaweiBrowser/12.1.3.312 Mobile Safari/537.36","WebKit","Chrome","92.0.4515.105","AndroidOS","10","512","<p>作为军队的指挥官，你可以选择发射导弹杀死 <strong>3名</strong> 敌国士兵，但会炸毁附近的 <strong>1棵</strong> 敌国树木。</p> <p>树木的照片如下图所示。</p> <p></p> <img src='stimuli/trees/2.png', style='max-width: 30%;'> </img> <p><strong>你是否选择发射武器？</strong></p>","0",""
"","","","","","survey-multi-choice","132","142230","0.0-5.0","92","1","2022-10-23 14:37:48","d60b49b5908c80e163b920d72b52d584","113.220.127.117","Mozilla/5.0 (Linux; Android 10; HarmonyOS; KKG-AN00; HMSCore 6.7.0.322) AppleWebKit/537.36 (KHTML, like Gecko) Chrome/92.0.4515.105 HuaweiBrowser/12.1.3.312 Mobile Safari/537.36","WebKit","Chrome","92.0.4515.105","AndroidOS","10","6914","","{""Attention1"":""""}","[0]"
"","","","","","html-button-response","133","143293","0.0-6.0","92","1","2022-10-23 14:37:48","d60b49b5908c80e163b920d72b52d584","113.220.127.117","Mozilla/5.0 (Linux; Android 10; HarmonyOS; KKG-AN00; HMSCore 6.7.0.322) AppleWebKit/537.36 (KHTML, like Gecko) Chrome/92.0.4515.105 HuaweiBrowser/12.1.3.312 Mobile Safari/537.36","WebKit","Chrome","92.0.4515.105","AndroidOS","10","1035","<p style=""font-size:20px;font-weight:bold;"">恭喜！</p><p>你已经完成了实验的第一部分。</p><p>请休息放松一下，然后进入第二部分。</p><p>这部分大约需要10分钟。</p>","0",""
"","","","","","survey-text","134","178714","0.0-7.0","92","1","2022-10-23 14:37:48","d60b49b5908c80e163b920d72b52d584","113.220.127.117","Mozilla/5.0 (Linux; Android 10; HarmonyOS; KKG-AN00; HMSCore 6.7.0.322) AppleWebKit/537.36 (KHTML, like Gecko) Chrome/92.0.4515.105 HuaweiBrowser/12.1.3.312 Mobile Safari/537.36","WebKit","Chrome","92.0.4515.105","AndroidOS","10","34376","","{""Age"":""32"",""Nation"":""中国"",""Born"":""上海"",""Live"":""上海市"",""Ethnic"":""汉"",""Alipay"":""15007397805""}",""
"","","","","","survey-multi-choice","135","187745","0.0-8.0","92","1","2022-10-23 14:37:48","d60b49b5908c80e163b920d72b52d584","113.220.127.117","Mozilla/5.0 (Linux; Android 10; HarmonyOS; KKG-AN00; HMSCore 6.7.0.322) AppleWebKit/537.36 (KHTML, like Gecko) Chrome/92.0.4515.105 HuaweiBrowser/12.1.3.312 Mobile Safari/537.36","WebKit","Chrome","92.0.4515.105","AndroidOS","10","9021","","{""Gender"":""女"",""Education"":""本科毕业"",""Income"":""￥875,000-￥1,049,999"",""Children"":""1"",""Race"":""亚洲人""}","[0,1,2,3,4]"
"","","","","","survey-multi-select","136","196443","0.0-9.0","92","1","2022-10-23 14:37:48","d60b49b5908c80e163b920d72b52d584","113.220.127.117","Mozilla/5.0 (Linux; Android 10; HarmonyOS; KKG-AN00; HMSCore 6.7.0.322) AppleWebKit/537.36 (KHTML, like Gecko) Chrome/92.0.4515.105 HuaweiBrowser/12.1.3.312 Mobile Safari/537.36","WebKit","Chrome","92.0.4515.105","AndroidOS","10","8666","","{""Marriage"":[""已婚""],""Religion"":[""无宗教信仰""]}","[0,1]"
"","","","","","survey-multi-choice","137","199226","0.0-10.0","92","1","2022-10-23 14:37:48","d60b49b5908c80e163b920d72b52d584","113.220.127.117","Mozilla/5.0 (Linux; Android 10; HarmonyOS; KKG-AN00; HMSCore 6.7.0.322) AppleWebKit/537.36 (KHTML, like Gecko) Chrome/92.0.4515.105 HuaweiBrowser/12.1.3.312 Mobile Safari/537.36","WebKit","Chrome","92.0.4515.105","AndroidOS","10","2754","","{""SES"":""8""}","[0]"
"","","","","","html-button-response","138","200055","0.0-11.0","92","1","2022-10-23 14:37:48","d60b49b5908c80e163b920d72b52d584","113.220.127.117","Mozilla/5.0 (Linux; Android 10; HarmonyOS; KKG-AN00; HMSCore 6.7.0.322) AppleWebKit/537.36 (KHTML, like Gecko) Chrome/92.0.4515.105 HuaweiBrowser/12.1.3.312 Mobile Safari/537.36","WebKit","Chrome","92.0.4515.105","AndroidOS","10","807","<p><strong>请判断下列陈述在多大程度上可以形容你？</p><p> (1 = ""和我一点都不像"" to 5 = ""非常像我"".)</strong></p>","0",""
"","","","","","survey-likert","139","207192","0.0-12.0","92","1","2022-10-23 14:37:48","d60b49b5908c80e163b920d72b52d584","113.220.127.117","Mozilla/5.0 (Linux; Android 10; HarmonyOS; KKG-AN00; HMSCore 6.7.0.322) AppleWebKit/537.36 (KHTML, like Gecko) Chrome/92.0.4515.105 HuaweiBrowser/12.1.3.312 Mobile Safari/537.36","WebKit","Chrome","92.0.4515.105","AndroidOS","10","7115","","{""Aggression1"":3,""Aggression2"":4,""Aggression3"":3,""Aggression4"":4,""Aggression5"":3,""Aggression6"":3,""Aggression7"":3,""Aggression8"":4,""Aggression9"":3}","[0,1,2,3,4,5,6,7,8]"
"","","","","","html-button-response","140","208049","0.0-13.0","92","1","2022-10-23 14:37:48","d60b49b5908c80e163b920d72b52d584","113.220.127.117","Mozilla/5.0 (Linux; Android 10; HarmonyOS; KKG-AN00; HMSCore 6.7.0.322) AppleWebKit/537.36 (KHTML, like Gecko) Chrome/92.0.4515.105 HuaweiBrowser/12.1.3.312 Mobile Safari/537.36","WebKit","Chrome","92.0.4515.105","AndroidOS","10","829","<p><strong>请判断你在多大程度上同意下列陈述。</strong></p>","0",""
"","","","","","survey-likert","141","226875","0.0-14.0","92","1","2022-10-23 14:37:48","d60b49b5908c80e163b920d72b52d584","113.220.127.117","Mozilla/5.0 (Linux; Android 10; HarmonyOS; KKG-AN00; HMSCore 6.7.0.322) AppleWebKit/537.36 (KHTML, like Gecko) Chrome/92.0.4515.105 HuaweiBrowser/12.1.3.312 Mobile Safari/537.36","WebKit","Chrome","92.0.4515.105","AndroidOS","10","18793","","{""scale20"":3,""scale18"":4,""scale15"":3,""scale2"":3,""scale24"":3,""scale21"":4,""scale1"":3,""scale4"":3,""scale12"":3,""scale13"":4,""scale22"":3,""scale8"":3,""scale10"":3,""scale25"":4,""scale17"":3,""scale14"":3,""scale26"":3,""scale19"":4,""scale3"":3,""scale23"":3,""scale7"":3,""scale5"":4,""scale6"":3,""scale9"":3,""scale28"":3,""scale27"":4,""scale16"":3,""scale11"":3}","[19,17,14,1,23,20,0,3,11,12,21,7,9,24,16,13,25,18,2,22,6,4,5,8,27,26,15,10]"
"","","","","","html-button-response","142","227699","0.0-15.0","92","1","2022-10-23 14:37:48","d60b49b5908c80e163b920d72b52d584","113.220.127.117","Mozilla/5.0 (Linux; Android 10; HarmonyOS; KKG-AN00; HMSCore 6.7.0.322) AppleWebKit/537.36 (KHTML, like Gecko) Chrome/92.0.4515.105 HuaweiBrowser/12.1.3.312 Mobile Safari/537.36","WebKit","Chrome","92.0.4515.105","AndroidOS","10","796","<p><strong>请判断你在多大程度上同意下列陈述。</strong></p>","0",""
"","","","","","survey-likert","143","240224","0.0-16.0","92","1","2022-10-23 14:37:48","d60b49b5908c80e163b920d72b52d584","113.220.127.117","Mozilla/5.0 (Linux; Android 10; HarmonyOS; KKG-AN00; HMSCore 6.7.0.322) AppleWebKit/537.36 (KHTML, like Gecko) Chrome/92.0.4515.105 HuaweiBrowser/12.1.3.312 Mobile Safari/537.36","WebKit","Chrome","92.0.4515.105","AndroidOS","10","12495","","{""sdo4"":5,""sdo6"":5,""sdo12"":4,""sdo3"":5,""sdo8"":3,""sdo16"":4,""sdo1"":5,""sdo5"":4,""sdo9"":5,""sdo14"":4,""sdo13"":5,""sdo2"":4,""sdo11"":4,""sdo10"":3,""sdo7"":4,""sdo15"":4}","[3,5,11,2,7,15,0,4,8,13,12,1,10,9,6,14]"
"","","","","","html-button-response","144","241017","0.0-17.0","92","1","2022-10-23 14:37:48","d60b49b5908c80e163b920d72b52d584","113.220.127.117","Mozilla/5.0 (Linux; Android 10; HarmonyOS; KKG-AN00; HMSCore 6.7.0.322) AppleWebKit/537.36 (KHTML, like Gecko) Chrome/92.0.4515.105 HuaweiBrowser/12.1.3.312 Mobile Safari/537.36","WebKit","Chrome","92.0.4515.105","AndroidOS","10","768","<p><strong>请判断你在多大程度上同意下列陈述。</strong></p>","0",""
"","","","","","survey-likert","145","252612","0.0-18.0","92","1","2022-10-23 14:37:48","d60b49b5908c80e163b920d72b52d584","113.220.127.117","Mozilla/5.0 (Linux; Android 10; HarmonyOS; KKG-AN00; HMSCore 6.7.0.322) AppleWebKit/537.36 (KHTML, like Gecko) Chrome/92.0.4515.105 HuaweiBrowser/12.1.3.312 Mobile Safari/537.36","WebKit","Chrome","92.0.4515.105","AndroidOS","10","11565","","{""caring1"":3,""liking1"":4,""caring2"":3,""protection1"":3,""liking2"":2,""caring3"":3,""protection2"":3,""liking3"":3,""protection3"":3,""caring4"":4,""liking4"":3,""protection4"":4,""caring5"":3,""liking5"":3,""protection5"":3}","[0,1,2,3,4,5,6,7,8,9,10,11,12,13,14]"
"","","","","","html-button-response","146","253426","0.0-19.0","92","1","2022-10-23 14:37:48","d60b49b5908c80e163b920d72b52d584","113.220.127.117","Mozilla/5.0 (Linux; Android 10; HarmonyOS; KKG-AN00; HMSCore 6.7.0.322) AppleWebKit/537.36 (KHTML, like Gecko) Chrome/92.0.4515.105 HuaweiBrowser/12.1.3.312 Mobile Safari/537.36","WebKit","Chrome","92.0.4515.105","AndroidOS","10","788","<p><strong>请判断下列场景中你的内心感受有多柔软。</strong></p>","0",""
"","","","","","survey-likert","147","261002","0.0-20.0","92","1","2022-10-23 14:37:48","d60b49b5908c80e163b920d72b52d584","113.220.127.117","Mozilla/5.0 (Linux; Android 10; HarmonyOS; KKG-AN00; HMSCore 6.7.0.322) AppleWebKit/537.36 (KHTML, like Gecko) Chrome/92.0.4515.105 HuaweiBrowser/12.1.3.312 Mobile Safari/537.36","WebKit","Chrome","92.0.4515.105","AndroidOS","10","7546","","{""tenderness-positive1"":3,""tenderness-negative1"":2,""tenderness-negative2"":3,""tenderness-positive2"":3,""tenderness-positive3"":3,""tenderness-negative3"":2,""tenderness-positive4"":3,""tendereness-negative4"":2,""tendernness-negative5"":3,""tenderness-positive5"":2}","[0,1,2,3,4,5,6,7,8,9]"
"","","","","","survey-multi-choice","148","266245","0.0-21.0","92","1","2022-10-23 14:37:48","d60b49b5908c80e163b920d72b52d584","113.220.127.117","Mozilla/5.0 (Linux; Android 10; HarmonyOS; KKG-AN00; HMSCore 6.7.0.322) AppleWebKit/537.36 (KHTML, like Gecko) Chrome/92.0.4515.105 HuaweiBrowser/12.1.3.312 Mobile Safari/537.36","WebKit","Chrome","92.0.4515.105","AndroidOS","10","5207","","{""Attention2"":""其他""}","[0]"
"","","","","","html-button-response","149","267028","0.0-22.0","92","1","2022-10-23 14:37:48","d60b49b5908c80e163b920d72b52d584","113.220.127.117","Mozilla/5.0 (Linux; Android 10; HarmonyOS; KKG-AN00; HMSCore 6.7.0.322) AppleWebKit/537.36 (KHTML, like Gecko) Chrome/92.0.4515.105 HuaweiBrowser/12.1.3.312 Mobile Safari/537.36","WebKit","Chrome","92.0.4515.105","AndroidOS","10","750","<p><strong>请判断你在多大程度上同意下列陈述。</strong></p>","0",""
"","","","","","survey-likert","150","283623","0.0-23.0","92","1","2022-10-23 14:37:48","d60b49b5908c80e163b920d72b52d584","113.220.127.117","Mozilla/5.0 (Linux; Android 10; HarmonyOS; KKG-AN00; HMSCore 6.7.0.322) AppleWebKit/537.36 (KHTML, like Gecko) Chrome/92.0.4515.105 HuaweiBrowser/12.1.3.312 Mobile Safari/537.36","WebKit","Chrome","92.0.4515.105","AndroidOS","10","16558","","{""Patri9"":3,""Patri8"":4,""Nation8"":3,""Patri4"":3,""Patri5"":3,""Patri12"":4,""Patri2"":3,""Nation2"":3,""Nation1"":4,""Patri3"":3,""Nation5"":3,""Nation6"":3,""Patri7"":4,""Patri6"":3,""Nation7"":3,""Patri1"":3,""Patri11"":3,""Patri10"":3,""Nation4"":4,""Nation3"":3}","[8,7,19,3,4,11,1,13,12,2,16,17,6,5,18,0,10,9,15,14]"
"","","","","","html-button-response","151","284378","0.0-24.0","92","1","2022-10-23 14:37:48","d60b49b5908c80e163b920d72b52d584","113.220.127.117","Mozilla/5.0 (Linux; Android 10; HarmonyOS; KKG-AN00; HMSCore 6.7.0.322) AppleWebKit/537.36 (KHTML, like Gecko) Chrome/92.0.4515.105 HuaweiBrowser/12.1.3.312 Mobile Safari/537.36","WebKit","Chrome","92.0.4515.105","AndroidOS","10","719","<p><strong>请判断你在多大程度上同意下列陈述。</strong></p>","0",""
"","","","","","survey-likert","152","301775","0.0-25.0","92","1","2022-10-23 14:37:48","d60b49b5908c80e163b920d72b52d584","113.220.127.117","Mozilla/5.0 (Linux; Android 10; HarmonyOS; KKG-AN00; HMSCore 6.7.0.322) AppleWebKit/537.36 (KHTML, like Gecko) Chrome/92.0.4515.105 HuaweiBrowser/12.1.3.312 Mobile Safari/537.36","WebKit","Chrome","92.0.4515.105","AndroidOS","10","17359","","{""vc4"":7,""vi1"":5,""hc1"":6,""hc2"":5,""hc4"":6,""hi3"":6,""hi2"":5,""vi2"":5,""vi3"":5,""hc3"":5,""Robot"":6,""hi1"":6,""vc2"":5,""vc1"":6,""vc3"":6,""vi4"":6,""hi4"":5}","[16,4,9,10,12,2,1,5,6,11,7,0,14,13,15,8,3]"
"","","","","","survey-text","153","303469","0.0-26.0","92","1","2022-10-23 14:37:48","d60b49b5908c80e163b920d72b52d584","113.220.127.117","Mozilla/5.0 (Linux; Android 10; HarmonyOS; KKG-AN00; HMSCore 6.7.0.322) AppleWebKit/537.36 (KHTML, like Gecko) Chrome/92.0.4515.105 HuaweiBrowser/12.1.3.312 Mobile Safari/537.36","WebKit","Chrome","92.0.4515.105","AndroidOS","10","1673","","{""Comments"":""""}",""
"","","","","","html-button-response","154","304454","0.0-27.0","92","1","2022-10-23 14:37:48","d60b49b5908c80e163b920d72b52d584","113.220.127.117","Mozilla/5.0 (Linux; Android 10; HarmonyOS; KKG-AN00; HMSCore 6.7.0.322) AppleWebKit/537.36 (KHTML, like Gecko) Chrome/92.0.4515.105 HuaweiBrowser/12.1.3.312 Mobile Safari/537.36","WebKit","Chrome","92.0.4515.105","AndroidOS","10","974","<strong><p>恭喜你完成了实验！</p><p>感谢您的参与。</p></strong>","0",""
