"success","timeout","failed_images","failed_audio","failed_video","trial_type","trial_index","time_elapsed","internal_node_id","run_id","condition","recorded_at","source_code_version","ip","user_agent","device","browser","browser_version","platform","platform_version","rt","stimulus","response","question_order"
"true","false","[]","[]","[]","preload","0","855","0.0-0.0","102","1","2022-10-09 11:48:46","ebf9627b049f568eb4bf28942cb89901","60.220.52.199","Mozilla/5.0 (Windows NT 10.0; WOW64) AppleWebKit/537.36 (KHTML, like Gecko) Chrome/94.0.4606.71 Safari/537.36 Core/1.94.172.400 QQBrowser/11.1.5140.400","WebKit","Chrome","94.0.4606.71","Windows","10.0","","","",""
"true","","","","","fullscreen","1","12940","0.0-1.0","102","1","2022-10-09 11:48:46","ebf9627b049f568eb4bf28942cb89901","60.220.52.199","Mozilla/5.0 (Windows NT 10.0; WOW64) AppleWebKit/537.36 (KHTML, like Gecko) Chrome/94.0.4606.71 Safari/537.36 Core/1.94.172.400 QQBrowser/11.1.5140.400","WebKit","Chrome","94.0.4606.71","Windows","10.0","","","",""
"","","","","","html-button-response","2","15995","0.0-2.0","102","1","2022-10-09 11:48:46","ebf9627b049f568eb4bf28942cb89901","60.220.52.199","Mozilla/5.0 (Windows NT 10.0; WOW64) AppleWebKit/537.36 (KHTML, like Gecko) Chrome/94.0.4606.71 Safari/537.36 Core/1.94.172.400 QQBrowser/11.1.5140.400","WebKit","Chrome","94.0.4606.71","Windows","10.0","3053","<p style=""font-size:20px;font-weight:bold;"">实验知情同意书</p><p style=""text-align:left;""><strong>实验名称：</strong>社会冲突研究</p><p style=""text-align:left;""><strong>主要研究者：</strong>韩晓春副教授（北京师范大学心理学部）</p><p style=""text-align:left;""><strong>联系方式：</strong>发送邮件至xiaochun.han@bnu.edu.cn</p><p style=""text-align:left;""><strong>研究目的：</strong>研究旨在了解人类面对群体冲突时的决策方式，以及相关的心理学特质。实验调查大约需要20分钟。</p><p style=""text-align:left;""><strong>实验流程：</strong>实验包含两部分。第一部分呈现一系列群体冲突场景，请你决定如何对这些冲突进行反应，大约需要10分钟完成。第二部分包含一系列人口统计学信息收集和心理学问卷，大约需要10分钟完成。</p><p style=""text-align:left;""><strong>参加及退出规则：</strong>参加本实验完全取决于您的个人意愿。在参与过程中，您可以随时退出，并且不用承担任何后果。</p><p style=""text-align:left;""><strong>隐私：</strong>本实验完全匿名进行，不会收集您的姓名或其他能够识别您身份的信息。实验中收集的作答仅用作科学研究使用，可能会在学术期刊/书籍上发表，或者用于教学，您的数据未来可能会和其他研究者或实验室分享，但您的个人身份不会被识别。</p><p style=""text-align:left;""><strong>实验报酬：</strong>实验完成后，您将获得15元人民币报酬，以感谢您的时间和努力。调查问卷中包含几道题目用以测验您作答时的认真度。只有完成全部实验，并且正确回答认真度测验的被试才能获得实验报酬。实验报酬将通过支付宝转账发放。</p><p style=""text-align:left;font-size:20px;""><strong>如果您同意以上实验知情同意书的内容，请点击'同意并且开始实验'按钮；否则请关闭浏览器界面，退出实验。</strong></p>","0",""
"","","","","","html-button-response","3","17803","0.0-3.0","102","1","2022-10-09 11:48:46","ebf9627b049f568eb4bf28942cb89901","60.220.52.199","Mozilla/5.0 (Windows NT 10.0; WOW64) AppleWebKit/537.36 (KHTML, like Gecko) Chrome/94.0.4606.71 Safari/537.36 Core/1.94.172.400 QQBrowser/11.1.5140.400","WebKit","Chrome","94.0.4606.71","Windows","10.0","1807","<p ><strong>实验任务一：</strong></p><p>请想象你的国家与另一个国家发生了军事冲突。</p><p>你是国家军队的指挥官，你将如何在冲突中进行决策。</p><p>具体来说，作为军队指挥官，请你决定是否发射导弹进行打击。</p><p>接下来，你会面对一系列场景，请仔细阅读每个场景，然后进行决策。</p><p>这部分实验任务大约需要10分钟。</p><p><strong>实验过程中，请集中注意力。</strong></p>","0",""
"","","","","","html-keyboard-response","4","18805","0.0-4.0-0.0","102","1","2022-10-09 11:48:46","ebf9627b049f568eb4bf28942cb89901","60.220.52.199","Mozilla/5.0 (Windows NT 10.0; WOW64) AppleWebKit/537.36 (KHTML, like Gecko) Chrome/94.0.4606.71 Safari/537.36 Core/1.94.172.400 QQBrowser/11.1.5140.400","WebKit","Chrome","94.0.4606.71","Windows","10.0","null","<div style=""font-size:60px;"">+</div>","null",""
"","","","","","html-button-response","5","29677","0.0-4.0-1.0","102","1","2022-10-09 11:48:46","ebf9627b049f568eb4bf28942cb89901","60.220.52.199","Mozilla/5.0 (Windows NT 10.0; WOW64) AppleWebKit/537.36 (KHTML, like Gecko) Chrome/94.0.4606.71 Safari/537.36 Core/1.94.172.400 QQBrowser/11.1.5140.400","WebKit","Chrome","94.0.4606.71","Windows","10.0","10870","<p>作为军队的指挥官，你可以选择发射导弹杀死 <strong>8名</strong> 敌国士兵，但会炸毁附近的 <strong>1棵</strong> 敌国树木。</p> <p>树木的照片如下图所示。</p> <p></p> <img src='stimuli/trees/5.png', style='max-width: 30%;'> </img> <p><strong>你是否选择发射武器？</strong></p>","0",""
"","","","","","html-keyboard-response","6","30687","0.0-4.0-0.1","102","1","2022-10-09 11:48:46","ebf9627b049f568eb4bf28942cb89901","60.220.52.199","Mozilla/5.0 (Windows NT 10.0; WOW64) AppleWebKit/537.36 (KHTML, like Gecko) Chrome/94.0.4606.71 Safari/537.36 Core/1.94.172.400 QQBrowser/11.1.5140.400","WebKit","Chrome","94.0.4606.71","Windows","10.0","null","<div style=""font-size:60px;"">+</div>","null",""
"","","","","","html-button-response","7","36718","0.0-4.0-1.1","102","1","2022-10-09 11:48:46","ebf9627b049f568eb4bf28942cb89901","60.220.52.199","Mozilla/5.0 (Windows NT 10.0; WOW64) AppleWebKit/537.36 (KHTML, like Gecko) Chrome/94.0.4606.71 Safari/537.36 Core/1.94.172.400 QQBrowser/11.1.5140.400","WebKit","Chrome","94.0.4606.71","Windows","10.0","6030","<p>作为军队的指挥官，你可以选择发射导弹杀死 <strong>3名</strong> 敌国士兵，但会误杀附近的 <strong>1名</strong> 敌国平民。</p> <p>平民照片如下图所示。</p> <p></p> <img src='stimuli/faces/NFM6.jpg', style='max-width: 30%;'> </img> <p><strong>你是否选择发射武器？</strong></p>","0",""
"","","","","","html-keyboard-response","8","37724","0.0-4.0-0.2","102","1","2022-10-09 11:48:46","ebf9627b049f568eb4bf28942cb89901","60.220.52.199","Mozilla/5.0 (Windows NT 10.0; WOW64) AppleWebKit/537.36 (KHTML, like Gecko) Chrome/94.0.4606.71 Safari/537.36 Core/1.94.172.400 QQBrowser/11.1.5140.400","WebKit","Chrome","94.0.4606.71","Windows","10.0","null","<div style=""font-size:60px;"">+</div>","null",""
"","","","","","html-button-response","9","43940","0.0-4.0-1.2","102","1","2022-10-09 11:48:46","ebf9627b049f568eb4bf28942cb89901","60.220.52.199","Mozilla/5.0 (Windows NT 10.0; WOW64) AppleWebKit/537.36 (KHTML, like Gecko) Chrome/94.0.4606.71 Safari/537.36 Core/1.94.172.400 QQBrowser/11.1.5140.400","WebKit","Chrome","94.0.4606.71","Windows","10.0","6215","<p>作为军队的指挥官，你可以选择发射导弹杀死 <strong>5名</strong> 敌国士兵，但会误杀附近的 <strong>1名</strong> 敌国平民。</p> <p>平民照片如下图所示。</p> <p></p> <img src='stimuli/faces/NFF6.jpg', style='max-width: 30%;'> </img> <p><strong>你是否选择发射武器？</strong></p>","0",""
"","","","","","html-keyboard-response","10","44946","0.0-4.0-0.3","102","1","2022-10-09 11:48:46","ebf9627b049f568eb4bf28942cb89901","60.220.52.199","Mozilla/5.0 (Windows NT 10.0; WOW64) AppleWebKit/537.36 (KHTML, like Gecko) Chrome/94.0.4606.71 Safari/537.36 Core/1.94.172.400 QQBrowser/11.1.5140.400","WebKit","Chrome","94.0.4606.71","Windows","10.0","null","<div style=""font-size:60px;"">+</div>","null",""
"","","","","","html-button-response","11","48605","0.0-4.0-1.3","102","1","2022-10-09 11:48:46","ebf9627b049f568eb4bf28942cb89901","60.220.52.199","Mozilla/5.0 (Windows NT 10.0; WOW64) AppleWebKit/537.36 (KHTML, like Gecko) Chrome/94.0.4606.71 Safari/537.36 Core/1.94.172.400 QQBrowser/11.1.5140.400","WebKit","Chrome","94.0.4606.71","Windows","10.0","3657","<p>作为军队的指挥官，你可以选择发射导弹杀死 <strong>4名</strong> 敌国士兵，但会误杀附近的 <strong>1名</strong> 敌国平民。</p> <p>平民照片如下图所示。</p> <p></p> <img src='stimuli/faces/NFF3.jpg', style='max-width: 30%;'> </img> <p><strong>你是否选择发射武器？</strong></p>","0",""
"","","","","","html-keyboard-response","12","49609","0.0-4.0-0.4","102","1","2022-10-09 11:48:46","ebf9627b049f568eb4bf28942cb89901","60.220.52.199","Mozilla/5.0 (Windows NT 10.0; WOW64) AppleWebKit/537.36 (KHTML, like Gecko) Chrome/94.0.4606.71 Safari/537.36 Core/1.94.172.400 QQBrowser/11.1.5140.400","WebKit","Chrome","94.0.4606.71","Windows","10.0","null","<div style=""font-size:60px;"">+</div>","null",""
"","","","","","html-button-response","13","52783","0.0-4.0-1.4","102","1","2022-10-09 11:48:46","ebf9627b049f568eb4bf28942cb89901","60.220.52.199","Mozilla/5.0 (Windows NT 10.0; WOW64) AppleWebKit/537.36 (KHTML, like Gecko) Chrome/94.0.4606.71 Safari/537.36 Core/1.94.172.400 QQBrowser/11.1.5140.400","WebKit","Chrome","94.0.4606.71","Windows","10.0","3173","<p>作为军队的指挥官，你可以选择发射导弹杀死 <strong>10名</strong> 敌国士兵，但会误杀附近的 <strong>1名</strong> 敌国平民。</p> <p>平民照片如下图所示。</p> <p></p> <img src='stimuli/faces/NFF6.jpg', style='max-width: 30%;'> </img> <p><strong>你是否选择发射武器？</strong></p>","0",""
"","","","","","html-keyboard-response","14","53792","0.0-4.0-0.5","102","1","2022-10-09 11:48:46","ebf9627b049f568eb4bf28942cb89901","60.220.52.199","Mozilla/5.0 (Windows NT 10.0; WOW64) AppleWebKit/537.36 (KHTML, like Gecko) Chrome/94.0.4606.71 Safari/537.36 Core/1.94.172.400 QQBrowser/11.1.5140.400","WebKit","Chrome","94.0.4606.71","Windows","10.0","null","<div style=""font-size:60px;"">+</div>","null",""
"","","","","","html-button-response","15","59203","0.0-4.0-1.5","102","1","2022-10-09 11:48:46","ebf9627b049f568eb4bf28942cb89901","60.220.52.199","Mozilla/5.0 (Windows NT 10.0; WOW64) AppleWebKit/537.36 (KHTML, like Gecko) Chrome/94.0.4606.71 Safari/537.36 Core/1.94.172.400 QQBrowser/11.1.5140.400","WebKit","Chrome","94.0.4606.71","Windows","10.0","5409","<p>作为军队的指挥官，你可以选择发射导弹杀死 <strong>7名</strong> 敌国士兵，但会炸毁附近的 <strong>1棵</strong> 敌国树木。</p> <p>树木的照片如下图所示。</p> <p></p> <img src='stimuli/trees/16.png', style='max-width: 30%;'> </img> <p><strong>你是否选择发射武器？</strong></p>","0",""
"","","","","","html-keyboard-response","16","60216","0.0-4.0-0.6","102","1","2022-10-09 11:48:46","ebf9627b049f568eb4bf28942cb89901","60.220.52.199","Mozilla/5.0 (Windows NT 10.0; WOW64) AppleWebKit/537.36 (KHTML, like Gecko) Chrome/94.0.4606.71 Safari/537.36 Core/1.94.172.400 QQBrowser/11.1.5140.400","WebKit","Chrome","94.0.4606.71","Windows","10.0","null","<div style=""font-size:60px;"">+</div>","null",""
"","","","","","html-button-response","17","66280","0.0-4.0-1.6","102","1","2022-10-09 11:48:46","ebf9627b049f568eb4bf28942cb89901","60.220.52.199","Mozilla/5.0 (Windows NT 10.0; WOW64) AppleWebKit/537.36 (KHTML, like Gecko) Chrome/94.0.4606.71 Safari/537.36 Core/1.94.172.400 QQBrowser/11.1.5140.400","WebKit","Chrome","94.0.4606.71","Windows","10.0","6063","<p>作为军队的指挥官，你可以选择发射导弹杀死 <strong>5名</strong> 敌国士兵，但会误杀附近的 <strong>1名</strong> 敌国平民。</p> <p>平民照片如下图所示。</p> <p></p> <img src='stimuli/faces/NFF5.jpg', style='max-width: 30%;'> </img> <p><strong>你是否选择发射武器？</strong></p>","0",""
"","","","","","html-keyboard-response","18","67291","0.0-4.0-0.7","102","1","2022-10-09 11:48:46","ebf9627b049f568eb4bf28942cb89901","60.220.52.199","Mozilla/5.0 (Windows NT 10.0; WOW64) AppleWebKit/537.36 (KHTML, like Gecko) Chrome/94.0.4606.71 Safari/537.36 Core/1.94.172.400 QQBrowser/11.1.5140.400","WebKit","Chrome","94.0.4606.71","Windows","10.0","null","<div style=""font-size:60px;"">+</div>","null",""
"","","","","","html-button-response","19","71380","0.0-4.0-1.7","102","1","2022-10-09 11:48:46","ebf9627b049f568eb4bf28942cb89901","60.220.52.199","Mozilla/5.0 (Windows NT 10.0; WOW64) AppleWebKit/537.36 (KHTML, like Gecko) Chrome/94.0.4606.71 Safari/537.36 Core/1.94.172.400 QQBrowser/11.1.5140.400","WebKit","Chrome","94.0.4606.71","Windows","10.0","4087","<p>作为军队的指挥官，你可以选择发射导弹杀死 <strong>7名</strong> 敌国士兵，但会炸毁附近的 <strong>1棵</strong> 敌国树木。</p> <p>树木的照片如下图所示。</p> <p></p> <img src='stimuli/trees/12.png', style='max-width: 30%;'> </img> <p><strong>你是否选择发射武器？</strong></p>","0",""
"","","","","","html-keyboard-response","20","72389","0.0-4.0-0.8","102","1","2022-10-09 11:48:46","ebf9627b049f568eb4bf28942cb89901","60.220.52.199","Mozilla/5.0 (Windows NT 10.0; WOW64) AppleWebKit/537.36 (KHTML, like Gecko) Chrome/94.0.4606.71 Safari/537.36 Core/1.94.172.400 QQBrowser/11.1.5140.400","WebKit","Chrome","94.0.4606.71","Windows","10.0","null","<div style=""font-size:60px;"">+</div>","null",""
"","","","","","html-button-response","21","78706","0.0-4.0-1.8","102","1","2022-10-09 11:48:46","ebf9627b049f568eb4bf28942cb89901","60.220.52.199","Mozilla/5.0 (Windows NT 10.0; WOW64) AppleWebKit/537.36 (KHTML, like Gecko) Chrome/94.0.4606.71 Safari/537.36 Core/1.94.172.400 QQBrowser/11.1.5140.400","WebKit","Chrome","94.0.4606.71","Windows","10.0","6315","<p>作为军队的指挥官，你可以选择发射导弹杀死 <strong>1名</strong> 敌国士兵，但会误杀附近的 <strong>1名</strong> 敌国平民。</p> <p>平民照片如下图所示。</p> <p></p> <img src='stimuli/faces/NFF4.jpg', style='max-width: 30%;'> </img> <p><strong>你是否选择发射武器？</strong></p>","0",""
"","","","","","html-keyboard-response","22","79717","0.0-4.0-0.9","102","1","2022-10-09 11:48:46","ebf9627b049f568eb4bf28942cb89901","60.220.52.199","Mozilla/5.0 (Windows NT 10.0; WOW64) AppleWebKit/537.36 (KHTML, like Gecko) Chrome/94.0.4606.71 Safari/537.36 Core/1.94.172.400 QQBrowser/11.1.5140.400","WebKit","Chrome","94.0.4606.71","Windows","10.0","null","<div style=""font-size:60px;"">+</div>","null",""
"","","","","","html-button-response","23","83280","0.0-4.0-1.9","102","1","2022-10-09 11:48:46","ebf9627b049f568eb4bf28942cb89901","60.220.52.199","Mozilla/5.0 (Windows NT 10.0; WOW64) AppleWebKit/537.36 (KHTML, like Gecko) Chrome/94.0.4606.71 Safari/537.36 Core/1.94.172.400 QQBrowser/11.1.5140.400","WebKit","Chrome","94.0.4606.71","Windows","10.0","3562","<p>作为军队的指挥官，你可以选择发射导弹杀死 <strong>3名</strong> 敌国士兵，但会误杀附近的 <strong>1名</strong> 敌国平民。</p> <p>平民照片如下图所示。</p> <p></p> <img src='stimuli/faces/NFF2.jpg', style='max-width: 30%;'> </img> <p><strong>你是否选择发射武器？</strong></p>","0",""
"","","","","","html-keyboard-response","24","84288","0.0-4.0-0.10","102","1","2022-10-09 11:48:46","ebf9627b049f568eb4bf28942cb89901","60.220.52.199","Mozilla/5.0 (Windows NT 10.0; WOW64) AppleWebKit/537.36 (KHTML, like Gecko) Chrome/94.0.4606.71 Safari/537.36 Core/1.94.172.400 QQBrowser/11.1.5140.400","WebKit","Chrome","94.0.4606.71","Windows","10.0","null","<div style=""font-size:60px;"">+</div>","null",""
"","","","","","html-button-response","25","91547","0.0-4.0-1.10","102","1","2022-10-09 11:48:46","ebf9627b049f568eb4bf28942cb89901","60.220.52.199","Mozilla/5.0 (Windows NT 10.0; WOW64) AppleWebKit/537.36 (KHTML, like Gecko) Chrome/94.0.4606.71 Safari/537.36 Core/1.94.172.400 QQBrowser/11.1.5140.400","WebKit","Chrome","94.0.4606.71","Windows","10.0","7258","<p>作为军队的指挥官，你可以选择发射导弹杀死 <strong>8名</strong> 敌国士兵，但会炸毁附近的 <strong>1棵</strong> 敌国树木。</p> <p>树木的照片如下图所示。</p> <p></p> <img src='stimuli/trees/1.png', style='max-width: 30%;'> </img> <p><strong>你是否选择发射武器？</strong></p>","0",""
"","","","","","html-keyboard-response","26","92557","0.0-4.0-0.11","102","1","2022-10-09 11:48:46","ebf9627b049f568eb4bf28942cb89901","60.220.52.199","Mozilla/5.0 (Windows NT 10.0; WOW64) AppleWebKit/537.36 (KHTML, like Gecko) Chrome/94.0.4606.71 Safari/537.36 Core/1.94.172.400 QQBrowser/11.1.5140.400","WebKit","Chrome","94.0.4606.71","Windows","10.0","null","<div style=""font-size:60px;"">+</div>","null",""
"","","","","","html-button-response","27","95284","0.0-4.0-1.11","102","1","2022-10-09 11:48:46","ebf9627b049f568eb4bf28942cb89901","60.220.52.199","Mozilla/5.0 (Windows NT 10.0; WOW64) AppleWebKit/537.36 (KHTML, like Gecko) Chrome/94.0.4606.71 Safari/537.36 Core/1.94.172.400 QQBrowser/11.1.5140.400","WebKit","Chrome","94.0.4606.71","Windows","10.0","2726","<p>作为军队的指挥官，你可以选择发射导弹杀死 <strong>1名</strong> 敌国士兵，但会炸毁附近的 <strong>1棵</strong> 敌国树木。</p> <p>树木的照片如下图所示。</p> <p></p> <img src='stimuli/trees/8.png', style='max-width: 30%;'> </img> <p><strong>你是否选择发射武器？</strong></p>","1",""
"","","","","","html-keyboard-response","28","96292","0.0-4.0-0.12","102","1","2022-10-09 11:48:46","ebf9627b049f568eb4bf28942cb89901","60.220.52.199","Mozilla/5.0 (Windows NT 10.0; WOW64) AppleWebKit/537.36 (KHTML, like Gecko) Chrome/94.0.4606.71 Safari/537.36 Core/1.94.172.400 QQBrowser/11.1.5140.400","WebKit","Chrome","94.0.4606.71","Windows","10.0","null","<div style=""font-size:60px;"">+</div>","null",""
"","","","","","html-button-response","29","99915","0.0-4.0-1.12","102","1","2022-10-09 11:48:46","ebf9627b049f568eb4bf28942cb89901","60.220.52.199","Mozilla/5.0 (Windows NT 10.0; WOW64) AppleWebKit/537.36 (KHTML, like Gecko) Chrome/94.0.4606.71 Safari/537.36 Core/1.94.172.400 QQBrowser/11.1.5140.400","WebKit","Chrome","94.0.4606.71","Windows","10.0","3621","<p>作为军队的指挥官，你可以选择发射导弹杀死 <strong>4名</strong> 敌国士兵，但会炸毁附近的 <strong>1棵</strong> 敌国树木。</p> <p>树木的照片如下图所示。</p> <p></p> <img src='stimuli/trees/4.png', style='max-width: 30%;'> </img> <p><strong>你是否选择发射武器？</strong></p>","0",""
"","","","","","html-keyboard-response","30","100924","0.0-4.0-0.13","102","1","2022-10-09 11:48:46","ebf9627b049f568eb4bf28942cb89901","60.220.52.199","Mozilla/5.0 (Windows NT 10.0; WOW64) AppleWebKit/537.36 (KHTML, like Gecko) Chrome/94.0.4606.71 Safari/537.36 Core/1.94.172.400 QQBrowser/11.1.5140.400","WebKit","Chrome","94.0.4606.71","Windows","10.0","null","<div style=""font-size:60px;"">+</div>","null",""
"","","","","","html-button-response","31","103090","0.0-4.0-1.13","102","1","2022-10-09 11:48:46","ebf9627b049f568eb4bf28942cb89901","60.220.52.199","Mozilla/5.0 (Windows NT 10.0; WOW64) AppleWebKit/537.36 (KHTML, like Gecko) Chrome/94.0.4606.71 Safari/537.36 Core/1.94.172.400 QQBrowser/11.1.5140.400","WebKit","Chrome","94.0.4606.71","Windows","10.0","2164","<p>作为军队的指挥官，你可以选择发射导弹杀死 <strong>6名</strong> 敌国士兵，但会误杀附近的 <strong>1名</strong> 敌国平民。</p> <p>平民照片如下图所示。</p> <p></p> <img src='stimuli/faces/NFM1.jpg', style='max-width: 30%;'> </img> <p><strong>你是否选择发射武器？</strong></p>","0",""
"","","","","","html-keyboard-response","32","104101","0.0-4.0-0.14","102","1","2022-10-09 11:48:46","ebf9627b049f568eb4bf28942cb89901","60.220.52.199","Mozilla/5.0 (Windows NT 10.0; WOW64) AppleWebKit/537.36 (KHTML, like Gecko) Chrome/94.0.4606.71 Safari/537.36 Core/1.94.172.400 QQBrowser/11.1.5140.400","WebKit","Chrome","94.0.4606.71","Windows","10.0","null","<div style=""font-size:60px;"">+</div>","null",""
"","","","","","html-button-response","33","105998","0.0-4.0-1.14","102","1","2022-10-09 11:48:46","ebf9627b049f568eb4bf28942cb89901","60.220.52.199","Mozilla/5.0 (Windows NT 10.0; WOW64) AppleWebKit/537.36 (KHTML, like Gecko) Chrome/94.0.4606.71 Safari/537.36 Core/1.94.172.400 QQBrowser/11.1.5140.400","WebKit","Chrome","94.0.4606.71","Windows","10.0","1895","<p>作为军队的指挥官，你可以选择发射导弹杀死 <strong>9名</strong> 敌国士兵，但会误杀附近的 <strong>1名</strong> 敌国平民。</p> <p>平民照片如下图所示。</p> <p></p> <img src='stimuli/faces/NFM7.jpg', style='max-width: 30%;'> </img> <p><strong>你是否选择发射武器？</strong></p>","0",""
"","","","","","html-keyboard-response","34","107009","0.0-4.0-0.15","102","1","2022-10-09 11:48:46","ebf9627b049f568eb4bf28942cb89901","60.220.52.199","Mozilla/5.0 (Windows NT 10.0; WOW64) AppleWebKit/537.36 (KHTML, like Gecko) Chrome/94.0.4606.71 Safari/537.36 Core/1.94.172.400 QQBrowser/11.1.5140.400","WebKit","Chrome","94.0.4606.71","Windows","10.0","null","<div style=""font-size:60px;"">+</div>","null",""
"","","","","","html-button-response","35","108367","0.0-4.0-1.15","102","1","2022-10-09 11:48:46","ebf9627b049f568eb4bf28942cb89901","60.220.52.199","Mozilla/5.0 (Windows NT 10.0; WOW64) AppleWebKit/537.36 (KHTML, like Gecko) Chrome/94.0.4606.71 Safari/537.36 Core/1.94.172.400 QQBrowser/11.1.5140.400","WebKit","Chrome","94.0.4606.71","Windows","10.0","1356","<p>作为军队的指挥官，你可以选择发射导弹杀死 <strong>6名</strong> 敌国士兵，但会误杀附近的 <strong>1名</strong> 敌国平民。</p> <p>平民照片如下图所示。</p> <p></p> <img src='stimuli/faces/NFF5.jpg', style='max-width: 30%;'> </img> <p><strong>你是否选择发射武器？</strong></p>","0",""
"","","","","","html-keyboard-response","36","109381","0.0-4.0-0.16","102","1","2022-10-09 11:48:46","ebf9627b049f568eb4bf28942cb89901","60.220.52.199","Mozilla/5.0 (Windows NT 10.0; WOW64) AppleWebKit/537.36 (KHTML, like Gecko) Chrome/94.0.4606.71 Safari/537.36 Core/1.94.172.400 QQBrowser/11.1.5140.400","WebKit","Chrome","94.0.4606.71","Windows","10.0","null","<div style=""font-size:60px;"">+</div>","null",""
"","","","","","html-button-response","37","110781","0.0-4.0-1.16","102","1","2022-10-09 11:48:46","ebf9627b049f568eb4bf28942cb89901","60.220.52.199","Mozilla/5.0 (Windows NT 10.0; WOW64) AppleWebKit/537.36 (KHTML, like Gecko) Chrome/94.0.4606.71 Safari/537.36 Core/1.94.172.400 QQBrowser/11.1.5140.400","WebKit","Chrome","94.0.4606.71","Windows","10.0","1398","<p>作为军队的指挥官，你可以选择发射导弹杀死 <strong>7名</strong> 敌国士兵，但会炸毁附近的 <strong>1棵</strong> 敌国树木。</p> <p>树木的照片如下图所示。</p> <p></p> <img src='stimuli/trees/4.png', style='max-width: 30%;'> </img> <p><strong>你是否选择发射武器？</strong></p>","0",""
"","","","","","html-keyboard-response","38","111789","0.0-4.0-0.17","102","1","2022-10-09 11:48:46","ebf9627b049f568eb4bf28942cb89901","60.220.52.199","Mozilla/5.0 (Windows NT 10.0; WOW64) AppleWebKit/537.36 (KHTML, like Gecko) Chrome/94.0.4606.71 Safari/537.36 Core/1.94.172.400 QQBrowser/11.1.5140.400","WebKit","Chrome","94.0.4606.71","Windows","10.0","null","<div style=""font-size:60px;"">+</div>","null",""
"","","","","","html-button-response","39","113174","0.0-4.0-1.17","102","1","2022-10-09 11:48:46","ebf9627b049f568eb4bf28942cb89901","60.220.52.199","Mozilla/5.0 (Windows NT 10.0; WOW64) AppleWebKit/537.36 (KHTML, like Gecko) Chrome/94.0.4606.71 Safari/537.36 Core/1.94.172.400 QQBrowser/11.1.5140.400","WebKit","Chrome","94.0.4606.71","Windows","10.0","1384","<p>作为军队的指挥官，你可以选择发射导弹杀死 <strong>4名</strong> 敌国士兵，但会误杀附近的 <strong>1名</strong> 敌国平民。</p> <p>平民照片如下图所示。</p> <p></p> <img src='stimuli/faces/NFM8.jpg', style='max-width: 30%;'> </img> <p><strong>你是否选择发射武器？</strong></p>","0",""
"","","","","","html-keyboard-response","40","114189","0.0-4.0-0.18","102","1","2022-10-09 11:48:46","ebf9627b049f568eb4bf28942cb89901","60.220.52.199","Mozilla/5.0 (Windows NT 10.0; WOW64) AppleWebKit/537.36 (KHTML, like Gecko) Chrome/94.0.4606.71 Safari/537.36 Core/1.94.172.400 QQBrowser/11.1.5140.400","WebKit","Chrome","94.0.4606.71","Windows","10.0","null","<div style=""font-size:60px;"">+</div>","null",""
"","","","","","html-button-response","41","117911","0.0-4.0-1.18","102","1","2022-10-09 11:48:46","ebf9627b049f568eb4bf28942cb89901","60.220.52.199","Mozilla/5.0 (Windows NT 10.0; WOW64) AppleWebKit/537.36 (KHTML, like Gecko) Chrome/94.0.4606.71 Safari/537.36 Core/1.94.172.400 QQBrowser/11.1.5140.400","WebKit","Chrome","94.0.4606.71","Windows","10.0","3720","<p>作为军队的指挥官，你可以选择发射导弹杀死 <strong>1名</strong> 敌国士兵，但会炸毁附近的 <strong>1棵</strong> 敌国树木。</p> <p>树木的照片如下图所示。</p> <p></p> <img src='stimuli/trees/13.png', style='max-width: 30%;'> </img> <p><strong>你是否选择发射武器？</strong></p>","1",""
"","","","","","html-keyboard-response","42","118924","0.0-4.0-0.19","102","1","2022-10-09 11:48:46","ebf9627b049f568eb4bf28942cb89901","60.220.52.199","Mozilla/5.0 (Windows NT 10.0; WOW64) AppleWebKit/537.36 (KHTML, like Gecko) Chrome/94.0.4606.71 Safari/537.36 Core/1.94.172.400 QQBrowser/11.1.5140.400","WebKit","Chrome","94.0.4606.71","Windows","10.0","null","<div style=""font-size:60px;"">+</div>","null",""
"","","","","","html-button-response","43","122460","0.0-4.0-1.19","102","1","2022-10-09 11:48:46","ebf9627b049f568eb4bf28942cb89901","60.220.52.199","Mozilla/5.0 (Windows NT 10.0; WOW64) AppleWebKit/537.36 (KHTML, like Gecko) Chrome/94.0.4606.71 Safari/537.36 Core/1.94.172.400 QQBrowser/11.1.5140.400","WebKit","Chrome","94.0.4606.71","Windows","10.0","3534","<p>作为军队的指挥官，你可以选择发射导弹杀死 <strong>9名</strong> 敌国士兵，但会炸毁附近的 <strong>1棵</strong> 敌国树木。</p> <p>树木的照片如下图所示。</p> <p></p> <img src='stimuli/trees/15.png', style='max-width: 30%;'> </img> <p><strong>你是否选择发射武器？</strong></p>","0",""
"","","","","","html-keyboard-response","44","123471","0.0-4.0-0.20","102","1","2022-10-09 11:48:46","ebf9627b049f568eb4bf28942cb89901","60.220.52.199","Mozilla/5.0 (Windows NT 10.0; WOW64) AppleWebKit/537.36 (KHTML, like Gecko) Chrome/94.0.4606.71 Safari/537.36 Core/1.94.172.400 QQBrowser/11.1.5140.400","WebKit","Chrome","94.0.4606.71","Windows","10.0","null","<div style=""font-size:60px;"">+</div>","null",""
"","","","","","html-button-response","45","125813","0.0-4.0-1.20","102","1","2022-10-09 11:48:46","ebf9627b049f568eb4bf28942cb89901","60.220.52.199","Mozilla/5.0 (Windows NT 10.0; WOW64) AppleWebKit/537.36 (KHTML, like Gecko) Chrome/94.0.4606.71 Safari/537.36 Core/1.94.172.400 QQBrowser/11.1.5140.400","WebKit","Chrome","94.0.4606.71","Windows","10.0","2340","<p>作为军队的指挥官，你可以选择发射导弹杀死 <strong>10名</strong> 敌国士兵，但会误杀附近的 <strong>1名</strong> 敌国平民。</p> <p>平民照片如下图所示。</p> <p></p> <img src='stimuli/faces/NFF2.jpg', style='max-width: 30%;'> </img> <p><strong>你是否选择发射武器？</strong></p>","0",""
"","","","","","html-keyboard-response","46","126815","0.0-4.0-0.21","102","1","2022-10-09 11:48:46","ebf9627b049f568eb4bf28942cb89901","60.220.52.199","Mozilla/5.0 (Windows NT 10.0; WOW64) AppleWebKit/537.36 (KHTML, like Gecko) Chrome/94.0.4606.71 Safari/537.36 Core/1.94.172.400 QQBrowser/11.1.5140.400","WebKit","Chrome","94.0.4606.71","Windows","10.0","null","<div style=""font-size:60px;"">+</div>","null",""
"","","","","","html-button-response","47","127968","0.0-4.0-1.21","102","1","2022-10-09 11:48:46","ebf9627b049f568eb4bf28942cb89901","60.220.52.199","Mozilla/5.0 (Windows NT 10.0; WOW64) AppleWebKit/537.36 (KHTML, like Gecko) Chrome/94.0.4606.71 Safari/537.36 Core/1.94.172.400 QQBrowser/11.1.5140.400","WebKit","Chrome","94.0.4606.71","Windows","10.0","1151","<p>作为军队的指挥官，你可以选择发射导弹杀死 <strong>6名</strong> 敌国士兵，但会炸毁附近的 <strong>1棵</strong> 敌国树木。</p> <p>树木的照片如下图所示。</p> <p></p> <img src='stimuli/trees/7.png', style='max-width: 30%;'> </img> <p><strong>你是否选择发射武器？</strong></p>","0",""
"","","","","","html-keyboard-response","48","128978","0.0-4.0-0.22","102","1","2022-10-09 11:48:46","ebf9627b049f568eb4bf28942cb89901","60.220.52.199","Mozilla/5.0 (Windows NT 10.0; WOW64) AppleWebKit/537.36 (KHTML, like Gecko) Chrome/94.0.4606.71 Safari/537.36 Core/1.94.172.400 QQBrowser/11.1.5140.400","WebKit","Chrome","94.0.4606.71","Windows","10.0","null","<div style=""font-size:60px;"">+</div>","null",""
"","","","","","html-button-response","49","131647","0.0-4.0-1.22","102","1","2022-10-09 11:48:46","ebf9627b049f568eb4bf28942cb89901","60.220.52.199","Mozilla/5.0 (Windows NT 10.0; WOW64) AppleWebKit/537.36 (KHTML, like Gecko) Chrome/94.0.4606.71 Safari/537.36 Core/1.94.172.400 QQBrowser/11.1.5140.400","WebKit","Chrome","94.0.4606.71","Windows","10.0","2667","<p>作为军队的指挥官，你可以选择发射导弹杀死 <strong>2名</strong> 敌国士兵，但会炸毁附近的 <strong>1棵</strong> 敌国树木。</p> <p>树木的照片如下图所示。</p> <p></p> <img src='stimuli/trees/11.png', style='max-width: 30%;'> </img> <p><strong>你是否选择发射武器？</strong></p>","1",""
"","","","","","html-keyboard-response","50","132658","0.0-4.0-0.23","102","1","2022-10-09 11:48:46","ebf9627b049f568eb4bf28942cb89901","60.220.52.199","Mozilla/5.0 (Windows NT 10.0; WOW64) AppleWebKit/537.36 (KHTML, like Gecko) Chrome/94.0.4606.71 Safari/537.36 Core/1.94.172.400 QQBrowser/11.1.5140.400","WebKit","Chrome","94.0.4606.71","Windows","10.0","null","<div style=""font-size:60px;"">+</div>","null",""
"","","","","","html-button-response","51","134433","0.0-4.0-1.23","102","1","2022-10-09 11:48:46","ebf9627b049f568eb4bf28942cb89901","60.220.52.199","Mozilla/5.0 (Windows NT 10.0; WOW64) AppleWebKit/537.36 (KHTML, like Gecko) Chrome/94.0.4606.71 Safari/537.36 Core/1.94.172.400 QQBrowser/11.1.5140.400","WebKit","Chrome","94.0.4606.71","Windows","10.0","1773","<p>作为军队的指挥官，你可以选择发射导弹杀死 <strong>9名</strong> 敌国士兵，但会误杀附近的 <strong>1名</strong> 敌国平民。</p> <p>平民照片如下图所示。</p> <p></p> <img src='stimuli/faces/NFM5.jpg', style='max-width: 30%;'> </img> <p><strong>你是否选择发射武器？</strong></p>","0",""
"","","","","","html-keyboard-response","52","135444","0.0-4.0-0.24","102","1","2022-10-09 11:48:46","ebf9627b049f568eb4bf28942cb89901","60.220.52.199","Mozilla/5.0 (Windows NT 10.0; WOW64) AppleWebKit/537.36 (KHTML, like Gecko) Chrome/94.0.4606.71 Safari/537.36 Core/1.94.172.400 QQBrowser/11.1.5140.400","WebKit","Chrome","94.0.4606.71","Windows","10.0","null","<div style=""font-size:60px;"">+</div>","null",""
"","","","","","html-button-response","53","136830","0.0-4.0-1.24","102","1","2022-10-09 11:48:46","ebf9627b049f568eb4bf28942cb89901","60.220.52.199","Mozilla/5.0 (Windows NT 10.0; WOW64) AppleWebKit/537.36 (KHTML, like Gecko) Chrome/94.0.4606.71 Safari/537.36 Core/1.94.172.400 QQBrowser/11.1.5140.400","WebKit","Chrome","94.0.4606.71","Windows","10.0","1384","<p>作为军队的指挥官，你可以选择发射导弹杀死 <strong>4名</strong> 敌国士兵，但会炸毁附近的 <strong>1棵</strong> 敌国树木。</p> <p>树木的照片如下图所示。</p> <p></p> <img src='stimuli/trees/2.png', style='max-width: 30%;'> </img> <p><strong>你是否选择发射武器？</strong></p>","0",""
"","","","","","html-keyboard-response","54","137839","0.0-4.0-0.25","102","1","2022-10-09 11:48:46","ebf9627b049f568eb4bf28942cb89901","60.220.52.199","Mozilla/5.0 (Windows NT 10.0; WOW64) AppleWebKit/537.36 (KHTML, like Gecko) Chrome/94.0.4606.71 Safari/537.36 Core/1.94.172.400 QQBrowser/11.1.5140.400","WebKit","Chrome","94.0.4606.71","Windows","10.0","null","<div style=""font-size:60px;"">+</div>","null",""
"","","","","","html-button-response","55","138964","0.0-4.0-1.25","102","1","2022-10-09 11:48:46","ebf9627b049f568eb4bf28942cb89901","60.220.52.199","Mozilla/5.0 (Windows NT 10.0; WOW64) AppleWebKit/537.36 (KHTML, like Gecko) Chrome/94.0.4606.71 Safari/537.36 Core/1.94.172.400 QQBrowser/11.1.5140.400","WebKit","Chrome","94.0.4606.71","Windows","10.0","1122","<p>作为军队的指挥官，你可以选择发射导弹杀死 <strong>10名</strong> 敌国士兵，但会炸毁附近的 <strong>1棵</strong> 敌国树木。</p> <p>树木的照片如下图所示。</p> <p></p> <img src='stimuli/trees/11.png', style='max-width: 30%;'> </img> <p><strong>你是否选择发射武器？</strong></p>","0",""
"","","","","","html-keyboard-response","56","139971","0.0-4.0-0.26","102","1","2022-10-09 11:48:46","ebf9627b049f568eb4bf28942cb89901","60.220.52.199","Mozilla/5.0 (Windows NT 10.0; WOW64) AppleWebKit/537.36 (KHTML, like Gecko) Chrome/94.0.4606.71 Safari/537.36 Core/1.94.172.400 QQBrowser/11.1.5140.400","WebKit","Chrome","94.0.4606.71","Windows","10.0","null","<div style=""font-size:60px;"">+</div>","null",""
"","","","","","html-button-response","57","140998","0.0-4.0-1.26","102","1","2022-10-09 11:48:46","ebf9627b049f568eb4bf28942cb89901","60.220.52.199","Mozilla/5.0 (Windows NT 10.0; WOW64) AppleWebKit/537.36 (KHTML, like Gecko) Chrome/94.0.4606.71 Safari/537.36 Core/1.94.172.400 QQBrowser/11.1.5140.400","WebKit","Chrome","94.0.4606.71","Windows","10.0","1025","<p>作为军队的指挥官，你可以选择发射导弹杀死 <strong>10名</strong> 敌国士兵，但会误杀附近的 <strong>1名</strong> 敌国平民。</p> <p>平民照片如下图所示。</p> <p></p> <img src='stimuli/faces/NFF8.jpg', style='max-width: 30%;'> </img> <p><strong>你是否选择发射武器？</strong></p>","0",""
"","","","","","html-keyboard-response","58","142000","0.0-4.0-0.27","102","1","2022-10-09 11:48:46","ebf9627b049f568eb4bf28942cb89901","60.220.52.199","Mozilla/5.0 (Windows NT 10.0; WOW64) AppleWebKit/537.36 (KHTML, like Gecko) Chrome/94.0.4606.71 Safari/537.36 Core/1.94.172.400 QQBrowser/11.1.5140.400","WebKit","Chrome","94.0.4606.71","Windows","10.0","null","<div style=""font-size:60px;"">+</div>","null",""
"","","","","","html-button-response","59","142954","0.0-4.0-1.27","102","1","2022-10-09 11:48:46","ebf9627b049f568eb4bf28942cb89901","60.220.52.199","Mozilla/5.0 (Windows NT 10.0; WOW64) AppleWebKit/537.36 (KHTML, like Gecko) Chrome/94.0.4606.71 Safari/537.36 Core/1.94.172.400 QQBrowser/11.1.5140.400","WebKit","Chrome","94.0.4606.71","Windows","10.0","952","<p>作为军队的指挥官，你可以选择发射导弹杀死 <strong>6名</strong> 敌国士兵，但会炸毁附近的 <strong>1棵</strong> 敌国树木。</p> <p>树木的照片如下图所示。</p> <p></p> <img src='stimuli/trees/14.png', style='max-width: 30%;'> </img> <p><strong>你是否选择发射武器？</strong></p>","0",""
"","","","","","html-keyboard-response","60","143961","0.0-4.0-0.28","102","1","2022-10-09 11:48:46","ebf9627b049f568eb4bf28942cb89901","60.220.52.199","Mozilla/5.0 (Windows NT 10.0; WOW64) AppleWebKit/537.36 (KHTML, like Gecko) Chrome/94.0.4606.71 Safari/537.36 Core/1.94.172.400 QQBrowser/11.1.5140.400","WebKit","Chrome","94.0.4606.71","Windows","10.0","null","<div style=""font-size:60px;"">+</div>","null",""
"","","","","","html-button-response","61","145767","0.0-4.0-1.28","102","1","2022-10-09 11:48:46","ebf9627b049f568eb4bf28942cb89901","60.220.52.199","Mozilla/5.0 (Windows NT 10.0; WOW64) AppleWebKit/537.36 (KHTML, like Gecko) Chrome/94.0.4606.71 Safari/537.36 Core/1.94.172.400 QQBrowser/11.1.5140.400","WebKit","Chrome","94.0.4606.71","Windows","10.0","1803","<p>作为军队的指挥官，你可以选择发射导弹杀死 <strong>4名</strong> 敌国士兵，但会误杀附近的 <strong>1名</strong> 敌国平民。</p> <p>平民照片如下图所示。</p> <p></p> <img src='stimuli/faces/NFF8.jpg', style='max-width: 30%;'> </img> <p><strong>你是否选择发射武器？</strong></p>","0",""
"","","","","","html-keyboard-response","62","146776","0.0-4.0-0.29","102","1","2022-10-09 11:48:46","ebf9627b049f568eb4bf28942cb89901","60.220.52.199","Mozilla/5.0 (Windows NT 10.0; WOW64) AppleWebKit/537.36 (KHTML, like Gecko) Chrome/94.0.4606.71 Safari/537.36 Core/1.94.172.400 QQBrowser/11.1.5140.400","WebKit","Chrome","94.0.4606.71","Windows","10.0","null","<div style=""font-size:60px;"">+</div>","null",""
"","","","","","html-button-response","63","155257","0.0-4.0-1.29","102","1","2022-10-09 11:48:46","ebf9627b049f568eb4bf28942cb89901","60.220.52.199","Mozilla/5.0 (Windows NT 10.0; WOW64) AppleWebKit/537.36 (KHTML, like Gecko) Chrome/94.0.4606.71 Safari/537.36 Core/1.94.172.400 QQBrowser/11.1.5140.400","WebKit","Chrome","94.0.4606.71","Windows","10.0","8479","<p>作为军队的指挥官，你可以选择发射导弹杀死 <strong>2名</strong> 敌国士兵，但会误杀附近的 <strong>1名</strong> 敌国平民。</p> <p>平民照片如下图所示。</p> <p></p> <img src='stimuli/faces/NFM1.jpg', style='max-width: 30%;'> </img> <p><strong>你是否选择发射武器？</strong></p>","1",""
"","","","","","html-keyboard-response","64","156271","0.0-4.0-0.30","102","1","2022-10-09 11:48:46","ebf9627b049f568eb4bf28942cb89901","60.220.52.199","Mozilla/5.0 (Windows NT 10.0; WOW64) AppleWebKit/537.36 (KHTML, like Gecko) Chrome/94.0.4606.71 Safari/537.36 Core/1.94.172.400 QQBrowser/11.1.5140.400","WebKit","Chrome","94.0.4606.71","Windows","10.0","null","<div style=""font-size:60px;"">+</div>","null",""
"","","","","","html-button-response","65","158749","0.0-4.0-1.30","102","1","2022-10-09 11:48:46","ebf9627b049f568eb4bf28942cb89901","60.220.52.199","Mozilla/5.0 (Windows NT 10.0; WOW64) AppleWebKit/537.36 (KHTML, like Gecko) Chrome/94.0.4606.71 Safari/537.36 Core/1.94.172.400 QQBrowser/11.1.5140.400","WebKit","Chrome","94.0.4606.71","Windows","10.0","2476","<p>作为军队的指挥官，你可以选择发射导弹杀死 <strong>2名</strong> 敌国士兵，但会误杀附近的 <strong>1名</strong> 敌国平民。</p> <p>平民照片如下图所示。</p> <p></p> <img src='stimuli/faces/NFF1.jpg', style='max-width: 30%;'> </img> <p><strong>你是否选择发射武器？</strong></p>","1",""
"","","","","","html-keyboard-response","66","159753","0.0-4.0-0.31","102","1","2022-10-09 11:48:46","ebf9627b049f568eb4bf28942cb89901","60.220.52.199","Mozilla/5.0 (Windows NT 10.0; WOW64) AppleWebKit/537.36 (KHTML, like Gecko) Chrome/94.0.4606.71 Safari/537.36 Core/1.94.172.400 QQBrowser/11.1.5140.400","WebKit","Chrome","94.0.4606.71","Windows","10.0","null","<div style=""font-size:60px;"">+</div>","null",""
"","","","","","html-button-response","67","161716","0.0-4.0-1.31","102","1","2022-10-09 11:48:46","ebf9627b049f568eb4bf28942cb89901","60.220.52.199","Mozilla/5.0 (Windows NT 10.0; WOW64) AppleWebKit/537.36 (KHTML, like Gecko) Chrome/94.0.4606.71 Safari/537.36 Core/1.94.172.400 QQBrowser/11.1.5140.400","WebKit","Chrome","94.0.4606.71","Windows","10.0","1961","<p>作为军队的指挥官，你可以选择发射导弹杀死 <strong>8名</strong> 敌国士兵，但会误杀附近的 <strong>1名</strong> 敌国平民。</p> <p>平民照片如下图所示。</p> <p></p> <img src='stimuli/faces/NFM2.jpg', style='max-width: 30%;'> </img> <p><strong>你是否选择发射武器？</strong></p>","0",""
"","","","","","html-keyboard-response","68","162718","0.0-4.0-0.32","102","1","2022-10-09 11:48:46","ebf9627b049f568eb4bf28942cb89901","60.220.52.199","Mozilla/5.0 (Windows NT 10.0; WOW64) AppleWebKit/537.36 (KHTML, like Gecko) Chrome/94.0.4606.71 Safari/537.36 Core/1.94.172.400 QQBrowser/11.1.5140.400","WebKit","Chrome","94.0.4606.71","Windows","10.0","null","<div style=""font-size:60px;"">+</div>","null",""
"","","","","","html-button-response","69","164525","0.0-4.0-1.32","102","1","2022-10-09 11:48:46","ebf9627b049f568eb4bf28942cb89901","60.220.52.199","Mozilla/5.0 (Windows NT 10.0; WOW64) AppleWebKit/537.36 (KHTML, like Gecko) Chrome/94.0.4606.71 Safari/537.36 Core/1.94.172.400 QQBrowser/11.1.5140.400","WebKit","Chrome","94.0.4606.71","Windows","10.0","1804","<p>作为军队的指挥官，你可以选择发射导弹杀死 <strong>9名</strong> 敌国士兵，但会炸毁附近的 <strong>1棵</strong> 敌国树木。</p> <p>树木的照片如下图所示。</p> <p></p> <img src='stimuli/trees/9.png', style='max-width: 30%;'> </img> <p><strong>你是否选择发射武器？</strong></p>","0",""
"","","","","","html-keyboard-response","70","165526","0.0-4.0-0.33","102","1","2022-10-09 11:48:46","ebf9627b049f568eb4bf28942cb89901","60.220.52.199","Mozilla/5.0 (Windows NT 10.0; WOW64) AppleWebKit/537.36 (KHTML, like Gecko) Chrome/94.0.4606.71 Safari/537.36 Core/1.94.172.400 QQBrowser/11.1.5140.400","WebKit","Chrome","94.0.4606.71","Windows","10.0","null","<div style=""font-size:60px;"">+</div>","null",""
"","","","","","html-button-response","71","167648","0.0-4.0-1.33","102","1","2022-10-09 11:48:46","ebf9627b049f568eb4bf28942cb89901","60.220.52.199","Mozilla/5.0 (Windows NT 10.0; WOW64) AppleWebKit/537.36 (KHTML, like Gecko) Chrome/94.0.4606.71 Safari/537.36 Core/1.94.172.400 QQBrowser/11.1.5140.400","WebKit","Chrome","94.0.4606.71","Windows","10.0","2120","<p>作为军队的指挥官，你可以选择发射导弹杀死 <strong>5名</strong> 敌国士兵，但会炸毁附近的 <strong>1棵</strong> 敌国树木。</p> <p>树木的照片如下图所示。</p> <p></p> <img src='stimuli/trees/1.png', style='max-width: 30%;'> </img> <p><strong>你是否选择发射武器？</strong></p>","0",""
"","","","","","html-keyboard-response","72","168650","0.0-4.0-0.34","102","1","2022-10-09 11:48:46","ebf9627b049f568eb4bf28942cb89901","60.220.52.199","Mozilla/5.0 (Windows NT 10.0; WOW64) AppleWebKit/537.36 (KHTML, like Gecko) Chrome/94.0.4606.71 Safari/537.36 Core/1.94.172.400 QQBrowser/11.1.5140.400","WebKit","Chrome","94.0.4606.71","Windows","10.0","null","<div style=""font-size:60px;"">+</div>","null",""
"","","","","","html-button-response","73","170607","0.0-4.0-1.34","102","1","2022-10-09 11:48:46","ebf9627b049f568eb4bf28942cb89901","60.220.52.199","Mozilla/5.0 (Windows NT 10.0; WOW64) AppleWebKit/537.36 (KHTML, like Gecko) Chrome/94.0.4606.71 Safari/537.36 Core/1.94.172.400 QQBrowser/11.1.5140.400","WebKit","Chrome","94.0.4606.71","Windows","10.0","1955","<p>作为军队的指挥官，你可以选择发射导弹杀死 <strong>9名</strong> 敌国士兵，但会误杀附近的 <strong>1名</strong> 敌国平民。</p> <p>平民照片如下图所示。</p> <p></p> <img src='stimuli/faces/NFF1.jpg', style='max-width: 30%;'> </img> <p><strong>你是否选择发射武器？</strong></p>","0",""
"","","","","","html-keyboard-response","74","171610","0.0-4.0-0.35","102","1","2022-10-09 11:48:46","ebf9627b049f568eb4bf28942cb89901","60.220.52.199","Mozilla/5.0 (Windows NT 10.0; WOW64) AppleWebKit/537.36 (KHTML, like Gecko) Chrome/94.0.4606.71 Safari/537.36 Core/1.94.172.400 QQBrowser/11.1.5140.400","WebKit","Chrome","94.0.4606.71","Windows","10.0","null","<div style=""font-size:60px;"">+</div>","null",""
"","","","","","html-button-response","75","177119","0.0-4.0-1.35","102","1","2022-10-09 11:48:46","ebf9627b049f568eb4bf28942cb89901","60.220.52.199","Mozilla/5.0 (Windows NT 10.0; WOW64) AppleWebKit/537.36 (KHTML, like Gecko) Chrome/94.0.4606.71 Safari/537.36 Core/1.94.172.400 QQBrowser/11.1.5140.400","WebKit","Chrome","94.0.4606.71","Windows","10.0","5507","<p>作为军队的指挥官，你可以选择发射导弹杀死 <strong>7名</strong> 敌国士兵，但会炸毁附近的 <strong>1棵</strong> 敌国树木。</p> <p>树木的照片如下图所示。</p> <p></p> <img src='stimuli/trees/8.png', style='max-width: 30%;'> </img> <p><strong>你是否选择发射武器？</strong></p>","0",""
"","","","","","html-keyboard-response","76","178126","0.0-4.0-0.36","102","1","2022-10-09 11:48:46","ebf9627b049f568eb4bf28942cb89901","60.220.52.199","Mozilla/5.0 (Windows NT 10.0; WOW64) AppleWebKit/537.36 (KHTML, like Gecko) Chrome/94.0.4606.71 Safari/537.36 Core/1.94.172.400 QQBrowser/11.1.5140.400","WebKit","Chrome","94.0.4606.71","Windows","10.0","null","<div style=""font-size:60px;"">+</div>","null",""
"","","","","","html-button-response","77","181889","0.0-4.0-1.36","102","1","2022-10-09 11:48:46","ebf9627b049f568eb4bf28942cb89901","60.220.52.199","Mozilla/5.0 (Windows NT 10.0; WOW64) AppleWebKit/537.36 (KHTML, like Gecko) Chrome/94.0.4606.71 Safari/537.36 Core/1.94.172.400 QQBrowser/11.1.5140.400","WebKit","Chrome","94.0.4606.71","Windows","10.0","3760","<p>作为军队的指挥官，你可以选择发射导弹杀死 <strong>2名</strong> 敌国士兵，但会炸毁附近的 <strong>1棵</strong> 敌国树木。</p> <p>树木的照片如下图所示。</p> <p></p> <img src='stimuli/trees/3.png', style='max-width: 30%;'> </img> <p><strong>你是否选择发射武器？</strong></p>","0",""
"","","","","","html-keyboard-response","78","182902","0.0-4.0-0.37","102","1","2022-10-09 11:48:46","ebf9627b049f568eb4bf28942cb89901","60.220.52.199","Mozilla/5.0 (Windows NT 10.0; WOW64) AppleWebKit/537.36 (KHTML, like Gecko) Chrome/94.0.4606.71 Safari/537.36 Core/1.94.172.400 QQBrowser/11.1.5140.400","WebKit","Chrome","94.0.4606.71","Windows","10.0","null","<div style=""font-size:60px;"">+</div>","null",""
"","","","","","html-button-response","79","183858","0.0-4.0-1.37","102","1","2022-10-09 11:48:46","ebf9627b049f568eb4bf28942cb89901","60.220.52.199","Mozilla/5.0 (Windows NT 10.0; WOW64) AppleWebKit/537.36 (KHTML, like Gecko) Chrome/94.0.4606.71 Safari/537.36 Core/1.94.172.400 QQBrowser/11.1.5140.400","WebKit","Chrome","94.0.4606.71","Windows","10.0","954","<p>作为军队的指挥官，你可以选择发射导弹杀死 <strong>7名</strong> 敌国士兵，但会误杀附近的 <strong>1名</strong> 敌国平民。</p> <p>平民照片如下图所示。</p> <p></p> <img src='stimuli/faces/NFM6.jpg', style='max-width: 30%;'> </img> <p><strong>你是否选择发射武器？</strong></p>","0",""
"","","","","","html-keyboard-response","80","184867","0.0-4.0-0.38","102","1","2022-10-09 11:48:46","ebf9627b049f568eb4bf28942cb89901","60.220.52.199","Mozilla/5.0 (Windows NT 10.0; WOW64) AppleWebKit/537.36 (KHTML, like Gecko) Chrome/94.0.4606.71 Safari/537.36 Core/1.94.172.400 QQBrowser/11.1.5140.400","WebKit","Chrome","94.0.4606.71","Windows","10.0","null","<div style=""font-size:60px;"">+</div>","null",""
"","","","","","html-button-response","81","187209","0.0-4.0-1.38","102","1","2022-10-09 11:48:46","ebf9627b049f568eb4bf28942cb89901","60.220.52.199","Mozilla/5.0 (Windows NT 10.0; WOW64) AppleWebKit/537.36 (KHTML, like Gecko) Chrome/94.0.4606.71 Safari/537.36 Core/1.94.172.400 QQBrowser/11.1.5140.400","WebKit","Chrome","94.0.4606.71","Windows","10.0","2340","<p>作为军队的指挥官，你可以选择发射导弹杀死 <strong>5名</strong> 敌国士兵，但会炸毁附近的 <strong>1棵</strong> 敌国树木。</p> <p>树木的照片如下图所示。</p> <p></p> <img src='stimuli/trees/16.png', style='max-width: 30%;'> </img> <p><strong>你是否选择发射武器？</strong></p>","0",""
"","","","","","html-keyboard-response","82","188223","0.0-4.0-0.39","102","1","2022-10-09 11:48:46","ebf9627b049f568eb4bf28942cb89901","60.220.52.199","Mozilla/5.0 (Windows NT 10.0; WOW64) AppleWebKit/537.36 (KHTML, like Gecko) Chrome/94.0.4606.71 Safari/537.36 Core/1.94.172.400 QQBrowser/11.1.5140.400","WebKit","Chrome","94.0.4606.71","Windows","10.0","null","<div style=""font-size:60px;"">+</div>","null",""
"","","","","","html-button-response","83","189606","0.0-4.0-1.39","102","1","2022-10-09 11:48:46","ebf9627b049f568eb4bf28942cb89901","60.220.52.199","Mozilla/5.0 (Windows NT 10.0; WOW64) AppleWebKit/537.36 (KHTML, like Gecko) Chrome/94.0.4606.71 Safari/537.36 Core/1.94.172.400 QQBrowser/11.1.5140.400","WebKit","Chrome","94.0.4606.71","Windows","10.0","1381","<p>作为军队的指挥官，你可以选择发射导弹杀死 <strong>10名</strong> 敌国士兵，但会误杀附近的 <strong>1名</strong> 敌国平民。</p> <p>平民照片如下图所示。</p> <p></p> <img src='stimuli/faces/NFM8.jpg', style='max-width: 30%;'> </img> <p><strong>你是否选择发射武器？</strong></p>","0",""
"","","","","","html-keyboard-response","84","190617","0.0-4.0-0.40","102","1","2022-10-09 11:48:46","ebf9627b049f568eb4bf28942cb89901","60.220.52.199","Mozilla/5.0 (Windows NT 10.0; WOW64) AppleWebKit/537.36 (KHTML, like Gecko) Chrome/94.0.4606.71 Safari/537.36 Core/1.94.172.400 QQBrowser/11.1.5140.400","WebKit","Chrome","94.0.4606.71","Windows","10.0","null","<div style=""font-size:60px;"">+</div>","null",""
"","","","","","html-button-response","85","191818","0.0-4.0-1.40","102","1","2022-10-09 11:48:46","ebf9627b049f568eb4bf28942cb89901","60.220.52.199","Mozilla/5.0 (Windows NT 10.0; WOW64) AppleWebKit/537.36 (KHTML, like Gecko) Chrome/94.0.4606.71 Safari/537.36 Core/1.94.172.400 QQBrowser/11.1.5140.400","WebKit","Chrome","94.0.4606.71","Windows","10.0","1199","<p>作为军队的指挥官，你可以选择发射导弹杀死 <strong>6名</strong> 敌国士兵，但会误杀附近的 <strong>1名</strong> 敌国平民。</p> <p>平民照片如下图所示。</p> <p></p> <img src='stimuli/faces/NFF4.jpg', style='max-width: 30%;'> </img> <p><strong>你是否选择发射武器？</strong></p>","0",""
"","","","","","html-keyboard-response","86","192829","0.0-4.0-0.41","102","1","2022-10-09 11:48:46","ebf9627b049f568eb4bf28942cb89901","60.220.52.199","Mozilla/5.0 (Windows NT 10.0; WOW64) AppleWebKit/537.36 (KHTML, like Gecko) Chrome/94.0.4606.71 Safari/537.36 Core/1.94.172.400 QQBrowser/11.1.5140.400","WebKit","Chrome","94.0.4606.71","Windows","10.0","null","<div style=""font-size:60px;"">+</div>","null",""
"","","","","","html-button-response","87","194324","0.0-4.0-1.41","102","1","2022-10-09 11:48:46","ebf9627b049f568eb4bf28942cb89901","60.220.52.199","Mozilla/5.0 (Windows NT 10.0; WOW64) AppleWebKit/537.36 (KHTML, like Gecko) Chrome/94.0.4606.71 Safari/537.36 Core/1.94.172.400 QQBrowser/11.1.5140.400","WebKit","Chrome","94.0.4606.71","Windows","10.0","1492","<p>作为军队的指挥官，你可以选择发射导弹杀死 <strong>2名</strong> 敌国士兵，但会炸毁附近的 <strong>1棵</strong> 敌国树木。</p> <p>树木的照片如下图所示。</p> <p></p> <img src='stimuli/trees/14.png', style='max-width: 30%;'> </img> <p><strong>你是否选择发射武器？</strong></p>","0",""
"","","","","","html-keyboard-response","88","195333","0.0-4.0-0.42","102","1","2022-10-09 11:48:46","ebf9627b049f568eb4bf28942cb89901","60.220.52.199","Mozilla/5.0 (Windows NT 10.0; WOW64) AppleWebKit/537.36 (KHTML, like Gecko) Chrome/94.0.4606.71 Safari/537.36 Core/1.94.172.400 QQBrowser/11.1.5140.400","WebKit","Chrome","94.0.4606.71","Windows","10.0","null","<div style=""font-size:60px;"">+</div>","null",""
"","","","","","html-button-response","89","196329","0.0-4.0-1.42","102","1","2022-10-09 11:48:46","ebf9627b049f568eb4bf28942cb89901","60.220.52.199","Mozilla/5.0 (Windows NT 10.0; WOW64) AppleWebKit/537.36 (KHTML, like Gecko) Chrome/94.0.4606.71 Safari/537.36 Core/1.94.172.400 QQBrowser/11.1.5140.400","WebKit","Chrome","94.0.4606.71","Windows","10.0","994","<p>作为军队的指挥官，你可以选择发射导弹杀死 <strong>9名</strong> 敌国士兵，但会误杀附近的 <strong>1名</strong> 敌国平民。</p> <p>平民照片如下图所示。</p> <p></p> <img src='stimuli/faces/NFM4.jpg', style='max-width: 30%;'> </img> <p><strong>你是否选择发射武器？</strong></p>","0",""
"","","","","","html-keyboard-response","90","197341","0.0-4.0-0.43","102","1","2022-10-09 11:48:46","ebf9627b049f568eb4bf28942cb89901","60.220.52.199","Mozilla/5.0 (Windows NT 10.0; WOW64) AppleWebKit/537.36 (KHTML, like Gecko) Chrome/94.0.4606.71 Safari/537.36 Core/1.94.172.400 QQBrowser/11.1.5140.400","WebKit","Chrome","94.0.4606.71","Windows","10.0","null","<div style=""font-size:60px;"">+</div>","null",""
"","","","","","html-button-response","91","198630","0.0-4.0-1.43","102","1","2022-10-09 11:48:46","ebf9627b049f568eb4bf28942cb89901","60.220.52.199","Mozilla/5.0 (Windows NT 10.0; WOW64) AppleWebKit/537.36 (KHTML, like Gecko) Chrome/94.0.4606.71 Safari/537.36 Core/1.94.172.400 QQBrowser/11.1.5140.400","WebKit","Chrome","94.0.4606.71","Windows","10.0","1287","<p>作为军队的指挥官，你可以选择发射导弹杀死 <strong>7名</strong> 敌国士兵，但会炸毁附近的 <strong>1棵</strong> 敌国树木。</p> <p>树木的照片如下图所示。</p> <p></p> <img src='stimuli/trees/13.png', style='max-width: 30%;'> </img> <p><strong>你是否选择发射武器？</strong></p>","0",""
"","","","","","html-keyboard-response","92","199636","0.0-4.0-0.44","102","1","2022-10-09 11:48:46","ebf9627b049f568eb4bf28942cb89901","60.220.52.199","Mozilla/5.0 (Windows NT 10.0; WOW64) AppleWebKit/537.36 (KHTML, like Gecko) Chrome/94.0.4606.71 Safari/537.36 Core/1.94.172.400 QQBrowser/11.1.5140.400","WebKit","Chrome","94.0.4606.71","Windows","10.0","null","<div style=""font-size:60px;"">+</div>","null",""
"","","","","","html-button-response","93","200646","0.0-4.0-1.44","102","1","2022-10-09 11:48:46","ebf9627b049f568eb4bf28942cb89901","60.220.52.199","Mozilla/5.0 (Windows NT 10.0; WOW64) AppleWebKit/537.36 (KHTML, like Gecko) Chrome/94.0.4606.71 Safari/537.36 Core/1.94.172.400 QQBrowser/11.1.5140.400","WebKit","Chrome","94.0.4606.71","Windows","10.0","1008","<p>作为军队的指挥官，你可以选择发射导弹杀死 <strong>6名</strong> 敌国士兵，但会炸毁附近的 <strong>1棵</strong> 敌国树木。</p> <p>树木的照片如下图所示。</p> <p></p> <img src='stimuli/trees/3.png', style='max-width: 30%;'> </img> <p><strong>你是否选择发射武器？</strong></p>","0",""
"","","","","","html-keyboard-response","94","201658","0.0-4.0-0.45","102","1","2022-10-09 11:48:46","ebf9627b049f568eb4bf28942cb89901","60.220.52.199","Mozilla/5.0 (Windows NT 10.0; WOW64) AppleWebKit/537.36 (KHTML, like Gecko) Chrome/94.0.4606.71 Safari/537.36 Core/1.94.172.400 QQBrowser/11.1.5140.400","WebKit","Chrome","94.0.4606.71","Windows","10.0","null","<div style=""font-size:60px;"">+</div>","null",""
"","","","","","html-button-response","95","202626","0.0-4.0-1.45","102","1","2022-10-09 11:48:46","ebf9627b049f568eb4bf28942cb89901","60.220.52.199","Mozilla/5.0 (Windows NT 10.0; WOW64) AppleWebKit/537.36 (KHTML, like Gecko) Chrome/94.0.4606.71 Safari/537.36 Core/1.94.172.400 QQBrowser/11.1.5140.400","WebKit","Chrome","94.0.4606.71","Windows","10.0","965","<p>作为军队的指挥官，你可以选择发射导弹杀死 <strong>2名</strong> 敌国士兵，但会炸毁附近的 <strong>1棵</strong> 敌国树木。</p> <p>树木的照片如下图所示。</p> <p></p> <img src='stimuli/trees/5.png', style='max-width: 30%;'> </img> <p><strong>你是否选择发射武器？</strong></p>","0",""
"","","","","","html-keyboard-response","96","203636","0.0-4.0-0.46","102","1","2022-10-09 11:48:46","ebf9627b049f568eb4bf28942cb89901","60.220.52.199","Mozilla/5.0 (Windows NT 10.0; WOW64) AppleWebKit/537.36 (KHTML, like Gecko) Chrome/94.0.4606.71 Safari/537.36 Core/1.94.172.400 QQBrowser/11.1.5140.400","WebKit","Chrome","94.0.4606.71","Windows","10.0","null","<div style=""font-size:60px;"">+</div>","null",""
"","","","","","html-button-response","97","205284","0.0-4.0-1.46","102","1","2022-10-09 11:48:46","ebf9627b049f568eb4bf28942cb89901","60.220.52.199","Mozilla/5.0 (Windows NT 10.0; WOW64) AppleWebKit/537.36 (KHTML, like Gecko) Chrome/94.0.4606.71 Safari/537.36 Core/1.94.172.400 QQBrowser/11.1.5140.400","WebKit","Chrome","94.0.4606.71","Windows","10.0","1646","<p>作为军队的指挥官，你可以选择发射导弹杀死 <strong>8名</strong> 敌国士兵，但会炸毁附近的 <strong>1棵</strong> 敌国树木。</p> <p>树木的照片如下图所示。</p> <p></p> <img src='stimuli/trees/6.png', style='max-width: 30%;'> </img> <p><strong>你是否选择发射武器？</strong></p>","0",""
"","","","","","html-keyboard-response","98","206293","0.0-4.0-0.47","102","1","2022-10-09 11:48:46","ebf9627b049f568eb4bf28942cb89901","60.220.52.199","Mozilla/5.0 (Windows NT 10.0; WOW64) AppleWebKit/537.36 (KHTML, like Gecko) Chrome/94.0.4606.71 Safari/537.36 Core/1.94.172.400 QQBrowser/11.1.5140.400","WebKit","Chrome","94.0.4606.71","Windows","10.0","null","<div style=""font-size:60px;"">+</div>","null",""
"","","","","","html-button-response","99","214185","0.0-4.0-1.47","102","1","2022-10-09 11:48:46","ebf9627b049f568eb4bf28942cb89901","60.220.52.199","Mozilla/5.0 (Windows NT 10.0; WOW64) AppleWebKit/537.36 (KHTML, like Gecko) Chrome/94.0.4606.71 Safari/537.36 Core/1.94.172.400 QQBrowser/11.1.5140.400","WebKit","Chrome","94.0.4606.71","Windows","10.0","7890","<p>作为军队的指挥官，你可以选择发射导弹杀死 <strong>2名</strong> 敌国士兵，但会炸毁附近的 <strong>1棵</strong> 敌国树木。</p> <p>树木的照片如下图所示。</p> <p></p> <img src='stimuli/trees/6.png', style='max-width: 30%;'> </img> <p><strong>你是否选择发射武器？</strong></p>","0",""
"","","","","","html-keyboard-response","100","215193","0.0-4.0-0.48","102","1","2022-10-09 11:48:46","ebf9627b049f568eb4bf28942cb89901","60.220.52.199","Mozilla/5.0 (Windows NT 10.0; WOW64) AppleWebKit/537.36 (KHTML, like Gecko) Chrome/94.0.4606.71 Safari/537.36 Core/1.94.172.400 QQBrowser/11.1.5140.400","WebKit","Chrome","94.0.4606.71","Windows","10.0","null","<div style=""font-size:60px;"">+</div>","null",""
"","","","","","html-button-response","101","235527","0.0-4.0-1.48","102","1","2022-10-09 11:48:46","ebf9627b049f568eb4bf28942cb89901","60.220.52.199","Mozilla/5.0 (Windows NT 10.0; WOW64) AppleWebKit/537.36 (KHTML, like Gecko) Chrome/94.0.4606.71 Safari/537.36 Core/1.94.172.400 QQBrowser/11.1.5140.400","WebKit","Chrome","94.0.4606.71","Windows","10.0","20332","<p>作为军队的指挥官，你可以选择发射导弹杀死 <strong>9名</strong> 敌国士兵，但会炸毁附近的 <strong>1棵</strong> 敌国树木。</p> <p>树木的照片如下图所示。</p> <p></p> <img src='stimuli/trees/10.png', style='max-width: 30%;'> </img> <p><strong>你是否选择发射武器？</strong></p>","0",""
"","","","","","html-keyboard-response","102","236532","0.0-4.0-0.49","102","1","2022-10-09 11:48:46","ebf9627b049f568eb4bf28942cb89901","60.220.52.199","Mozilla/5.0 (Windows NT 10.0; WOW64) AppleWebKit/537.36 (KHTML, like Gecko) Chrome/94.0.4606.71 Safari/537.36 Core/1.94.172.400 QQBrowser/11.1.5140.400","WebKit","Chrome","94.0.4606.71","Windows","10.0","null","<div style=""font-size:60px;"">+</div>","null",""
"","","","","","html-button-response","103","241123","0.0-4.0-1.49","102","1","2022-10-09 11:48:46","ebf9627b049f568eb4bf28942cb89901","60.220.52.199","Mozilla/5.0 (Windows NT 10.0; WOW64) AppleWebKit/537.36 (KHTML, like Gecko) Chrome/94.0.4606.71 Safari/537.36 Core/1.94.172.400 QQBrowser/11.1.5140.400","WebKit","Chrome","94.0.4606.71","Windows","10.0","4589","<p>作为军队的指挥官，你可以选择发射导弹杀死 <strong>3名</strong> 敌国士兵，但会误杀附近的 <strong>1名</strong> 敌国平民。</p> <p>平民照片如下图所示。</p> <p></p> <img src='stimuli/faces/NFM7.jpg', style='max-width: 30%;'> </img> <p><strong>你是否选择发射武器？</strong></p>","0",""
"","","","","","html-keyboard-response","104","242132","0.0-4.0-0.50","102","1","2022-10-09 11:48:46","ebf9627b049f568eb4bf28942cb89901","60.220.52.199","Mozilla/5.0 (Windows NT 10.0; WOW64) AppleWebKit/537.36 (KHTML, like Gecko) Chrome/94.0.4606.71 Safari/537.36 Core/1.94.172.400 QQBrowser/11.1.5140.400","WebKit","Chrome","94.0.4606.71","Windows","10.0","null","<div style=""font-size:60px;"">+</div>","null",""
"","","","","","html-button-response","105","244085","0.0-4.0-1.50","102","1","2022-10-09 11:48:46","ebf9627b049f568eb4bf28942cb89901","60.220.52.199","Mozilla/5.0 (Windows NT 10.0; WOW64) AppleWebKit/537.36 (KHTML, like Gecko) Chrome/94.0.4606.71 Safari/537.36 Core/1.94.172.400 QQBrowser/11.1.5140.400","WebKit","Chrome","94.0.4606.71","Windows","10.0","1951","<p>作为军队的指挥官，你可以选择发射导弹杀死 <strong>6名</strong> 敌国士兵，但会炸毁附近的 <strong>1棵</strong> 敌国树木。</p> <p>树木的照片如下图所示。</p> <p></p> <img src='stimuli/trees/2.png', style='max-width: 30%;'> </img> <p><strong>你是否选择发射武器？</strong></p>","0",""
"","","","","","html-keyboard-response","106","245092","0.0-4.0-0.51","102","1","2022-10-09 11:48:46","ebf9627b049f568eb4bf28942cb89901","60.220.52.199","Mozilla/5.0 (Windows NT 10.0; WOW64) AppleWebKit/537.36 (KHTML, like Gecko) Chrome/94.0.4606.71 Safari/537.36 Core/1.94.172.400 QQBrowser/11.1.5140.400","WebKit","Chrome","94.0.4606.71","Windows","10.0","null","<div style=""font-size:60px;"">+</div>","null",""
"","","","","","html-button-response","107","247707","0.0-4.0-1.51","102","1","2022-10-09 11:48:46","ebf9627b049f568eb4bf28942cb89901","60.220.52.199","Mozilla/5.0 (Windows NT 10.0; WOW64) AppleWebKit/537.36 (KHTML, like Gecko) Chrome/94.0.4606.71 Safari/537.36 Core/1.94.172.400 QQBrowser/11.1.5140.400","WebKit","Chrome","94.0.4606.71","Windows","10.0","2613","<p>作为军队的指挥官，你可以选择发射导弹杀死 <strong>3名</strong> 敌国士兵，但会炸毁附近的 <strong>1棵</strong> 敌国树木。</p> <p>树木的照片如下图所示。</p> <p></p> <img src='stimuli/trees/10.png', style='max-width: 30%;'> </img> <p><strong>你是否选择发射武器？</strong></p>","0",""
"","","","","","html-keyboard-response","108","248720","0.0-4.0-0.52","102","1","2022-10-09 11:48:46","ebf9627b049f568eb4bf28942cb89901","60.220.52.199","Mozilla/5.0 (Windows NT 10.0; WOW64) AppleWebKit/537.36 (KHTML, like Gecko) Chrome/94.0.4606.71 Safari/537.36 Core/1.94.172.400 QQBrowser/11.1.5140.400","WebKit","Chrome","94.0.4606.71","Windows","10.0","null","<div style=""font-size:60px;"">+</div>","null",""
"","","","","","html-button-response","109","251338","0.0-4.0-1.52","102","1","2022-10-09 11:48:46","ebf9627b049f568eb4bf28942cb89901","60.220.52.199","Mozilla/5.0 (Windows NT 10.0; WOW64) AppleWebKit/537.36 (KHTML, like Gecko) Chrome/94.0.4606.71 Safari/537.36 Core/1.94.172.400 QQBrowser/11.1.5140.400","WebKit","Chrome","94.0.4606.71","Windows","10.0","2616","<p>作为军队的指挥官，你可以选择发射导弹杀死 <strong>4名</strong> 敌国士兵，但会误杀附近的 <strong>1名</strong> 敌国平民。</p> <p>平民照片如下图所示。</p> <p></p> <img src='stimuli/faces/NFM4.jpg', style='max-width: 30%;'> </img> <p><strong>你是否选择发射武器？</strong></p>","0",""
"","","","","","html-keyboard-response","110","252349","0.0-4.0-0.53","102","1","2022-10-09 11:48:46","ebf9627b049f568eb4bf28942cb89901","60.220.52.199","Mozilla/5.0 (Windows NT 10.0; WOW64) AppleWebKit/537.36 (KHTML, like Gecko) Chrome/94.0.4606.71 Safari/537.36 Core/1.94.172.400 QQBrowser/11.1.5140.400","WebKit","Chrome","94.0.4606.71","Windows","10.0","null","<div style=""font-size:60px;"">+</div>","null",""
"","","","","","html-button-response","111","254454","0.0-4.0-1.53","102","1","2022-10-09 11:48:46","ebf9627b049f568eb4bf28942cb89901","60.220.52.199","Mozilla/5.0 (Windows NT 10.0; WOW64) AppleWebKit/537.36 (KHTML, like Gecko) Chrome/94.0.4606.71 Safari/537.36 Core/1.94.172.400 QQBrowser/11.1.5140.400","WebKit","Chrome","94.0.4606.71","Windows","10.0","2103","<p>作为军队的指挥官，你可以选择发射导弹杀死 <strong>5名</strong> 敌国士兵，但会误杀附近的 <strong>1名</strong> 敌国平民。</p> <p>平民照片如下图所示。</p> <p></p> <img src='stimuli/faces/NFF7.jpg', style='max-width: 30%;'> </img> <p><strong>你是否选择发射武器？</strong></p>","0",""
"","","","","","html-keyboard-response","112","255464","0.0-4.0-0.54","102","1","2022-10-09 11:48:46","ebf9627b049f568eb4bf28942cb89901","60.220.52.199","Mozilla/5.0 (Windows NT 10.0; WOW64) AppleWebKit/537.36 (KHTML, like Gecko) Chrome/94.0.4606.71 Safari/537.36 Core/1.94.172.400 QQBrowser/11.1.5140.400","WebKit","Chrome","94.0.4606.71","Windows","10.0","null","<div style=""font-size:60px;"">+</div>","null",""
"","","","","","html-button-response","113","257847","0.0-4.0-1.54","102","1","2022-10-09 11:48:46","ebf9627b049f568eb4bf28942cb89901","60.220.52.199","Mozilla/5.0 (Windows NT 10.0; WOW64) AppleWebKit/537.36 (KHTML, like Gecko) Chrome/94.0.4606.71 Safari/537.36 Core/1.94.172.400 QQBrowser/11.1.5140.400","WebKit","Chrome","94.0.4606.71","Windows","10.0","2380","<p>作为军队的指挥官，你可以选择发射导弹杀死 <strong>4名</strong> 敌国士兵，但会炸毁附近的 <strong>1棵</strong> 敌国树木。</p> <p>树木的照片如下图所示。</p> <p></p> <img src='stimuli/trees/12.png', style='max-width: 30%;'> </img> <p><strong>你是否选择发射武器？</strong></p>","0",""
"","","","","","html-keyboard-response","114","258856","0.0-4.0-0.55","102","1","2022-10-09 11:48:46","ebf9627b049f568eb4bf28942cb89901","60.220.52.199","Mozilla/5.0 (Windows NT 10.0; WOW64) AppleWebKit/537.36 (KHTML, like Gecko) Chrome/94.0.4606.71 Safari/537.36 Core/1.94.172.400 QQBrowser/11.1.5140.400","WebKit","Chrome","94.0.4606.71","Windows","10.0","null","<div style=""font-size:60px;"">+</div>","null",""
"","","","","","html-button-response","115","260567","0.0-4.0-1.55","102","1","2022-10-09 11:48:46","ebf9627b049f568eb4bf28942cb89901","60.220.52.199","Mozilla/5.0 (Windows NT 10.0; WOW64) AppleWebKit/537.36 (KHTML, like Gecko) Chrome/94.0.4606.71 Safari/537.36 Core/1.94.172.400 QQBrowser/11.1.5140.400","WebKit","Chrome","94.0.4606.71","Windows","10.0","1708","<p>作为军队的指挥官，你可以选择发射导弹杀死 <strong>3名</strong> 敌国士兵，但会误杀附近的 <strong>1名</strong> 敌国平民。</p> <p>平民照片如下图所示。</p> <p></p> <img src='stimuli/faces/NFM5.jpg', style='max-width: 30%;'> </img> <p><strong>你是否选择发射武器？</strong></p>","0",""
"","","","","","html-keyboard-response","116","261583","0.0-4.0-0.56","102","1","2022-10-09 11:48:46","ebf9627b049f568eb4bf28942cb89901","60.220.52.199","Mozilla/5.0 (Windows NT 10.0; WOW64) AppleWebKit/537.36 (KHTML, like Gecko) Chrome/94.0.4606.71 Safari/537.36 Core/1.94.172.400 QQBrowser/11.1.5140.400","WebKit","Chrome","94.0.4606.71","Windows","10.0","null","<div style=""font-size:60px;"">+</div>","null",""
"","","","","","html-button-response","117","262864","0.0-4.0-1.56","102","1","2022-10-09 11:48:46","ebf9627b049f568eb4bf28942cb89901","60.220.52.199","Mozilla/5.0 (Windows NT 10.0; WOW64) AppleWebKit/537.36 (KHTML, like Gecko) Chrome/94.0.4606.71 Safari/537.36 Core/1.94.172.400 QQBrowser/11.1.5140.400","WebKit","Chrome","94.0.4606.71","Windows","10.0","1278","<p>作为军队的指挥官，你可以选择发射导弹杀死 <strong>10名</strong> 敌国士兵，但会误杀附近的 <strong>1名</strong> 敌国平民。</p> <p>平民照片如下图所示。</p> <p></p> <img src='stimuli/faces/NFM3.jpg', style='max-width: 30%;'> </img> <p><strong>你是否选择发射武器？</strong></p>","0",""
"","","","","","html-keyboard-response","118","263879","0.0-4.0-0.57","102","1","2022-10-09 11:48:46","ebf9627b049f568eb4bf28942cb89901","60.220.52.199","Mozilla/5.0 (Windows NT 10.0; WOW64) AppleWebKit/537.36 (KHTML, like Gecko) Chrome/94.0.4606.71 Safari/537.36 Core/1.94.172.400 QQBrowser/11.1.5140.400","WebKit","Chrome","94.0.4606.71","Windows","10.0","null","<div style=""font-size:60px;"">+</div>","null",""
"","","","","","html-button-response","119","266644","0.0-4.0-1.57","102","1","2022-10-09 11:48:46","ebf9627b049f568eb4bf28942cb89901","60.220.52.199","Mozilla/5.0 (Windows NT 10.0; WOW64) AppleWebKit/537.36 (KHTML, like Gecko) Chrome/94.0.4606.71 Safari/537.36 Core/1.94.172.400 QQBrowser/11.1.5140.400","WebKit","Chrome","94.0.4606.71","Windows","10.0","2762","<p>作为军队的指挥官，你可以选择发射导弹杀死 <strong>4名</strong> 敌国士兵，但会炸毁附近的 <strong>1棵</strong> 敌国树木。</p> <p>树木的照片如下图所示。</p> <p></p> <img src='stimuli/trees/15.png', style='max-width: 30%;'> </img> <p><strong>你是否选择发射武器？</strong></p>","0",""
"","","","","","html-keyboard-response","120","267658","0.0-4.0-0.58","102","1","2022-10-09 11:48:46","ebf9627b049f568eb4bf28942cb89901","60.220.52.199","Mozilla/5.0 (Windows NT 10.0; WOW64) AppleWebKit/537.36 (KHTML, like Gecko) Chrome/94.0.4606.71 Safari/537.36 Core/1.94.172.400 QQBrowser/11.1.5140.400","WebKit","Chrome","94.0.4606.71","Windows","10.0","null","<div style=""font-size:60px;"">+</div>","null",""
"","","","","","html-button-response","121","269622","0.0-4.0-1.58","102","1","2022-10-09 11:48:46","ebf9627b049f568eb4bf28942cb89901","60.220.52.199","Mozilla/5.0 (Windows NT 10.0; WOW64) AppleWebKit/537.36 (KHTML, like Gecko) Chrome/94.0.4606.71 Safari/537.36 Core/1.94.172.400 QQBrowser/11.1.5140.400","WebKit","Chrome","94.0.4606.71","Windows","10.0","1961","<p>作为军队的指挥官，你可以选择发射导弹杀死 <strong>5名</strong> 敌国士兵，但会误杀附近的 <strong>1名</strong> 敌国平民。</p> <p>平民照片如下图所示。</p> <p></p> <img src='stimuli/faces/NFM3.jpg', style='max-width: 30%;'> </img> <p><strong>你是否选择发射武器？</strong></p>","0",""
"","","","","","html-keyboard-response","122","270634","0.0-4.0-0.59","102","1","2022-10-09 11:48:46","ebf9627b049f568eb4bf28942cb89901","60.220.52.199","Mozilla/5.0 (Windows NT 10.0; WOW64) AppleWebKit/537.36 (KHTML, like Gecko) Chrome/94.0.4606.71 Safari/537.36 Core/1.94.172.400 QQBrowser/11.1.5140.400","WebKit","Chrome","94.0.4606.71","Windows","10.0","null","<div style=""font-size:60px;"">+</div>","null",""
"","","","","","html-button-response","123","271725","0.0-4.0-1.59","102","1","2022-10-09 11:48:46","ebf9627b049f568eb4bf28942cb89901","60.220.52.199","Mozilla/5.0 (Windows NT 10.0; WOW64) AppleWebKit/537.36 (KHTML, like Gecko) Chrome/94.0.4606.71 Safari/537.36 Core/1.94.172.400 QQBrowser/11.1.5140.400","WebKit","Chrome","94.0.4606.71","Windows","10.0","1089","<p>作为军队的指挥官，你可以选择发射导弹杀死 <strong>6名</strong> 敌国士兵，但会误杀附近的 <strong>1名</strong> 敌国平民。</p> <p>平民照片如下图所示。</p> <p></p> <img src='stimuli/faces/NFF7.jpg', style='max-width: 30%;'> </img> <p><strong>你是否选择发射武器？</strong></p>","0",""
"","","","","","html-keyboard-response","124","272738","0.0-4.0-0.60","102","1","2022-10-09 11:48:46","ebf9627b049f568eb4bf28942cb89901","60.220.52.199","Mozilla/5.0 (Windows NT 10.0; WOW64) AppleWebKit/537.36 (KHTML, like Gecko) Chrome/94.0.4606.71 Safari/537.36 Core/1.94.172.400 QQBrowser/11.1.5140.400","WebKit","Chrome","94.0.4606.71","Windows","10.0","null","<div style=""font-size:60px;"">+</div>","null",""
"","","","","","html-button-response","125","274680","0.0-4.0-1.60","102","1","2022-10-09 11:48:46","ebf9627b049f568eb4bf28942cb89901","60.220.52.199","Mozilla/5.0 (Windows NT 10.0; WOW64) AppleWebKit/537.36 (KHTML, like Gecko) Chrome/94.0.4606.71 Safari/537.36 Core/1.94.172.400 QQBrowser/11.1.5140.400","WebKit","Chrome","94.0.4606.71","Windows","10.0","1940","<p>作为军队的指挥官，你可以选择发射导弹杀死 <strong>1名</strong> 敌国士兵，但会炸毁附近的 <strong>1棵</strong> 敌国树木。</p> <p>树木的照片如下图所示。</p> <p></p> <img src='stimuli/trees/9.png', style='max-width: 30%;'> </img> <p><strong>你是否选择发射武器？</strong></p>","1",""
"","","","","","html-keyboard-response","126","275683","0.0-4.0-0.61","102","1","2022-10-09 11:48:46","ebf9627b049f568eb4bf28942cb89901","60.220.52.199","Mozilla/5.0 (Windows NT 10.0; WOW64) AppleWebKit/537.36 (KHTML, like Gecko) Chrome/94.0.4606.71 Safari/537.36 Core/1.94.172.400 QQBrowser/11.1.5140.400","WebKit","Chrome","94.0.4606.71","Windows","10.0","null","<div style=""font-size:60px;"">+</div>","null",""
"","","","","","html-button-response","127","277718","0.0-4.0-1.61","102","1","2022-10-09 11:48:46","ebf9627b049f568eb4bf28942cb89901","60.220.52.199","Mozilla/5.0 (Windows NT 10.0; WOW64) AppleWebKit/537.36 (KHTML, like Gecko) Chrome/94.0.4606.71 Safari/537.36 Core/1.94.172.400 QQBrowser/11.1.5140.400","WebKit","Chrome","94.0.4606.71","Windows","10.0","2033","<p>作为军队的指挥官，你可以选择发射导弹杀死 <strong>3名</strong> 敌国士兵，但会误杀附近的 <strong>1名</strong> 敌国平民。</p> <p>平民照片如下图所示。</p> <p></p> <img src='stimuli/faces/NFM2.jpg', style='max-width: 30%;'> </img> <p><strong>你是否选择发射武器？</strong></p>","0",""
"","","","","","html-keyboard-response","128","278729","0.0-4.0-0.62","102","1","2022-10-09 11:48:46","ebf9627b049f568eb4bf28942cb89901","60.220.52.199","Mozilla/5.0 (Windows NT 10.0; WOW64) AppleWebKit/537.36 (KHTML, like Gecko) Chrome/94.0.4606.71 Safari/537.36 Core/1.94.172.400 QQBrowser/11.1.5140.400","WebKit","Chrome","94.0.4606.71","Windows","10.0","null","<div style=""font-size:60px;"">+</div>","null",""
"","","","","","html-button-response","129","280703","0.0-4.0-1.62","102","1","2022-10-09 11:48:46","ebf9627b049f568eb4bf28942cb89901","60.220.52.199","Mozilla/5.0 (Windows NT 10.0; WOW64) AppleWebKit/537.36 (KHTML, like Gecko) Chrome/94.0.4606.71 Safari/537.36 Core/1.94.172.400 QQBrowser/11.1.5140.400","WebKit","Chrome","94.0.4606.71","Windows","10.0","1972","<p>作为军队的指挥官，你可以选择发射导弹杀死 <strong>6名</strong> 敌国士兵，但会误杀附近的 <strong>1名</strong> 敌国平民。</p> <p>平民照片如下图所示。</p> <p></p> <img src='stimuli/faces/NFF3.jpg', style='max-width: 30%;'> </img> <p><strong>你是否选择发射武器？</strong></p>","0",""
"","","","","","html-keyboard-response","130","281715","0.0-4.0-0.63","102","1","2022-10-09 11:48:46","ebf9627b049f568eb4bf28942cb89901","60.220.52.199","Mozilla/5.0 (Windows NT 10.0; WOW64) AppleWebKit/537.36 (KHTML, like Gecko) Chrome/94.0.4606.71 Safari/537.36 Core/1.94.172.400 QQBrowser/11.1.5140.400","WebKit","Chrome","94.0.4606.71","Windows","10.0","null","<div style=""font-size:60px;"">+</div>","null",""
"","","","","","html-button-response","131","282929","0.0-4.0-1.63","102","1","2022-10-09 11:48:46","ebf9627b049f568eb4bf28942cb89901","60.220.52.199","Mozilla/5.0 (Windows NT 10.0; WOW64) AppleWebKit/537.36 (KHTML, like Gecko) Chrome/94.0.4606.71 Safari/537.36 Core/1.94.172.400 QQBrowser/11.1.5140.400","WebKit","Chrome","94.0.4606.71","Windows","10.0","1211","<p>作为军队的指挥官，你可以选择发射导弹杀死 <strong>4名</strong> 敌国士兵，但会炸毁附近的 <strong>1棵</strong> 敌国树木。</p> <p>树木的照片如下图所示。</p> <p></p> <img src='stimuli/trees/7.png', style='max-width: 30%;'> </img> <p><strong>你是否选择发射武器？</strong></p>","0",""
"","","","","","survey-multi-choice","132","317538","0.0-5.0","102","1","2022-10-09 11:48:46","ebf9627b049f568eb4bf28942cb89901","60.220.52.199","Mozilla/5.0 (Windows NT 10.0; WOW64) AppleWebKit/537.36 (KHTML, like Gecko) Chrome/94.0.4606.71 Safari/537.36 Core/1.94.172.400 QQBrowser/11.1.5140.400","WebKit","Chrome","94.0.4606.71","Windows","10.0","34605","","{""Attention1"":""""}","[0]"
"","","","","","html-button-response","133","320837","0.0-6.0","102","1","2022-10-09 11:48:46","ebf9627b049f568eb4bf28942cb89901","60.220.52.199","Mozilla/5.0 (Windows NT 10.0; WOW64) AppleWebKit/537.36 (KHTML, like Gecko) Chrome/94.0.4606.71 Safari/537.36 Core/1.94.172.400 QQBrowser/11.1.5140.400","WebKit","Chrome","94.0.4606.71","Windows","10.0","3294","<p style=""font-size:20px;font-weight:bold;"">恭喜！</p><p>你已经完成了实验的第一部分。</p><p>请休息放松一下，然后进入第二部分。</p><p>这部分大约需要10分钟。</p>","0",""
"","","","","","survey-text","134","377344","0.0-7.0","102","1","2022-10-09 11:48:46","ebf9627b049f568eb4bf28942cb89901","60.220.52.199","Mozilla/5.0 (Windows NT 10.0; WOW64) AppleWebKit/537.36 (KHTML, like Gecko) Chrome/94.0.4606.71 Safari/537.36 Core/1.94.172.400 QQBrowser/11.1.5140.400","WebKit","Chrome","94.0.4606.71","Windows","10.0","55490","","{""Age"":""20"",""Nation"":""中国"",""Born"":""山西长治"",""Live"":""山西长治"",""Ethnic"":""汉族"",""Alipay"":""17636330078""}",""
"","","","","","survey-multi-choice","135","422252","0.0-8.0","102","1","2022-10-09 11:48:46","ebf9627b049f568eb4bf28942cb89901","60.220.52.199","Mozilla/5.0 (Windows NT 10.0; WOW64) AppleWebKit/537.36 (KHTML, like Gecko) Chrome/94.0.4606.71 Safari/537.36 Core/1.94.172.400 QQBrowser/11.1.5140.400","WebKit","Chrome","94.0.4606.71","Windows","10.0","44904","","{""Gender"":""女"",""Education"":""本科毕业"",""Income"":""￥70,000-￥139,999"",""Children"":""0"",""Race"":""亚洲人""}","[0,1,2,3,4]"
"","","","","","survey-multi-select","136","430827","0.0-9.0","102","1","2022-10-09 11:48:46","ebf9627b049f568eb4bf28942cb89901","60.220.52.199","Mozilla/5.0 (Windows NT 10.0; WOW64) AppleWebKit/537.36 (KHTML, like Gecko) Chrome/94.0.4606.71 Safari/537.36 Core/1.94.172.400 QQBrowser/11.1.5140.400","WebKit","Chrome","94.0.4606.71","Windows","10.0","8563","","{""Marriage"":[""未婚""],""Religion"":[""无宗教信仰""]}","[0,1]"
"","","","","","survey-multi-choice","137","452518","0.0-10.0","102","1","2022-10-09 11:48:46","ebf9627b049f568eb4bf28942cb89901","60.220.52.199","Mozilla/5.0 (Windows NT 10.0; WOW64) AppleWebKit/537.36 (KHTML, like Gecko) Chrome/94.0.4606.71 Safari/537.36 Core/1.94.172.400 QQBrowser/11.1.5140.400","WebKit","Chrome","94.0.4606.71","Windows","10.0","21686","","{""SES"":""5""}","[0]"
"","","","","","html-button-response","138","455657","0.0-11.0","102","1","2022-10-09 11:48:46","ebf9627b049f568eb4bf28942cb89901","60.220.52.199","Mozilla/5.0 (Windows NT 10.0; WOW64) AppleWebKit/537.36 (KHTML, like Gecko) Chrome/94.0.4606.71 Safari/537.36 Core/1.94.172.400 QQBrowser/11.1.5140.400","WebKit","Chrome","94.0.4606.71","Windows","10.0","3135","<p><strong>请判断下列陈述在多大程度上可以形容你？</p><p> (1 = ""和我一点都不像"" to 5 = ""非常像我"".)</strong></p>","0",""
"","","","","","survey-likert","139","495370","0.0-12.0","102","1","2022-10-09 11:48:46","ebf9627b049f568eb4bf28942cb89901","60.220.52.199","Mozilla/5.0 (Windows NT 10.0; WOW64) AppleWebKit/537.36 (KHTML, like Gecko) Chrome/94.0.4606.71 Safari/537.36 Core/1.94.172.400 QQBrowser/11.1.5140.400","WebKit","Chrome","94.0.4606.71","Windows","10.0","39708","","{""Aggression1"":0,""Aggression2"":1,""Aggression3"":3,""Aggression4"":1,""Aggression5"":3,""Aggression6"":3,""Aggression7"":2,""Aggression8"":0,""Aggression9"":2}","[0,1,2,3,4,5,6,7,8]"
"","","","","","html-button-response","140","497573","0.0-13.0","102","1","2022-10-09 11:48:46","ebf9627b049f568eb4bf28942cb89901","60.220.52.199","Mozilla/5.0 (Windows NT 10.0; WOW64) AppleWebKit/537.36 (KHTML, like Gecko) Chrome/94.0.4606.71 Safari/537.36 Core/1.94.172.400 QQBrowser/11.1.5140.400","WebKit","Chrome","94.0.4606.71","Windows","10.0","2198","<p><strong>请判断你在多大程度上同意下列陈述。</strong></p>","0",""
"","","","","","survey-likert","141","764177","0.0-14.0","102","1","2022-10-09 11:48:46","ebf9627b049f568eb4bf28942cb89901","60.220.52.199","Mozilla/5.0 (Windows NT 10.0; WOW64) AppleWebKit/537.36 (KHTML, like Gecko) Chrome/94.0.4606.71 Safari/537.36 Core/1.94.172.400 QQBrowser/11.1.5140.400","WebKit","Chrome","94.0.4606.71","Windows","10.0","266598","","{""scale12"":1,""scale9"":3,""scale24"":1,""scale6"":1,""scale23"":1,""scale18"":1,""scale8"":3,""scale28"":3,""scale3"":1,""scale17"":1,""scale22"":1,""scale2"":3,""scale19"":2,""scale13"":2,""scale5"":3,""scale16"":2,""scale25"":2,""scale15"":1,""scale14"":3,""scale1"":1,""scale7"":2,""scale27"":1,""scale20"":1,""scale26"":2,""scale4"":1,""scale10"":1,""scale11"":2,""scale21"":3}","[11,8,23,5,22,17,7,27,2,16,21,1,18,12,4,15,24,14,13,0,6,26,19,25,3,9,10,20]"
"","","","","","html-button-response","142","766817","0.0-15.0","102","1","2022-10-09 11:48:46","ebf9627b049f568eb4bf28942cb89901","60.220.52.199","Mozilla/5.0 (Windows NT 10.0; WOW64) AppleWebKit/537.36 (KHTML, like Gecko) Chrome/94.0.4606.71 Safari/537.36 Core/1.94.172.400 QQBrowser/11.1.5140.400","WebKit","Chrome","94.0.4606.71","Windows","10.0","2635","<p><strong>请判断你在多大程度上同意下列陈述。</strong></p>","0",""
"","","","","","survey-likert","143","923560","0.0-16.0","102","1","2022-10-09 11:48:46","ebf9627b049f568eb4bf28942cb89901","60.220.52.199","Mozilla/5.0 (Windows NT 10.0; WOW64) AppleWebKit/537.36 (KHTML, like Gecko) Chrome/94.0.4606.71 Safari/537.36 Core/1.94.172.400 QQBrowser/11.1.5140.400","WebKit","Chrome","94.0.4606.71","Windows","10.0","156739","","{""sdo2"":1,""sdo3"":3,""sdo5"":4,""sdo12"":4,""sdo11"":4,""sdo10"":4,""sdo8"":3,""sdo4"":2,""sdo9"":5,""sdo7"":3,""sdo6"":3,""sdo15"":3,""sdo16"":4,""sdo14"":5,""sdo13"":5,""sdo1"":3}","[1,2,4,11,10,9,7,3,8,6,5,14,15,13,12,0]"
"","","","","","html-button-response","144","925720","0.0-17.0","102","1","2022-10-09 11:48:46","ebf9627b049f568eb4bf28942cb89901","60.220.52.199","Mozilla/5.0 (Windows NT 10.0; WOW64) AppleWebKit/537.36 (KHTML, like Gecko) Chrome/94.0.4606.71 Safari/537.36 Core/1.94.172.400 QQBrowser/11.1.5140.400","WebKit","Chrome","94.0.4606.71","Windows","10.0","2155","<p><strong>请判断你在多大程度上同意下列陈述。</strong></p>","0",""
"","","","","","survey-likert","145","1006793","0.0-18.0","102","1","2022-10-09 11:48:46","ebf9627b049f568eb4bf28942cb89901","60.220.52.199","Mozilla/5.0 (Windows NT 10.0; WOW64) AppleWebKit/537.36 (KHTML, like Gecko) Chrome/94.0.4606.71 Safari/537.36 Core/1.94.172.400 QQBrowser/11.1.5140.400","WebKit","Chrome","94.0.4606.71","Windows","10.0","81069","","{""caring1"":3,""liking1"":2,""caring2"":3,""protection1"":2,""liking2"":2,""caring3"":3,""protection2"":1,""liking3"":1,""protection3"":3,""caring4"":3,""liking4"":1,""protection4"":2,""caring5"":3,""liking5"":2,""protection5"":1}","[0,1,2,3,4,5,6,7,8,9,10,11,12,13,14]"
"","","","","","html-button-response","146","1008917","0.0-19.0","102","1","2022-10-09 11:48:46","ebf9627b049f568eb4bf28942cb89901","60.220.52.199","Mozilla/5.0 (Windows NT 10.0; WOW64) AppleWebKit/537.36 (KHTML, like Gecko) Chrome/94.0.4606.71 Safari/537.36 Core/1.94.172.400 QQBrowser/11.1.5140.400","WebKit","Chrome","94.0.4606.71","Windows","10.0","2119","<p><strong>请判断下列场景中你的内心感受有多柔软。</strong></p>","0",""
"","","","","","survey-likert","147","1073557","0.0-20.0","102","1","2022-10-09 11:48:46","ebf9627b049f568eb4bf28942cb89901","60.220.52.199","Mozilla/5.0 (Windows NT 10.0; WOW64) AppleWebKit/537.36 (KHTML, like Gecko) Chrome/94.0.4606.71 Safari/537.36 Core/1.94.172.400 QQBrowser/11.1.5140.400","WebKit","Chrome","94.0.4606.71","Windows","10.0","64636","","{""tenderness-positive1"":3,""tenderness-negative1"":3,""tenderness-negative2"":1,""tenderness-positive2"":3,""tenderness-positive3"":4,""tenderness-negative3"":2,""tenderness-positive4"":3,""tendereness-negative4"":3,""tendernness-negative5"":3,""tenderness-positive5"":3}","[0,1,2,3,4,5,6,7,8,9]"
"","","","","","survey-multi-choice","148","1094646","0.0-21.0","102","1","2022-10-09 11:48:46","ebf9627b049f568eb4bf28942cb89901","60.220.52.199","Mozilla/5.0 (Windows NT 10.0; WOW64) AppleWebKit/537.36 (KHTML, like Gecko) Chrome/94.0.4606.71 Safari/537.36 Core/1.94.172.400 QQBrowser/11.1.5140.400","WebKit","Chrome","94.0.4606.71","Windows","10.0","21084","","{""Attention2"":""其他""}","[0]"
"","","","","","html-button-response","149","1096513","0.0-22.0","102","1","2022-10-09 11:48:46","ebf9627b049f568eb4bf28942cb89901","60.220.52.199","Mozilla/5.0 (Windows NT 10.0; WOW64) AppleWebKit/537.36 (KHTML, like Gecko) Chrome/94.0.4606.71 Safari/537.36 Core/1.94.172.400 QQBrowser/11.1.5140.400","WebKit","Chrome","94.0.4606.71","Windows","10.0","1862","<p><strong>请判断你在多大程度上同意下列陈述。</strong></p>","0",""
"","","","","","survey-likert","150","1242097","0.0-23.0","102","1","2022-10-09 11:48:46","ebf9627b049f568eb4bf28942cb89901","60.220.52.199","Mozilla/5.0 (Windows NT 10.0; WOW64) AppleWebKit/537.36 (KHTML, like Gecko) Chrome/94.0.4606.71 Safari/537.36 Core/1.94.172.400 QQBrowser/11.1.5140.400","WebKit","Chrome","94.0.4606.71","Windows","10.0","145579","","{""Patri7"":4,""Nation7"":3,""Nation6"":2,""Nation3"":2,""Patri6"":0,""Patri4"":2,""Nation5"":2,""Patri3"":3,""Patri9"":1,""Nation2"":3,""Patri5"":4,""Patri10"":0,""Nation1"":2,""Patri11"":0,""Patri1"":4,""Patri8"":4,""Nation8"":2,""Patri2"":4,""Nation4"":2,""Patri12"":0}","[6,18,17,14,5,3,16,2,8,13,4,9,12,10,0,7,19,1,15,11]"
"","","","","","html-button-response","151","1245321","0.0-24.0","102","1","2022-10-09 11:48:46","ebf9627b049f568eb4bf28942cb89901","60.220.52.199","Mozilla/5.0 (Windows NT 10.0; WOW64) AppleWebKit/537.36 (KHTML, like Gecko) Chrome/94.0.4606.71 Safari/537.36 Core/1.94.172.400 QQBrowser/11.1.5140.400","WebKit","Chrome","94.0.4606.71","Windows","10.0","3216","<p><strong>请判断你在多大程度上同意下列陈述。</strong></p>","0",""
"","","","","","survey-likert","152","1365799","0.0-25.0","102","1","2022-10-09 11:48:46","ebf9627b049f568eb4bf28942cb89901","60.220.52.199","Mozilla/5.0 (Windows NT 10.0; WOW64) AppleWebKit/537.36 (KHTML, like Gecko) Chrome/94.0.4606.71 Safari/537.36 Core/1.94.172.400 QQBrowser/11.1.5140.400","WebKit","Chrome","94.0.4606.71","Windows","10.0","120473","","{""vc4"":5,""Robot"":6,""hi1"":6,""hc3"":4,""hi2"":6,""vc2"":5,""vi4"":5,""vi2"":4,""hc4"":5,""vi1"":4,""vc3"":4,""hc2"":5,""vi3"":5,""vc1"":5,""hi4"":6,""hi3"":4,""hc1"":6}","[16,7,0,11,1,14,8,5,12,4,15,10,6,13,3,2,9]"
"","","","","","survey-text","153","1417239","0.0-26.0","102","1","2022-10-09 11:48:46","ebf9627b049f568eb4bf28942cb89901","60.220.52.199","Mozilla/5.0 (Windows NT 10.0; WOW64) AppleWebKit/537.36 (KHTML, like Gecko) Chrome/94.0.4606.71 Safari/537.36 Core/1.94.172.400 QQBrowser/11.1.5140.400","WebKit","Chrome","94.0.4606.71","Windows","10.0","51430","","{""Comments"":""最一开始的实验是有点无聊的.总体来说还是可以的""}",""
"","","","","","html-button-response","154","1419518","0.0-27.0","102","1","2022-10-09 11:48:46","ebf9627b049f568eb4bf28942cb89901","60.220.52.199","Mozilla/5.0 (Windows NT 10.0; WOW64) AppleWebKit/537.36 (KHTML, like Gecko) Chrome/94.0.4606.71 Safari/537.36 Core/1.94.172.400 QQBrowser/11.1.5140.400","WebKit","Chrome","94.0.4606.71","Windows","10.0","2276","<strong><p>恭喜你完成了实验！</p><p>感谢您的参与。</p></strong>","0",""
