"success","timeout","failed_images","failed_audio","failed_video","trial_type","trial_index","time_elapsed","internal_node_id","run_id","condition","recorded_at","source_code_version","ip","user_agent","device","browser","browser_version","platform","platform_version","rt","stimulus","response","question_order"
"true","false","[]","[]","[]","preload","0","3172","0.0-0.0","103","1","2022-10-09 11:49:02","ebf9627b049f568eb4bf28942cb89901","27.128.101.49","Mozilla/5.0 (Windows NT 6.1; WOW64) AppleWebKit/537.36 (KHTML, like Gecko) Chrome/81.0.4044.138 Safari/537.36 NetType/WIFI MicroMessenger/7.0.20.1781(0x6700143B) WindowsWechat(0x6307062c)","WebKit","Chrome","81.0.4044.138","Windows","6.1","","","",""
"true","","","","","fullscreen","1","5365","0.0-1.0","103","1","2022-10-09 11:49:02","ebf9627b049f568eb4bf28942cb89901","27.128.101.49","Mozilla/5.0 (Windows NT 6.1; WOW64) AppleWebKit/537.36 (KHTML, like Gecko) Chrome/81.0.4044.138 Safari/537.36 NetType/WIFI MicroMessenger/7.0.20.1781(0x6700143B) WindowsWechat(0x6307062c)","WebKit","Chrome","81.0.4044.138","Windows","6.1","","","",""
"","","","","","html-button-response","2","7823","0.0-2.0","103","1","2022-10-09 11:49:02","ebf9627b049f568eb4bf28942cb89901","27.128.101.49","Mozilla/5.0 (Windows NT 6.1; WOW64) AppleWebKit/537.36 (KHTML, like Gecko) Chrome/81.0.4044.138 Safari/537.36 NetType/WIFI MicroMessenger/7.0.20.1781(0x6700143B) WindowsWechat(0x6307062c)","WebKit","Chrome","81.0.4044.138","Windows","6.1","2456","<p style=""font-size:20px;font-weight:bold;"">实验知情同意书</p><p style=""text-align:left;""><strong>实验名称：</strong>社会冲突研究</p><p style=""text-align:left;""><strong>主要研究者：</strong>韩晓春副教授（北京师范大学心理学部）</p><p style=""text-align:left;""><strong>联系方式：</strong>发送邮件至xiaochun.han@bnu.edu.cn</p><p style=""text-align:left;""><strong>研究目的：</strong>研究旨在了解人类面对群体冲突时的决策方式，以及相关的心理学特质。实验调查大约需要20分钟。</p><p style=""text-align:left;""><strong>实验流程：</strong>实验包含两部分。第一部分呈现一系列群体冲突场景，请你决定如何对这些冲突进行反应，大约需要10分钟完成。第二部分包含一系列人口统计学信息收集和心理学问卷，大约需要10分钟完成。</p><p style=""text-align:left;""><strong>参加及退出规则：</strong>参加本实验完全取决于您的个人意愿。在参与过程中，您可以随时退出，并且不用承担任何后果。</p><p style=""text-align:left;""><strong>隐私：</strong>本实验完全匿名进行，不会收集您的姓名或其他能够识别您身份的信息。实验中收集的作答仅用作科学研究使用，可能会在学术期刊/书籍上发表，或者用于教学，您的数据未来可能会和其他研究者或实验室分享，但您的个人身份不会被识别。</p><p style=""text-align:left;""><strong>实验报酬：</strong>实验完成后，您将获得15元人民币报酬，以感谢您的时间和努力。调查问卷中包含几道题目用以测验您作答时的认真度。只有完成全部实验，并且正确回答认真度测验的被试才能获得实验报酬。实验报酬将通过支付宝转账发放。</p><p style=""text-align:left;font-size:20px;""><strong>如果您同意以上实验知情同意书的内容，请点击'同意并且开始实验'按钮；否则请关闭浏览器界面，退出实验。</strong></p>","0",""
"","","","","","html-button-response","3","12735","0.0-3.0","103","1","2022-10-09 11:49:02","ebf9627b049f568eb4bf28942cb89901","27.128.101.49","Mozilla/5.0 (Windows NT 6.1; WOW64) AppleWebKit/537.36 (KHTML, like Gecko) Chrome/81.0.4044.138 Safari/537.36 NetType/WIFI MicroMessenger/7.0.20.1781(0x6700143B) WindowsWechat(0x6307062c)","WebKit","Chrome","81.0.4044.138","Windows","6.1","4910","<p ><strong>实验任务一：</strong></p><p>请想象你的国家与另一个国家发生了军事冲突。</p><p>你是国家军队的指挥官，你将如何在冲突中进行决策。</p><p>具体来说，作为军队指挥官，请你决定是否发射导弹进行打击。</p><p>接下来，你会面对一系列场景，请仔细阅读每个场景，然后进行决策。</p><p>这部分实验任务大约需要10分钟。</p><p><strong>实验过程中，请集中注意力。</strong></p>","0",""
"","","","","","html-keyboard-response","4","13736","0.0-4.0-0.0","103","1","2022-10-09 11:49:02","ebf9627b049f568eb4bf28942cb89901","27.128.101.49","Mozilla/5.0 (Windows NT 6.1; WOW64) AppleWebKit/537.36 (KHTML, like Gecko) Chrome/81.0.4044.138 Safari/537.36 NetType/WIFI MicroMessenger/7.0.20.1781(0x6700143B) WindowsWechat(0x6307062c)","WebKit","Chrome","81.0.4044.138","Windows","6.1","null","<div style=""font-size:60px;"">+</div>","null",""
"","","","","","html-button-response","5","14759","0.0-4.0-1.0","103","1","2022-10-09 11:49:02","ebf9627b049f568eb4bf28942cb89901","27.128.101.49","Mozilla/5.0 (Windows NT 6.1; WOW64) AppleWebKit/537.36 (KHTML, like Gecko) Chrome/81.0.4044.138 Safari/537.36 NetType/WIFI MicroMessenger/7.0.20.1781(0x6700143B) WindowsWechat(0x6307062c)","WebKit","Chrome","81.0.4044.138","Windows","6.1","1019","<p>作为军队的指挥官，你可以选择发射导弹杀死 <strong>5名</strong> 敌国士兵，但会误杀附近的 <strong>1名</strong> 敌国平民。</p> <p>平民照片如下图所示。</p> <p></p> <img src='stimuli/faces/NFF2.jpg', style='max-width: 30%;'> </img> <p><strong>你是否选择发射武器？</strong></p>","1",""
"","","","","","html-keyboard-response","6","15761","0.0-4.0-0.1","103","1","2022-10-09 11:49:02","ebf9627b049f568eb4bf28942cb89901","27.128.101.49","Mozilla/5.0 (Windows NT 6.1; WOW64) AppleWebKit/537.36 (KHTML, like Gecko) Chrome/81.0.4044.138 Safari/537.36 NetType/WIFI MicroMessenger/7.0.20.1781(0x6700143B) WindowsWechat(0x6307062c)","WebKit","Chrome","81.0.4044.138","Windows","6.1","null","<div style=""font-size:60px;"">+</div>","null",""
"","","","","","html-button-response","7","21143","0.0-4.0-1.1","103","1","2022-10-09 11:49:02","ebf9627b049f568eb4bf28942cb89901","27.128.101.49","Mozilla/5.0 (Windows NT 6.1; WOW64) AppleWebKit/537.36 (KHTML, like Gecko) Chrome/81.0.4044.138 Safari/537.36 NetType/WIFI MicroMessenger/7.0.20.1781(0x6700143B) WindowsWechat(0x6307062c)","WebKit","Chrome","81.0.4044.138","Windows","6.1","5380","<p>作为军队的指挥官，你可以选择发射导弹杀死 <strong>8名</strong> 敌国士兵，但会炸毁附近的 <strong>1棵</strong> 敌国树木。</p> <p>树木的照片如下图所示。</p> <p></p> <img src='stimuli/trees/2.png', style='max-width: 30%;'> </img> <p><strong>你是否选择发射武器？</strong></p>","0",""
"","","","","","html-keyboard-response","8","22145","0.0-4.0-0.2","103","1","2022-10-09 11:49:02","ebf9627b049f568eb4bf28942cb89901","27.128.101.49","Mozilla/5.0 (Windows NT 6.1; WOW64) AppleWebKit/537.36 (KHTML, like Gecko) Chrome/81.0.4044.138 Safari/537.36 NetType/WIFI MicroMessenger/7.0.20.1781(0x6700143B) WindowsWechat(0x6307062c)","WebKit","Chrome","81.0.4044.138","Windows","6.1","null","<div style=""font-size:60px;"">+</div>","null",""
"","","","","","html-button-response","9","23911","0.0-4.0-1.2","103","1","2022-10-09 11:49:02","ebf9627b049f568eb4bf28942cb89901","27.128.101.49","Mozilla/5.0 (Windows NT 6.1; WOW64) AppleWebKit/537.36 (KHTML, like Gecko) Chrome/81.0.4044.138 Safari/537.36 NetType/WIFI MicroMessenger/7.0.20.1781(0x6700143B) WindowsWechat(0x6307062c)","WebKit","Chrome","81.0.4044.138","Windows","6.1","1764","<p>作为军队的指挥官，你可以选择发射导弹杀死 <strong>10名</strong> 敌国士兵，但会误杀附近的 <strong>1名</strong> 敌国平民。</p> <p>平民照片如下图所示。</p> <p></p> <img src='stimuli/faces/NFF2.jpg', style='max-width: 30%;'> </img> <p><strong>你是否选择发射武器？</strong></p>","1",""
"","","","","","html-keyboard-response","10","24927","0.0-4.0-0.3","103","1","2022-10-09 11:49:02","ebf9627b049f568eb4bf28942cb89901","27.128.101.49","Mozilla/5.0 (Windows NT 6.1; WOW64) AppleWebKit/537.36 (KHTML, like Gecko) Chrome/81.0.4044.138 Safari/537.36 NetType/WIFI MicroMessenger/7.0.20.1781(0x6700143B) WindowsWechat(0x6307062c)","WebKit","Chrome","81.0.4044.138","Windows","6.1","null","<div style=""font-size:60px;"">+</div>","null",""
"","","","","","html-button-response","11","27087","0.0-4.0-1.3","103","1","2022-10-09 11:49:02","ebf9627b049f568eb4bf28942cb89901","27.128.101.49","Mozilla/5.0 (Windows NT 6.1; WOW64) AppleWebKit/537.36 (KHTML, like Gecko) Chrome/81.0.4044.138 Safari/537.36 NetType/WIFI MicroMessenger/7.0.20.1781(0x6700143B) WindowsWechat(0x6307062c)","WebKit","Chrome","81.0.4044.138","Windows","6.1","2157","<p>作为军队的指挥官，你可以选择发射导弹杀死 <strong>10名</strong> 敌国士兵，但会炸毁附近的 <strong>1棵</strong> 敌国树木。</p> <p>树木的照片如下图所示。</p> <p></p> <img src='stimuli/trees/1.png', style='max-width: 30%;'> </img> <p><strong>你是否选择发射武器？</strong></p>","0",""
"","","","","","html-keyboard-response","12","28103","0.0-4.0-0.4","103","1","2022-10-09 11:49:02","ebf9627b049f568eb4bf28942cb89901","27.128.101.49","Mozilla/5.0 (Windows NT 6.1; WOW64) AppleWebKit/537.36 (KHTML, like Gecko) Chrome/81.0.4044.138 Safari/537.36 NetType/WIFI MicroMessenger/7.0.20.1781(0x6700143B) WindowsWechat(0x6307062c)","WebKit","Chrome","81.0.4044.138","Windows","6.1","null","<div style=""font-size:60px;"">+</div>","null",""
"","","","","","html-button-response","13","49991","0.0-4.0-1.4","103","1","2022-10-09 11:49:02","ebf9627b049f568eb4bf28942cb89901","27.128.101.49","Mozilla/5.0 (Windows NT 6.1; WOW64) AppleWebKit/537.36 (KHTML, like Gecko) Chrome/81.0.4044.138 Safari/537.36 NetType/WIFI MicroMessenger/7.0.20.1781(0x6700143B) WindowsWechat(0x6307062c)","WebKit","Chrome","81.0.4044.138","Windows","6.1","21886","<p>作为军队的指挥官，你可以选择发射导弹杀死 <strong>2名</strong> 敌国士兵，但会误杀附近的 <strong>1名</strong> 敌国平民。</p> <p>平民照片如下图所示。</p> <p></p> <img src='stimuli/faces/NFF8.jpg', style='max-width: 30%;'> </img> <p><strong>你是否选择发射武器？</strong></p>","1",""
"","","","","","html-keyboard-response","14","50993","0.0-4.0-0.5","103","1","2022-10-09 11:49:02","ebf9627b049f568eb4bf28942cb89901","27.128.101.49","Mozilla/5.0 (Windows NT 6.1; WOW64) AppleWebKit/537.36 (KHTML, like Gecko) Chrome/81.0.4044.138 Safari/537.36 NetType/WIFI MicroMessenger/7.0.20.1781(0x6700143B) WindowsWechat(0x6307062c)","WebKit","Chrome","81.0.4044.138","Windows","6.1","null","<div style=""font-size:60px;"">+</div>","null",""
"","","","","","html-button-response","15","52279","0.0-4.0-1.5","103","1","2022-10-09 11:49:02","ebf9627b049f568eb4bf28942cb89901","27.128.101.49","Mozilla/5.0 (Windows NT 6.1; WOW64) AppleWebKit/537.36 (KHTML, like Gecko) Chrome/81.0.4044.138 Safari/537.36 NetType/WIFI MicroMessenger/7.0.20.1781(0x6700143B) WindowsWechat(0x6307062c)","WebKit","Chrome","81.0.4044.138","Windows","6.1","1284","<p>作为军队的指挥官，你可以选择发射导弹杀死 <strong>1名</strong> 敌国士兵，但会误杀附近的 <strong>1名</strong> 敌国平民。</p> <p>平民照片如下图所示。</p> <p></p> <img src='stimuli/faces/NFM7.jpg', style='max-width: 30%;'> </img> <p><strong>你是否选择发射武器？</strong></p>","1",""
"","","","","","html-keyboard-response","16","53282","0.0-4.0-0.6","103","1","2022-10-09 11:49:02","ebf9627b049f568eb4bf28942cb89901","27.128.101.49","Mozilla/5.0 (Windows NT 6.1; WOW64) AppleWebKit/537.36 (KHTML, like Gecko) Chrome/81.0.4044.138 Safari/537.36 NetType/WIFI MicroMessenger/7.0.20.1781(0x6700143B) WindowsWechat(0x6307062c)","WebKit","Chrome","81.0.4044.138","Windows","6.1","null","<div style=""font-size:60px;"">+</div>","null",""
"","","","","","html-button-response","17","54583","0.0-4.0-1.6","103","1","2022-10-09 11:49:02","ebf9627b049f568eb4bf28942cb89901","27.128.101.49","Mozilla/5.0 (Windows NT 6.1; WOW64) AppleWebKit/537.36 (KHTML, like Gecko) Chrome/81.0.4044.138 Safari/537.36 NetType/WIFI MicroMessenger/7.0.20.1781(0x6700143B) WindowsWechat(0x6307062c)","WebKit","Chrome","81.0.4044.138","Windows","6.1","1298","<p>作为军队的指挥官，你可以选择发射导弹杀死 <strong>2名</strong> 敌国士兵，但会误杀附近的 <strong>1名</strong> 敌国平民。</p> <p>平民照片如下图所示。</p> <p></p> <img src='stimuli/faces/NFF7.jpg', style='max-width: 30%;'> </img> <p><strong>你是否选择发射武器？</strong></p>","1",""
"","","","","","html-keyboard-response","18","55586","0.0-4.0-0.7","103","1","2022-10-09 11:49:02","ebf9627b049f568eb4bf28942cb89901","27.128.101.49","Mozilla/5.0 (Windows NT 6.1; WOW64) AppleWebKit/537.36 (KHTML, like Gecko) Chrome/81.0.4044.138 Safari/537.36 NetType/WIFI MicroMessenger/7.0.20.1781(0x6700143B) WindowsWechat(0x6307062c)","WebKit","Chrome","81.0.4044.138","Windows","6.1","null","<div style=""font-size:60px;"">+</div>","null",""
"","","","","","html-button-response","19","58504","0.0-4.0-1.7","103","1","2022-10-09 11:49:02","ebf9627b049f568eb4bf28942cb89901","27.128.101.49","Mozilla/5.0 (Windows NT 6.1; WOW64) AppleWebKit/537.36 (KHTML, like Gecko) Chrome/81.0.4044.138 Safari/537.36 NetType/WIFI MicroMessenger/7.0.20.1781(0x6700143B) WindowsWechat(0x6307062c)","WebKit","Chrome","81.0.4044.138","Windows","6.1","2916","<p>作为军队的指挥官，你可以选择发射导弹杀死 <strong>4名</strong> 敌国士兵，但会误杀附近的 <strong>1名</strong> 敌国平民。</p> <p>平民照片如下图所示。</p> <p></p> <img src='stimuli/faces/NFM4.jpg', style='max-width: 30%;'> </img> <p><strong>你是否选择发射武器？</strong></p>","1",""
"","","","","","html-keyboard-response","20","59505","0.0-4.0-0.8","103","1","2022-10-09 11:49:02","ebf9627b049f568eb4bf28942cb89901","27.128.101.49","Mozilla/5.0 (Windows NT 6.1; WOW64) AppleWebKit/537.36 (KHTML, like Gecko) Chrome/81.0.4044.138 Safari/537.36 NetType/WIFI MicroMessenger/7.0.20.1781(0x6700143B) WindowsWechat(0x6307062c)","WebKit","Chrome","81.0.4044.138","Windows","6.1","null","<div style=""font-size:60px;"">+</div>","null",""
"","","","","","html-button-response","21","61312","0.0-4.0-1.8","103","1","2022-10-09 11:49:02","ebf9627b049f568eb4bf28942cb89901","27.128.101.49","Mozilla/5.0 (Windows NT 6.1; WOW64) AppleWebKit/537.36 (KHTML, like Gecko) Chrome/81.0.4044.138 Safari/537.36 NetType/WIFI MicroMessenger/7.0.20.1781(0x6700143B) WindowsWechat(0x6307062c)","WebKit","Chrome","81.0.4044.138","Windows","6.1","1804","<p>作为军队的指挥官，你可以选择发射导弹杀死 <strong>6名</strong> 敌国士兵，但会误杀附近的 <strong>1名</strong> 敌国平民。</p> <p>平民照片如下图所示。</p> <p></p> <img src='stimuli/faces/NFM2.jpg', style='max-width: 30%;'> </img> <p><strong>你是否选择发射武器？</strong></p>","1",""
"","","","","","html-keyboard-response","22","62314","0.0-4.0-0.9","103","1","2022-10-09 11:49:02","ebf9627b049f568eb4bf28942cb89901","27.128.101.49","Mozilla/5.0 (Windows NT 6.1; WOW64) AppleWebKit/537.36 (KHTML, like Gecko) Chrome/81.0.4044.138 Safari/537.36 NetType/WIFI MicroMessenger/7.0.20.1781(0x6700143B) WindowsWechat(0x6307062c)","WebKit","Chrome","81.0.4044.138","Windows","6.1","null","<div style=""font-size:60px;"">+</div>","null",""
"","","","","","html-button-response","23","63584","0.0-4.0-1.9","103","1","2022-10-09 11:49:02","ebf9627b049f568eb4bf28942cb89901","27.128.101.49","Mozilla/5.0 (Windows NT 6.1; WOW64) AppleWebKit/537.36 (KHTML, like Gecko) Chrome/81.0.4044.138 Safari/537.36 NetType/WIFI MicroMessenger/7.0.20.1781(0x6700143B) WindowsWechat(0x6307062c)","WebKit","Chrome","81.0.4044.138","Windows","6.1","1267","<p>作为军队的指挥官，你可以选择发射导弹杀死 <strong>2名</strong> 敌国士兵，但会误杀附近的 <strong>1名</strong> 敌国平民。</p> <p>平民照片如下图所示。</p> <p></p> <img src='stimuli/faces/NFM2.jpg', style='max-width: 30%;'> </img> <p><strong>你是否选择发射武器？</strong></p>","1",""
"","","","","","html-keyboard-response","24","64585","0.0-4.0-0.10","103","1","2022-10-09 11:49:02","ebf9627b049f568eb4bf28942cb89901","27.128.101.49","Mozilla/5.0 (Windows NT 6.1; WOW64) AppleWebKit/537.36 (KHTML, like Gecko) Chrome/81.0.4044.138 Safari/537.36 NetType/WIFI MicroMessenger/7.0.20.1781(0x6700143B) WindowsWechat(0x6307062c)","WebKit","Chrome","81.0.4044.138","Windows","6.1","null","<div style=""font-size:60px;"">+</div>","null",""
"","","","","","html-button-response","25","66319","0.0-4.0-1.10","103","1","2022-10-09 11:49:02","ebf9627b049f568eb4bf28942cb89901","27.128.101.49","Mozilla/5.0 (Windows NT 6.1; WOW64) AppleWebKit/537.36 (KHTML, like Gecko) Chrome/81.0.4044.138 Safari/537.36 NetType/WIFI MicroMessenger/7.0.20.1781(0x6700143B) WindowsWechat(0x6307062c)","WebKit","Chrome","81.0.4044.138","Windows","6.1","1732","<p>作为军队的指挥官，你可以选择发射导弹杀死 <strong>9名</strong> 敌国士兵，但会炸毁附近的 <strong>1棵</strong> 敌国树木。</p> <p>树木的照片如下图所示。</p> <p></p> <img src='stimuli/trees/9.png', style='max-width: 30%;'> </img> <p><strong>你是否选择发射武器？</strong></p>","0",""
"","","","","","html-keyboard-response","26","67322","0.0-4.0-0.11","103","1","2022-10-09 11:49:02","ebf9627b049f568eb4bf28942cb89901","27.128.101.49","Mozilla/5.0 (Windows NT 6.1; WOW64) AppleWebKit/537.36 (KHTML, like Gecko) Chrome/81.0.4044.138 Safari/537.36 NetType/WIFI MicroMessenger/7.0.20.1781(0x6700143B) WindowsWechat(0x6307062c)","WebKit","Chrome","81.0.4044.138","Windows","6.1","null","<div style=""font-size:60px;"">+</div>","null",""
"","","","","","html-button-response","27","69576","0.0-4.0-1.11","103","1","2022-10-09 11:49:02","ebf9627b049f568eb4bf28942cb89901","27.128.101.49","Mozilla/5.0 (Windows NT 6.1; WOW64) AppleWebKit/537.36 (KHTML, like Gecko) Chrome/81.0.4044.138 Safari/537.36 NetType/WIFI MicroMessenger/7.0.20.1781(0x6700143B) WindowsWechat(0x6307062c)","WebKit","Chrome","81.0.4044.138","Windows","6.1","2252","<p>作为军队的指挥官，你可以选择发射导弹杀死 <strong>2名</strong> 敌国士兵，但会误杀附近的 <strong>1名</strong> 敌国平民。</p> <p>平民照片如下图所示。</p> <p></p> <img src='stimuli/faces/NFF5.jpg', style='max-width: 30%;'> </img> <p><strong>你是否选择发射武器？</strong></p>","1",""
"","","","","","html-keyboard-response","28","70578","0.0-4.0-0.12","103","1","2022-10-09 11:49:02","ebf9627b049f568eb4bf28942cb89901","27.128.101.49","Mozilla/5.0 (Windows NT 6.1; WOW64) AppleWebKit/537.36 (KHTML, like Gecko) Chrome/81.0.4044.138 Safari/537.36 NetType/WIFI MicroMessenger/7.0.20.1781(0x6700143B) WindowsWechat(0x6307062c)","WebKit","Chrome","81.0.4044.138","Windows","6.1","null","<div style=""font-size:60px;"">+</div>","null",""
"","","","","","html-button-response","29","72576","0.0-4.0-1.12","103","1","2022-10-09 11:49:02","ebf9627b049f568eb4bf28942cb89901","27.128.101.49","Mozilla/5.0 (Windows NT 6.1; WOW64) AppleWebKit/537.36 (KHTML, like Gecko) Chrome/81.0.4044.138 Safari/537.36 NetType/WIFI MicroMessenger/7.0.20.1781(0x6700143B) WindowsWechat(0x6307062c)","WebKit","Chrome","81.0.4044.138","Windows","6.1","1996","<p>作为军队的指挥官，你可以选择发射导弹杀死 <strong>3名</strong> 敌国士兵，但会误杀附近的 <strong>1名</strong> 敌国平民。</p> <p>平民照片如下图所示。</p> <p></p> <img src='stimuli/faces/NFM1.jpg', style='max-width: 30%;'> </img> <p><strong>你是否选择发射武器？</strong></p>","1",""
"","","","","","html-keyboard-response","30","73578","0.0-4.0-0.13","103","1","2022-10-09 11:49:02","ebf9627b049f568eb4bf28942cb89901","27.128.101.49","Mozilla/5.0 (Windows NT 6.1; WOW64) AppleWebKit/537.36 (KHTML, like Gecko) Chrome/81.0.4044.138 Safari/537.36 NetType/WIFI MicroMessenger/7.0.20.1781(0x6700143B) WindowsWechat(0x6307062c)","WebKit","Chrome","81.0.4044.138","Windows","6.1","null","<div style=""font-size:60px;"">+</div>","null",""
"","","","","","html-button-response","31","75184","0.0-4.0-1.13","103","1","2022-10-09 11:49:02","ebf9627b049f568eb4bf28942cb89901","27.128.101.49","Mozilla/5.0 (Windows NT 6.1; WOW64) AppleWebKit/537.36 (KHTML, like Gecko) Chrome/81.0.4044.138 Safari/537.36 NetType/WIFI MicroMessenger/7.0.20.1781(0x6700143B) WindowsWechat(0x6307062c)","WebKit","Chrome","81.0.4044.138","Windows","6.1","1603","<p>作为军队的指挥官，你可以选择发射导弹杀死 <strong>10名</strong> 敌国士兵，但会误杀附近的 <strong>1名</strong> 敌国平民。</p> <p>平民照片如下图所示。</p> <p></p> <img src='stimuli/faces/NFF1.jpg', style='max-width: 30%;'> </img> <p><strong>你是否选择发射武器？</strong></p>","1",""
"","","","","","html-keyboard-response","32","76186","0.0-4.0-0.14","103","1","2022-10-09 11:49:02","ebf9627b049f568eb4bf28942cb89901","27.128.101.49","Mozilla/5.0 (Windows NT 6.1; WOW64) AppleWebKit/537.36 (KHTML, like Gecko) Chrome/81.0.4044.138 Safari/537.36 NetType/WIFI MicroMessenger/7.0.20.1781(0x6700143B) WindowsWechat(0x6307062c)","WebKit","Chrome","81.0.4044.138","Windows","6.1","null","<div style=""font-size:60px;"">+</div>","null",""
"","","","","","html-button-response","33","77695","0.0-4.0-1.14","103","1","2022-10-09 11:49:02","ebf9627b049f568eb4bf28942cb89901","27.128.101.49","Mozilla/5.0 (Windows NT 6.1; WOW64) AppleWebKit/537.36 (KHTML, like Gecko) Chrome/81.0.4044.138 Safari/537.36 NetType/WIFI MicroMessenger/7.0.20.1781(0x6700143B) WindowsWechat(0x6307062c)","WebKit","Chrome","81.0.4044.138","Windows","6.1","1507","<p>作为军队的指挥官，你可以选择发射导弹杀死 <strong>7名</strong> 敌国士兵，但会炸毁附近的 <strong>1棵</strong> 敌国树木。</p> <p>树木的照片如下图所示。</p> <p></p> <img src='stimuli/trees/8.png', style='max-width: 30%;'> </img> <p><strong>你是否选择发射武器？</strong></p>","0",""
"","","","","","html-keyboard-response","34","78698","0.0-4.0-0.15","103","1","2022-10-09 11:49:02","ebf9627b049f568eb4bf28942cb89901","27.128.101.49","Mozilla/5.0 (Windows NT 6.1; WOW64) AppleWebKit/537.36 (KHTML, like Gecko) Chrome/81.0.4044.138 Safari/537.36 NetType/WIFI MicroMessenger/7.0.20.1781(0x6700143B) WindowsWechat(0x6307062c)","WebKit","Chrome","81.0.4044.138","Windows","6.1","null","<div style=""font-size:60px;"">+</div>","null",""
"","","","","","html-button-response","35","80696","0.0-4.0-1.15","103","1","2022-10-09 11:49:02","ebf9627b049f568eb4bf28942cb89901","27.128.101.49","Mozilla/5.0 (Windows NT 6.1; WOW64) AppleWebKit/537.36 (KHTML, like Gecko) Chrome/81.0.4044.138 Safari/537.36 NetType/WIFI MicroMessenger/7.0.20.1781(0x6700143B) WindowsWechat(0x6307062c)","WebKit","Chrome","81.0.4044.138","Windows","6.1","1996","<p>作为军队的指挥官，你可以选择发射导弹杀死 <strong>8名</strong> 敌国士兵，但会炸毁附近的 <strong>1棵</strong> 敌国树木。</p> <p>树木的照片如下图所示。</p> <p></p> <img src='stimuli/trees/4.png', style='max-width: 30%;'> </img> <p><strong>你是否选择发射武器？</strong></p>","0",""
"","","","","","html-keyboard-response","36","81699","0.0-4.0-0.16","103","1","2022-10-09 11:49:02","ebf9627b049f568eb4bf28942cb89901","27.128.101.49","Mozilla/5.0 (Windows NT 6.1; WOW64) AppleWebKit/537.36 (KHTML, like Gecko) Chrome/81.0.4044.138 Safari/537.36 NetType/WIFI MicroMessenger/7.0.20.1781(0x6700143B) WindowsWechat(0x6307062c)","WebKit","Chrome","81.0.4044.138","Windows","6.1","null","<div style=""font-size:60px;"">+</div>","null",""
"","","","","","html-button-response","37","83711","0.0-4.0-1.16","103","1","2022-10-09 11:49:02","ebf9627b049f568eb4bf28942cb89901","27.128.101.49","Mozilla/5.0 (Windows NT 6.1; WOW64) AppleWebKit/537.36 (KHTML, like Gecko) Chrome/81.0.4044.138 Safari/537.36 NetType/WIFI MicroMessenger/7.0.20.1781(0x6700143B) WindowsWechat(0x6307062c)","WebKit","Chrome","81.0.4044.138","Windows","6.1","2010","<p>作为军队的指挥官，你可以选择发射导弹杀死 <strong>6名</strong> 敌国士兵，但会误杀附近的 <strong>1名</strong> 敌国平民。</p> <p>平民照片如下图所示。</p> <p></p> <img src='stimuli/faces/NFM5.jpg', style='max-width: 30%;'> </img> <p><strong>你是否选择发射武器？</strong></p>","1",""
"","","","","","html-keyboard-response","38","84714","0.0-4.0-0.17","103","1","2022-10-09 11:49:02","ebf9627b049f568eb4bf28942cb89901","27.128.101.49","Mozilla/5.0 (Windows NT 6.1; WOW64) AppleWebKit/537.36 (KHTML, like Gecko) Chrome/81.0.4044.138 Safari/537.36 NetType/WIFI MicroMessenger/7.0.20.1781(0x6700143B) WindowsWechat(0x6307062c)","WebKit","Chrome","81.0.4044.138","Windows","6.1","null","<div style=""font-size:60px;"">+</div>","null",""
"","","","","","html-button-response","39","88623","0.0-4.0-1.17","103","1","2022-10-09 11:49:02","ebf9627b049f568eb4bf28942cb89901","27.128.101.49","Mozilla/5.0 (Windows NT 6.1; WOW64) AppleWebKit/537.36 (KHTML, like Gecko) Chrome/81.0.4044.138 Safari/537.36 NetType/WIFI MicroMessenger/7.0.20.1781(0x6700143B) WindowsWechat(0x6307062c)","WebKit","Chrome","81.0.4044.138","Windows","6.1","3907","<p>作为军队的指挥官，你可以选择发射导弹杀死 <strong>10名</strong> 敌国士兵，但会误杀附近的 <strong>1名</strong> 敌国平民。</p> <p>平民照片如下图所示。</p> <p></p> <img src='stimuli/faces/NFF8.jpg', style='max-width: 30%;'> </img> <p><strong>你是否选择发射武器？</strong></p>","1",""
"","","","","","html-keyboard-response","40","89625","0.0-4.0-0.18","103","1","2022-10-09 11:49:02","ebf9627b049f568eb4bf28942cb89901","27.128.101.49","Mozilla/5.0 (Windows NT 6.1; WOW64) AppleWebKit/537.36 (KHTML, like Gecko) Chrome/81.0.4044.138 Safari/537.36 NetType/WIFI MicroMessenger/7.0.20.1781(0x6700143B) WindowsWechat(0x6307062c)","WebKit","Chrome","81.0.4044.138","Windows","6.1","null","<div style=""font-size:60px;"">+</div>","null",""
"","","","","","html-button-response","41","93408","0.0-4.0-1.18","103","1","2022-10-09 11:49:02","ebf9627b049f568eb4bf28942cb89901","27.128.101.49","Mozilla/5.0 (Windows NT 6.1; WOW64) AppleWebKit/537.36 (KHTML, like Gecko) Chrome/81.0.4044.138 Safari/537.36 NetType/WIFI MicroMessenger/7.0.20.1781(0x6700143B) WindowsWechat(0x6307062c)","WebKit","Chrome","81.0.4044.138","Windows","6.1","3780","<p>作为军队的指挥官，你可以选择发射导弹杀死 <strong>2名</strong> 敌国士兵，但会炸毁附近的 <strong>1棵</strong> 敌国树木。</p> <p>树木的照片如下图所示。</p> <p></p> <img src='stimuli/trees/11.png', style='max-width: 30%;'> </img> <p><strong>你是否选择发射武器？</strong></p>","1",""
"","","","","","html-keyboard-response","42","94410","0.0-4.0-0.19","103","1","2022-10-09 11:49:02","ebf9627b049f568eb4bf28942cb89901","27.128.101.49","Mozilla/5.0 (Windows NT 6.1; WOW64) AppleWebKit/537.36 (KHTML, like Gecko) Chrome/81.0.4044.138 Safari/537.36 NetType/WIFI MicroMessenger/7.0.20.1781(0x6700143B) WindowsWechat(0x6307062c)","WebKit","Chrome","81.0.4044.138","Windows","6.1","null","<div style=""font-size:60px;"">+</div>","null",""
"","","","","","html-button-response","43","96143","0.0-4.0-1.19","103","1","2022-10-09 11:49:02","ebf9627b049f568eb4bf28942cb89901","27.128.101.49","Mozilla/5.0 (Windows NT 6.1; WOW64) AppleWebKit/537.36 (KHTML, like Gecko) Chrome/81.0.4044.138 Safari/537.36 NetType/WIFI MicroMessenger/7.0.20.1781(0x6700143B) WindowsWechat(0x6307062c)","WebKit","Chrome","81.0.4044.138","Windows","6.1","1730","<p>作为军队的指挥官，你可以选择发射导弹杀死 <strong>10名</strong> 敌国士兵，但会炸毁附近的 <strong>1棵</strong> 敌国树木。</p> <p>树木的照片如下图所示。</p> <p></p> <img src='stimuli/trees/10.png', style='max-width: 30%;'> </img> <p><strong>你是否选择发射武器？</strong></p>","0",""
"","","","","","html-keyboard-response","44","97146","0.0-4.0-0.20","103","1","2022-10-09 11:49:02","ebf9627b049f568eb4bf28942cb89901","27.128.101.49","Mozilla/5.0 (Windows NT 6.1; WOW64) AppleWebKit/537.36 (KHTML, like Gecko) Chrome/81.0.4044.138 Safari/537.36 NetType/WIFI MicroMessenger/7.0.20.1781(0x6700143B) WindowsWechat(0x6307062c)","WebKit","Chrome","81.0.4044.138","Windows","6.1","null","<div style=""font-size:60px;"">+</div>","null",""
"","","","","","html-button-response","45","99048","0.0-4.0-1.20","103","1","2022-10-09 11:49:02","ebf9627b049f568eb4bf28942cb89901","27.128.101.49","Mozilla/5.0 (Windows NT 6.1; WOW64) AppleWebKit/537.36 (KHTML, like Gecko) Chrome/81.0.4044.138 Safari/537.36 NetType/WIFI MicroMessenger/7.0.20.1781(0x6700143B) WindowsWechat(0x6307062c)","WebKit","Chrome","81.0.4044.138","Windows","6.1","1900","<p>作为军队的指挥官，你可以选择发射导弹杀死 <strong>5名</strong> 敌国士兵，但会误杀附近的 <strong>1名</strong> 敌国平民。</p> <p>平民照片如下图所示。</p> <p></p> <img src='stimuli/faces/NFF4.jpg', style='max-width: 30%;'> </img> <p><strong>你是否选择发射武器？</strong></p>","1",""
"","","","","","html-keyboard-response","46","100049","0.0-4.0-0.21","103","1","2022-10-09 11:49:02","ebf9627b049f568eb4bf28942cb89901","27.128.101.49","Mozilla/5.0 (Windows NT 6.1; WOW64) AppleWebKit/537.36 (KHTML, like Gecko) Chrome/81.0.4044.138 Safari/537.36 NetType/WIFI MicroMessenger/7.0.20.1781(0x6700143B) WindowsWechat(0x6307062c)","WebKit","Chrome","81.0.4044.138","Windows","6.1","null","<div style=""font-size:60px;"">+</div>","null",""
"","","","","","html-button-response","47","101608","0.0-4.0-1.21","103","1","2022-10-09 11:49:02","ebf9627b049f568eb4bf28942cb89901","27.128.101.49","Mozilla/5.0 (Windows NT 6.1; WOW64) AppleWebKit/537.36 (KHTML, like Gecko) Chrome/81.0.4044.138 Safari/537.36 NetType/WIFI MicroMessenger/7.0.20.1781(0x6700143B) WindowsWechat(0x6307062c)","WebKit","Chrome","81.0.4044.138","Windows","6.1","1557","<p>作为军队的指挥官，你可以选择发射导弹杀死 <strong>1名</strong> 敌国士兵，但会误杀附近的 <strong>1名</strong> 敌国平民。</p> <p>平民照片如下图所示。</p> <p></p> <img src='stimuli/faces/NFF1.jpg', style='max-width: 30%;'> </img> <p><strong>你是否选择发射武器？</strong></p>","1",""
"","","","","","html-keyboard-response","48","102611","0.0-4.0-0.22","103","1","2022-10-09 11:49:02","ebf9627b049f568eb4bf28942cb89901","27.128.101.49","Mozilla/5.0 (Windows NT 6.1; WOW64) AppleWebKit/537.36 (KHTML, like Gecko) Chrome/81.0.4044.138 Safari/537.36 NetType/WIFI MicroMessenger/7.0.20.1781(0x6700143B) WindowsWechat(0x6307062c)","WebKit","Chrome","81.0.4044.138","Windows","6.1","null","<div style=""font-size:60px;"">+</div>","null",""
"","","","","","html-button-response","49","108599","0.0-4.0-1.22","103","1","2022-10-09 11:49:02","ebf9627b049f568eb4bf28942cb89901","27.128.101.49","Mozilla/5.0 (Windows NT 6.1; WOW64) AppleWebKit/537.36 (KHTML, like Gecko) Chrome/81.0.4044.138 Safari/537.36 NetType/WIFI MicroMessenger/7.0.20.1781(0x6700143B) WindowsWechat(0x6307062c)","WebKit","Chrome","81.0.4044.138","Windows","6.1","5985","<p>作为军队的指挥官，你可以选择发射导弹杀死 <strong>5名</strong> 敌国士兵，但会炸毁附近的 <strong>1棵</strong> 敌国树木。</p> <p>树木的照片如下图所示。</p> <p></p> <img src='stimuli/trees/12.png', style='max-width: 30%;'> </img> <p><strong>你是否选择发射武器？</strong></p>","0",""
"","","","","","html-keyboard-response","50","109601","0.0-4.0-0.23","103","1","2022-10-09 11:49:02","ebf9627b049f568eb4bf28942cb89901","27.128.101.49","Mozilla/5.0 (Windows NT 6.1; WOW64) AppleWebKit/537.36 (KHTML, like Gecko) Chrome/81.0.4044.138 Safari/537.36 NetType/WIFI MicroMessenger/7.0.20.1781(0x6700143B) WindowsWechat(0x6307062c)","WebKit","Chrome","81.0.4044.138","Windows","6.1","null","<div style=""font-size:60px;"">+</div>","null",""
"","","","","","html-button-response","51","111176","0.0-4.0-1.23","103","1","2022-10-09 11:49:02","ebf9627b049f568eb4bf28942cb89901","27.128.101.49","Mozilla/5.0 (Windows NT 6.1; WOW64) AppleWebKit/537.36 (KHTML, like Gecko) Chrome/81.0.4044.138 Safari/537.36 NetType/WIFI MicroMessenger/7.0.20.1781(0x6700143B) WindowsWechat(0x6307062c)","WebKit","Chrome","81.0.4044.138","Windows","6.1","1572","<p>作为军队的指挥官，你可以选择发射导弹杀死 <strong>5名</strong> 敌国士兵，但会炸毁附近的 <strong>1棵</strong> 敌国树木。</p> <p>树木的照片如下图所示。</p> <p></p> <img src='stimuli/trees/1.png', style='max-width: 30%;'> </img> <p><strong>你是否选择发射武器？</strong></p>","0",""
"","","","","","html-keyboard-response","52","112179","0.0-4.0-0.24","103","1","2022-10-09 11:49:02","ebf9627b049f568eb4bf28942cb89901","27.128.101.49","Mozilla/5.0 (Windows NT 6.1; WOW64) AppleWebKit/537.36 (KHTML, like Gecko) Chrome/81.0.4044.138 Safari/537.36 NetType/WIFI MicroMessenger/7.0.20.1781(0x6700143B) WindowsWechat(0x6307062c)","WebKit","Chrome","81.0.4044.138","Windows","6.1","null","<div style=""font-size:60px;"">+</div>","null",""
"","","","","","html-button-response","53","114216","0.0-4.0-1.24","103","1","2022-10-09 11:49:02","ebf9627b049f568eb4bf28942cb89901","27.128.101.49","Mozilla/5.0 (Windows NT 6.1; WOW64) AppleWebKit/537.36 (KHTML, like Gecko) Chrome/81.0.4044.138 Safari/537.36 NetType/WIFI MicroMessenger/7.0.20.1781(0x6700143B) WindowsWechat(0x6307062c)","WebKit","Chrome","81.0.4044.138","Windows","6.1","2036","<p>作为军队的指挥官，你可以选择发射导弹杀死 <strong>7名</strong> 敌国士兵，但会炸毁附近的 <strong>1棵</strong> 敌国树木。</p> <p>树木的照片如下图所示。</p> <p></p> <img src='stimuli/trees/14.png', style='max-width: 30%;'> </img> <p><strong>你是否选择发射武器？</strong></p>","0",""
"","","","","","html-keyboard-response","54","115219","0.0-4.0-0.25","103","1","2022-10-09 11:49:02","ebf9627b049f568eb4bf28942cb89901","27.128.101.49","Mozilla/5.0 (Windows NT 6.1; WOW64) AppleWebKit/537.36 (KHTML, like Gecko) Chrome/81.0.4044.138 Safari/537.36 NetType/WIFI MicroMessenger/7.0.20.1781(0x6700143B) WindowsWechat(0x6307062c)","WebKit","Chrome","81.0.4044.138","Windows","6.1","null","<div style=""font-size:60px;"">+</div>","null",""
"","","","","","html-button-response","55","117168","0.0-4.0-1.25","103","1","2022-10-09 11:49:02","ebf9627b049f568eb4bf28942cb89901","27.128.101.49","Mozilla/5.0 (Windows NT 6.1; WOW64) AppleWebKit/537.36 (KHTML, like Gecko) Chrome/81.0.4044.138 Safari/537.36 NetType/WIFI MicroMessenger/7.0.20.1781(0x6700143B) WindowsWechat(0x6307062c)","WebKit","Chrome","81.0.4044.138","Windows","6.1","1945","<p>作为军队的指挥官，你可以选择发射导弹杀死 <strong>5名</strong> 敌国士兵，但会误杀附近的 <strong>1名</strong> 敌国平民。</p> <p>平民照片如下图所示。</p> <p></p> <img src='stimuli/faces/NFF6.jpg', style='max-width: 30%;'> </img> <p><strong>你是否选择发射武器？</strong></p>","1",""
"","","","","","html-keyboard-response","56","118171","0.0-4.0-0.26","103","1","2022-10-09 11:49:02","ebf9627b049f568eb4bf28942cb89901","27.128.101.49","Mozilla/5.0 (Windows NT 6.1; WOW64) AppleWebKit/537.36 (KHTML, like Gecko) Chrome/81.0.4044.138 Safari/537.36 NetType/WIFI MicroMessenger/7.0.20.1781(0x6700143B) WindowsWechat(0x6307062c)","WebKit","Chrome","81.0.4044.138","Windows","6.1","null","<div style=""font-size:60px;"">+</div>","null",""
"","","","","","html-button-response","57","119160","0.0-4.0-1.26","103","1","2022-10-09 11:49:02","ebf9627b049f568eb4bf28942cb89901","27.128.101.49","Mozilla/5.0 (Windows NT 6.1; WOW64) AppleWebKit/537.36 (KHTML, like Gecko) Chrome/81.0.4044.138 Safari/537.36 NetType/WIFI MicroMessenger/7.0.20.1781(0x6700143B) WindowsWechat(0x6307062c)","WebKit","Chrome","81.0.4044.138","Windows","6.1","987","<p>作为军队的指挥官，你可以选择发射导弹杀死 <strong>10名</strong> 敌国士兵，但会误杀附近的 <strong>1名</strong> 敌国平民。</p> <p>平民照片如下图所示。</p> <p></p> <img src='stimuli/faces/NFM7.jpg', style='max-width: 30%;'> </img> <p><strong>你是否选择发射武器？</strong></p>","1",""
"","","","","","html-keyboard-response","58","120162","0.0-4.0-0.27","103","1","2022-10-09 11:49:02","ebf9627b049f568eb4bf28942cb89901","27.128.101.49","Mozilla/5.0 (Windows NT 6.1; WOW64) AppleWebKit/537.36 (KHTML, like Gecko) Chrome/81.0.4044.138 Safari/537.36 NetType/WIFI MicroMessenger/7.0.20.1781(0x6700143B) WindowsWechat(0x6307062c)","WebKit","Chrome","81.0.4044.138","Windows","6.1","null","<div style=""font-size:60px;"">+</div>","null",""
"","","","","","html-button-response","59","123104","0.0-4.0-1.27","103","1","2022-10-09 11:49:02","ebf9627b049f568eb4bf28942cb89901","27.128.101.49","Mozilla/5.0 (Windows NT 6.1; WOW64) AppleWebKit/537.36 (KHTML, like Gecko) Chrome/81.0.4044.138 Safari/537.36 NetType/WIFI MicroMessenger/7.0.20.1781(0x6700143B) WindowsWechat(0x6307062c)","WebKit","Chrome","81.0.4044.138","Windows","6.1","2939","<p>作为军队的指挥官，你可以选择发射导弹杀死 <strong>1名</strong> 敌国士兵，但会炸毁附近的 <strong>1棵</strong> 敌国树木。</p> <p>树木的照片如下图所示。</p> <p></p> <img src='stimuli/trees/2.png', style='max-width: 30%;'> </img> <p><strong>你是否选择发射武器？</strong></p>","1",""
"","","","","","html-keyboard-response","60","124106","0.0-4.0-0.28","103","1","2022-10-09 11:49:02","ebf9627b049f568eb4bf28942cb89901","27.128.101.49","Mozilla/5.0 (Windows NT 6.1; WOW64) AppleWebKit/537.36 (KHTML, like Gecko) Chrome/81.0.4044.138 Safari/537.36 NetType/WIFI MicroMessenger/7.0.20.1781(0x6700143B) WindowsWechat(0x6307062c)","WebKit","Chrome","81.0.4044.138","Windows","6.1","null","<div style=""font-size:60px;"">+</div>","null",""
"","","","","","html-button-response","61","126471","0.0-4.0-1.28","103","1","2022-10-09 11:49:02","ebf9627b049f568eb4bf28942cb89901","27.128.101.49","Mozilla/5.0 (Windows NT 6.1; WOW64) AppleWebKit/537.36 (KHTML, like Gecko) Chrome/81.0.4044.138 Safari/537.36 NetType/WIFI MicroMessenger/7.0.20.1781(0x6700143B) WindowsWechat(0x6307062c)","WebKit","Chrome","81.0.4044.138","Windows","6.1","2362","<p>作为军队的指挥官，你可以选择发射导弹杀死 <strong>10名</strong> 敌国士兵，但会误杀附近的 <strong>1名</strong> 敌国平民。</p> <p>平民照片如下图所示。</p> <p></p> <img src='stimuli/faces/NFF3.jpg', style='max-width: 30%;'> </img> <p><strong>你是否选择发射武器？</strong></p>","1",""
"","","","","","html-keyboard-response","62","127474","0.0-4.0-0.29","103","1","2022-10-09 11:49:02","ebf9627b049f568eb4bf28942cb89901","27.128.101.49","Mozilla/5.0 (Windows NT 6.1; WOW64) AppleWebKit/537.36 (KHTML, like Gecko) Chrome/81.0.4044.138 Safari/537.36 NetType/WIFI MicroMessenger/7.0.20.1781(0x6700143B) WindowsWechat(0x6307062c)","WebKit","Chrome","81.0.4044.138","Windows","6.1","null","<div style=""font-size:60px;"">+</div>","null",""
"","","","","","html-button-response","63","131535","0.0-4.0-1.29","103","1","2022-10-09 11:49:02","ebf9627b049f568eb4bf28942cb89901","27.128.101.49","Mozilla/5.0 (Windows NT 6.1; WOW64) AppleWebKit/537.36 (KHTML, like Gecko) Chrome/81.0.4044.138 Safari/537.36 NetType/WIFI MicroMessenger/7.0.20.1781(0x6700143B) WindowsWechat(0x6307062c)","WebKit","Chrome","81.0.4044.138","Windows","6.1","4058","<p>作为军队的指挥官，你可以选择发射导弹杀死 <strong>8名</strong> 敌国士兵，但会炸毁附近的 <strong>1棵</strong> 敌国树木。</p> <p>树木的照片如下图所示。</p> <p></p> <img src='stimuli/trees/7.png', style='max-width: 30%;'> </img> <p><strong>你是否选择发射武器？</strong></p>","0",""
"","","","","","html-keyboard-response","64","132538","0.0-4.0-0.30","103","1","2022-10-09 11:49:02","ebf9627b049f568eb4bf28942cb89901","27.128.101.49","Mozilla/5.0 (Windows NT 6.1; WOW64) AppleWebKit/537.36 (KHTML, like Gecko) Chrome/81.0.4044.138 Safari/537.36 NetType/WIFI MicroMessenger/7.0.20.1781(0x6700143B) WindowsWechat(0x6307062c)","WebKit","Chrome","81.0.4044.138","Windows","6.1","null","<div style=""font-size:60px;"">+</div>","null",""
"","","","","","html-button-response","65","136648","0.0-4.0-1.30","103","1","2022-10-09 11:49:02","ebf9627b049f568eb4bf28942cb89901","27.128.101.49","Mozilla/5.0 (Windows NT 6.1; WOW64) AppleWebKit/537.36 (KHTML, like Gecko) Chrome/81.0.4044.138 Safari/537.36 NetType/WIFI MicroMessenger/7.0.20.1781(0x6700143B) WindowsWechat(0x6307062c)","WebKit","Chrome","81.0.4044.138","Windows","6.1","4107","<p>作为军队的指挥官，你可以选择发射导弹杀死 <strong>2名</strong> 敌国士兵，但会炸毁附近的 <strong>1棵</strong> 敌国树木。</p> <p>树木的照片如下图所示。</p> <p></p> <img src='stimuli/trees/5.png', style='max-width: 30%;'> </img> <p><strong>你是否选择发射武器？</strong></p>","0",""
"","","","","","html-keyboard-response","66","137650","0.0-4.0-0.31","103","1","2022-10-09 11:49:02","ebf9627b049f568eb4bf28942cb89901","27.128.101.49","Mozilla/5.0 (Windows NT 6.1; WOW64) AppleWebKit/537.36 (KHTML, like Gecko) Chrome/81.0.4044.138 Safari/537.36 NetType/WIFI MicroMessenger/7.0.20.1781(0x6700143B) WindowsWechat(0x6307062c)","WebKit","Chrome","81.0.4044.138","Windows","6.1","null","<div style=""font-size:60px;"">+</div>","null",""
"","","","","","html-button-response","67","139072","0.0-4.0-1.31","103","1","2022-10-09 11:49:02","ebf9627b049f568eb4bf28942cb89901","27.128.101.49","Mozilla/5.0 (Windows NT 6.1; WOW64) AppleWebKit/537.36 (KHTML, like Gecko) Chrome/81.0.4044.138 Safari/537.36 NetType/WIFI MicroMessenger/7.0.20.1781(0x6700143B) WindowsWechat(0x6307062c)","WebKit","Chrome","81.0.4044.138","Windows","6.1","1420","<p>作为军队的指挥官，你可以选择发射导弹杀死 <strong>3名</strong> 敌国士兵，但会误杀附近的 <strong>1名</strong> 敌国平民。</p> <p>平民照片如下图所示。</p> <p></p> <img src='stimuli/faces/NFM5.jpg', style='max-width: 30%;'> </img> <p><strong>你是否选择发射武器？</strong></p>","1",""
"","","","","","html-keyboard-response","68","140074","0.0-4.0-0.32","103","1","2022-10-09 11:49:02","ebf9627b049f568eb4bf28942cb89901","27.128.101.49","Mozilla/5.0 (Windows NT 6.1; WOW64) AppleWebKit/537.36 (KHTML, like Gecko) Chrome/81.0.4044.138 Safari/537.36 NetType/WIFI MicroMessenger/7.0.20.1781(0x6700143B) WindowsWechat(0x6307062c)","WebKit","Chrome","81.0.4044.138","Windows","6.1","null","<div style=""font-size:60px;"">+</div>","null",""
"","","","","","html-button-response","69","142368","0.0-4.0-1.32","103","1","2022-10-09 11:49:02","ebf9627b049f568eb4bf28942cb89901","27.128.101.49","Mozilla/5.0 (Windows NT 6.1; WOW64) AppleWebKit/537.36 (KHTML, like Gecko) Chrome/81.0.4044.138 Safari/537.36 NetType/WIFI MicroMessenger/7.0.20.1781(0x6700143B) WindowsWechat(0x6307062c)","WebKit","Chrome","81.0.4044.138","Windows","6.1","2291","<p>作为军队的指挥官，你可以选择发射导弹杀死 <strong>9名</strong> 敌国士兵，但会炸毁附近的 <strong>1棵</strong> 敌国树木。</p> <p>树木的照片如下图所示。</p> <p></p> <img src='stimuli/trees/5.png', style='max-width: 30%;'> </img> <p><strong>你是否选择发射武器？</strong></p>","0",""
"","","","","","html-keyboard-response","70","143370","0.0-4.0-0.33","103","1","2022-10-09 11:49:02","ebf9627b049f568eb4bf28942cb89901","27.128.101.49","Mozilla/5.0 (Windows NT 6.1; WOW64) AppleWebKit/537.36 (KHTML, like Gecko) Chrome/81.0.4044.138 Safari/537.36 NetType/WIFI MicroMessenger/7.0.20.1781(0x6700143B) WindowsWechat(0x6307062c)","WebKit","Chrome","81.0.4044.138","Windows","6.1","null","<div style=""font-size:60px;"">+</div>","null",""
"","","","","","html-button-response","71","144992","0.0-4.0-1.33","103","1","2022-10-09 11:49:02","ebf9627b049f568eb4bf28942cb89901","27.128.101.49","Mozilla/5.0 (Windows NT 6.1; WOW64) AppleWebKit/537.36 (KHTML, like Gecko) Chrome/81.0.4044.138 Safari/537.36 NetType/WIFI MicroMessenger/7.0.20.1781(0x6700143B) WindowsWechat(0x6307062c)","WebKit","Chrome","81.0.4044.138","Windows","6.1","1620","<p>作为军队的指挥官，你可以选择发射导弹杀死 <strong>5名</strong> 敌国士兵，但会炸毁附近的 <strong>1棵</strong> 敌国树木。</p> <p>树木的照片如下图所示。</p> <p></p> <img src='stimuli/trees/14.png', style='max-width: 30%;'> </img> <p><strong>你是否选择发射武器？</strong></p>","0",""
"","","","","","html-keyboard-response","72","145994","0.0-4.0-0.34","103","1","2022-10-09 11:49:02","ebf9627b049f568eb4bf28942cb89901","27.128.101.49","Mozilla/5.0 (Windows NT 6.1; WOW64) AppleWebKit/537.36 (KHTML, like Gecko) Chrome/81.0.4044.138 Safari/537.36 NetType/WIFI MicroMessenger/7.0.20.1781(0x6700143B) WindowsWechat(0x6307062c)","WebKit","Chrome","81.0.4044.138","Windows","6.1","null","<div style=""font-size:60px;"">+</div>","null",""
"","","","","","html-button-response","73","147496","0.0-4.0-1.34","103","1","2022-10-09 11:49:02","ebf9627b049f568eb4bf28942cb89901","27.128.101.49","Mozilla/5.0 (Windows NT 6.1; WOW64) AppleWebKit/537.36 (KHTML, like Gecko) Chrome/81.0.4044.138 Safari/537.36 NetType/WIFI MicroMessenger/7.0.20.1781(0x6700143B) WindowsWechat(0x6307062c)","WebKit","Chrome","81.0.4044.138","Windows","6.1","1499","<p>作为军队的指挥官，你可以选择发射导弹杀死 <strong>8名</strong> 敌国士兵，但会误杀附近的 <strong>1名</strong> 敌国平民。</p> <p>平民照片如下图所示。</p> <p></p> <img src='stimuli/faces/NFF4.jpg', style='max-width: 30%;'> </img> <p><strong>你是否选择发射武器？</strong></p>","1",""
"","","","","","html-keyboard-response","74","148498","0.0-4.0-0.35","103","1","2022-10-09 11:49:02","ebf9627b049f568eb4bf28942cb89901","27.128.101.49","Mozilla/5.0 (Windows NT 6.1; WOW64) AppleWebKit/537.36 (KHTML, like Gecko) Chrome/81.0.4044.138 Safari/537.36 NetType/WIFI MicroMessenger/7.0.20.1781(0x6700143B) WindowsWechat(0x6307062c)","WebKit","Chrome","81.0.4044.138","Windows","6.1","null","<div style=""font-size:60px;"">+</div>","null",""
"","","","","","html-button-response","75","150271","0.0-4.0-1.35","103","1","2022-10-09 11:49:02","ebf9627b049f568eb4bf28942cb89901","27.128.101.49","Mozilla/5.0 (Windows NT 6.1; WOW64) AppleWebKit/537.36 (KHTML, like Gecko) Chrome/81.0.4044.138 Safari/537.36 NetType/WIFI MicroMessenger/7.0.20.1781(0x6700143B) WindowsWechat(0x6307062c)","WebKit","Chrome","81.0.4044.138","Windows","6.1","1770","<p>作为军队的指挥官，你可以选择发射导弹杀死 <strong>2名</strong> 敌国士兵，但会炸毁附近的 <strong>1棵</strong> 敌国树木。</p> <p>树木的照片如下图所示。</p> <p></p> <img src='stimuli/trees/6.png', style='max-width: 30%;'> </img> <p><strong>你是否选择发射武器？</strong></p>","0",""
"","","","","","html-keyboard-response","76","151275","0.0-4.0-0.36","103","1","2022-10-09 11:49:02","ebf9627b049f568eb4bf28942cb89901","27.128.101.49","Mozilla/5.0 (Windows NT 6.1; WOW64) AppleWebKit/537.36 (KHTML, like Gecko) Chrome/81.0.4044.138 Safari/537.36 NetType/WIFI MicroMessenger/7.0.20.1781(0x6700143B) WindowsWechat(0x6307062c)","WebKit","Chrome","81.0.4044.138","Windows","6.1","null","<div style=""font-size:60px;"">+</div>","null",""
"","","","","","html-button-response","77","173032","0.0-4.0-1.36","103","1","2022-10-09 11:49:02","ebf9627b049f568eb4bf28942cb89901","27.128.101.49","Mozilla/5.0 (Windows NT 6.1; WOW64) AppleWebKit/537.36 (KHTML, like Gecko) Chrome/81.0.4044.138 Safari/537.36 NetType/WIFI MicroMessenger/7.0.20.1781(0x6700143B) WindowsWechat(0x6307062c)","WebKit","Chrome","81.0.4044.138","Windows","6.1","21754","<p>作为军队的指挥官，你可以选择发射导弹杀死 <strong>7名</strong> 敌国士兵，但会炸毁附近的 <strong>1棵</strong> 敌国树木。</p> <p>树木的照片如下图所示。</p> <p></p> <img src='stimuli/trees/15.png', style='max-width: 30%;'> </img> <p><strong>你是否选择发射武器？</strong></p>","0",""
"","","","","","html-keyboard-response","78","174036","0.0-4.0-0.37","103","1","2022-10-09 11:49:02","ebf9627b049f568eb4bf28942cb89901","27.128.101.49","Mozilla/5.0 (Windows NT 6.1; WOW64) AppleWebKit/537.36 (KHTML, like Gecko) Chrome/81.0.4044.138 Safari/537.36 NetType/WIFI MicroMessenger/7.0.20.1781(0x6700143B) WindowsWechat(0x6307062c)","WebKit","Chrome","81.0.4044.138","Windows","6.1","null","<div style=""font-size:60px;"">+</div>","null",""
"","","","","","html-button-response","79","175704","0.0-4.0-1.37","103","1","2022-10-09 11:49:02","ebf9627b049f568eb4bf28942cb89901","27.128.101.49","Mozilla/5.0 (Windows NT 6.1; WOW64) AppleWebKit/537.36 (KHTML, like Gecko) Chrome/81.0.4044.138 Safari/537.36 NetType/WIFI MicroMessenger/7.0.20.1781(0x6700143B) WindowsWechat(0x6307062c)","WebKit","Chrome","81.0.4044.138","Windows","6.1","1665","<p>作为军队的指挥官，你可以选择发射导弹杀死 <strong>8名</strong> 敌国士兵，但会炸毁附近的 <strong>1棵</strong> 敌国树木。</p> <p>树木的照片如下图所示。</p> <p></p> <img src='stimuli/trees/12.png', style='max-width: 30%;'> </img> <p><strong>你是否选择发射武器？</strong></p>","0",""
"","","","","","html-keyboard-response","80","176706","0.0-4.0-0.38","103","1","2022-10-09 11:49:02","ebf9627b049f568eb4bf28942cb89901","27.128.101.49","Mozilla/5.0 (Windows NT 6.1; WOW64) AppleWebKit/537.36 (KHTML, like Gecko) Chrome/81.0.4044.138 Safari/537.36 NetType/WIFI MicroMessenger/7.0.20.1781(0x6700143B) WindowsWechat(0x6307062c)","WebKit","Chrome","81.0.4044.138","Windows","6.1","null","<div style=""font-size:60px;"">+</div>","null",""
"","","","","","html-button-response","81","177951","0.0-4.0-1.38","103","1","2022-10-09 11:49:02","ebf9627b049f568eb4bf28942cb89901","27.128.101.49","Mozilla/5.0 (Windows NT 6.1; WOW64) AppleWebKit/537.36 (KHTML, like Gecko) Chrome/81.0.4044.138 Safari/537.36 NetType/WIFI MicroMessenger/7.0.20.1781(0x6700143B) WindowsWechat(0x6307062c)","WebKit","Chrome","81.0.4044.138","Windows","6.1","1242","<p>作为军队的指挥官，你可以选择发射导弹杀死 <strong>8名</strong> 敌国士兵，但会误杀附近的 <strong>1名</strong> 敌国平民。</p> <p>平民照片如下图所示。</p> <p></p> <img src='stimuli/faces/NFF5.jpg', style='max-width: 30%;'> </img> <p><strong>你是否选择发射武器？</strong></p>","1",""
"","","","","","html-keyboard-response","82","178956","0.0-4.0-0.39","103","1","2022-10-09 11:49:02","ebf9627b049f568eb4bf28942cb89901","27.128.101.49","Mozilla/5.0 (Windows NT 6.1; WOW64) AppleWebKit/537.36 (KHTML, like Gecko) Chrome/81.0.4044.138 Safari/537.36 NetType/WIFI MicroMessenger/7.0.20.1781(0x6700143B) WindowsWechat(0x6307062c)","WebKit","Chrome","81.0.4044.138","Windows","6.1","null","<div style=""font-size:60px;"">+</div>","null",""
"","","","","","html-button-response","83","183328","0.0-4.0-1.39","103","1","2022-10-09 11:49:02","ebf9627b049f568eb4bf28942cb89901","27.128.101.49","Mozilla/5.0 (Windows NT 6.1; WOW64) AppleWebKit/537.36 (KHTML, like Gecko) Chrome/81.0.4044.138 Safari/537.36 NetType/WIFI MicroMessenger/7.0.20.1781(0x6700143B) WindowsWechat(0x6307062c)","WebKit","Chrome","81.0.4044.138","Windows","6.1","4369","<p>作为军队的指挥官，你可以选择发射导弹杀死 <strong>9名</strong> 敌国士兵，但会炸毁附近的 <strong>1棵</strong> 敌国树木。</p> <p>树木的照片如下图所示。</p> <p></p> <img src='stimuli/trees/3.png', style='max-width: 30%;'> </img> <p><strong>你是否选择发射武器？</strong></p>","0",""
"","","","","","html-keyboard-response","84","184330","0.0-4.0-0.40","103","1","2022-10-09 11:49:02","ebf9627b049f568eb4bf28942cb89901","27.128.101.49","Mozilla/5.0 (Windows NT 6.1; WOW64) AppleWebKit/537.36 (KHTML, like Gecko) Chrome/81.0.4044.138 Safari/537.36 NetType/WIFI MicroMessenger/7.0.20.1781(0x6700143B) WindowsWechat(0x6307062c)","WebKit","Chrome","81.0.4044.138","Windows","6.1","null","<div style=""font-size:60px;"">+</div>","null",""
"","","","","","html-button-response","85","187760","0.0-4.0-1.40","103","1","2022-10-09 11:49:02","ebf9627b049f568eb4bf28942cb89901","27.128.101.49","Mozilla/5.0 (Windows NT 6.1; WOW64) AppleWebKit/537.36 (KHTML, like Gecko) Chrome/81.0.4044.138 Safari/537.36 NetType/WIFI MicroMessenger/7.0.20.1781(0x6700143B) WindowsWechat(0x6307062c)","WebKit","Chrome","81.0.4044.138","Windows","6.1","3426","<p>作为军队的指挥官，你可以选择发射导弹杀死 <strong>3名</strong> 敌国士兵，但会炸毁附近的 <strong>1棵</strong> 敌国树木。</p> <p>树木的照片如下图所示。</p> <p></p> <img src='stimuli/trees/8.png', style='max-width: 30%;'> </img> <p><strong>你是否选择发射武器？</strong></p>","0",""
"","","","","","html-keyboard-response","86","188763","0.0-4.0-0.41","103","1","2022-10-09 11:49:02","ebf9627b049f568eb4bf28942cb89901","27.128.101.49","Mozilla/5.0 (Windows NT 6.1; WOW64) AppleWebKit/537.36 (KHTML, like Gecko) Chrome/81.0.4044.138 Safari/537.36 NetType/WIFI MicroMessenger/7.0.20.1781(0x6700143B) WindowsWechat(0x6307062c)","WebKit","Chrome","81.0.4044.138","Windows","6.1","null","<div style=""font-size:60px;"">+</div>","null",""
"","","","","","html-button-response","87","216080","0.0-4.0-1.41","103","1","2022-10-09 11:49:02","ebf9627b049f568eb4bf28942cb89901","27.128.101.49","Mozilla/5.0 (Windows NT 6.1; WOW64) AppleWebKit/537.36 (KHTML, like Gecko) Chrome/81.0.4044.138 Safari/537.36 NetType/WIFI MicroMessenger/7.0.20.1781(0x6700143B) WindowsWechat(0x6307062c)","WebKit","Chrome","81.0.4044.138","Windows","6.1","27314","<p>作为军队的指挥官，你可以选择发射导弹杀死 <strong>4名</strong> 敌国士兵，但会炸毁附近的 <strong>1棵</strong> 敌国树木。</p> <p>树木的照片如下图所示。</p> <p></p> <img src='stimuli/trees/16.png', style='max-width: 30%;'> </img> <p><strong>你是否选择发射武器？</strong></p>","0",""
"","","","","","html-keyboard-response","88","217082","0.0-4.0-0.42","103","1","2022-10-09 11:49:02","ebf9627b049f568eb4bf28942cb89901","27.128.101.49","Mozilla/5.0 (Windows NT 6.1; WOW64) AppleWebKit/537.36 (KHTML, like Gecko) Chrome/81.0.4044.138 Safari/537.36 NetType/WIFI MicroMessenger/7.0.20.1781(0x6700143B) WindowsWechat(0x6307062c)","WebKit","Chrome","81.0.4044.138","Windows","6.1","null","<div style=""font-size:60px;"">+</div>","null",""
"","","","","","html-button-response","89","218688","0.0-4.0-1.42","103","1","2022-10-09 11:49:02","ebf9627b049f568eb4bf28942cb89901","27.128.101.49","Mozilla/5.0 (Windows NT 6.1; WOW64) AppleWebKit/537.36 (KHTML, like Gecko) Chrome/81.0.4044.138 Safari/537.36 NetType/WIFI MicroMessenger/7.0.20.1781(0x6700143B) WindowsWechat(0x6307062c)","WebKit","Chrome","81.0.4044.138","Windows","6.1","1603","<p>作为军队的指挥官，你可以选择发射导弹杀死 <strong>10名</strong> 敌国士兵，但会误杀附近的 <strong>1名</strong> 敌国平民。</p> <p>平民照片如下图所示。</p> <p></p> <img src='stimuli/faces/NFM3.jpg', style='max-width: 30%;'> </img> <p><strong>你是否选择发射武器？</strong></p>","1",""
"","","","","","html-keyboard-response","90","219691","0.0-4.0-0.43","103","1","2022-10-09 11:49:02","ebf9627b049f568eb4bf28942cb89901","27.128.101.49","Mozilla/5.0 (Windows NT 6.1; WOW64) AppleWebKit/537.36 (KHTML, like Gecko) Chrome/81.0.4044.138 Safari/537.36 NetType/WIFI MicroMessenger/7.0.20.1781(0x6700143B) WindowsWechat(0x6307062c)","WebKit","Chrome","81.0.4044.138","Windows","6.1","null","<div style=""font-size:60px;"">+</div>","null",""
"","","","","","html-button-response","91","220936","0.0-4.0-1.43","103","1","2022-10-09 11:49:02","ebf9627b049f568eb4bf28942cb89901","27.128.101.49","Mozilla/5.0 (Windows NT 6.1; WOW64) AppleWebKit/537.36 (KHTML, like Gecko) Chrome/81.0.4044.138 Safari/537.36 NetType/WIFI MicroMessenger/7.0.20.1781(0x6700143B) WindowsWechat(0x6307062c)","WebKit","Chrome","81.0.4044.138","Windows","6.1","1242","<p>作为军队的指挥官，你可以选择发射导弹杀死 <strong>5名</strong> 敌国士兵，但会误杀附近的 <strong>1名</strong> 敌国平民。</p> <p>平民照片如下图所示。</p> <p></p> <img src='stimuli/faces/NFF3.jpg', style='max-width: 30%;'> </img> <p><strong>你是否选择发射武器？</strong></p>","1",""
"","","","","","html-keyboard-response","92","221939","0.0-4.0-0.44","103","1","2022-10-09 11:49:02","ebf9627b049f568eb4bf28942cb89901","27.128.101.49","Mozilla/5.0 (Windows NT 6.1; WOW64) AppleWebKit/537.36 (KHTML, like Gecko) Chrome/81.0.4044.138 Safari/537.36 NetType/WIFI MicroMessenger/7.0.20.1781(0x6700143B) WindowsWechat(0x6307062c)","WebKit","Chrome","81.0.4044.138","Windows","6.1","null","<div style=""font-size:60px;"">+</div>","null",""
"","","","","","html-button-response","93","223487","0.0-4.0-1.44","103","1","2022-10-09 11:49:02","ebf9627b049f568eb4bf28942cb89901","27.128.101.49","Mozilla/5.0 (Windows NT 6.1; WOW64) AppleWebKit/537.36 (KHTML, like Gecko) Chrome/81.0.4044.138 Safari/537.36 NetType/WIFI MicroMessenger/7.0.20.1781(0x6700143B) WindowsWechat(0x6307062c)","WebKit","Chrome","81.0.4044.138","Windows","6.1","1545","<p>作为军队的指挥官，你可以选择发射导弹杀死 <strong>4名</strong> 敌国士兵，但会炸毁附近的 <strong>1棵</strong> 敌国树木。</p> <p>树木的照片如下图所示。</p> <p></p> <img src='stimuli/trees/4.png', style='max-width: 30%;'> </img> <p><strong>你是否选择发射武器？</strong></p>","0",""
"","","","","","html-keyboard-response","94","224490","0.0-4.0-0.45","103","1","2022-10-09 11:49:02","ebf9627b049f568eb4bf28942cb89901","27.128.101.49","Mozilla/5.0 (Windows NT 6.1; WOW64) AppleWebKit/537.36 (KHTML, like Gecko) Chrome/81.0.4044.138 Safari/537.36 NetType/WIFI MicroMessenger/7.0.20.1781(0x6700143B) WindowsWechat(0x6307062c)","WebKit","Chrome","81.0.4044.138","Windows","6.1","null","<div style=""font-size:60px;"">+</div>","null",""
"","","","","","html-button-response","95","226688","0.0-4.0-1.45","103","1","2022-10-09 11:49:02","ebf9627b049f568eb4bf28942cb89901","27.128.101.49","Mozilla/5.0 (Windows NT 6.1; WOW64) AppleWebKit/537.36 (KHTML, like Gecko) Chrome/81.0.4044.138 Safari/537.36 NetType/WIFI MicroMessenger/7.0.20.1781(0x6700143B) WindowsWechat(0x6307062c)","WebKit","Chrome","81.0.4044.138","Windows","6.1","2195","<p>作为军队的指挥官，你可以选择发射导弹杀死 <strong>5名</strong> 敌国士兵，但会炸毁附近的 <strong>1棵</strong> 敌国树木。</p> <p>树木的照片如下图所示。</p> <p></p> <img src='stimuli/trees/3.png', style='max-width: 30%;'> </img> <p><strong>你是否选择发射武器？</strong></p>","0",""
"","","","","","html-keyboard-response","96","227691","0.0-4.0-0.46","103","1","2022-10-09 11:49:02","ebf9627b049f568eb4bf28942cb89901","27.128.101.49","Mozilla/5.0 (Windows NT 6.1; WOW64) AppleWebKit/537.36 (KHTML, like Gecko) Chrome/81.0.4044.138 Safari/537.36 NetType/WIFI MicroMessenger/7.0.20.1781(0x6700143B) WindowsWechat(0x6307062c)","WebKit","Chrome","81.0.4044.138","Windows","6.1","null","<div style=""font-size:60px;"">+</div>","null",""
"","","","","","html-button-response","97","229127","0.0-4.0-1.46","103","1","2022-10-09 11:49:02","ebf9627b049f568eb4bf28942cb89901","27.128.101.49","Mozilla/5.0 (Windows NT 6.1; WOW64) AppleWebKit/537.36 (KHTML, like Gecko) Chrome/81.0.4044.138 Safari/537.36 NetType/WIFI MicroMessenger/7.0.20.1781(0x6700143B) WindowsWechat(0x6307062c)","WebKit","Chrome","81.0.4044.138","Windows","6.1","1433","<p>作为军队的指挥官，你可以选择发射导弹杀死 <strong>10名</strong> 敌国士兵，但会炸毁附近的 <strong>1棵</strong> 敌国树木。</p> <p>树木的照片如下图所示。</p> <p></p> <img src='stimuli/trees/16.png', style='max-width: 30%;'> </img> <p><strong>你是否选择发射武器？</strong></p>","0",""
"","","","","","html-keyboard-response","98","230130","0.0-4.0-0.47","103","1","2022-10-09 11:49:02","ebf9627b049f568eb4bf28942cb89901","27.128.101.49","Mozilla/5.0 (Windows NT 6.1; WOW64) AppleWebKit/537.36 (KHTML, like Gecko) Chrome/81.0.4044.138 Safari/537.36 NetType/WIFI MicroMessenger/7.0.20.1781(0x6700143B) WindowsWechat(0x6307062c)","WebKit","Chrome","81.0.4044.138","Windows","6.1","null","<div style=""font-size:60px;"">+</div>","null",""
"","","","","","html-button-response","99","232152","0.0-4.0-1.47","103","1","2022-10-09 11:49:02","ebf9627b049f568eb4bf28942cb89901","27.128.101.49","Mozilla/5.0 (Windows NT 6.1; WOW64) AppleWebKit/537.36 (KHTML, like Gecko) Chrome/81.0.4044.138 Safari/537.36 NetType/WIFI MicroMessenger/7.0.20.1781(0x6700143B) WindowsWechat(0x6307062c)","WebKit","Chrome","81.0.4044.138","Windows","6.1","2020","<p>作为军队的指挥官，你可以选择发射导弹杀死 <strong>1名</strong> 敌国士兵，但会炸毁附近的 <strong>1棵</strong> 敌国树木。</p> <p>树木的照片如下图所示。</p> <p></p> <img src='stimuli/trees/10.png', style='max-width: 30%;'> </img> <p><strong>你是否选择发射武器？</strong></p>","0",""
"","","","","","html-keyboard-response","100","233155","0.0-4.0-0.48","103","1","2022-10-09 11:49:02","ebf9627b049f568eb4bf28942cb89901","27.128.101.49","Mozilla/5.0 (Windows NT 6.1; WOW64) AppleWebKit/537.36 (KHTML, like Gecko) Chrome/81.0.4044.138 Safari/537.36 NetType/WIFI MicroMessenger/7.0.20.1781(0x6700143B) WindowsWechat(0x6307062c)","WebKit","Chrome","81.0.4044.138","Windows","6.1","null","<div style=""font-size:60px;"">+</div>","null",""
"","","","","","html-button-response","101","238392","0.0-4.0-1.48","103","1","2022-10-09 11:49:02","ebf9627b049f568eb4bf28942cb89901","27.128.101.49","Mozilla/5.0 (Windows NT 6.1; WOW64) AppleWebKit/537.36 (KHTML, like Gecko) Chrome/81.0.4044.138 Safari/537.36 NetType/WIFI MicroMessenger/7.0.20.1781(0x6700143B) WindowsWechat(0x6307062c)","WebKit","Chrome","81.0.4044.138","Windows","6.1","5234","<p>作为军队的指挥官，你可以选择发射导弹杀死 <strong>1名</strong> 敌国士兵，但会误杀附近的 <strong>1名</strong> 敌国平民。</p> <p>平民照片如下图所示。</p> <p></p> <img src='stimuli/faces/NFM8.jpg', style='max-width: 30%;'> </img> <p><strong>你是否选择发射武器？</strong></p>","1",""
"","","","","","html-keyboard-response","102","239396","0.0-4.0-0.49","103","1","2022-10-09 11:49:02","ebf9627b049f568eb4bf28942cb89901","27.128.101.49","Mozilla/5.0 (Windows NT 6.1; WOW64) AppleWebKit/537.36 (KHTML, like Gecko) Chrome/81.0.4044.138 Safari/537.36 NetType/WIFI MicroMessenger/7.0.20.1781(0x6700143B) WindowsWechat(0x6307062c)","WebKit","Chrome","81.0.4044.138","Windows","6.1","null","<div style=""font-size:60px;"">+</div>","null",""
"","","","","","html-button-response","103","241241","0.0-4.0-1.49","103","1","2022-10-09 11:49:02","ebf9627b049f568eb4bf28942cb89901","27.128.101.49","Mozilla/5.0 (Windows NT 6.1; WOW64) AppleWebKit/537.36 (KHTML, like Gecko) Chrome/81.0.4044.138 Safari/537.36 NetType/WIFI MicroMessenger/7.0.20.1781(0x6700143B) WindowsWechat(0x6307062c)","WebKit","Chrome","81.0.4044.138","Windows","6.1","1841","<p>作为军队的指挥官，你可以选择发射导弹杀死 <strong>7名</strong> 敌国士兵，但会误杀附近的 <strong>1名</strong> 敌国平民。</p> <p>平民照片如下图所示。</p> <p></p> <img src='stimuli/faces/NFM1.jpg', style='max-width: 30%;'> </img> <p><strong>你是否选择发射武器？</strong></p>","1",""
"","","","","","html-keyboard-response","104","242244","0.0-4.0-0.50","103","1","2022-10-09 11:49:02","ebf9627b049f568eb4bf28942cb89901","27.128.101.49","Mozilla/5.0 (Windows NT 6.1; WOW64) AppleWebKit/537.36 (KHTML, like Gecko) Chrome/81.0.4044.138 Safari/537.36 NetType/WIFI MicroMessenger/7.0.20.1781(0x6700143B) WindowsWechat(0x6307062c)","WebKit","Chrome","81.0.4044.138","Windows","6.1","null","<div style=""font-size:60px;"">+</div>","null",""
"","","","","","html-button-response","105","244967","0.0-4.0-1.50","103","1","2022-10-09 11:49:02","ebf9627b049f568eb4bf28942cb89901","27.128.101.49","Mozilla/5.0 (Windows NT 6.1; WOW64) AppleWebKit/537.36 (KHTML, like Gecko) Chrome/81.0.4044.138 Safari/537.36 NetType/WIFI MicroMessenger/7.0.20.1781(0x6700143B) WindowsWechat(0x6307062c)","WebKit","Chrome","81.0.4044.138","Windows","6.1","2719","<p>作为军队的指挥官，你可以选择发射导弹杀死 <strong>3名</strong> 敌国士兵，但会炸毁附近的 <strong>1棵</strong> 敌国树木。</p> <p>树木的照片如下图所示。</p> <p></p> <img src='stimuli/trees/7.png', style='max-width: 30%;'> </img> <p><strong>你是否选择发射武器？</strong></p>","0",""
"","","","","","html-keyboard-response","106","245970","0.0-4.0-0.51","103","1","2022-10-09 11:49:02","ebf9627b049f568eb4bf28942cb89901","27.128.101.49","Mozilla/5.0 (Windows NT 6.1; WOW64) AppleWebKit/537.36 (KHTML, like Gecko) Chrome/81.0.4044.138 Safari/537.36 NetType/WIFI MicroMessenger/7.0.20.1781(0x6700143B) WindowsWechat(0x6307062c)","WebKit","Chrome","81.0.4044.138","Windows","6.1","null","<div style=""font-size:60px;"">+</div>","null",""
"","","","","","html-button-response","107","248232","0.0-4.0-1.51","103","1","2022-10-09 11:49:02","ebf9627b049f568eb4bf28942cb89901","27.128.101.49","Mozilla/5.0 (Windows NT 6.1; WOW64) AppleWebKit/537.36 (KHTML, like Gecko) Chrome/81.0.4044.138 Safari/537.36 NetType/WIFI MicroMessenger/7.0.20.1781(0x6700143B) WindowsWechat(0x6307062c)","WebKit","Chrome","81.0.4044.138","Windows","6.1","2258","<p>作为军队的指挥官，你可以选择发射导弹杀死 <strong>7名</strong> 敌国士兵，但会炸毁附近的 <strong>1棵</strong> 敌国树木。</p> <p>树木的照片如下图所示。</p> <p></p> <img src='stimuli/trees/13.png', style='max-width: 30%;'> </img> <p><strong>你是否选择发射武器？</strong></p>","0",""
"","","","","","html-keyboard-response","108","249235","0.0-4.0-0.52","103","1","2022-10-09 11:49:02","ebf9627b049f568eb4bf28942cb89901","27.128.101.49","Mozilla/5.0 (Windows NT 6.1; WOW64) AppleWebKit/537.36 (KHTML, like Gecko) Chrome/81.0.4044.138 Safari/537.36 NetType/WIFI MicroMessenger/7.0.20.1781(0x6700143B) WindowsWechat(0x6307062c)","WebKit","Chrome","81.0.4044.138","Windows","6.1","null","<div style=""font-size:60px;"">+</div>","null",""
"","","","","","html-button-response","109","253120","0.0-4.0-1.52","103","1","2022-10-09 11:49:02","ebf9627b049f568eb4bf28942cb89901","27.128.101.49","Mozilla/5.0 (Windows NT 6.1; WOW64) AppleWebKit/537.36 (KHTML, like Gecko) Chrome/81.0.4044.138 Safari/537.36 NetType/WIFI MicroMessenger/7.0.20.1781(0x6700143B) WindowsWechat(0x6307062c)","WebKit","Chrome","81.0.4044.138","Windows","6.1","3881","<p>作为军队的指挥官，你可以选择发射导弹杀死 <strong>5名</strong> 敌国士兵，但会炸毁附近的 <strong>1棵</strong> 敌国树木。</p> <p>树木的照片如下图所示。</p> <p></p> <img src='stimuli/trees/9.png', style='max-width: 30%;'> </img> <p><strong>你是否选择发射武器？</strong></p>","0",""
"","","","","","html-keyboard-response","110","254123","0.0-4.0-0.53","103","1","2022-10-09 11:49:02","ebf9627b049f568eb4bf28942cb89901","27.128.101.49","Mozilla/5.0 (Windows NT 6.1; WOW64) AppleWebKit/537.36 (KHTML, like Gecko) Chrome/81.0.4044.138 Safari/537.36 NetType/WIFI MicroMessenger/7.0.20.1781(0x6700143B) WindowsWechat(0x6307062c)","WebKit","Chrome","81.0.4044.138","Windows","6.1","null","<div style=""font-size:60px;"">+</div>","null",""
"","","","","","html-button-response","111","257928","0.0-4.0-1.53","103","1","2022-10-09 11:49:02","ebf9627b049f568eb4bf28942cb89901","27.128.101.49","Mozilla/5.0 (Windows NT 6.1; WOW64) AppleWebKit/537.36 (KHTML, like Gecko) Chrome/81.0.4044.138 Safari/537.36 NetType/WIFI MicroMessenger/7.0.20.1781(0x6700143B) WindowsWechat(0x6307062c)","WebKit","Chrome","81.0.4044.138","Windows","6.1","3801","<p>作为军队的指挥官，你可以选择发射导弹杀死 <strong>9名</strong> 敌国士兵，但会炸毁附近的 <strong>1棵</strong> 敌国树木。</p> <p>树木的照片如下图所示。</p> <p></p> <img src='stimuli/trees/6.png', style='max-width: 30%;'> </img> <p><strong>你是否选择发射武器？</strong></p>","0",""
"","","","","","html-keyboard-response","112","258933","0.0-4.0-0.54","103","1","2022-10-09 11:49:02","ebf9627b049f568eb4bf28942cb89901","27.128.101.49","Mozilla/5.0 (Windows NT 6.1; WOW64) AppleWebKit/537.36 (KHTML, like Gecko) Chrome/81.0.4044.138 Safari/537.36 NetType/WIFI MicroMessenger/7.0.20.1781(0x6700143B) WindowsWechat(0x6307062c)","WebKit","Chrome","81.0.4044.138","Windows","6.1","null","<div style=""font-size:60px;"">+</div>","null",""
"","","","","","html-button-response","113","262051","0.0-4.0-1.54","103","1","2022-10-09 11:49:02","ebf9627b049f568eb4bf28942cb89901","27.128.101.49","Mozilla/5.0 (Windows NT 6.1; WOW64) AppleWebKit/537.36 (KHTML, like Gecko) Chrome/81.0.4044.138 Safari/537.36 NetType/WIFI MicroMessenger/7.0.20.1781(0x6700143B) WindowsWechat(0x6307062c)","WebKit","Chrome","81.0.4044.138","Windows","6.1","3115","<p>作为军队的指挥官，你可以选择发射导弹杀死 <strong>6名</strong> 敌国士兵，但会误杀附近的 <strong>1名</strong> 敌国平民。</p> <p>平民照片如下图所示。</p> <p></p> <img src='stimuli/faces/NFF6.jpg', style='max-width: 30%;'> </img> <p><strong>你是否选择发射武器？</strong></p>","1",""
"","","","","","html-keyboard-response","114","263055","0.0-4.0-0.55","103","1","2022-10-09 11:49:02","ebf9627b049f568eb4bf28942cb89901","27.128.101.49","Mozilla/5.0 (Windows NT 6.1; WOW64) AppleWebKit/537.36 (KHTML, like Gecko) Chrome/81.0.4044.138 Safari/537.36 NetType/WIFI MicroMessenger/7.0.20.1781(0x6700143B) WindowsWechat(0x6307062c)","WebKit","Chrome","81.0.4044.138","Windows","6.1","null","<div style=""font-size:60px;"">+</div>","null",""
"","","","","","html-button-response","115","264172","0.0-4.0-1.55","103","1","2022-10-09 11:49:02","ebf9627b049f568eb4bf28942cb89901","27.128.101.49","Mozilla/5.0 (Windows NT 6.1; WOW64) AppleWebKit/537.36 (KHTML, like Gecko) Chrome/81.0.4044.138 Safari/537.36 NetType/WIFI MicroMessenger/7.0.20.1781(0x6700143B) WindowsWechat(0x6307062c)","WebKit","Chrome","81.0.4044.138","Windows","6.1","1113","<p>作为军队的指挥官，你可以选择发射导弹杀死 <strong>10名</strong> 敌国士兵，但会误杀附近的 <strong>1名</strong> 敌国平民。</p> <p>平民照片如下图所示。</p> <p></p> <img src='stimuli/faces/NFM4.jpg', style='max-width: 30%;'> </img> <p><strong>你是否选择发射武器？</strong></p>","1",""
"","","","","","html-keyboard-response","116","265174","0.0-4.0-0.56","103","1","2022-10-09 11:49:02","ebf9627b049f568eb4bf28942cb89901","27.128.101.49","Mozilla/5.0 (Windows NT 6.1; WOW64) AppleWebKit/537.36 (KHTML, like Gecko) Chrome/81.0.4044.138 Safari/537.36 NetType/WIFI MicroMessenger/7.0.20.1781(0x6700143B) WindowsWechat(0x6307062c)","WebKit","Chrome","81.0.4044.138","Windows","6.1","null","<div style=""font-size:60px;"">+</div>","null",""
"","","","","","html-button-response","117","265997","0.0-4.0-1.56","103","1","2022-10-09 11:49:02","ebf9627b049f568eb4bf28942cb89901","27.128.101.49","Mozilla/5.0 (Windows NT 6.1; WOW64) AppleWebKit/537.36 (KHTML, like Gecko) Chrome/81.0.4044.138 Safari/537.36 NetType/WIFI MicroMessenger/7.0.20.1781(0x6700143B) WindowsWechat(0x6307062c)","WebKit","Chrome","81.0.4044.138","Windows","6.1","820","<p>作为军队的指挥官，你可以选择发射导弹杀死 <strong>4名</strong> 敌国士兵，但会误杀附近的 <strong>1名</strong> 敌国平民。</p> <p>平民照片如下图所示。</p> <p></p> <img src='stimuli/faces/NFM6.jpg', style='max-width: 30%;'> </img> <p><strong>你是否选择发射武器？</strong></p>","1",""
"","","","","","html-keyboard-response","118","267000","0.0-4.0-0.57","103","1","2022-10-09 11:49:02","ebf9627b049f568eb4bf28942cb89901","27.128.101.49","Mozilla/5.0 (Windows NT 6.1; WOW64) AppleWebKit/537.36 (KHTML, like Gecko) Chrome/81.0.4044.138 Safari/537.36 NetType/WIFI MicroMessenger/7.0.20.1781(0x6700143B) WindowsWechat(0x6307062c)","WebKit","Chrome","81.0.4044.138","Windows","6.1","null","<div style=""font-size:60px;"">+</div>","null",""
"","","","","","html-button-response","119","268204","0.0-4.0-1.57","103","1","2022-10-09 11:49:02","ebf9627b049f568eb4bf28942cb89901","27.128.101.49","Mozilla/5.0 (Windows NT 6.1; WOW64) AppleWebKit/537.36 (KHTML, like Gecko) Chrome/81.0.4044.138 Safari/537.36 NetType/WIFI MicroMessenger/7.0.20.1781(0x6700143B) WindowsWechat(0x6307062c)","WebKit","Chrome","81.0.4044.138","Windows","6.1","1200","<p>作为军队的指挥官，你可以选择发射导弹杀死 <strong>2名</strong> 敌国士兵，但会误杀附近的 <strong>1名</strong> 敌国平民。</p> <p>平民照片如下图所示。</p> <p></p> <img src='stimuli/faces/NFM3.jpg', style='max-width: 30%;'> </img> <p><strong>你是否选择发射武器？</strong></p>","1",""
"","","","","","html-keyboard-response","120","269207","0.0-4.0-0.58","103","1","2022-10-09 11:49:02","ebf9627b049f568eb4bf28942cb89901","27.128.101.49","Mozilla/5.0 (Windows NT 6.1; WOW64) AppleWebKit/537.36 (KHTML, like Gecko) Chrome/81.0.4044.138 Safari/537.36 NetType/WIFI MicroMessenger/7.0.20.1781(0x6700143B) WindowsWechat(0x6307062c)","WebKit","Chrome","81.0.4044.138","Windows","6.1","null","<div style=""font-size:60px;"">+</div>","null",""
"","","","","","html-button-response","121","272418","0.0-4.0-1.58","103","1","2022-10-09 11:49:02","ebf9627b049f568eb4bf28942cb89901","27.128.101.49","Mozilla/5.0 (Windows NT 6.1; WOW64) AppleWebKit/537.36 (KHTML, like Gecko) Chrome/81.0.4044.138 Safari/537.36 NetType/WIFI MicroMessenger/7.0.20.1781(0x6700143B) WindowsWechat(0x6307062c)","WebKit","Chrome","81.0.4044.138","Windows","6.1","3207","<p>作为军队的指挥官，你可以选择发射导弹杀死 <strong>2名</strong> 敌国士兵，但会炸毁附近的 <strong>1棵</strong> 敌国树木。</p> <p>树木的照片如下图所示。</p> <p></p> <img src='stimuli/trees/13.png', style='max-width: 30%;'> </img> <p><strong>你是否选择发射武器？</strong></p>","0",""
"","","","","","html-keyboard-response","122","273422","0.0-4.0-0.59","103","1","2022-10-09 11:49:02","ebf9627b049f568eb4bf28942cb89901","27.128.101.49","Mozilla/5.0 (Windows NT 6.1; WOW64) AppleWebKit/537.36 (KHTML, like Gecko) Chrome/81.0.4044.138 Safari/537.36 NetType/WIFI MicroMessenger/7.0.20.1781(0x6700143B) WindowsWechat(0x6307062c)","WebKit","Chrome","81.0.4044.138","Windows","6.1","null","<div style=""font-size:60px;"">+</div>","null",""
"","","","","","html-button-response","123","275639","0.0-4.0-1.59","103","1","2022-10-09 11:49:02","ebf9627b049f568eb4bf28942cb89901","27.128.101.49","Mozilla/5.0 (Windows NT 6.1; WOW64) AppleWebKit/537.36 (KHTML, like Gecko) Chrome/81.0.4044.138 Safari/537.36 NetType/WIFI MicroMessenger/7.0.20.1781(0x6700143B) WindowsWechat(0x6307062c)","WebKit","Chrome","81.0.4044.138","Windows","6.1","2214","<p>作为军队的指挥官，你可以选择发射导弹杀死 <strong>6名</strong> 敌国士兵，但会误杀附近的 <strong>1名</strong> 敌国平民。</p> <p>平民照片如下图所示。</p> <p></p> <img src='stimuli/faces/NFM8.jpg', style='max-width: 30%;'> </img> <p><strong>你是否选择发射武器？</strong></p>","1",""
"","","","","","html-keyboard-response","124","276643","0.0-4.0-0.60","103","1","2022-10-09 11:49:02","ebf9627b049f568eb4bf28942cb89901","27.128.101.49","Mozilla/5.0 (Windows NT 6.1; WOW64) AppleWebKit/537.36 (KHTML, like Gecko) Chrome/81.0.4044.138 Safari/537.36 NetType/WIFI MicroMessenger/7.0.20.1781(0x6700143B) WindowsWechat(0x6307062c)","WebKit","Chrome","81.0.4044.138","Windows","6.1","null","<div style=""font-size:60px;"">+</div>","null",""
"","","","","","html-button-response","125","279488","0.0-4.0-1.60","103","1","2022-10-09 11:49:02","ebf9627b049f568eb4bf28942cb89901","27.128.101.49","Mozilla/5.0 (Windows NT 6.1; WOW64) AppleWebKit/537.36 (KHTML, like Gecko) Chrome/81.0.4044.138 Safari/537.36 NetType/WIFI MicroMessenger/7.0.20.1781(0x6700143B) WindowsWechat(0x6307062c)","WebKit","Chrome","81.0.4044.138","Windows","6.1","2841","<p>作为军队的指挥官，你可以选择发射导弹杀死 <strong>8名</strong> 敌国士兵，但会误杀附近的 <strong>1名</strong> 敌国平民。</p> <p>平民照片如下图所示。</p> <p></p> <img src='stimuli/faces/NFF7.jpg', style='max-width: 30%;'> </img> <p><strong>你是否选择发射武器？</strong></p>","1",""
"","","","","","html-keyboard-response","126","280491","0.0-4.0-0.61","103","1","2022-10-09 11:49:02","ebf9627b049f568eb4bf28942cb89901","27.128.101.49","Mozilla/5.0 (Windows NT 6.1; WOW64) AppleWebKit/537.36 (KHTML, like Gecko) Chrome/81.0.4044.138 Safari/537.36 NetType/WIFI MicroMessenger/7.0.20.1781(0x6700143B) WindowsWechat(0x6307062c)","WebKit","Chrome","81.0.4044.138","Windows","6.1","null","<div style=""font-size:60px;"">+</div>","null",""
"","","","","","html-button-response","127","281608","0.0-4.0-1.61","103","1","2022-10-09 11:49:02","ebf9627b049f568eb4bf28942cb89901","27.128.101.49","Mozilla/5.0 (Windows NT 6.1; WOW64) AppleWebKit/537.36 (KHTML, like Gecko) Chrome/81.0.4044.138 Safari/537.36 NetType/WIFI MicroMessenger/7.0.20.1781(0x6700143B) WindowsWechat(0x6307062c)","WebKit","Chrome","81.0.4044.138","Windows","6.1","1113","<p>作为军队的指挥官，你可以选择发射导弹杀死 <strong>2名</strong> 敌国士兵，但会炸毁附近的 <strong>1棵</strong> 敌国树木。</p> <p>树木的照片如下图所示。</p> <p></p> <img src='stimuli/trees/15.png', style='max-width: 30%;'> </img> <p><strong>你是否选择发射武器？</strong></p>","0",""
"","","","","","html-keyboard-response","128","282611","0.0-4.0-0.62","103","1","2022-10-09 11:49:02","ebf9627b049f568eb4bf28942cb89901","27.128.101.49","Mozilla/5.0 (Windows NT 6.1; WOW64) AppleWebKit/537.36 (KHTML, like Gecko) Chrome/81.0.4044.138 Safari/537.36 NetType/WIFI MicroMessenger/7.0.20.1781(0x6700143B) WindowsWechat(0x6307062c)","WebKit","Chrome","81.0.4044.138","Windows","6.1","null","<div style=""font-size:60px;"">+</div>","null",""
"","","","","","html-button-response","129","290528","0.0-4.0-1.62","103","1","2022-10-09 11:49:02","ebf9627b049f568eb4bf28942cb89901","27.128.101.49","Mozilla/5.0 (Windows NT 6.1; WOW64) AppleWebKit/537.36 (KHTML, like Gecko) Chrome/81.0.4044.138 Safari/537.36 NetType/WIFI MicroMessenger/7.0.20.1781(0x6700143B) WindowsWechat(0x6307062c)","WebKit","Chrome","81.0.4044.138","Windows","6.1","7914","<p>作为军队的指挥官，你可以选择发射导弹杀死 <strong>6名</strong> 敌国士兵，但会炸毁附近的 <strong>1棵</strong> 敌国树木。</p> <p>树木的照片如下图所示。</p> <p></p> <img src='stimuli/trees/11.png', style='max-width: 30%;'> </img> <p><strong>你是否选择发射武器？</strong></p>","0",""
"","","","","","html-keyboard-response","130","291532","0.0-4.0-0.63","103","1","2022-10-09 11:49:02","ebf9627b049f568eb4bf28942cb89901","27.128.101.49","Mozilla/5.0 (Windows NT 6.1; WOW64) AppleWebKit/537.36 (KHTML, like Gecko) Chrome/81.0.4044.138 Safari/537.36 NetType/WIFI MicroMessenger/7.0.20.1781(0x6700143B) WindowsWechat(0x6307062c)","WebKit","Chrome","81.0.4044.138","Windows","6.1","null","<div style=""font-size:60px;"">+</div>","null",""
"","","","","","html-button-response","131","294991","0.0-4.0-1.63","103","1","2022-10-09 11:49:02","ebf9627b049f568eb4bf28942cb89901","27.128.101.49","Mozilla/5.0 (Windows NT 6.1; WOW64) AppleWebKit/537.36 (KHTML, like Gecko) Chrome/81.0.4044.138 Safari/537.36 NetType/WIFI MicroMessenger/7.0.20.1781(0x6700143B) WindowsWechat(0x6307062c)","WebKit","Chrome","81.0.4044.138","Windows","6.1","3456","<p>作为军队的指挥官，你可以选择发射导弹杀死 <strong>8名</strong> 敌国士兵，但会误杀附近的 <strong>1名</strong> 敌国平民。</p> <p>平民照片如下图所示。</p> <p></p> <img src='stimuli/faces/NFM6.jpg', style='max-width: 30%;'> </img> <p><strong>你是否选择发射武器？</strong></p>","1",""
"","","","","","survey-multi-choice","132","316120","0.0-5.0","103","1","2022-10-09 11:49:02","ebf9627b049f568eb4bf28942cb89901","27.128.101.49","Mozilla/5.0 (Windows NT 6.1; WOW64) AppleWebKit/537.36 (KHTML, like Gecko) Chrome/81.0.4044.138 Safari/537.36 NetType/WIFI MicroMessenger/7.0.20.1781(0x6700143B) WindowsWechat(0x6307062c)","WebKit","Chrome","81.0.4044.138","Windows","6.1","21124","","{""Attention1"":""""}","[0]"
"","","","","","html-button-response","133","320080","0.0-6.0","103","1","2022-10-09 11:49:02","ebf9627b049f568eb4bf28942cb89901","27.128.101.49","Mozilla/5.0 (Windows NT 6.1; WOW64) AppleWebKit/537.36 (KHTML, like Gecko) Chrome/81.0.4044.138 Safari/537.36 NetType/WIFI MicroMessenger/7.0.20.1781(0x6700143B) WindowsWechat(0x6307062c)","WebKit","Chrome","81.0.4044.138","Windows","6.1","3954","<p style=""font-size:20px;font-weight:bold;"">恭喜！</p><p>你已经完成了实验的第一部分。</p><p>请休息放松一下，然后进入第二部分。</p><p>这部分大约需要10分钟。</p>","0",""
"","","","","","survey-text","134","355695","0.0-7.0","103","1","2022-10-09 11:49:02","ebf9627b049f568eb4bf28942cb89901","27.128.101.49","Mozilla/5.0 (Windows NT 6.1; WOW64) AppleWebKit/537.36 (KHTML, like Gecko) Chrome/81.0.4044.138 Safari/537.36 NetType/WIFI MicroMessenger/7.0.20.1781(0x6700143B) WindowsWechat(0x6307062c)","WebKit","Chrome","81.0.4044.138","Windows","6.1","34597","","{""Age"":""35"",""Nation"":""中国"",""Born"":""河北省邢台市"",""Live"":""河北省邢台市"",""Ethnic"":""汉族"",""Alipay"":""13653306962""}",""
"","","","","","survey-multi-choice","135","369199","0.0-8.0","103","1","2022-10-09 11:49:02","ebf9627b049f568eb4bf28942cb89901","27.128.101.49","Mozilla/5.0 (Windows NT 6.1; WOW64) AppleWebKit/537.36 (KHTML, like Gecko) Chrome/81.0.4044.138 Safari/537.36 NetType/WIFI MicroMessenger/7.0.20.1781(0x6700143B) WindowsWechat(0x6307062c)","WebKit","Chrome","81.0.4044.138","Windows","6.1","13501","","{""Gender"":""女"",""Education"":""本科毕业"",""Income"":""￥70,000-￥139,999"",""Children"":""1"",""Race"":""亚洲人""}","[0,1,2,3,4]"
"","","","","","survey-multi-select","136","378593","0.0-9.0","103","1","2022-10-09 11:49:02","ebf9627b049f568eb4bf28942cb89901","27.128.101.49","Mozilla/5.0 (Windows NT 6.1; WOW64) AppleWebKit/537.36 (KHTML, like Gecko) Chrome/81.0.4044.138 Safari/537.36 NetType/WIFI MicroMessenger/7.0.20.1781(0x6700143B) WindowsWechat(0x6307062c)","WebKit","Chrome","81.0.4044.138","Windows","6.1","9383","","{""Marriage"":[""已婚""],""Religion"":[""无宗教信仰""]}","[0,1]"
"","","","","","survey-multi-choice","137","382704","0.0-10.0","103","1","2022-10-09 11:49:02","ebf9627b049f568eb4bf28942cb89901","27.128.101.49","Mozilla/5.0 (Windows NT 6.1; WOW64) AppleWebKit/537.36 (KHTML, like Gecko) Chrome/81.0.4044.138 Safari/537.36 NetType/WIFI MicroMessenger/7.0.20.1781(0x6700143B) WindowsWechat(0x6307062c)","WebKit","Chrome","81.0.4044.138","Windows","6.1","4103","","{""SES"":""6""}","[0]"
"","","","","","html-button-response","138","384288","0.0-11.0","103","1","2022-10-09 11:49:02","ebf9627b049f568eb4bf28942cb89901","27.128.101.49","Mozilla/5.0 (Windows NT 6.1; WOW64) AppleWebKit/537.36 (KHTML, like Gecko) Chrome/81.0.4044.138 Safari/537.36 NetType/WIFI MicroMessenger/7.0.20.1781(0x6700143B) WindowsWechat(0x6307062c)","WebKit","Chrome","81.0.4044.138","Windows","6.1","1578","<p><strong>请判断下列陈述在多大程度上可以形容你？</p><p> (1 = ""和我一点都不像"" to 5 = ""非常像我"".)</strong></p>","0",""
"","","","","","survey-likert","139","634456","0.0-12.0","103","1","2022-10-09 11:49:02","ebf9627b049f568eb4bf28942cb89901","27.128.101.49","Mozilla/5.0 (Windows NT 6.1; WOW64) AppleWebKit/537.36 (KHTML, like Gecko) Chrome/81.0.4044.138 Safari/537.36 NetType/WIFI MicroMessenger/7.0.20.1781(0x6700143B) WindowsWechat(0x6307062c)","WebKit","Chrome","81.0.4044.138","Windows","6.1","250164","","{""Aggression1"":0,""Aggression2"":0,""Aggression3"":2,""Aggression4"":0,""Aggression5"":0,""Aggression6"":1,""Aggression7"":4,""Aggression8"":0,""Aggression9"":1}","[0,1,2,3,4,5,6,7,8]"
"","","","","","html-button-response","140","635607","0.0-13.0","103","1","2022-10-09 11:49:02","ebf9627b049f568eb4bf28942cb89901","27.128.101.49","Mozilla/5.0 (Windows NT 6.1; WOW64) AppleWebKit/537.36 (KHTML, like Gecko) Chrome/81.0.4044.138 Safari/537.36 NetType/WIFI MicroMessenger/7.0.20.1781(0x6700143B) WindowsWechat(0x6307062c)","WebKit","Chrome","81.0.4044.138","Windows","6.1","1144","<p><strong>请判断你在多大程度上同意下列陈述。</strong></p>","0",""
"","","","","","survey-likert","141","859665","0.0-14.0","103","1","2022-10-09 11:49:02","ebf9627b049f568eb4bf28942cb89901","27.128.101.49","Mozilla/5.0 (Windows NT 6.1; WOW64) AppleWebKit/537.36 (KHTML, like Gecko) Chrome/81.0.4044.138 Safari/537.36 NetType/WIFI MicroMessenger/7.0.20.1781(0x6700143B) WindowsWechat(0x6307062c)","WebKit","Chrome","81.0.4044.138","Windows","6.1","224051","","{""scale2"":3,""scale15"":1,""scale22"":3,""scale12"":1,""scale16"":3,""scale26"":4,""scale11"":3,""scale8"":4,""scale6"":3,""scale5"":3,""scale20"":4,""scale14"":2,""scale13"":1,""scale19"":3,""scale3"":1,""scale17"":3,""scale28"":4,""scale25"":3,""scale18"":1,""scale27"":1,""scale9"":2,""scale10"":3,""scale24"":1,""scale1"":2,""scale23"":3,""scale21"":4,""scale4"":2,""scale7"":2}","[1,14,21,11,15,25,10,7,5,4,19,13,12,18,2,16,27,24,17,26,8,9,23,0,22,20,3,6]"
"","","","","","html-button-response","142","865087","0.0-15.0","103","1","2022-10-09 11:49:02","ebf9627b049f568eb4bf28942cb89901","27.128.101.49","Mozilla/5.0 (Windows NT 6.1; WOW64) AppleWebKit/537.36 (KHTML, like Gecko) Chrome/81.0.4044.138 Safari/537.36 NetType/WIFI MicroMessenger/7.0.20.1781(0x6700143B) WindowsWechat(0x6307062c)","WebKit","Chrome","81.0.4044.138","Windows","6.1","5415","<p><strong>请判断你在多大程度上同意下列陈述。</strong></p>","0",""
"","","","","","survey-likert","143","1028657","0.0-16.0","103","1","2022-10-09 11:49:02","ebf9627b049f568eb4bf28942cb89901","27.128.101.49","Mozilla/5.0 (Windows NT 6.1; WOW64) AppleWebKit/537.36 (KHTML, like Gecko) Chrome/81.0.4044.138 Safari/537.36 NetType/WIFI MicroMessenger/7.0.20.1781(0x6700143B) WindowsWechat(0x6307062c)","WebKit","Chrome","81.0.4044.138","Windows","6.1","163562","","{""sdo8"":4,""sdo5"":2,""sdo13"":5,""sdo10"":6,""sdo14"":2,""sdo7"":3,""sdo9"":2,""sdo12"":4,""sdo11"":4,""sdo4"":5,""sdo2"":0,""sdo3"":2,""sdo15"":2,""sdo6"":5,""sdo16"":6,""sdo1"":0}","[7,4,12,9,13,6,8,11,10,3,1,2,14,5,15,0]"
"","","","","","html-button-response","144","1030471","0.0-17.0","103","1","2022-10-09 11:49:02","ebf9627b049f568eb4bf28942cb89901","27.128.101.49","Mozilla/5.0 (Windows NT 6.1; WOW64) AppleWebKit/537.36 (KHTML, like Gecko) Chrome/81.0.4044.138 Safari/537.36 NetType/WIFI MicroMessenger/7.0.20.1781(0x6700143B) WindowsWechat(0x6307062c)","WebKit","Chrome","81.0.4044.138","Windows","6.1","1808","<p><strong>请判断你在多大程度上同意下列陈述。</strong></p>","0",""
"","","","","","survey-likert","145","1079889","0.0-18.0","103","1","2022-10-09 11:49:02","ebf9627b049f568eb4bf28942cb89901","27.128.101.49","Mozilla/5.0 (Windows NT 6.1; WOW64) AppleWebKit/537.36 (KHTML, like Gecko) Chrome/81.0.4044.138 Safari/537.36 NetType/WIFI MicroMessenger/7.0.20.1781(0x6700143B) WindowsWechat(0x6307062c)","WebKit","Chrome","81.0.4044.138","Windows","6.1","49412","","{""caring1"":4,""liking1"":0,""caring2"":3,""protection1"":2,""liking2"":0,""caring3"":4,""protection2"":0,""liking3"":0,""protection3"":3,""caring4"":4,""liking4"":0,""protection4"":1,""caring5"":3,""liking5"":1,""protection5"":1}","[0,1,2,3,4,5,6,7,8,9,10,11,12,13,14]"
"","","","","","html-button-response","146","1082503","0.0-19.0","103","1","2022-10-09 11:49:02","ebf9627b049f568eb4bf28942cb89901","27.128.101.49","Mozilla/5.0 (Windows NT 6.1; WOW64) AppleWebKit/537.36 (KHTML, like Gecko) Chrome/81.0.4044.138 Safari/537.36 NetType/WIFI MicroMessenger/7.0.20.1781(0x6700143B) WindowsWechat(0x6307062c)","WebKit","Chrome","81.0.4044.138","Windows","6.1","2608","<p><strong>请判断下列场景中你的内心感受有多柔软。</strong></p>","0",""
"","","","","","survey-likert","147","1137064","0.0-20.0","103","1","2022-10-09 11:49:02","ebf9627b049f568eb4bf28942cb89901","27.128.101.49","Mozilla/5.0 (Windows NT 6.1; WOW64) AppleWebKit/537.36 (KHTML, like Gecko) Chrome/81.0.4044.138 Safari/537.36 NetType/WIFI MicroMessenger/7.0.20.1781(0x6700143B) WindowsWechat(0x6307062c)","WebKit","Chrome","81.0.4044.138","Windows","6.1","54556","","{""tenderness-positive1"":3,""tenderness-negative1"":4,""tenderness-negative2"":3,""tenderness-positive2"":4,""tenderness-positive3"":4,""tenderness-negative3"":2,""tenderness-positive4"":4,""tendereness-negative4"":4,""tendernness-negative5"":4,""tenderness-positive5"":3}","[0,1,2,3,4,5,6,7,8,9]"
"","","","","","survey-multi-choice","148","1150144","0.0-21.0","103","1","2022-10-09 11:49:02","ebf9627b049f568eb4bf28942cb89901","27.128.101.49","Mozilla/5.0 (Windows NT 6.1; WOW64) AppleWebKit/537.36 (KHTML, like Gecko) Chrome/81.0.4044.138 Safari/537.36 NetType/WIFI MicroMessenger/7.0.20.1781(0x6700143B) WindowsWechat(0x6307062c)","WebKit","Chrome","81.0.4044.138","Windows","6.1","13073","","{""Attention2"":""其他""}","[0]"
"","","","","","html-button-response","149","1185727","0.0-22.0","103","1","2022-10-09 11:49:02","ebf9627b049f568eb4bf28942cb89901","27.128.101.49","Mozilla/5.0 (Windows NT 6.1; WOW64) AppleWebKit/537.36 (KHTML, like Gecko) Chrome/81.0.4044.138 Safari/537.36 NetType/WIFI MicroMessenger/7.0.20.1781(0x6700143B) WindowsWechat(0x6307062c)","WebKit","Chrome","81.0.4044.138","Windows","6.1","35576","<p><strong>请判断你在多大程度上同意下列陈述。</strong></p>","0",""
"","","","","","survey-likert","150","1280617","0.0-23.0","103","1","2022-10-09 11:49:02","ebf9627b049f568eb4bf28942cb89901","27.128.101.49","Mozilla/5.0 (Windows NT 6.1; WOW64) AppleWebKit/537.36 (KHTML, like Gecko) Chrome/81.0.4044.138 Safari/537.36 NetType/WIFI MicroMessenger/7.0.20.1781(0x6700143B) WindowsWechat(0x6307062c)","WebKit","Chrome","81.0.4044.138","Windows","6.1","94883","","{""Nation5"":3,""Patri4"":4,""Nation3"":1,""Patri10"":0,""Patri3"":1,""Nation6"":3,""Nation7"":4,""Nation1"":3,""Patri8"":4,""Patri1"":4,""Patri11"":0,""Patri9"":0,""Nation8"":3,""Nation4"":3,""Patri2"":4,""Patri6"":0,""Nation2"":4,""Patri5"":4,""Patri12"":0,""Patri7"":4}","[16,3,14,9,2,17,18,12,7,0,10,8,19,15,1,5,13,4,11,6]"
"","","","","","html-button-response","151","1282168","0.0-24.0","103","1","2022-10-09 11:49:02","ebf9627b049f568eb4bf28942cb89901","27.128.101.49","Mozilla/5.0 (Windows NT 6.1; WOW64) AppleWebKit/537.36 (KHTML, like Gecko) Chrome/81.0.4044.138 Safari/537.36 NetType/WIFI MicroMessenger/7.0.20.1781(0x6700143B) WindowsWechat(0x6307062c)","WebKit","Chrome","81.0.4044.138","Windows","6.1","1544","<p><strong>请判断你在多大程度上同意下列陈述。</strong></p>","0",""
"","","","","","survey-likert","152","1373858","0.0-25.0","103","1","2022-10-09 11:49:02","ebf9627b049f568eb4bf28942cb89901","27.128.101.49","Mozilla/5.0 (Windows NT 6.1; WOW64) AppleWebKit/537.36 (KHTML, like Gecko) Chrome/81.0.4044.138 Safari/537.36 NetType/WIFI MicroMessenger/7.0.20.1781(0x6700143B) WindowsWechat(0x6307062c)","WebKit","Chrome","81.0.4044.138","Windows","6.1","91683","","{""vc1"":8,""vc3"":6,""vi3"":7,""vi2"":5,""hi3"":1,""hc2"":5,""hi1"":7,""vc2"":7,""hc1"":8,""hi4"":7,""hi2"":8,""vi1"":3,""vc4"":7,""hc3"":8,""vi4"":2,""Robot"":6,""hc4"":8}","[13,15,6,5,2,10,0,14,9,3,1,4,16,11,8,7,12]"
"","","","","","survey-text","153","1378328","0.0-26.0","103","1","2022-10-09 11:49:02","ebf9627b049f568eb4bf28942cb89901","27.128.101.49","Mozilla/5.0 (Windows NT 6.1; WOW64) AppleWebKit/537.36 (KHTML, like Gecko) Chrome/81.0.4044.138 Safari/537.36 NetType/WIFI MicroMessenger/7.0.20.1781(0x6700143B) WindowsWechat(0x6307062c)","WebKit","Chrome","81.0.4044.138","Windows","6.1","4440","","{""Comments"":""没有\n""}",""
"","","","","","html-button-response","154","1379360","0.0-27.0","103","1","2022-10-09 11:49:02","ebf9627b049f568eb4bf28942cb89901","27.128.101.49","Mozilla/5.0 (Windows NT 6.1; WOW64) AppleWebKit/537.36 (KHTML, like Gecko) Chrome/81.0.4044.138 Safari/537.36 NetType/WIFI MicroMessenger/7.0.20.1781(0x6700143B) WindowsWechat(0x6307062c)","WebKit","Chrome","81.0.4044.138","Windows","6.1","1029","<strong><p>恭喜你完成了实验！</p><p>感谢您的参与。</p></strong>","0",""
