"success","timeout","failed_images","failed_audio","failed_video","trial_type","trial_index","time_elapsed","internal_node_id","run_id","condition","recorded_at","source_code_version","ip","user_agent","device","browser","browser_version","platform","platform_version","rt","stimulus","response","question_order"
"true","false","[]","[]","[]","preload","0","5522","0.0-0.0","11","1","2022-10-07 06:04:20","ebf9627b049f568eb4bf28942cb89901","219.142.99.8","Mozilla/5.0 (Macintosh; Intel Mac OS X 10_15_7) AppleWebKit/537.36 (KHTML, like Gecko) Chrome/101.0.4951.64 Safari/537.36","Macintosh","Chrome","101.0.4951.64","OS X","10_15_7","","","",""
"true","","","","","fullscreen","1","92104","0.0-1.0","11","1","2022-10-07 06:04:20","ebf9627b049f568eb4bf28942cb89901","219.142.99.8","Mozilla/5.0 (Macintosh; Intel Mac OS X 10_15_7) AppleWebKit/537.36 (KHTML, like Gecko) Chrome/101.0.4951.64 Safari/537.36","Macintosh","Chrome","101.0.4951.64","OS X","10_15_7","","","",""
"","","","","","html-button-response","2","247256","0.0-2.0","11","1","2022-10-07 06:04:20","ebf9627b049f568eb4bf28942cb89901","219.142.99.8","Mozilla/5.0 (Macintosh; Intel Mac OS X 10_15_7) AppleWebKit/537.36 (KHTML, like Gecko) Chrome/101.0.4951.64 Safari/537.36","Macintosh","Chrome","101.0.4951.64","OS X","10_15_7","155153","<p style=""font-size:20px;font-weight:bold;"">实验知情同意书</p><p style=""text-align:left;""><strong>实验名称：</strong>社会冲突研究</p><p style=""text-align:left;""><strong>主要研究者：</strong>韩晓春副教授（北京师范大学心理学部）</p><p style=""text-align:left;""><strong>联系方式：</strong>发送邮件至xiaochun.han@bnu.edu.cn</p><p style=""text-align:left;""><strong>研究目的：</strong>研究旨在了解人类面对群体冲突时的决策方式，以及相关的心理学特质。实验调查大约需要20分钟。</p><p style=""text-align:left;""><strong>实验流程：</strong>实验包含两部分。第一部分呈现一系列群体冲突场景，请你决定如何对这些冲突进行反应，大约需要10分钟完成。第二部分包含一系列人口统计学信息收集和心理学问卷，大约需要10分钟完成。</p><p style=""text-align:left;""><strong>参加及退出规则：</strong>参加本实验完全取决于您的个人意愿。在参与过程中，您可以随时退出，并且不用承担任何后果。</p><p style=""text-align:left;""><strong>隐私：</strong>本实验完全匿名进行，不会收集您的姓名或其他能够识别您身份的信息。实验中收集的作答仅用作科学研究使用，可能会在学术期刊/书籍上发表，或者用于教学，您的数据未来可能会和其他研究者或实验室分享，但您的个人身份不会被识别。</p><p style=""text-align:left;""><strong>实验报酬：</strong>实验完成后，您将获得15元人民币报酬，以感谢您的时间和努力。调查问卷中包含几道题目用以测验您作答时的认真度。只有完成全部实验，并且正确回答认真度测验的被试才能获得实验报酬。实验报酬将通过支付宝转账发放。</p><p style=""text-align:left;font-size:20px;""><strong>如果您同意以上实验知情同意书的内容，请点击'同意并且开始实验'按钮；否则请关闭浏览器界面，退出实验。</strong></p>","0",""
"","","","","","html-button-response","3","271074","0.0-3.0","11","1","2022-10-07 06:04:20","ebf9627b049f568eb4bf28942cb89901","219.142.99.8","Mozilla/5.0 (Macintosh; Intel Mac OS X 10_15_7) AppleWebKit/537.36 (KHTML, like Gecko) Chrome/101.0.4951.64 Safari/537.36","Macintosh","Chrome","101.0.4951.64","OS X","10_15_7","23815","<p ><strong>实验任务一：</strong></p><p>请想象你的国家与另一个国家发生了军事冲突。</p><p>你是国家军队的指挥官，你将如何在冲突中进行决策。</p><p>具体来说，作为军队指挥官，请你决定是否发射导弹进行打击。</p><p>接下来，你会面对一系列场景，请仔细阅读每个场景，然后进行决策。</p><p>这部分实验任务大约需要10分钟。</p><p><strong>实验过程中，请集中注意力。</strong></p>","0",""
"","","","","","html-keyboard-response","4","272082","0.0-4.0-0.0","11","1","2022-10-07 06:04:20","ebf9627b049f568eb4bf28942cb89901","219.142.99.8","Mozilla/5.0 (Macintosh; Intel Mac OS X 10_15_7) AppleWebKit/537.36 (KHTML, like Gecko) Chrome/101.0.4951.64 Safari/537.36","Macintosh","Chrome","101.0.4951.64","OS X","10_15_7","null","<div style=""font-size:60px;"">+</div>","null",""
"","","","","","html-button-response","5","283257","0.0-4.0-1.0","11","1","2022-10-07 06:04:20","ebf9627b049f568eb4bf28942cb89901","219.142.99.8","Mozilla/5.0 (Macintosh; Intel Mac OS X 10_15_7) AppleWebKit/537.36 (KHTML, like Gecko) Chrome/101.0.4951.64 Safari/537.36","Macintosh","Chrome","101.0.4951.64","OS X","10_15_7","11171","<p>作为军队的指挥官，你可以选择发射导弹杀死 <strong>7名</strong> 敌国士兵，但会误杀附近的 <strong>1名</strong> 敌国平民。</p> <p>平民照片如下图所示。</p> <p></p> <img src='stimuli/faces/NFF5.jpg', style='max-width: 30%;'> </img> <p><strong>你是否选择发射武器？</strong></p>","0",""
"","","","","","html-keyboard-response","6","284265","0.0-4.0-0.1","11","1","2022-10-07 06:04:20","ebf9627b049f568eb4bf28942cb89901","219.142.99.8","Mozilla/5.0 (Macintosh; Intel Mac OS X 10_15_7) AppleWebKit/537.36 (KHTML, like Gecko) Chrome/101.0.4951.64 Safari/537.36","Macintosh","Chrome","101.0.4951.64","OS X","10_15_7","null","<div style=""font-size:60px;"">+</div>","null",""
"","","","","","html-button-response","7","300634","0.0-4.0-1.1","11","1","2022-10-07 06:04:20","ebf9627b049f568eb4bf28942cb89901","219.142.99.8","Mozilla/5.0 (Macintosh; Intel Mac OS X 10_15_7) AppleWebKit/537.36 (KHTML, like Gecko) Chrome/101.0.4951.64 Safari/537.36","Macintosh","Chrome","101.0.4951.64","OS X","10_15_7","16366","<p>作为军队的指挥官，你可以选择发射导弹杀死 <strong>5名</strong> 敌国士兵，但会炸毁附近的 <strong>1棵</strong> 敌国树木。</p> <p>树木的照片如下图所示。</p> <p></p> <img src='stimuli/trees/3.png', style='max-width: 30%;'> </img> <p><strong>你是否选择发射武器？</strong></p>","0",""
"","","","","","html-keyboard-response","8","301639","0.0-4.0-0.2","11","1","2022-10-07 06:04:20","ebf9627b049f568eb4bf28942cb89901","219.142.99.8","Mozilla/5.0 (Macintosh; Intel Mac OS X 10_15_7) AppleWebKit/537.36 (KHTML, like Gecko) Chrome/101.0.4951.64 Safari/537.36","Macintosh","Chrome","101.0.4951.64","OS X","10_15_7","null","<div style=""font-size:60px;"">+</div>","null",""
"","","","","","html-button-response","9","308726","0.0-4.0-1.2","11","1","2022-10-07 06:04:20","ebf9627b049f568eb4bf28942cb89901","219.142.99.8","Mozilla/5.0 (Macintosh; Intel Mac OS X 10_15_7) AppleWebKit/537.36 (KHTML, like Gecko) Chrome/101.0.4951.64 Safari/537.36","Macintosh","Chrome","101.0.4951.64","OS X","10_15_7","7084","<p>作为军队的指挥官，你可以选择发射导弹杀死 <strong>4名</strong> 敌国士兵，但会炸毁附近的 <strong>1棵</strong> 敌国树木。</p> <p>树木的照片如下图所示。</p> <p></p> <img src='stimuli/trees/4.png', style='max-width: 30%;'> </img> <p><strong>你是否选择发射武器？</strong></p>","0",""
"","","","","","html-keyboard-response","10","309730","0.0-4.0-0.3","11","1","2022-10-07 06:04:20","ebf9627b049f568eb4bf28942cb89901","219.142.99.8","Mozilla/5.0 (Macintosh; Intel Mac OS X 10_15_7) AppleWebKit/537.36 (KHTML, like Gecko) Chrome/101.0.4951.64 Safari/537.36","Macintosh","Chrome","101.0.4951.64","OS X","10_15_7","null","<div style=""font-size:60px;"">+</div>","null",""
"","","","","","html-button-response","11","313172","0.0-4.0-1.3","11","1","2022-10-07 06:04:20","ebf9627b049f568eb4bf28942cb89901","219.142.99.8","Mozilla/5.0 (Macintosh; Intel Mac OS X 10_15_7) AppleWebKit/537.36 (KHTML, like Gecko) Chrome/101.0.4951.64 Safari/537.36","Macintosh","Chrome","101.0.4951.64","OS X","10_15_7","3438","<p>作为军队的指挥官，你可以选择发射导弹杀死 <strong>10名</strong> 敌国士兵，但会炸毁附近的 <strong>1棵</strong> 敌国树木。</p> <p>树木的照片如下图所示。</p> <p></p> <img src='stimuli/trees/13.png', style='max-width: 30%;'> </img> <p><strong>你是否选择发射武器？</strong></p>","0",""
"","","","","","html-keyboard-response","12","314688","0.0-4.0-0.4","11","1","2022-10-07 06:04:20","ebf9627b049f568eb4bf28942cb89901","219.142.99.8","Mozilla/5.0 (Macintosh; Intel Mac OS X 10_15_7) AppleWebKit/537.36 (KHTML, like Gecko) Chrome/101.0.4951.64 Safari/537.36","Macintosh","Chrome","101.0.4951.64","OS X","10_15_7","null","<div style=""font-size:60px;"">+</div>","null",""
"","","","","","html-button-response","13","321497","0.0-4.0-1.4","11","1","2022-10-07 06:04:20","ebf9627b049f568eb4bf28942cb89901","219.142.99.8","Mozilla/5.0 (Macintosh; Intel Mac OS X 10_15_7) AppleWebKit/537.36 (KHTML, like Gecko) Chrome/101.0.4951.64 Safari/537.36","Macintosh","Chrome","101.0.4951.64","OS X","10_15_7","6806","<p>作为军队的指挥官，你可以选择发射导弹杀死 <strong>9名</strong> 敌国士兵，但会误杀附近的 <strong>1名</strong> 敌国平民。</p> <p>平民照片如下图所示。</p> <p></p> <img src='stimuli/faces/NFF1.jpg', style='max-width: 30%;'> </img> <p><strong>你是否选择发射武器？</strong></p>","0",""
"","","","","","html-keyboard-response","14","322503","0.0-4.0-0.5","11","1","2022-10-07 06:04:20","ebf9627b049f568eb4bf28942cb89901","219.142.99.8","Mozilla/5.0 (Macintosh; Intel Mac OS X 10_15_7) AppleWebKit/537.36 (KHTML, like Gecko) Chrome/101.0.4951.64 Safari/537.36","Macintosh","Chrome","101.0.4951.64","OS X","10_15_7","null","<div style=""font-size:60px;"">+</div>","null",""
"","","","","","html-button-response","15","328681","0.0-4.0-1.5","11","1","2022-10-07 06:04:20","ebf9627b049f568eb4bf28942cb89901","219.142.99.8","Mozilla/5.0 (Macintosh; Intel Mac OS X 10_15_7) AppleWebKit/537.36 (KHTML, like Gecko) Chrome/101.0.4951.64 Safari/537.36","Macintosh","Chrome","101.0.4951.64","OS X","10_15_7","6174","<p>作为军队的指挥官，你可以选择发射导弹杀死 <strong>3名</strong> 敌国士兵，但会误杀附近的 <strong>1名</strong> 敌国平民。</p> <p>平民照片如下图所示。</p> <p></p> <img src='stimuli/faces/NFF6.jpg', style='max-width: 30%;'> </img> <p><strong>你是否选择发射武器？</strong></p>","0",""
"","","","","","html-keyboard-response","16","329685","0.0-4.0-0.6","11","1","2022-10-07 06:04:20","ebf9627b049f568eb4bf28942cb89901","219.142.99.8","Mozilla/5.0 (Macintosh; Intel Mac OS X 10_15_7) AppleWebKit/537.36 (KHTML, like Gecko) Chrome/101.0.4951.64 Safari/537.36","Macintosh","Chrome","101.0.4951.64","OS X","10_15_7","null","<div style=""font-size:60px;"">+</div>","null",""
"","","","","","html-button-response","17","335930","0.0-4.0-1.6","11","1","2022-10-07 06:04:20","ebf9627b049f568eb4bf28942cb89901","219.142.99.8","Mozilla/5.0 (Macintosh; Intel Mac OS X 10_15_7) AppleWebKit/537.36 (KHTML, like Gecko) Chrome/101.0.4951.64 Safari/537.36","Macintosh","Chrome","101.0.4951.64","OS X","10_15_7","6242","<p>作为军队的指挥官，你可以选择发射导弹杀死 <strong>9名</strong> 敌国士兵，但会炸毁附近的 <strong>1棵</strong> 敌国树木。</p> <p>树木的照片如下图所示。</p> <p></p> <img src='stimuli/trees/11.png', style='max-width: 30%;'> </img> <p><strong>你是否选择发射武器？</strong></p>","1",""
"","","","","","html-keyboard-response","18","336937","0.0-4.0-0.7","11","1","2022-10-07 06:04:20","ebf9627b049f568eb4bf28942cb89901","219.142.99.8","Mozilla/5.0 (Macintosh; Intel Mac OS X 10_15_7) AppleWebKit/537.36 (KHTML, like Gecko) Chrome/101.0.4951.64 Safari/537.36","Macintosh","Chrome","101.0.4951.64","OS X","10_15_7","null","<div style=""font-size:60px;"">+</div>","null",""
"","","","","","html-button-response","19","338830","0.0-4.0-1.7","11","1","2022-10-07 06:04:20","ebf9627b049f568eb4bf28942cb89901","219.142.99.8","Mozilla/5.0 (Macintosh; Intel Mac OS X 10_15_7) AppleWebKit/537.36 (KHTML, like Gecko) Chrome/101.0.4951.64 Safari/537.36","Macintosh","Chrome","101.0.4951.64","OS X","10_15_7","1890","<p>作为军队的指挥官，你可以选择发射导弹杀死 <strong>1名</strong> 敌国士兵，但会误杀附近的 <strong>1名</strong> 敌国平民。</p> <p>平民照片如下图所示。</p> <p></p> <img src='stimuli/faces/NFM4.jpg', style='max-width: 30%;'> </img> <p><strong>你是否选择发射武器？</strong></p>","0",""
"","","","","","html-keyboard-response","20","339838","0.0-4.0-0.8","11","1","2022-10-07 06:04:20","ebf9627b049f568eb4bf28942cb89901","219.142.99.8","Mozilla/5.0 (Macintosh; Intel Mac OS X 10_15_7) AppleWebKit/537.36 (KHTML, like Gecko) Chrome/101.0.4951.64 Safari/537.36","Macintosh","Chrome","101.0.4951.64","OS X","10_15_7","null","<div style=""font-size:60px;"">+</div>","null",""
"","","","","","html-button-response","21","344796","0.0-4.0-1.8","11","1","2022-10-07 06:04:20","ebf9627b049f568eb4bf28942cb89901","219.142.99.8","Mozilla/5.0 (Macintosh; Intel Mac OS X 10_15_7) AppleWebKit/537.36 (KHTML, like Gecko) Chrome/101.0.4951.64 Safari/537.36","Macintosh","Chrome","101.0.4951.64","OS X","10_15_7","4955","<p>作为军队的指挥官，你可以选择发射导弹杀死 <strong>9名</strong> 敌国士兵，但会误杀附近的 <strong>1名</strong> 敌国平民。</p> <p>平民照片如下图所示。</p> <p></p> <img src='stimuli/faces/NFF6.jpg', style='max-width: 30%;'> </img> <p><strong>你是否选择发射武器？</strong></p>","0",""
"","","","","","html-keyboard-response","22","345800","0.0-4.0-0.9","11","1","2022-10-07 06:04:20","ebf9627b049f568eb4bf28942cb89901","219.142.99.8","Mozilla/5.0 (Macintosh; Intel Mac OS X 10_15_7) AppleWebKit/537.36 (KHTML, like Gecko) Chrome/101.0.4951.64 Safari/537.36","Macintosh","Chrome","101.0.4951.64","OS X","10_15_7","null","<div style=""font-size:60px;"">+</div>","null",""
"","","","","","html-button-response","23","348244","0.0-4.0-1.9","11","1","2022-10-07 06:04:20","ebf9627b049f568eb4bf28942cb89901","219.142.99.8","Mozilla/5.0 (Macintosh; Intel Mac OS X 10_15_7) AppleWebKit/537.36 (KHTML, like Gecko) Chrome/101.0.4951.64 Safari/537.36","Macintosh","Chrome","101.0.4951.64","OS X","10_15_7","2440","<p>作为军队的指挥官，你可以选择发射导弹杀死 <strong>8名</strong> 敌国士兵，但会炸毁附近的 <strong>1棵</strong> 敌国树木。</p> <p>树木的照片如下图所示。</p> <p></p> <img src='stimuli/trees/12.png', style='max-width: 30%;'> </img> <p><strong>你是否选择发射武器？</strong></p>","0",""
"","","","","","html-keyboard-response","24","349251","0.0-4.0-0.10","11","1","2022-10-07 06:04:20","ebf9627b049f568eb4bf28942cb89901","219.142.99.8","Mozilla/5.0 (Macintosh; Intel Mac OS X 10_15_7) AppleWebKit/537.36 (KHTML, like Gecko) Chrome/101.0.4951.64 Safari/537.36","Macintosh","Chrome","101.0.4951.64","OS X","10_15_7","null","<div style=""font-size:60px;"">+</div>","null",""
"","","","","","html-button-response","25","351792","0.0-4.0-1.10","11","1","2022-10-07 06:04:20","ebf9627b049f568eb4bf28942cb89901","219.142.99.8","Mozilla/5.0 (Macintosh; Intel Mac OS X 10_15_7) AppleWebKit/537.36 (KHTML, like Gecko) Chrome/101.0.4951.64 Safari/537.36","Macintosh","Chrome","101.0.4951.64","OS X","10_15_7","2538","<p>作为军队的指挥官，你可以选择发射导弹杀死 <strong>6名</strong> 敌国士兵，但会炸毁附近的 <strong>1棵</strong> 敌国树木。</p> <p>树木的照片如下图所示。</p> <p></p> <img src='stimuli/trees/3.png', style='max-width: 30%;'> </img> <p><strong>你是否选择发射武器？</strong></p>","0",""
"","","","","","html-keyboard-response","26","352796","0.0-4.0-0.11","11","1","2022-10-07 06:04:20","ebf9627b049f568eb4bf28942cb89901","219.142.99.8","Mozilla/5.0 (Macintosh; Intel Mac OS X 10_15_7) AppleWebKit/537.36 (KHTML, like Gecko) Chrome/101.0.4951.64 Safari/537.36","Macintosh","Chrome","101.0.4951.64","OS X","10_15_7","null","<div style=""font-size:60px;"">+</div>","null",""
"","","","","","html-button-response","27","354958","0.0-4.0-1.11","11","1","2022-10-07 06:04:20","ebf9627b049f568eb4bf28942cb89901","219.142.99.8","Mozilla/5.0 (Macintosh; Intel Mac OS X 10_15_7) AppleWebKit/537.36 (KHTML, like Gecko) Chrome/101.0.4951.64 Safari/537.36","Macintosh","Chrome","101.0.4951.64","OS X","10_15_7","2158","<p>作为军队的指挥官，你可以选择发射导弹杀死 <strong>3名</strong> 敌国士兵，但会炸毁附近的 <strong>1棵</strong> 敌国树木。</p> <p>树木的照片如下图所示。</p> <p></p> <img src='stimuli/trees/15.png', style='max-width: 30%;'> </img> <p><strong>你是否选择发射武器？</strong></p>","1",""
"","","","","","html-keyboard-response","28","355962","0.0-4.0-0.12","11","1","2022-10-07 06:04:20","ebf9627b049f568eb4bf28942cb89901","219.142.99.8","Mozilla/5.0 (Macintosh; Intel Mac OS X 10_15_7) AppleWebKit/537.36 (KHTML, like Gecko) Chrome/101.0.4951.64 Safari/537.36","Macintosh","Chrome","101.0.4951.64","OS X","10_15_7","null","<div style=""font-size:60px;"">+</div>","null",""
"","","","","","html-button-response","29","362722","0.0-4.0-1.12","11","1","2022-10-07 06:04:20","ebf9627b049f568eb4bf28942cb89901","219.142.99.8","Mozilla/5.0 (Macintosh; Intel Mac OS X 10_15_7) AppleWebKit/537.36 (KHTML, like Gecko) Chrome/101.0.4951.64 Safari/537.36","Macintosh","Chrome","101.0.4951.64","OS X","10_15_7","6758","<p>作为军队的指挥官，你可以选择发射导弹杀死 <strong>5名</strong> 敌国士兵，但会误杀附近的 <strong>1名</strong> 敌国平民。</p> <p>平民照片如下图所示。</p> <p></p> <img src='stimuli/faces/NFM8.jpg', style='max-width: 30%;'> </img> <p><strong>你是否选择发射武器？</strong></p>","0",""
"","","","","","html-keyboard-response","30","363725","0.0-4.0-0.13","11","1","2022-10-07 06:04:20","ebf9627b049f568eb4bf28942cb89901","219.142.99.8","Mozilla/5.0 (Macintosh; Intel Mac OS X 10_15_7) AppleWebKit/537.36 (KHTML, like Gecko) Chrome/101.0.4951.64 Safari/537.36","Macintosh","Chrome","101.0.4951.64","OS X","10_15_7","null","<div style=""font-size:60px;"">+</div>","null",""
"","","","","","html-button-response","31","366662","0.0-4.0-1.13","11","1","2022-10-07 06:04:20","ebf9627b049f568eb4bf28942cb89901","219.142.99.8","Mozilla/5.0 (Macintosh; Intel Mac OS X 10_15_7) AppleWebKit/537.36 (KHTML, like Gecko) Chrome/101.0.4951.64 Safari/537.36","Macintosh","Chrome","101.0.4951.64","OS X","10_15_7","2934","<p>作为军队的指挥官，你可以选择发射导弹杀死 <strong>9名</strong> 敌国士兵，但会误杀附近的 <strong>1名</strong> 敌国平民。</p> <p>平民照片如下图所示。</p> <p></p> <img src='stimuli/faces/NFF7.jpg', style='max-width: 30%;'> </img> <p><strong>你是否选择发射武器？</strong></p>","0",""
"","","","","","html-keyboard-response","32","367668","0.0-4.0-0.14","11","1","2022-10-07 06:04:20","ebf9627b049f568eb4bf28942cb89901","219.142.99.8","Mozilla/5.0 (Macintosh; Intel Mac OS X 10_15_7) AppleWebKit/537.36 (KHTML, like Gecko) Chrome/101.0.4951.64 Safari/537.36","Macintosh","Chrome","101.0.4951.64","OS X","10_15_7","null","<div style=""font-size:60px;"">+</div>","null",""
"","","","","","html-button-response","33","369441","0.0-4.0-1.14","11","1","2022-10-07 06:04:20","ebf9627b049f568eb4bf28942cb89901","219.142.99.8","Mozilla/5.0 (Macintosh; Intel Mac OS X 10_15_7) AppleWebKit/537.36 (KHTML, like Gecko) Chrome/101.0.4951.64 Safari/537.36","Macintosh","Chrome","101.0.4951.64","OS X","10_15_7","1768","<p>作为军队的指挥官，你可以选择发射导弹杀死 <strong>8名</strong> 敌国士兵，但会炸毁附近的 <strong>1棵</strong> 敌国树木。</p> <p>树木的照片如下图所示。</p> <p></p> <img src='stimuli/trees/14.png', style='max-width: 30%;'> </img> <p><strong>你是否选择发射武器？</strong></p>","1",""
"","","","","","html-keyboard-response","34","370449","0.0-4.0-0.15","11","1","2022-10-07 06:04:20","ebf9627b049f568eb4bf28942cb89901","219.142.99.8","Mozilla/5.0 (Macintosh; Intel Mac OS X 10_15_7) AppleWebKit/537.36 (KHTML, like Gecko) Chrome/101.0.4951.64 Safari/537.36","Macintosh","Chrome","101.0.4951.64","OS X","10_15_7","null","<div style=""font-size:60px;"">+</div>","null",""
"","","","","","html-button-response","35","372447","0.0-4.0-1.15","11","1","2022-10-07 06:04:20","ebf9627b049f568eb4bf28942cb89901","219.142.99.8","Mozilla/5.0 (Macintosh; Intel Mac OS X 10_15_7) AppleWebKit/537.36 (KHTML, like Gecko) Chrome/101.0.4951.64 Safari/537.36","Macintosh","Chrome","101.0.4951.64","OS X","10_15_7","1993","<p>作为军队的指挥官，你可以选择发射导弹杀死 <strong>6名</strong> 敌国士兵，但会炸毁附近的 <strong>1棵</strong> 敌国树木。</p> <p>树木的照片如下图所示。</p> <p></p> <img src='stimuli/trees/16.png', style='max-width: 30%;'> </img> <p><strong>你是否选择发射武器？</strong></p>","0",""
"","","","","","html-keyboard-response","36","373455","0.0-4.0-0.16","11","1","2022-10-07 06:04:20","ebf9627b049f568eb4bf28942cb89901","219.142.99.8","Mozilla/5.0 (Macintosh; Intel Mac OS X 10_15_7) AppleWebKit/537.36 (KHTML, like Gecko) Chrome/101.0.4951.64 Safari/537.36","Macintosh","Chrome","101.0.4951.64","OS X","10_15_7","null","<div style=""font-size:60px;"">+</div>","null",""
"","","","","","html-button-response","37","375951","0.0-4.0-1.16","11","1","2022-10-07 06:04:20","ebf9627b049f568eb4bf28942cb89901","219.142.99.8","Mozilla/5.0 (Macintosh; Intel Mac OS X 10_15_7) AppleWebKit/537.36 (KHTML, like Gecko) Chrome/101.0.4951.64 Safari/537.36","Macintosh","Chrome","101.0.4951.64","OS X","10_15_7","2493","<p>作为军队的指挥官，你可以选择发射导弹杀死 <strong>5名</strong> 敌国士兵，但会误杀附近的 <strong>1名</strong> 敌国平民。</p> <p>平民照片如下图所示。</p> <p></p> <img src='stimuli/faces/NFF5.jpg', style='max-width: 30%;'> </img> <p><strong>你是否选择发射武器？</strong></p>","0",""
"","","","","","html-keyboard-response","38","376959","0.0-4.0-0.17","11","1","2022-10-07 06:04:20","ebf9627b049f568eb4bf28942cb89901","219.142.99.8","Mozilla/5.0 (Macintosh; Intel Mac OS X 10_15_7) AppleWebKit/537.36 (KHTML, like Gecko) Chrome/101.0.4951.64 Safari/537.36","Macintosh","Chrome","101.0.4951.64","OS X","10_15_7","null","<div style=""font-size:60px;"">+</div>","null",""
"","","","","","html-button-response","39","378268","0.0-4.0-1.17","11","1","2022-10-07 06:04:20","ebf9627b049f568eb4bf28942cb89901","219.142.99.8","Mozilla/5.0 (Macintosh; Intel Mac OS X 10_15_7) AppleWebKit/537.36 (KHTML, like Gecko) Chrome/101.0.4951.64 Safari/537.36","Macintosh","Chrome","101.0.4951.64","OS X","10_15_7","1306","<p>作为军队的指挥官，你可以选择发射导弹杀死 <strong>2名</strong> 敌国士兵，但会误杀附近的 <strong>1名</strong> 敌国平民。</p> <p>平民照片如下图所示。</p> <p></p> <img src='stimuli/faces/NFF4.jpg', style='max-width: 30%;'> </img> <p><strong>你是否选择发射武器？</strong></p>","0",""
"","","","","","html-keyboard-response","40","379276","0.0-4.0-0.18","11","1","2022-10-07 06:04:20","ebf9627b049f568eb4bf28942cb89901","219.142.99.8","Mozilla/5.0 (Macintosh; Intel Mac OS X 10_15_7) AppleWebKit/537.36 (KHTML, like Gecko) Chrome/101.0.4951.64 Safari/537.36","Macintosh","Chrome","101.0.4951.64","OS X","10_15_7","null","<div style=""font-size:60px;"">+</div>","null",""
"","","","","","html-button-response","41","381219","0.0-4.0-1.18","11","1","2022-10-07 06:04:20","ebf9627b049f568eb4bf28942cb89901","219.142.99.8","Mozilla/5.0 (Macintosh; Intel Mac OS X 10_15_7) AppleWebKit/537.36 (KHTML, like Gecko) Chrome/101.0.4951.64 Safari/537.36","Macintosh","Chrome","101.0.4951.64","OS X","10_15_7","1939","<p>作为军队的指挥官，你可以选择发射导弹杀死 <strong>6名</strong> 敌国士兵，但会炸毁附近的 <strong>1棵</strong> 敌国树木。</p> <p>树木的照片如下图所示。</p> <p></p> <img src='stimuli/trees/15.png', style='max-width: 30%;'> </img> <p><strong>你是否选择发射武器？</strong></p>","0",""
"","","","","","html-keyboard-response","42","382227","0.0-4.0-0.19","11","1","2022-10-07 06:04:20","ebf9627b049f568eb4bf28942cb89901","219.142.99.8","Mozilla/5.0 (Macintosh; Intel Mac OS X 10_15_7) AppleWebKit/537.36 (KHTML, like Gecko) Chrome/101.0.4951.64 Safari/537.36","Macintosh","Chrome","101.0.4951.64","OS X","10_15_7","null","<div style=""font-size:60px;"">+</div>","null",""
"","","","","","html-button-response","43","385124","0.0-4.0-1.19","11","1","2022-10-07 06:04:20","ebf9627b049f568eb4bf28942cb89901","219.142.99.8","Mozilla/5.0 (Macintosh; Intel Mac OS X 10_15_7) AppleWebKit/537.36 (KHTML, like Gecko) Chrome/101.0.4951.64 Safari/537.36","Macintosh","Chrome","101.0.4951.64","OS X","10_15_7","2894","<p>作为军队的指挥官，你可以选择发射导弹杀死 <strong>2名</strong> 敌国士兵，但会误杀附近的 <strong>1名</strong> 敌国平民。</p> <p>平民照片如下图所示。</p> <p></p> <img src='stimuli/faces/NFF3.jpg', style='max-width: 30%;'> </img> <p><strong>你是否选择发射武器？</strong></p>","0",""
"","","","","","html-keyboard-response","44","386129","0.0-4.0-0.20","11","1","2022-10-07 06:04:20","ebf9627b049f568eb4bf28942cb89901","219.142.99.8","Mozilla/5.0 (Macintosh; Intel Mac OS X 10_15_7) AppleWebKit/537.36 (KHTML, like Gecko) Chrome/101.0.4951.64 Safari/537.36","Macintosh","Chrome","101.0.4951.64","OS X","10_15_7","null","<div style=""font-size:60px;"">+</div>","null",""
"","","","","","html-button-response","45","387545","0.0-4.0-1.20","11","1","2022-10-07 06:04:20","ebf9627b049f568eb4bf28942cb89901","219.142.99.8","Mozilla/5.0 (Macintosh; Intel Mac OS X 10_15_7) AppleWebKit/537.36 (KHTML, like Gecko) Chrome/101.0.4951.64 Safari/537.36","Macintosh","Chrome","101.0.4951.64","OS X","10_15_7","1413","<p>作为军队的指挥官，你可以选择发射导弹杀死 <strong>9名</strong> 敌国士兵，但会误杀附近的 <strong>1名</strong> 敌国平民。</p> <p>平民照片如下图所示。</p> <p></p> <img src='stimuli/faces/NFM5.jpg', style='max-width: 30%;'> </img> <p><strong>你是否选择发射武器？</strong></p>","0",""
"","","","","","html-keyboard-response","46","388550","0.0-4.0-0.21","11","1","2022-10-07 06:04:20","ebf9627b049f568eb4bf28942cb89901","219.142.99.8","Mozilla/5.0 (Macintosh; Intel Mac OS X 10_15_7) AppleWebKit/537.36 (KHTML, like Gecko) Chrome/101.0.4951.64 Safari/537.36","Macintosh","Chrome","101.0.4951.64","OS X","10_15_7","null","<div style=""font-size:60px;"">+</div>","null",""
"","","","","","html-button-response","47","390257","0.0-4.0-1.21","11","1","2022-10-07 06:04:20","ebf9627b049f568eb4bf28942cb89901","219.142.99.8","Mozilla/5.0 (Macintosh; Intel Mac OS X 10_15_7) AppleWebKit/537.36 (KHTML, like Gecko) Chrome/101.0.4951.64 Safari/537.36","Macintosh","Chrome","101.0.4951.64","OS X","10_15_7","1703","<p>作为军队的指挥官，你可以选择发射导弹杀死 <strong>5名</strong> 敌国士兵，但会误杀附近的 <strong>1名</strong> 敌国平民。</p> <p>平民照片如下图所示。</p> <p></p> <img src='stimuli/faces/NFM6.jpg', style='max-width: 30%;'> </img> <p><strong>你是否选择发射武器？</strong></p>","0",""
"","","","","","html-keyboard-response","48","391265","0.0-4.0-0.22","11","1","2022-10-07 06:04:20","ebf9627b049f568eb4bf28942cb89901","219.142.99.8","Mozilla/5.0 (Macintosh; Intel Mac OS X 10_15_7) AppleWebKit/537.36 (KHTML, like Gecko) Chrome/101.0.4951.64 Safari/537.36","Macintosh","Chrome","101.0.4951.64","OS X","10_15_7","null","<div style=""font-size:60px;"">+</div>","null",""
"","","","","","html-button-response","49","393615","0.0-4.0-1.22","11","1","2022-10-07 06:04:20","ebf9627b049f568eb4bf28942cb89901","219.142.99.8","Mozilla/5.0 (Macintosh; Intel Mac OS X 10_15_7) AppleWebKit/537.36 (KHTML, like Gecko) Chrome/101.0.4951.64 Safari/537.36","Macintosh","Chrome","101.0.4951.64","OS X","10_15_7","2347","<p>作为军队的指挥官，你可以选择发射导弹杀死 <strong>3名</strong> 敌国士兵，但会炸毁附近的 <strong>1棵</strong> 敌国树木。</p> <p>树木的照片如下图所示。</p> <p></p> <img src='stimuli/trees/14.png', style='max-width: 30%;'> </img> <p><strong>你是否选择发射武器？</strong></p>","1",""
"","","","","","html-keyboard-response","50","394619","0.0-4.0-0.23","11","1","2022-10-07 06:04:20","ebf9627b049f568eb4bf28942cb89901","219.142.99.8","Mozilla/5.0 (Macintosh; Intel Mac OS X 10_15_7) AppleWebKit/537.36 (KHTML, like Gecko) Chrome/101.0.4951.64 Safari/537.36","Macintosh","Chrome","101.0.4951.64","OS X","10_15_7","null","<div style=""font-size:60px;"">+</div>","null",""
"","","","","","html-button-response","51","399534","0.0-4.0-1.23","11","1","2022-10-07 06:04:20","ebf9627b049f568eb4bf28942cb89901","219.142.99.8","Mozilla/5.0 (Macintosh; Intel Mac OS X 10_15_7) AppleWebKit/537.36 (KHTML, like Gecko) Chrome/101.0.4951.64 Safari/537.36","Macintosh","Chrome","101.0.4951.64","OS X","10_15_7","4911","<p>作为军队的指挥官，你可以选择发射导弹杀死 <strong>6名</strong> 敌国士兵，但会误杀附近的 <strong>1名</strong> 敌国平民。</p> <p>平民照片如下图所示。</p> <p></p> <img src='stimuli/faces/NFM7.jpg', style='max-width: 30%;'> </img> <p><strong>你是否选择发射武器？</strong></p>","0",""
"","","","","","html-keyboard-response","52","400542","0.0-4.0-0.24","11","1","2022-10-07 06:04:20","ebf9627b049f568eb4bf28942cb89901","219.142.99.8","Mozilla/5.0 (Macintosh; Intel Mac OS X 10_15_7) AppleWebKit/537.36 (KHTML, like Gecko) Chrome/101.0.4951.64 Safari/537.36","Macintosh","Chrome","101.0.4951.64","OS X","10_15_7","null","<div style=""font-size:60px;"">+</div>","null",""
"","","","","","html-button-response","53","402856","0.0-4.0-1.24","11","1","2022-10-07 06:04:20","ebf9627b049f568eb4bf28942cb89901","219.142.99.8","Mozilla/5.0 (Macintosh; Intel Mac OS X 10_15_7) AppleWebKit/537.36 (KHTML, like Gecko) Chrome/101.0.4951.64 Safari/537.36","Macintosh","Chrome","101.0.4951.64","OS X","10_15_7","2308","<p>作为军队的指挥官，你可以选择发射导弹杀死 <strong>2名</strong> 敌国士兵，但会炸毁附近的 <strong>1棵</strong> 敌国树木。</p> <p>树木的照片如下图所示。</p> <p></p> <img src='stimuli/trees/8.png', style='max-width: 30%;'> </img> <p><strong>你是否选择发射武器？</strong></p>","1",""
"","","","","","html-keyboard-response","54","403863","0.0-4.0-0.25","11","1","2022-10-07 06:04:20","ebf9627b049f568eb4bf28942cb89901","219.142.99.8","Mozilla/5.0 (Macintosh; Intel Mac OS X 10_15_7) AppleWebKit/537.36 (KHTML, like Gecko) Chrome/101.0.4951.64 Safari/537.36","Macintosh","Chrome","101.0.4951.64","OS X","10_15_7","null","<div style=""font-size:60px;"">+</div>","null",""
"","","","","","html-button-response","55","405613","0.0-4.0-1.25","11","1","2022-10-07 06:04:20","ebf9627b049f568eb4bf28942cb89901","219.142.99.8","Mozilla/5.0 (Macintosh; Intel Mac OS X 10_15_7) AppleWebKit/537.36 (KHTML, like Gecko) Chrome/101.0.4951.64 Safari/537.36","Macintosh","Chrome","101.0.4951.64","OS X","10_15_7","1746","<p>作为军队的指挥官，你可以选择发射导弹杀死 <strong>7名</strong> 敌国士兵，但会误杀附近的 <strong>1名</strong> 敌国平民。</p> <p>平民照片如下图所示。</p> <p></p> <img src='stimuli/faces/NFF4.jpg', style='max-width: 30%;'> </img> <p><strong>你是否选择发射武器？</strong></p>","0",""
"","","","","","html-keyboard-response","56","406620","0.0-4.0-0.26","11","1","2022-10-07 06:04:20","ebf9627b049f568eb4bf28942cb89901","219.142.99.8","Mozilla/5.0 (Macintosh; Intel Mac OS X 10_15_7) AppleWebKit/537.36 (KHTML, like Gecko) Chrome/101.0.4951.64 Safari/537.36","Macintosh","Chrome","101.0.4951.64","OS X","10_15_7","null","<div style=""font-size:60px;"">+</div>","null",""
"","","","","","html-button-response","57","408244","0.0-4.0-1.26","11","1","2022-10-07 06:04:20","ebf9627b049f568eb4bf28942cb89901","219.142.99.8","Mozilla/5.0 (Macintosh; Intel Mac OS X 10_15_7) AppleWebKit/537.36 (KHTML, like Gecko) Chrome/101.0.4951.64 Safari/537.36","Macintosh","Chrome","101.0.4951.64","OS X","10_15_7","1620","<p>作为军队的指挥官，你可以选择发射导弹杀死 <strong>6名</strong> 敌国士兵，但会炸毁附近的 <strong>1棵</strong> 敌国树木。</p> <p>树木的照片如下图所示。</p> <p></p> <img src='stimuli/trees/1.png', style='max-width: 30%;'> </img> <p><strong>你是否选择发射武器？</strong></p>","0",""
"","","","","","html-keyboard-response","58","409253","0.0-4.0-0.27","11","1","2022-10-07 06:04:20","ebf9627b049f568eb4bf28942cb89901","219.142.99.8","Mozilla/5.0 (Macintosh; Intel Mac OS X 10_15_7) AppleWebKit/537.36 (KHTML, like Gecko) Chrome/101.0.4951.64 Safari/537.36","Macintosh","Chrome","101.0.4951.64","OS X","10_15_7","null","<div style=""font-size:60px;"">+</div>","null",""
"","","","","","html-button-response","59","412850","0.0-4.0-1.27","11","1","2022-10-07 06:04:20","ebf9627b049f568eb4bf28942cb89901","219.142.99.8","Mozilla/5.0 (Macintosh; Intel Mac OS X 10_15_7) AppleWebKit/537.36 (KHTML, like Gecko) Chrome/101.0.4951.64 Safari/537.36","Macintosh","Chrome","101.0.4951.64","OS X","10_15_7","3593","<p>作为军队的指挥官，你可以选择发射导弹杀死 <strong>9名</strong> 敌国士兵，但会炸毁附近的 <strong>1棵</strong> 敌国树木。</p> <p>树木的照片如下图所示。</p> <p></p> <img src='stimuli/trees/2.png', style='max-width: 30%;'> </img> <p><strong>你是否选择发射武器？</strong></p>","0",""
"","","","","","html-keyboard-response","60","413854","0.0-4.0-0.28","11","1","2022-10-07 06:04:20","ebf9627b049f568eb4bf28942cb89901","219.142.99.8","Mozilla/5.0 (Macintosh; Intel Mac OS X 10_15_7) AppleWebKit/537.36 (KHTML, like Gecko) Chrome/101.0.4951.64 Safari/537.36","Macintosh","Chrome","101.0.4951.64","OS X","10_15_7","null","<div style=""font-size:60px;"">+</div>","null",""
"","","","","","html-button-response","61","416018","0.0-4.0-1.28","11","1","2022-10-07 06:04:20","ebf9627b049f568eb4bf28942cb89901","219.142.99.8","Mozilla/5.0 (Macintosh; Intel Mac OS X 10_15_7) AppleWebKit/537.36 (KHTML, like Gecko) Chrome/101.0.4951.64 Safari/537.36","Macintosh","Chrome","101.0.4951.64","OS X","10_15_7","2159","<p>作为军队的指挥官，你可以选择发射导弹杀死 <strong>6名</strong> 敌国士兵，但会炸毁附近的 <strong>1棵</strong> 敌国树木。</p> <p>树木的照片如下图所示。</p> <p></p> <img src='stimuli/trees/5.png', style='max-width: 30%;'> </img> <p><strong>你是否选择发射武器？</strong></p>","1",""
"","","","","","html-keyboard-response","62","417027","0.0-4.0-0.29","11","1","2022-10-07 06:04:20","ebf9627b049f568eb4bf28942cb89901","219.142.99.8","Mozilla/5.0 (Macintosh; Intel Mac OS X 10_15_7) AppleWebKit/537.36 (KHTML, like Gecko) Chrome/101.0.4951.64 Safari/537.36","Macintosh","Chrome","101.0.4951.64","OS X","10_15_7","null","<div style=""font-size:60px;"">+</div>","null",""
"","","","","","html-button-response","63","418900","0.0-4.0-1.29","11","1","2022-10-07 06:04:20","ebf9627b049f568eb4bf28942cb89901","219.142.99.8","Mozilla/5.0 (Macintosh; Intel Mac OS X 10_15_7) AppleWebKit/537.36 (KHTML, like Gecko) Chrome/101.0.4951.64 Safari/537.36","Macintosh","Chrome","101.0.4951.64","OS X","10_15_7","1869","<p>作为军队的指挥官，你可以选择发射导弹杀死 <strong>2名</strong> 敌国士兵，但会炸毁附近的 <strong>1棵</strong> 敌国树木。</p> <p>树木的照片如下图所示。</p> <p></p> <img src='stimuli/trees/5.png', style='max-width: 30%;'> </img> <p><strong>你是否选择发射武器？</strong></p>","1",""
"","","","","","html-keyboard-response","64","419906","0.0-4.0-0.30","11","1","2022-10-07 06:04:20","ebf9627b049f568eb4bf28942cb89901","219.142.99.8","Mozilla/5.0 (Macintosh; Intel Mac OS X 10_15_7) AppleWebKit/537.36 (KHTML, like Gecko) Chrome/101.0.4951.64 Safari/537.36","Macintosh","Chrome","101.0.4951.64","OS X","10_15_7","null","<div style=""font-size:60px;"">+</div>","null",""
"","","","","","html-button-response","65","421267","0.0-4.0-1.30","11","1","2022-10-07 06:04:20","ebf9627b049f568eb4bf28942cb89901","219.142.99.8","Mozilla/5.0 (Macintosh; Intel Mac OS X 10_15_7) AppleWebKit/537.36 (KHTML, like Gecko) Chrome/101.0.4951.64 Safari/537.36","Macintosh","Chrome","101.0.4951.64","OS X","10_15_7","1356","<p>作为军队的指挥官，你可以选择发射导弹杀死 <strong>9名</strong> 敌国士兵，但会误杀附近的 <strong>1名</strong> 敌国平民。</p> <p>平民照片如下图所示。</p> <p></p> <img src='stimuli/faces/NFF8.jpg', style='max-width: 30%;'> </img> <p><strong>你是否选择发射武器？</strong></p>","0",""
"","","","","","html-keyboard-response","66","422277","0.0-4.0-0.31","11","1","2022-10-07 06:04:20","ebf9627b049f568eb4bf28942cb89901","219.142.99.8","Mozilla/5.0 (Macintosh; Intel Mac OS X 10_15_7) AppleWebKit/537.36 (KHTML, like Gecko) Chrome/101.0.4951.64 Safari/537.36","Macintosh","Chrome","101.0.4951.64","OS X","10_15_7","null","<div style=""font-size:60px;"">+</div>","null",""
"","","","","","html-button-response","67","423434","0.0-4.0-1.31","11","1","2022-10-07 06:04:20","ebf9627b049f568eb4bf28942cb89901","219.142.99.8","Mozilla/5.0 (Macintosh; Intel Mac OS X 10_15_7) AppleWebKit/537.36 (KHTML, like Gecko) Chrome/101.0.4951.64 Safari/537.36","Macintosh","Chrome","101.0.4951.64","OS X","10_15_7","1152","<p>作为军队的指挥官，你可以选择发射导弹杀死 <strong>6名</strong> 敌国士兵，但会误杀附近的 <strong>1名</strong> 敌国平民。</p> <p>平民照片如下图所示。</p> <p></p> <img src='stimuli/faces/NFM4.jpg', style='max-width: 30%;'> </img> <p><strong>你是否选择发射武器？</strong></p>","0",""
"","","","","","html-keyboard-response","68","424443","0.0-4.0-0.32","11","1","2022-10-07 06:04:20","ebf9627b049f568eb4bf28942cb89901","219.142.99.8","Mozilla/5.0 (Macintosh; Intel Mac OS X 10_15_7) AppleWebKit/537.36 (KHTML, like Gecko) Chrome/101.0.4951.64 Safari/537.36","Macintosh","Chrome","101.0.4951.64","OS X","10_15_7","null","<div style=""font-size:60px;"">+</div>","null",""
"","","","","","html-button-response","69","425858","0.0-4.0-1.32","11","1","2022-10-07 06:04:20","ebf9627b049f568eb4bf28942cb89901","219.142.99.8","Mozilla/5.0 (Macintosh; Intel Mac OS X 10_15_7) AppleWebKit/537.36 (KHTML, like Gecko) Chrome/101.0.4951.64 Safari/537.36","Macintosh","Chrome","101.0.4951.64","OS X","10_15_7","1410","<p>作为军队的指挥官，你可以选择发射导弹杀死 <strong>2名</strong> 敌国士兵，但会误杀附近的 <strong>1名</strong> 敌国平民。</p> <p>平民照片如下图所示。</p> <p></p> <img src='stimuli/faces/NFM3.jpg', style='max-width: 30%;'> </img> <p><strong>你是否选择发射武器？</strong></p>","0",""
"","","","","","html-keyboard-response","70","426864","0.0-4.0-0.33","11","1","2022-10-07 06:04:20","ebf9627b049f568eb4bf28942cb89901","219.142.99.8","Mozilla/5.0 (Macintosh; Intel Mac OS X 10_15_7) AppleWebKit/537.36 (KHTML, like Gecko) Chrome/101.0.4951.64 Safari/537.36","Macintosh","Chrome","101.0.4951.64","OS X","10_15_7","null","<div style=""font-size:60px;"">+</div>","null",""
"","","","","","html-button-response","71","428736","0.0-4.0-1.33","11","1","2022-10-07 06:04:20","ebf9627b049f568eb4bf28942cb89901","219.142.99.8","Mozilla/5.0 (Macintosh; Intel Mac OS X 10_15_7) AppleWebKit/537.36 (KHTML, like Gecko) Chrome/101.0.4951.64 Safari/537.36","Macintosh","Chrome","101.0.4951.64","OS X","10_15_7","1866","<p>作为军队的指挥官，你可以选择发射导弹杀死 <strong>5名</strong> 敌国士兵，但会炸毁附近的 <strong>1棵</strong> 敌国树木。</p> <p>树木的照片如下图所示。</p> <p></p> <img src='stimuli/trees/10.png', style='max-width: 30%;'> </img> <p><strong>你是否选择发射武器？</strong></p>","0",""
"","","","","","html-keyboard-response","72","429743","0.0-4.0-0.34","11","1","2022-10-07 06:04:20","ebf9627b049f568eb4bf28942cb89901","219.142.99.8","Mozilla/5.0 (Macintosh; Intel Mac OS X 10_15_7) AppleWebKit/537.36 (KHTML, like Gecko) Chrome/101.0.4951.64 Safari/537.36","Macintosh","Chrome","101.0.4951.64","OS X","10_15_7","null","<div style=""font-size:60px;"">+</div>","null",""
"","","","","","html-button-response","73","430725","0.0-4.0-1.34","11","1","2022-10-07 06:04:20","ebf9627b049f568eb4bf28942cb89901","219.142.99.8","Mozilla/5.0 (Macintosh; Intel Mac OS X 10_15_7) AppleWebKit/537.36 (KHTML, like Gecko) Chrome/101.0.4951.64 Safari/537.36","Macintosh","Chrome","101.0.4951.64","OS X","10_15_7","977","<p>作为军队的指挥官，你可以选择发射导弹杀死 <strong>10名</strong> 敌国士兵，但会误杀附近的 <strong>1名</strong> 敌国平民。</p> <p>平民照片如下图所示。</p> <p></p> <img src='stimuli/faces/NFF2.jpg', style='max-width: 30%;'> </img> <p><strong>你是否选择发射武器？</strong></p>","0",""
"","","","","","html-keyboard-response","74","431729","0.0-4.0-0.35","11","1","2022-10-07 06:04:20","ebf9627b049f568eb4bf28942cb89901","219.142.99.8","Mozilla/5.0 (Macintosh; Intel Mac OS X 10_15_7) AppleWebKit/537.36 (KHTML, like Gecko) Chrome/101.0.4951.64 Safari/537.36","Macintosh","Chrome","101.0.4951.64","OS X","10_15_7","null","<div style=""font-size:60px;"">+</div>","null",""
"","","","","","html-button-response","75","433332","0.0-4.0-1.35","11","1","2022-10-07 06:04:20","ebf9627b049f568eb4bf28942cb89901","219.142.99.8","Mozilla/5.0 (Macintosh; Intel Mac OS X 10_15_7) AppleWebKit/537.36 (KHTML, like Gecko) Chrome/101.0.4951.64 Safari/537.36","Macintosh","Chrome","101.0.4951.64","OS X","10_15_7","1598","<p>作为军队的指挥官，你可以选择发射导弹杀死 <strong>9名</strong> 敌国士兵，但会误杀附近的 <strong>1名</strong> 敌国平民。</p> <p>平民照片如下图所示。</p> <p></p> <img src='stimuli/faces/NFM8.jpg', style='max-width: 30%;'> </img> <p><strong>你是否选择发射武器？</strong></p>","0",""
"","","","","","html-keyboard-response","76","434340","0.0-4.0-0.36","11","1","2022-10-07 06:04:20","ebf9627b049f568eb4bf28942cb89901","219.142.99.8","Mozilla/5.0 (Macintosh; Intel Mac OS X 10_15_7) AppleWebKit/537.36 (KHTML, like Gecko) Chrome/101.0.4951.64 Safari/537.36","Macintosh","Chrome","101.0.4951.64","OS X","10_15_7","null","<div style=""font-size:60px;"">+</div>","null",""
"","","","","","html-button-response","77","435966","0.0-4.0-1.36","11","1","2022-10-07 06:04:20","ebf9627b049f568eb4bf28942cb89901","219.142.99.8","Mozilla/5.0 (Macintosh; Intel Mac OS X 10_15_7) AppleWebKit/537.36 (KHTML, like Gecko) Chrome/101.0.4951.64 Safari/537.36","Macintosh","Chrome","101.0.4951.64","OS X","10_15_7","1621","<p>作为军队的指挥官，你可以选择发射导弹杀死 <strong>10名</strong> 敌国士兵，但会误杀附近的 <strong>1名</strong> 敌国平民。</p> <p>平民照片如下图所示。</p> <p></p> <img src='stimuli/faces/NFM1.jpg', style='max-width: 30%;'> </img> <p><strong>你是否选择发射武器？</strong></p>","0",""
"","","","","","html-keyboard-response","78","436971","0.0-4.0-0.37","11","1","2022-10-07 06:04:20","ebf9627b049f568eb4bf28942cb89901","219.142.99.8","Mozilla/5.0 (Macintosh; Intel Mac OS X 10_15_7) AppleWebKit/537.36 (KHTML, like Gecko) Chrome/101.0.4951.64 Safari/537.36","Macintosh","Chrome","101.0.4951.64","OS X","10_15_7","null","<div style=""font-size:60px;"">+</div>","null",""
"","","","","","html-button-response","79","438471","0.0-4.0-1.37","11","1","2022-10-07 06:04:20","ebf9627b049f568eb4bf28942cb89901","219.142.99.8","Mozilla/5.0 (Macintosh; Intel Mac OS X 10_15_7) AppleWebKit/537.36 (KHTML, like Gecko) Chrome/101.0.4951.64 Safari/537.36","Macintosh","Chrome","101.0.4951.64","OS X","10_15_7","1494","<p>作为军队的指挥官，你可以选择发射导弹杀死 <strong>10名</strong> 敌国士兵，但会误杀附近的 <strong>1名</strong> 敌国平民。</p> <p>平民照片如下图所示。</p> <p></p> <img src='stimuli/faces/NFM2.jpg', style='max-width: 30%;'> </img> <p><strong>你是否选择发射武器？</strong></p>","0",""
"","","","","","html-keyboard-response","80","439480","0.0-4.0-0.38","11","1","2022-10-07 06:04:20","ebf9627b049f568eb4bf28942cb89901","219.142.99.8","Mozilla/5.0 (Macintosh; Intel Mac OS X 10_15_7) AppleWebKit/537.36 (KHTML, like Gecko) Chrome/101.0.4951.64 Safari/537.36","Macintosh","Chrome","101.0.4951.64","OS X","10_15_7","null","<div style=""font-size:60px;"">+</div>","null",""
"","","","","","html-button-response","81","440922","0.0-4.0-1.38","11","1","2022-10-07 06:04:20","ebf9627b049f568eb4bf28942cb89901","219.142.99.8","Mozilla/5.0 (Macintosh; Intel Mac OS X 10_15_7) AppleWebKit/537.36 (KHTML, like Gecko) Chrome/101.0.4951.64 Safari/537.36","Macintosh","Chrome","101.0.4951.64","OS X","10_15_7","1437","<p>作为军队的指挥官，你可以选择发射导弹杀死 <strong>9名</strong> 敌国士兵，但会炸毁附近的 <strong>1棵</strong> 敌国树木。</p> <p>树木的照片如下图所示。</p> <p></p> <img src='stimuli/trees/8.png', style='max-width: 30%;'> </img> <p><strong>你是否选择发射武器？</strong></p>","0",""
"","","","","","html-keyboard-response","82","441932","0.0-4.0-0.39","11","1","2022-10-07 06:04:20","ebf9627b049f568eb4bf28942cb89901","219.142.99.8","Mozilla/5.0 (Macintosh; Intel Mac OS X 10_15_7) AppleWebKit/537.36 (KHTML, like Gecko) Chrome/101.0.4951.64 Safari/537.36","Macintosh","Chrome","101.0.4951.64","OS X","10_15_7","null","<div style=""font-size:60px;"">+</div>","null",""
"","","","","","html-button-response","83","443449","0.0-4.0-1.39","11","1","2022-10-07 06:04:20","ebf9627b049f568eb4bf28942cb89901","219.142.99.8","Mozilla/5.0 (Macintosh; Intel Mac OS X 10_15_7) AppleWebKit/537.36 (KHTML, like Gecko) Chrome/101.0.4951.64 Safari/537.36","Macintosh","Chrome","101.0.4951.64","OS X","10_15_7","1510","<p>作为军队的指挥官，你可以选择发射导弹杀死 <strong>3名</strong> 敌国士兵，但会炸毁附近的 <strong>1棵</strong> 敌国树木。</p> <p>树木的照片如下图所示。</p> <p></p> <img src='stimuli/trees/2.png', style='max-width: 30%;'> </img> <p><strong>你是否选择发射武器？</strong></p>","0",""
"","","","","","html-keyboard-response","84","444457","0.0-4.0-0.40","11","1","2022-10-07 06:04:20","ebf9627b049f568eb4bf28942cb89901","219.142.99.8","Mozilla/5.0 (Macintosh; Intel Mac OS X 10_15_7) AppleWebKit/537.36 (KHTML, like Gecko) Chrome/101.0.4951.64 Safari/537.36","Macintosh","Chrome","101.0.4951.64","OS X","10_15_7","null","<div style=""font-size:60px;"">+</div>","null",""
"","","","","","html-button-response","85","446133","0.0-4.0-1.40","11","1","2022-10-07 06:04:20","ebf9627b049f568eb4bf28942cb89901","219.142.99.8","Mozilla/5.0 (Macintosh; Intel Mac OS X 10_15_7) AppleWebKit/537.36 (KHTML, like Gecko) Chrome/101.0.4951.64 Safari/537.36","Macintosh","Chrome","101.0.4951.64","OS X","10_15_7","1670","<p>作为军队的指挥官，你可以选择发射导弹杀死 <strong>5名</strong> 敌国士兵，但会炸毁附近的 <strong>1棵</strong> 敌国树木。</p> <p>树木的照片如下图所示。</p> <p></p> <img src='stimuli/trees/1.png', style='max-width: 30%;'> </img> <p><strong>你是否选择发射武器？</strong></p>","0",""
"","","","","","html-keyboard-response","86","447142","0.0-4.0-0.41","11","1","2022-10-07 06:04:20","ebf9627b049f568eb4bf28942cb89901","219.142.99.8","Mozilla/5.0 (Macintosh; Intel Mac OS X 10_15_7) AppleWebKit/537.36 (KHTML, like Gecko) Chrome/101.0.4951.64 Safari/537.36","Macintosh","Chrome","101.0.4951.64","OS X","10_15_7","null","<div style=""font-size:60px;"">+</div>","null",""
"","","","","","html-button-response","87","448643","0.0-4.0-1.41","11","1","2022-10-07 06:04:20","ebf9627b049f568eb4bf28942cb89901","219.142.99.8","Mozilla/5.0 (Macintosh; Intel Mac OS X 10_15_7) AppleWebKit/537.36 (KHTML, like Gecko) Chrome/101.0.4951.64 Safari/537.36","Macintosh","Chrome","101.0.4951.64","OS X","10_15_7","1495","<p>作为军队的指挥官，你可以选择发射导弹杀死 <strong>1名</strong> 敌国士兵，但会炸毁附近的 <strong>1棵</strong> 敌国树木。</p> <p>树木的照片如下图所示。</p> <p></p> <img src='stimuli/trees/12.png', style='max-width: 30%;'> </img> <p><strong>你是否选择发射武器？</strong></p>","0",""
"","","","","","html-keyboard-response","88","449648","0.0-4.0-0.42","11","1","2022-10-07 06:04:20","ebf9627b049f568eb4bf28942cb89901","219.142.99.8","Mozilla/5.0 (Macintosh; Intel Mac OS X 10_15_7) AppleWebKit/537.36 (KHTML, like Gecko) Chrome/101.0.4951.64 Safari/537.36","Macintosh","Chrome","101.0.4951.64","OS X","10_15_7","null","<div style=""font-size:60px;"">+</div>","null",""
"","","","","","html-button-response","89","451330","0.0-4.0-1.42","11","1","2022-10-07 06:04:20","ebf9627b049f568eb4bf28942cb89901","219.142.99.8","Mozilla/5.0 (Macintosh; Intel Mac OS X 10_15_7) AppleWebKit/537.36 (KHTML, like Gecko) Chrome/101.0.4951.64 Safari/537.36","Macintosh","Chrome","101.0.4951.64","OS X","10_15_7","1675","<p>作为军队的指挥官，你可以选择发射导弹杀死 <strong>1名</strong> 敌国士兵，但会炸毁附近的 <strong>1棵</strong> 敌国树木。</p> <p>树木的照片如下图所示。</p> <p></p> <img src='stimuli/trees/7.png', style='max-width: 30%;'> </img> <p><strong>你是否选择发射武器？</strong></p>","0",""
"","","","","","html-keyboard-response","90","452337","0.0-4.0-0.43","11","1","2022-10-07 06:04:20","ebf9627b049f568eb4bf28942cb89901","219.142.99.8","Mozilla/5.0 (Macintosh; Intel Mac OS X 10_15_7) AppleWebKit/537.36 (KHTML, like Gecko) Chrome/101.0.4951.64 Safari/537.36","Macintosh","Chrome","101.0.4951.64","OS X","10_15_7","null","<div style=""font-size:60px;"">+</div>","null",""
"","","","","","html-button-response","91","455507","0.0-4.0-1.43","11","1","2022-10-07 06:04:20","ebf9627b049f568eb4bf28942cb89901","219.142.99.8","Mozilla/5.0 (Macintosh; Intel Mac OS X 10_15_7) AppleWebKit/537.36 (KHTML, like Gecko) Chrome/101.0.4951.64 Safari/537.36","Macintosh","Chrome","101.0.4951.64","OS X","10_15_7","3163","<p>作为军队的指挥官，你可以选择发射导弹杀死 <strong>10名</strong> 敌国士兵，但会误杀附近的 <strong>1名</strong> 敌国平民。</p> <p>平民照片如下图所示。</p> <p></p> <img src='stimuli/faces/NFM3.jpg', style='max-width: 30%;'> </img> <p><strong>你是否选择发射武器？</strong></p>","0",""
"","","","","","html-keyboard-response","92","456515","0.0-4.0-0.44","11","1","2022-10-07 06:04:20","ebf9627b049f568eb4bf28942cb89901","219.142.99.8","Mozilla/5.0 (Macintosh; Intel Mac OS X 10_15_7) AppleWebKit/537.36 (KHTML, like Gecko) Chrome/101.0.4951.64 Safari/537.36","Macintosh","Chrome","101.0.4951.64","OS X","10_15_7","null","<div style=""font-size:60px;"">+</div>","null",""
"","","","","","html-button-response","93","458340","0.0-4.0-1.44","11","1","2022-10-07 06:04:20","ebf9627b049f568eb4bf28942cb89901","219.142.99.8","Mozilla/5.0 (Macintosh; Intel Mac OS X 10_15_7) AppleWebKit/537.36 (KHTML, like Gecko) Chrome/101.0.4951.64 Safari/537.36","Macintosh","Chrome","101.0.4951.64","OS X","10_15_7","1819","<p>作为军队的指挥官，你可以选择发射导弹杀死 <strong>1名</strong> 敌国士兵，但会误杀附近的 <strong>1名</strong> 敌国平民。</p> <p>平民照片如下图所示。</p> <p></p> <img src='stimuli/faces/NFM5.jpg', style='max-width: 30%;'> </img> <p><strong>你是否选择发射武器？</strong></p>","0",""
"","","","","","html-keyboard-response","94","459348","0.0-4.0-0.45","11","1","2022-10-07 06:04:20","ebf9627b049f568eb4bf28942cb89901","219.142.99.8","Mozilla/5.0 (Macintosh; Intel Mac OS X 10_15_7) AppleWebKit/537.36 (KHTML, like Gecko) Chrome/101.0.4951.64 Safari/537.36","Macintosh","Chrome","101.0.4951.64","OS X","10_15_7","null","<div style=""font-size:60px;"">+</div>","null",""
"","","","","","html-button-response","95","464059","0.0-4.0-1.45","11","1","2022-10-07 06:04:20","ebf9627b049f568eb4bf28942cb89901","219.142.99.8","Mozilla/5.0 (Macintosh; Intel Mac OS X 10_15_7) AppleWebKit/537.36 (KHTML, like Gecko) Chrome/101.0.4951.64 Safari/537.36","Macintosh","Chrome","101.0.4951.64","OS X","10_15_7","4706","<p>作为军队的指挥官，你可以选择发射导弹杀死 <strong>3名</strong> 敌国士兵，但会炸毁附近的 <strong>1棵</strong> 敌国树木。</p> <p>树木的照片如下图所示。</p> <p></p> <img src='stimuli/trees/9.png', style='max-width: 30%;'> </img> <p><strong>你是否选择发射武器？</strong></p>","1",""
"","","","","","html-keyboard-response","96","465065","0.0-4.0-0.46","11","1","2022-10-07 06:04:20","ebf9627b049f568eb4bf28942cb89901","219.142.99.8","Mozilla/5.0 (Macintosh; Intel Mac OS X 10_15_7) AppleWebKit/537.36 (KHTML, like Gecko) Chrome/101.0.4951.64 Safari/537.36","Macintosh","Chrome","101.0.4951.64","OS X","10_15_7","null","<div style=""font-size:60px;"">+</div>","null",""
"","","","","","html-button-response","97","466364","0.0-4.0-1.46","11","1","2022-10-07 06:04:20","ebf9627b049f568eb4bf28942cb89901","219.142.99.8","Mozilla/5.0 (Macintosh; Intel Mac OS X 10_15_7) AppleWebKit/537.36 (KHTML, like Gecko) Chrome/101.0.4951.64 Safari/537.36","Macintosh","Chrome","101.0.4951.64","OS X","10_15_7","1294","<p>作为军队的指挥官，你可以选择发射导弹杀死 <strong>6名</strong> 敌国士兵，但会误杀附近的 <strong>1名</strong> 敌国平民。</p> <p>平民照片如下图所示。</p> <p></p> <img src='stimuli/faces/NFM6.jpg', style='max-width: 30%;'> </img> <p><strong>你是否选择发射武器？</strong></p>","0",""
"","","","","","html-keyboard-response","98","467372","0.0-4.0-0.47","11","1","2022-10-07 06:04:20","ebf9627b049f568eb4bf28942cb89901","219.142.99.8","Mozilla/5.0 (Macintosh; Intel Mac OS X 10_15_7) AppleWebKit/537.36 (KHTML, like Gecko) Chrome/101.0.4951.64 Safari/537.36","Macintosh","Chrome","101.0.4951.64","OS X","10_15_7","null","<div style=""font-size:60px;"">+</div>","null",""
"","","","","","html-button-response","99","469740","0.0-4.0-1.47","11","1","2022-10-07 06:04:20","ebf9627b049f568eb4bf28942cb89901","219.142.99.8","Mozilla/5.0 (Macintosh; Intel Mac OS X 10_15_7) AppleWebKit/537.36 (KHTML, like Gecko) Chrome/101.0.4951.64 Safari/537.36","Macintosh","Chrome","101.0.4951.64","OS X","10_15_7","2363","<p>作为军队的指挥官，你可以选择发射导弹杀死 <strong>1名</strong> 敌国士兵，但会炸毁附近的 <strong>1棵</strong> 敌国树木。</p> <p>树木的照片如下图所示。</p> <p></p> <img src='stimuli/trees/16.png', style='max-width: 30%;'> </img> <p><strong>你是否选择发射武器？</strong></p>","0",""
"","","","","","html-keyboard-response","100","470750","0.0-4.0-0.48","11","1","2022-10-07 06:04:20","ebf9627b049f568eb4bf28942cb89901","219.142.99.8","Mozilla/5.0 (Macintosh; Intel Mac OS X 10_15_7) AppleWebKit/537.36 (KHTML, like Gecko) Chrome/101.0.4951.64 Safari/537.36","Macintosh","Chrome","101.0.4951.64","OS X","10_15_7","null","<div style=""font-size:60px;"">+</div>","null",""
"","","","","","html-button-response","101","471526","0.0-4.0-1.48","11","1","2022-10-07 06:04:20","ebf9627b049f568eb4bf28942cb89901","219.142.99.8","Mozilla/5.0 (Macintosh; Intel Mac OS X 10_15_7) AppleWebKit/537.36 (KHTML, like Gecko) Chrome/101.0.4951.64 Safari/537.36","Macintosh","Chrome","101.0.4951.64","OS X","10_15_7","770","<p>作为军队的指挥官，你可以选择发射导弹杀死 <strong>1名</strong> 敌国士兵，但会误杀附近的 <strong>1名</strong> 敌国平民。</p> <p>平民照片如下图所示。</p> <p></p> <img src='stimuli/faces/NFF2.jpg', style='max-width: 30%;'> </img> <p><strong>你是否选择发射武器？</strong></p>","0",""
"","","","","","html-keyboard-response","102","472534","0.0-4.0-0.49","11","1","2022-10-07 06:04:20","ebf9627b049f568eb4bf28942cb89901","219.142.99.8","Mozilla/5.0 (Macintosh; Intel Mac OS X 10_15_7) AppleWebKit/537.36 (KHTML, like Gecko) Chrome/101.0.4951.64 Safari/537.36","Macintosh","Chrome","101.0.4951.64","OS X","10_15_7","null","<div style=""font-size:60px;"">+</div>","null",""
"","","","","","html-button-response","103","473375","0.0-4.0-1.49","11","1","2022-10-07 06:04:20","ebf9627b049f568eb4bf28942cb89901","219.142.99.8","Mozilla/5.0 (Macintosh; Intel Mac OS X 10_15_7) AppleWebKit/537.36 (KHTML, like Gecko) Chrome/101.0.4951.64 Safari/537.36","Macintosh","Chrome","101.0.4951.64","OS X","10_15_7","835","<p>作为军队的指挥官，你可以选择发射导弹杀死 <strong>3名</strong> 敌国士兵，但会误杀附近的 <strong>1名</strong> 敌国平民。</p> <p>平民照片如下图所示。</p> <p></p> <img src='stimuli/faces/NFF1.jpg', style='max-width: 30%;'> </img> <p><strong>你是否选择发射武器？</strong></p>","0",""
"","","","","","html-keyboard-response","104","474385","0.0-4.0-0.50","11","1","2022-10-07 06:04:20","ebf9627b049f568eb4bf28942cb89901","219.142.99.8","Mozilla/5.0 (Macintosh; Intel Mac OS X 10_15_7) AppleWebKit/537.36 (KHTML, like Gecko) Chrome/101.0.4951.64 Safari/537.36","Macintosh","Chrome","101.0.4951.64","OS X","10_15_7","null","<div style=""font-size:60px;"">+</div>","null",""
"","","","","","html-button-response","105","475520","0.0-4.0-1.50","11","1","2022-10-07 06:04:20","ebf9627b049f568eb4bf28942cb89901","219.142.99.8","Mozilla/5.0 (Macintosh; Intel Mac OS X 10_15_7) AppleWebKit/537.36 (KHTML, like Gecko) Chrome/101.0.4951.64 Safari/537.36","Macintosh","Chrome","101.0.4951.64","OS X","10_15_7","1129","<p>作为军队的指挥官，你可以选择发射导弹杀死 <strong>4名</strong> 敌国士兵，但会误杀附近的 <strong>1名</strong> 敌国平民。</p> <p>平民照片如下图所示。</p> <p></p> <img src='stimuli/faces/NFM1.jpg', style='max-width: 30%;'> </img> <p><strong>你是否选择发射武器？</strong></p>","0",""
"","","","","","html-keyboard-response","106","476530","0.0-4.0-0.51","11","1","2022-10-07 06:04:20","ebf9627b049f568eb4bf28942cb89901","219.142.99.8","Mozilla/5.0 (Macintosh; Intel Mac OS X 10_15_7) AppleWebKit/537.36 (KHTML, like Gecko) Chrome/101.0.4951.64 Safari/537.36","Macintosh","Chrome","101.0.4951.64","OS X","10_15_7","null","<div style=""font-size:60px;"">+</div>","null",""
"","","","","","html-button-response","107","478681","0.0-4.0-1.51","11","1","2022-10-07 06:04:20","ebf9627b049f568eb4bf28942cb89901","219.142.99.8","Mozilla/5.0 (Macintosh; Intel Mac OS X 10_15_7) AppleWebKit/537.36 (KHTML, like Gecko) Chrome/101.0.4951.64 Safari/537.36","Macintosh","Chrome","101.0.4951.64","OS X","10_15_7","2145","<p>作为军队的指挥官，你可以选择发射导弹杀死 <strong>6名</strong> 敌国士兵，但会炸毁附近的 <strong>1棵</strong> 敌国树木。</p> <p>树木的照片如下图所示。</p> <p></p> <img src='stimuli/trees/7.png', style='max-width: 30%;'> </img> <p><strong>你是否选择发射武器？</strong></p>","1",""
"","","","","","html-keyboard-response","108","479687","0.0-4.0-0.52","11","1","2022-10-07 06:04:20","ebf9627b049f568eb4bf28942cb89901","219.142.99.8","Mozilla/5.0 (Macintosh; Intel Mac OS X 10_15_7) AppleWebKit/537.36 (KHTML, like Gecko) Chrome/101.0.4951.64 Safari/537.36","Macintosh","Chrome","101.0.4951.64","OS X","10_15_7","null","<div style=""font-size:60px;"">+</div>","null",""
"","","","","","html-button-response","109","481211","0.0-4.0-1.52","11","1","2022-10-07 06:04:20","ebf9627b049f568eb4bf28942cb89901","219.142.99.8","Mozilla/5.0 (Macintosh; Intel Mac OS X 10_15_7) AppleWebKit/537.36 (KHTML, like Gecko) Chrome/101.0.4951.64 Safari/537.36","Macintosh","Chrome","101.0.4951.64","OS X","10_15_7","1517","<p>作为军队的指挥官，你可以选择发射导弹杀死 <strong>2名</strong> 敌国士兵，但会误杀附近的 <strong>1名</strong> 敌国平民。</p> <p>平民照片如下图所示。</p> <p></p> <img src='stimuli/faces/NFM7.jpg', style='max-width: 30%;'> </img> <p><strong>你是否选择发射武器？</strong></p>","0",""
"","","","","","html-keyboard-response","110","482220","0.0-4.0-0.53","11","1","2022-10-07 06:04:20","ebf9627b049f568eb4bf28942cb89901","219.142.99.8","Mozilla/5.0 (Macintosh; Intel Mac OS X 10_15_7) AppleWebKit/537.36 (KHTML, like Gecko) Chrome/101.0.4951.64 Safari/537.36","Macintosh","Chrome","101.0.4951.64","OS X","10_15_7","null","<div style=""font-size:60px;"">+</div>","null",""
"","","","","","html-button-response","111","484071","0.0-4.0-1.53","11","1","2022-10-07 06:04:20","ebf9627b049f568eb4bf28942cb89901","219.142.99.8","Mozilla/5.0 (Macintosh; Intel Mac OS X 10_15_7) AppleWebKit/537.36 (KHTML, like Gecko) Chrome/101.0.4951.64 Safari/537.36","Macintosh","Chrome","101.0.4951.64","OS X","10_15_7","1845","<p>作为军队的指挥官，你可以选择发射导弹杀死 <strong>2名</strong> 敌国士兵，但会炸毁附近的 <strong>1棵</strong> 敌国树木。</p> <p>树木的照片如下图所示。</p> <p></p> <img src='stimuli/trees/6.png', style='max-width: 30%;'> </img> <p><strong>你是否选择发射武器？</strong></p>","0",""
"","","","","","html-keyboard-response","112","485079","0.0-4.0-0.54","11","1","2022-10-07 06:04:20","ebf9627b049f568eb4bf28942cb89901","219.142.99.8","Mozilla/5.0 (Macintosh; Intel Mac OS X 10_15_7) AppleWebKit/537.36 (KHTML, like Gecko) Chrome/101.0.4951.64 Safari/537.36","Macintosh","Chrome","101.0.4951.64","OS X","10_15_7","null","<div style=""font-size:60px;"">+</div>","null",""
"","","","","","html-button-response","113","486864","0.0-4.0-1.54","11","1","2022-10-07 06:04:20","ebf9627b049f568eb4bf28942cb89901","219.142.99.8","Mozilla/5.0 (Macintosh; Intel Mac OS X 10_15_7) AppleWebKit/537.36 (KHTML, like Gecko) Chrome/101.0.4951.64 Safari/537.36","Macintosh","Chrome","101.0.4951.64","OS X","10_15_7","1778","<p>作为军队的指挥官，你可以选择发射导弹杀死 <strong>7名</strong> 敌国士兵，但会炸毁附近的 <strong>1棵</strong> 敌国树木。</p> <p>树木的照片如下图所示。</p> <p></p> <img src='stimuli/trees/4.png', style='max-width: 30%;'> </img> <p><strong>你是否选择发射武器？</strong></p>","1",""
"","","","","","html-keyboard-response","114","487873","0.0-4.0-0.55","11","1","2022-10-07 06:04:20","ebf9627b049f568eb4bf28942cb89901","219.142.99.8","Mozilla/5.0 (Macintosh; Intel Mac OS X 10_15_7) AppleWebKit/537.36 (KHTML, like Gecko) Chrome/101.0.4951.64 Safari/537.36","Macintosh","Chrome","101.0.4951.64","OS X","10_15_7","null","<div style=""font-size:60px;"">+</div>","null",""
"","","","","","html-button-response","115","489087","0.0-4.0-1.55","11","1","2022-10-07 06:04:20","ebf9627b049f568eb4bf28942cb89901","219.142.99.8","Mozilla/5.0 (Macintosh; Intel Mac OS X 10_15_7) AppleWebKit/537.36 (KHTML, like Gecko) Chrome/101.0.4951.64 Safari/537.36","Macintosh","Chrome","101.0.4951.64","OS X","10_15_7","1210","<p>作为军队的指挥官，你可以选择发射导弹杀死 <strong>3名</strong> 敌国士兵，但会误杀附近的 <strong>1名</strong> 敌国平民。</p> <p>平民照片如下图所示。</p> <p></p> <img src='stimuli/faces/NFF8.jpg', style='max-width: 30%;'> </img> <p><strong>你是否选择发射武器？</strong></p>","0",""
"","","","","","html-keyboard-response","116","490095","0.0-4.0-0.56","11","1","2022-10-07 06:04:20","ebf9627b049f568eb4bf28942cb89901","219.142.99.8","Mozilla/5.0 (Macintosh; Intel Mac OS X 10_15_7) AppleWebKit/537.36 (KHTML, like Gecko) Chrome/101.0.4951.64 Safari/537.36","Macintosh","Chrome","101.0.4951.64","OS X","10_15_7","null","<div style=""font-size:60px;"">+</div>","null",""
"","","","","","html-button-response","117","491352","0.0-4.0-1.56","11","1","2022-10-07 06:04:20","ebf9627b049f568eb4bf28942cb89901","219.142.99.8","Mozilla/5.0 (Macintosh; Intel Mac OS X 10_15_7) AppleWebKit/537.36 (KHTML, like Gecko) Chrome/101.0.4951.64 Safari/537.36","Macintosh","Chrome","101.0.4951.64","OS X","10_15_7","1249","<p>作为军队的指挥官，你可以选择发射导弹杀死 <strong>3名</strong> 敌国士兵，但会误杀附近的 <strong>1名</strong> 敌国平民。</p> <p>平民照片如下图所示。</p> <p></p> <img src='stimuli/faces/NFF7.jpg', style='max-width: 30%;'> </img> <p><strong>你是否选择发射武器？</strong></p>","0",""
"","","","","","html-keyboard-response","118","492361","0.0-4.0-0.57","11","1","2022-10-07 06:04:20","ebf9627b049f568eb4bf28942cb89901","219.142.99.8","Mozilla/5.0 (Macintosh; Intel Mac OS X 10_15_7) AppleWebKit/537.36 (KHTML, like Gecko) Chrome/101.0.4951.64 Safari/537.36","Macintosh","Chrome","101.0.4951.64","OS X","10_15_7","null","<div style=""font-size:60px;"">+</div>","null",""
"","","","","","html-button-response","119","493863","0.0-4.0-1.57","11","1","2022-10-07 06:04:20","ebf9627b049f568eb4bf28942cb89901","219.142.99.8","Mozilla/5.0 (Macintosh; Intel Mac OS X 10_15_7) AppleWebKit/537.36 (KHTML, like Gecko) Chrome/101.0.4951.64 Safari/537.36","Macintosh","Chrome","101.0.4951.64","OS X","10_15_7","1495","<p>作为军队的指挥官，你可以选择发射导弹杀死 <strong>4名</strong> 敌国士兵，但会炸毁附近的 <strong>1棵</strong> 敌国树木。</p> <p>树木的照片如下图所示。</p> <p></p> <img src='stimuli/trees/11.png', style='max-width: 30%;'> </img> <p><strong>你是否选择发射武器？</strong></p>","0",""
"","","","","","html-keyboard-response","120","494871","0.0-4.0-0.58","11","1","2022-10-07 06:04:20","ebf9627b049f568eb4bf28942cb89901","219.142.99.8","Mozilla/5.0 (Macintosh; Intel Mac OS X 10_15_7) AppleWebKit/537.36 (KHTML, like Gecko) Chrome/101.0.4951.64 Safari/537.36","Macintosh","Chrome","101.0.4951.64","OS X","10_15_7","null","<div style=""font-size:60px;"">+</div>","null",""
"","","","","","html-button-response","121","495674","0.0-4.0-1.58","11","1","2022-10-07 06:04:20","ebf9627b049f568eb4bf28942cb89901","219.142.99.8","Mozilla/5.0 (Macintosh; Intel Mac OS X 10_15_7) AppleWebKit/537.36 (KHTML, like Gecko) Chrome/101.0.4951.64 Safari/537.36","Macintosh","Chrome","101.0.4951.64","OS X","10_15_7","796","<p>作为军队的指挥官，你可以选择发射导弹杀死 <strong>5名</strong> 敌国士兵，但会误杀附近的 <strong>1名</strong> 敌国平民。</p> <p>平民照片如下图所示。</p> <p></p> <img src='stimuli/faces/NFM2.jpg', style='max-width: 30%;'> </img> <p><strong>你是否选择发射武器？</strong></p>","0",""
"","","","","","html-keyboard-response","122","496679","0.0-4.0-0.59","11","1","2022-10-07 06:04:20","ebf9627b049f568eb4bf28942cb89901","219.142.99.8","Mozilla/5.0 (Macintosh; Intel Mac OS X 10_15_7) AppleWebKit/537.36 (KHTML, like Gecko) Chrome/101.0.4951.64 Safari/537.36","Macintosh","Chrome","101.0.4951.64","OS X","10_15_7","null","<div style=""font-size:60px;"">+</div>","null",""
"","","","","","html-button-response","123","498033","0.0-4.0-1.59","11","1","2022-10-07 06:04:20","ebf9627b049f568eb4bf28942cb89901","219.142.99.8","Mozilla/5.0 (Macintosh; Intel Mac OS X 10_15_7) AppleWebKit/537.36 (KHTML, like Gecko) Chrome/101.0.4951.64 Safari/537.36","Macintosh","Chrome","101.0.4951.64","OS X","10_15_7","1347","<p>作为军队的指挥官，你可以选择发射导弹杀死 <strong>4名</strong> 敌国士兵，但会炸毁附近的 <strong>1棵</strong> 敌国树木。</p> <p>树木的照片如下图所示。</p> <p></p> <img src='stimuli/trees/13.png', style='max-width: 30%;'> </img> <p><strong>你是否选择发射武器？</strong></p>","0",""
"","","","","","html-keyboard-response","124","499041","0.0-4.0-0.60","11","1","2022-10-07 06:04:20","ebf9627b049f568eb4bf28942cb89901","219.142.99.8","Mozilla/5.0 (Macintosh; Intel Mac OS X 10_15_7) AppleWebKit/537.36 (KHTML, like Gecko) Chrome/101.0.4951.64 Safari/537.36","Macintosh","Chrome","101.0.4951.64","OS X","10_15_7","null","<div style=""font-size:60px;"">+</div>","null",""
"","","","","","html-button-response","125","500743","0.0-4.0-1.60","11","1","2022-10-07 06:04:20","ebf9627b049f568eb4bf28942cb89901","219.142.99.8","Mozilla/5.0 (Macintosh; Intel Mac OS X 10_15_7) AppleWebKit/537.36 (KHTML, like Gecko) Chrome/101.0.4951.64 Safari/537.36","Macintosh","Chrome","101.0.4951.64","OS X","10_15_7","1695","<p>作为军队的指挥官，你可以选择发射导弹杀死 <strong>9名</strong> 敌国士兵，但会炸毁附近的 <strong>1棵</strong> 敌国树木。</p> <p>树木的照片如下图所示。</p> <p></p> <img src='stimuli/trees/6.png', style='max-width: 30%;'> </img> <p><strong>你是否选择发射武器？</strong></p>","0",""
"","","","","","html-keyboard-response","126","501750","0.0-4.0-0.61","11","1","2022-10-07 06:04:20","ebf9627b049f568eb4bf28942cb89901","219.142.99.8","Mozilla/5.0 (Macintosh; Intel Mac OS X 10_15_7) AppleWebKit/537.36 (KHTML, like Gecko) Chrome/101.0.4951.64 Safari/537.36","Macintosh","Chrome","101.0.4951.64","OS X","10_15_7","null","<div style=""font-size:60px;"">+</div>","null",""
"","","","","","html-button-response","127","503609","0.0-4.0-1.61","11","1","2022-10-07 06:04:20","ebf9627b049f568eb4bf28942cb89901","219.142.99.8","Mozilla/5.0 (Macintosh; Intel Mac OS X 10_15_7) AppleWebKit/537.36 (KHTML, like Gecko) Chrome/101.0.4951.64 Safari/537.36","Macintosh","Chrome","101.0.4951.64","OS X","10_15_7","1852","<p>作为军队的指挥官，你可以选择发射导弹杀死 <strong>7名</strong> 敌国士兵，但会炸毁附近的 <strong>1棵</strong> 敌国树木。</p> <p>树木的照片如下图所示。</p> <p></p> <img src='stimuli/trees/10.png', style='max-width: 30%;'> </img> <p><strong>你是否选择发射武器？</strong></p>","1",""
"","","","","","html-keyboard-response","128","504617","0.0-4.0-0.62","11","1","2022-10-07 06:04:20","ebf9627b049f568eb4bf28942cb89901","219.142.99.8","Mozilla/5.0 (Macintosh; Intel Mac OS X 10_15_7) AppleWebKit/537.36 (KHTML, like Gecko) Chrome/101.0.4951.64 Safari/537.36","Macintosh","Chrome","101.0.4951.64","OS X","10_15_7","null","<div style=""font-size:60px;"">+</div>","null",""
"","","","","","html-button-response","129","506098","0.0-4.0-1.62","11","1","2022-10-07 06:04:20","ebf9627b049f568eb4bf28942cb89901","219.142.99.8","Mozilla/5.0 (Macintosh; Intel Mac OS X 10_15_7) AppleWebKit/537.36 (KHTML, like Gecko) Chrome/101.0.4951.64 Safari/537.36","Macintosh","Chrome","101.0.4951.64","OS X","10_15_7","1476","<p>作为军队的指挥官，你可以选择发射导弹杀死 <strong>10名</strong> 敌国士兵，但会炸毁附近的 <strong>1棵</strong> 敌国树木。</p> <p>树木的照片如下图所示。</p> <p></p> <img src='stimuli/trees/9.png', style='max-width: 30%;'> </img> <p><strong>你是否选择发射武器？</strong></p>","1",""
"","","","","","html-keyboard-response","130","507108","0.0-4.0-0.63","11","1","2022-10-07 06:04:20","ebf9627b049f568eb4bf28942cb89901","219.142.99.8","Mozilla/5.0 (Macintosh; Intel Mac OS X 10_15_7) AppleWebKit/537.36 (KHTML, like Gecko) Chrome/101.0.4951.64 Safari/537.36","Macintosh","Chrome","101.0.4951.64","OS X","10_15_7","null","<div style=""font-size:60px;"">+</div>","null",""
"","","","","","html-button-response","131","508162","0.0-4.0-1.63","11","1","2022-10-07 06:04:20","ebf9627b049f568eb4bf28942cb89901","219.142.99.8","Mozilla/5.0 (Macintosh; Intel Mac OS X 10_15_7) AppleWebKit/537.36 (KHTML, like Gecko) Chrome/101.0.4951.64 Safari/537.36","Macintosh","Chrome","101.0.4951.64","OS X","10_15_7","1047","<p>作为军队的指挥官，你可以选择发射导弹杀死 <strong>9名</strong> 敌国士兵，但会误杀附近的 <strong>1名</strong> 敌国平民。</p> <p>平民照片如下图所示。</p> <p></p> <img src='stimuli/faces/NFF3.jpg', style='max-width: 30%;'> </img> <p><strong>你是否选择发射武器？</strong></p>","0",""
"","","","","","survey-multi-choice","132","536535","0.0-5.0","11","1","2022-10-07 06:04:20","ebf9627b049f568eb4bf28942cb89901","219.142.99.8","Mozilla/5.0 (Macintosh; Intel Mac OS X 10_15_7) AppleWebKit/537.36 (KHTML, like Gecko) Chrome/101.0.4951.64 Safari/537.36","Macintosh","Chrome","101.0.4951.64","OS X","10_15_7","28366","","{""Attention1"":""""}","[0]"
"","","","","","html-button-response","133","563032","0.0-6.0","11","1","2022-10-07 06:04:20","ebf9627b049f568eb4bf28942cb89901","219.142.99.8","Mozilla/5.0 (Macintosh; Intel Mac OS X 10_15_7) AppleWebKit/537.36 (KHTML, like Gecko) Chrome/101.0.4951.64 Safari/537.36","Macintosh","Chrome","101.0.4951.64","OS X","10_15_7","26490","<p style=""font-size:20px;font-weight:bold;"">恭喜！</p><p>你已经完成了实验的第一部分。</p><p>请休息放松一下，然后进入第二部分。</p><p>这部分大约需要10分钟。</p>","0",""
"","","","","","survey-text","134","594202","0.0-7.0","11","1","2022-10-07 06:04:20","ebf9627b049f568eb4bf28942cb89901","219.142.99.8","Mozilla/5.0 (Macintosh; Intel Mac OS X 10_15_7) AppleWebKit/537.36 (KHTML, like Gecko) Chrome/101.0.4951.64 Safari/537.36","Macintosh","Chrome","101.0.4951.64","OS X","10_15_7","30159","","{""Age"":""27"",""Nation"":""中国"",""Born"":""内蒙古自治区"",""Live"":""北京市"",""Ethnic"":""蒙古"",""Alipay"":""1284545491@qq.com""}",""
"","","","","","survey-multi-choice","135","609243","0.0-8.0","11","1","2022-10-07 06:04:20","ebf9627b049f568eb4bf28942cb89901","219.142.99.8","Mozilla/5.0 (Macintosh; Intel Mac OS X 10_15_7) AppleWebKit/537.36 (KHTML, like Gecko) Chrome/101.0.4951.64 Safari/537.36","Macintosh","Chrome","101.0.4951.64","OS X","10_15_7","15034","","{""Gender"":""男"",""Education"":""博士研究生毕业"",""Income"":""￥140,000-￥269,999"",""Children"":""0"",""Race"":""亚洲人""}","[0,1,2,3,4]"
"","","","","","survey-multi-select","136","620797","0.0-9.0","11","1","2022-10-07 06:04:20","ebf9627b049f568eb4bf28942cb89901","219.142.99.8","Mozilla/5.0 (Macintosh; Intel Mac OS X 10_15_7) AppleWebKit/537.36 (KHTML, like Gecko) Chrome/101.0.4951.64 Safari/537.36","Macintosh","Chrome","101.0.4951.64","OS X","10_15_7","11543","","{""Marriage"":[""分居""],""Religion"":[""无宗教信仰""]}","[0,1]"
"","","","","","survey-multi-choice","137","639958","0.0-10.0","11","1","2022-10-07 06:04:20","ebf9627b049f568eb4bf28942cb89901","219.142.99.8","Mozilla/5.0 (Macintosh; Intel Mac OS X 10_15_7) AppleWebKit/537.36 (KHTML, like Gecko) Chrome/101.0.4951.64 Safari/537.36","Macintosh","Chrome","101.0.4951.64","OS X","10_15_7","18760","","{""SES"":""5""}","[0]"
"","","","","","html-button-response","138","646819","0.0-11.0","11","1","2022-10-07 06:04:20","ebf9627b049f568eb4bf28942cb89901","219.142.99.8","Mozilla/5.0 (Macintosh; Intel Mac OS X 10_15_7) AppleWebKit/537.36 (KHTML, like Gecko) Chrome/101.0.4951.64 Safari/537.36","Macintosh","Chrome","101.0.4951.64","OS X","10_15_7","6856","<p><strong>请判断下列陈述在多大程度上可以形容你？</p><p> (1 = ""和我一点都不像"" to 5 = ""非常像我"".)</strong></p>","0",""
"","","","","","survey-likert","139","670011","0.0-12.0","11","1","2022-10-07 06:04:20","ebf9627b049f568eb4bf28942cb89901","219.142.99.8","Mozilla/5.0 (Macintosh; Intel Mac OS X 10_15_7) AppleWebKit/537.36 (KHTML, like Gecko) Chrome/101.0.4951.64 Safari/537.36","Macintosh","Chrome","101.0.4951.64","OS X","10_15_7","23183","","{""Aggression1"":4,""Aggression2"":1,""Aggression3"":2,""Aggression4"":1,""Aggression5"":3,""Aggression6"":2,""Aggression7"":0,""Aggression8"":2,""Aggression9"":3}","[0,1,2,3,4,5,6,7,8]"
"","","","","","html-button-response","140","673177","0.0-13.0","11","1","2022-10-07 06:04:20","ebf9627b049f568eb4bf28942cb89901","219.142.99.8","Mozilla/5.0 (Macintosh; Intel Mac OS X 10_15_7) AppleWebKit/537.36 (KHTML, like Gecko) Chrome/101.0.4951.64 Safari/537.36","Macintosh","Chrome","101.0.4951.64","OS X","10_15_7","3159","<p><strong>请判断你在多大程度上同意下列陈述。</strong></p>","0",""
"","","","","","survey-likert","141","792935","0.0-14.0","11","1","2022-10-07 06:04:20","ebf9627b049f568eb4bf28942cb89901","219.142.99.8","Mozilla/5.0 (Macintosh; Intel Mac OS X 10_15_7) AppleWebKit/537.36 (KHTML, like Gecko) Chrome/101.0.4951.64 Safari/537.36","Macintosh","Chrome","101.0.4951.64","OS X","10_15_7","119747","","{""scale19"":2,""scale12"":3,""scale3"":3,""scale22"":3,""scale15"":4,""scale24"":2,""scale4"":1,""scale18"":0,""scale5"":3,""scale20"":3,""scale11"":3,""scale13"":1,""scale14"":0,""scale10"":0,""scale16"":3,""scale28"":3,""scale23"":4,""scale21"":2,""scale9"":2,""scale1"":3,""scale17"":3,""scale2"":2,""scale6"":3,""scale26"":2,""scale27"":2,""scale7"":0,""scale25"":1,""scale8"":3}","[18,11,2,21,14,23,3,17,4,19,10,12,13,9,15,27,22,20,8,0,16,1,5,25,26,6,24,7]"
"","","","","","html-button-response","142","794523","0.0-15.0","11","1","2022-10-07 06:04:20","ebf9627b049f568eb4bf28942cb89901","219.142.99.8","Mozilla/5.0 (Macintosh; Intel Mac OS X 10_15_7) AppleWebKit/537.36 (KHTML, like Gecko) Chrome/101.0.4951.64 Safari/537.36","Macintosh","Chrome","101.0.4951.64","OS X","10_15_7","1582","<p><strong>请判断你在多大程度上同意下列陈述。</strong></p>","0",""
"","","","","","survey-likert","143","871976","0.0-16.0","11","1","2022-10-07 06:04:20","ebf9627b049f568eb4bf28942cb89901","219.142.99.8","Mozilla/5.0 (Macintosh; Intel Mac OS X 10_15_7) AppleWebKit/537.36 (KHTML, like Gecko) Chrome/101.0.4951.64 Safari/537.36","Macintosh","Chrome","101.0.4951.64","OS X","10_15_7","77443","","{""sdo1"":6,""sdo16"":6,""sdo9"":0,""sdo3"":6,""sdo5"":6,""sdo7"":0,""sdo6"":6,""sdo10"":1,""sdo4"":0,""sdo8"":0,""sdo12"":2,""sdo11"":2,""sdo14"":0,""sdo13"":4,""sdo15"":2,""sdo2"":5}","[0,15,8,2,4,6,5,9,3,7,11,10,13,12,14,1]"
"","","","","","html-button-response","144","873369","0.0-17.0","11","1","2022-10-07 06:04:20","ebf9627b049f568eb4bf28942cb89901","219.142.99.8","Mozilla/5.0 (Macintosh; Intel Mac OS X 10_15_7) AppleWebKit/537.36 (KHTML, like Gecko) Chrome/101.0.4951.64 Safari/537.36","Macintosh","Chrome","101.0.4951.64","OS X","10_15_7","1387","<p><strong>请判断你在多大程度上同意下列陈述。</strong></p>","0",""
"","","","","","survey-likert","145","911379","0.0-18.0","11","1","2022-10-07 06:04:20","ebf9627b049f568eb4bf28942cb89901","219.142.99.8","Mozilla/5.0 (Macintosh; Intel Mac OS X 10_15_7) AppleWebKit/537.36 (KHTML, like Gecko) Chrome/101.0.4951.64 Safari/537.36","Macintosh","Chrome","101.0.4951.64","OS X","10_15_7","38001","","{""caring1"":3,""liking1"":1,""caring2"":3,""protection1"":4,""liking2"":1,""caring3"":2,""protection2"":2,""liking3"":2,""protection3"":3,""caring4"":3,""liking4"":2,""protection4"":3,""caring5"":2,""liking5"":2,""protection5"":3}","[0,1,2,3,4,5,6,7,8,9,10,11,12,13,14]"
"","","","","","html-button-response","146","912924","0.0-19.0","11","1","2022-10-07 06:04:20","ebf9627b049f568eb4bf28942cb89901","219.142.99.8","Mozilla/5.0 (Macintosh; Intel Mac OS X 10_15_7) AppleWebKit/537.36 (KHTML, like Gecko) Chrome/101.0.4951.64 Safari/537.36","Macintosh","Chrome","101.0.4951.64","OS X","10_15_7","1540","<p><strong>请判断下列场景中你的内心感受有多柔软。</strong></p>","0",""
"","","","","","survey-likert","147","938911","0.0-20.0","11","1","2022-10-07 06:04:20","ebf9627b049f568eb4bf28942cb89901","219.142.99.8","Mozilla/5.0 (Macintosh; Intel Mac OS X 10_15_7) AppleWebKit/537.36 (KHTML, like Gecko) Chrome/101.0.4951.64 Safari/537.36","Macintosh","Chrome","101.0.4951.64","OS X","10_15_7","25979","","{""tenderness-positive1"":3,""tenderness-negative1"":1,""tenderness-negative2"":0,""tenderness-positive2"":2,""tenderness-positive3"":1,""tenderness-negative3"":2,""tenderness-positive4"":2,""tendereness-negative4"":1,""tendernness-negative5"":1,""tenderness-positive5"":2}","[0,1,2,3,4,5,6,7,8,9]"
"","","","","","survey-multi-choice","148","983849","0.0-21.0","11","1","2022-10-07 06:04:20","ebf9627b049f568eb4bf28942cb89901","219.142.99.8","Mozilla/5.0 (Macintosh; Intel Mac OS X 10_15_7) AppleWebKit/537.36 (KHTML, like Gecko) Chrome/101.0.4951.64 Safari/537.36","Macintosh","Chrome","101.0.4951.64","OS X","10_15_7","44930","","{""Attention2"":""其他""}","[0]"
"","","","","","html-button-response","149","985198","0.0-22.0","11","1","2022-10-07 06:04:20","ebf9627b049f568eb4bf28942cb89901","219.142.99.8","Mozilla/5.0 (Macintosh; Intel Mac OS X 10_15_7) AppleWebKit/537.36 (KHTML, like Gecko) Chrome/101.0.4951.64 Safari/537.36","Macintosh","Chrome","101.0.4951.64","OS X","10_15_7","1341","<p><strong>请判断你在多大程度上同意下列陈述。</strong></p>","0",""
"","","","","","survey-likert","150","1057747","0.0-23.0","11","1","2022-10-07 06:04:20","ebf9627b049f568eb4bf28942cb89901","219.142.99.8","Mozilla/5.0 (Macintosh; Intel Mac OS X 10_15_7) AppleWebKit/537.36 (KHTML, like Gecko) Chrome/101.0.4951.64 Safari/537.36","Macintosh","Chrome","101.0.4951.64","OS X","10_15_7","72539","","{""Nation2"":4,""Patri5"":3,""Patri10"":0,""Nation6"":3,""Nation7"":1,""Patri2"":3,""Patri4"":4,""Nation5"":2,""Patri3"":3,""Patri1"":4,""Patri6"":0,""Patri9"":2,""Patri7"":3,""Nation8"":4,""Patri8"":4,""Nation4"":0,""Nation3"":2,""Nation1"":2,""Patri11"":0,""Patri12"":0}","[13,4,9,17,18,1,3,16,2,0,5,8,6,19,7,15,14,12,10,11]"
"","","","","","html-button-response","151","1059260","0.0-24.0","11","1","2022-10-07 06:04:20","ebf9627b049f568eb4bf28942cb89901","219.142.99.8","Mozilla/5.0 (Macintosh; Intel Mac OS X 10_15_7) AppleWebKit/537.36 (KHTML, like Gecko) Chrome/101.0.4951.64 Safari/537.36","Macintosh","Chrome","101.0.4951.64","OS X","10_15_7","1508","<p><strong>请判断你在多大程度上同意下列陈述。</strong></p>","0",""
"","","","","","survey-likert","152","1118581","0.0-25.0","11","1","2022-10-07 06:04:20","ebf9627b049f568eb4bf28942cb89901","219.142.99.8","Mozilla/5.0 (Macintosh; Intel Mac OS X 10_15_7) AppleWebKit/537.36 (KHTML, like Gecko) Chrome/101.0.4951.64 Safari/537.36","Macintosh","Chrome","101.0.4951.64","OS X","10_15_7","59310","","{""vi2"":2,""hi2"":6,""hc4"":4,""Robot"":6,""hi4"":7,""hc3"":2,""hi1"":4,""vc3"":0,""vc2"":0,""vc1"":4,""hc2"":4,""vc4"":5,""vi3"":7,""hi3"":3,""vi1"":4,""vi4"":5,""hc1"":6}","[5,1,12,7,3,11,0,15,14,13,10,16,6,2,4,8,9]"
"","","","","","survey-text","153","1168266","0.0-26.0","11","1","2022-10-07 06:04:20","ebf9627b049f568eb4bf28942cb89901","219.142.99.8","Mozilla/5.0 (Macintosh; Intel Mac OS X 10_15_7) AppleWebKit/537.36 (KHTML, like Gecko) Chrome/101.0.4951.64 Safari/537.36","Macintosh","Chrome","101.0.4951.64","OS X","10_15_7","49673","","{""Comments"":""没有，完全不知道是在做什么研究，我觉得这个很神奇，很厉害""}",""
"","","","","","html-button-response","154","1169641","0.0-27.0","11","1","2022-10-07 06:04:20","ebf9627b049f568eb4bf28942cb89901","219.142.99.8","Mozilla/5.0 (Macintosh; Intel Mac OS X 10_15_7) AppleWebKit/537.36 (KHTML, like Gecko) Chrome/101.0.4951.64 Safari/537.36","Macintosh","Chrome","101.0.4951.64","OS X","10_15_7","1370","<strong><p>恭喜你完成了实验！</p><p>感谢您的参与。</p></strong>","0",""
