"success","timeout","failed_images","failed_audio","failed_video","trial_type","trial_index","time_elapsed","internal_node_id","run_id","condition","recorded_at","source_code_version","ip","user_agent","device","browser","browser_version","platform","platform_version","rt","stimulus","response","question_order"
"true","false","[]","[]","[]","preload","0","3249","0.0-0.0","132","1","2022-10-09 15:32:45","ebf9627b049f568eb4bf28942cb89901","115.156.142.197","Mozilla/5.0 (Macintosh; Intel Mac OS X 10_15_7) AppleWebKit/605.1.15 (KHTML, like Gecko) Version/13.1.3 Safari/605.1.15","Macintosh","Safari","13.1.3","OS X","10_15_7","","","",""
"true","","","","","fullscreen","1","6645","0.0-1.0","132","1","2022-10-09 15:32:45","ebf9627b049f568eb4bf28942cb89901","115.156.142.197","Mozilla/5.0 (Macintosh; Intel Mac OS X 10_15_7) AppleWebKit/605.1.15 (KHTML, like Gecko) Version/13.1.3 Safari/605.1.15","Macintosh","Safari","13.1.3","OS X","10_15_7","","","",""
"","","","","","html-button-response","2","27996","0.0-2.0","132","1","2022-10-09 15:32:45","ebf9627b049f568eb4bf28942cb89901","115.156.142.197","Mozilla/5.0 (Macintosh; Intel Mac OS X 10_15_7) AppleWebKit/605.1.15 (KHTML, like Gecko) Version/13.1.3 Safari/605.1.15","Macintosh","Safari","13.1.3","OS X","10_15_7","21347","<p style=""font-size:20px;font-weight:bold;"">实验知情同意书</p><p style=""text-align:left;""><strong>实验名称：</strong>社会冲突研究</p><p style=""text-align:left;""><strong>主要研究者：</strong>韩晓春副教授（北京师范大学心理学部）</p><p style=""text-align:left;""><strong>联系方式：</strong>发送邮件至xiaochun.han@bnu.edu.cn</p><p style=""text-align:left;""><strong>研究目的：</strong>研究旨在了解人类面对群体冲突时的决策方式，以及相关的心理学特质。实验调查大约需要20分钟。</p><p style=""text-align:left;""><strong>实验流程：</strong>实验包含两部分。第一部分呈现一系列群体冲突场景，请你决定如何对这些冲突进行反应，大约需要10分钟完成。第二部分包含一系列人口统计学信息收集和心理学问卷，大约需要10分钟完成。</p><p style=""text-align:left;""><strong>参加及退出规则：</strong>参加本实验完全取决于您的个人意愿。在参与过程中，您可以随时退出，并且不用承担任何后果。</p><p style=""text-align:left;""><strong>隐私：</strong>本实验完全匿名进行，不会收集您的姓名或其他能够识别您身份的信息。实验中收集的作答仅用作科学研究使用，可能会在学术期刊/书籍上发表，或者用于教学，您的数据未来可能会和其他研究者或实验室分享，但您的个人身份不会被识别。</p><p style=""text-align:left;""><strong>实验报酬：</strong>实验完成后，您将获得15元人民币报酬，以感谢您的时间和努力。调查问卷中包含几道题目用以测验您作答时的认真度。只有完成全部实验，并且正确回答认真度测验的被试才能获得实验报酬。实验报酬将通过支付宝转账发放。</p><p style=""text-align:left;font-size:20px;""><strong>如果您同意以上实验知情同意书的内容，请点击'同意并且开始实验'按钮；否则请关闭浏览器界面，退出实验。</strong></p>","0",""
"","","","","","html-button-response","3","39312","0.0-3.0","132","1","2022-10-09 15:32:45","ebf9627b049f568eb4bf28942cb89901","115.156.142.197","Mozilla/5.0 (Macintosh; Intel Mac OS X 10_15_7) AppleWebKit/605.1.15 (KHTML, like Gecko) Version/13.1.3 Safari/605.1.15","Macintosh","Safari","13.1.3","OS X","10_15_7","11313","<p ><strong>实验任务一：</strong></p><p>请想象你的国家与另一个国家发生了军事冲突。</p><p>你是国家军队的指挥官，你将如何在冲突中进行决策。</p><p>具体来说，作为军队指挥官，请你决定是否发射导弹进行打击。</p><p>接下来，你会面对一系列场景，请仔细阅读每个场景，然后进行决策。</p><p>这部分实验任务大约需要10分钟。</p><p><strong>实验过程中，请集中注意力。</strong></p>","0",""
"","","","","","html-keyboard-response","4","40314","0.0-4.0-0.0","132","1","2022-10-09 15:32:45","ebf9627b049f568eb4bf28942cb89901","115.156.142.197","Mozilla/5.0 (Macintosh; Intel Mac OS X 10_15_7) AppleWebKit/605.1.15 (KHTML, like Gecko) Version/13.1.3 Safari/605.1.15","Macintosh","Safari","13.1.3","OS X","10_15_7","null","<div style=""font-size:60px;"">+</div>","null",""
"","","","","","html-button-response","5","50574","0.0-4.0-1.0","132","1","2022-10-09 15:32:45","ebf9627b049f568eb4bf28942cb89901","115.156.142.197","Mozilla/5.0 (Macintosh; Intel Mac OS X 10_15_7) AppleWebKit/605.1.15 (KHTML, like Gecko) Version/13.1.3 Safari/605.1.15","Macintosh","Safari","13.1.3","OS X","10_15_7","10257","<p>作为军队的指挥官，你可以选择发射导弹杀死 <strong>7名</strong> 敌国士兵，但会炸毁附近的 <strong>1棵</strong> 敌国树木。</p> <p>树木的照片如下图所示。</p> <p></p> <img src='stimuli/trees/9.png', style='max-width: 30%;'> </img> <p><strong>你是否选择发射武器？</strong></p>","0",""
"","","","","","html-keyboard-response","6","51578","0.0-4.0-0.1","132","1","2022-10-09 15:32:45","ebf9627b049f568eb4bf28942cb89901","115.156.142.197","Mozilla/5.0 (Macintosh; Intel Mac OS X 10_15_7) AppleWebKit/605.1.15 (KHTML, like Gecko) Version/13.1.3 Safari/605.1.15","Macintosh","Safari","13.1.3","OS X","10_15_7","null","<div style=""font-size:60px;"">+</div>","null",""
"","","","","","html-button-response","7","68587","0.0-4.0-1.1","132","1","2022-10-09 15:32:45","ebf9627b049f568eb4bf28942cb89901","115.156.142.197","Mozilla/5.0 (Macintosh; Intel Mac OS X 10_15_7) AppleWebKit/605.1.15 (KHTML, like Gecko) Version/13.1.3 Safari/605.1.15","Macintosh","Safari","13.1.3","OS X","10_15_7","17005","<p>作为军队的指挥官，你可以选择发射导弹杀死 <strong>7名</strong> 敌国士兵，但会误杀附近的 <strong>1名</strong> 敌国平民。</p> <p>平民照片如下图所示。</p> <p></p> <img src='stimuli/faces/NFM1.jpg', style='max-width: 30%;'> </img> <p><strong>你是否选择发射武器？</strong></p>","0",""
"","","","","","html-keyboard-response","8","69590","0.0-4.0-0.2","132","1","2022-10-09 15:32:45","ebf9627b049f568eb4bf28942cb89901","115.156.142.197","Mozilla/5.0 (Macintosh; Intel Mac OS X 10_15_7) AppleWebKit/605.1.15 (KHTML, like Gecko) Version/13.1.3 Safari/605.1.15","Macintosh","Safari","13.1.3","OS X","10_15_7","null","<div style=""font-size:60px;"">+</div>","null",""
"","","","","","html-button-response","9","88573","0.0-4.0-1.2","132","1","2022-10-09 15:32:45","ebf9627b049f568eb4bf28942cb89901","115.156.142.197","Mozilla/5.0 (Macintosh; Intel Mac OS X 10_15_7) AppleWebKit/605.1.15 (KHTML, like Gecko) Version/13.1.3 Safari/605.1.15","Macintosh","Safari","13.1.3","OS X","10_15_7","18980","<p>作为军队的指挥官，你可以选择发射导弹杀死 <strong>5名</strong> 敌国士兵，但会误杀附近的 <strong>1名</strong> 敌国平民。</p> <p>平民照片如下图所示。</p> <p></p> <img src='stimuli/faces/NFM2.jpg', style='max-width: 30%;'> </img> <p><strong>你是否选择发射武器？</strong></p>","0",""
"","","","","","html-keyboard-response","10","89575","0.0-4.0-0.3","132","1","2022-10-09 15:32:45","ebf9627b049f568eb4bf28942cb89901","115.156.142.197","Mozilla/5.0 (Macintosh; Intel Mac OS X 10_15_7) AppleWebKit/605.1.15 (KHTML, like Gecko) Version/13.1.3 Safari/605.1.15","Macintosh","Safari","13.1.3","OS X","10_15_7","null","<div style=""font-size:60px;"">+</div>","null",""
"","","","","","html-button-response","11","93706","0.0-4.0-1.3","132","1","2022-10-09 15:32:45","ebf9627b049f568eb4bf28942cb89901","115.156.142.197","Mozilla/5.0 (Macintosh; Intel Mac OS X 10_15_7) AppleWebKit/605.1.15 (KHTML, like Gecko) Version/13.1.3 Safari/605.1.15","Macintosh","Safari","13.1.3","OS X","10_15_7","4128","<p>作为军队的指挥官，你可以选择发射导弹杀死 <strong>3名</strong> 敌国士兵，但会炸毁附近的 <strong>1棵</strong> 敌国树木。</p> <p>树木的照片如下图所示。</p> <p></p> <img src='stimuli/trees/7.png', style='max-width: 30%;'> </img> <p><strong>你是否选择发射武器？</strong></p>","0",""
"","","","","","html-keyboard-response","12","94709","0.0-4.0-0.4","132","1","2022-10-09 15:32:45","ebf9627b049f568eb4bf28942cb89901","115.156.142.197","Mozilla/5.0 (Macintosh; Intel Mac OS X 10_15_7) AppleWebKit/605.1.15 (KHTML, like Gecko) Version/13.1.3 Safari/605.1.15","Macintosh","Safari","13.1.3","OS X","10_15_7","null","<div style=""font-size:60px;"">+</div>","null",""
"","","","","","html-button-response","13","98662","0.0-4.0-1.4","132","1","2022-10-09 15:32:45","ebf9627b049f568eb4bf28942cb89901","115.156.142.197","Mozilla/5.0 (Macintosh; Intel Mac OS X 10_15_7) AppleWebKit/605.1.15 (KHTML, like Gecko) Version/13.1.3 Safari/605.1.15","Macintosh","Safari","13.1.3","OS X","10_15_7","3950","<p>作为军队的指挥官，你可以选择发射导弹杀死 <strong>3名</strong> 敌国士兵，但会炸毁附近的 <strong>1棵</strong> 敌国树木。</p> <p>树木的照片如下图所示。</p> <p></p> <img src='stimuli/trees/3.png', style='max-width: 30%;'> </img> <p><strong>你是否选择发射武器？</strong></p>","0",""
"","","","","","html-keyboard-response","14","99671","0.0-4.0-0.5","132","1","2022-10-09 15:32:45","ebf9627b049f568eb4bf28942cb89901","115.156.142.197","Mozilla/5.0 (Macintosh; Intel Mac OS X 10_15_7) AppleWebKit/605.1.15 (KHTML, like Gecko) Version/13.1.3 Safari/605.1.15","Macintosh","Safari","13.1.3","OS X","10_15_7","null","<div style=""font-size:60px;"">+</div>","null",""
"","","","","","html-button-response","15","124996","0.0-4.0-1.5","132","1","2022-10-09 15:32:45","ebf9627b049f568eb4bf28942cb89901","115.156.142.197","Mozilla/5.0 (Macintosh; Intel Mac OS X 10_15_7) AppleWebKit/605.1.15 (KHTML, like Gecko) Version/13.1.3 Safari/605.1.15","Macintosh","Safari","13.1.3","OS X","10_15_7","25321","<p>作为军队的指挥官，你可以选择发射导弹杀死 <strong>4名</strong> 敌国士兵，但会误杀附近的 <strong>1名</strong> 敌国平民。</p> <p>平民照片如下图所示。</p> <p></p> <img src='stimuli/faces/NFF2.jpg', style='max-width: 30%;'> </img> <p><strong>你是否选择发射武器？</strong></p>","0",""
"","","","","","html-keyboard-response","16","125999","0.0-4.0-0.6","132","1","2022-10-09 15:32:45","ebf9627b049f568eb4bf28942cb89901","115.156.142.197","Mozilla/5.0 (Macintosh; Intel Mac OS X 10_15_7) AppleWebKit/605.1.15 (KHTML, like Gecko) Version/13.1.3 Safari/605.1.15","Macintosh","Safari","13.1.3","OS X","10_15_7","null","<div style=""font-size:60px;"">+</div>","null",""
"","","","","","html-button-response","17","130641","0.0-4.0-1.6","132","1","2022-10-09 15:32:45","ebf9627b049f568eb4bf28942cb89901","115.156.142.197","Mozilla/5.0 (Macintosh; Intel Mac OS X 10_15_7) AppleWebKit/605.1.15 (KHTML, like Gecko) Version/13.1.3 Safari/605.1.15","Macintosh","Safari","13.1.3","OS X","10_15_7","4639","<p>作为军队的指挥官，你可以选择发射导弹杀死 <strong>9名</strong> 敌国士兵，但会炸毁附近的 <strong>1棵</strong> 敌国树木。</p> <p>树木的照片如下图所示。</p> <p></p> <img src='stimuli/trees/7.png', style='max-width: 30%;'> </img> <p><strong>你是否选择发射武器？</strong></p>","0",""
"","","","","","html-keyboard-response","18","131643","0.0-4.0-0.7","132","1","2022-10-09 15:32:45","ebf9627b049f568eb4bf28942cb89901","115.156.142.197","Mozilla/5.0 (Macintosh; Intel Mac OS X 10_15_7) AppleWebKit/605.1.15 (KHTML, like Gecko) Version/13.1.3 Safari/605.1.15","Macintosh","Safari","13.1.3","OS X","10_15_7","null","<div style=""font-size:60px;"">+</div>","null",""
"","","","","","html-button-response","19","136795","0.0-4.0-1.7","132","1","2022-10-09 15:32:45","ebf9627b049f568eb4bf28942cb89901","115.156.142.197","Mozilla/5.0 (Macintosh; Intel Mac OS X 10_15_7) AppleWebKit/605.1.15 (KHTML, like Gecko) Version/13.1.3 Safari/605.1.15","Macintosh","Safari","13.1.3","OS X","10_15_7","5148","<p>作为军队的指挥官，你可以选择发射导弹杀死 <strong>1名</strong> 敌国士兵，但会炸毁附近的 <strong>1棵</strong> 敌国树木。</p> <p>树木的照片如下图所示。</p> <p></p> <img src='stimuli/trees/15.png', style='max-width: 30%;'> </img> <p><strong>你是否选择发射武器？</strong></p>","0",""
"","","","","","html-keyboard-response","20","137797","0.0-4.0-0.8","132","1","2022-10-09 15:32:45","ebf9627b049f568eb4bf28942cb89901","115.156.142.197","Mozilla/5.0 (Macintosh; Intel Mac OS X 10_15_7) AppleWebKit/605.1.15 (KHTML, like Gecko) Version/13.1.3 Safari/605.1.15","Macintosh","Safari","13.1.3","OS X","10_15_7","null","<div style=""font-size:60px;"">+</div>","null",""
"","","","","","html-button-response","21","143255","0.0-4.0-1.8","132","1","2022-10-09 15:32:45","ebf9627b049f568eb4bf28942cb89901","115.156.142.197","Mozilla/5.0 (Macintosh; Intel Mac OS X 10_15_7) AppleWebKit/605.1.15 (KHTML, like Gecko) Version/13.1.3 Safari/605.1.15","Macintosh","Safari","13.1.3","OS X","10_15_7","5454","<p>作为军队的指挥官，你可以选择发射导弹杀死 <strong>9名</strong> 敌国士兵，但会炸毁附近的 <strong>1棵</strong> 敌国树木。</p> <p>树木的照片如下图所示。</p> <p></p> <img src='stimuli/trees/12.png', style='max-width: 30%;'> </img> <p><strong>你是否选择发射武器？</strong></p>","0",""
"","","","","","html-keyboard-response","22","144258","0.0-4.0-0.9","132","1","2022-10-09 15:32:45","ebf9627b049f568eb4bf28942cb89901","115.156.142.197","Mozilla/5.0 (Macintosh; Intel Mac OS X 10_15_7) AppleWebKit/605.1.15 (KHTML, like Gecko) Version/13.1.3 Safari/605.1.15","Macintosh","Safari","13.1.3","OS X","10_15_7","null","<div style=""font-size:60px;"">+</div>","null",""
"","","","","","html-button-response","23","148772","0.0-4.0-1.9","132","1","2022-10-09 15:32:45","ebf9627b049f568eb4bf28942cb89901","115.156.142.197","Mozilla/5.0 (Macintosh; Intel Mac OS X 10_15_7) AppleWebKit/605.1.15 (KHTML, like Gecko) Version/13.1.3 Safari/605.1.15","Macintosh","Safari","13.1.3","OS X","10_15_7","4512","<p>作为军队的指挥官，你可以选择发射导弹杀死 <strong>4名</strong> 敌国士兵，但会炸毁附近的 <strong>1棵</strong> 敌国树木。</p> <p>树木的照片如下图所示。</p> <p></p> <img src='stimuli/trees/4.png', style='max-width: 30%;'> </img> <p><strong>你是否选择发射武器？</strong></p>","0",""
"","","","","","html-keyboard-response","24","149776","0.0-4.0-0.10","132","1","2022-10-09 15:32:45","ebf9627b049f568eb4bf28942cb89901","115.156.142.197","Mozilla/5.0 (Macintosh; Intel Mac OS X 10_15_7) AppleWebKit/605.1.15 (KHTML, like Gecko) Version/13.1.3 Safari/605.1.15","Macintosh","Safari","13.1.3","OS X","10_15_7","null","<div style=""font-size:60px;"">+</div>","null",""
"","","","","","html-button-response","25","152645","0.0-4.0-1.10","132","1","2022-10-09 15:32:45","ebf9627b049f568eb4bf28942cb89901","115.156.142.197","Mozilla/5.0 (Macintosh; Intel Mac OS X 10_15_7) AppleWebKit/605.1.15 (KHTML, like Gecko) Version/13.1.3 Safari/605.1.15","Macintosh","Safari","13.1.3","OS X","10_15_7","2865","<p>作为军队的指挥官，你可以选择发射导弹杀死 <strong>9名</strong> 敌国士兵，但会炸毁附近的 <strong>1棵</strong> 敌国树木。</p> <p>树木的照片如下图所示。</p> <p></p> <img src='stimuli/trees/15.png', style='max-width: 30%;'> </img> <p><strong>你是否选择发射武器？</strong></p>","0",""
"","","","","","html-keyboard-response","26","153648","0.0-4.0-0.11","132","1","2022-10-09 15:32:45","ebf9627b049f568eb4bf28942cb89901","115.156.142.197","Mozilla/5.0 (Macintosh; Intel Mac OS X 10_15_7) AppleWebKit/605.1.15 (KHTML, like Gecko) Version/13.1.3 Safari/605.1.15","Macintosh","Safari","13.1.3","OS X","10_15_7","null","<div style=""font-size:60px;"">+</div>","null",""
"","","","","","html-button-response","27","159361","0.0-4.0-1.11","132","1","2022-10-09 15:32:45","ebf9627b049f568eb4bf28942cb89901","115.156.142.197","Mozilla/5.0 (Macintosh; Intel Mac OS X 10_15_7) AppleWebKit/605.1.15 (KHTML, like Gecko) Version/13.1.3 Safari/605.1.15","Macintosh","Safari","13.1.3","OS X","10_15_7","5709","<p>作为军队的指挥官，你可以选择发射导弹杀死 <strong>2名</strong> 敌国士兵，但会炸毁附近的 <strong>1棵</strong> 敌国树木。</p> <p>树木的照片如下图所示。</p> <p></p> <img src='stimuli/trees/6.png', style='max-width: 30%;'> </img> <p><strong>你是否选择发射武器？</strong></p>","0",""
"","","","","","html-keyboard-response","28","160369","0.0-4.0-0.12","132","1","2022-10-09 15:32:45","ebf9627b049f568eb4bf28942cb89901","115.156.142.197","Mozilla/5.0 (Macintosh; Intel Mac OS X 10_15_7) AppleWebKit/605.1.15 (KHTML, like Gecko) Version/13.1.3 Safari/605.1.15","Macintosh","Safari","13.1.3","OS X","10_15_7","null","<div style=""font-size:60px;"">+</div>","null",""
"","","","","","html-button-response","29","167040","0.0-4.0-1.12","132","1","2022-10-09 15:32:45","ebf9627b049f568eb4bf28942cb89901","115.156.142.197","Mozilla/5.0 (Macintosh; Intel Mac OS X 10_15_7) AppleWebKit/605.1.15 (KHTML, like Gecko) Version/13.1.3 Safari/605.1.15","Macintosh","Safari","13.1.3","OS X","10_15_7","6667","<p>作为军队的指挥官，你可以选择发射导弹杀死 <strong>3名</strong> 敌国士兵，但会误杀附近的 <strong>1名</strong> 敌国平民。</p> <p>平民照片如下图所示。</p> <p></p> <img src='stimuli/faces/NFM8.jpg', style='max-width: 30%;'> </img> <p><strong>你是否选择发射武器？</strong></p>","0",""
"","","","","","html-keyboard-response","30","168042","0.0-4.0-0.13","132","1","2022-10-09 15:32:45","ebf9627b049f568eb4bf28942cb89901","115.156.142.197","Mozilla/5.0 (Macintosh; Intel Mac OS X 10_15_7) AppleWebKit/605.1.15 (KHTML, like Gecko) Version/13.1.3 Safari/605.1.15","Macintosh","Safari","13.1.3","OS X","10_15_7","null","<div style=""font-size:60px;"">+</div>","null",""
"","","","","","html-button-response","31","174266","0.0-4.0-1.13","132","1","2022-10-09 15:32:45","ebf9627b049f568eb4bf28942cb89901","115.156.142.197","Mozilla/5.0 (Macintosh; Intel Mac OS X 10_15_7) AppleWebKit/605.1.15 (KHTML, like Gecko) Version/13.1.3 Safari/605.1.15","Macintosh","Safari","13.1.3","OS X","10_15_7","6221","<p>作为军队的指挥官，你可以选择发射导弹杀死 <strong>6名</strong> 敌国士兵，但会误杀附近的 <strong>1名</strong> 敌国平民。</p> <p>平民照片如下图所示。</p> <p></p> <img src='stimuli/faces/NFM7.jpg', style='max-width: 30%;'> </img> <p><strong>你是否选择发射武器？</strong></p>","0",""
"","","","","","html-keyboard-response","32","175269","0.0-4.0-0.14","132","1","2022-10-09 15:32:45","ebf9627b049f568eb4bf28942cb89901","115.156.142.197","Mozilla/5.0 (Macintosh; Intel Mac OS X 10_15_7) AppleWebKit/605.1.15 (KHTML, like Gecko) Version/13.1.3 Safari/605.1.15","Macintosh","Safari","13.1.3","OS X","10_15_7","null","<div style=""font-size:60px;"">+</div>","null",""
"","","","","","html-button-response","33","196959","0.0-4.0-1.14","132","1","2022-10-09 15:32:45","ebf9627b049f568eb4bf28942cb89901","115.156.142.197","Mozilla/5.0 (Macintosh; Intel Mac OS X 10_15_7) AppleWebKit/605.1.15 (KHTML, like Gecko) Version/13.1.3 Safari/605.1.15","Macintosh","Safari","13.1.3","OS X","10_15_7","21686","<p>作为军队的指挥官，你可以选择发射导弹杀死 <strong>1名</strong> 敌国士兵，但会误杀附近的 <strong>1名</strong> 敌国平民。</p> <p>平民照片如下图所示。</p> <p></p> <img src='stimuli/faces/NFM5.jpg', style='max-width: 30%;'> </img> <p><strong>你是否选择发射武器？</strong></p>","1",""
"","","","","","html-keyboard-response","34","197962","0.0-4.0-0.15","132","1","2022-10-09 15:32:45","ebf9627b049f568eb4bf28942cb89901","115.156.142.197","Mozilla/5.0 (Macintosh; Intel Mac OS X 10_15_7) AppleWebKit/605.1.15 (KHTML, like Gecko) Version/13.1.3 Safari/605.1.15","Macintosh","Safari","13.1.3","OS X","10_15_7","null","<div style=""font-size:60px;"">+</div>","null",""
"","","","","","html-button-response","35","202140","0.0-4.0-1.15","132","1","2022-10-09 15:32:45","ebf9627b049f568eb4bf28942cb89901","115.156.142.197","Mozilla/5.0 (Macintosh; Intel Mac OS X 10_15_7) AppleWebKit/605.1.15 (KHTML, like Gecko) Version/13.1.3 Safari/605.1.15","Macintosh","Safari","13.1.3","OS X","10_15_7","4174","<p>作为军队的指挥官，你可以选择发射导弹杀死 <strong>3名</strong> 敌国士兵，但会炸毁附近的 <strong>1棵</strong> 敌国树木。</p> <p>树木的照片如下图所示。</p> <p></p> <img src='stimuli/trees/14.png', style='max-width: 30%;'> </img> <p><strong>你是否选择发射武器？</strong></p>","0",""
"","","","","","html-keyboard-response","36","203143","0.0-4.0-0.16","132","1","2022-10-09 15:32:45","ebf9627b049f568eb4bf28942cb89901","115.156.142.197","Mozilla/5.0 (Macintosh; Intel Mac OS X 10_15_7) AppleWebKit/605.1.15 (KHTML, like Gecko) Version/13.1.3 Safari/605.1.15","Macintosh","Safari","13.1.3","OS X","10_15_7","null","<div style=""font-size:60px;"">+</div>","null",""
"","","","","","html-button-response","37","209381","0.0-4.0-1.16","132","1","2022-10-09 15:32:45","ebf9627b049f568eb4bf28942cb89901","115.156.142.197","Mozilla/5.0 (Macintosh; Intel Mac OS X 10_15_7) AppleWebKit/605.1.15 (KHTML, like Gecko) Version/13.1.3 Safari/605.1.15","Macintosh","Safari","13.1.3","OS X","10_15_7","6234","<p>作为军队的指挥官，你可以选择发射导弹杀死 <strong>1名</strong> 敌国士兵，但会炸毁附近的 <strong>1棵</strong> 敌国树木。</p> <p>树木的照片如下图所示。</p> <p></p> <img src='stimuli/trees/12.png', style='max-width: 30%;'> </img> <p><strong>你是否选择发射武器？</strong></p>","0",""
"","","","","","html-keyboard-response","38","210385","0.0-4.0-0.17","132","1","2022-10-09 15:32:45","ebf9627b049f568eb4bf28942cb89901","115.156.142.197","Mozilla/5.0 (Macintosh; Intel Mac OS X 10_15_7) AppleWebKit/605.1.15 (KHTML, like Gecko) Version/13.1.3 Safari/605.1.15","Macintosh","Safari","13.1.3","OS X","10_15_7","null","<div style=""font-size:60px;"">+</div>","null",""
"","","","","","html-button-response","39","212533","0.0-4.0-1.17","132","1","2022-10-09 15:32:45","ebf9627b049f568eb4bf28942cb89901","115.156.142.197","Mozilla/5.0 (Macintosh; Intel Mac OS X 10_15_7) AppleWebKit/605.1.15 (KHTML, like Gecko) Version/13.1.3 Safari/605.1.15","Macintosh","Safari","13.1.3","OS X","10_15_7","2143","<p>作为军队的指挥官，你可以选择发射导弹杀死 <strong>6名</strong> 敌国士兵，但会炸毁附近的 <strong>1棵</strong> 敌国树木。</p> <p>树木的照片如下图所示。</p> <p></p> <img src='stimuli/trees/5.png', style='max-width: 30%;'> </img> <p><strong>你是否选择发射武器？</strong></p>","0",""
"","","","","","html-keyboard-response","40","213536","0.0-4.0-0.18","132","1","2022-10-09 15:32:45","ebf9627b049f568eb4bf28942cb89901","115.156.142.197","Mozilla/5.0 (Macintosh; Intel Mac OS X 10_15_7) AppleWebKit/605.1.15 (KHTML, like Gecko) Version/13.1.3 Safari/605.1.15","Macintosh","Safari","13.1.3","OS X","10_15_7","null","<div style=""font-size:60px;"">+</div>","null",""
"","","","","","html-button-response","41","217889","0.0-4.0-1.18","132","1","2022-10-09 15:32:45","ebf9627b049f568eb4bf28942cb89901","115.156.142.197","Mozilla/5.0 (Macintosh; Intel Mac OS X 10_15_7) AppleWebKit/605.1.15 (KHTML, like Gecko) Version/13.1.3 Safari/605.1.15","Macintosh","Safari","13.1.3","OS X","10_15_7","4349","<p>作为军队的指挥官，你可以选择发射导弹杀死 <strong>8名</strong> 敌国士兵，但会误杀附近的 <strong>1名</strong> 敌国平民。</p> <p>平民照片如下图所示。</p> <p></p> <img src='stimuli/faces/NFF5.jpg', style='max-width: 30%;'> </img> <p><strong>你是否选择发射武器？</strong></p>","0",""
"","","","","","html-keyboard-response","42","218891","0.0-4.0-0.19","132","1","2022-10-09 15:32:45","ebf9627b049f568eb4bf28942cb89901","115.156.142.197","Mozilla/5.0 (Macintosh; Intel Mac OS X 10_15_7) AppleWebKit/605.1.15 (KHTML, like Gecko) Version/13.1.3 Safari/605.1.15","Macintosh","Safari","13.1.3","OS X","10_15_7","null","<div style=""font-size:60px;"">+</div>","null",""
"","","","","","html-button-response","43","225539","0.0-4.0-1.19","132","1","2022-10-09 15:32:45","ebf9627b049f568eb4bf28942cb89901","115.156.142.197","Mozilla/5.0 (Macintosh; Intel Mac OS X 10_15_7) AppleWebKit/605.1.15 (KHTML, like Gecko) Version/13.1.3 Safari/605.1.15","Macintosh","Safari","13.1.3","OS X","10_15_7","6643","<p>作为军队的指挥官，你可以选择发射导弹杀死 <strong>5名</strong> 敌国士兵，但会误杀附近的 <strong>1名</strong> 敌国平民。</p> <p>平民照片如下图所示。</p> <p></p> <img src='stimuli/faces/NFF8.jpg', style='max-width: 30%;'> </img> <p><strong>你是否选择发射武器？</strong></p>","0",""
"","","","","","html-keyboard-response","44","226542","0.0-4.0-0.20","132","1","2022-10-09 15:32:45","ebf9627b049f568eb4bf28942cb89901","115.156.142.197","Mozilla/5.0 (Macintosh; Intel Mac OS X 10_15_7) AppleWebKit/605.1.15 (KHTML, like Gecko) Version/13.1.3 Safari/605.1.15","Macintosh","Safari","13.1.3","OS X","10_15_7","null","<div style=""font-size:60px;"">+</div>","null",""
"","","","","","html-button-response","45","228522","0.0-4.0-1.20","132","1","2022-10-09 15:32:45","ebf9627b049f568eb4bf28942cb89901","115.156.142.197","Mozilla/5.0 (Macintosh; Intel Mac OS X 10_15_7) AppleWebKit/605.1.15 (KHTML, like Gecko) Version/13.1.3 Safari/605.1.15","Macintosh","Safari","13.1.3","OS X","10_15_7","1976","<p>作为军队的指挥官，你可以选择发射导弹杀死 <strong>9名</strong> 敌国士兵，但会炸毁附近的 <strong>1棵</strong> 敌国树木。</p> <p>树木的照片如下图所示。</p> <p></p> <img src='stimuli/trees/6.png', style='max-width: 30%;'> </img> <p><strong>你是否选择发射武器？</strong></p>","0",""
"","","","","","html-keyboard-response","46","229527","0.0-4.0-0.21","132","1","2022-10-09 15:32:45","ebf9627b049f568eb4bf28942cb89901","115.156.142.197","Mozilla/5.0 (Macintosh; Intel Mac OS X 10_15_7) AppleWebKit/605.1.15 (KHTML, like Gecko) Version/13.1.3 Safari/605.1.15","Macintosh","Safari","13.1.3","OS X","10_15_7","null","<div style=""font-size:60px;"">+</div>","null",""
"","","","","","html-button-response","47","240897","0.0-4.0-1.21","132","1","2022-10-09 15:32:45","ebf9627b049f568eb4bf28942cb89901","115.156.142.197","Mozilla/5.0 (Macintosh; Intel Mac OS X 10_15_7) AppleWebKit/605.1.15 (KHTML, like Gecko) Version/13.1.3 Safari/605.1.15","Macintosh","Safari","13.1.3","OS X","10_15_7","11365","<p>作为军队的指挥官，你可以选择发射导弹杀死 <strong>7名</strong> 敌国士兵，但会误杀附近的 <strong>1名</strong> 敌国平民。</p> <p>平民照片如下图所示。</p> <p></p> <img src='stimuli/faces/NFF4.jpg', style='max-width: 30%;'> </img> <p><strong>你是否选择发射武器？</strong></p>","0",""
"","","","","","html-keyboard-response","48","241900","0.0-4.0-0.22","132","1","2022-10-09 15:32:45","ebf9627b049f568eb4bf28942cb89901","115.156.142.197","Mozilla/5.0 (Macintosh; Intel Mac OS X 10_15_7) AppleWebKit/605.1.15 (KHTML, like Gecko) Version/13.1.3 Safari/605.1.15","Macintosh","Safari","13.1.3","OS X","10_15_7","null","<div style=""font-size:60px;"">+</div>","null",""
"","","","","","html-button-response","49","245064","0.0-4.0-1.22","132","1","2022-10-09 15:32:45","ebf9627b049f568eb4bf28942cb89901","115.156.142.197","Mozilla/5.0 (Macintosh; Intel Mac OS X 10_15_7) AppleWebKit/605.1.15 (KHTML, like Gecko) Version/13.1.3 Safari/605.1.15","Macintosh","Safari","13.1.3","OS X","10_15_7","3160","<p>作为军队的指挥官，你可以选择发射导弹杀死 <strong>7名</strong> 敌国士兵，但会误杀附近的 <strong>1名</strong> 敌国平民。</p> <p>平民照片如下图所示。</p> <p></p> <img src='stimuli/faces/NFF8.jpg', style='max-width: 30%;'> </img> <p><strong>你是否选择发射武器？</strong></p>","0",""
"","","","","","html-keyboard-response","50","246068","0.0-4.0-0.23","132","1","2022-10-09 15:32:45","ebf9627b049f568eb4bf28942cb89901","115.156.142.197","Mozilla/5.0 (Macintosh; Intel Mac OS X 10_15_7) AppleWebKit/605.1.15 (KHTML, like Gecko) Version/13.1.3 Safari/605.1.15","Macintosh","Safari","13.1.3","OS X","10_15_7","null","<div style=""font-size:60px;"">+</div>","null",""
"","","","","","html-button-response","51","249237","0.0-4.0-1.23","132","1","2022-10-09 15:32:45","ebf9627b049f568eb4bf28942cb89901","115.156.142.197","Mozilla/5.0 (Macintosh; Intel Mac OS X 10_15_7) AppleWebKit/605.1.15 (KHTML, like Gecko) Version/13.1.3 Safari/605.1.15","Macintosh","Safari","13.1.3","OS X","10_15_7","3164","<p>作为军队的指挥官，你可以选择发射导弹杀死 <strong>6名</strong> 敌国士兵，但会炸毁附近的 <strong>1棵</strong> 敌国树木。</p> <p>树木的照片如下图所示。</p> <p></p> <img src='stimuli/trees/3.png', style='max-width: 30%;'> </img> <p><strong>你是否选择发射武器？</strong></p>","0",""
"","","","","","html-keyboard-response","52","250239","0.0-4.0-0.24","132","1","2022-10-09 15:32:45","ebf9627b049f568eb4bf28942cb89901","115.156.142.197","Mozilla/5.0 (Macintosh; Intel Mac OS X 10_15_7) AppleWebKit/605.1.15 (KHTML, like Gecko) Version/13.1.3 Safari/605.1.15","Macintosh","Safari","13.1.3","OS X","10_15_7","null","<div style=""font-size:60px;"">+</div>","null",""
"","","","","","html-button-response","53","252286","0.0-4.0-1.24","132","1","2022-10-09 15:32:45","ebf9627b049f568eb4bf28942cb89901","115.156.142.197","Mozilla/5.0 (Macintosh; Intel Mac OS X 10_15_7) AppleWebKit/605.1.15 (KHTML, like Gecko) Version/13.1.3 Safari/605.1.15","Macintosh","Safari","13.1.3","OS X","10_15_7","2043","<p>作为军队的指挥官，你可以选择发射导弹杀死 <strong>7名</strong> 敌国士兵，但会误杀附近的 <strong>1名</strong> 敌国平民。</p> <p>平民照片如下图所示。</p> <p></p> <img src='stimuli/faces/NFM5.jpg', style='max-width: 30%;'> </img> <p><strong>你是否选择发射武器？</strong></p>","0",""
"","","","","","html-keyboard-response","54","253289","0.0-4.0-0.25","132","1","2022-10-09 15:32:45","ebf9627b049f568eb4bf28942cb89901","115.156.142.197","Mozilla/5.0 (Macintosh; Intel Mac OS X 10_15_7) AppleWebKit/605.1.15 (KHTML, like Gecko) Version/13.1.3 Safari/605.1.15","Macintosh","Safari","13.1.3","OS X","10_15_7","null","<div style=""font-size:60px;"">+</div>","null",""
"","","","","","html-button-response","55","255602","0.0-4.0-1.25","132","1","2022-10-09 15:32:45","ebf9627b049f568eb4bf28942cb89901","115.156.142.197","Mozilla/5.0 (Macintosh; Intel Mac OS X 10_15_7) AppleWebKit/605.1.15 (KHTML, like Gecko) Version/13.1.3 Safari/605.1.15","Macintosh","Safari","13.1.3","OS X","10_15_7","2308","<p>作为军队的指挥官，你可以选择发射导弹杀死 <strong>10名</strong> 敌国士兵，但会误杀附近的 <strong>1名</strong> 敌国平民。</p> <p>平民照片如下图所示。</p> <p></p> <img src='stimuli/faces/NFF6.jpg', style='max-width: 30%;'> </img> <p><strong>你是否选择发射武器？</strong></p>","0",""
"","","","","","html-keyboard-response","56","256606","0.0-4.0-0.26","132","1","2022-10-09 15:32:45","ebf9627b049f568eb4bf28942cb89901","115.156.142.197","Mozilla/5.0 (Macintosh; Intel Mac OS X 10_15_7) AppleWebKit/605.1.15 (KHTML, like Gecko) Version/13.1.3 Safari/605.1.15","Macintosh","Safari","13.1.3","OS X","10_15_7","null","<div style=""font-size:60px;"">+</div>","null",""
"","","","","","html-button-response","57","259099","0.0-4.0-1.26","132","1","2022-10-09 15:32:45","ebf9627b049f568eb4bf28942cb89901","115.156.142.197","Mozilla/5.0 (Macintosh; Intel Mac OS X 10_15_7) AppleWebKit/605.1.15 (KHTML, like Gecko) Version/13.1.3 Safari/605.1.15","Macintosh","Safari","13.1.3","OS X","10_15_7","2489","<p>作为军队的指挥官，你可以选择发射导弹杀死 <strong>5名</strong> 敌国士兵，但会误杀附近的 <strong>1名</strong> 敌国平民。</p> <p>平民照片如下图所示。</p> <p></p> <img src='stimuli/faces/NFF4.jpg', style='max-width: 30%;'> </img> <p><strong>你是否选择发射武器？</strong></p>","0",""
"","","","","","html-keyboard-response","58","260102","0.0-4.0-0.27","132","1","2022-10-09 15:32:45","ebf9627b049f568eb4bf28942cb89901","115.156.142.197","Mozilla/5.0 (Macintosh; Intel Mac OS X 10_15_7) AppleWebKit/605.1.15 (KHTML, like Gecko) Version/13.1.3 Safari/605.1.15","Macintosh","Safari","13.1.3","OS X","10_15_7","null","<div style=""font-size:60px;"">+</div>","null",""
"","","","","","html-button-response","59","262043","0.0-4.0-1.27","132","1","2022-10-09 15:32:45","ebf9627b049f568eb4bf28942cb89901","115.156.142.197","Mozilla/5.0 (Macintosh; Intel Mac OS X 10_15_7) AppleWebKit/605.1.15 (KHTML, like Gecko) Version/13.1.3 Safari/605.1.15","Macintosh","Safari","13.1.3","OS X","10_15_7","1937","<p>作为军队的指挥官，你可以选择发射导弹杀死 <strong>6名</strong> 敌国士兵，但会炸毁附近的 <strong>1棵</strong> 敌国树木。</p> <p>树木的照片如下图所示。</p> <p></p> <img src='stimuli/trees/16.png', style='max-width: 30%;'> </img> <p><strong>你是否选择发射武器？</strong></p>","0",""
"","","","","","html-keyboard-response","60","263048","0.0-4.0-0.28","132","1","2022-10-09 15:32:45","ebf9627b049f568eb4bf28942cb89901","115.156.142.197","Mozilla/5.0 (Macintosh; Intel Mac OS X 10_15_7) AppleWebKit/605.1.15 (KHTML, like Gecko) Version/13.1.3 Safari/605.1.15","Macintosh","Safari","13.1.3","OS X","10_15_7","null","<div style=""font-size:60px;"">+</div>","null",""
"","","","","","html-button-response","61","265934","0.0-4.0-1.28","132","1","2022-10-09 15:32:45","ebf9627b049f568eb4bf28942cb89901","115.156.142.197","Mozilla/5.0 (Macintosh; Intel Mac OS X 10_15_7) AppleWebKit/605.1.15 (KHTML, like Gecko) Version/13.1.3 Safari/605.1.15","Macintosh","Safari","13.1.3","OS X","10_15_7","2882","<p>作为军队的指挥官，你可以选择发射导弹杀死 <strong>10名</strong> 敌国士兵，但会误杀附近的 <strong>1名</strong> 敌国平民。</p> <p>平民照片如下图所示。</p> <p></p> <img src='stimuli/faces/NFF1.jpg', style='max-width: 30%;'> </img> <p><strong>你是否选择发射武器？</strong></p>","0",""
"","","","","","html-keyboard-response","62","266937","0.0-4.0-0.29","132","1","2022-10-09 15:32:45","ebf9627b049f568eb4bf28942cb89901","115.156.142.197","Mozilla/5.0 (Macintosh; Intel Mac OS X 10_15_7) AppleWebKit/605.1.15 (KHTML, like Gecko) Version/13.1.3 Safari/605.1.15","Macintosh","Safari","13.1.3","OS X","10_15_7","null","<div style=""font-size:60px;"">+</div>","null",""
"","","","","","html-button-response","63","268832","0.0-4.0-1.29","132","1","2022-10-09 15:32:45","ebf9627b049f568eb4bf28942cb89901","115.156.142.197","Mozilla/5.0 (Macintosh; Intel Mac OS X 10_15_7) AppleWebKit/605.1.15 (KHTML, like Gecko) Version/13.1.3 Safari/605.1.15","Macintosh","Safari","13.1.3","OS X","10_15_7","1890","<p>作为军队的指挥官，你可以选择发射导弹杀死 <strong>4名</strong> 敌国士兵，但会误杀附近的 <strong>1名</strong> 敌国平民。</p> <p>平民照片如下图所示。</p> <p></p> <img src='stimuli/faces/NFM4.jpg', style='max-width: 30%;'> </img> <p><strong>你是否选择发射武器？</strong></p>","0",""
"","","","","","html-keyboard-response","64","269835","0.0-4.0-0.30","132","1","2022-10-09 15:32:45","ebf9627b049f568eb4bf28942cb89901","115.156.142.197","Mozilla/5.0 (Macintosh; Intel Mac OS X 10_15_7) AppleWebKit/605.1.15 (KHTML, like Gecko) Version/13.1.3 Safari/605.1.15","Macintosh","Safari","13.1.3","OS X","10_15_7","null","<div style=""font-size:60px;"">+</div>","null",""
"","","","","","html-button-response","65","271817","0.0-4.0-1.30","132","1","2022-10-09 15:32:45","ebf9627b049f568eb4bf28942cb89901","115.156.142.197","Mozilla/5.0 (Macintosh; Intel Mac OS X 10_15_7) AppleWebKit/605.1.15 (KHTML, like Gecko) Version/13.1.3 Safari/605.1.15","Macintosh","Safari","13.1.3","OS X","10_15_7","1973","<p>作为军队的指挥官，你可以选择发射导弹杀死 <strong>7名</strong> 敌国士兵，但会炸毁附近的 <strong>1棵</strong> 敌国树木。</p> <p>树木的照片如下图所示。</p> <p></p> <img src='stimuli/trees/13.png', style='max-width: 30%;'> </img> <p><strong>你是否选择发射武器？</strong></p>","0",""
"","","","","","html-keyboard-response","66","272820","0.0-4.0-0.31","132","1","2022-10-09 15:32:45","ebf9627b049f568eb4bf28942cb89901","115.156.142.197","Mozilla/5.0 (Macintosh; Intel Mac OS X 10_15_7) AppleWebKit/605.1.15 (KHTML, like Gecko) Version/13.1.3 Safari/605.1.15","Macintosh","Safari","13.1.3","OS X","10_15_7","null","<div style=""font-size:60px;"">+</div>","null",""
"","","","","","html-button-response","67","276844","0.0-4.0-1.31","132","1","2022-10-09 15:32:45","ebf9627b049f568eb4bf28942cb89901","115.156.142.197","Mozilla/5.0 (Macintosh; Intel Mac OS X 10_15_7) AppleWebKit/605.1.15 (KHTML, like Gecko) Version/13.1.3 Safari/605.1.15","Macintosh","Safari","13.1.3","OS X","10_15_7","4018","<p>作为军队的指挥官，你可以选择发射导弹杀死 <strong>1名</strong> 敌国士兵，但会炸毁附近的 <strong>1棵</strong> 敌国树木。</p> <p>树木的照片如下图所示。</p> <p></p> <img src='stimuli/trees/5.png', style='max-width: 30%;'> </img> <p><strong>你是否选择发射武器？</strong></p>","0",""
"","","","","","html-keyboard-response","68","277848","0.0-4.0-0.32","132","1","2022-10-09 15:32:45","ebf9627b049f568eb4bf28942cb89901","115.156.142.197","Mozilla/5.0 (Macintosh; Intel Mac OS X 10_15_7) AppleWebKit/605.1.15 (KHTML, like Gecko) Version/13.1.3 Safari/605.1.15","Macintosh","Safari","13.1.3","OS X","10_15_7","null","<div style=""font-size:60px;"">+</div>","null",""
"","","","","","html-button-response","69","280169","0.0-4.0-1.32","132","1","2022-10-09 15:32:45","ebf9627b049f568eb4bf28942cb89901","115.156.142.197","Mozilla/5.0 (Macintosh; Intel Mac OS X 10_15_7) AppleWebKit/605.1.15 (KHTML, like Gecko) Version/13.1.3 Safari/605.1.15","Macintosh","Safari","13.1.3","OS X","10_15_7","2317","<p>作为军队的指挥官，你可以选择发射导弹杀死 <strong>7名</strong> 敌国士兵，但会炸毁附近的 <strong>1棵</strong> 敌国树木。</p> <p>树木的照片如下图所示。</p> <p></p> <img src='stimuli/trees/2.png', style='max-width: 30%;'> </img> <p><strong>你是否选择发射武器？</strong></p>","0",""
"","","","","","html-keyboard-response","70","281173","0.0-4.0-0.33","132","1","2022-10-09 15:32:45","ebf9627b049f568eb4bf28942cb89901","115.156.142.197","Mozilla/5.0 (Macintosh; Intel Mac OS X 10_15_7) AppleWebKit/605.1.15 (KHTML, like Gecko) Version/13.1.3 Safari/605.1.15","Macintosh","Safari","13.1.3","OS X","10_15_7","null","<div style=""font-size:60px;"">+</div>","null",""
"","","","","","html-button-response","71","283143","0.0-4.0-1.33","132","1","2022-10-09 15:32:45","ebf9627b049f568eb4bf28942cb89901","115.156.142.197","Mozilla/5.0 (Macintosh; Intel Mac OS X 10_15_7) AppleWebKit/605.1.15 (KHTML, like Gecko) Version/13.1.3 Safari/605.1.15","Macintosh","Safari","13.1.3","OS X","10_15_7","1965","<p>作为军队的指挥官，你可以选择发射导弹杀死 <strong>7名</strong> 敌国士兵，但会误杀附近的 <strong>1名</strong> 敌国平民。</p> <p>平民照片如下图所示。</p> <p></p> <img src='stimuli/faces/NFF3.jpg', style='max-width: 30%;'> </img> <p><strong>你是否选择发射武器？</strong></p>","0",""
"","","","","","html-keyboard-response","72","284147","0.0-4.0-0.34","132","1","2022-10-09 15:32:45","ebf9627b049f568eb4bf28942cb89901","115.156.142.197","Mozilla/5.0 (Macintosh; Intel Mac OS X 10_15_7) AppleWebKit/605.1.15 (KHTML, like Gecko) Version/13.1.3 Safari/605.1.15","Macintosh","Safari","13.1.3","OS X","10_15_7","null","<div style=""font-size:60px;"">+</div>","null",""
"","","","","","html-button-response","73","286327","0.0-4.0-1.34","132","1","2022-10-09 15:32:45","ebf9627b049f568eb4bf28942cb89901","115.156.142.197","Mozilla/5.0 (Macintosh; Intel Mac OS X 10_15_7) AppleWebKit/605.1.15 (KHTML, like Gecko) Version/13.1.3 Safari/605.1.15","Macintosh","Safari","13.1.3","OS X","10_15_7","2174","<p>作为军队的指挥官，你可以选择发射导弹杀死 <strong>2名</strong> 敌国士兵，但会炸毁附近的 <strong>1棵</strong> 敌国树木。</p> <p>树木的照片如下图所示。</p> <p></p> <img src='stimuli/trees/10.png', style='max-width: 30%;'> </img> <p><strong>你是否选择发射武器？</strong></p>","0",""
"","","","","","html-keyboard-response","74","287331","0.0-4.0-0.35","132","1","2022-10-09 15:32:45","ebf9627b049f568eb4bf28942cb89901","115.156.142.197","Mozilla/5.0 (Macintosh; Intel Mac OS X 10_15_7) AppleWebKit/605.1.15 (KHTML, like Gecko) Version/13.1.3 Safari/605.1.15","Macintosh","Safari","13.1.3","OS X","10_15_7","null","<div style=""font-size:60px;"">+</div>","null",""
"","","","","","html-button-response","75","289561","0.0-4.0-1.35","132","1","2022-10-09 15:32:45","ebf9627b049f568eb4bf28942cb89901","115.156.142.197","Mozilla/5.0 (Macintosh; Intel Mac OS X 10_15_7) AppleWebKit/605.1.15 (KHTML, like Gecko) Version/13.1.3 Safari/605.1.15","Macintosh","Safari","13.1.3","OS X","10_15_7","2225","<p>作为军队的指挥官，你可以选择发射导弹杀死 <strong>10名</strong> 敌国士兵，但会误杀附近的 <strong>1名</strong> 敌国平民。</p> <p>平民照片如下图所示。</p> <p></p> <img src='stimuli/faces/NFF7.jpg', style='max-width: 30%;'> </img> <p><strong>你是否选择发射武器？</strong></p>","0",""
"","","","","","html-keyboard-response","76","290565","0.0-4.0-0.36","132","1","2022-10-09 15:32:45","ebf9627b049f568eb4bf28942cb89901","115.156.142.197","Mozilla/5.0 (Macintosh; Intel Mac OS X 10_15_7) AppleWebKit/605.1.15 (KHTML, like Gecko) Version/13.1.3 Safari/605.1.15","Macintosh","Safari","13.1.3","OS X","10_15_7","null","<div style=""font-size:60px;"">+</div>","null",""
"","","","","","html-button-response","77","298508","0.0-4.0-1.36","132","1","2022-10-09 15:32:45","ebf9627b049f568eb4bf28942cb89901","115.156.142.197","Mozilla/5.0 (Macintosh; Intel Mac OS X 10_15_7) AppleWebKit/605.1.15 (KHTML, like Gecko) Version/13.1.3 Safari/605.1.15","Macintosh","Safari","13.1.3","OS X","10_15_7","7939","<p>作为军队的指挥官，你可以选择发射导弹杀死 <strong>2名</strong> 敌国士兵，但会误杀附近的 <strong>1名</strong> 敌国平民。</p> <p>平民照片如下图所示。</p> <p></p> <img src='stimuli/faces/NFM7.jpg', style='max-width: 30%;'> </img> <p><strong>你是否选择发射武器？</strong></p>","0",""
"","","","","","html-keyboard-response","78","299520","0.0-4.0-0.37","132","1","2022-10-09 15:32:45","ebf9627b049f568eb4bf28942cb89901","115.156.142.197","Mozilla/5.0 (Macintosh; Intel Mac OS X 10_15_7) AppleWebKit/605.1.15 (KHTML, like Gecko) Version/13.1.3 Safari/605.1.15","Macintosh","Safari","13.1.3","OS X","10_15_7","null","<div style=""font-size:60px;"">+</div>","null",""
"","","","","","html-button-response","79","301348","0.0-4.0-1.37","132","1","2022-10-09 15:32:45","ebf9627b049f568eb4bf28942cb89901","115.156.142.197","Mozilla/5.0 (Macintosh; Intel Mac OS X 10_15_7) AppleWebKit/605.1.15 (KHTML, like Gecko) Version/13.1.3 Safari/605.1.15","Macintosh","Safari","13.1.3","OS X","10_15_7","1822","<p>作为军队的指挥官，你可以选择发射导弹杀死 <strong>7名</strong> 敌国士兵，但会误杀附近的 <strong>1名</strong> 敌国平民。</p> <p>平民照片如下图所示。</p> <p></p> <img src='stimuli/faces/NFM4.jpg', style='max-width: 30%;'> </img> <p><strong>你是否选择发射武器？</strong></p>","0",""
"","","","","","html-keyboard-response","80","302351","0.0-4.0-0.38","132","1","2022-10-09 15:32:45","ebf9627b049f568eb4bf28942cb89901","115.156.142.197","Mozilla/5.0 (Macintosh; Intel Mac OS X 10_15_7) AppleWebKit/605.1.15 (KHTML, like Gecko) Version/13.1.3 Safari/605.1.15","Macintosh","Safari","13.1.3","OS X","10_15_7","null","<div style=""font-size:60px;"">+</div>","null",""
"","","","","","html-button-response","81","304610","0.0-4.0-1.38","132","1","2022-10-09 15:32:45","ebf9627b049f568eb4bf28942cb89901","115.156.142.197","Mozilla/5.0 (Macintosh; Intel Mac OS X 10_15_7) AppleWebKit/605.1.15 (KHTML, like Gecko) Version/13.1.3 Safari/605.1.15","Macintosh","Safari","13.1.3","OS X","10_15_7","2254","<p>作为军队的指挥官，你可以选择发射导弹杀死 <strong>4名</strong> 敌国士兵，但会误杀附近的 <strong>1名</strong> 敌国平民。</p> <p>平民照片如下图所示。</p> <p></p> <img src='stimuli/faces/NFM3.jpg', style='max-width: 30%;'> </img> <p><strong>你是否选择发射武器？</strong></p>","0",""
"","","","","","html-keyboard-response","82","305613","0.0-4.0-0.39","132","1","2022-10-09 15:32:45","ebf9627b049f568eb4bf28942cb89901","115.156.142.197","Mozilla/5.0 (Macintosh; Intel Mac OS X 10_15_7) AppleWebKit/605.1.15 (KHTML, like Gecko) Version/13.1.3 Safari/605.1.15","Macintosh","Safari","13.1.3","OS X","10_15_7","null","<div style=""font-size:60px;"">+</div>","null",""
"","","","","","html-button-response","83","309597","0.0-4.0-1.39","132","1","2022-10-09 15:32:45","ebf9627b049f568eb4bf28942cb89901","115.156.142.197","Mozilla/5.0 (Macintosh; Intel Mac OS X 10_15_7) AppleWebKit/605.1.15 (KHTML, like Gecko) Version/13.1.3 Safari/605.1.15","Macintosh","Safari","13.1.3","OS X","10_15_7","3979","<p>作为军队的指挥官，你可以选择发射导弹杀死 <strong>8名</strong> 敌国士兵，但会炸毁附近的 <strong>1棵</strong> 敌国树木。</p> <p>树木的照片如下图所示。</p> <p></p> <img src='stimuli/trees/8.png', style='max-width: 30%;'> </img> <p><strong>你是否选择发射武器？</strong></p>","0",""
"","","","","","html-keyboard-response","84","310602","0.0-4.0-0.40","132","1","2022-10-09 15:32:45","ebf9627b049f568eb4bf28942cb89901","115.156.142.197","Mozilla/5.0 (Macintosh; Intel Mac OS X 10_15_7) AppleWebKit/605.1.15 (KHTML, like Gecko) Version/13.1.3 Safari/605.1.15","Macintosh","Safari","13.1.3","OS X","10_15_7","null","<div style=""font-size:60px;"">+</div>","null",""
"","","","","","html-button-response","85","312885","0.0-4.0-1.40","132","1","2022-10-09 15:32:45","ebf9627b049f568eb4bf28942cb89901","115.156.142.197","Mozilla/5.0 (Macintosh; Intel Mac OS X 10_15_7) AppleWebKit/605.1.15 (KHTML, like Gecko) Version/13.1.3 Safari/605.1.15","Macintosh","Safari","13.1.3","OS X","10_15_7","2278","<p>作为军队的指挥官，你可以选择发射导弹杀死 <strong>10名</strong> 敌国士兵，但会炸毁附近的 <strong>1棵</strong> 敌国树木。</p> <p>树木的照片如下图所示。</p> <p></p> <img src='stimuli/trees/11.png', style='max-width: 30%;'> </img> <p><strong>你是否选择发射武器？</strong></p>","0",""
"","","","","","html-keyboard-response","86","313888","0.0-4.0-0.41","132","1","2022-10-09 15:32:45","ebf9627b049f568eb4bf28942cb89901","115.156.142.197","Mozilla/5.0 (Macintosh; Intel Mac OS X 10_15_7) AppleWebKit/605.1.15 (KHTML, like Gecko) Version/13.1.3 Safari/605.1.15","Macintosh","Safari","13.1.3","OS X","10_15_7","null","<div style=""font-size:60px;"">+</div>","null",""
"","","","","","html-button-response","87","317448","0.0-4.0-1.41","132","1","2022-10-09 15:32:45","ebf9627b049f568eb4bf28942cb89901","115.156.142.197","Mozilla/5.0 (Macintosh; Intel Mac OS X 10_15_7) AppleWebKit/605.1.15 (KHTML, like Gecko) Version/13.1.3 Safari/605.1.15","Macintosh","Safari","13.1.3","OS X","10_15_7","3554","<p>作为军队的指挥官，你可以选择发射导弹杀死 <strong>7名</strong> 敌国士兵，但会误杀附近的 <strong>1名</strong> 敌国平民。</p> <p>平民照片如下图所示。</p> <p></p> <img src='stimuli/faces/NFM6.jpg', style='max-width: 30%;'> </img> <p><strong>你是否选择发射武器？</strong></p>","0",""
"","","","","","html-keyboard-response","88","318459","0.0-4.0-0.42","132","1","2022-10-09 15:32:45","ebf9627b049f568eb4bf28942cb89901","115.156.142.197","Mozilla/5.0 (Macintosh; Intel Mac OS X 10_15_7) AppleWebKit/605.1.15 (KHTML, like Gecko) Version/13.1.3 Safari/605.1.15","Macintosh","Safari","13.1.3","OS X","10_15_7","null","<div style=""font-size:60px;"">+</div>","null",""
"","","","","","html-button-response","89","320544","0.0-4.0-1.42","132","1","2022-10-09 15:32:45","ebf9627b049f568eb4bf28942cb89901","115.156.142.197","Mozilla/5.0 (Macintosh; Intel Mac OS X 10_15_7) AppleWebKit/605.1.15 (KHTML, like Gecko) Version/13.1.3 Safari/605.1.15","Macintosh","Safari","13.1.3","OS X","10_15_7","2080","<p>作为军队的指挥官，你可以选择发射导弹杀死 <strong>8名</strong> 敌国士兵，但会炸毁附近的 <strong>1棵</strong> 敌国树木。</p> <p>树木的照片如下图所示。</p> <p></p> <img src='stimuli/trees/4.png', style='max-width: 30%;'> </img> <p><strong>你是否选择发射武器？</strong></p>","0",""
"","","","","","html-keyboard-response","90","321548","0.0-4.0-0.43","132","1","2022-10-09 15:32:45","ebf9627b049f568eb4bf28942cb89901","115.156.142.197","Mozilla/5.0 (Macintosh; Intel Mac OS X 10_15_7) AppleWebKit/605.1.15 (KHTML, like Gecko) Version/13.1.3 Safari/605.1.15","Macintosh","Safari","13.1.3","OS X","10_15_7","null","<div style=""font-size:60px;"">+</div>","null",""
"","","","","","html-button-response","91","324000","0.0-4.0-1.43","132","1","2022-10-09 15:32:45","ebf9627b049f568eb4bf28942cb89901","115.156.142.197","Mozilla/5.0 (Macintosh; Intel Mac OS X 10_15_7) AppleWebKit/605.1.15 (KHTML, like Gecko) Version/13.1.3 Safari/605.1.15","Macintosh","Safari","13.1.3","OS X","10_15_7","2447","<p>作为军队的指挥官，你可以选择发射导弹杀死 <strong>6名</strong> 敌国士兵，但会误杀附近的 <strong>1名</strong> 敌国平民。</p> <p>平民照片如下图所示。</p> <p></p> <img src='stimuli/faces/NFM8.jpg', style='max-width: 30%;'> </img> <p><strong>你是否选择发射武器？</strong></p>","0",""
"","","","","","html-keyboard-response","92","325004","0.0-4.0-0.44","132","1","2022-10-09 15:32:45","ebf9627b049f568eb4bf28942cb89901","115.156.142.197","Mozilla/5.0 (Macintosh; Intel Mac OS X 10_15_7) AppleWebKit/605.1.15 (KHTML, like Gecko) Version/13.1.3 Safari/605.1.15","Macintosh","Safari","13.1.3","OS X","10_15_7","null","<div style=""font-size:60px;"">+</div>","null",""
"","","","","","html-button-response","93","326685","0.0-4.0-1.44","132","1","2022-10-09 15:32:45","ebf9627b049f568eb4bf28942cb89901","115.156.142.197","Mozilla/5.0 (Macintosh; Intel Mac OS X 10_15_7) AppleWebKit/605.1.15 (KHTML, like Gecko) Version/13.1.3 Safari/605.1.15","Macintosh","Safari","13.1.3","OS X","10_15_7","1676","<p>作为军队的指挥官，你可以选择发射导弹杀死 <strong>3名</strong> 敌国士兵，但会炸毁附近的 <strong>1棵</strong> 敌国树木。</p> <p>树木的照片如下图所示。</p> <p></p> <img src='stimuli/trees/1.png', style='max-width: 30%;'> </img> <p><strong>你是否选择发射武器？</strong></p>","0",""
"","","","","","html-keyboard-response","94","327689","0.0-4.0-0.45","132","1","2022-10-09 15:32:45","ebf9627b049f568eb4bf28942cb89901","115.156.142.197","Mozilla/5.0 (Macintosh; Intel Mac OS X 10_15_7) AppleWebKit/605.1.15 (KHTML, like Gecko) Version/13.1.3 Safari/605.1.15","Macintosh","Safari","13.1.3","OS X","10_15_7","null","<div style=""font-size:60px;"">+</div>","null",""
"","","","","","html-button-response","95","328776","0.0-4.0-1.45","132","1","2022-10-09 15:32:45","ebf9627b049f568eb4bf28942cb89901","115.156.142.197","Mozilla/5.0 (Macintosh; Intel Mac OS X 10_15_7) AppleWebKit/605.1.15 (KHTML, like Gecko) Version/13.1.3 Safari/605.1.15","Macintosh","Safari","13.1.3","OS X","10_15_7","1082","<p>作为军队的指挥官，你可以选择发射导弹杀死 <strong>7名</strong> 敌国士兵，但会误杀附近的 <strong>1名</strong> 敌国平民。</p> <p>平民照片如下图所示。</p> <p></p> <img src='stimuli/faces/NFM2.jpg', style='max-width: 30%;'> </img> <p><strong>你是否选择发射武器？</strong></p>","0",""
"","","","","","html-keyboard-response","96","329784","0.0-4.0-0.46","132","1","2022-10-09 15:32:45","ebf9627b049f568eb4bf28942cb89901","115.156.142.197","Mozilla/5.0 (Macintosh; Intel Mac OS X 10_15_7) AppleWebKit/605.1.15 (KHTML, like Gecko) Version/13.1.3 Safari/605.1.15","Macintosh","Safari","13.1.3","OS X","10_15_7","null","<div style=""font-size:60px;"">+</div>","null",""
"","","","","","html-button-response","97","331421","0.0-4.0-1.46","132","1","2022-10-09 15:32:45","ebf9627b049f568eb4bf28942cb89901","115.156.142.197","Mozilla/5.0 (Macintosh; Intel Mac OS X 10_15_7) AppleWebKit/605.1.15 (KHTML, like Gecko) Version/13.1.3 Safari/605.1.15","Macintosh","Safari","13.1.3","OS X","10_15_7","1632","<p>作为军队的指挥官，你可以选择发射导弹杀死 <strong>3名</strong> 敌国士兵，但会误杀附近的 <strong>1名</strong> 敌国平民。</p> <p>平民照片如下图所示。</p> <p></p> <img src='stimuli/faces/NFF5.jpg', style='max-width: 30%;'> </img> <p><strong>你是否选择发射武器？</strong></p>","0",""
"","","","","","html-keyboard-response","98","332425","0.0-4.0-0.47","132","1","2022-10-09 15:32:45","ebf9627b049f568eb4bf28942cb89901","115.156.142.197","Mozilla/5.0 (Macintosh; Intel Mac OS X 10_15_7) AppleWebKit/605.1.15 (KHTML, like Gecko) Version/13.1.3 Safari/605.1.15","Macintosh","Safari","13.1.3","OS X","10_15_7","null","<div style=""font-size:60px;"">+</div>","null",""
"","","","","","html-button-response","99","333947","0.0-4.0-1.47","132","1","2022-10-09 15:32:45","ebf9627b049f568eb4bf28942cb89901","115.156.142.197","Mozilla/5.0 (Macintosh; Intel Mac OS X 10_15_7) AppleWebKit/605.1.15 (KHTML, like Gecko) Version/13.1.3 Safari/605.1.15","Macintosh","Safari","13.1.3","OS X","10_15_7","1517","<p>作为军队的指挥官，你可以选择发射导弹杀死 <strong>3名</strong> 敌国士兵，但会误杀附近的 <strong>1名</strong> 敌国平民。</p> <p>平民照片如下图所示。</p> <p></p> <img src='stimuli/faces/NFM1.jpg', style='max-width: 30%;'> </img> <p><strong>你是否选择发射武器？</strong></p>","0",""
"","","","","","html-keyboard-response","100","334952","0.0-4.0-0.48","132","1","2022-10-09 15:32:45","ebf9627b049f568eb4bf28942cb89901","115.156.142.197","Mozilla/5.0 (Macintosh; Intel Mac OS X 10_15_7) AppleWebKit/605.1.15 (KHTML, like Gecko) Version/13.1.3 Safari/605.1.15","Macintosh","Safari","13.1.3","OS X","10_15_7","null","<div style=""font-size:60px;"">+</div>","null",""
"","","","","","html-button-response","101","337637","0.0-4.0-1.48","132","1","2022-10-09 15:32:45","ebf9627b049f568eb4bf28942cb89901","115.156.142.197","Mozilla/5.0 (Macintosh; Intel Mac OS X 10_15_7) AppleWebKit/605.1.15 (KHTML, like Gecko) Version/13.1.3 Safari/605.1.15","Macintosh","Safari","13.1.3","OS X","10_15_7","2681","<p>作为军队的指挥官，你可以选择发射导弹杀死 <strong>2名</strong> 敌国士兵，但会误杀附近的 <strong>1名</strong> 敌国平民。</p> <p>平民照片如下图所示。</p> <p></p> <img src='stimuli/faces/NFF3.jpg', style='max-width: 30%;'> </img> <p><strong>你是否选择发射武器？</strong></p>","0",""
"","","","","","html-keyboard-response","102","338646","0.0-4.0-0.49","132","1","2022-10-09 15:32:45","ebf9627b049f568eb4bf28942cb89901","115.156.142.197","Mozilla/5.0 (Macintosh; Intel Mac OS X 10_15_7) AppleWebKit/605.1.15 (KHTML, like Gecko) Version/13.1.3 Safari/605.1.15","Macintosh","Safari","13.1.3","OS X","10_15_7","null","<div style=""font-size:60px;"">+</div>","null",""
"","","","","","html-button-response","103","340083","0.0-4.0-1.49","132","1","2022-10-09 15:32:45","ebf9627b049f568eb4bf28942cb89901","115.156.142.197","Mozilla/5.0 (Macintosh; Intel Mac OS X 10_15_7) AppleWebKit/605.1.15 (KHTML, like Gecko) Version/13.1.3 Safari/605.1.15","Macintosh","Safari","13.1.3","OS X","10_15_7","1430","<p>作为军队的指挥官，你可以选择发射导弹杀死 <strong>5名</strong> 敌国士兵，但会炸毁附近的 <strong>1棵</strong> 敌国树木。</p> <p>树木的照片如下图所示。</p> <p></p> <img src='stimuli/trees/9.png', style='max-width: 30%;'> </img> <p><strong>你是否选择发射武器？</strong></p>","0",""
"","","","","","html-keyboard-response","104","341087","0.0-4.0-0.50","132","1","2022-10-09 15:32:45","ebf9627b049f568eb4bf28942cb89901","115.156.142.197","Mozilla/5.0 (Macintosh; Intel Mac OS X 10_15_7) AppleWebKit/605.1.15 (KHTML, like Gecko) Version/13.1.3 Safari/605.1.15","Macintosh","Safari","13.1.3","OS X","10_15_7","null","<div style=""font-size:60px;"">+</div>","null",""
"","","","","","html-button-response","105","343018","0.0-4.0-1.50","132","1","2022-10-09 15:32:45","ebf9627b049f568eb4bf28942cb89901","115.156.142.197","Mozilla/5.0 (Macintosh; Intel Mac OS X 10_15_7) AppleWebKit/605.1.15 (KHTML, like Gecko) Version/13.1.3 Safari/605.1.15","Macintosh","Safari","13.1.3","OS X","10_15_7","1925","<p>作为军队的指挥官，你可以选择发射导弹杀死 <strong>2名</strong> 敌国士兵，但会误杀附近的 <strong>1名</strong> 敌国平民。</p> <p>平民照片如下图所示。</p> <p></p> <img src='stimuli/faces/NFF6.jpg', style='max-width: 30%;'> </img> <p><strong>你是否选择发射武器？</strong></p>","0",""
"","","","","","html-keyboard-response","106","344022","0.0-4.0-0.51","132","1","2022-10-09 15:32:45","ebf9627b049f568eb4bf28942cb89901","115.156.142.197","Mozilla/5.0 (Macintosh; Intel Mac OS X 10_15_7) AppleWebKit/605.1.15 (KHTML, like Gecko) Version/13.1.3 Safari/605.1.15","Macintosh","Safari","13.1.3","OS X","10_15_7","null","<div style=""font-size:60px;"">+</div>","null",""
"","","","","","html-button-response","107","345935","0.0-4.0-1.51","132","1","2022-10-09 15:32:45","ebf9627b049f568eb4bf28942cb89901","115.156.142.197","Mozilla/5.0 (Macintosh; Intel Mac OS X 10_15_7) AppleWebKit/605.1.15 (KHTML, like Gecko) Version/13.1.3 Safari/605.1.15","Macintosh","Safari","13.1.3","OS X","10_15_7","1908","<p>作为军队的指挥官，你可以选择发射导弹杀死 <strong>4名</strong> 敌国士兵，但会炸毁附近的 <strong>1棵</strong> 敌国树木。</p> <p>树木的照片如下图所示。</p> <p></p> <img src='stimuli/trees/8.png', style='max-width: 30%;'> </img> <p><strong>你是否选择发射武器？</strong></p>","0",""
"","","","","","html-keyboard-response","108","346940","0.0-4.0-0.52","132","1","2022-10-09 15:32:45","ebf9627b049f568eb4bf28942cb89901","115.156.142.197","Mozilla/5.0 (Macintosh; Intel Mac OS X 10_15_7) AppleWebKit/605.1.15 (KHTML, like Gecko) Version/13.1.3 Safari/605.1.15","Macintosh","Safari","13.1.3","OS X","10_15_7","null","<div style=""font-size:60px;"">+</div>","null",""
"","","","","","html-button-response","109","348285","0.0-4.0-1.52","132","1","2022-10-09 15:32:45","ebf9627b049f568eb4bf28942cb89901","115.156.142.197","Mozilla/5.0 (Macintosh; Intel Mac OS X 10_15_7) AppleWebKit/605.1.15 (KHTML, like Gecko) Version/13.1.3 Safari/605.1.15","Macintosh","Safari","13.1.3","OS X","10_15_7","1340","<p>作为军队的指挥官，你可以选择发射导弹杀死 <strong>3名</strong> 敌国士兵，但会炸毁附近的 <strong>1棵</strong> 敌国树木。</p> <p>树木的照片如下图所示。</p> <p></p> <img src='stimuli/trees/11.png', style='max-width: 30%;'> </img> <p><strong>你是否选择发射武器？</strong></p>","0",""
"","","","","","html-keyboard-response","110","349294","0.0-4.0-0.53","132","1","2022-10-09 15:32:45","ebf9627b049f568eb4bf28942cb89901","115.156.142.197","Mozilla/5.0 (Macintosh; Intel Mac OS X 10_15_7) AppleWebKit/605.1.15 (KHTML, like Gecko) Version/13.1.3 Safari/605.1.15","Macintosh","Safari","13.1.3","OS X","10_15_7","null","<div style=""font-size:60px;"">+</div>","null",""
"","","","","","html-button-response","111","351507","0.0-4.0-1.53","132","1","2022-10-09 15:32:45","ebf9627b049f568eb4bf28942cb89901","115.156.142.197","Mozilla/5.0 (Macintosh; Intel Mac OS X 10_15_7) AppleWebKit/605.1.15 (KHTML, like Gecko) Version/13.1.3 Safari/605.1.15","Macintosh","Safari","13.1.3","OS X","10_15_7","2207","<p>作为军队的指挥官，你可以选择发射导弹杀死 <strong>1名</strong> 敌国士兵，但会炸毁附近的 <strong>1棵</strong> 敌国树木。</p> <p>树木的照片如下图所示。</p> <p></p> <img src='stimuli/trees/2.png', style='max-width: 30%;'> </img> <p><strong>你是否选择发射武器？</strong></p>","0",""
"","","","","","html-keyboard-response","112","352512","0.0-4.0-0.54","132","1","2022-10-09 15:32:45","ebf9627b049f568eb4bf28942cb89901","115.156.142.197","Mozilla/5.0 (Macintosh; Intel Mac OS X 10_15_7) AppleWebKit/605.1.15 (KHTML, like Gecko) Version/13.1.3 Safari/605.1.15","Macintosh","Safari","13.1.3","OS X","10_15_7","null","<div style=""font-size:60px;"">+</div>","null",""
"","","","","","html-button-response","113","355549","0.0-4.0-1.54","132","1","2022-10-09 15:32:45","ebf9627b049f568eb4bf28942cb89901","115.156.142.197","Mozilla/5.0 (Macintosh; Intel Mac OS X 10_15_7) AppleWebKit/605.1.15 (KHTML, like Gecko) Version/13.1.3 Safari/605.1.15","Macintosh","Safari","13.1.3","OS X","10_15_7","3032","<p>作为军队的指挥官，你可以选择发射导弹杀死 <strong>9名</strong> 敌国士兵，但会误杀附近的 <strong>1名</strong> 敌国平民。</p> <p>平民照片如下图所示。</p> <p></p> <img src='stimuli/faces/NFM3.jpg', style='max-width: 30%;'> </img> <p><strong>你是否选择发射武器？</strong></p>","0",""
"","","","","","html-keyboard-response","114","356553","0.0-4.0-0.55","132","1","2022-10-09 15:32:45","ebf9627b049f568eb4bf28942cb89901","115.156.142.197","Mozilla/5.0 (Macintosh; Intel Mac OS X 10_15_7) AppleWebKit/605.1.15 (KHTML, like Gecko) Version/13.1.3 Safari/605.1.15","Macintosh","Safari","13.1.3","OS X","10_15_7","null","<div style=""font-size:60px;"">+</div>","null",""
"","","","","","html-button-response","115","358939","0.0-4.0-1.55","132","1","2022-10-09 15:32:45","ebf9627b049f568eb4bf28942cb89901","115.156.142.197","Mozilla/5.0 (Macintosh; Intel Mac OS X 10_15_7) AppleWebKit/605.1.15 (KHTML, like Gecko) Version/13.1.3 Safari/605.1.15","Macintosh","Safari","13.1.3","OS X","10_15_7","2380","<p>作为军队的指挥官，你可以选择发射导弹杀死 <strong>1名</strong> 敌国士兵，但会炸毁附近的 <strong>1棵</strong> 敌国树木。</p> <p>树木的照片如下图所示。</p> <p></p> <img src='stimuli/trees/16.png', style='max-width: 30%;'> </img> <p><strong>你是否选择发射武器？</strong></p>","0",""
"","","","","","html-keyboard-response","116","359949","0.0-4.0-0.56","132","1","2022-10-09 15:32:45","ebf9627b049f568eb4bf28942cb89901","115.156.142.197","Mozilla/5.0 (Macintosh; Intel Mac OS X 10_15_7) AppleWebKit/605.1.15 (KHTML, like Gecko) Version/13.1.3 Safari/605.1.15","Macintosh","Safari","13.1.3","OS X","10_15_7","null","<div style=""font-size:60px;"">+</div>","null",""
"","","","","","html-button-response","117","361818","0.0-4.0-1.56","132","1","2022-10-09 15:32:45","ebf9627b049f568eb4bf28942cb89901","115.156.142.197","Mozilla/5.0 (Macintosh; Intel Mac OS X 10_15_7) AppleWebKit/605.1.15 (KHTML, like Gecko) Version/13.1.3 Safari/605.1.15","Macintosh","Safari","13.1.3","OS X","10_15_7","1863","<p>作为军队的指挥官，你可以选择发射导弹杀死 <strong>2名</strong> 敌国士兵，但会误杀附近的 <strong>1名</strong> 敌国平民。</p> <p>平民照片如下图所示。</p> <p></p> <img src='stimuli/faces/NFM6.jpg', style='max-width: 30%;'> </img> <p><strong>你是否选择发射武器？</strong></p>","0",""
"","","","","","html-keyboard-response","118","362822","0.0-4.0-0.57","132","1","2022-10-09 15:32:45","ebf9627b049f568eb4bf28942cb89901","115.156.142.197","Mozilla/5.0 (Macintosh; Intel Mac OS X 10_15_7) AppleWebKit/605.1.15 (KHTML, like Gecko) Version/13.1.3 Safari/605.1.15","Macintosh","Safari","13.1.3","OS X","10_15_7","null","<div style=""font-size:60px;"">+</div>","null",""
"","","","","","html-button-response","119","365064","0.0-4.0-1.57","132","1","2022-10-09 15:32:45","ebf9627b049f568eb4bf28942cb89901","115.156.142.197","Mozilla/5.0 (Macintosh; Intel Mac OS X 10_15_7) AppleWebKit/605.1.15 (KHTML, like Gecko) Version/13.1.3 Safari/605.1.15","Macintosh","Safari","13.1.3","OS X","10_15_7","2237","<p>作为军队的指挥官，你可以选择发射导弹杀死 <strong>5名</strong> 敌国士兵，但会误杀附近的 <strong>1名</strong> 敌国平民。</p> <p>平民照片如下图所示。</p> <p></p> <img src='stimuli/faces/NFF1.jpg', style='max-width: 30%;'> </img> <p><strong>你是否选择发射武器？</strong></p>","0",""
"","","","","","html-keyboard-response","120","366069","0.0-4.0-0.58","132","1","2022-10-09 15:32:45","ebf9627b049f568eb4bf28942cb89901","115.156.142.197","Mozilla/5.0 (Macintosh; Intel Mac OS X 10_15_7) AppleWebKit/605.1.15 (KHTML, like Gecko) Version/13.1.3 Safari/605.1.15","Macintosh","Safari","13.1.3","OS X","10_15_7","null","<div style=""font-size:60px;"">+</div>","null",""
"","","","","","html-button-response","121","368006","0.0-4.0-1.58","132","1","2022-10-09 15:32:45","ebf9627b049f568eb4bf28942cb89901","115.156.142.197","Mozilla/5.0 (Macintosh; Intel Mac OS X 10_15_7) AppleWebKit/605.1.15 (KHTML, like Gecko) Version/13.1.3 Safari/605.1.15","Macintosh","Safari","13.1.3","OS X","10_15_7","1930","<p>作为军队的指挥官，你可以选择发射导弹杀死 <strong>5名</strong> 敌国士兵，但会炸毁附近的 <strong>1棵</strong> 敌国树木。</p> <p>树木的照片如下图所示。</p> <p></p> <img src='stimuli/trees/13.png', style='max-width: 30%;'> </img> <p><strong>你是否选择发射武器？</strong></p>","0",""
"","","","","","html-keyboard-response","122","369015","0.0-4.0-0.59","132","1","2022-10-09 15:32:45","ebf9627b049f568eb4bf28942cb89901","115.156.142.197","Mozilla/5.0 (Macintosh; Intel Mac OS X 10_15_7) AppleWebKit/605.1.15 (KHTML, like Gecko) Version/13.1.3 Safari/605.1.15","Macintosh","Safari","13.1.3","OS X","10_15_7","null","<div style=""font-size:60px;"">+</div>","null",""
"","","","","","html-button-response","123","371341","0.0-4.0-1.59","132","1","2022-10-09 15:32:45","ebf9627b049f568eb4bf28942cb89901","115.156.142.197","Mozilla/5.0 (Macintosh; Intel Mac OS X 10_15_7) AppleWebKit/605.1.15 (KHTML, like Gecko) Version/13.1.3 Safari/605.1.15","Macintosh","Safari","13.1.3","OS X","10_15_7","2320","<p>作为军队的指挥官，你可以选择发射导弹杀死 <strong>10名</strong> 敌国士兵，但会误杀附近的 <strong>1名</strong> 敌国平民。</p> <p>平民照片如下图所示。</p> <p></p> <img src='stimuli/faces/NFF2.jpg', style='max-width: 30%;'> </img> <p><strong>你是否选择发射武器？</strong></p>","0",""
"","","","","","html-keyboard-response","124","372345","0.0-4.0-0.60","132","1","2022-10-09 15:32:45","ebf9627b049f568eb4bf28942cb89901","115.156.142.197","Mozilla/5.0 (Macintosh; Intel Mac OS X 10_15_7) AppleWebKit/605.1.15 (KHTML, like Gecko) Version/13.1.3 Safari/605.1.15","Macintosh","Safari","13.1.3","OS X","10_15_7","null","<div style=""font-size:60px;"">+</div>","null",""
"","","","","","html-button-response","125","374123","0.0-4.0-1.60","132","1","2022-10-09 15:32:45","ebf9627b049f568eb4bf28942cb89901","115.156.142.197","Mozilla/5.0 (Macintosh; Intel Mac OS X 10_15_7) AppleWebKit/605.1.15 (KHTML, like Gecko) Version/13.1.3 Safari/605.1.15","Macintosh","Safari","13.1.3","OS X","10_15_7","1772","<p>作为军队的指挥官，你可以选择发射导弹杀死 <strong>10名</strong> 敌国士兵，但会炸毁附近的 <strong>1棵</strong> 敌国树木。</p> <p>树木的照片如下图所示。</p> <p></p> <img src='stimuli/trees/14.png', style='max-width: 30%;'> </img> <p><strong>你是否选择发射武器？</strong></p>","0",""
"","","","","","html-keyboard-response","126","375126","0.0-4.0-0.61","132","1","2022-10-09 15:32:45","ebf9627b049f568eb4bf28942cb89901","115.156.142.197","Mozilla/5.0 (Macintosh; Intel Mac OS X 10_15_7) AppleWebKit/605.1.15 (KHTML, like Gecko) Version/13.1.3 Safari/605.1.15","Macintosh","Safari","13.1.3","OS X","10_15_7","null","<div style=""font-size:60px;"">+</div>","null",""
"","","","","","html-button-response","127","378126","0.0-4.0-1.61","132","1","2022-10-09 15:32:45","ebf9627b049f568eb4bf28942cb89901","115.156.142.197","Mozilla/5.0 (Macintosh; Intel Mac OS X 10_15_7) AppleWebKit/605.1.15 (KHTML, like Gecko) Version/13.1.3 Safari/605.1.15","Macintosh","Safari","13.1.3","OS X","10_15_7","2994","<p>作为军队的指挥官，你可以选择发射导弹杀死 <strong>7名</strong> 敌国士兵，但会炸毁附近的 <strong>1棵</strong> 敌国树木。</p> <p>树木的照片如下图所示。</p> <p></p> <img src='stimuli/trees/10.png', style='max-width: 30%;'> </img> <p><strong>你是否选择发射武器？</strong></p>","0",""
"","","","","","html-keyboard-response","128","379135","0.0-4.0-0.62","132","1","2022-10-09 15:32:45","ebf9627b049f568eb4bf28942cb89901","115.156.142.197","Mozilla/5.0 (Macintosh; Intel Mac OS X 10_15_7) AppleWebKit/605.1.15 (KHTML, like Gecko) Version/13.1.3 Safari/605.1.15","Macintosh","Safari","13.1.3","OS X","10_15_7","null","<div style=""font-size:60px;"">+</div>","null",""
"","","","","","html-button-response","129","382418","0.0-4.0-1.62","132","1","2022-10-09 15:32:45","ebf9627b049f568eb4bf28942cb89901","115.156.142.197","Mozilla/5.0 (Macintosh; Intel Mac OS X 10_15_7) AppleWebKit/605.1.15 (KHTML, like Gecko) Version/13.1.3 Safari/605.1.15","Macintosh","Safari","13.1.3","OS X","10_15_7","3276","<p>作为军队的指挥官，你可以选择发射导弹杀死 <strong>1名</strong> 敌国士兵，但会误杀附近的 <strong>1名</strong> 敌国平民。</p> <p>平民照片如下图所示。</p> <p></p> <img src='stimuli/faces/NFF7.jpg', style='max-width: 30%;'> </img> <p><strong>你是否选择发射武器？</strong></p>","1",""
"","","","","","html-keyboard-response","130","383422","0.0-4.0-0.63","132","1","2022-10-09 15:32:45","ebf9627b049f568eb4bf28942cb89901","115.156.142.197","Mozilla/5.0 (Macintosh; Intel Mac OS X 10_15_7) AppleWebKit/605.1.15 (KHTML, like Gecko) Version/13.1.3 Safari/605.1.15","Macintosh","Safari","13.1.3","OS X","10_15_7","null","<div style=""font-size:60px;"">+</div>","null",""
"","","","","","html-button-response","131","385266","0.0-4.0-1.63","132","1","2022-10-09 15:32:45","ebf9627b049f568eb4bf28942cb89901","115.156.142.197","Mozilla/5.0 (Macintosh; Intel Mac OS X 10_15_7) AppleWebKit/605.1.15 (KHTML, like Gecko) Version/13.1.3 Safari/605.1.15","Macintosh","Safari","13.1.3","OS X","10_15_7","1837","<p>作为军队的指挥官，你可以选择发射导弹杀死 <strong>9名</strong> 敌国士兵，但会炸毁附近的 <strong>1棵</strong> 敌国树木。</p> <p>树木的照片如下图所示。</p> <p></p> <img src='stimuli/trees/1.png', style='max-width: 30%;'> </img> <p><strong>你是否选择发射武器？</strong></p>","0",""
"","","","","","survey-multi-choice","132","403866","0.0-5.0","132","1","2022-10-09 15:32:45","ebf9627b049f568eb4bf28942cb89901","115.156.142.197","Mozilla/5.0 (Macintosh; Intel Mac OS X 10_15_7) AppleWebKit/605.1.15 (KHTML, like Gecko) Version/13.1.3 Safari/605.1.15","Macintosh","Safari","13.1.3","OS X","10_15_7","18595","","{""Attention1"":""""}","[0]"
"","","","","","html-button-response","133","406476","0.0-6.0","132","1","2022-10-09 15:32:45","ebf9627b049f568eb4bf28942cb89901","115.156.142.197","Mozilla/5.0 (Macintosh; Intel Mac OS X 10_15_7) AppleWebKit/605.1.15 (KHTML, like Gecko) Version/13.1.3 Safari/605.1.15","Macintosh","Safari","13.1.3","OS X","10_15_7","2606","<p style=""font-size:20px;font-weight:bold;"">恭喜！</p><p>你已经完成了实验的第一部分。</p><p>请休息放松一下，然后进入第二部分。</p><p>这部分大约需要10分钟。</p>","0",""
"","","","","","survey-text","134","432887","0.0-7.0","132","1","2022-10-09 15:32:45","ebf9627b049f568eb4bf28942cb89901","115.156.142.197","Mozilla/5.0 (Macintosh; Intel Mac OS X 10_15_7) AppleWebKit/605.1.15 (KHTML, like Gecko) Version/13.1.3 Safari/605.1.15","Macintosh","Safari","13.1.3","OS X","10_15_7","25379","","{""Age"":""20"",""Nation"":""中国"",""Born"":""湖北神农架"",""Live"":""湖北武汉"",""Ethnic"":""土家族"",""Alipay"":""18351514089""}",""
"","","","","","survey-multi-choice","135","480288","0.0-8.0","132","1","2022-10-09 15:32:45","ebf9627b049f568eb4bf28942cb89901","115.156.142.197","Mozilla/5.0 (Macintosh; Intel Mac OS X 10_15_7) AppleWebKit/605.1.15 (KHTML, like Gecko) Version/13.1.3 Safari/605.1.15","Macintosh","Safari","13.1.3","OS X","10_15_7","47393","","{""Gender"":""男"",""Education"":""高中毕业"",""Income"":""￥70,000-￥139,999"",""Children"":""0"",""Race"":""亚洲人""}","[0,1,2,3,4]"
"","","","","","survey-multi-select","136","494725","0.0-9.0","132","1","2022-10-09 15:32:45","ebf9627b049f568eb4bf28942cb89901","115.156.142.197","Mozilla/5.0 (Macintosh; Intel Mac OS X 10_15_7) AppleWebKit/605.1.15 (KHTML, like Gecko) Version/13.1.3 Safari/605.1.15","Macintosh","Safari","13.1.3","OS X","10_15_7","14428","","{""Marriage"":[""未婚""],""Religion"":[""无宗教信仰""]}","[0,1]"
"","","","","","survey-multi-choice","137","529035","0.0-10.0","132","1","2022-10-09 15:32:45","ebf9627b049f568eb4bf28942cb89901","115.156.142.197","Mozilla/5.0 (Macintosh; Intel Mac OS X 10_15_7) AppleWebKit/605.1.15 (KHTML, like Gecko) Version/13.1.3 Safari/605.1.15","Macintosh","Safari","13.1.3","OS X","10_15_7","34305","","{""SES"":""5""}","[0]"
"","","","","","html-button-response","138","530938","0.0-11.0","132","1","2022-10-09 15:32:45","ebf9627b049f568eb4bf28942cb89901","115.156.142.197","Mozilla/5.0 (Macintosh; Intel Mac OS X 10_15_7) AppleWebKit/605.1.15 (KHTML, like Gecko) Version/13.1.3 Safari/605.1.15","Macintosh","Safari","13.1.3","OS X","10_15_7","1898","<p><strong>请判断下列陈述在多大程度上可以形容你？</p><p> (1 = ""和我一点都不像"" to 5 = ""非常像我"".)</strong></p>","0",""
"","","","","","survey-likert","139","576931","0.0-12.0","132","1","2022-10-09 15:32:45","ebf9627b049f568eb4bf28942cb89901","115.156.142.197","Mozilla/5.0 (Macintosh; Intel Mac OS X 10_15_7) AppleWebKit/605.1.15 (KHTML, like Gecko) Version/13.1.3 Safari/605.1.15","Macintosh","Safari","13.1.3","OS X","10_15_7","45986","","{""Aggression1"":0,""Aggression2"":2,""Aggression3"":4,""Aggression4"":1,""Aggression5"":3,""Aggression6"":2,""Aggression7"":0,""Aggression8"":2,""Aggression9"":0}","[0,1,2,3,4,5,6,7,8]"
"","","","","","html-button-response","140","578296","0.0-13.0","132","1","2022-10-09 15:32:45","ebf9627b049f568eb4bf28942cb89901","115.156.142.197","Mozilla/5.0 (Macintosh; Intel Mac OS X 10_15_7) AppleWebKit/605.1.15 (KHTML, like Gecko) Version/13.1.3 Safari/605.1.15","Macintosh","Safari","13.1.3","OS X","10_15_7","1361","<p><strong>请判断你在多大程度上同意下列陈述。</strong></p>","0",""
"","","","","","survey-likert","141","709128","0.0-14.0","132","1","2022-10-09 15:32:45","ebf9627b049f568eb4bf28942cb89901","115.156.142.197","Mozilla/5.0 (Macintosh; Intel Mac OS X 10_15_7) AppleWebKit/605.1.15 (KHTML, like Gecko) Version/13.1.3 Safari/605.1.15","Macintosh","Safari","13.1.3","OS X","10_15_7","130824","","{""scale13"":2,""scale26"":4,""scale10"":3,""scale27"":1,""scale9"":3,""scale12"":1,""scale19"":1,""scale18"":1,""scale14"":1,""scale3"":1,""scale1"":3,""scale4"":1,""scale7"":1,""scale25"":3,""scale17"":1,""scale28"":3,""scale21"":3,""scale5"":3,""scale20"":3,""scale22"":1,""scale6"":1,""scale23"":1,""scale24"":1,""scale15"":1,""scale16"":0,""scale11"":1,""scale2"":2,""scale8"":1}","[12,25,9,26,8,11,18,17,13,2,0,3,6,24,16,27,20,4,19,21,5,22,23,14,15,10,1,7]"
"","","","","","html-button-response","142","711017","0.0-15.0","132","1","2022-10-09 15:32:45","ebf9627b049f568eb4bf28942cb89901","115.156.142.197","Mozilla/5.0 (Macintosh; Intel Mac OS X 10_15_7) AppleWebKit/605.1.15 (KHTML, like Gecko) Version/13.1.3 Safari/605.1.15","Macintosh","Safari","13.1.3","OS X","10_15_7","1885","<p><strong>请判断你在多大程度上同意下列陈述。</strong></p>","0",""
"","","","","","survey-likert","143","816873","0.0-16.0","132","1","2022-10-09 15:32:45","ebf9627b049f568eb4bf28942cb89901","115.156.142.197","Mozilla/5.0 (Macintosh; Intel Mac OS X 10_15_7) AppleWebKit/605.1.15 (KHTML, like Gecko) Version/13.1.3 Safari/605.1.15","Macintosh","Safari","13.1.3","OS X","10_15_7","105848","","{""sdo14"":0,""sdo3"":3,""sdo2"":4,""sdo12"":3,""sdo11"":4,""sdo15"":3,""sdo7"":0,""sdo6"":0,""sdo1"":0,""sdo4"":0,""sdo9"":0,""sdo13"":4,""sdo16"":6,""sdo8"":1,""sdo10"":1,""sdo5"":3}","[13,2,1,11,10,14,6,5,0,3,8,12,15,7,9,4]"
"","","","","","html-button-response","144","818750","0.0-17.0","132","1","2022-10-09 15:32:45","ebf9627b049f568eb4bf28942cb89901","115.156.142.197","Mozilla/5.0 (Macintosh; Intel Mac OS X 10_15_7) AppleWebKit/605.1.15 (KHTML, like Gecko) Version/13.1.3 Safari/605.1.15","Macintosh","Safari","13.1.3","OS X","10_15_7","1873","<p><strong>请判断你在多大程度上同意下列陈述。</strong></p>","0",""
"","","","","","survey-likert","145","879139","0.0-18.0","132","1","2022-10-09 15:32:45","ebf9627b049f568eb4bf28942cb89901","115.156.142.197","Mozilla/5.0 (Macintosh; Intel Mac OS X 10_15_7) AppleWebKit/605.1.15 (KHTML, like Gecko) Version/13.1.3 Safari/605.1.15","Macintosh","Safari","13.1.3","OS X","10_15_7","60382","","{""caring1"":2,""liking1"":1,""caring2"":3,""protection1"":3,""liking2"":2,""caring3"":3,""protection2"":2,""liking3"":3,""protection3"":2,""caring4"":3,""liking4"":1,""protection4"":3,""caring5"":3,""liking5"":1,""protection5"":3}","[0,1,2,3,4,5,6,7,8,9,10,11,12,13,14]"
"","","","","","html-button-response","146","880531","0.0-19.0","132","1","2022-10-09 15:32:45","ebf9627b049f568eb4bf28942cb89901","115.156.142.197","Mozilla/5.0 (Macintosh; Intel Mac OS X 10_15_7) AppleWebKit/605.1.15 (KHTML, like Gecko) Version/13.1.3 Safari/605.1.15","Macintosh","Safari","13.1.3","OS X","10_15_7","1387","<p><strong>请判断下列场景中你的内心感受有多柔软。</strong></p>","0",""
"","","","","","survey-likert","147","916189","0.0-20.0","132","1","2022-10-09 15:32:45","ebf9627b049f568eb4bf28942cb89901","115.156.142.197","Mozilla/5.0 (Macintosh; Intel Mac OS X 10_15_7) AppleWebKit/605.1.15 (KHTML, like Gecko) Version/13.1.3 Safari/605.1.15","Macintosh","Safari","13.1.3","OS X","10_15_7","35651","","{""tenderness-positive1"":3,""tenderness-negative1"":2,""tenderness-negative2"":0,""tenderness-positive2"":3,""tenderness-positive3"":4,""tenderness-negative3"":2,""tenderness-positive4"":4,""tendereness-negative4"":2,""tendernness-negative5"":2,""tenderness-positive5"":4}","[0,1,2,3,4,5,6,7,8,9]"
"","","","","","survey-multi-choice","148","923957","0.0-21.0","132","1","2022-10-09 15:32:45","ebf9627b049f568eb4bf28942cb89901","115.156.142.197","Mozilla/5.0 (Macintosh; Intel Mac OS X 10_15_7) AppleWebKit/605.1.15 (KHTML, like Gecko) Version/13.1.3 Safari/605.1.15","Macintosh","Safari","13.1.3","OS X","10_15_7","7763","","{""Attention2"":""其他""}","[0]"
"","","","","","html-button-response","149","925065","0.0-22.0","132","1","2022-10-09 15:32:45","ebf9627b049f568eb4bf28942cb89901","115.156.142.197","Mozilla/5.0 (Macintosh; Intel Mac OS X 10_15_7) AppleWebKit/605.1.15 (KHTML, like Gecko) Version/13.1.3 Safari/605.1.15","Macintosh","Safari","13.1.3","OS X","10_15_7","1101","<p><strong>请判断你在多大程度上同意下列陈述。</strong></p>","0",""
"","","","","","survey-likert","150","1010886","0.0-23.0","132","1","2022-10-09 15:32:45","ebf9627b049f568eb4bf28942cb89901","115.156.142.197","Mozilla/5.0 (Macintosh; Intel Mac OS X 10_15_7) AppleWebKit/605.1.15 (KHTML, like Gecko) Version/13.1.3 Safari/605.1.15","Macintosh","Safari","13.1.3","OS X","10_15_7","85813","","{""Nation2"":1,""Patri6"":1,""Patri1"":4,""Patri3"":1,""Patri10"":1,""Nation3"":3,""Patri4"":3,""Patri2"":3,""Patri7"":3,""Nation8"":3,""Patri11"":0,""Patri5"":2,""Nation7"":1,""Nation1"":2,""Patri12"":3,""Patri8"":1,""Patri9"":4,""Nation6"":0,""Nation4"":2,""Nation5"":1}","[13,5,0,2,9,14,3,1,6,19,10,4,18,12,11,7,8,17,15,16]"
"","","","","","html-button-response","151","1011999","0.0-24.0","132","1","2022-10-09 15:32:45","ebf9627b049f568eb4bf28942cb89901","115.156.142.197","Mozilla/5.0 (Macintosh; Intel Mac OS X 10_15_7) AppleWebKit/605.1.15 (KHTML, like Gecko) Version/13.1.3 Safari/605.1.15","Macintosh","Safari","13.1.3","OS X","10_15_7","1108","<p><strong>请判断你在多大程度上同意下列陈述。</strong></p>","0",""
"","","","","","survey-likert","152","1074504","0.0-25.0","132","1","2022-10-09 15:32:45","ebf9627b049f568eb4bf28942cb89901","115.156.142.197","Mozilla/5.0 (Macintosh; Intel Mac OS X 10_15_7) AppleWebKit/605.1.15 (KHTML, like Gecko) Version/13.1.3 Safari/605.1.15","Macintosh","Safari","13.1.3","OS X","10_15_7","62497","","{""Robot"":6,""vi3"":8,""vi4"":7,""hi2"":7,""vi2"":4,""hc2"":6,""vc3"":4,""vc2"":8,""vc4"":4,""hc3"":3,""hi3"":4,""hi4"":7,""vc1"":7,""hi1"":8,""hc4"":4,""vi1"":4,""hc1"":5}","[7,6,8,1,5,10,15,14,16,11,2,3,13,0,12,4,9]"
"","","","","","survey-text","153","1188948","0.0-26.0","132","1","2022-10-09 15:32:45","ebf9627b049f568eb4bf28942cb89901","115.156.142.197","Mozilla/5.0 (Macintosh; Intel Mac OS X 10_15_7) AppleWebKit/605.1.15 (KHTML, like Gecko) Version/13.1.3 Safari/605.1.15","Macintosh","Safari","13.1.3","OS X","10_15_7","114439","","{""Comments"":""前期导弹问题设置的有些重复，而且在某些题目下即使选择一样，但抉择时间不同；建议加入思考计时，把决定时间也作为数据采集的一部分。""}",""
"","","","","","html-button-response","154","1190003","0.0-27.0","132","1","2022-10-09 15:32:45","ebf9627b049f568eb4bf28942cb89901","115.156.142.197","Mozilla/5.0 (Macintosh; Intel Mac OS X 10_15_7) AppleWebKit/605.1.15 (KHTML, like Gecko) Version/13.1.3 Safari/605.1.15","Macintosh","Safari","13.1.3","OS X","10_15_7","1051","<strong><p>恭喜你完成了实验！</p><p>感谢您的参与。</p></strong>","0",""
