"success","timeout","failed_images","failed_audio","failed_video","trial_type","trial_index","time_elapsed","internal_node_id","run_id","condition","recorded_at","source_code_version","ip","user_agent","device","browser","browser_version","platform","platform_version","rt","stimulus","response","question_order"
"true","false","[]","[]","[]","preload","0","784","0.0-0.0","13","1","2022-10-07 06:09:21","ebf9627b049f568eb4bf28942cb89901","117.160.156.81","Mozilla/5.0 (Windows NT 10.0; Win64; x64) AppleWebKit/537.36 (KHTML, like Gecko) Chrome/80.0.3987.163 Safari/537.36","WebKit","Chrome","80.0.3987.163","Windows","10.0","","","",""
"true","","","","","fullscreen","1","4284","0.0-1.0","13","1","2022-10-07 06:09:21","ebf9627b049f568eb4bf28942cb89901","117.160.156.81","Mozilla/5.0 (Windows NT 10.0; Win64; x64) AppleWebKit/537.36 (KHTML, like Gecko) Chrome/80.0.3987.163 Safari/537.36","WebKit","Chrome","80.0.3987.163","Windows","10.0","","","",""
"","","","","","html-button-response","2","18395","0.0-2.0","13","1","2022-10-07 06:09:21","ebf9627b049f568eb4bf28942cb89901","117.160.156.81","Mozilla/5.0 (Windows NT 10.0; Win64; x64) AppleWebKit/537.36 (KHTML, like Gecko) Chrome/80.0.3987.163 Safari/537.36","WebKit","Chrome","80.0.3987.163","Windows","10.0","14109","<p style=""font-size:20px;font-weight:bold;"">实验知情同意书</p><p style=""text-align:left;""><strong>实验名称：</strong>社会冲突研究</p><p style=""text-align:left;""><strong>主要研究者：</strong>韩晓春副教授（北京师范大学心理学部）</p><p style=""text-align:left;""><strong>联系方式：</strong>发送邮件至xiaochun.han@bnu.edu.cn</p><p style=""text-align:left;""><strong>研究目的：</strong>研究旨在了解人类面对群体冲突时的决策方式，以及相关的心理学特质。实验调查大约需要20分钟。</p><p style=""text-align:left;""><strong>实验流程：</strong>实验包含两部分。第一部分呈现一系列群体冲突场景，请你决定如何对这些冲突进行反应，大约需要10分钟完成。第二部分包含一系列人口统计学信息收集和心理学问卷，大约需要10分钟完成。</p><p style=""text-align:left;""><strong>参加及退出规则：</strong>参加本实验完全取决于您的个人意愿。在参与过程中，您可以随时退出，并且不用承担任何后果。</p><p style=""text-align:left;""><strong>隐私：</strong>本实验完全匿名进行，不会收集您的姓名或其他能够识别您身份的信息。实验中收集的作答仅用作科学研究使用，可能会在学术期刊/书籍上发表，或者用于教学，您的数据未来可能会和其他研究者或实验室分享，但您的个人身份不会被识别。</p><p style=""text-align:left;""><strong>实验报酬：</strong>实验完成后，您将获得15元人民币报酬，以感谢您的时间和努力。调查问卷中包含几道题目用以测验您作答时的认真度。只有完成全部实验，并且正确回答认真度测验的被试才能获得实验报酬。实验报酬将通过支付宝转账发放。</p><p style=""text-align:left;font-size:20px;""><strong>如果您同意以上实验知情同意书的内容，请点击'同意并且开始实验'按钮；否则请关闭浏览器界面，退出实验。</strong></p>","0",""
"","","","","","html-button-response","3","22948","0.0-3.0","13","1","2022-10-07 06:09:21","ebf9627b049f568eb4bf28942cb89901","117.160.156.81","Mozilla/5.0 (Windows NT 10.0; Win64; x64) AppleWebKit/537.36 (KHTML, like Gecko) Chrome/80.0.3987.163 Safari/537.36","WebKit","Chrome","80.0.3987.163","Windows","10.0","4551","<p ><strong>实验任务一：</strong></p><p>请想象你的国家与另一个国家发生了军事冲突。</p><p>你是国家军队的指挥官，你将如何在冲突中进行决策。</p><p>具体来说，作为军队指挥官，请你决定是否发射导弹进行打击。</p><p>接下来，你会面对一系列场景，请仔细阅读每个场景，然后进行决策。</p><p>这部分实验任务大约需要10分钟。</p><p><strong>实验过程中，请集中注意力。</strong></p>","0",""
"","","","","","html-keyboard-response","4","23949","0.0-4.0-0.0","13","1","2022-10-07 06:09:21","ebf9627b049f568eb4bf28942cb89901","117.160.156.81","Mozilla/5.0 (Windows NT 10.0; Win64; x64) AppleWebKit/537.36 (KHTML, like Gecko) Chrome/80.0.3987.163 Safari/537.36","WebKit","Chrome","80.0.3987.163","Windows","10.0","null","<div style=""font-size:60px;"">+</div>","null",""
"","","","","","html-button-response","5","35359","0.0-4.0-1.0","13","1","2022-10-07 06:09:21","ebf9627b049f568eb4bf28942cb89901","117.160.156.81","Mozilla/5.0 (Windows NT 10.0; Win64; x64) AppleWebKit/537.36 (KHTML, like Gecko) Chrome/80.0.3987.163 Safari/537.36","WebKit","Chrome","80.0.3987.163","Windows","10.0","11408","<p>作为军队的指挥官，你可以选择发射导弹杀死 <strong>1名</strong> 敌国士兵，但会误杀附近的 <strong>1名</strong> 敌国平民。</p> <p>平民照片如下图所示。</p> <p></p> <img src='stimuli/faces/NFM5.jpg', style='max-width: 30%;'> </img> <p><strong>你是否选择发射武器？</strong></p>","0",""
"","","","","","html-keyboard-response","6","36366","0.0-4.0-0.1","13","1","2022-10-07 06:09:21","ebf9627b049f568eb4bf28942cb89901","117.160.156.81","Mozilla/5.0 (Windows NT 10.0; Win64; x64) AppleWebKit/537.36 (KHTML, like Gecko) Chrome/80.0.3987.163 Safari/537.36","WebKit","Chrome","80.0.3987.163","Windows","10.0","null","<div style=""font-size:60px;"">+</div>","null",""
"","","","","","html-button-response","7","39597","0.0-4.0-1.1","13","1","2022-10-07 06:09:21","ebf9627b049f568eb4bf28942cb89901","117.160.156.81","Mozilla/5.0 (Windows NT 10.0; Win64; x64) AppleWebKit/537.36 (KHTML, like Gecko) Chrome/80.0.3987.163 Safari/537.36","WebKit","Chrome","80.0.3987.163","Windows","10.0","3230","<p>作为军队的指挥官，你可以选择发射导弹杀死 <strong>4名</strong> 敌国士兵，但会误杀附近的 <strong>1名</strong> 敌国平民。</p> <p>平民照片如下图所示。</p> <p></p> <img src='stimuli/faces/NFM2.jpg', style='max-width: 30%;'> </img> <p><strong>你是否选择发射武器？</strong></p>","0",""
"","","","","","html-keyboard-response","8","40610","0.0-4.0-0.2","13","1","2022-10-07 06:09:21","ebf9627b049f568eb4bf28942cb89901","117.160.156.81","Mozilla/5.0 (Windows NT 10.0; Win64; x64) AppleWebKit/537.36 (KHTML, like Gecko) Chrome/80.0.3987.163 Safari/537.36","WebKit","Chrome","80.0.3987.163","Windows","10.0","null","<div style=""font-size:60px;"">+</div>","null",""
"","","","","","html-button-response","9","43243","0.0-4.0-1.2","13","1","2022-10-07 06:09:21","ebf9627b049f568eb4bf28942cb89901","117.160.156.81","Mozilla/5.0 (Windows NT 10.0; Win64; x64) AppleWebKit/537.36 (KHTML, like Gecko) Chrome/80.0.3987.163 Safari/537.36","WebKit","Chrome","80.0.3987.163","Windows","10.0","2631","<p>作为军队的指挥官，你可以选择发射导弹杀死 <strong>10名</strong> 敌国士兵，但会炸毁附近的 <strong>1棵</strong> 敌国树木。</p> <p>树木的照片如下图所示。</p> <p></p> <img src='stimuli/trees/7.png', style='max-width: 30%;'> </img> <p><strong>你是否选择发射武器？</strong></p>","0",""
"","","","","","html-keyboard-response","10","44244","0.0-4.0-0.3","13","1","2022-10-07 06:09:21","ebf9627b049f568eb4bf28942cb89901","117.160.156.81","Mozilla/5.0 (Windows NT 10.0; Win64; x64) AppleWebKit/537.36 (KHTML, like Gecko) Chrome/80.0.3987.163 Safari/537.36","WebKit","Chrome","80.0.3987.163","Windows","10.0","null","<div style=""font-size:60px;"">+</div>","null",""
"","","","","","html-button-response","11","46304","0.0-4.0-1.3","13","1","2022-10-07 06:09:21","ebf9627b049f568eb4bf28942cb89901","117.160.156.81","Mozilla/5.0 (Windows NT 10.0; Win64; x64) AppleWebKit/537.36 (KHTML, like Gecko) Chrome/80.0.3987.163 Safari/537.36","WebKit","Chrome","80.0.3987.163","Windows","10.0","2058","<p>作为军队的指挥官，你可以选择发射导弹杀死 <strong>3名</strong> 敌国士兵，但会误杀附近的 <strong>1名</strong> 敌国平民。</p> <p>平民照片如下图所示。</p> <p></p> <img src='stimuli/faces/NFM7.jpg', style='max-width: 30%;'> </img> <p><strong>你是否选择发射武器？</strong></p>","0",""
"","","","","","html-keyboard-response","12","47305","0.0-4.0-0.4","13","1","2022-10-07 06:09:21","ebf9627b049f568eb4bf28942cb89901","117.160.156.81","Mozilla/5.0 (Windows NT 10.0; Win64; x64) AppleWebKit/537.36 (KHTML, like Gecko) Chrome/80.0.3987.163 Safari/537.36","WebKit","Chrome","80.0.3987.163","Windows","10.0","null","<div style=""font-size:60px;"">+</div>","null",""
"","","","","","html-button-response","13","49106","0.0-4.0-1.4","13","1","2022-10-07 06:09:21","ebf9627b049f568eb4bf28942cb89901","117.160.156.81","Mozilla/5.0 (Windows NT 10.0; Win64; x64) AppleWebKit/537.36 (KHTML, like Gecko) Chrome/80.0.3987.163 Safari/537.36","WebKit","Chrome","80.0.3987.163","Windows","10.0","1800","<p>作为军队的指挥官，你可以选择发射导弹杀死 <strong>10名</strong> 敌国士兵，但会炸毁附近的 <strong>1棵</strong> 敌国树木。</p> <p>树木的照片如下图所示。</p> <p></p> <img src='stimuli/trees/5.png', style='max-width: 30%;'> </img> <p><strong>你是否选择发射武器？</strong></p>","0",""
"","","","","","html-keyboard-response","14","50117","0.0-4.0-0.5","13","1","2022-10-07 06:09:21","ebf9627b049f568eb4bf28942cb89901","117.160.156.81","Mozilla/5.0 (Windows NT 10.0; Win64; x64) AppleWebKit/537.36 (KHTML, like Gecko) Chrome/80.0.3987.163 Safari/537.36","WebKit","Chrome","80.0.3987.163","Windows","10.0","null","<div style=""font-size:60px;"">+</div>","null",""
"","","","","","html-button-response","15","52223","0.0-4.0-1.5","13","1","2022-10-07 06:09:21","ebf9627b049f568eb4bf28942cb89901","117.160.156.81","Mozilla/5.0 (Windows NT 10.0; Win64; x64) AppleWebKit/537.36 (KHTML, like Gecko) Chrome/80.0.3987.163 Safari/537.36","WebKit","Chrome","80.0.3987.163","Windows","10.0","2104","<p>作为军队的指挥官，你可以选择发射导弹杀死 <strong>6名</strong> 敌国士兵，但会误杀附近的 <strong>1名</strong> 敌国平民。</p> <p>平民照片如下图所示。</p> <p></p> <img src='stimuli/faces/NFM6.jpg', style='max-width: 30%;'> </img> <p><strong>你是否选择发射武器？</strong></p>","0",""
"","","","","","html-keyboard-response","16","53224","0.0-4.0-0.6","13","1","2022-10-07 06:09:21","ebf9627b049f568eb4bf28942cb89901","117.160.156.81","Mozilla/5.0 (Windows NT 10.0; Win64; x64) AppleWebKit/537.36 (KHTML, like Gecko) Chrome/80.0.3987.163 Safari/537.36","WebKit","Chrome","80.0.3987.163","Windows","10.0","null","<div style=""font-size:60px;"">+</div>","null",""
"","","","","","html-button-response","17","55145","0.0-4.0-1.6","13","1","2022-10-07 06:09:21","ebf9627b049f568eb4bf28942cb89901","117.160.156.81","Mozilla/5.0 (Windows NT 10.0; Win64; x64) AppleWebKit/537.36 (KHTML, like Gecko) Chrome/80.0.3987.163 Safari/537.36","WebKit","Chrome","80.0.3987.163","Windows","10.0","1918","<p>作为军队的指挥官，你可以选择发射导弹杀死 <strong>2名</strong> 敌国士兵，但会误杀附近的 <strong>1名</strong> 敌国平民。</p> <p>平民照片如下图所示。</p> <p></p> <img src='stimuli/faces/NFF2.jpg', style='max-width: 30%;'> </img> <p><strong>你是否选择发射武器？</strong></p>","0",""
"","","","","","html-keyboard-response","18","56158","0.0-4.0-0.7","13","1","2022-10-07 06:09:21","ebf9627b049f568eb4bf28942cb89901","117.160.156.81","Mozilla/5.0 (Windows NT 10.0; Win64; x64) AppleWebKit/537.36 (KHTML, like Gecko) Chrome/80.0.3987.163 Safari/537.36","WebKit","Chrome","80.0.3987.163","Windows","10.0","null","<div style=""font-size:60px;"">+</div>","null",""
"","","","","","html-button-response","19","57898","0.0-4.0-1.7","13","1","2022-10-07 06:09:21","ebf9627b049f568eb4bf28942cb89901","117.160.156.81","Mozilla/5.0 (Windows NT 10.0; Win64; x64) AppleWebKit/537.36 (KHTML, like Gecko) Chrome/80.0.3987.163 Safari/537.36","WebKit","Chrome","80.0.3987.163","Windows","10.0","1739","<p>作为军队的指挥官，你可以选择发射导弹杀死 <strong>10名</strong> 敌国士兵，但会误杀附近的 <strong>1名</strong> 敌国平民。</p> <p>平民照片如下图所示。</p> <p></p> <img src='stimuli/faces/NFF7.jpg', style='max-width: 30%;'> </img> <p><strong>你是否选择发射武器？</strong></p>","0",""
"","","","","","html-keyboard-response","20","58900","0.0-4.0-0.8","13","1","2022-10-07 06:09:21","ebf9627b049f568eb4bf28942cb89901","117.160.156.81","Mozilla/5.0 (Windows NT 10.0; Win64; x64) AppleWebKit/537.36 (KHTML, like Gecko) Chrome/80.0.3987.163 Safari/537.36","WebKit","Chrome","80.0.3987.163","Windows","10.0","null","<div style=""font-size:60px;"">+</div>","null",""
"","","","","","html-button-response","21","60403","0.0-4.0-1.8","13","1","2022-10-07 06:09:21","ebf9627b049f568eb4bf28942cb89901","117.160.156.81","Mozilla/5.0 (Windows NT 10.0; Win64; x64) AppleWebKit/537.36 (KHTML, like Gecko) Chrome/80.0.3987.163 Safari/537.36","WebKit","Chrome","80.0.3987.163","Windows","10.0","1502","<p>作为军队的指挥官，你可以选择发射导弹杀死 <strong>2名</strong> 敌国士兵，但会炸毁附近的 <strong>1棵</strong> 敌国树木。</p> <p>树木的照片如下图所示。</p> <p></p> <img src='stimuli/trees/8.png', style='max-width: 30%;'> </img> <p><strong>你是否选择发射武器？</strong></p>","0",""
"","","","","","html-keyboard-response","22","61404","0.0-4.0-0.9","13","1","2022-10-07 06:09:21","ebf9627b049f568eb4bf28942cb89901","117.160.156.81","Mozilla/5.0 (Windows NT 10.0; Win64; x64) AppleWebKit/537.36 (KHTML, like Gecko) Chrome/80.0.3987.163 Safari/537.36","WebKit","Chrome","80.0.3987.163","Windows","10.0","null","<div style=""font-size:60px;"">+</div>","null",""
"","","","","","html-button-response","23","63257","0.0-4.0-1.9","13","1","2022-10-07 06:09:21","ebf9627b049f568eb4bf28942cb89901","117.160.156.81","Mozilla/5.0 (Windows NT 10.0; Win64; x64) AppleWebKit/537.36 (KHTML, like Gecko) Chrome/80.0.3987.163 Safari/537.36","WebKit","Chrome","80.0.3987.163","Windows","10.0","1852","<p>作为军队的指挥官，你可以选择发射导弹杀死 <strong>6名</strong> 敌国士兵，但会误杀附近的 <strong>1名</strong> 敌国平民。</p> <p>平民照片如下图所示。</p> <p></p> <img src='stimuli/faces/NFF4.jpg', style='max-width: 30%;'> </img> <p><strong>你是否选择发射武器？</strong></p>","0",""
"","","","","","html-keyboard-response","24","64262","0.0-4.0-0.10","13","1","2022-10-07 06:09:21","ebf9627b049f568eb4bf28942cb89901","117.160.156.81","Mozilla/5.0 (Windows NT 10.0; Win64; x64) AppleWebKit/537.36 (KHTML, like Gecko) Chrome/80.0.3987.163 Safari/537.36","WebKit","Chrome","80.0.3987.163","Windows","10.0","null","<div style=""font-size:60px;"">+</div>","null",""
"","","","","","html-button-response","25","65606","0.0-4.0-1.10","13","1","2022-10-07 06:09:21","ebf9627b049f568eb4bf28942cb89901","117.160.156.81","Mozilla/5.0 (Windows NT 10.0; Win64; x64) AppleWebKit/537.36 (KHTML, like Gecko) Chrome/80.0.3987.163 Safari/537.36","WebKit","Chrome","80.0.3987.163","Windows","10.0","1343","<p>作为军队的指挥官，你可以选择发射导弹杀死 <strong>10名</strong> 敌国士兵，但会炸毁附近的 <strong>1棵</strong> 敌国树木。</p> <p>树木的照片如下图所示。</p> <p></p> <img src='stimuli/trees/1.png', style='max-width: 30%;'> </img> <p><strong>你是否选择发射武器？</strong></p>","0",""
"","","","","","html-keyboard-response","26","66608","0.0-4.0-0.11","13","1","2022-10-07 06:09:21","ebf9627b049f568eb4bf28942cb89901","117.160.156.81","Mozilla/5.0 (Windows NT 10.0; Win64; x64) AppleWebKit/537.36 (KHTML, like Gecko) Chrome/80.0.3987.163 Safari/537.36","WebKit","Chrome","80.0.3987.163","Windows","10.0","null","<div style=""font-size:60px;"">+</div>","null",""
"","","","","","html-button-response","27","67967","0.0-4.0-1.11","13","1","2022-10-07 06:09:21","ebf9627b049f568eb4bf28942cb89901","117.160.156.81","Mozilla/5.0 (Windows NT 10.0; Win64; x64) AppleWebKit/537.36 (KHTML, like Gecko) Chrome/80.0.3987.163 Safari/537.36","WebKit","Chrome","80.0.3987.163","Windows","10.0","1358","<p>作为军队的指挥官，你可以选择发射导弹杀死 <strong>2名</strong> 敌国士兵，但会误杀附近的 <strong>1名</strong> 敌国平民。</p> <p>平民照片如下图所示。</p> <p></p> <img src='stimuli/faces/NFF3.jpg', style='max-width: 30%;'> </img> <p><strong>你是否选择发射武器？</strong></p>","0",""
"","","","","","html-keyboard-response","28","68969","0.0-4.0-0.12","13","1","2022-10-07 06:09:21","ebf9627b049f568eb4bf28942cb89901","117.160.156.81","Mozilla/5.0 (Windows NT 10.0; Win64; x64) AppleWebKit/537.36 (KHTML, like Gecko) Chrome/80.0.3987.163 Safari/537.36","WebKit","Chrome","80.0.3987.163","Windows","10.0","null","<div style=""font-size:60px;"">+</div>","null",""
"","","","","","html-button-response","29","70250","0.0-4.0-1.12","13","1","2022-10-07 06:09:21","ebf9627b049f568eb4bf28942cb89901","117.160.156.81","Mozilla/5.0 (Windows NT 10.0; Win64; x64) AppleWebKit/537.36 (KHTML, like Gecko) Chrome/80.0.3987.163 Safari/537.36","WebKit","Chrome","80.0.3987.163","Windows","10.0","1280","<p>作为军队的指挥官，你可以选择发射导弹杀死 <strong>6名</strong> 敌国士兵，但会误杀附近的 <strong>1名</strong> 敌国平民。</p> <p>平民照片如下图所示。</p> <p></p> <img src='stimuli/faces/NFF5.jpg', style='max-width: 30%;'> </img> <p><strong>你是否选择发射武器？</strong></p>","0",""
"","","","","","html-keyboard-response","30","71253","0.0-4.0-0.13","13","1","2022-10-07 06:09:21","ebf9627b049f568eb4bf28942cb89901","117.160.156.81","Mozilla/5.0 (Windows NT 10.0; Win64; x64) AppleWebKit/537.36 (KHTML, like Gecko) Chrome/80.0.3987.163 Safari/537.36","WebKit","Chrome","80.0.3987.163","Windows","10.0","null","<div style=""font-size:60px;"">+</div>","null",""
"","","","","","html-button-response","31","72089","0.0-4.0-1.13","13","1","2022-10-07 06:09:21","ebf9627b049f568eb4bf28942cb89901","117.160.156.81","Mozilla/5.0 (Windows NT 10.0; Win64; x64) AppleWebKit/537.36 (KHTML, like Gecko) Chrome/80.0.3987.163 Safari/537.36","WebKit","Chrome","80.0.3987.163","Windows","10.0","834","<p>作为军队的指挥官，你可以选择发射导弹杀死 <strong>9名</strong> 敌国士兵，但会炸毁附近的 <strong>1棵</strong> 敌国树木。</p> <p>树木的照片如下图所示。</p> <p></p> <img src='stimuli/trees/8.png', style='max-width: 30%;'> </img> <p><strong>你是否选择发射武器？</strong></p>","0",""
"","","","","","html-keyboard-response","32","73091","0.0-4.0-0.14","13","1","2022-10-07 06:09:21","ebf9627b049f568eb4bf28942cb89901","117.160.156.81","Mozilla/5.0 (Windows NT 10.0; Win64; x64) AppleWebKit/537.36 (KHTML, like Gecko) Chrome/80.0.3987.163 Safari/537.36","WebKit","Chrome","80.0.3987.163","Windows","10.0","null","<div style=""font-size:60px;"">+</div>","null",""
"","","","","","html-button-response","33","74351","0.0-4.0-1.14","13","1","2022-10-07 06:09:21","ebf9627b049f568eb4bf28942cb89901","117.160.156.81","Mozilla/5.0 (Windows NT 10.0; Win64; x64) AppleWebKit/537.36 (KHTML, like Gecko) Chrome/80.0.3987.163 Safari/537.36","WebKit","Chrome","80.0.3987.163","Windows","10.0","1259","<p>作为军队的指挥官，你可以选择发射导弹杀死 <strong>2名</strong> 敌国士兵，但会炸毁附近的 <strong>1棵</strong> 敌国树木。</p> <p>树木的照片如下图所示。</p> <p></p> <img src='stimuli/trees/3.png', style='max-width: 30%;'> </img> <p><strong>你是否选择发射武器？</strong></p>","0",""
"","","","","","html-keyboard-response","34","75360","0.0-4.0-0.15","13","1","2022-10-07 06:09:21","ebf9627b049f568eb4bf28942cb89901","117.160.156.81","Mozilla/5.0 (Windows NT 10.0; Win64; x64) AppleWebKit/537.36 (KHTML, like Gecko) Chrome/80.0.3987.163 Safari/537.36","WebKit","Chrome","80.0.3987.163","Windows","10.0","null","<div style=""font-size:60px;"">+</div>","null",""
"","","","","","html-button-response","35","76648","0.0-4.0-1.15","13","1","2022-10-07 06:09:21","ebf9627b049f568eb4bf28942cb89901","117.160.156.81","Mozilla/5.0 (Windows NT 10.0; Win64; x64) AppleWebKit/537.36 (KHTML, like Gecko) Chrome/80.0.3987.163 Safari/537.36","WebKit","Chrome","80.0.3987.163","Windows","10.0","1287","<p>作为军队的指挥官，你可以选择发射导弹杀死 <strong>1名</strong> 敌国士兵，但会误杀附近的 <strong>1名</strong> 敌国平民。</p> <p>平民照片如下图所示。</p> <p></p> <img src='stimuli/faces/NFM3.jpg', style='max-width: 30%;'> </img> <p><strong>你是否选择发射武器？</strong></p>","0",""
"","","","","","html-keyboard-response","36","77658","0.0-4.0-0.16","13","1","2022-10-07 06:09:21","ebf9627b049f568eb4bf28942cb89901","117.160.156.81","Mozilla/5.0 (Windows NT 10.0; Win64; x64) AppleWebKit/537.36 (KHTML, like Gecko) Chrome/80.0.3987.163 Safari/537.36","WebKit","Chrome","80.0.3987.163","Windows","10.0","null","<div style=""font-size:60px;"">+</div>","null",""
"","","","","","html-button-response","37","78977","0.0-4.0-1.16","13","1","2022-10-07 06:09:21","ebf9627b049f568eb4bf28942cb89901","117.160.156.81","Mozilla/5.0 (Windows NT 10.0; Win64; x64) AppleWebKit/537.36 (KHTML, like Gecko) Chrome/80.0.3987.163 Safari/537.36","WebKit","Chrome","80.0.3987.163","Windows","10.0","1318","<p>作为军队的指挥官，你可以选择发射导弹杀死 <strong>9名</strong> 敌国士兵，但会炸毁附近的 <strong>1棵</strong> 敌国树木。</p> <p>树木的照片如下图所示。</p> <p></p> <img src='stimuli/trees/11.png', style='max-width: 30%;'> </img> <p><strong>你是否选择发射武器？</strong></p>","0",""
"","","","","","html-keyboard-response","38","79992","0.0-4.0-0.17","13","1","2022-10-07 06:09:21","ebf9627b049f568eb4bf28942cb89901","117.160.156.81","Mozilla/5.0 (Windows NT 10.0; Win64; x64) AppleWebKit/537.36 (KHTML, like Gecko) Chrome/80.0.3987.163 Safari/537.36","WebKit","Chrome","80.0.3987.163","Windows","10.0","null","<div style=""font-size:60px;"">+</div>","null",""
"","","","","","html-button-response","39","81062","0.0-4.0-1.17","13","1","2022-10-07 06:09:21","ebf9627b049f568eb4bf28942cb89901","117.160.156.81","Mozilla/5.0 (Windows NT 10.0; Win64; x64) AppleWebKit/537.36 (KHTML, like Gecko) Chrome/80.0.3987.163 Safari/537.36","WebKit","Chrome","80.0.3987.163","Windows","10.0","1069","<p>作为军队的指挥官，你可以选择发射导弹杀死 <strong>6名</strong> 敌国士兵，但会炸毁附近的 <strong>1棵</strong> 敌国树木。</p> <p>树木的照片如下图所示。</p> <p></p> <img src='stimuli/trees/15.png', style='max-width: 30%;'> </img> <p><strong>你是否选择发射武器？</strong></p>","0",""
"","","","","","html-keyboard-response","40","82064","0.0-4.0-0.18","13","1","2022-10-07 06:09:21","ebf9627b049f568eb4bf28942cb89901","117.160.156.81","Mozilla/5.0 (Windows NT 10.0; Win64; x64) AppleWebKit/537.36 (KHTML, like Gecko) Chrome/80.0.3987.163 Safari/537.36","WebKit","Chrome","80.0.3987.163","Windows","10.0","null","<div style=""font-size:60px;"">+</div>","null",""
"","","","","","html-button-response","41","83031","0.0-4.0-1.18","13","1","2022-10-07 06:09:21","ebf9627b049f568eb4bf28942cb89901","117.160.156.81","Mozilla/5.0 (Windows NT 10.0; Win64; x64) AppleWebKit/537.36 (KHTML, like Gecko) Chrome/80.0.3987.163 Safari/537.36","WebKit","Chrome","80.0.3987.163","Windows","10.0","966","<p>作为军队的指挥官，你可以选择发射导弹杀死 <strong>3名</strong> 敌国士兵，但会炸毁附近的 <strong>1棵</strong> 敌国树木。</p> <p>树木的照片如下图所示。</p> <p></p> <img src='stimuli/trees/6.png', style='max-width: 30%;'> </img> <p><strong>你是否选择发射武器？</strong></p>","0",""
"","","","","","html-keyboard-response","42","84033","0.0-4.0-0.19","13","1","2022-10-07 06:09:21","ebf9627b049f568eb4bf28942cb89901","117.160.156.81","Mozilla/5.0 (Windows NT 10.0; Win64; x64) AppleWebKit/537.36 (KHTML, like Gecko) Chrome/80.0.3987.163 Safari/537.36","WebKit","Chrome","80.0.3987.163","Windows","10.0","null","<div style=""font-size:60px;"">+</div>","null",""
"","","","","","html-button-response","43","85780","0.0-4.0-1.19","13","1","2022-10-07 06:09:21","ebf9627b049f568eb4bf28942cb89901","117.160.156.81","Mozilla/5.0 (Windows NT 10.0; Win64; x64) AppleWebKit/537.36 (KHTML, like Gecko) Chrome/80.0.3987.163 Safari/537.36","WebKit","Chrome","80.0.3987.163","Windows","10.0","1746","<p>作为军队的指挥官，你可以选择发射导弹杀死 <strong>5名</strong> 敌国士兵，但会炸毁附近的 <strong>1棵</strong> 敌国树木。</p> <p>树木的照片如下图所示。</p> <p></p> <img src='stimuli/trees/7.png', style='max-width: 30%;'> </img> <p><strong>你是否选择发射武器？</strong></p>","0",""
"","","","","","html-keyboard-response","44","86787","0.0-4.0-0.20","13","1","2022-10-07 06:09:21","ebf9627b049f568eb4bf28942cb89901","117.160.156.81","Mozilla/5.0 (Windows NT 10.0; Win64; x64) AppleWebKit/537.36 (KHTML, like Gecko) Chrome/80.0.3987.163 Safari/537.36","WebKit","Chrome","80.0.3987.163","Windows","10.0","null","<div style=""font-size:60px;"">+</div>","null",""
"","","","","","html-button-response","45","87890","0.0-4.0-1.20","13","1","2022-10-07 06:09:21","ebf9627b049f568eb4bf28942cb89901","117.160.156.81","Mozilla/5.0 (Windows NT 10.0; Win64; x64) AppleWebKit/537.36 (KHTML, like Gecko) Chrome/80.0.3987.163 Safari/537.36","WebKit","Chrome","80.0.3987.163","Windows","10.0","1102","<p>作为军队的指挥官，你可以选择发射导弹杀死 <strong>3名</strong> 敌国士兵，但会炸毁附近的 <strong>1棵</strong> 敌国树木。</p> <p>树木的照片如下图所示。</p> <p></p> <img src='stimuli/trees/15.png', style='max-width: 30%;'> </img> <p><strong>你是否选择发射武器？</strong></p>","0",""
"","","","","","html-keyboard-response","46","88892","0.0-4.0-0.21","13","1","2022-10-07 06:09:21","ebf9627b049f568eb4bf28942cb89901","117.160.156.81","Mozilla/5.0 (Windows NT 10.0; Win64; x64) AppleWebKit/537.36 (KHTML, like Gecko) Chrome/80.0.3987.163 Safari/537.36","WebKit","Chrome","80.0.3987.163","Windows","10.0","null","<div style=""font-size:60px;"">+</div>","null",""
"","","","","","html-button-response","47","92088","0.0-4.0-1.21","13","1","2022-10-07 06:09:21","ebf9627b049f568eb4bf28942cb89901","117.160.156.81","Mozilla/5.0 (Windows NT 10.0; Win64; x64) AppleWebKit/537.36 (KHTML, like Gecko) Chrome/80.0.3987.163 Safari/537.36","WebKit","Chrome","80.0.3987.163","Windows","10.0","3194","<p>作为军队的指挥官，你可以选择发射导弹杀死 <strong>5名</strong> 敌国士兵，但会误杀附近的 <strong>1名</strong> 敌国平民。</p> <p>平民照片如下图所示。</p> <p></p> <img src='stimuli/faces/NFF1.jpg', style='max-width: 30%;'> </img> <p><strong>你是否选择发射武器？</strong></p>","0",""
"","","","","","html-keyboard-response","48","93097","0.0-4.0-0.22","13","1","2022-10-07 06:09:21","ebf9627b049f568eb4bf28942cb89901","117.160.156.81","Mozilla/5.0 (Windows NT 10.0; Win64; x64) AppleWebKit/537.36 (KHTML, like Gecko) Chrome/80.0.3987.163 Safari/537.36","WebKit","Chrome","80.0.3987.163","Windows","10.0","null","<div style=""font-size:60px;"">+</div>","null",""
"","","","","","html-button-response","49","94161","0.0-4.0-1.22","13","1","2022-10-07 06:09:21","ebf9627b049f568eb4bf28942cb89901","117.160.156.81","Mozilla/5.0 (Windows NT 10.0; Win64; x64) AppleWebKit/537.36 (KHTML, like Gecko) Chrome/80.0.3987.163 Safari/537.36","WebKit","Chrome","80.0.3987.163","Windows","10.0","1061","<p>作为军队的指挥官，你可以选择发射导弹杀死 <strong>6名</strong> 敌国士兵，但会误杀附近的 <strong>1名</strong> 敌国平民。</p> <p>平民照片如下图所示。</p> <p></p> <img src='stimuli/faces/NFF6.jpg', style='max-width: 30%;'> </img> <p><strong>你是否选择发射武器？</strong></p>","0",""
"","","","","","html-keyboard-response","50","95164","0.0-4.0-0.23","13","1","2022-10-07 06:09:21","ebf9627b049f568eb4bf28942cb89901","117.160.156.81","Mozilla/5.0 (Windows NT 10.0; Win64; x64) AppleWebKit/537.36 (KHTML, like Gecko) Chrome/80.0.3987.163 Safari/537.36","WebKit","Chrome","80.0.3987.163","Windows","10.0","null","<div style=""font-size:60px;"">+</div>","null",""
"","","","","","html-button-response","51","96334","0.0-4.0-1.23","13","1","2022-10-07 06:09:21","ebf9627b049f568eb4bf28942cb89901","117.160.156.81","Mozilla/5.0 (Windows NT 10.0; Win64; x64) AppleWebKit/537.36 (KHTML, like Gecko) Chrome/80.0.3987.163 Safari/537.36","WebKit","Chrome","80.0.3987.163","Windows","10.0","1169","<p>作为军队的指挥官，你可以选择发射导弹杀死 <strong>2名</strong> 敌国士兵，但会误杀附近的 <strong>1名</strong> 敌国平民。</p> <p>平民照片如下图所示。</p> <p></p> <img src='stimuli/faces/NFF8.jpg', style='max-width: 30%;'> </img> <p><strong>你是否选择发射武器？</strong></p>","0",""
"","","","","","html-keyboard-response","52","97336","0.0-4.0-0.24","13","1","2022-10-07 06:09:21","ebf9627b049f568eb4bf28942cb89901","117.160.156.81","Mozilla/5.0 (Windows NT 10.0; Win64; x64) AppleWebKit/537.36 (KHTML, like Gecko) Chrome/80.0.3987.163 Safari/537.36","WebKit","Chrome","80.0.3987.163","Windows","10.0","null","<div style=""font-size:60px;"">+</div>","null",""
"","","","","","html-button-response","53","98699","0.0-4.0-1.24","13","1","2022-10-07 06:09:21","ebf9627b049f568eb4bf28942cb89901","117.160.156.81","Mozilla/5.0 (Windows NT 10.0; Win64; x64) AppleWebKit/537.36 (KHTML, like Gecko) Chrome/80.0.3987.163 Safari/537.36","WebKit","Chrome","80.0.3987.163","Windows","10.0","1361","<p>作为军队的指挥官，你可以选择发射导弹杀死 <strong>2名</strong> 敌国士兵，但会炸毁附近的 <strong>1棵</strong> 敌国树木。</p> <p>树木的照片如下图所示。</p> <p></p> <img src='stimuli/trees/11.png', style='max-width: 30%;'> </img> <p><strong>你是否选择发射武器？</strong></p>","0",""
"","","","","","html-keyboard-response","54","99701","0.0-4.0-0.25","13","1","2022-10-07 06:09:21","ebf9627b049f568eb4bf28942cb89901","117.160.156.81","Mozilla/5.0 (Windows NT 10.0; Win64; x64) AppleWebKit/537.36 (KHTML, like Gecko) Chrome/80.0.3987.163 Safari/537.36","WebKit","Chrome","80.0.3987.163","Windows","10.0","null","<div style=""font-size:60px;"">+</div>","null",""
"","","","","","html-button-response","55","100840","0.0-4.0-1.25","13","1","2022-10-07 06:09:21","ebf9627b049f568eb4bf28942cb89901","117.160.156.81","Mozilla/5.0 (Windows NT 10.0; Win64; x64) AppleWebKit/537.36 (KHTML, like Gecko) Chrome/80.0.3987.163 Safari/537.36","WebKit","Chrome","80.0.3987.163","Windows","10.0","1136","<p>作为军队的指挥官，你可以选择发射导弹杀死 <strong>7名</strong> 敌国士兵，但会误杀附近的 <strong>1名</strong> 敌国平民。</p> <p>平民照片如下图所示。</p> <p></p> <img src='stimuli/faces/NFM1.jpg', style='max-width: 30%;'> </img> <p><strong>你是否选择发射武器？</strong></p>","0",""
"","","","","","html-keyboard-response","56","101842","0.0-4.0-0.26","13","1","2022-10-07 06:09:21","ebf9627b049f568eb4bf28942cb89901","117.160.156.81","Mozilla/5.0 (Windows NT 10.0; Win64; x64) AppleWebKit/537.36 (KHTML, like Gecko) Chrome/80.0.3987.163 Safari/537.36","WebKit","Chrome","80.0.3987.163","Windows","10.0","null","<div style=""font-size:60px;"">+</div>","null",""
"","","","","","html-button-response","57","102997","0.0-4.0-1.26","13","1","2022-10-07 06:09:21","ebf9627b049f568eb4bf28942cb89901","117.160.156.81","Mozilla/5.0 (Windows NT 10.0; Win64; x64) AppleWebKit/537.36 (KHTML, like Gecko) Chrome/80.0.3987.163 Safari/537.36","WebKit","Chrome","80.0.3987.163","Windows","10.0","1154","<p>作为军队的指挥官，你可以选择发射导弹杀死 <strong>7名</strong> 敌国士兵，但会误杀附近的 <strong>1名</strong> 敌国平民。</p> <p>平民照片如下图所示。</p> <p></p> <img src='stimuli/faces/NFF3.jpg', style='max-width: 30%;'> </img> <p><strong>你是否选择发射武器？</strong></p>","0",""
"","","","","","html-keyboard-response","58","104014","0.0-4.0-0.27","13","1","2022-10-07 06:09:21","ebf9627b049f568eb4bf28942cb89901","117.160.156.81","Mozilla/5.0 (Windows NT 10.0; Win64; x64) AppleWebKit/537.36 (KHTML, like Gecko) Chrome/80.0.3987.163 Safari/537.36","WebKit","Chrome","80.0.3987.163","Windows","10.0","null","<div style=""font-size:60px;"">+</div>","null",""
"","","","","","html-button-response","59","105688","0.0-4.0-1.27","13","1","2022-10-07 06:09:21","ebf9627b049f568eb4bf28942cb89901","117.160.156.81","Mozilla/5.0 (Windows NT 10.0; Win64; x64) AppleWebKit/537.36 (KHTML, like Gecko) Chrome/80.0.3987.163 Safari/537.36","WebKit","Chrome","80.0.3987.163","Windows","10.0","1673","<p>作为军队的指挥官，你可以选择发射导弹杀死 <strong>10名</strong> 敌国士兵，但会误杀附近的 <strong>1名</strong> 敌国平民。</p> <p>平民照片如下图所示。</p> <p></p> <img src='stimuli/faces/NFM8.jpg', style='max-width: 30%;'> </img> <p><strong>你是否选择发射武器？</strong></p>","0",""
"","","","","","html-keyboard-response","60","106704","0.0-4.0-0.28","13","1","2022-10-07 06:09:21","ebf9627b049f568eb4bf28942cb89901","117.160.156.81","Mozilla/5.0 (Windows NT 10.0; Win64; x64) AppleWebKit/537.36 (KHTML, like Gecko) Chrome/80.0.3987.163 Safari/537.36","WebKit","Chrome","80.0.3987.163","Windows","10.0","null","<div style=""font-size:60px;"">+</div>","null",""
"","","","","","html-button-response","61","107936","0.0-4.0-1.28","13","1","2022-10-07 06:09:21","ebf9627b049f568eb4bf28942cb89901","117.160.156.81","Mozilla/5.0 (Windows NT 10.0; Win64; x64) AppleWebKit/537.36 (KHTML, like Gecko) Chrome/80.0.3987.163 Safari/537.36","WebKit","Chrome","80.0.3987.163","Windows","10.0","1230","<p>作为军队的指挥官，你可以选择发射导弹杀死 <strong>4名</strong> 敌国士兵，但会误杀附近的 <strong>1名</strong> 敌国平民。</p> <p>平民照片如下图所示。</p> <p></p> <img src='stimuli/faces/NFM4.jpg', style='max-width: 30%;'> </img> <p><strong>你是否选择发射武器？</strong></p>","0",""
"","","","","","html-keyboard-response","62","108950","0.0-4.0-0.29","13","1","2022-10-07 06:09:21","ebf9627b049f568eb4bf28942cb89901","117.160.156.81","Mozilla/5.0 (Windows NT 10.0; Win64; x64) AppleWebKit/537.36 (KHTML, like Gecko) Chrome/80.0.3987.163 Safari/537.36","WebKit","Chrome","80.0.3987.163","Windows","10.0","null","<div style=""font-size:60px;"">+</div>","null",""
"","","","","","html-button-response","63","109773","0.0-4.0-1.29","13","1","2022-10-07 06:09:21","ebf9627b049f568eb4bf28942cb89901","117.160.156.81","Mozilla/5.0 (Windows NT 10.0; Win64; x64) AppleWebKit/537.36 (KHTML, like Gecko) Chrome/80.0.3987.163 Safari/537.36","WebKit","Chrome","80.0.3987.163","Windows","10.0","822","<p>作为军队的指挥官，你可以选择发射导弹杀死 <strong>8名</strong> 敌国士兵，但会炸毁附近的 <strong>1棵</strong> 敌国树木。</p> <p>树木的照片如下图所示。</p> <p></p> <img src='stimuli/trees/10.png', style='max-width: 30%;'> </img> <p><strong>你是否选择发射武器？</strong></p>","0",""
"","","","","","html-keyboard-response","64","110782","0.0-4.0-0.30","13","1","2022-10-07 06:09:21","ebf9627b049f568eb4bf28942cb89901","117.160.156.81","Mozilla/5.0 (Windows NT 10.0; Win64; x64) AppleWebKit/537.36 (KHTML, like Gecko) Chrome/80.0.3987.163 Safari/537.36","WebKit","Chrome","80.0.3987.163","Windows","10.0","null","<div style=""font-size:60px;"">+</div>","null",""
"","","","","","html-button-response","65","111590","0.0-4.0-1.30","13","1","2022-10-07 06:09:21","ebf9627b049f568eb4bf28942cb89901","117.160.156.81","Mozilla/5.0 (Windows NT 10.0; Win64; x64) AppleWebKit/537.36 (KHTML, like Gecko) Chrome/80.0.3987.163 Safari/537.36","WebKit","Chrome","80.0.3987.163","Windows","10.0","806","<p>作为军队的指挥官，你可以选择发射导弹杀死 <strong>7名</strong> 敌国士兵，但会误杀附近的 <strong>1名</strong> 敌国平民。</p> <p>平民照片如下图所示。</p> <p></p> <img src='stimuli/faces/NFM4.jpg', style='max-width: 30%;'> </img> <p><strong>你是否选择发射武器？</strong></p>","0",""
"","","","","","html-keyboard-response","66","112602","0.0-4.0-0.31","13","1","2022-10-07 06:09:21","ebf9627b049f568eb4bf28942cb89901","117.160.156.81","Mozilla/5.0 (Windows NT 10.0; Win64; x64) AppleWebKit/537.36 (KHTML, like Gecko) Chrome/80.0.3987.163 Safari/537.36","WebKit","Chrome","80.0.3987.163","Windows","10.0","null","<div style=""font-size:60px;"">+</div>","null",""
"","","","","","html-button-response","67","113240","0.0-4.0-1.31","13","1","2022-10-07 06:09:21","ebf9627b049f568eb4bf28942cb89901","117.160.156.81","Mozilla/5.0 (Windows NT 10.0; Win64; x64) AppleWebKit/537.36 (KHTML, like Gecko) Chrome/80.0.3987.163 Safari/537.36","WebKit","Chrome","80.0.3987.163","Windows","10.0","637","<p>作为军队的指挥官，你可以选择发射导弹杀死 <strong>5名</strong> 敌国士兵，但会误杀附近的 <strong>1名</strong> 敌国平民。</p> <p>平民照片如下图所示。</p> <p></p> <img src='stimuli/faces/NFF5.jpg', style='max-width: 30%;'> </img> <p><strong>你是否选择发射武器？</strong></p>","0",""
"","","","","","html-keyboard-response","68","114244","0.0-4.0-0.32","13","1","2022-10-07 06:09:21","ebf9627b049f568eb4bf28942cb89901","117.160.156.81","Mozilla/5.0 (Windows NT 10.0; Win64; x64) AppleWebKit/537.36 (KHTML, like Gecko) Chrome/80.0.3987.163 Safari/537.36","WebKit","Chrome","80.0.3987.163","Windows","10.0","null","<div style=""font-size:60px;"">+</div>","null",""
"","","","","","html-button-response","69","115007","0.0-4.0-1.32","13","1","2022-10-07 06:09:21","ebf9627b049f568eb4bf28942cb89901","117.160.156.81","Mozilla/5.0 (Windows NT 10.0; Win64; x64) AppleWebKit/537.36 (KHTML, like Gecko) Chrome/80.0.3987.163 Safari/537.36","WebKit","Chrome","80.0.3987.163","Windows","10.0","761","<p>作为军队的指挥官，你可以选择发射导弹杀死 <strong>4名</strong> 敌国士兵，但会炸毁附近的 <strong>1棵</strong> 敌国树木。</p> <p>树木的照片如下图所示。</p> <p></p> <img src='stimuli/trees/14.png', style='max-width: 30%;'> </img> <p><strong>你是否选择发射武器？</strong></p>","0",""
"","","","","","html-keyboard-response","70","116021","0.0-4.0-0.33","13","1","2022-10-07 06:09:21","ebf9627b049f568eb4bf28942cb89901","117.160.156.81","Mozilla/5.0 (Windows NT 10.0; Win64; x64) AppleWebKit/537.36 (KHTML, like Gecko) Chrome/80.0.3987.163 Safari/537.36","WebKit","Chrome","80.0.3987.163","Windows","10.0","null","<div style=""font-size:60px;"">+</div>","null",""
"","","","","","html-button-response","71","116572","0.0-4.0-1.33","13","1","2022-10-07 06:09:21","ebf9627b049f568eb4bf28942cb89901","117.160.156.81","Mozilla/5.0 (Windows NT 10.0; Win64; x64) AppleWebKit/537.36 (KHTML, like Gecko) Chrome/80.0.3987.163 Safari/537.36","WebKit","Chrome","80.0.3987.163","Windows","10.0","548","<p>作为军队的指挥官，你可以选择发射导弹杀死 <strong>10名</strong> 敌国士兵，但会炸毁附近的 <strong>1棵</strong> 敌国树木。</p> <p>树木的照片如下图所示。</p> <p></p> <img src='stimuli/trees/2.png', style='max-width: 30%;'> </img> <p><strong>你是否选择发射武器？</strong></p>","0",""
"","","","","","html-keyboard-response","72","117577","0.0-4.0-0.34","13","1","2022-10-07 06:09:21","ebf9627b049f568eb4bf28942cb89901","117.160.156.81","Mozilla/5.0 (Windows NT 10.0; Win64; x64) AppleWebKit/537.36 (KHTML, like Gecko) Chrome/80.0.3987.163 Safari/537.36","WebKit","Chrome","80.0.3987.163","Windows","10.0","null","<div style=""font-size:60px;"">+</div>","null",""
"","","","","","html-button-response","73","118453","0.0-4.0-1.34","13","1","2022-10-07 06:09:21","ebf9627b049f568eb4bf28942cb89901","117.160.156.81","Mozilla/5.0 (Windows NT 10.0; Win64; x64) AppleWebKit/537.36 (KHTML, like Gecko) Chrome/80.0.3987.163 Safari/537.36","WebKit","Chrome","80.0.3987.163","Windows","10.0","873","<p>作为军队的指挥官，你可以选择发射导弹杀死 <strong>3名</strong> 敌国士兵，但会误杀附近的 <strong>1名</strong> 敌国平民。</p> <p>平民照片如下图所示。</p> <p></p> <img src='stimuli/faces/NFM6.jpg', style='max-width: 30%;'> </img> <p><strong>你是否选择发射武器？</strong></p>","0",""
"","","","","","html-keyboard-response","74","119456","0.0-4.0-0.35","13","1","2022-10-07 06:09:21","ebf9627b049f568eb4bf28942cb89901","117.160.156.81","Mozilla/5.0 (Windows NT 10.0; Win64; x64) AppleWebKit/537.36 (KHTML, like Gecko) Chrome/80.0.3987.163 Safari/537.36","WebKit","Chrome","80.0.3987.163","Windows","10.0","null","<div style=""font-size:60px;"">+</div>","null",""
"","","","","","html-button-response","75","120486","0.0-4.0-1.35","13","1","2022-10-07 06:09:21","ebf9627b049f568eb4bf28942cb89901","117.160.156.81","Mozilla/5.0 (Windows NT 10.0; Win64; x64) AppleWebKit/537.36 (KHTML, like Gecko) Chrome/80.0.3987.163 Safari/537.36","WebKit","Chrome","80.0.3987.163","Windows","10.0","1028","<p>作为军队的指挥官，你可以选择发射导弹杀死 <strong>9名</strong> 敌国士兵，但会误杀附近的 <strong>1名</strong> 敌国平民。</p> <p>平民照片如下图所示。</p> <p></p> <img src='stimuli/faces/NFM5.jpg', style='max-width: 30%;'> </img> <p><strong>你是否选择发射武器？</strong></p>","0",""
"","","","","","html-keyboard-response","76","121493","0.0-4.0-0.36","13","1","2022-10-07 06:09:21","ebf9627b049f568eb4bf28942cb89901","117.160.156.81","Mozilla/5.0 (Windows NT 10.0; Win64; x64) AppleWebKit/537.36 (KHTML, like Gecko) Chrome/80.0.3987.163 Safari/537.36","WebKit","Chrome","80.0.3987.163","Windows","10.0","null","<div style=""font-size:60px;"">+</div>","null",""
"","","","","","html-button-response","77","122395","0.0-4.0-1.36","13","1","2022-10-07 06:09:21","ebf9627b049f568eb4bf28942cb89901","117.160.156.81","Mozilla/5.0 (Windows NT 10.0; Win64; x64) AppleWebKit/537.36 (KHTML, like Gecko) Chrome/80.0.3987.163 Safari/537.36","WebKit","Chrome","80.0.3987.163","Windows","10.0","900","<p>作为军队的指挥官，你可以选择发射导弹杀死 <strong>4名</strong> 敌国士兵，但会炸毁附近的 <strong>1棵</strong> 敌国树木。</p> <p>树木的照片如下图所示。</p> <p></p> <img src='stimuli/trees/12.png', style='max-width: 30%;'> </img> <p><strong>你是否选择发射武器？</strong></p>","0",""
"","","","","","html-keyboard-response","78","123410","0.0-4.0-0.37","13","1","2022-10-07 06:09:21","ebf9627b049f568eb4bf28942cb89901","117.160.156.81","Mozilla/5.0 (Windows NT 10.0; Win64; x64) AppleWebKit/537.36 (KHTML, like Gecko) Chrome/80.0.3987.163 Safari/537.36","WebKit","Chrome","80.0.3987.163","Windows","10.0","null","<div style=""font-size:60px;"">+</div>","null",""
"","","","","","html-button-response","79","124220","0.0-4.0-1.37","13","1","2022-10-07 06:09:21","ebf9627b049f568eb4bf28942cb89901","117.160.156.81","Mozilla/5.0 (Windows NT 10.0; Win64; x64) AppleWebKit/537.36 (KHTML, like Gecko) Chrome/80.0.3987.163 Safari/537.36","WebKit","Chrome","80.0.3987.163","Windows","10.0","807","<p>作为军队的指挥官，你可以选择发射导弹杀死 <strong>6名</strong> 敌国士兵，但会误杀附近的 <strong>1名</strong> 敌国平民。</p> <p>平民照片如下图所示。</p> <p></p> <img src='stimuli/faces/NFM3.jpg', style='max-width: 30%;'> </img> <p><strong>你是否选择发射武器？</strong></p>","0",""
"","","","","","html-keyboard-response","80","125222","0.0-4.0-0.38","13","1","2022-10-07 06:09:21","ebf9627b049f568eb4bf28942cb89901","117.160.156.81","Mozilla/5.0 (Windows NT 10.0; Win64; x64) AppleWebKit/537.36 (KHTML, like Gecko) Chrome/80.0.3987.163 Safari/537.36","WebKit","Chrome","80.0.3987.163","Windows","10.0","null","<div style=""font-size:60px;"">+</div>","null",""
"","","","","","html-button-response","81","126477","0.0-4.0-1.38","13","1","2022-10-07 06:09:21","ebf9627b049f568eb4bf28942cb89901","117.160.156.81","Mozilla/5.0 (Windows NT 10.0; Win64; x64) AppleWebKit/537.36 (KHTML, like Gecko) Chrome/80.0.3987.163 Safari/537.36","WebKit","Chrome","80.0.3987.163","Windows","10.0","1253","<p>作为军队的指挥官，你可以选择发射导弹杀死 <strong>8名</strong> 敌国士兵，但会炸毁附近的 <strong>1棵</strong> 敌国树木。</p> <p>树木的照片如下图所示。</p> <p></p> <img src='stimuli/trees/13.png', style='max-width: 30%;'> </img> <p><strong>你是否选择发射武器？</strong></p>","0",""
"","","","","","html-keyboard-response","82","127489","0.0-4.0-0.39","13","1","2022-10-07 06:09:21","ebf9627b049f568eb4bf28942cb89901","117.160.156.81","Mozilla/5.0 (Windows NT 10.0; Win64; x64) AppleWebKit/537.36 (KHTML, like Gecko) Chrome/80.0.3987.163 Safari/537.36","WebKit","Chrome","80.0.3987.163","Windows","10.0","null","<div style=""font-size:60px;"">+</div>","null",""
"","","","","","html-button-response","83","130503","0.0-4.0-1.39","13","1","2022-10-07 06:09:21","ebf9627b049f568eb4bf28942cb89901","117.160.156.81","Mozilla/5.0 (Windows NT 10.0; Win64; x64) AppleWebKit/537.36 (KHTML, like Gecko) Chrome/80.0.3987.163 Safari/537.36","WebKit","Chrome","80.0.3987.163","Windows","10.0","3012","<p>作为军队的指挥官，你可以选择发射导弹杀死 <strong>6名</strong> 敌国士兵，但会误杀附近的 <strong>1名</strong> 敌国平民。</p> <p>平民照片如下图所示。</p> <p></p> <img src='stimuli/faces/NFF2.jpg', style='max-width: 30%;'> </img> <p><strong>你是否选择发射武器？</strong></p>","0",""
"","","","","","html-keyboard-response","84","131518","0.0-4.0-0.40","13","1","2022-10-07 06:09:21","ebf9627b049f568eb4bf28942cb89901","117.160.156.81","Mozilla/5.0 (Windows NT 10.0; Win64; x64) AppleWebKit/537.36 (KHTML, like Gecko) Chrome/80.0.3987.163 Safari/537.36","WebKit","Chrome","80.0.3987.163","Windows","10.0","null","<div style=""font-size:60px;"">+</div>","null",""
"","","","","","html-button-response","85","133949","0.0-4.0-1.40","13","1","2022-10-07 06:09:21","ebf9627b049f568eb4bf28942cb89901","117.160.156.81","Mozilla/5.0 (Windows NT 10.0; Win64; x64) AppleWebKit/537.36 (KHTML, like Gecko) Chrome/80.0.3987.163 Safari/537.36","WebKit","Chrome","80.0.3987.163","Windows","10.0","2428","<p>作为军队的指挥官，你可以选择发射导弹杀死 <strong>9名</strong> 敌国士兵，但会误杀附近的 <strong>1名</strong> 敌国平民。</p> <p>平民照片如下图所示。</p> <p></p> <img src='stimuli/faces/NFM7.jpg', style='max-width: 30%;'> </img> <p><strong>你是否选择发射武器？</strong></p>","0",""
"","","","","","html-keyboard-response","86","134959","0.0-4.0-0.41","13","1","2022-10-07 06:09:21","ebf9627b049f568eb4bf28942cb89901","117.160.156.81","Mozilla/5.0 (Windows NT 10.0; Win64; x64) AppleWebKit/537.36 (KHTML, like Gecko) Chrome/80.0.3987.163 Safari/537.36","WebKit","Chrome","80.0.3987.163","Windows","10.0","null","<div style=""font-size:60px;"">+</div>","null",""
"","","","","","html-button-response","87","135594","0.0-4.0-1.41","13","1","2022-10-07 06:09:21","ebf9627b049f568eb4bf28942cb89901","117.160.156.81","Mozilla/5.0 (Windows NT 10.0; Win64; x64) AppleWebKit/537.36 (KHTML, like Gecko) Chrome/80.0.3987.163 Safari/537.36","WebKit","Chrome","80.0.3987.163","Windows","10.0","633","<p>作为军队的指挥官，你可以选择发射导弹杀死 <strong>1名</strong> 敌国士兵，但会炸毁附近的 <strong>1棵</strong> 敌国树木。</p> <p>树木的照片如下图所示。</p> <p></p> <img src='stimuli/trees/10.png', style='max-width: 30%;'> </img> <p><strong>你是否选择发射武器？</strong></p>","0",""
"","","","","","html-keyboard-response","88","136601","0.0-4.0-0.42","13","1","2022-10-07 06:09:21","ebf9627b049f568eb4bf28942cb89901","117.160.156.81","Mozilla/5.0 (Windows NT 10.0; Win64; x64) AppleWebKit/537.36 (KHTML, like Gecko) Chrome/80.0.3987.163 Safari/537.36","WebKit","Chrome","80.0.3987.163","Windows","10.0","null","<div style=""font-size:60px;"">+</div>","null",""
"","","","","","html-button-response","89","137195","0.0-4.0-1.42","13","1","2022-10-07 06:09:21","ebf9627b049f568eb4bf28942cb89901","117.160.156.81","Mozilla/5.0 (Windows NT 10.0; Win64; x64) AppleWebKit/537.36 (KHTML, like Gecko) Chrome/80.0.3987.163 Safari/537.36","WebKit","Chrome","80.0.3987.163","Windows","10.0","591","<p>作为军队的指挥官，你可以选择发射导弹杀死 <strong>1名</strong> 敌国士兵，但会误杀附近的 <strong>1名</strong> 敌国平民。</p> <p>平民照片如下图所示。</p> <p></p> <img src='stimuli/faces/NFF6.jpg', style='max-width: 30%;'> </img> <p><strong>你是否选择发射武器？</strong></p>","0",""
"","","","","","html-keyboard-response","90","138205","0.0-4.0-0.43","13","1","2022-10-07 06:09:21","ebf9627b049f568eb4bf28942cb89901","117.160.156.81","Mozilla/5.0 (Windows NT 10.0; Win64; x64) AppleWebKit/537.36 (KHTML, like Gecko) Chrome/80.0.3987.163 Safari/537.36","WebKit","Chrome","80.0.3987.163","Windows","10.0","null","<div style=""font-size:60px;"">+</div>","null",""
"","","","","","html-button-response","91","139080","0.0-4.0-1.43","13","1","2022-10-07 06:09:21","ebf9627b049f568eb4bf28942cb89901","117.160.156.81","Mozilla/5.0 (Windows NT 10.0; Win64; x64) AppleWebKit/537.36 (KHTML, like Gecko) Chrome/80.0.3987.163 Safari/537.36","WebKit","Chrome","80.0.3987.163","Windows","10.0","872","<p>作为军队的指挥官，你可以选择发射导弹杀死 <strong>2名</strong> 敌国士兵，但会炸毁附近的 <strong>1棵</strong> 敌国树木。</p> <p>树木的照片如下图所示。</p> <p></p> <img src='stimuli/trees/1.png', style='max-width: 30%;'> </img> <p><strong>你是否选择发射武器？</strong></p>","0",""
"","","","","","html-keyboard-response","92","140091","0.0-4.0-0.44","13","1","2022-10-07 06:09:21","ebf9627b049f568eb4bf28942cb89901","117.160.156.81","Mozilla/5.0 (Windows NT 10.0; Win64; x64) AppleWebKit/537.36 (KHTML, like Gecko) Chrome/80.0.3987.163 Safari/537.36","WebKit","Chrome","80.0.3987.163","Windows","10.0","null","<div style=""font-size:60px;"">+</div>","null",""
"","","","","","html-button-response","93","141337","0.0-4.0-1.44","13","1","2022-10-07 06:09:21","ebf9627b049f568eb4bf28942cb89901","117.160.156.81","Mozilla/5.0 (Windows NT 10.0; Win64; x64) AppleWebKit/537.36 (KHTML, like Gecko) Chrome/80.0.3987.163 Safari/537.36","WebKit","Chrome","80.0.3987.163","Windows","10.0","1244","<p>作为军队的指挥官，你可以选择发射导弹杀死 <strong>8名</strong> 敌国士兵，但会炸毁附近的 <strong>1棵</strong> 敌国树木。</p> <p>树木的照片如下图所示。</p> <p></p> <img src='stimuli/trees/16.png', style='max-width: 30%;'> </img> <p><strong>你是否选择发射武器？</strong></p>","0",""
"","","","","","html-keyboard-response","94","142347","0.0-4.0-0.45","13","1","2022-10-07 06:09:21","ebf9627b049f568eb4bf28942cb89901","117.160.156.81","Mozilla/5.0 (Windows NT 10.0; Win64; x64) AppleWebKit/537.36 (KHTML, like Gecko) Chrome/80.0.3987.163 Safari/537.36","WebKit","Chrome","80.0.3987.163","Windows","10.0","null","<div style=""font-size:60px;"">+</div>","null",""
"","","","","","html-button-response","95","142930","0.0-4.0-1.45","13","1","2022-10-07 06:09:21","ebf9627b049f568eb4bf28942cb89901","117.160.156.81","Mozilla/5.0 (Windows NT 10.0; Win64; x64) AppleWebKit/537.36 (KHTML, like Gecko) Chrome/80.0.3987.163 Safari/537.36","WebKit","Chrome","80.0.3987.163","Windows","10.0","581","<p>作为军队的指挥官，你可以选择发射导弹杀死 <strong>5名</strong> 敌国士兵，但会炸毁附近的 <strong>1棵</strong> 敌国树木。</p> <p>树木的照片如下图所示。</p> <p></p> <img src='stimuli/trees/13.png', style='max-width: 30%;'> </img> <p><strong>你是否选择发射武器？</strong></p>","0",""
"","","","","","html-keyboard-response","96","143942","0.0-4.0-0.46","13","1","2022-10-07 06:09:21","ebf9627b049f568eb4bf28942cb89901","117.160.156.81","Mozilla/5.0 (Windows NT 10.0; Win64; x64) AppleWebKit/537.36 (KHTML, like Gecko) Chrome/80.0.3987.163 Safari/537.36","WebKit","Chrome","80.0.3987.163","Windows","10.0","null","<div style=""font-size:60px;"">+</div>","null",""
"","","","","","html-button-response","97","145144","0.0-4.0-1.46","13","1","2022-10-07 06:09:21","ebf9627b049f568eb4bf28942cb89901","117.160.156.81","Mozilla/5.0 (Windows NT 10.0; Win64; x64) AppleWebKit/537.36 (KHTML, like Gecko) Chrome/80.0.3987.163 Safari/537.36","WebKit","Chrome","80.0.3987.163","Windows","10.0","1200","<p>作为军队的指挥官，你可以选择发射导弹杀死 <strong>7名</strong> 敌国士兵，但会误杀附近的 <strong>1名</strong> 敌国平民。</p> <p>平民照片如下图所示。</p> <p></p> <img src='stimuli/faces/NFF8.jpg', style='max-width: 30%;'> </img> <p><strong>你是否选择发射武器？</strong></p>","0",""
"","","","","","html-keyboard-response","98","146146","0.0-4.0-0.47","13","1","2022-10-07 06:09:21","ebf9627b049f568eb4bf28942cb89901","117.160.156.81","Mozilla/5.0 (Windows NT 10.0; Win64; x64) AppleWebKit/537.36 (KHTML, like Gecko) Chrome/80.0.3987.163 Safari/537.36","WebKit","Chrome","80.0.3987.163","Windows","10.0","null","<div style=""font-size:60px;"">+</div>","null",""
"","","","","","html-button-response","99","146904","0.0-4.0-1.47","13","1","2022-10-07 06:09:21","ebf9627b049f568eb4bf28942cb89901","117.160.156.81","Mozilla/5.0 (Windows NT 10.0; Win64; x64) AppleWebKit/537.36 (KHTML, like Gecko) Chrome/80.0.3987.163 Safari/537.36","WebKit","Chrome","80.0.3987.163","Windows","10.0","755","<p>作为军队的指挥官，你可以选择发射导弹杀死 <strong>3名</strong> 敌国士兵，但会误杀附近的 <strong>1名</strong> 敌国平民。</p> <p>平民照片如下图所示。</p> <p></p> <img src='stimuli/faces/NFF7.jpg', style='max-width: 30%;'> </img> <p><strong>你是否选择发射武器？</strong></p>","0",""
"","","","","","html-keyboard-response","100","147911","0.0-4.0-0.48","13","1","2022-10-07 06:09:21","ebf9627b049f568eb4bf28942cb89901","117.160.156.81","Mozilla/5.0 (Windows NT 10.0; Win64; x64) AppleWebKit/537.36 (KHTML, like Gecko) Chrome/80.0.3987.163 Safari/537.36","WebKit","Chrome","80.0.3987.163","Windows","10.0","null","<div style=""font-size:60px;"">+</div>","null",""
"","","","","","html-button-response","101","148513","0.0-4.0-1.48","13","1","2022-10-07 06:09:21","ebf9627b049f568eb4bf28942cb89901","117.160.156.81","Mozilla/5.0 (Windows NT 10.0; Win64; x64) AppleWebKit/537.36 (KHTML, like Gecko) Chrome/80.0.3987.163 Safari/537.36","WebKit","Chrome","80.0.3987.163","Windows","10.0","599","<p>作为军队的指挥官，你可以选择发射导弹杀死 <strong>8名</strong> 敌国士兵，但会炸毁附近的 <strong>1棵</strong> 敌国树木。</p> <p>树木的照片如下图所示。</p> <p></p> <img src='stimuli/trees/6.png', style='max-width: 30%;'> </img> <p><strong>你是否选择发射武器？</strong></p>","0",""
"","","","","","html-keyboard-response","102","149522","0.0-4.0-0.49","13","1","2022-10-07 06:09:21","ebf9627b049f568eb4bf28942cb89901","117.160.156.81","Mozilla/5.0 (Windows NT 10.0; Win64; x64) AppleWebKit/537.36 (KHTML, like Gecko) Chrome/80.0.3987.163 Safari/537.36","WebKit","Chrome","80.0.3987.163","Windows","10.0","null","<div style=""font-size:60px;"">+</div>","null",""
"","","","","","html-button-response","103","150738","0.0-4.0-1.49","13","1","2022-10-07 06:09:21","ebf9627b049f568eb4bf28942cb89901","117.160.156.81","Mozilla/5.0 (Windows NT 10.0; Win64; x64) AppleWebKit/537.36 (KHTML, like Gecko) Chrome/80.0.3987.163 Safari/537.36","WebKit","Chrome","80.0.3987.163","Windows","10.0","1214","<p>作为军队的指挥官，你可以选择发射导弹杀死 <strong>2名</strong> 敌国士兵，但会炸毁附近的 <strong>1棵</strong> 敌国树木。</p> <p>树木的照片如下图所示。</p> <p></p> <img src='stimuli/trees/16.png', style='max-width: 30%;'> </img> <p><strong>你是否选择发射武器？</strong></p>","0",""
"","","","","","html-keyboard-response","104","151747","0.0-4.0-0.50","13","1","2022-10-07 06:09:21","ebf9627b049f568eb4bf28942cb89901","117.160.156.81","Mozilla/5.0 (Windows NT 10.0; Win64; x64) AppleWebKit/537.36 (KHTML, like Gecko) Chrome/80.0.3987.163 Safari/537.36","WebKit","Chrome","80.0.3987.163","Windows","10.0","null","<div style=""font-size:60px;"">+</div>","null",""
"","","","","","html-button-response","105","152327","0.0-4.0-1.50","13","1","2022-10-07 06:09:21","ebf9627b049f568eb4bf28942cb89901","117.160.156.81","Mozilla/5.0 (Windows NT 10.0; Win64; x64) AppleWebKit/537.36 (KHTML, like Gecko) Chrome/80.0.3987.163 Safari/537.36","WebKit","Chrome","80.0.3987.163","Windows","10.0","577","<p>作为军队的指挥官，你可以选择发射导弹杀死 <strong>2名</strong> 敌国士兵，但会炸毁附近的 <strong>1棵</strong> 敌国树木。</p> <p>树木的照片如下图所示。</p> <p></p> <img src='stimuli/trees/2.png', style='max-width: 30%;'> </img> <p><strong>你是否选择发射武器？</strong></p>","0",""
"","","","","","html-keyboard-response","106","153340","0.0-4.0-0.51","13","1","2022-10-07 06:09:21","ebf9627b049f568eb4bf28942cb89901","117.160.156.81","Mozilla/5.0 (Windows NT 10.0; Win64; x64) AppleWebKit/537.36 (KHTML, like Gecko) Chrome/80.0.3987.163 Safari/537.36","WebKit","Chrome","80.0.3987.163","Windows","10.0","null","<div style=""font-size:60px;"">+</div>","null",""
"","","","","","html-button-response","107","154003","0.0-4.0-1.51","13","1","2022-10-07 06:09:21","ebf9627b049f568eb4bf28942cb89901","117.160.156.81","Mozilla/5.0 (Windows NT 10.0; Win64; x64) AppleWebKit/537.36 (KHTML, like Gecko) Chrome/80.0.3987.163 Safari/537.36","WebKit","Chrome","80.0.3987.163","Windows","10.0","661","<p>作为军队的指挥官，你可以选择发射导弹杀死 <strong>6名</strong> 敌国士兵，但会炸毁附近的 <strong>1棵</strong> 敌国树木。</p> <p>树木的照片如下图所示。</p> <p></p> <img src='stimuli/trees/9.png', style='max-width: 30%;'> </img> <p><strong>你是否选择发射武器？</strong></p>","0",""
"","","","","","html-keyboard-response","108","155007","0.0-4.0-0.52","13","1","2022-10-07 06:09:21","ebf9627b049f568eb4bf28942cb89901","117.160.156.81","Mozilla/5.0 (Windows NT 10.0; Win64; x64) AppleWebKit/537.36 (KHTML, like Gecko) Chrome/80.0.3987.163 Safari/537.36","WebKit","Chrome","80.0.3987.163","Windows","10.0","null","<div style=""font-size:60px;"">+</div>","null",""
"","","","","","html-button-response","109","155808","0.0-4.0-1.52","13","1","2022-10-07 06:09:21","ebf9627b049f568eb4bf28942cb89901","117.160.156.81","Mozilla/5.0 (Windows NT 10.0; Win64; x64) AppleWebKit/537.36 (KHTML, like Gecko) Chrome/80.0.3987.163 Safari/537.36","WebKit","Chrome","80.0.3987.163","Windows","10.0","799","<p>作为军队的指挥官，你可以选择发射导弹杀死 <strong>6名</strong> 敌国士兵，但会炸毁附近的 <strong>1棵</strong> 敌国树木。</p> <p>树木的照片如下图所示。</p> <p></p> <img src='stimuli/trees/3.png', style='max-width: 30%;'> </img> <p><strong>你是否选择发射武器？</strong></p>","0",""
"","","","","","html-keyboard-response","110","156821","0.0-4.0-0.53","13","1","2022-10-07 06:09:21","ebf9627b049f568eb4bf28942cb89901","117.160.156.81","Mozilla/5.0 (Windows NT 10.0; Win64; x64) AppleWebKit/537.36 (KHTML, like Gecko) Chrome/80.0.3987.163 Safari/537.36","WebKit","Chrome","80.0.3987.163","Windows","10.0","null","<div style=""font-size:60px;"">+</div>","null",""
"","","","","","html-button-response","111","157941","0.0-4.0-1.53","13","1","2022-10-07 06:09:21","ebf9627b049f568eb4bf28942cb89901","117.160.156.81","Mozilla/5.0 (Windows NT 10.0; Win64; x64) AppleWebKit/537.36 (KHTML, like Gecko) Chrome/80.0.3987.163 Safari/537.36","WebKit","Chrome","80.0.3987.163","Windows","10.0","1118","<p>作为军队的指挥官，你可以选择发射导弹杀死 <strong>9名</strong> 敌国士兵，但会误杀附近的 <strong>1名</strong> 敌国平民。</p> <p>平民照片如下图所示。</p> <p></p> <img src='stimuli/faces/NFM2.jpg', style='max-width: 30%;'> </img> <p><strong>你是否选择发射武器？</strong></p>","0",""
"","","","","","html-keyboard-response","112","158951","0.0-4.0-0.54","13","1","2022-10-07 06:09:21","ebf9627b049f568eb4bf28942cb89901","117.160.156.81","Mozilla/5.0 (Windows NT 10.0; Win64; x64) AppleWebKit/537.36 (KHTML, like Gecko) Chrome/80.0.3987.163 Safari/537.36","WebKit","Chrome","80.0.3987.163","Windows","10.0","null","<div style=""font-size:60px;"">+</div>","null",""
"","","","","","html-button-response","113","159750","0.0-4.0-1.54","13","1","2022-10-07 06:09:21","ebf9627b049f568eb4bf28942cb89901","117.160.156.81","Mozilla/5.0 (Windows NT 10.0; Win64; x64) AppleWebKit/537.36 (KHTML, like Gecko) Chrome/80.0.3987.163 Safari/537.36","WebKit","Chrome","80.0.3987.163","Windows","10.0","797","<p>作为军队的指挥官，你可以选择发射导弹杀死 <strong>5名</strong> 敌国士兵，但会炸毁附近的 <strong>1棵</strong> 敌国树木。</p> <p>树木的照片如下图所示。</p> <p></p> <img src='stimuli/trees/5.png', style='max-width: 30%;'> </img> <p><strong>你是否选择发射武器？</strong></p>","0",""
"","","","","","html-keyboard-response","114","160767","0.0-4.0-0.55","13","1","2022-10-07 06:09:21","ebf9627b049f568eb4bf28942cb89901","117.160.156.81","Mozilla/5.0 (Windows NT 10.0; Win64; x64) AppleWebKit/537.36 (KHTML, like Gecko) Chrome/80.0.3987.163 Safari/537.36","WebKit","Chrome","80.0.3987.163","Windows","10.0","null","<div style=""font-size:60px;"">+</div>","null",""
"","","","","","html-button-response","115","161491","0.0-4.0-1.55","13","1","2022-10-07 06:09:21","ebf9627b049f568eb4bf28942cb89901","117.160.156.81","Mozilla/5.0 (Windows NT 10.0; Win64; x64) AppleWebKit/537.36 (KHTML, like Gecko) Chrome/80.0.3987.163 Safari/537.36","WebKit","Chrome","80.0.3987.163","Windows","10.0","721","<p>作为军队的指挥官，你可以选择发射导弹杀死 <strong>2名</strong> 敌国士兵，但会炸毁附近的 <strong>1棵</strong> 敌国树木。</p> <p>树木的照片如下图所示。</p> <p></p> <img src='stimuli/trees/9.png', style='max-width: 30%;'> </img> <p><strong>你是否选择发射武器？</strong></p>","0",""
"","","","","","html-keyboard-response","116","162495","0.0-4.0-0.56","13","1","2022-10-07 06:09:21","ebf9627b049f568eb4bf28942cb89901","117.160.156.81","Mozilla/5.0 (Windows NT 10.0; Win64; x64) AppleWebKit/537.36 (KHTML, like Gecko) Chrome/80.0.3987.163 Safari/537.36","WebKit","Chrome","80.0.3987.163","Windows","10.0","null","<div style=""font-size:60px;"">+</div>","null",""
"","","","","","html-button-response","117","163317","0.0-4.0-1.56","13","1","2022-10-07 06:09:21","ebf9627b049f568eb4bf28942cb89901","117.160.156.81","Mozilla/5.0 (Windows NT 10.0; Win64; x64) AppleWebKit/537.36 (KHTML, like Gecko) Chrome/80.0.3987.163 Safari/537.36","WebKit","Chrome","80.0.3987.163","Windows","10.0","819","<p>作为军队的指挥官，你可以选择发射导弹杀死 <strong>4名</strong> 敌国士兵，但会误杀附近的 <strong>1名</strong> 敌国平民。</p> <p>平民照片如下图所示。</p> <p></p> <img src='stimuli/faces/NFM1.jpg', style='max-width: 30%;'> </img> <p><strong>你是否选择发射武器？</strong></p>","0",""
"","","","","","html-keyboard-response","118","164328","0.0-4.0-0.57","13","1","2022-10-07 06:09:21","ebf9627b049f568eb4bf28942cb89901","117.160.156.81","Mozilla/5.0 (Windows NT 10.0; Win64; x64) AppleWebKit/537.36 (KHTML, like Gecko) Chrome/80.0.3987.163 Safari/537.36","WebKit","Chrome","80.0.3987.163","Windows","10.0","null","<div style=""font-size:60px;"">+</div>","null",""
"","","","","","html-button-response","119","165613","0.0-4.0-1.57","13","1","2022-10-07 06:09:21","ebf9627b049f568eb4bf28942cb89901","117.160.156.81","Mozilla/5.0 (Windows NT 10.0; Win64; x64) AppleWebKit/537.36 (KHTML, like Gecko) Chrome/80.0.3987.163 Safari/537.36","WebKit","Chrome","80.0.3987.163","Windows","10.0","1282","<p>作为军队的指挥官，你可以选择发射导弹杀死 <strong>10名</strong> 敌国士兵，但会误杀附近的 <strong>1名</strong> 敌国平民。</p> <p>平民照片如下图所示。</p> <p></p> <img src='stimuli/faces/NFF1.jpg', style='max-width: 30%;'> </img> <p><strong>你是否选择发射武器？</strong></p>","0",""
"","","","","","html-keyboard-response","120","166622","0.0-4.0-0.58","13","1","2022-10-07 06:09:21","ebf9627b049f568eb4bf28942cb89901","117.160.156.81","Mozilla/5.0 (Windows NT 10.0; Win64; x64) AppleWebKit/537.36 (KHTML, like Gecko) Chrome/80.0.3987.163 Safari/537.36","WebKit","Chrome","80.0.3987.163","Windows","10.0","null","<div style=""font-size:60px;"">+</div>","null",""
"","","","","","html-button-response","121","167931","0.0-4.0-1.58","13","1","2022-10-07 06:09:21","ebf9627b049f568eb4bf28942cb89901","117.160.156.81","Mozilla/5.0 (Windows NT 10.0; Win64; x64) AppleWebKit/537.36 (KHTML, like Gecko) Chrome/80.0.3987.163 Safari/537.36","WebKit","Chrome","80.0.3987.163","Windows","10.0","1306","<p>作为军队的指挥官，你可以选择发射导弹杀死 <strong>5名</strong> 敌国士兵，但会误杀附近的 <strong>1名</strong> 敌国平民。</p> <p>平民照片如下图所示。</p> <p></p> <img src='stimuli/faces/NFM8.jpg', style='max-width: 30%;'> </img> <p><strong>你是否选择发射武器？</strong></p>","0",""
"","","","","","html-keyboard-response","122","168935","0.0-4.0-0.59","13","1","2022-10-07 06:09:21","ebf9627b049f568eb4bf28942cb89901","117.160.156.81","Mozilla/5.0 (Windows NT 10.0; Win64; x64) AppleWebKit/537.36 (KHTML, like Gecko) Chrome/80.0.3987.163 Safari/537.36","WebKit","Chrome","80.0.3987.163","Windows","10.0","null","<div style=""font-size:60px;"">+</div>","null",""
"","","","","","html-button-response","123","169755","0.0-4.0-1.59","13","1","2022-10-07 06:09:21","ebf9627b049f568eb4bf28942cb89901","117.160.156.81","Mozilla/5.0 (Windows NT 10.0; Win64; x64) AppleWebKit/537.36 (KHTML, like Gecko) Chrome/80.0.3987.163 Safari/537.36","WebKit","Chrome","80.0.3987.163","Windows","10.0","817","<p>作为军队的指挥官，你可以选择发射导弹杀死 <strong>9名</strong> 敌国士兵，但会炸毁附近的 <strong>1棵</strong> 敌国树木。</p> <p>树木的照片如下图所示。</p> <p></p> <img src='stimuli/trees/4.png', style='max-width: 30%;'> </img> <p><strong>你是否选择发射武器？</strong></p>","0",""
"","","","","","html-keyboard-response","124","170761","0.0-4.0-0.60","13","1","2022-10-07 06:09:21","ebf9627b049f568eb4bf28942cb89901","117.160.156.81","Mozilla/5.0 (Windows NT 10.0; Win64; x64) AppleWebKit/537.36 (KHTML, like Gecko) Chrome/80.0.3987.163 Safari/537.36","WebKit","Chrome","80.0.3987.163","Windows","10.0","null","<div style=""font-size:60px;"">+</div>","null",""
"","","","","","html-button-response","125","171508","0.0-4.0-1.60","13","1","2022-10-07 06:09:21","ebf9627b049f568eb4bf28942cb89901","117.160.156.81","Mozilla/5.0 (Windows NT 10.0; Win64; x64) AppleWebKit/537.36 (KHTML, like Gecko) Chrome/80.0.3987.163 Safari/537.36","WebKit","Chrome","80.0.3987.163","Windows","10.0","744","<p>作为军队的指挥官，你可以选择发射导弹杀死 <strong>6名</strong> 敌国士兵，但会炸毁附近的 <strong>1棵</strong> 敌国树木。</p> <p>树木的照片如下图所示。</p> <p></p> <img src='stimuli/trees/12.png', style='max-width: 30%;'> </img> <p><strong>你是否选择发射武器？</strong></p>","0",""
"","","","","","html-keyboard-response","126","172517","0.0-4.0-0.61","13","1","2022-10-07 06:09:21","ebf9627b049f568eb4bf28942cb89901","117.160.156.81","Mozilla/5.0 (Windows NT 10.0; Win64; x64) AppleWebKit/537.36 (KHTML, like Gecko) Chrome/80.0.3987.163 Safari/537.36","WebKit","Chrome","80.0.3987.163","Windows","10.0","null","<div style=""font-size:60px;"">+</div>","null",""
"","","","","","html-button-response","127","173209","0.0-4.0-1.61","13","1","2022-10-07 06:09:21","ebf9627b049f568eb4bf28942cb89901","117.160.156.81","Mozilla/5.0 (Windows NT 10.0; Win64; x64) AppleWebKit/537.36 (KHTML, like Gecko) Chrome/80.0.3987.163 Safari/537.36","WebKit","Chrome","80.0.3987.163","Windows","10.0","690","<p>作为军队的指挥官，你可以选择发射导弹杀死 <strong>1名</strong> 敌国士兵，但会误杀附近的 <strong>1名</strong> 敌国平民。</p> <p>平民照片如下图所示。</p> <p></p> <img src='stimuli/faces/NFF4.jpg', style='max-width: 30%;'> </img> <p><strong>你是否选择发射武器？</strong></p>","0",""
"","","","","","html-keyboard-response","128","174225","0.0-4.0-0.62","13","1","2022-10-07 06:09:21","ebf9627b049f568eb4bf28942cb89901","117.160.156.81","Mozilla/5.0 (Windows NT 10.0; Win64; x64) AppleWebKit/537.36 (KHTML, like Gecko) Chrome/80.0.3987.163 Safari/537.36","WebKit","Chrome","80.0.3987.163","Windows","10.0","null","<div style=""font-size:60px;"">+</div>","null",""
"","","","","","html-button-response","129","174718","0.0-4.0-1.62","13","1","2022-10-07 06:09:21","ebf9627b049f568eb4bf28942cb89901","117.160.156.81","Mozilla/5.0 (Windows NT 10.0; Win64; x64) AppleWebKit/537.36 (KHTML, like Gecko) Chrome/80.0.3987.163 Safari/537.36","WebKit","Chrome","80.0.3987.163","Windows","10.0","490","<p>作为军队的指挥官，你可以选择发射导弹杀死 <strong>6名</strong> 敌国士兵，但会炸毁附近的 <strong>1棵</strong> 敌国树木。</p> <p>树木的照片如下图所示。</p> <p></p> <img src='stimuli/trees/14.png', style='max-width: 30%;'> </img> <p><strong>你是否选择发射武器？</strong></p>","0",""
"","","","","","html-keyboard-response","130","175725","0.0-4.0-0.63","13","1","2022-10-07 06:09:21","ebf9627b049f568eb4bf28942cb89901","117.160.156.81","Mozilla/5.0 (Windows NT 10.0; Win64; x64) AppleWebKit/537.36 (KHTML, like Gecko) Chrome/80.0.3987.163 Safari/537.36","WebKit","Chrome","80.0.3987.163","Windows","10.0","null","<div style=""font-size:60px;"">+</div>","null",""
"","","","","","html-button-response","131","176311","0.0-4.0-1.63","13","1","2022-10-07 06:09:21","ebf9627b049f568eb4bf28942cb89901","117.160.156.81","Mozilla/5.0 (Windows NT 10.0; Win64; x64) AppleWebKit/537.36 (KHTML, like Gecko) Chrome/80.0.3987.163 Safari/537.36","WebKit","Chrome","80.0.3987.163","Windows","10.0","584","<p>作为军队的指挥官，你可以选择发射导弹杀死 <strong>2名</strong> 敌国士兵，但会炸毁附近的 <strong>1棵</strong> 敌国树木。</p> <p>树木的照片如下图所示。</p> <p></p> <img src='stimuli/trees/4.png', style='max-width: 30%;'> </img> <p><strong>你是否选择发射武器？</strong></p>","0",""
"","","","","","survey-multi-choice","132","194785","0.0-5.0","13","1","2022-10-07 06:09:21","ebf9627b049f568eb4bf28942cb89901","117.160.156.81","Mozilla/5.0 (Windows NT 10.0; Win64; x64) AppleWebKit/537.36 (KHTML, like Gecko) Chrome/80.0.3987.163 Safari/537.36","WebKit","Chrome","80.0.3987.163","Windows","10.0","18470","","{""Attention1"":""""}","[0]"
"","","","","","html-button-response","133","197029","0.0-6.0","13","1","2022-10-07 06:09:21","ebf9627b049f568eb4bf28942cb89901","117.160.156.81","Mozilla/5.0 (Windows NT 10.0; Win64; x64) AppleWebKit/537.36 (KHTML, like Gecko) Chrome/80.0.3987.163 Safari/537.36","WebKit","Chrome","80.0.3987.163","Windows","10.0","2238","<p style=""font-size:20px;font-weight:bold;"">恭喜！</p><p>你已经完成了实验的第一部分。</p><p>请休息放松一下，然后进入第二部分。</p><p>这部分大约需要10分钟。</p>","0",""
"","","","","","survey-text","134","251174","0.0-7.0","13","1","2022-10-07 06:09:21","ebf9627b049f568eb4bf28942cb89901","117.160.156.81","Mozilla/5.0 (Windows NT 10.0; Win64; x64) AppleWebKit/537.36 (KHTML, like Gecko) Chrome/80.0.3987.163 Safari/537.36","WebKit","Chrome","80.0.3987.163","Windows","10.0","53134","","{""Age"":""20"",""Nation"":""中国"",""Born"":""河南省郑州市"",""Live"":""河南省郑州市"",""Ethnic"":""汉族"",""Alipay"":""13203719599""}",""
"","","","","","survey-multi-choice","135","269139","0.0-8.0","13","1","2022-10-07 06:09:21","ebf9627b049f568eb4bf28942cb89901","117.160.156.81","Mozilla/5.0 (Windows NT 10.0; Win64; x64) AppleWebKit/537.36 (KHTML, like Gecko) Chrome/80.0.3987.163 Safari/537.36","WebKit","Chrome","80.0.3987.163","Windows","10.0","17962","","{""Gender"":""男"",""Education"":""本科毕业"",""Income"":""￥140,000-￥269,999"",""Children"":""1"",""Race"":""亚洲人""}","[0,1,2,3,4]"
"","","","","","survey-multi-select","136","276247","0.0-9.0","13","1","2022-10-07 06:09:21","ebf9627b049f568eb4bf28942cb89901","117.160.156.81","Mozilla/5.0 (Windows NT 10.0; Win64; x64) AppleWebKit/537.36 (KHTML, like Gecko) Chrome/80.0.3987.163 Safari/537.36","WebKit","Chrome","80.0.3987.163","Windows","10.0","7099","","{""Marriage"":[""未婚""],""Religion"":[""无宗教信仰""]}","[0,1]"
"","","","","","survey-multi-choice","137","296558","0.0-10.0","13","1","2022-10-07 06:09:21","ebf9627b049f568eb4bf28942cb89901","117.160.156.81","Mozilla/5.0 (Windows NT 10.0; Win64; x64) AppleWebKit/537.36 (KHTML, like Gecko) Chrome/80.0.3987.163 Safari/537.36","WebKit","Chrome","80.0.3987.163","Windows","10.0","20305","","{""SES"":""4""}","[0]"
"","","","","","html-button-response","138","300510","0.0-11.0","13","1","2022-10-07 06:09:21","ebf9627b049f568eb4bf28942cb89901","117.160.156.81","Mozilla/5.0 (Windows NT 10.0; Win64; x64) AppleWebKit/537.36 (KHTML, like Gecko) Chrome/80.0.3987.163 Safari/537.36","WebKit","Chrome","80.0.3987.163","Windows","10.0","3946","<p><strong>请判断下列陈述在多大程度上可以形容你？</p><p> (1 = ""和我一点都不像"" to 5 = ""非常像我"".)</strong></p>","0",""
"","","","","","survey-likert","139","328252","0.0-12.0","13","1","2022-10-07 06:09:21","ebf9627b049f568eb4bf28942cb89901","117.160.156.81","Mozilla/5.0 (Windows NT 10.0; Win64; x64) AppleWebKit/537.36 (KHTML, like Gecko) Chrome/80.0.3987.163 Safari/537.36","WebKit","Chrome","80.0.3987.163","Windows","10.0","27738","","{""Aggression1"":1,""Aggression2"":3,""Aggression3"":3,""Aggression4"":0,""Aggression5"":4,""Aggression6"":3,""Aggression7"":1,""Aggression8"":1,""Aggression9"":0}","[0,1,2,3,4,5,6,7,8]"
"","","","","","html-button-response","140","329839","0.0-13.0","13","1","2022-10-07 06:09:21","ebf9627b049f568eb4bf28942cb89901","117.160.156.81","Mozilla/5.0 (Windows NT 10.0; Win64; x64) AppleWebKit/537.36 (KHTML, like Gecko) Chrome/80.0.3987.163 Safari/537.36","WebKit","Chrome","80.0.3987.163","Windows","10.0","1580","<p><strong>请判断你在多大程度上同意下列陈述。</strong></p>","0",""
"","","","","","survey-likert","141","438556","0.0-14.0","13","1","2022-10-07 06:09:21","ebf9627b049f568eb4bf28942cb89901","117.160.156.81","Mozilla/5.0 (Windows NT 10.0; Win64; x64) AppleWebKit/537.36 (KHTML, like Gecko) Chrome/80.0.3987.163 Safari/537.36","WebKit","Chrome","80.0.3987.163","Windows","10.0","108711","","{""scale18"":1,""scale9"":3,""scale11"":4,""scale17"":2,""scale14"":1,""scale7"":4,""scale4"":1,""scale10"":2,""scale8"":3,""scale19"":2,""scale12"":1,""scale13"":3,""scale21"":3,""scale20"":1,""scale16"":0,""scale3"":0,""scale24"":1,""scale26"":4,""scale27"":1,""scale2"":3,""scale1"":4,""scale5"":2,""scale15"":1,""scale25"":3,""scale28"":4,""scale23"":1,""scale6"":2,""scale22"":3}","[17,8,10,16,13,6,3,9,7,18,11,12,20,19,15,2,23,25,26,1,0,4,14,24,27,22,5,21]"
"","","","","","html-button-response","142","439790","0.0-15.0","13","1","2022-10-07 06:09:21","ebf9627b049f568eb4bf28942cb89901","117.160.156.81","Mozilla/5.0 (Windows NT 10.0; Win64; x64) AppleWebKit/537.36 (KHTML, like Gecko) Chrome/80.0.3987.163 Safari/537.36","WebKit","Chrome","80.0.3987.163","Windows","10.0","1228","<p><strong>请判断你在多大程度上同意下列陈述。</strong></p>","0",""
"","","","","","survey-likert","143","521935","0.0-16.0","13","1","2022-10-07 06:09:21","ebf9627b049f568eb4bf28942cb89901","117.160.156.81","Mozilla/5.0 (Windows NT 10.0; Win64; x64) AppleWebKit/537.36 (KHTML, like Gecko) Chrome/80.0.3987.163 Safari/537.36","WebKit","Chrome","80.0.3987.163","Windows","10.0","82140","","{""sdo15"":4,""sdo7"":1,""sdo14"":6,""sdo8"":3,""sdo6"":3,""sdo9"":3,""sdo3"":4,""sdo4"":4,""sdo1"":4,""sdo16"":5,""sdo12"":4,""sdo10"":4,""sdo13"":4,""sdo5"":3,""sdo2"":4,""sdo11"":4}","[14,6,13,7,5,8,2,3,0,15,11,9,12,4,1,10]"
"","","","","","html-button-response","144","522868","0.0-17.0","13","1","2022-10-07 06:09:21","ebf9627b049f568eb4bf28942cb89901","117.160.156.81","Mozilla/5.0 (Windows NT 10.0; Win64; x64) AppleWebKit/537.36 (KHTML, like Gecko) Chrome/80.0.3987.163 Safari/537.36","WebKit","Chrome","80.0.3987.163","Windows","10.0","927","<p><strong>请判断你在多大程度上同意下列陈述。</strong></p>","0",""
"","","","","","survey-likert","145","568955","0.0-18.0","13","1","2022-10-07 06:09:21","ebf9627b049f568eb4bf28942cb89901","117.160.156.81","Mozilla/5.0 (Windows NT 10.0; Win64; x64) AppleWebKit/537.36 (KHTML, like Gecko) Chrome/80.0.3987.163 Safari/537.36","WebKit","Chrome","80.0.3987.163","Windows","10.0","46084","","{""caring1"":3,""liking1"":2,""caring2"":3,""protection1"":4,""liking2"":2,""caring3"":3,""protection2"":2,""liking3"":2,""protection3"":3,""caring4"":4,""liking4"":2,""protection4"":3,""caring5"":3,""liking5"":2,""protection5"":3}","[0,1,2,3,4,5,6,7,8,9,10,11,12,13,14]"
"","","","","","html-button-response","146","570204","0.0-19.0","13","1","2022-10-07 06:09:21","ebf9627b049f568eb4bf28942cb89901","117.160.156.81","Mozilla/5.0 (Windows NT 10.0; Win64; x64) AppleWebKit/537.36 (KHTML, like Gecko) Chrome/80.0.3987.163 Safari/537.36","WebKit","Chrome","80.0.3987.163","Windows","10.0","1243","<p><strong>请判断下列场景中你的内心感受有多柔软。</strong></p>","0",""
"","","","","","survey-likert","147","606348","0.0-20.0","13","1","2022-10-07 06:09:21","ebf9627b049f568eb4bf28942cb89901","117.160.156.81","Mozilla/5.0 (Windows NT 10.0; Win64; x64) AppleWebKit/537.36 (KHTML, like Gecko) Chrome/80.0.3987.163 Safari/537.36","WebKit","Chrome","80.0.3987.163","Windows","10.0","36140","","{""tenderness-positive1"":3,""tenderness-negative1"":3,""tenderness-negative2"":0,""tenderness-positive2"":4,""tenderness-positive3"":4,""tenderness-negative3"":3,""tenderness-positive4"":4,""tendereness-negative4"":3,""tendernness-negative5"":2,""tenderness-positive5"":4}","[0,1,2,3,4,5,6,7,8,9]"
"","","","","","survey-multi-choice","148","613078","0.0-21.0","13","1","2022-10-07 06:09:21","ebf9627b049f568eb4bf28942cb89901","117.160.156.81","Mozilla/5.0 (Windows NT 10.0; Win64; x64) AppleWebKit/537.36 (KHTML, like Gecko) Chrome/80.0.3987.163 Safari/537.36","WebKit","Chrome","80.0.3987.163","Windows","10.0","6724","","{""Attention2"":""其他""}","[0]"
"","","","","","html-button-response","149","613999","0.0-22.0","13","1","2022-10-07 06:09:21","ebf9627b049f568eb4bf28942cb89901","117.160.156.81","Mozilla/5.0 (Windows NT 10.0; Win64; x64) AppleWebKit/537.36 (KHTML, like Gecko) Chrome/80.0.3987.163 Safari/537.36","WebKit","Chrome","80.0.3987.163","Windows","10.0","915","<p><strong>请判断你在多大程度上同意下列陈述。</strong></p>","0",""
"","","","","","survey-likert","150","685742","0.0-23.0","13","1","2022-10-07 06:09:21","ebf9627b049f568eb4bf28942cb89901","117.160.156.81","Mozilla/5.0 (Windows NT 10.0; Win64; x64) AppleWebKit/537.36 (KHTML, like Gecko) Chrome/80.0.3987.163 Safari/537.36","WebKit","Chrome","80.0.3987.163","Windows","10.0","71738","","{""Nation5"":2,""Nation3"":3,""Patri5"":3,""Nation1"":3,""Patri3"":3,""Nation2"":4,""Patri12"":2,""Patri7"":2,""Patri11"":1,""Nation8"":2,""Patri2"":3,""Nation7"":3,""Patri9"":2,""Patri6"":2,""Patri4"":3,""Nation6"":3,""Nation4"":3,""Patri10"":0,""Patri8"":3,""Patri1"":3}","[16,14,4,12,2,13,11,6,10,19,1,18,8,5,3,17,15,9,7,0]"
"","","","","","html-button-response","151","686917","0.0-24.0","13","1","2022-10-07 06:09:21","ebf9627b049f568eb4bf28942cb89901","117.160.156.81","Mozilla/5.0 (Windows NT 10.0; Win64; x64) AppleWebKit/537.36 (KHTML, like Gecko) Chrome/80.0.3987.163 Safari/537.36","WebKit","Chrome","80.0.3987.163","Windows","10.0","1168","<p><strong>请判断你在多大程度上同意下列陈述。</strong></p>","0",""
"","","","","","survey-likert","152","746978","0.0-25.0","13","1","2022-10-07 06:09:21","ebf9627b049f568eb4bf28942cb89901","117.160.156.81","Mozilla/5.0 (Windows NT 10.0; Win64; x64) AppleWebKit/537.36 (KHTML, like Gecko) Chrome/80.0.3987.163 Safari/537.36","WebKit","Chrome","80.0.3987.163","Windows","10.0","60056","","{""vc2"":6,""hi1"":6,""hc3"":6,""vi2"":5,""hi4"":7,""Robot"":6,""hi2"":5,""hc2"":6,""vc3"":6,""vc1"":6,""hi3"":4,""hc1"":6,""vc4"":6,""hc4"":7,""vi3"":7,""vi4"":5,""vi1"":5}","[14,0,11,5,3,7,1,10,15,13,2,9,16,12,6,8,4]"
"","","","","","survey-text","153","819488","0.0-26.0","13","1","2022-10-07 06:09:21","ebf9627b049f568eb4bf28942cb89901","117.160.156.81","Mozilla/5.0 (Windows NT 10.0; Win64; x64) AppleWebKit/537.36 (KHTML, like Gecko) Chrome/80.0.3987.163 Safari/537.36","WebKit","Chrome","80.0.3987.163","Windows","10.0","72494","","{""Comments"":""第一大区题目所给的图片基本都是白人或非汉族形象，对于这种形象我很难有同情心，所以选择的都是发射导弹。""}",""
"","","","","","html-button-response","154","820442","0.0-27.0","13","1","2022-10-07 06:09:21","ebf9627b049f568eb4bf28942cb89901","117.160.156.81","Mozilla/5.0 (Windows NT 10.0; Win64; x64) AppleWebKit/537.36 (KHTML, like Gecko) Chrome/80.0.3987.163 Safari/537.36","WebKit","Chrome","80.0.3987.163","Windows","10.0","951","<strong><p>恭喜你完成了实验！</p><p>感谢您的参与。</p></strong>","0",""
