"success","timeout","failed_images","failed_audio","failed_video","trial_type","trial_index","time_elapsed","internal_node_id","run_id","condition","recorded_at","source_code_version","ip","user_agent","device","browser","browser_version","platform","platform_version","rt","stimulus","response","question_order"
"true","false","[]","[]","[]","preload","0","1064","0.0-0.0","143","1","2022-10-10 00:03:51","ebf9627b049f568eb4bf28942cb89901","101.93.235.241","Mozilla/5.0 (Windows NT 10.0; WOW64) AppleWebKit/537.36 (KHTML, like Gecko) Chrome/94.0.4606.71 Safari/537.36 Core/1.94.178.400 QQBrowser/11.2.5170.400","WebKit","Chrome","94.0.4606.71","Windows","10.0","","","",""
"true","","","","","fullscreen","1","2835","0.0-1.0","143","1","2022-10-10 00:03:51","ebf9627b049f568eb4bf28942cb89901","101.93.235.241","Mozilla/5.0 (Windows NT 10.0; WOW64) AppleWebKit/537.36 (KHTML, like Gecko) Chrome/94.0.4606.71 Safari/537.36 Core/1.94.178.400 QQBrowser/11.2.5170.400","WebKit","Chrome","94.0.4606.71","Windows","10.0","","","",""
"","","","","","html-button-response","2","13340","0.0-2.0","143","1","2022-10-10 00:03:51","ebf9627b049f568eb4bf28942cb89901","101.93.235.241","Mozilla/5.0 (Windows NT 10.0; WOW64) AppleWebKit/537.36 (KHTML, like Gecko) Chrome/94.0.4606.71 Safari/537.36 Core/1.94.178.400 QQBrowser/11.2.5170.400","WebKit","Chrome","94.0.4606.71","Windows","10.0","10503","<p style=""font-size:20px;font-weight:bold;"">实验知情同意书</p><p style=""text-align:left;""><strong>实验名称：</strong>社会冲突研究</p><p style=""text-align:left;""><strong>主要研究者：</strong>韩晓春副教授（北京师范大学心理学部）</p><p style=""text-align:left;""><strong>联系方式：</strong>发送邮件至xiaochun.han@bnu.edu.cn</p><p style=""text-align:left;""><strong>研究目的：</strong>研究旨在了解人类面对群体冲突时的决策方式，以及相关的心理学特质。实验调查大约需要20分钟。</p><p style=""text-align:left;""><strong>实验流程：</strong>实验包含两部分。第一部分呈现一系列群体冲突场景，请你决定如何对这些冲突进行反应，大约需要10分钟完成。第二部分包含一系列人口统计学信息收集和心理学问卷，大约需要10分钟完成。</p><p style=""text-align:left;""><strong>参加及退出规则：</strong>参加本实验完全取决于您的个人意愿。在参与过程中，您可以随时退出，并且不用承担任何后果。</p><p style=""text-align:left;""><strong>隐私：</strong>本实验完全匿名进行，不会收集您的姓名或其他能够识别您身份的信息。实验中收集的作答仅用作科学研究使用，可能会在学术期刊/书籍上发表，或者用于教学，您的数据未来可能会和其他研究者或实验室分享，但您的个人身份不会被识别。</p><p style=""text-align:left;""><strong>实验报酬：</strong>实验完成后，您将获得15元人民币报酬，以感谢您的时间和努力。调查问卷中包含几道题目用以测验您作答时的认真度。只有完成全部实验，并且正确回答认真度测验的被试才能获得实验报酬。实验报酬将通过支付宝转账发放。</p><p style=""text-align:left;font-size:20px;""><strong>如果您同意以上实验知情同意书的内容，请点击'同意并且开始实验'按钮；否则请关闭浏览器界面，退出实验。</strong></p>","0",""
"","","","","","html-button-response","3","15147","0.0-3.0","143","1","2022-10-10 00:03:51","ebf9627b049f568eb4bf28942cb89901","101.93.235.241","Mozilla/5.0 (Windows NT 10.0; WOW64) AppleWebKit/537.36 (KHTML, like Gecko) Chrome/94.0.4606.71 Safari/537.36 Core/1.94.178.400 QQBrowser/11.2.5170.400","WebKit","Chrome","94.0.4606.71","Windows","10.0","1805","<p ><strong>实验任务一：</strong></p><p>请想象你的国家与另一个国家发生了军事冲突。</p><p>你是国家军队的指挥官，你将如何在冲突中进行决策。</p><p>具体来说，作为军队指挥官，请你决定是否发射导弹进行打击。</p><p>接下来，你会面对一系列场景，请仔细阅读每个场景，然后进行决策。</p><p>这部分实验任务大约需要10分钟。</p><p><strong>实验过程中，请集中注意力。</strong></p>","0",""
"","","","","","html-keyboard-response","4","16150","0.0-4.0-0.0","143","1","2022-10-10 00:03:51","ebf9627b049f568eb4bf28942cb89901","101.93.235.241","Mozilla/5.0 (Windows NT 10.0; WOW64) AppleWebKit/537.36 (KHTML, like Gecko) Chrome/94.0.4606.71 Safari/537.36 Core/1.94.178.400 QQBrowser/11.2.5170.400","WebKit","Chrome","94.0.4606.71","Windows","10.0","null","<div style=""font-size:60px;"">+</div>","null",""
"","","","","","html-button-response","5","21867","0.0-4.0-1.0","143","1","2022-10-10 00:03:51","ebf9627b049f568eb4bf28942cb89901","101.93.235.241","Mozilla/5.0 (Windows NT 10.0; WOW64) AppleWebKit/537.36 (KHTML, like Gecko) Chrome/94.0.4606.71 Safari/537.36 Core/1.94.178.400 QQBrowser/11.2.5170.400","WebKit","Chrome","94.0.4606.71","Windows","10.0","5714","<p>作为军队的指挥官，你可以选择发射导弹杀死 <strong>3名</strong> 敌国士兵，但会炸毁附近的 <strong>1棵</strong> 敌国树木。</p> <p>树木的照片如下图所示。</p> <p></p> <img src='stimuli/trees/10.png', style='max-width: 30%;'> </img> <p><strong>你是否选择发射武器？</strong></p>","0",""
"","","","","","html-keyboard-response","6","22879","0.0-4.0-0.1","143","1","2022-10-10 00:03:51","ebf9627b049f568eb4bf28942cb89901","101.93.235.241","Mozilla/5.0 (Windows NT 10.0; WOW64) AppleWebKit/537.36 (KHTML, like Gecko) Chrome/94.0.4606.71 Safari/537.36 Core/1.94.178.400 QQBrowser/11.2.5170.400","WebKit","Chrome","94.0.4606.71","Windows","10.0","null","<div style=""font-size:60px;"">+</div>","null",""
"","","","","","html-button-response","7","25715","0.0-4.0-1.1","143","1","2022-10-10 00:03:51","ebf9627b049f568eb4bf28942cb89901","101.93.235.241","Mozilla/5.0 (Windows NT 10.0; WOW64) AppleWebKit/537.36 (KHTML, like Gecko) Chrome/94.0.4606.71 Safari/537.36 Core/1.94.178.400 QQBrowser/11.2.5170.400","WebKit","Chrome","94.0.4606.71","Windows","10.0","2834","<p>作为军队的指挥官，你可以选择发射导弹杀死 <strong>1名</strong> 敌国士兵，但会炸毁附近的 <strong>1棵</strong> 敌国树木。</p> <p>树木的照片如下图所示。</p> <p></p> <img src='stimuli/trees/3.png', style='max-width: 30%;'> </img> <p><strong>你是否选择发射武器？</strong></p>","1",""
"","","","","","html-keyboard-response","8","26718","0.0-4.0-0.2","143","1","2022-10-10 00:03:51","ebf9627b049f568eb4bf28942cb89901","101.93.235.241","Mozilla/5.0 (Windows NT 10.0; WOW64) AppleWebKit/537.36 (KHTML, like Gecko) Chrome/94.0.4606.71 Safari/537.36 Core/1.94.178.400 QQBrowser/11.2.5170.400","WebKit","Chrome","94.0.4606.71","Windows","10.0","null","<div style=""font-size:60px;"">+</div>","null",""
"","","","","","html-button-response","9","28563","0.0-4.0-1.2","143","1","2022-10-10 00:03:51","ebf9627b049f568eb4bf28942cb89901","101.93.235.241","Mozilla/5.0 (Windows NT 10.0; WOW64) AppleWebKit/537.36 (KHTML, like Gecko) Chrome/94.0.4606.71 Safari/537.36 Core/1.94.178.400 QQBrowser/11.2.5170.400","WebKit","Chrome","94.0.4606.71","Windows","10.0","1843","<p>作为军队的指挥官，你可以选择发射导弹杀死 <strong>6名</strong> 敌国士兵，但会炸毁附近的 <strong>1棵</strong> 敌国树木。</p> <p>树木的照片如下图所示。</p> <p></p> <img src='stimuli/trees/10.png', style='max-width: 30%;'> </img> <p><strong>你是否选择发射武器？</strong></p>","0",""
"","","","","","html-keyboard-response","10","29565","0.0-4.0-0.3","143","1","2022-10-10 00:03:51","ebf9627b049f568eb4bf28942cb89901","101.93.235.241","Mozilla/5.0 (Windows NT 10.0; WOW64) AppleWebKit/537.36 (KHTML, like Gecko) Chrome/94.0.4606.71 Safari/537.36 Core/1.94.178.400 QQBrowser/11.2.5170.400","WebKit","Chrome","94.0.4606.71","Windows","10.0","null","<div style=""font-size:60px;"">+</div>","null",""
"","","","","","html-button-response","11","32683","0.0-4.0-1.3","143","1","2022-10-10 00:03:51","ebf9627b049f568eb4bf28942cb89901","101.93.235.241","Mozilla/5.0 (Windows NT 10.0; WOW64) AppleWebKit/537.36 (KHTML, like Gecko) Chrome/94.0.4606.71 Safari/537.36 Core/1.94.178.400 QQBrowser/11.2.5170.400","WebKit","Chrome","94.0.4606.71","Windows","10.0","3116","<p>作为军队的指挥官，你可以选择发射导弹杀死 <strong>3名</strong> 敌国士兵，但会炸毁附近的 <strong>1棵</strong> 敌国树木。</p> <p>树木的照片如下图所示。</p> <p></p> <img src='stimuli/trees/1.png', style='max-width: 30%;'> </img> <p><strong>你是否选择发射武器？</strong></p>","0",""
"","","","","","html-keyboard-response","12","33695","0.0-4.0-0.4","143","1","2022-10-10 00:03:51","ebf9627b049f568eb4bf28942cb89901","101.93.235.241","Mozilla/5.0 (Windows NT 10.0; WOW64) AppleWebKit/537.36 (KHTML, like Gecko) Chrome/94.0.4606.71 Safari/537.36 Core/1.94.178.400 QQBrowser/11.2.5170.400","WebKit","Chrome","94.0.4606.71","Windows","10.0","null","<div style=""font-size:60px;"">+</div>","null",""
"","","","","","html-button-response","13","35043","0.0-4.0-1.4","143","1","2022-10-10 00:03:51","ebf9627b049f568eb4bf28942cb89901","101.93.235.241","Mozilla/5.0 (Windows NT 10.0; WOW64) AppleWebKit/537.36 (KHTML, like Gecko) Chrome/94.0.4606.71 Safari/537.36 Core/1.94.178.400 QQBrowser/11.2.5170.400","WebKit","Chrome","94.0.4606.71","Windows","10.0","1346","<p>作为军队的指挥官，你可以选择发射导弹杀死 <strong>10名</strong> 敌国士兵，但会炸毁附近的 <strong>1棵</strong> 敌国树木。</p> <p>树木的照片如下图所示。</p> <p></p> <img src='stimuli/trees/2.png', style='max-width: 30%;'> </img> <p><strong>你是否选择发射武器？</strong></p>","0",""
"","","","","","html-keyboard-response","14","36055","0.0-4.0-0.5","143","1","2022-10-10 00:03:51","ebf9627b049f568eb4bf28942cb89901","101.93.235.241","Mozilla/5.0 (Windows NT 10.0; WOW64) AppleWebKit/537.36 (KHTML, like Gecko) Chrome/94.0.4606.71 Safari/537.36 Core/1.94.178.400 QQBrowser/11.2.5170.400","WebKit","Chrome","94.0.4606.71","Windows","10.0","null","<div style=""font-size:60px;"">+</div>","null",""
"","","","","","html-button-response","15","38932","0.0-4.0-1.5","143","1","2022-10-10 00:03:51","ebf9627b049f568eb4bf28942cb89901","101.93.235.241","Mozilla/5.0 (Windows NT 10.0; WOW64) AppleWebKit/537.36 (KHTML, like Gecko) Chrome/94.0.4606.71 Safari/537.36 Core/1.94.178.400 QQBrowser/11.2.5170.400","WebKit","Chrome","94.0.4606.71","Windows","10.0","2872","<p>作为军队的指挥官，你可以选择发射导弹杀死 <strong>10名</strong> 敌国士兵，但会误杀附近的 <strong>1名</strong> 敌国平民。</p> <p>平民照片如下图所示。</p> <p></p> <img src='stimuli/faces/NFF8.jpg', style='max-width: 30%;'> </img> <p><strong>你是否选择发射武器？</strong></p>","0",""
"","","","","","html-keyboard-response","16","39949","0.0-4.0-0.6","143","1","2022-10-10 00:03:51","ebf9627b049f568eb4bf28942cb89901","101.93.235.241","Mozilla/5.0 (Windows NT 10.0; WOW64) AppleWebKit/537.36 (KHTML, like Gecko) Chrome/94.0.4606.71 Safari/537.36 Core/1.94.178.400 QQBrowser/11.2.5170.400","WebKit","Chrome","94.0.4606.71","Windows","10.0","null","<div style=""font-size:60px;"">+</div>","null",""
"","","","","","html-button-response","17","41251","0.0-4.0-1.6","143","1","2022-10-10 00:03:51","ebf9627b049f568eb4bf28942cb89901","101.93.235.241","Mozilla/5.0 (Windows NT 10.0; WOW64) AppleWebKit/537.36 (KHTML, like Gecko) Chrome/94.0.4606.71 Safari/537.36 Core/1.94.178.400 QQBrowser/11.2.5170.400","WebKit","Chrome","94.0.4606.71","Windows","10.0","1298","<p>作为军队的指挥官，你可以选择发射导弹杀死 <strong>7名</strong> 敌国士兵，但会炸毁附近的 <strong>1棵</strong> 敌国树木。</p> <p>树木的照片如下图所示。</p> <p></p> <img src='stimuli/trees/15.png', style='max-width: 30%;'> </img> <p><strong>你是否选择发射武器？</strong></p>","0",""
"","","","","","html-keyboard-response","18","42260","0.0-4.0-0.7","143","1","2022-10-10 00:03:51","ebf9627b049f568eb4bf28942cb89901","101.93.235.241","Mozilla/5.0 (Windows NT 10.0; WOW64) AppleWebKit/537.36 (KHTML, like Gecko) Chrome/94.0.4606.71 Safari/537.36 Core/1.94.178.400 QQBrowser/11.2.5170.400","WebKit","Chrome","94.0.4606.71","Windows","10.0","null","<div style=""font-size:60px;"">+</div>","null",""
"","","","","","html-button-response","19","44659","0.0-4.0-1.7","143","1","2022-10-10 00:03:51","ebf9627b049f568eb4bf28942cb89901","101.93.235.241","Mozilla/5.0 (Windows NT 10.0; WOW64) AppleWebKit/537.36 (KHTML, like Gecko) Chrome/94.0.4606.71 Safari/537.36 Core/1.94.178.400 QQBrowser/11.2.5170.400","WebKit","Chrome","94.0.4606.71","Windows","10.0","2397","<p>作为军队的指挥官，你可以选择发射导弹杀死 <strong>10名</strong> 敌国士兵，但会炸毁附近的 <strong>1棵</strong> 敌国树木。</p> <p>树木的照片如下图所示。</p> <p></p> <img src='stimuli/trees/5.png', style='max-width: 30%;'> </img> <p><strong>你是否选择发射武器？</strong></p>","0",""
"","","","","","html-keyboard-response","20","45667","0.0-4.0-0.8","143","1","2022-10-10 00:03:51","ebf9627b049f568eb4bf28942cb89901","101.93.235.241","Mozilla/5.0 (Windows NT 10.0; WOW64) AppleWebKit/537.36 (KHTML, like Gecko) Chrome/94.0.4606.71 Safari/537.36 Core/1.94.178.400 QQBrowser/11.2.5170.400","WebKit","Chrome","94.0.4606.71","Windows","10.0","null","<div style=""font-size:60px;"">+</div>","null",""
"","","","","","html-button-response","21","48019","0.0-4.0-1.8","143","1","2022-10-10 00:03:51","ebf9627b049f568eb4bf28942cb89901","101.93.235.241","Mozilla/5.0 (Windows NT 10.0; WOW64) AppleWebKit/537.36 (KHTML, like Gecko) Chrome/94.0.4606.71 Safari/537.36 Core/1.94.178.400 QQBrowser/11.2.5170.400","WebKit","Chrome","94.0.4606.71","Windows","10.0","2351","<p>作为军队的指挥官，你可以选择发射导弹杀死 <strong>5名</strong> 敌国士兵，但会误杀附近的 <strong>1名</strong> 敌国平民。</p> <p>平民照片如下图所示。</p> <p></p> <img src='stimuli/faces/NFM3.jpg', style='max-width: 30%;'> </img> <p><strong>你是否选择发射武器？</strong></p>","0",""
"","","","","","html-keyboard-response","22","49036","0.0-4.0-0.9","143","1","2022-10-10 00:03:51","ebf9627b049f568eb4bf28942cb89901","101.93.235.241","Mozilla/5.0 (Windows NT 10.0; WOW64) AppleWebKit/537.36 (KHTML, like Gecko) Chrome/94.0.4606.71 Safari/537.36 Core/1.94.178.400 QQBrowser/11.2.5170.400","WebKit","Chrome","94.0.4606.71","Windows","10.0","null","<div style=""font-size:60px;"">+</div>","null",""
"","","","","","html-button-response","23","50164","0.0-4.0-1.9","143","1","2022-10-10 00:03:51","ebf9627b049f568eb4bf28942cb89901","101.93.235.241","Mozilla/5.0 (Windows NT 10.0; WOW64) AppleWebKit/537.36 (KHTML, like Gecko) Chrome/94.0.4606.71 Safari/537.36 Core/1.94.178.400 QQBrowser/11.2.5170.400","WebKit","Chrome","94.0.4606.71","Windows","10.0","1124","<p>作为军队的指挥官，你可以选择发射导弹杀死 <strong>6名</strong> 敌国士兵，但会炸毁附近的 <strong>1棵</strong> 敌国树木。</p> <p>树木的照片如下图所示。</p> <p></p> <img src='stimuli/trees/4.png', style='max-width: 30%;'> </img> <p><strong>你是否选择发射武器？</strong></p>","0",""
"","","","","","html-keyboard-response","24","51166","0.0-4.0-0.10","143","1","2022-10-10 00:03:51","ebf9627b049f568eb4bf28942cb89901","101.93.235.241","Mozilla/5.0 (Windows NT 10.0; WOW64) AppleWebKit/537.36 (KHTML, like Gecko) Chrome/94.0.4606.71 Safari/537.36 Core/1.94.178.400 QQBrowser/11.2.5170.400","WebKit","Chrome","94.0.4606.71","Windows","10.0","null","<div style=""font-size:60px;"">+</div>","null",""
"","","","","","html-button-response","25","52411","0.0-4.0-1.10","143","1","2022-10-10 00:03:51","ebf9627b049f568eb4bf28942cb89901","101.93.235.241","Mozilla/5.0 (Windows NT 10.0; WOW64) AppleWebKit/537.36 (KHTML, like Gecko) Chrome/94.0.4606.71 Safari/537.36 Core/1.94.178.400 QQBrowser/11.2.5170.400","WebKit","Chrome","94.0.4606.71","Windows","10.0","1239","<p>作为军队的指挥官，你可以选择发射导弹杀死 <strong>5名</strong> 敌国士兵，但会误杀附近的 <strong>1名</strong> 敌国平民。</p> <p>平民照片如下图所示。</p> <p></p> <img src='stimuli/faces/NFF4.jpg', style='max-width: 30%;'> </img> <p><strong>你是否选择发射武器？</strong></p>","0",""
"","","","","","html-keyboard-response","26","53429","0.0-4.0-0.11","143","1","2022-10-10 00:03:51","ebf9627b049f568eb4bf28942cb89901","101.93.235.241","Mozilla/5.0 (Windows NT 10.0; WOW64) AppleWebKit/537.36 (KHTML, like Gecko) Chrome/94.0.4606.71 Safari/537.36 Core/1.94.178.400 QQBrowser/11.2.5170.400","WebKit","Chrome","94.0.4606.71","Windows","10.0","null","<div style=""font-size:60px;"">+</div>","null",""
"","","","","","html-button-response","27","54660","0.0-4.0-1.11","143","1","2022-10-10 00:03:51","ebf9627b049f568eb4bf28942cb89901","101.93.235.241","Mozilla/5.0 (Windows NT 10.0; WOW64) AppleWebKit/537.36 (KHTML, like Gecko) Chrome/94.0.4606.71 Safari/537.36 Core/1.94.178.400 QQBrowser/11.2.5170.400","WebKit","Chrome","94.0.4606.71","Windows","10.0","1226","<p>作为军队的指挥官，你可以选择发射导弹杀死 <strong>9名</strong> 敌国士兵，但会误杀附近的 <strong>1名</strong> 敌国平民。</p> <p>平民照片如下图所示。</p> <p></p> <img src='stimuli/faces/NFM1.jpg', style='max-width: 30%;'> </img> <p><strong>你是否选择发射武器？</strong></p>","0",""
"","","","","","html-keyboard-response","28","55663","0.0-4.0-0.12","143","1","2022-10-10 00:03:51","ebf9627b049f568eb4bf28942cb89901","101.93.235.241","Mozilla/5.0 (Windows NT 10.0; WOW64) AppleWebKit/537.36 (KHTML, like Gecko) Chrome/94.0.4606.71 Safari/537.36 Core/1.94.178.400 QQBrowser/11.2.5170.400","WebKit","Chrome","94.0.4606.71","Windows","10.0","null","<div style=""font-size:60px;"">+</div>","null",""
"","","","","","html-button-response","29","56835","0.0-4.0-1.12","143","1","2022-10-10 00:03:51","ebf9627b049f568eb4bf28942cb89901","101.93.235.241","Mozilla/5.0 (Windows NT 10.0; WOW64) AppleWebKit/537.36 (KHTML, like Gecko) Chrome/94.0.4606.71 Safari/537.36 Core/1.94.178.400 QQBrowser/11.2.5170.400","WebKit","Chrome","94.0.4606.71","Windows","10.0","1170","<p>作为军队的指挥官，你可以选择发射导弹杀死 <strong>7名</strong> 敌国士兵，但会误杀附近的 <strong>1名</strong> 敌国平民。</p> <p>平民照片如下图所示。</p> <p></p> <img src='stimuli/faces/NFM5.jpg', style='max-width: 30%;'> </img> <p><strong>你是否选择发射武器？</strong></p>","0",""
"","","","","","html-keyboard-response","30","57837","0.0-4.0-0.13","143","1","2022-10-10 00:03:51","ebf9627b049f568eb4bf28942cb89901","101.93.235.241","Mozilla/5.0 (Windows NT 10.0; WOW64) AppleWebKit/537.36 (KHTML, like Gecko) Chrome/94.0.4606.71 Safari/537.36 Core/1.94.178.400 QQBrowser/11.2.5170.400","WebKit","Chrome","94.0.4606.71","Windows","10.0","null","<div style=""font-size:60px;"">+</div>","null",""
"","","","","","html-button-response","31","59403","0.0-4.0-1.13","143","1","2022-10-10 00:03:51","ebf9627b049f568eb4bf28942cb89901","101.93.235.241","Mozilla/5.0 (Windows NT 10.0; WOW64) AppleWebKit/537.36 (KHTML, like Gecko) Chrome/94.0.4606.71 Safari/537.36 Core/1.94.178.400 QQBrowser/11.2.5170.400","WebKit","Chrome","94.0.4606.71","Windows","10.0","1560","<p>作为军队的指挥官，你可以选择发射导弹杀死 <strong>8名</strong> 敌国士兵，但会炸毁附近的 <strong>1棵</strong> 敌国树木。</p> <p>树木的照片如下图所示。</p> <p></p> <img src='stimuli/trees/16.png', style='max-width: 30%;'> </img> <p><strong>你是否选择发射武器？</strong></p>","0",""
"","","","","","html-keyboard-response","32","60405","0.0-4.0-0.14","143","1","2022-10-10 00:03:51","ebf9627b049f568eb4bf28942cb89901","101.93.235.241","Mozilla/5.0 (Windows NT 10.0; WOW64) AppleWebKit/537.36 (KHTML, like Gecko) Chrome/94.0.4606.71 Safari/537.36 Core/1.94.178.400 QQBrowser/11.2.5170.400","WebKit","Chrome","94.0.4606.71","Windows","10.0","null","<div style=""font-size:60px;"">+</div>","null",""
"","","","","","html-button-response","33","62035","0.0-4.0-1.14","143","1","2022-10-10 00:03:51","ebf9627b049f568eb4bf28942cb89901","101.93.235.241","Mozilla/5.0 (Windows NT 10.0; WOW64) AppleWebKit/537.36 (KHTML, like Gecko) Chrome/94.0.4606.71 Safari/537.36 Core/1.94.178.400 QQBrowser/11.2.5170.400","WebKit","Chrome","94.0.4606.71","Windows","10.0","1627","<p>作为军队的指挥官，你可以选择发射导弹杀死 <strong>4名</strong> 敌国士兵，但会误杀附近的 <strong>1名</strong> 敌国平民。</p> <p>平民照片如下图所示。</p> <p></p> <img src='stimuli/faces/NFF6.jpg', style='max-width: 30%;'> </img> <p><strong>你是否选择发射武器？</strong></p>","0",""
"","","","","","html-keyboard-response","34","63049","0.0-4.0-0.15","143","1","2022-10-10 00:03:51","ebf9627b049f568eb4bf28942cb89901","101.93.235.241","Mozilla/5.0 (Windows NT 10.0; WOW64) AppleWebKit/537.36 (KHTML, like Gecko) Chrome/94.0.4606.71 Safari/537.36 Core/1.94.178.400 QQBrowser/11.2.5170.400","WebKit","Chrome","94.0.4606.71","Windows","10.0","null","<div style=""font-size:60px;"">+</div>","null",""
"","","","","","html-button-response","35","64155","0.0-4.0-1.15","143","1","2022-10-10 00:03:51","ebf9627b049f568eb4bf28942cb89901","101.93.235.241","Mozilla/5.0 (Windows NT 10.0; WOW64) AppleWebKit/537.36 (KHTML, like Gecko) Chrome/94.0.4606.71 Safari/537.36 Core/1.94.178.400 QQBrowser/11.2.5170.400","WebKit","Chrome","94.0.4606.71","Windows","10.0","1102","<p>作为军队的指挥官，你可以选择发射导弹杀死 <strong>8名</strong> 敌国士兵，但会炸毁附近的 <strong>1棵</strong> 敌国树木。</p> <p>树木的照片如下图所示。</p> <p></p> <img src='stimuli/trees/12.png', style='max-width: 30%;'> </img> <p><strong>你是否选择发射武器？</strong></p>","0",""
"","","","","","html-keyboard-response","36","65158","0.0-4.0-0.16","143","1","2022-10-10 00:03:51","ebf9627b049f568eb4bf28942cb89901","101.93.235.241","Mozilla/5.0 (Windows NT 10.0; WOW64) AppleWebKit/537.36 (KHTML, like Gecko) Chrome/94.0.4606.71 Safari/537.36 Core/1.94.178.400 QQBrowser/11.2.5170.400","WebKit","Chrome","94.0.4606.71","Windows","10.0","null","<div style=""font-size:60px;"">+</div>","null",""
"","","","","","html-button-response","37","66539","0.0-4.0-1.16","143","1","2022-10-10 00:03:51","ebf9627b049f568eb4bf28942cb89901","101.93.235.241","Mozilla/5.0 (Windows NT 10.0; WOW64) AppleWebKit/537.36 (KHTML, like Gecko) Chrome/94.0.4606.71 Safari/537.36 Core/1.94.178.400 QQBrowser/11.2.5170.400","WebKit","Chrome","94.0.4606.71","Windows","10.0","1379","<p>作为军队的指挥官，你可以选择发射导弹杀死 <strong>9名</strong> 敌国士兵，但会误杀附近的 <strong>1名</strong> 敌国平民。</p> <p>平民照片如下图所示。</p> <p></p> <img src='stimuli/faces/NFM8.jpg', style='max-width: 30%;'> </img> <p><strong>你是否选择发射武器？</strong></p>","0",""
"","","","","","html-keyboard-response","38","67542","0.0-4.0-0.17","143","1","2022-10-10 00:03:51","ebf9627b049f568eb4bf28942cb89901","101.93.235.241","Mozilla/5.0 (Windows NT 10.0; WOW64) AppleWebKit/537.36 (KHTML, like Gecko) Chrome/94.0.4606.71 Safari/537.36 Core/1.94.178.400 QQBrowser/11.2.5170.400","WebKit","Chrome","94.0.4606.71","Windows","10.0","null","<div style=""font-size:60px;"">+</div>","null",""
"","","","","","html-button-response","39","68995","0.0-4.0-1.17","143","1","2022-10-10 00:03:51","ebf9627b049f568eb4bf28942cb89901","101.93.235.241","Mozilla/5.0 (Windows NT 10.0; WOW64) AppleWebKit/537.36 (KHTML, like Gecko) Chrome/94.0.4606.71 Safari/537.36 Core/1.94.178.400 QQBrowser/11.2.5170.400","WebKit","Chrome","94.0.4606.71","Windows","10.0","1447","<p>作为军队的指挥官，你可以选择发射导弹杀死 <strong>7名</strong> 敌国士兵，但会误杀附近的 <strong>1名</strong> 敌国平民。</p> <p>平民照片如下图所示。</p> <p></p> <img src='stimuli/faces/NFF3.jpg', style='max-width: 30%;'> </img> <p><strong>你是否选择发射武器？</strong></p>","0",""
"","","","","","html-keyboard-response","40","69997","0.0-4.0-0.18","143","1","2022-10-10 00:03:51","ebf9627b049f568eb4bf28942cb89901","101.93.235.241","Mozilla/5.0 (Windows NT 10.0; WOW64) AppleWebKit/537.36 (KHTML, like Gecko) Chrome/94.0.4606.71 Safari/537.36 Core/1.94.178.400 QQBrowser/11.2.5170.400","WebKit","Chrome","94.0.4606.71","Windows","10.0","null","<div style=""font-size:60px;"">+</div>","null",""
"","","","","","html-button-response","41","71171","0.0-4.0-1.18","143","1","2022-10-10 00:03:51","ebf9627b049f568eb4bf28942cb89901","101.93.235.241","Mozilla/5.0 (Windows NT 10.0; WOW64) AppleWebKit/537.36 (KHTML, like Gecko) Chrome/94.0.4606.71 Safari/537.36 Core/1.94.178.400 QQBrowser/11.2.5170.400","WebKit","Chrome","94.0.4606.71","Windows","10.0","1168","<p>作为军队的指挥官，你可以选择发射导弹杀死 <strong>5名</strong> 敌国士兵，但会炸毁附近的 <strong>1棵</strong> 敌国树木。</p> <p>树木的照片如下图所示。</p> <p></p> <img src='stimuli/trees/7.png', style='max-width: 30%;'> </img> <p><strong>你是否选择发射武器？</strong></p>","0",""
"","","","","","html-keyboard-response","42","72180","0.0-4.0-0.19","143","1","2022-10-10 00:03:51","ebf9627b049f568eb4bf28942cb89901","101.93.235.241","Mozilla/5.0 (Windows NT 10.0; WOW64) AppleWebKit/537.36 (KHTML, like Gecko) Chrome/94.0.4606.71 Safari/537.36 Core/1.94.178.400 QQBrowser/11.2.5170.400","WebKit","Chrome","94.0.4606.71","Windows","10.0","null","<div style=""font-size:60px;"">+</div>","null",""
"","","","","","html-button-response","43","73235","0.0-4.0-1.19","143","1","2022-10-10 00:03:51","ebf9627b049f568eb4bf28942cb89901","101.93.235.241","Mozilla/5.0 (Windows NT 10.0; WOW64) AppleWebKit/537.36 (KHTML, like Gecko) Chrome/94.0.4606.71 Safari/537.36 Core/1.94.178.400 QQBrowser/11.2.5170.400","WebKit","Chrome","94.0.4606.71","Windows","10.0","1046","<p>作为军队的指挥官，你可以选择发射导弹杀死 <strong>5名</strong> 敌国士兵，但会炸毁附近的 <strong>1棵</strong> 敌国树木。</p> <p>树木的照片如下图所示。</p> <p></p> <img src='stimuli/trees/4.png', style='max-width: 30%;'> </img> <p><strong>你是否选择发射武器？</strong></p>","0",""
"","","","","","html-keyboard-response","44","74238","0.0-4.0-0.20","143","1","2022-10-10 00:03:51","ebf9627b049f568eb4bf28942cb89901","101.93.235.241","Mozilla/5.0 (Windows NT 10.0; WOW64) AppleWebKit/537.36 (KHTML, like Gecko) Chrome/94.0.4606.71 Safari/537.36 Core/1.94.178.400 QQBrowser/11.2.5170.400","WebKit","Chrome","94.0.4606.71","Windows","10.0","null","<div style=""font-size:60px;"">+</div>","null",""
"","","","","","html-button-response","45","75468","0.0-4.0-1.20","143","1","2022-10-10 00:03:51","ebf9627b049f568eb4bf28942cb89901","101.93.235.241","Mozilla/5.0 (Windows NT 10.0; WOW64) AppleWebKit/537.36 (KHTML, like Gecko) Chrome/94.0.4606.71 Safari/537.36 Core/1.94.178.400 QQBrowser/11.2.5170.400","WebKit","Chrome","94.0.4606.71","Windows","10.0","1226","<p>作为军队的指挥官，你可以选择发射导弹杀死 <strong>4名</strong> 敌国士兵，但会炸毁附近的 <strong>1棵</strong> 敌国树木。</p> <p>树木的照片如下图所示。</p> <p></p> <img src='stimuli/trees/12.png', style='max-width: 30%;'> </img> <p><strong>你是否选择发射武器？</strong></p>","0",""
"","","","","","html-keyboard-response","46","76473","0.0-4.0-0.21","143","1","2022-10-10 00:03:51","ebf9627b049f568eb4bf28942cb89901","101.93.235.241","Mozilla/5.0 (Windows NT 10.0; WOW64) AppleWebKit/537.36 (KHTML, like Gecko) Chrome/94.0.4606.71 Safari/537.36 Core/1.94.178.400 QQBrowser/11.2.5170.400","WebKit","Chrome","94.0.4606.71","Windows","10.0","null","<div style=""font-size:60px;"">+</div>","null",""
"","","","","","html-button-response","47","77539","0.0-4.0-1.21","143","1","2022-10-10 00:03:51","ebf9627b049f568eb4bf28942cb89901","101.93.235.241","Mozilla/5.0 (Windows NT 10.0; WOW64) AppleWebKit/537.36 (KHTML, like Gecko) Chrome/94.0.4606.71 Safari/537.36 Core/1.94.178.400 QQBrowser/11.2.5170.400","WebKit","Chrome","94.0.4606.71","Windows","10.0","1063","<p>作为军队的指挥官，你可以选择发射导弹杀死 <strong>10名</strong> 敌国士兵，但会炸毁附近的 <strong>1棵</strong> 敌国树木。</p> <p>树木的照片如下图所示。</p> <p></p> <img src='stimuli/trees/9.png', style='max-width: 30%;'> </img> <p><strong>你是否选择发射武器？</strong></p>","0",""
"","","","","","html-keyboard-response","48","78552","0.0-4.0-0.22","143","1","2022-10-10 00:03:51","ebf9627b049f568eb4bf28942cb89901","101.93.235.241","Mozilla/5.0 (Windows NT 10.0; WOW64) AppleWebKit/537.36 (KHTML, like Gecko) Chrome/94.0.4606.71 Safari/537.36 Core/1.94.178.400 QQBrowser/11.2.5170.400","WebKit","Chrome","94.0.4606.71","Windows","10.0","null","<div style=""font-size:60px;"">+</div>","null",""
"","","","","","html-button-response","49","79587","0.0-4.0-1.22","143","1","2022-10-10 00:03:51","ebf9627b049f568eb4bf28942cb89901","101.93.235.241","Mozilla/5.0 (Windows NT 10.0; WOW64) AppleWebKit/537.36 (KHTML, like Gecko) Chrome/94.0.4606.71 Safari/537.36 Core/1.94.178.400 QQBrowser/11.2.5170.400","WebKit","Chrome","94.0.4606.71","Windows","10.0","1031","<p>作为军队的指挥官，你可以选择发射导弹杀死 <strong>5名</strong> 敌国士兵，但会炸毁附近的 <strong>1棵</strong> 敌国树木。</p> <p>树木的照片如下图所示。</p> <p></p> <img src='stimuli/trees/13.png', style='max-width: 30%;'> </img> <p><strong>你是否选择发射武器？</strong></p>","0",""
"","","","","","html-keyboard-response","50","80591","0.0-4.0-0.23","143","1","2022-10-10 00:03:51","ebf9627b049f568eb4bf28942cb89901","101.93.235.241","Mozilla/5.0 (Windows NT 10.0; WOW64) AppleWebKit/537.36 (KHTML, like Gecko) Chrome/94.0.4606.71 Safari/537.36 Core/1.94.178.400 QQBrowser/11.2.5170.400","WebKit","Chrome","94.0.4606.71","Windows","10.0","null","<div style=""font-size:60px;"">+</div>","null",""
"","","","","","html-button-response","51","81683","0.0-4.0-1.23","143","1","2022-10-10 00:03:51","ebf9627b049f568eb4bf28942cb89901","101.93.235.241","Mozilla/5.0 (Windows NT 10.0; WOW64) AppleWebKit/537.36 (KHTML, like Gecko) Chrome/94.0.4606.71 Safari/537.36 Core/1.94.178.400 QQBrowser/11.2.5170.400","WebKit","Chrome","94.0.4606.71","Windows","10.0","1090","<p>作为军队的指挥官，你可以选择发射导弹杀死 <strong>2名</strong> 敌国士兵，但会炸毁附近的 <strong>1棵</strong> 敌国树木。</p> <p>树木的照片如下图所示。</p> <p></p> <img src='stimuli/trees/15.png', style='max-width: 30%;'> </img> <p><strong>你是否选择发射武器？</strong></p>","1",""
"","","","","","html-keyboard-response","52","82686","0.0-4.0-0.24","143","1","2022-10-10 00:03:51","ebf9627b049f568eb4bf28942cb89901","101.93.235.241","Mozilla/5.0 (Windows NT 10.0; WOW64) AppleWebKit/537.36 (KHTML, like Gecko) Chrome/94.0.4606.71 Safari/537.36 Core/1.94.178.400 QQBrowser/11.2.5170.400","WebKit","Chrome","94.0.4606.71","Windows","10.0","null","<div style=""font-size:60px;"">+</div>","null",""
"","","","","","html-button-response","53","83947","0.0-4.0-1.24","143","1","2022-10-10 00:03:51","ebf9627b049f568eb4bf28942cb89901","101.93.235.241","Mozilla/5.0 (Windows NT 10.0; WOW64) AppleWebKit/537.36 (KHTML, like Gecko) Chrome/94.0.4606.71 Safari/537.36 Core/1.94.178.400 QQBrowser/11.2.5170.400","WebKit","Chrome","94.0.4606.71","Windows","10.0","1258","<p>作为军队的指挥官，你可以选择发射导弹杀死 <strong>4名</strong> 敌国士兵，但会误杀附近的 <strong>1名</strong> 敌国平民。</p> <p>平民照片如下图所示。</p> <p></p> <img src='stimuli/faces/NFM5.jpg', style='max-width: 30%;'> </img> <p><strong>你是否选择发射武器？</strong></p>","0",""
"","","","","","html-keyboard-response","54","84962","0.0-4.0-0.25","143","1","2022-10-10 00:03:51","ebf9627b049f568eb4bf28942cb89901","101.93.235.241","Mozilla/5.0 (Windows NT 10.0; WOW64) AppleWebKit/537.36 (KHTML, like Gecko) Chrome/94.0.4606.71 Safari/537.36 Core/1.94.178.400 QQBrowser/11.2.5170.400","WebKit","Chrome","94.0.4606.71","Windows","10.0","null","<div style=""font-size:60px;"">+</div>","null",""
"","","","","","html-button-response","55","86051","0.0-4.0-1.25","143","1","2022-10-10 00:03:51","ebf9627b049f568eb4bf28942cb89901","101.93.235.241","Mozilla/5.0 (Windows NT 10.0; WOW64) AppleWebKit/537.36 (KHTML, like Gecko) Chrome/94.0.4606.71 Safari/537.36 Core/1.94.178.400 QQBrowser/11.2.5170.400","WebKit","Chrome","94.0.4606.71","Windows","10.0","1082","<p>作为军队的指挥官，你可以选择发射导弹杀死 <strong>3名</strong> 敌国士兵，但会误杀附近的 <strong>1名</strong> 敌国平民。</p> <p>平民照片如下图所示。</p> <p></p> <img src='stimuli/faces/NFF1.jpg', style='max-width: 30%;'> </img> <p><strong>你是否选择发射武器？</strong></p>","1",""
"","","","","","html-keyboard-response","56","87054","0.0-4.0-0.26","143","1","2022-10-10 00:03:51","ebf9627b049f568eb4bf28942cb89901","101.93.235.241","Mozilla/5.0 (Windows NT 10.0; WOW64) AppleWebKit/537.36 (KHTML, like Gecko) Chrome/94.0.4606.71 Safari/537.36 Core/1.94.178.400 QQBrowser/11.2.5170.400","WebKit","Chrome","94.0.4606.71","Windows","10.0","null","<div style=""font-size:60px;"">+</div>","null",""
"","","","","","html-button-response","57","88403","0.0-4.0-1.26","143","1","2022-10-10 00:03:51","ebf9627b049f568eb4bf28942cb89901","101.93.235.241","Mozilla/5.0 (Windows NT 10.0; WOW64) AppleWebKit/537.36 (KHTML, like Gecko) Chrome/94.0.4606.71 Safari/537.36 Core/1.94.178.400 QQBrowser/11.2.5170.400","WebKit","Chrome","94.0.4606.71","Windows","10.0","1343","<p>作为军队的指挥官，你可以选择发射导弹杀死 <strong>3名</strong> 敌国士兵，但会炸毁附近的 <strong>1棵</strong> 敌国树木。</p> <p>树木的照片如下图所示。</p> <p></p> <img src='stimuli/trees/5.png', style='max-width: 30%;'> </img> <p><strong>你是否选择发射武器？</strong></p>","1",""
"","","","","","html-keyboard-response","58","89406","0.0-4.0-0.27","143","1","2022-10-10 00:03:51","ebf9627b049f568eb4bf28942cb89901","101.93.235.241","Mozilla/5.0 (Windows NT 10.0; WOW64) AppleWebKit/537.36 (KHTML, like Gecko) Chrome/94.0.4606.71 Safari/537.36 Core/1.94.178.400 QQBrowser/11.2.5170.400","WebKit","Chrome","94.0.4606.71","Windows","10.0","null","<div style=""font-size:60px;"">+</div>","null",""
"","","","","","html-button-response","59","90484","0.0-4.0-1.27","143","1","2022-10-10 00:03:51","ebf9627b049f568eb4bf28942cb89901","101.93.235.241","Mozilla/5.0 (Windows NT 10.0; WOW64) AppleWebKit/537.36 (KHTML, like Gecko) Chrome/94.0.4606.71 Safari/537.36 Core/1.94.178.400 QQBrowser/11.2.5170.400","WebKit","Chrome","94.0.4606.71","Windows","10.0","1068","<p>作为军队的指挥官，你可以选择发射导弹杀死 <strong>6名</strong> 敌国士兵，但会误杀附近的 <strong>1名</strong> 敌国平民。</p> <p>平民照片如下图所示。</p> <p></p> <img src='stimuli/faces/NFF7.jpg', style='max-width: 30%;'> </img> <p><strong>你是否选择发射武器？</strong></p>","0",""
"","","","","","html-keyboard-response","60","91498","0.0-4.0-0.28","143","1","2022-10-10 00:03:51","ebf9627b049f568eb4bf28942cb89901","101.93.235.241","Mozilla/5.0 (Windows NT 10.0; WOW64) AppleWebKit/537.36 (KHTML, like Gecko) Chrome/94.0.4606.71 Safari/537.36 Core/1.94.178.400 QQBrowser/11.2.5170.400","WebKit","Chrome","94.0.4606.71","Windows","10.0","null","<div style=""font-size:60px;"">+</div>","null",""
"","","","","","html-button-response","61","92531","0.0-4.0-1.28","143","1","2022-10-10 00:03:51","ebf9627b049f568eb4bf28942cb89901","101.93.235.241","Mozilla/5.0 (Windows NT 10.0; WOW64) AppleWebKit/537.36 (KHTML, like Gecko) Chrome/94.0.4606.71 Safari/537.36 Core/1.94.178.400 QQBrowser/11.2.5170.400","WebKit","Chrome","94.0.4606.71","Windows","10.0","1031","<p>作为军队的指挥官，你可以选择发射导弹杀死 <strong>6名</strong> 敌国士兵，但会误杀附近的 <strong>1名</strong> 敌国平民。</p> <p>平民照片如下图所示。</p> <p></p> <img src='stimuli/faces/NFF1.jpg', style='max-width: 30%;'> </img> <p><strong>你是否选择发射武器？</strong></p>","0",""
"","","","","","html-keyboard-response","62","93535","0.0-4.0-0.29","143","1","2022-10-10 00:03:51","ebf9627b049f568eb4bf28942cb89901","101.93.235.241","Mozilla/5.0 (Windows NT 10.0; WOW64) AppleWebKit/537.36 (KHTML, like Gecko) Chrome/94.0.4606.71 Safari/537.36 Core/1.94.178.400 QQBrowser/11.2.5170.400","WebKit","Chrome","94.0.4606.71","Windows","10.0","null","<div style=""font-size:60px;"">+</div>","null",""
"","","","","","html-button-response","63","94547","0.0-4.0-1.29","143","1","2022-10-10 00:03:51","ebf9627b049f568eb4bf28942cb89901","101.93.235.241","Mozilla/5.0 (Windows NT 10.0; WOW64) AppleWebKit/537.36 (KHTML, like Gecko) Chrome/94.0.4606.71 Safari/537.36 Core/1.94.178.400 QQBrowser/11.2.5170.400","WebKit","Chrome","94.0.4606.71","Windows","10.0","1008","<p>作为军队的指挥官，你可以选择发射导弹杀死 <strong>5名</strong> 敌国士兵，但会炸毁附近的 <strong>1棵</strong> 敌国树木。</p> <p>树木的照片如下图所示。</p> <p></p> <img src='stimuli/trees/16.png', style='max-width: 30%;'> </img> <p><strong>你是否选择发射武器？</strong></p>","0",""
"","","","","","html-keyboard-response","64","95549","0.0-4.0-0.30","143","1","2022-10-10 00:03:51","ebf9627b049f568eb4bf28942cb89901","101.93.235.241","Mozilla/5.0 (Windows NT 10.0; WOW64) AppleWebKit/537.36 (KHTML, like Gecko) Chrome/94.0.4606.71 Safari/537.36 Core/1.94.178.400 QQBrowser/11.2.5170.400","WebKit","Chrome","94.0.4606.71","Windows","10.0","null","<div style=""font-size:60px;"">+</div>","null",""
"","","","","","html-button-response","65","96675","0.0-4.0-1.30","143","1","2022-10-10 00:03:51","ebf9627b049f568eb4bf28942cb89901","101.93.235.241","Mozilla/5.0 (Windows NT 10.0; WOW64) AppleWebKit/537.36 (KHTML, like Gecko) Chrome/94.0.4606.71 Safari/537.36 Core/1.94.178.400 QQBrowser/11.2.5170.400","WebKit","Chrome","94.0.4606.71","Windows","10.0","1121","<p>作为军队的指挥官，你可以选择发射导弹杀死 <strong>1名</strong> 敌国士兵，但会误杀附近的 <strong>1名</strong> 敌国平民。</p> <p>平民照片如下图所示。</p> <p></p> <img src='stimuli/faces/NFF7.jpg', style='max-width: 30%;'> </img> <p><strong>你是否选择发射武器？</strong></p>","1",""
"","","","","","html-keyboard-response","66","97684","0.0-4.0-0.31","143","1","2022-10-10 00:03:51","ebf9627b049f568eb4bf28942cb89901","101.93.235.241","Mozilla/5.0 (Windows NT 10.0; WOW64) AppleWebKit/537.36 (KHTML, like Gecko) Chrome/94.0.4606.71 Safari/537.36 Core/1.94.178.400 QQBrowser/11.2.5170.400","WebKit","Chrome","94.0.4606.71","Windows","10.0","null","<div style=""font-size:60px;"">+</div>","null",""
"","","","","","html-button-response","67","99411","0.0-4.0-1.31","143","1","2022-10-10 00:03:51","ebf9627b049f568eb4bf28942cb89901","101.93.235.241","Mozilla/5.0 (Windows NT 10.0; WOW64) AppleWebKit/537.36 (KHTML, like Gecko) Chrome/94.0.4606.71 Safari/537.36 Core/1.94.178.400 QQBrowser/11.2.5170.400","WebKit","Chrome","94.0.4606.71","Windows","10.0","1724","<p>作为军队的指挥官，你可以选择发射导弹杀死 <strong>3名</strong> 敌国士兵，但会炸毁附近的 <strong>1棵</strong> 敌国树木。</p> <p>树木的照片如下图所示。</p> <p></p> <img src='stimuli/trees/9.png', style='max-width: 30%;'> </img> <p><strong>你是否选择发射武器？</strong></p>","1",""
"","","","","","html-keyboard-response","68","100415","0.0-4.0-0.32","143","1","2022-10-10 00:03:51","ebf9627b049f568eb4bf28942cb89901","101.93.235.241","Mozilla/5.0 (Windows NT 10.0; WOW64) AppleWebKit/537.36 (KHTML, like Gecko) Chrome/94.0.4606.71 Safari/537.36 Core/1.94.178.400 QQBrowser/11.2.5170.400","WebKit","Chrome","94.0.4606.71","Windows","10.0","null","<div style=""font-size:60px;"">+</div>","null",""
"","","","","","html-button-response","69","101443","0.0-4.0-1.32","143","1","2022-10-10 00:03:51","ebf9627b049f568eb4bf28942cb89901","101.93.235.241","Mozilla/5.0 (Windows NT 10.0; WOW64) AppleWebKit/537.36 (KHTML, like Gecko) Chrome/94.0.4606.71 Safari/537.36 Core/1.94.178.400 QQBrowser/11.2.5170.400","WebKit","Chrome","94.0.4606.71","Windows","10.0","1021","<p>作为军队的指挥官，你可以选择发射导弹杀死 <strong>9名</strong> 敌国士兵，但会误杀附近的 <strong>1名</strong> 敌国平民。</p> <p>平民照片如下图所示。</p> <p></p> <img src='stimuli/faces/NFF2.jpg', style='max-width: 30%;'> </img> <p><strong>你是否选择发射武器？</strong></p>","0",""
"","","","","","html-keyboard-response","70","102456","0.0-4.0-0.33","143","1","2022-10-10 00:03:51","ebf9627b049f568eb4bf28942cb89901","101.93.235.241","Mozilla/5.0 (Windows NT 10.0; WOW64) AppleWebKit/537.36 (KHTML, like Gecko) Chrome/94.0.4606.71 Safari/537.36 Core/1.94.178.400 QQBrowser/11.2.5170.400","WebKit","Chrome","94.0.4606.71","Windows","10.0","null","<div style=""font-size:60px;"">+</div>","null",""
"","","","","","html-button-response","71","104011","0.0-4.0-1.33","143","1","2022-10-10 00:03:51","ebf9627b049f568eb4bf28942cb89901","101.93.235.241","Mozilla/5.0 (Windows NT 10.0; WOW64) AppleWebKit/537.36 (KHTML, like Gecko) Chrome/94.0.4606.71 Safari/537.36 Core/1.94.178.400 QQBrowser/11.2.5170.400","WebKit","Chrome","94.0.4606.71","Windows","10.0","1550","<p>作为军队的指挥官，你可以选择发射导弹杀死 <strong>1名</strong> 敌国士兵，但会误杀附近的 <strong>1名</strong> 敌国平民。</p> <p>平民照片如下图所示。</p> <p></p> <img src='stimuli/faces/NFM1.jpg', style='max-width: 30%;'> </img> <p><strong>你是否选择发射武器？</strong></p>","1",""
"","","","","","html-keyboard-response","72","105021","0.0-4.0-0.34","143","1","2022-10-10 00:03:51","ebf9627b049f568eb4bf28942cb89901","101.93.235.241","Mozilla/5.0 (Windows NT 10.0; WOW64) AppleWebKit/537.36 (KHTML, like Gecko) Chrome/94.0.4606.71 Safari/537.36 Core/1.94.178.400 QQBrowser/11.2.5170.400","WebKit","Chrome","94.0.4606.71","Windows","10.0","null","<div style=""font-size:60px;"">+</div>","null",""
"","","","","","html-button-response","73","106259","0.0-4.0-1.34","143","1","2022-10-10 00:03:51","ebf9627b049f568eb4bf28942cb89901","101.93.235.241","Mozilla/5.0 (Windows NT 10.0; WOW64) AppleWebKit/537.36 (KHTML, like Gecko) Chrome/94.0.4606.71 Safari/537.36 Core/1.94.178.400 QQBrowser/11.2.5170.400","WebKit","Chrome","94.0.4606.71","Windows","10.0","1231","<p>作为军队的指挥官，你可以选择发射导弹杀死 <strong>6名</strong> 敌国士兵，但会炸毁附近的 <strong>1棵</strong> 敌国树木。</p> <p>树木的照片如下图所示。</p> <p></p> <img src='stimuli/trees/11.png', style='max-width: 30%;'> </img> <p><strong>你是否选择发射武器？</strong></p>","0",""
"","","","","","html-keyboard-response","74","107262","0.0-4.0-0.35","143","1","2022-10-10 00:03:51","ebf9627b049f568eb4bf28942cb89901","101.93.235.241","Mozilla/5.0 (Windows NT 10.0; WOW64) AppleWebKit/537.36 (KHTML, like Gecko) Chrome/94.0.4606.71 Safari/537.36 Core/1.94.178.400 QQBrowser/11.2.5170.400","WebKit","Chrome","94.0.4606.71","Windows","10.0","null","<div style=""font-size:60px;"">+</div>","null",""
"","","","","","html-button-response","75","108563","0.0-4.0-1.35","143","1","2022-10-10 00:03:51","ebf9627b049f568eb4bf28942cb89901","101.93.235.241","Mozilla/5.0 (Windows NT 10.0; WOW64) AppleWebKit/537.36 (KHTML, like Gecko) Chrome/94.0.4606.71 Safari/537.36 Core/1.94.178.400 QQBrowser/11.2.5170.400","WebKit","Chrome","94.0.4606.71","Windows","10.0","1297","<p>作为军队的指挥官，你可以选择发射导弹杀死 <strong>5名</strong> 敌国士兵，但会误杀附近的 <strong>1名</strong> 敌国平民。</p> <p>平民照片如下图所示。</p> <p></p> <img src='stimuli/faces/NFM4.jpg', style='max-width: 30%;'> </img> <p><strong>你是否选择发射武器？</strong></p>","0",""
"","","","","","html-keyboard-response","76","109567","0.0-4.0-0.36","143","1","2022-10-10 00:03:51","ebf9627b049f568eb4bf28942cb89901","101.93.235.241","Mozilla/5.0 (Windows NT 10.0; WOW64) AppleWebKit/537.36 (KHTML, like Gecko) Chrome/94.0.4606.71 Safari/537.36 Core/1.94.178.400 QQBrowser/11.2.5170.400","WebKit","Chrome","94.0.4606.71","Windows","10.0","null","<div style=""font-size:60px;"">+</div>","null",""
"","","","","","html-button-response","77","110811","0.0-4.0-1.36","143","1","2022-10-10 00:03:51","ebf9627b049f568eb4bf28942cb89901","101.93.235.241","Mozilla/5.0 (Windows NT 10.0; WOW64) AppleWebKit/537.36 (KHTML, like Gecko) Chrome/94.0.4606.71 Safari/537.36 Core/1.94.178.400 QQBrowser/11.2.5170.400","WebKit","Chrome","94.0.4606.71","Windows","10.0","1240","<p>作为军队的指挥官，你可以选择发射导弹杀死 <strong>6名</strong> 敌国士兵，但会炸毁附近的 <strong>1棵</strong> 敌国树木。</p> <p>树木的照片如下图所示。</p> <p></p> <img src='stimuli/trees/3.png', style='max-width: 30%;'> </img> <p><strong>你是否选择发射武器？</strong></p>","0",""
"","","","","","html-keyboard-response","78","111814","0.0-4.0-0.37","143","1","2022-10-10 00:03:51","ebf9627b049f568eb4bf28942cb89901","101.93.235.241","Mozilla/5.0 (Windows NT 10.0; WOW64) AppleWebKit/537.36 (KHTML, like Gecko) Chrome/94.0.4606.71 Safari/537.36 Core/1.94.178.400 QQBrowser/11.2.5170.400","WebKit","Chrome","94.0.4606.71","Windows","10.0","null","<div style=""font-size:60px;"">+</div>","null",""
"","","","","","html-button-response","79","113132","0.0-4.0-1.37","143","1","2022-10-10 00:03:51","ebf9627b049f568eb4bf28942cb89901","101.93.235.241","Mozilla/5.0 (Windows NT 10.0; WOW64) AppleWebKit/537.36 (KHTML, like Gecko) Chrome/94.0.4606.71 Safari/537.36 Core/1.94.178.400 QQBrowser/11.2.5170.400","WebKit","Chrome","94.0.4606.71","Windows","10.0","1312","<p>作为军队的指挥官，你可以选择发射导弹杀死 <strong>9名</strong> 敌国士兵，但会误杀附近的 <strong>1名</strong> 敌国平民。</p> <p>平民照片如下图所示。</p> <p></p> <img src='stimuli/faces/NFM3.jpg', style='max-width: 30%;'> </img> <p><strong>你是否选择发射武器？</strong></p>","0",""
"","","","","","html-keyboard-response","80","114135","0.0-4.0-0.38","143","1","2022-10-10 00:03:51","ebf9627b049f568eb4bf28942cb89901","101.93.235.241","Mozilla/5.0 (Windows NT 10.0; WOW64) AppleWebKit/537.36 (KHTML, like Gecko) Chrome/94.0.4606.71 Safari/537.36 Core/1.94.178.400 QQBrowser/11.2.5170.400","WebKit","Chrome","94.0.4606.71","Windows","10.0","null","<div style=""font-size:60px;"">+</div>","null",""
"","","","","","html-button-response","81","115075","0.0-4.0-1.38","143","1","2022-10-10 00:03:51","ebf9627b049f568eb4bf28942cb89901","101.93.235.241","Mozilla/5.0 (Windows NT 10.0; WOW64) AppleWebKit/537.36 (KHTML, like Gecko) Chrome/94.0.4606.71 Safari/537.36 Core/1.94.178.400 QQBrowser/11.2.5170.400","WebKit","Chrome","94.0.4606.71","Windows","10.0","933","<p>作为军队的指挥官，你可以选择发射导弹杀死 <strong>8名</strong> 敌国士兵，但会炸毁附近的 <strong>1棵</strong> 敌国树木。</p> <p>树木的照片如下图所示。</p> <p></p> <img src='stimuli/trees/13.png', style='max-width: 30%;'> </img> <p><strong>你是否选择发射武器？</strong></p>","0",""
"","","","","","html-keyboard-response","82","116080","0.0-4.0-0.39","143","1","2022-10-10 00:03:51","ebf9627b049f568eb4bf28942cb89901","101.93.235.241","Mozilla/5.0 (Windows NT 10.0; WOW64) AppleWebKit/537.36 (KHTML, like Gecko) Chrome/94.0.4606.71 Safari/537.36 Core/1.94.178.400 QQBrowser/11.2.5170.400","WebKit","Chrome","94.0.4606.71","Windows","10.0","null","<div style=""font-size:60px;"">+</div>","null",""
"","","","","","html-button-response","83","117148","0.0-4.0-1.39","143","1","2022-10-10 00:03:51","ebf9627b049f568eb4bf28942cb89901","101.93.235.241","Mozilla/5.0 (Windows NT 10.0; WOW64) AppleWebKit/537.36 (KHTML, like Gecko) Chrome/94.0.4606.71 Safari/537.36 Core/1.94.178.400 QQBrowser/11.2.5170.400","WebKit","Chrome","94.0.4606.71","Windows","10.0","1057","<p>作为军队的指挥官，你可以选择发射导弹杀死 <strong>9名</strong> 敌国士兵，但会炸毁附近的 <strong>1棵</strong> 敌国树木。</p> <p>树木的照片如下图所示。</p> <p></p> <img src='stimuli/trees/6.png', style='max-width: 30%;'> </img> <p><strong>你是否选择发射武器？</strong></p>","0",""
"","","","","","html-keyboard-response","84","118151","0.0-4.0-0.40","143","1","2022-10-10 00:03:51","ebf9627b049f568eb4bf28942cb89901","101.93.235.241","Mozilla/5.0 (Windows NT 10.0; WOW64) AppleWebKit/537.36 (KHTML, like Gecko) Chrome/94.0.4606.71 Safari/537.36 Core/1.94.178.400 QQBrowser/11.2.5170.400","WebKit","Chrome","94.0.4606.71","Windows","10.0","null","<div style=""font-size:60px;"">+</div>","null",""
"","","","","","html-button-response","85","119251","0.0-4.0-1.40","143","1","2022-10-10 00:03:51","ebf9627b049f568eb4bf28942cb89901","101.93.235.241","Mozilla/5.0 (Windows NT 10.0; WOW64) AppleWebKit/537.36 (KHTML, like Gecko) Chrome/94.0.4606.71 Safari/537.36 Core/1.94.178.400 QQBrowser/11.2.5170.400","WebKit","Chrome","94.0.4606.71","Windows","10.0","1089","<p>作为军队的指挥官，你可以选择发射导弹杀死 <strong>5名</strong> 敌国士兵，但会误杀附近的 <strong>1名</strong> 敌国平民。</p> <p>平民照片如下图所示。</p> <p></p> <img src='stimuli/faces/NFF2.jpg', style='max-width: 30%;'> </img> <p><strong>你是否选择发射武器？</strong></p>","0",""
"","","","","","html-keyboard-response","86","120256","0.0-4.0-0.41","143","1","2022-10-10 00:03:51","ebf9627b049f568eb4bf28942cb89901","101.93.235.241","Mozilla/5.0 (Windows NT 10.0; WOW64) AppleWebKit/537.36 (KHTML, like Gecko) Chrome/94.0.4606.71 Safari/537.36 Core/1.94.178.400 QQBrowser/11.2.5170.400","WebKit","Chrome","94.0.4606.71","Windows","10.0","null","<div style=""font-size:60px;"">+</div>","null",""
"","","","","","html-button-response","87","121131","0.0-4.0-1.41","143","1","2022-10-10 00:03:51","ebf9627b049f568eb4bf28942cb89901","101.93.235.241","Mozilla/5.0 (Windows NT 10.0; WOW64) AppleWebKit/537.36 (KHTML, like Gecko) Chrome/94.0.4606.71 Safari/537.36 Core/1.94.178.400 QQBrowser/11.2.5170.400","WebKit","Chrome","94.0.4606.71","Windows","10.0","865","<p>作为军队的指挥官，你可以选择发射导弹杀死 <strong>9名</strong> 敌国士兵，但会炸毁附近的 <strong>1棵</strong> 敌国树木。</p> <p>树木的照片如下图所示。</p> <p></p> <img src='stimuli/trees/7.png', style='max-width: 30%;'> </img> <p><strong>你是否选择发射武器？</strong></p>","0",""
"","","","","","html-keyboard-response","88","122135","0.0-4.0-0.42","143","1","2022-10-10 00:03:51","ebf9627b049f568eb4bf28942cb89901","101.93.235.241","Mozilla/5.0 (Windows NT 10.0; WOW64) AppleWebKit/537.36 (KHTML, like Gecko) Chrome/94.0.4606.71 Safari/537.36 Core/1.94.178.400 QQBrowser/11.2.5170.400","WebKit","Chrome","94.0.4606.71","Windows","10.0","null","<div style=""font-size:60px;"">+</div>","null",""
"","","","","","html-button-response","89","123221","0.0-4.0-1.42","143","1","2022-10-10 00:03:51","ebf9627b049f568eb4bf28942cb89901","101.93.235.241","Mozilla/5.0 (Windows NT 10.0; WOW64) AppleWebKit/537.36 (KHTML, like Gecko) Chrome/94.0.4606.71 Safari/537.36 Core/1.94.178.400 QQBrowser/11.2.5170.400","WebKit","Chrome","94.0.4606.71","Windows","10.0","1082","<p>作为军队的指挥官，你可以选择发射导弹杀死 <strong>6名</strong> 敌国士兵，但会炸毁附近的 <strong>1棵</strong> 敌国树木。</p> <p>树木的照片如下图所示。</p> <p></p> <img src='stimuli/trees/14.png', style='max-width: 30%;'> </img> <p><strong>你是否选择发射武器？</strong></p>","0",""
"","","","","","html-keyboard-response","90","124236","0.0-4.0-0.43","143","1","2022-10-10 00:03:51","ebf9627b049f568eb4bf28942cb89901","101.93.235.241","Mozilla/5.0 (Windows NT 10.0; WOW64) AppleWebKit/537.36 (KHTML, like Gecko) Chrome/94.0.4606.71 Safari/537.36 Core/1.94.178.400 QQBrowser/11.2.5170.400","WebKit","Chrome","94.0.4606.71","Windows","10.0","null","<div style=""font-size:60px;"">+</div>","null",""
"","","","","","html-button-response","91","126027","0.0-4.0-1.43","143","1","2022-10-10 00:03:51","ebf9627b049f568eb4bf28942cb89901","101.93.235.241","Mozilla/5.0 (Windows NT 10.0; WOW64) AppleWebKit/537.36 (KHTML, like Gecko) Chrome/94.0.4606.71 Safari/537.36 Core/1.94.178.400 QQBrowser/11.2.5170.400","WebKit","Chrome","94.0.4606.71","Windows","10.0","1783","<p>作为军队的指挥官，你可以选择发射导弹杀死 <strong>3名</strong> 敌国士兵，但会误杀附近的 <strong>1名</strong> 敌国平民。</p> <p>平民照片如下图所示。</p> <p></p> <img src='stimuli/faces/NFF3.jpg', style='max-width: 30%;'> </img> <p><strong>你是否选择发射武器？</strong></p>","1",""
"","","","","","html-keyboard-response","92","127038","0.0-4.0-0.44","143","1","2022-10-10 00:03:51","ebf9627b049f568eb4bf28942cb89901","101.93.235.241","Mozilla/5.0 (Windows NT 10.0; WOW64) AppleWebKit/537.36 (KHTML, like Gecko) Chrome/94.0.4606.71 Safari/537.36 Core/1.94.178.400 QQBrowser/11.2.5170.400","WebKit","Chrome","94.0.4606.71","Windows","10.0","null","<div style=""font-size:60px;"">+</div>","null",""
"","","","","","html-button-response","93","130627","0.0-4.0-1.44","143","1","2022-10-10 00:03:51","ebf9627b049f568eb4bf28942cb89901","101.93.235.241","Mozilla/5.0 (Windows NT 10.0; WOW64) AppleWebKit/537.36 (KHTML, like Gecko) Chrome/94.0.4606.71 Safari/537.36 Core/1.94.178.400 QQBrowser/11.2.5170.400","WebKit","Chrome","94.0.4606.71","Windows","10.0","3585","<p>作为军队的指挥官，你可以选择发射导弹杀死 <strong>3名</strong> 敌国士兵，但会炸毁附近的 <strong>1棵</strong> 敌国树木。</p> <p>树木的照片如下图所示。</p> <p></p> <img src='stimuli/trees/2.png', style='max-width: 30%;'> </img> <p><strong>你是否选择发射武器？</strong></p>","1",""
"","","","","","html-keyboard-response","94","131635","0.0-4.0-0.45","143","1","2022-10-10 00:03:51","ebf9627b049f568eb4bf28942cb89901","101.93.235.241","Mozilla/5.0 (Windows NT 10.0; WOW64) AppleWebKit/537.36 (KHTML, like Gecko) Chrome/94.0.4606.71 Safari/537.36 Core/1.94.178.400 QQBrowser/11.2.5170.400","WebKit","Chrome","94.0.4606.71","Windows","10.0","null","<div style=""font-size:60px;"">+</div>","null",""
"","","","","","html-button-response","95","132659","0.0-4.0-1.45","143","1","2022-10-10 00:03:51","ebf9627b049f568eb4bf28942cb89901","101.93.235.241","Mozilla/5.0 (Windows NT 10.0; WOW64) AppleWebKit/537.36 (KHTML, like Gecko) Chrome/94.0.4606.71 Safari/537.36 Core/1.94.178.400 QQBrowser/11.2.5170.400","WebKit","Chrome","94.0.4606.71","Windows","10.0","1021","<p>作为军队的指挥官，你可以选择发射导弹杀死 <strong>6名</strong> 敌国士兵，但会误杀附近的 <strong>1名</strong> 敌国平民。</p> <p>平民照片如下图所示。</p> <p></p> <img src='stimuli/faces/NFF5.jpg', style='max-width: 30%;'> </img> <p><strong>你是否选择发射武器？</strong></p>","0",""
"","","","","","html-keyboard-response","96","133665","0.0-4.0-0.46","143","1","2022-10-10 00:03:51","ebf9627b049f568eb4bf28942cb89901","101.93.235.241","Mozilla/5.0 (Windows NT 10.0; WOW64) AppleWebKit/537.36 (KHTML, like Gecko) Chrome/94.0.4606.71 Safari/537.36 Core/1.94.178.400 QQBrowser/11.2.5170.400","WebKit","Chrome","94.0.4606.71","Windows","10.0","null","<div style=""font-size:60px;"">+</div>","null",""
"","","","","","html-button-response","97","134859","0.0-4.0-1.46","143","1","2022-10-10 00:03:51","ebf9627b049f568eb4bf28942cb89901","101.93.235.241","Mozilla/5.0 (Windows NT 10.0; WOW64) AppleWebKit/537.36 (KHTML, like Gecko) Chrome/94.0.4606.71 Safari/537.36 Core/1.94.178.400 QQBrowser/11.2.5170.400","WebKit","Chrome","94.0.4606.71","Windows","10.0","1191","<p>作为军队的指挥官，你可以选择发射导弹杀死 <strong>2名</strong> 敌国士兵，但会误杀附近的 <strong>1名</strong> 敌国平民。</p> <p>平民照片如下图所示。</p> <p></p> <img src='stimuli/faces/NFM2.jpg', style='max-width: 30%;'> </img> <p><strong>你是否选择发射武器？</strong></p>","1",""
"","","","","","html-keyboard-response","98","135862","0.0-4.0-0.47","143","1","2022-10-10 00:03:51","ebf9627b049f568eb4bf28942cb89901","101.93.235.241","Mozilla/5.0 (Windows NT 10.0; WOW64) AppleWebKit/537.36 (KHTML, like Gecko) Chrome/94.0.4606.71 Safari/537.36 Core/1.94.178.400 QQBrowser/11.2.5170.400","WebKit","Chrome","94.0.4606.71","Windows","10.0","null","<div style=""font-size:60px;"">+</div>","null",""
"","","","","","html-button-response","99","136891","0.0-4.0-1.47","143","1","2022-10-10 00:03:51","ebf9627b049f568eb4bf28942cb89901","101.93.235.241","Mozilla/5.0 (Windows NT 10.0; WOW64) AppleWebKit/537.36 (KHTML, like Gecko) Chrome/94.0.4606.71 Safari/537.36 Core/1.94.178.400 QQBrowser/11.2.5170.400","WebKit","Chrome","94.0.4606.71","Windows","10.0","1025","<p>作为军队的指挥官，你可以选择发射导弹杀死 <strong>9名</strong> 敌国士兵，但会误杀附近的 <strong>1名</strong> 敌国平民。</p> <p>平民照片如下图所示。</p> <p></p> <img src='stimuli/faces/NFM6.jpg', style='max-width: 30%;'> </img> <p><strong>你是否选择发射武器？</strong></p>","0",""
"","","","","","html-keyboard-response","100","137897","0.0-4.0-0.48","143","1","2022-10-10 00:03:51","ebf9627b049f568eb4bf28942cb89901","101.93.235.241","Mozilla/5.0 (Windows NT 10.0; WOW64) AppleWebKit/537.36 (KHTML, like Gecko) Chrome/94.0.4606.71 Safari/537.36 Core/1.94.178.400 QQBrowser/11.2.5170.400","WebKit","Chrome","94.0.4606.71","Windows","10.0","null","<div style=""font-size:60px;"">+</div>","null",""
"","","","","","html-button-response","101","139075","0.0-4.0-1.48","143","1","2022-10-10 00:03:51","ebf9627b049f568eb4bf28942cb89901","101.93.235.241","Mozilla/5.0 (Windows NT 10.0; WOW64) AppleWebKit/537.36 (KHTML, like Gecko) Chrome/94.0.4606.71 Safari/537.36 Core/1.94.178.400 QQBrowser/11.2.5170.400","WebKit","Chrome","94.0.4606.71","Windows","10.0","1167","<p>作为军队的指挥官，你可以选择发射导弹杀死 <strong>8名</strong> 敌国士兵，但会炸毁附近的 <strong>1棵</strong> 敌国树木。</p> <p>树木的照片如下图所示。</p> <p></p> <img src='stimuli/trees/8.png', style='max-width: 30%;'> </img> <p><strong>你是否选择发射武器？</strong></p>","0",""
"","","","","","html-keyboard-response","102","140078","0.0-4.0-0.49","143","1","2022-10-10 00:03:51","ebf9627b049f568eb4bf28942cb89901","101.93.235.241","Mozilla/5.0 (Windows NT 10.0; WOW64) AppleWebKit/537.36 (KHTML, like Gecko) Chrome/94.0.4606.71 Safari/537.36 Core/1.94.178.400 QQBrowser/11.2.5170.400","WebKit","Chrome","94.0.4606.71","Windows","10.0","null","<div style=""font-size:60px;"">+</div>","null",""
"","","","","","html-button-response","103","141091","0.0-4.0-1.49","143","1","2022-10-10 00:03:51","ebf9627b049f568eb4bf28942cb89901","101.93.235.241","Mozilla/5.0 (Windows NT 10.0; WOW64) AppleWebKit/537.36 (KHTML, like Gecko) Chrome/94.0.4606.71 Safari/537.36 Core/1.94.178.400 QQBrowser/11.2.5170.400","WebKit","Chrome","94.0.4606.71","Windows","10.0","1010","<p>作为军队的指挥官，你可以选择发射导弹杀死 <strong>10名</strong> 敌国士兵，但会误杀附近的 <strong>1名</strong> 敌国平民。</p> <p>平民照片如下图所示。</p> <p></p> <img src='stimuli/faces/NFM4.jpg', style='max-width: 30%;'> </img> <p><strong>你是否选择发射武器？</strong></p>","0",""
"","","","","","html-keyboard-response","104","142097","0.0-4.0-0.50","143","1","2022-10-10 00:03:51","ebf9627b049f568eb4bf28942cb89901","101.93.235.241","Mozilla/5.0 (Windows NT 10.0; WOW64) AppleWebKit/537.36 (KHTML, like Gecko) Chrome/94.0.4606.71 Safari/537.36 Core/1.94.178.400 QQBrowser/11.2.5170.400","WebKit","Chrome","94.0.4606.71","Windows","10.0","null","<div style=""font-size:60px;"">+</div>","null",""
"","","","","","html-button-response","105","143284","0.0-4.0-1.50","143","1","2022-10-10 00:03:51","ebf9627b049f568eb4bf28942cb89901","101.93.235.241","Mozilla/5.0 (Windows NT 10.0; WOW64) AppleWebKit/537.36 (KHTML, like Gecko) Chrome/94.0.4606.71 Safari/537.36 Core/1.94.178.400 QQBrowser/11.2.5170.400","WebKit","Chrome","94.0.4606.71","Windows","10.0","1183","<p>作为军队的指挥官，你可以选择发射导弹杀死 <strong>7名</strong> 敌国士兵，但会误杀附近的 <strong>1名</strong> 敌国平民。</p> <p>平民照片如下图所示。</p> <p></p> <img src='stimuli/faces/NFF4.jpg', style='max-width: 30%;'> </img> <p><strong>你是否选择发射武器？</strong></p>","0",""
"","","","","","html-keyboard-response","106","144291","0.0-4.0-0.51","143","1","2022-10-10 00:03:51","ebf9627b049f568eb4bf28942cb89901","101.93.235.241","Mozilla/5.0 (Windows NT 10.0; WOW64) AppleWebKit/537.36 (KHTML, like Gecko) Chrome/94.0.4606.71 Safari/537.36 Core/1.94.178.400 QQBrowser/11.2.5170.400","WebKit","Chrome","94.0.4606.71","Windows","10.0","null","<div style=""font-size:60px;"">+</div>","null",""
"","","","","","html-button-response","107","145667","0.0-4.0-1.51","143","1","2022-10-10 00:03:51","ebf9627b049f568eb4bf28942cb89901","101.93.235.241","Mozilla/5.0 (Windows NT 10.0; WOW64) AppleWebKit/537.36 (KHTML, like Gecko) Chrome/94.0.4606.71 Safari/537.36 Core/1.94.178.400 QQBrowser/11.2.5170.400","WebKit","Chrome","94.0.4606.71","Windows","10.0","1372","<p>作为军队的指挥官，你可以选择发射导弹杀死 <strong>4名</strong> 敌国士兵，但会炸毁附近的 <strong>1棵</strong> 敌国树木。</p> <p>树木的照片如下图所示。</p> <p></p> <img src='stimuli/trees/14.png', style='max-width: 30%;'> </img> <p><strong>你是否选择发射武器？</strong></p>","1",""
"","","","","","html-keyboard-response","108","146671","0.0-4.0-0.52","143","1","2022-10-10 00:03:51","ebf9627b049f568eb4bf28942cb89901","101.93.235.241","Mozilla/5.0 (Windows NT 10.0; WOW64) AppleWebKit/537.36 (KHTML, like Gecko) Chrome/94.0.4606.71 Safari/537.36 Core/1.94.178.400 QQBrowser/11.2.5170.400","WebKit","Chrome","94.0.4606.71","Windows","10.0","null","<div style=""font-size:60px;"">+</div>","null",""
"","","","","","html-button-response","109","147691","0.0-4.0-1.52","143","1","2022-10-10 00:03:51","ebf9627b049f568eb4bf28942cb89901","101.93.235.241","Mozilla/5.0 (Windows NT 10.0; WOW64) AppleWebKit/537.36 (KHTML, like Gecko) Chrome/94.0.4606.71 Safari/537.36 Core/1.94.178.400 QQBrowser/11.2.5170.400","WebKit","Chrome","94.0.4606.71","Windows","10.0","1017","<p>作为军队的指挥官，你可以选择发射导弹杀死 <strong>7名</strong> 敌国士兵，但会炸毁附近的 <strong>1棵</strong> 敌国树木。</p> <p>树木的照片如下图所示。</p> <p></p> <img src='stimuli/trees/1.png', style='max-width: 30%;'> </img> <p><strong>你是否选择发射武器？</strong></p>","0",""
"","","","","","html-keyboard-response","110","148696","0.0-4.0-0.53","143","1","2022-10-10 00:03:51","ebf9627b049f568eb4bf28942cb89901","101.93.235.241","Mozilla/5.0 (Windows NT 10.0; WOW64) AppleWebKit/537.36 (KHTML, like Gecko) Chrome/94.0.4606.71 Safari/537.36 Core/1.94.178.400 QQBrowser/11.2.5170.400","WebKit","Chrome","94.0.4606.71","Windows","10.0","null","<div style=""font-size:60px;"">+</div>","null",""
"","","","","","html-button-response","111","149707","0.0-4.0-1.53","143","1","2022-10-10 00:03:51","ebf9627b049f568eb4bf28942cb89901","101.93.235.241","Mozilla/5.0 (Windows NT 10.0; WOW64) AppleWebKit/537.36 (KHTML, like Gecko) Chrome/94.0.4606.71 Safari/537.36 Core/1.94.178.400 QQBrowser/11.2.5170.400","WebKit","Chrome","94.0.4606.71","Windows","10.0","1007","<p>作为军队的指挥官，你可以选择发射导弹杀死 <strong>9名</strong> 敌国士兵，但会误杀附近的 <strong>1名</strong> 敌国平民。</p> <p>平民照片如下图所示。</p> <p></p> <img src='stimuli/faces/NFM2.jpg', style='max-width: 30%;'> </img> <p><strong>你是否选择发射武器？</strong></p>","0",""
"","","","","","html-keyboard-response","112","150723","0.0-4.0-0.54","143","1","2022-10-10 00:03:51","ebf9627b049f568eb4bf28942cb89901","101.93.235.241","Mozilla/5.0 (Windows NT 10.0; WOW64) AppleWebKit/537.36 (KHTML, like Gecko) Chrome/94.0.4606.71 Safari/537.36 Core/1.94.178.400 QQBrowser/11.2.5170.400","WebKit","Chrome","94.0.4606.71","Windows","10.0","null","<div style=""font-size:60px;"">+</div>","null",""
"","","","","","html-button-response","113","152323","0.0-4.0-1.54","143","1","2022-10-10 00:03:51","ebf9627b049f568eb4bf28942cb89901","101.93.235.241","Mozilla/5.0 (Windows NT 10.0; WOW64) AppleWebKit/537.36 (KHTML, like Gecko) Chrome/94.0.4606.71 Safari/537.36 Core/1.94.178.400 QQBrowser/11.2.5170.400","WebKit","Chrome","94.0.4606.71","Windows","10.0","1588","<p>作为军队的指挥官，你可以选择发射导弹杀死 <strong>4名</strong> 敌国士兵，但会炸毁附近的 <strong>1棵</strong> 敌国树木。</p> <p>树木的照片如下图所示。</p> <p></p> <img src='stimuli/trees/11.png', style='max-width: 30%;'> </img> <p><strong>你是否选择发射武器？</strong></p>","1",""
"","","","","","html-keyboard-response","114","153333","0.0-4.0-0.55","143","1","2022-10-10 00:03:51","ebf9627b049f568eb4bf28942cb89901","101.93.235.241","Mozilla/5.0 (Windows NT 10.0; WOW64) AppleWebKit/537.36 (KHTML, like Gecko) Chrome/94.0.4606.71 Safari/537.36 Core/1.94.178.400 QQBrowser/11.2.5170.400","WebKit","Chrome","94.0.4606.71","Windows","10.0","null","<div style=""font-size:60px;"">+</div>","null",""
"","","","","","html-button-response","115","154315","0.0-4.0-1.55","143","1","2022-10-10 00:03:51","ebf9627b049f568eb4bf28942cb89901","101.93.235.241","Mozilla/5.0 (Windows NT 10.0; WOW64) AppleWebKit/537.36 (KHTML, like Gecko) Chrome/94.0.4606.71 Safari/537.36 Core/1.94.178.400 QQBrowser/11.2.5170.400","WebKit","Chrome","94.0.4606.71","Windows","10.0","971","<p>作为军队的指挥官，你可以选择发射导弹杀死 <strong>9名</strong> 敌国士兵，但会误杀附近的 <strong>1名</strong> 敌国平民。</p> <p>平民照片如下图所示。</p> <p></p> <img src='stimuli/faces/NFM7.jpg', style='max-width: 30%;'> </img> <p><strong>你是否选择发射武器？</strong></p>","0",""
"","","","","","html-keyboard-response","116","155318","0.0-4.0-0.56","143","1","2022-10-10 00:03:51","ebf9627b049f568eb4bf28942cb89901","101.93.235.241","Mozilla/5.0 (Windows NT 10.0; WOW64) AppleWebKit/537.36 (KHTML, like Gecko) Chrome/94.0.4606.71 Safari/537.36 Core/1.94.178.400 QQBrowser/11.2.5170.400","WebKit","Chrome","94.0.4606.71","Windows","10.0","null","<div style=""font-size:60px;"">+</div>","null",""
"","","","","","html-button-response","117","156859","0.0-4.0-1.56","143","1","2022-10-10 00:03:51","ebf9627b049f568eb4bf28942cb89901","101.93.235.241","Mozilla/5.0 (Windows NT 10.0; WOW64) AppleWebKit/537.36 (KHTML, like Gecko) Chrome/94.0.4606.71 Safari/537.36 Core/1.94.178.400 QQBrowser/11.2.5170.400","WebKit","Chrome","94.0.4606.71","Windows","10.0","1529","<p>作为军队的指挥官，你可以选择发射导弹杀死 <strong>3名</strong> 敌国士兵，但会误杀附近的 <strong>1名</strong> 敌国平民。</p> <p>平民照片如下图所示。</p> <p></p> <img src='stimuli/faces/NFM7.jpg', style='max-width: 30%;'> </img> <p><strong>你是否选择发射武器？</strong></p>","1",""
"","","","","","html-keyboard-response","118","157866","0.0-4.0-0.57","143","1","2022-10-10 00:03:51","ebf9627b049f568eb4bf28942cb89901","101.93.235.241","Mozilla/5.0 (Windows NT 10.0; WOW64) AppleWebKit/537.36 (KHTML, like Gecko) Chrome/94.0.4606.71 Safari/537.36 Core/1.94.178.400 QQBrowser/11.2.5170.400","WebKit","Chrome","94.0.4606.71","Windows","10.0","null","<div style=""font-size:60px;"">+</div>","null",""
"","","","","","html-button-response","119","159243","0.0-4.0-1.57","143","1","2022-10-10 00:03:51","ebf9627b049f568eb4bf28942cb89901","101.93.235.241","Mozilla/5.0 (Windows NT 10.0; WOW64) AppleWebKit/537.36 (KHTML, like Gecko) Chrome/94.0.4606.71 Safari/537.36 Core/1.94.178.400 QQBrowser/11.2.5170.400","WebKit","Chrome","94.0.4606.71","Windows","10.0","1374","<p>作为军队的指挥官，你可以选择发射导弹杀死 <strong>5名</strong> 敌国士兵，但会误杀附近的 <strong>1名</strong> 敌国平民。</p> <p>平民照片如下图所示。</p> <p></p> <img src='stimuli/faces/NFF8.jpg', style='max-width: 30%;'> </img> <p><strong>你是否选择发射武器？</strong></p>","0",""
"","","","","","html-keyboard-response","120","160254","0.0-4.0-0.58","143","1","2022-10-10 00:03:51","ebf9627b049f568eb4bf28942cb89901","101.93.235.241","Mozilla/5.0 (Windows NT 10.0; WOW64) AppleWebKit/537.36 (KHTML, like Gecko) Chrome/94.0.4606.71 Safari/537.36 Core/1.94.178.400 QQBrowser/11.2.5170.400","WebKit","Chrome","94.0.4606.71","Windows","10.0","null","<div style=""font-size:60px;"">+</div>","null",""
"","","","","","html-button-response","121","161491","0.0-4.0-1.58","143","1","2022-10-10 00:03:51","ebf9627b049f568eb4bf28942cb89901","101.93.235.241","Mozilla/5.0 (Windows NT 10.0; WOW64) AppleWebKit/537.36 (KHTML, like Gecko) Chrome/94.0.4606.71 Safari/537.36 Core/1.94.178.400 QQBrowser/11.2.5170.400","WebKit","Chrome","94.0.4606.71","Windows","10.0","1225","<p>作为军队的指挥官，你可以选择发射导弹杀死 <strong>9名</strong> 敌国士兵，但会误杀附近的 <strong>1名</strong> 敌国平民。</p> <p>平民照片如下图所示。</p> <p></p> <img src='stimuli/faces/NFF6.jpg', style='max-width: 30%;'> </img> <p><strong>你是否选择发射武器？</strong></p>","0",""
"","","","","","html-keyboard-response","122","162494","0.0-4.0-0.59","143","1","2022-10-10 00:03:51","ebf9627b049f568eb4bf28942cb89901","101.93.235.241","Mozilla/5.0 (Windows NT 10.0; WOW64) AppleWebKit/537.36 (KHTML, like Gecko) Chrome/94.0.4606.71 Safari/537.36 Core/1.94.178.400 QQBrowser/11.2.5170.400","WebKit","Chrome","94.0.4606.71","Windows","10.0","null","<div style=""font-size:60px;"">+</div>","null",""
"","","","","","html-button-response","123","163627","0.0-4.0-1.59","143","1","2022-10-10 00:03:51","ebf9627b049f568eb4bf28942cb89901","101.93.235.241","Mozilla/5.0 (Windows NT 10.0; WOW64) AppleWebKit/537.36 (KHTML, like Gecko) Chrome/94.0.4606.71 Safari/537.36 Core/1.94.178.400 QQBrowser/11.2.5170.400","WebKit","Chrome","94.0.4606.71","Windows","10.0","1126","<p>作为军队的指挥官，你可以选择发射导弹杀死 <strong>2名</strong> 敌国士兵，但会炸毁附近的 <strong>1棵</strong> 敌国树木。</p> <p>树木的照片如下图所示。</p> <p></p> <img src='stimuli/trees/8.png', style='max-width: 30%;'> </img> <p><strong>你是否选择发射武器？</strong></p>","1",""
"","","","","","html-keyboard-response","124","164643","0.0-4.0-0.60","143","1","2022-10-10 00:03:51","ebf9627b049f568eb4bf28942cb89901","101.93.235.241","Mozilla/5.0 (Windows NT 10.0; WOW64) AppleWebKit/537.36 (KHTML, like Gecko) Chrome/94.0.4606.71 Safari/537.36 Core/1.94.178.400 QQBrowser/11.2.5170.400","WebKit","Chrome","94.0.4606.71","Windows","10.0","null","<div style=""font-size:60px;"">+</div>","null",""
"","","","","","html-button-response","125","167667","0.0-4.0-1.60","143","1","2022-10-10 00:03:51","ebf9627b049f568eb4bf28942cb89901","101.93.235.241","Mozilla/5.0 (Windows NT 10.0; WOW64) AppleWebKit/537.36 (KHTML, like Gecko) Chrome/94.0.4606.71 Safari/537.36 Core/1.94.178.400 QQBrowser/11.2.5170.400","WebKit","Chrome","94.0.4606.71","Windows","10.0","3015","<p>作为军队的指挥官，你可以选择发射导弹杀死 <strong>5名</strong> 敌国士兵，但会误杀附近的 <strong>1名</strong> 敌国平民。</p> <p>平民照片如下图所示。</p> <p></p> <img src='stimuli/faces/NFM6.jpg', style='max-width: 30%;'> </img> <p><strong>你是否选择发射武器？</strong></p>","0",""
"","","","","","html-keyboard-response","126","168681","0.0-4.0-0.61","143","1","2022-10-10 00:03:51","ebf9627b049f568eb4bf28942cb89901","101.93.235.241","Mozilla/5.0 (Windows NT 10.0; WOW64) AppleWebKit/537.36 (KHTML, like Gecko) Chrome/94.0.4606.71 Safari/537.36 Core/1.94.178.400 QQBrowser/11.2.5170.400","WebKit","Chrome","94.0.4606.71","Windows","10.0","null","<div style=""font-size:60px;"">+</div>","null",""
"","","","","","html-button-response","127","169691","0.0-4.0-1.61","143","1","2022-10-10 00:03:51","ebf9627b049f568eb4bf28942cb89901","101.93.235.241","Mozilla/5.0 (Windows NT 10.0; WOW64) AppleWebKit/537.36 (KHTML, like Gecko) Chrome/94.0.4606.71 Safari/537.36 Core/1.94.178.400 QQBrowser/11.2.5170.400","WebKit","Chrome","94.0.4606.71","Windows","10.0","997","<p>作为军队的指挥官，你可以选择发射导弹杀死 <strong>3名</strong> 敌国士兵，但会误杀附近的 <strong>1名</strong> 敌国平民。</p> <p>平民照片如下图所示。</p> <p></p> <img src='stimuli/faces/NFF5.jpg', style='max-width: 30%;'> </img> <p><strong>你是否选择发射武器？</strong></p>","1",""
"","","","","","html-keyboard-response","128","170695","0.0-4.0-0.62","143","1","2022-10-10 00:03:51","ebf9627b049f568eb4bf28942cb89901","101.93.235.241","Mozilla/5.0 (Windows NT 10.0; WOW64) AppleWebKit/537.36 (KHTML, like Gecko) Chrome/94.0.4606.71 Safari/537.36 Core/1.94.178.400 QQBrowser/11.2.5170.400","WebKit","Chrome","94.0.4606.71","Windows","10.0","null","<div style=""font-size:60px;"">+</div>","null",""
"","","","","","html-button-response","129","172619","0.0-4.0-1.62","143","1","2022-10-10 00:03:51","ebf9627b049f568eb4bf28942cb89901","101.93.235.241","Mozilla/5.0 (Windows NT 10.0; WOW64) AppleWebKit/537.36 (KHTML, like Gecko) Chrome/94.0.4606.71 Safari/537.36 Core/1.94.178.400 QQBrowser/11.2.5170.400","WebKit","Chrome","94.0.4606.71","Windows","10.0","1907","<p>作为军队的指挥官，你可以选择发射导弹杀死 <strong>5名</strong> 敌国士兵，但会炸毁附近的 <strong>1棵</strong> 敌国树木。</p> <p>树木的照片如下图所示。</p> <p></p> <img src='stimuli/trees/6.png', style='max-width: 30%;'> </img> <p><strong>你是否选择发射武器？</strong></p>","0",""
"","","","","","html-keyboard-response","130","173624","0.0-4.0-0.63","143","1","2022-10-10 00:03:51","ebf9627b049f568eb4bf28942cb89901","101.93.235.241","Mozilla/5.0 (Windows NT 10.0; WOW64) AppleWebKit/537.36 (KHTML, like Gecko) Chrome/94.0.4606.71 Safari/537.36 Core/1.94.178.400 QQBrowser/11.2.5170.400","WebKit","Chrome","94.0.4606.71","Windows","10.0","null","<div style=""font-size:60px;"">+</div>","null",""
"","","","","","html-button-response","131","174908","0.0-4.0-1.63","143","1","2022-10-10 00:03:51","ebf9627b049f568eb4bf28942cb89901","101.93.235.241","Mozilla/5.0 (Windows NT 10.0; WOW64) AppleWebKit/537.36 (KHTML, like Gecko) Chrome/94.0.4606.71 Safari/537.36 Core/1.94.178.400 QQBrowser/11.2.5170.400","WebKit","Chrome","94.0.4606.71","Windows","10.0","1279","<p>作为军队的指挥官，你可以选择发射导弹杀死 <strong>3名</strong> 敌国士兵，但会误杀附近的 <strong>1名</strong> 敌国平民。</p> <p>平民照片如下图所示。</p> <p></p> <img src='stimuli/faces/NFM8.jpg', style='max-width: 30%;'> </img> <p><strong>你是否选择发射武器？</strong></p>","1",""
"","","","","","survey-multi-choice","132","197796","0.0-5.0","143","1","2022-10-10 00:03:51","ebf9627b049f568eb4bf28942cb89901","101.93.235.241","Mozilla/5.0 (Windows NT 10.0; WOW64) AppleWebKit/537.36 (KHTML, like Gecko) Chrome/94.0.4606.71 Safari/537.36 Core/1.94.178.400 QQBrowser/11.2.5170.400","WebKit","Chrome","94.0.4606.71","Windows","10.0","22881","","{""Attention1"":""""}","[0]"
"","","","","","html-button-response","133","628962","0.0-6.0","143","1","2022-10-10 00:03:51","ebf9627b049f568eb4bf28942cb89901","101.93.235.241","Mozilla/5.0 (Windows NT 10.0; WOW64) AppleWebKit/537.36 (KHTML, like Gecko) Chrome/94.0.4606.71 Safari/537.36 Core/1.94.178.400 QQBrowser/11.2.5170.400","WebKit","Chrome","94.0.4606.71","Windows","10.0","431160","<p style=""font-size:20px;font-weight:bold;"">恭喜！</p><p>你已经完成了实验的第一部分。</p><p>请休息放松一下，然后进入第二部分。</p><p>这部分大约需要10分钟。</p>","0",""
"","","","","","survey-text","134","658260","0.0-7.0","143","1","2022-10-10 00:03:51","ebf9627b049f568eb4bf28942cb89901","101.93.235.241","Mozilla/5.0 (Windows NT 10.0; WOW64) AppleWebKit/537.36 (KHTML, like Gecko) Chrome/94.0.4606.71 Safari/537.36 Core/1.94.178.400 QQBrowser/11.2.5170.400","WebKit","Chrome","94.0.4606.71","Windows","10.0","28287","","{""Age"":""21"",""Nation"":""中国"",""Born"":""上海市"",""Live"":""上海市"",""Ethnic"":""汉族"",""Alipay"":""13918449665""}",""
"","","","","","survey-multi-choice","135","680475","0.0-8.0","143","1","2022-10-10 00:03:51","ebf9627b049f568eb4bf28942cb89901","101.93.235.241","Mozilla/5.0 (Windows NT 10.0; WOW64) AppleWebKit/537.36 (KHTML, like Gecko) Chrome/94.0.4606.71 Safari/537.36 Core/1.94.178.400 QQBrowser/11.2.5170.400","WebKit","Chrome","94.0.4606.71","Windows","10.0","22210","","{""Gender"":""男"",""Education"":""本科毕业"",""Income"":""￥140,000-￥269,999"",""Children"":""0"",""Race"":""亚洲人""}","[0,1,2,3,4]"
"","","","","","survey-multi-select","136","692907","0.0-9.0","143","1","2022-10-10 00:03:51","ebf9627b049f568eb4bf28942cb89901","101.93.235.241","Mozilla/5.0 (Windows NT 10.0; WOW64) AppleWebKit/537.36 (KHTML, like Gecko) Chrome/94.0.4606.71 Safari/537.36 Core/1.94.178.400 QQBrowser/11.2.5170.400","WebKit","Chrome","94.0.4606.71","Windows","10.0","12413","","{""Marriage"":[""未婚""],""Religion"":[""无宗教信仰""]}","[0,1]"
"","","","","","survey-multi-choice","137","701043","0.0-10.0","143","1","2022-10-10 00:03:51","ebf9627b049f568eb4bf28942cb89901","101.93.235.241","Mozilla/5.0 (Windows NT 10.0; WOW64) AppleWebKit/537.36 (KHTML, like Gecko) Chrome/94.0.4606.71 Safari/537.36 Core/1.94.178.400 QQBrowser/11.2.5170.400","WebKit","Chrome","94.0.4606.71","Windows","10.0","8127","","{""SES"":""5""}","[0]"
"","","","","","html-button-response","138","702995","0.0-11.0","143","1","2022-10-10 00:03:51","ebf9627b049f568eb4bf28942cb89901","101.93.235.241","Mozilla/5.0 (Windows NT 10.0; WOW64) AppleWebKit/537.36 (KHTML, like Gecko) Chrome/94.0.4606.71 Safari/537.36 Core/1.94.178.400 QQBrowser/11.2.5170.400","WebKit","Chrome","94.0.4606.71","Windows","10.0","1945","<p><strong>请判断下列陈述在多大程度上可以形容你？</p><p> (1 = ""和我一点都不像"" to 5 = ""非常像我"".)</strong></p>","0",""
"","","","","","survey-likert","139","727404","0.0-12.0","143","1","2022-10-10 00:03:51","ebf9627b049f568eb4bf28942cb89901","101.93.235.241","Mozilla/5.0 (Windows NT 10.0; WOW64) AppleWebKit/537.36 (KHTML, like Gecko) Chrome/94.0.4606.71 Safari/537.36 Core/1.94.178.400 QQBrowser/11.2.5170.400","WebKit","Chrome","94.0.4606.71","Windows","10.0","24400","","{""Aggression1"":1,""Aggression2"":3,""Aggression3"":3,""Aggression4"":1,""Aggression5"":3,""Aggression6"":4,""Aggression7"":1,""Aggression8"":0,""Aggression9"":1}","[0,1,2,3,4,5,6,7,8]"
"","","","","","html-button-response","140","728730","0.0-13.0","143","1","2022-10-10 00:03:51","ebf9627b049f568eb4bf28942cb89901","101.93.235.241","Mozilla/5.0 (Windows NT 10.0; WOW64) AppleWebKit/537.36 (KHTML, like Gecko) Chrome/94.0.4606.71 Safari/537.36 Core/1.94.178.400 QQBrowser/11.2.5170.400","WebKit","Chrome","94.0.4606.71","Windows","10.0","1318","<p><strong>请判断你在多大程度上同意下列陈述。</strong></p>","0",""
"","","","","","survey-likert","141","797421","0.0-14.0","143","1","2022-10-10 00:03:51","ebf9627b049f568eb4bf28942cb89901","101.93.235.241","Mozilla/5.0 (Windows NT 10.0; WOW64) AppleWebKit/537.36 (KHTML, like Gecko) Chrome/94.0.4606.71 Safari/537.36 Core/1.94.178.400 QQBrowser/11.2.5170.400","WebKit","Chrome","94.0.4606.71","Windows","10.0","68684","","{""scale26"":3,""scale13"":1,""scale24"":1,""scale19"":3,""scale18"":1,""scale21"":4,""scale12"":0,""scale14"":1,""scale7"":1,""scale25"":3,""scale17"":1,""scale3"":0,""scale15"":1,""scale28"":3,""scale2"":2,""scale16"":3,""scale22"":2,""scale6"":1,""scale11"":4,""scale10"":1,""scale4"":0,""scale5"":3,""scale23"":3,""scale1"":2,""scale20"":4,""scale8"":3,""scale9"":4,""scale27"":1}","[25,12,23,18,17,20,11,13,6,24,16,2,14,27,1,15,21,5,10,9,3,4,22,0,19,7,8,26]"
"","","","","","html-button-response","142","798954","0.0-15.0","143","1","2022-10-10 00:03:51","ebf9627b049f568eb4bf28942cb89901","101.93.235.241","Mozilla/5.0 (Windows NT 10.0; WOW64) AppleWebKit/537.36 (KHTML, like Gecko) Chrome/94.0.4606.71 Safari/537.36 Core/1.94.178.400 QQBrowser/11.2.5170.400","WebKit","Chrome","94.0.4606.71","Windows","10.0","1525","<p><strong>请判断你在多大程度上同意下列陈述。</strong></p>","0",""
"","","","","","survey-likert","143","837701","0.0-16.0","143","1","2022-10-10 00:03:51","ebf9627b049f568eb4bf28942cb89901","101.93.235.241","Mozilla/5.0 (Windows NT 10.0; WOW64) AppleWebKit/537.36 (KHTML, like Gecko) Chrome/94.0.4606.71 Safari/537.36 Core/1.94.178.400 QQBrowser/11.2.5170.400","WebKit","Chrome","94.0.4606.71","Windows","10.0","38741","","{""sdo11"":5,""sdo13"":4,""sdo10"":6,""sdo6"":1,""sdo5"":1,""sdo15"":4,""sdo8"":0,""sdo14"":5,""sdo12"":4,""sdo1"":0,""sdo7"":0,""sdo4"":1,""sdo9"":4,""sdo2"":2,""sdo3"":1,""sdo16"":5}","[10,12,9,5,4,14,7,13,11,0,6,3,8,1,2,15]"
"","","","","","html-button-response","144","1097698","0.0-17.0","143","1","2022-10-10 00:03:51","ebf9627b049f568eb4bf28942cb89901","101.93.235.241","Mozilla/5.0 (Windows NT 10.0; WOW64) AppleWebKit/537.36 (KHTML, like Gecko) Chrome/94.0.4606.71 Safari/537.36 Core/1.94.178.400 QQBrowser/11.2.5170.400","WebKit","Chrome","94.0.4606.71","Windows","10.0","259988","<p><strong>请判断你在多大程度上同意下列陈述。</strong></p>","0",""
"","","","","","survey-likert","145","1125716","0.0-18.0","143","1","2022-10-10 00:03:51","ebf9627b049f568eb4bf28942cb89901","101.93.235.241","Mozilla/5.0 (Windows NT 10.0; WOW64) AppleWebKit/537.36 (KHTML, like Gecko) Chrome/94.0.4606.71 Safari/537.36 Core/1.94.178.400 QQBrowser/11.2.5170.400","WebKit","Chrome","94.0.4606.71","Windows","10.0","28012","","{""caring1"":3,""liking1"":0,""caring2"":3,""protection1"":4,""liking2"":1,""caring3"":3,""protection2"":3,""liking3"":1,""protection3"":4,""caring4"":3,""liking4"":0,""protection4"":3,""caring5"":2,""liking5"":1,""protection5"":3}","[0,1,2,3,4,5,6,7,8,9,10,11,12,13,14]"
"","","","","","html-button-response","146","1126682","0.0-19.0","143","1","2022-10-10 00:03:51","ebf9627b049f568eb4bf28942cb89901","101.93.235.241","Mozilla/5.0 (Windows NT 10.0; WOW64) AppleWebKit/537.36 (KHTML, like Gecko) Chrome/94.0.4606.71 Safari/537.36 Core/1.94.178.400 QQBrowser/11.2.5170.400","WebKit","Chrome","94.0.4606.71","Windows","10.0","958","<p><strong>请判断下列场景中你的内心感受有多柔软。</strong></p>","0",""
"","","","","","survey-likert","147","1154635","0.0-20.0","143","1","2022-10-10 00:03:51","ebf9627b049f568eb4bf28942cb89901","101.93.235.241","Mozilla/5.0 (Windows NT 10.0; WOW64) AppleWebKit/537.36 (KHTML, like Gecko) Chrome/94.0.4606.71 Safari/537.36 Core/1.94.178.400 QQBrowser/11.2.5170.400","WebKit","Chrome","94.0.4606.71","Windows","10.0","27948","","{""tenderness-positive1"":4,""tenderness-negative1"":3,""tenderness-negative2"":1,""tenderness-positive2"":3,""tenderness-positive3"":3,""tenderness-negative3"":2,""tenderness-positive4"":4,""tendereness-negative4"":3,""tendernness-negative5"":3,""tenderness-positive5"":4}","[0,1,2,3,4,5,6,7,8,9]"
"","","","","","survey-multi-choice","148","1187826","0.0-21.0","143","1","2022-10-10 00:03:51","ebf9627b049f568eb4bf28942cb89901","101.93.235.241","Mozilla/5.0 (Windows NT 10.0; WOW64) AppleWebKit/537.36 (KHTML, like Gecko) Chrome/94.0.4606.71 Safari/537.36 Core/1.94.178.400 QQBrowser/11.2.5170.400","WebKit","Chrome","94.0.4606.71","Windows","10.0","33184","","{""Attention2"":""其他""}","[0]"
"","","","","","html-button-response","149","1189057","0.0-22.0","143","1","2022-10-10 00:03:51","ebf9627b049f568eb4bf28942cb89901","101.93.235.241","Mozilla/5.0 (Windows NT 10.0; WOW64) AppleWebKit/537.36 (KHTML, like Gecko) Chrome/94.0.4606.71 Safari/537.36 Core/1.94.178.400 QQBrowser/11.2.5170.400","WebKit","Chrome","94.0.4606.71","Windows","10.0","1225","<p><strong>请判断你在多大程度上同意下列陈述。</strong></p>","0",""
"","","","","","survey-likert","150","1273741","0.0-23.0","143","1","2022-10-10 00:03:51","ebf9627b049f568eb4bf28942cb89901","101.93.235.241","Mozilla/5.0 (Windows NT 10.0; WOW64) AppleWebKit/537.36 (KHTML, like Gecko) Chrome/94.0.4606.71 Safari/537.36 Core/1.94.178.400 QQBrowser/11.2.5170.400","WebKit","Chrome","94.0.4606.71","Windows","10.0","84676","","{""Patri5"":4,""Patri9"":1,""Patri10"":0,""Nation3"":2,""Patri8"":3,""Nation7"":3,""Patri1"":4,""Nation4"":2,""Nation8"":0,""Patri12"":1,""Patri7"":3,""Patri11"":1,""Patri3"":3,""Patri2"":4,""Patri4"":3,""Nation1"":1,""Nation5"":2,""Nation6"":3,""Patri6"":0,""Nation2"":4}","[4,8,9,14,7,18,0,15,19,11,6,10,2,1,3,12,16,17,5,13]"
"","","","","","html-button-response","151","1274730","0.0-24.0","143","1","2022-10-10 00:03:51","ebf9627b049f568eb4bf28942cb89901","101.93.235.241","Mozilla/5.0 (Windows NT 10.0; WOW64) AppleWebKit/537.36 (KHTML, like Gecko) Chrome/94.0.4606.71 Safari/537.36 Core/1.94.178.400 QQBrowser/11.2.5170.400","WebKit","Chrome","94.0.4606.71","Windows","10.0","982","<p><strong>请判断你在多大程度上同意下列陈述。</strong></p>","0",""
"","","","","","survey-likert","152","1346495","0.0-25.0","143","1","2022-10-10 00:03:51","ebf9627b049f568eb4bf28942cb89901","101.93.235.241","Mozilla/5.0 (Windows NT 10.0; WOW64) AppleWebKit/537.36 (KHTML, like Gecko) Chrome/94.0.4606.71 Safari/537.36 Core/1.94.178.400 QQBrowser/11.2.5170.400","WebKit","Chrome","94.0.4606.71","Windows","10.0","71757","","{""vi3"":6,""hi3"":3,""hi1"":2,""vi2"":3,""vc3"":5,""hc4"":7,""vc4"":6,""vc1"":7,""vc2"":5,""hi4"":4,""hc1"":7,""vi1"":5,""vi4"":4,""hi2"":2,""hc3"":8,""Robot"":6,""hc2"":6}","[6,2,0,5,15,12,16,13,14,3,9,4,8,1,11,7,10]"
"","","","","","survey-text","153","1365548","0.0-26.0","143","1","2022-10-10 00:03:51","ebf9627b049f568eb4bf28942cb89901","101.93.235.241","Mozilla/5.0 (Windows NT 10.0; WOW64) AppleWebKit/537.36 (KHTML, like Gecko) Chrome/94.0.4606.71 Safari/537.36 Core/1.94.178.400 QQBrowser/11.2.5170.400","WebKit","Chrome","94.0.4606.71","Windows","10.0","19035","","{""Comments"":""希望能够对研究有所帮助吧""}",""
"","","","","","html-button-response","154","1366570","0.0-27.0","143","1","2022-10-10 00:03:51","ebf9627b049f568eb4bf28942cb89901","101.93.235.241","Mozilla/5.0 (Windows NT 10.0; WOW64) AppleWebKit/537.36 (KHTML, like Gecko) Chrome/94.0.4606.71 Safari/537.36 Core/1.94.178.400 QQBrowser/11.2.5170.400","WebKit","Chrome","94.0.4606.71","Windows","10.0","1015","<strong><p>恭喜你完成了实验！</p><p>感谢您的参与。</p></strong>","0",""
