"success","timeout","failed_images","failed_audio","failed_video","trial_type","trial_index","time_elapsed","internal_node_id","run_id","condition","recorded_at","source_code_version","ip","user_agent","device","browser","browser_version","platform","platform_version","rt","stimulus","response","question_order"
"true","false","[]","[]","[]","preload","0","3026","0.0-0.0","15","1","2022-10-07 06:27:33","ebf9627b049f568eb4bf28942cb89901","106.41.17.95","Mozilla/5.0 (Windows NT 10.0; WOW64) AppleWebKit/537.36 (KHTML, like Gecko) Chrome/103.0.0.0 Safari/537.36","WebKit","Chrome","103.0.0.0","Windows","10.0","","","",""
"true","","","","","fullscreen","1","6032","0.0-1.0","15","1","2022-10-07 06:27:33","ebf9627b049f568eb4bf28942cb89901","106.41.17.95","Mozilla/5.0 (Windows NT 10.0; WOW64) AppleWebKit/537.36 (KHTML, like Gecko) Chrome/103.0.0.0 Safari/537.36","WebKit","Chrome","103.0.0.0","Windows","10.0","","","",""
"","","","","","html-button-response","2","21247","0.0-2.0","15","1","2022-10-07 06:27:33","ebf9627b049f568eb4bf28942cb89901","106.41.17.95","Mozilla/5.0 (Windows NT 10.0; WOW64) AppleWebKit/537.36 (KHTML, like Gecko) Chrome/103.0.0.0 Safari/537.36","WebKit","Chrome","103.0.0.0","Windows","10.0","15212","<p style=""font-size:20px;font-weight:bold;"">实验知情同意书</p><p style=""text-align:left;""><strong>实验名称：</strong>社会冲突研究</p><p style=""text-align:left;""><strong>主要研究者：</strong>韩晓春副教授（北京师范大学心理学部）</p><p style=""text-align:left;""><strong>联系方式：</strong>发送邮件至xiaochun.han@bnu.edu.cn</p><p style=""text-align:left;""><strong>研究目的：</strong>研究旨在了解人类面对群体冲突时的决策方式，以及相关的心理学特质。实验调查大约需要20分钟。</p><p style=""text-align:left;""><strong>实验流程：</strong>实验包含两部分。第一部分呈现一系列群体冲突场景，请你决定如何对这些冲突进行反应，大约需要10分钟完成。第二部分包含一系列人口统计学信息收集和心理学问卷，大约需要10分钟完成。</p><p style=""text-align:left;""><strong>参加及退出规则：</strong>参加本实验完全取决于您的个人意愿。在参与过程中，您可以随时退出，并且不用承担任何后果。</p><p style=""text-align:left;""><strong>隐私：</strong>本实验完全匿名进行，不会收集您的姓名或其他能够识别您身份的信息。实验中收集的作答仅用作科学研究使用，可能会在学术期刊/书籍上发表，或者用于教学，您的数据未来可能会和其他研究者或实验室分享，但您的个人身份不会被识别。</p><p style=""text-align:left;""><strong>实验报酬：</strong>实验完成后，您将获得15元人民币报酬，以感谢您的时间和努力。调查问卷中包含几道题目用以测验您作答时的认真度。只有完成全部实验，并且正确回答认真度测验的被试才能获得实验报酬。实验报酬将通过支付宝转账发放。</p><p style=""text-align:left;font-size:20px;""><strong>如果您同意以上实验知情同意书的内容，请点击'同意并且开始实验'按钮；否则请关闭浏览器界面，退出实验。</strong></p>","0",""
"","","","","","html-button-response","3","40888","0.0-3.0","15","1","2022-10-07 06:27:33","ebf9627b049f568eb4bf28942cb89901","106.41.17.95","Mozilla/5.0 (Windows NT 10.0; WOW64) AppleWebKit/537.36 (KHTML, like Gecko) Chrome/103.0.0.0 Safari/537.36","WebKit","Chrome","103.0.0.0","Windows","10.0","19639","<p ><strong>实验任务一：</strong></p><p>请想象你的国家与另一个国家发生了军事冲突。</p><p>你是国家军队的指挥官，你将如何在冲突中进行决策。</p><p>具体来说，作为军队指挥官，请你决定是否发射导弹进行打击。</p><p>接下来，你会面对一系列场景，请仔细阅读每个场景，然后进行决策。</p><p>这部分实验任务大约需要10分钟。</p><p><strong>实验过程中，请集中注意力。</strong></p>","0",""
"","","","","","html-keyboard-response","4","41904","0.0-4.0-0.0","15","1","2022-10-07 06:27:33","ebf9627b049f568eb4bf28942cb89901","106.41.17.95","Mozilla/5.0 (Windows NT 10.0; WOW64) AppleWebKit/537.36 (KHTML, like Gecko) Chrome/103.0.0.0 Safari/537.36","WebKit","Chrome","103.0.0.0","Windows","10.0","null","<div style=""font-size:60px;"">+</div>","null",""
"","","","","","html-button-response","5","53743","0.0-4.0-1.0","15","1","2022-10-07 06:27:33","ebf9627b049f568eb4bf28942cb89901","106.41.17.95","Mozilla/5.0 (Windows NT 10.0; WOW64) AppleWebKit/537.36 (KHTML, like Gecko) Chrome/103.0.0.0 Safari/537.36","WebKit","Chrome","103.0.0.0","Windows","10.0","11835","<p>作为军队的指挥官，你可以选择发射导弹杀死 <strong>6名</strong> 敌国士兵，但会炸毁附近的 <strong>1棵</strong> 敌国树木。</p> <p>树木的照片如下图所示。</p> <p></p> <img src='stimuli/trees/15.png', style='max-width: 30%;'> </img> <p><strong>你是否选择发射武器？</strong></p>","0",""
"","","","","","html-keyboard-response","6","54746","0.0-4.0-0.1","15","1","2022-10-07 06:27:33","ebf9627b049f568eb4bf28942cb89901","106.41.17.95","Mozilla/5.0 (Windows NT 10.0; WOW64) AppleWebKit/537.36 (KHTML, like Gecko) Chrome/103.0.0.0 Safari/537.36","WebKit","Chrome","103.0.0.0","Windows","10.0","null","<div style=""font-size:60px;"">+</div>","null",""
"","","","","","html-button-response","7","60495","0.0-4.0-1.1","15","1","2022-10-07 06:27:33","ebf9627b049f568eb4bf28942cb89901","106.41.17.95","Mozilla/5.0 (Windows NT 10.0; WOW64) AppleWebKit/537.36 (KHTML, like Gecko) Chrome/103.0.0.0 Safari/537.36","WebKit","Chrome","103.0.0.0","Windows","10.0","5746","<p>作为军队的指挥官，你可以选择发射导弹杀死 <strong>3名</strong> 敌国士兵，但会炸毁附近的 <strong>1棵</strong> 敌国树木。</p> <p>树木的照片如下图所示。</p> <p></p> <img src='stimuli/trees/6.png', style='max-width: 30%;'> </img> <p><strong>你是否选择发射武器？</strong></p>","0",""
"","","","","","html-keyboard-response","8","61497","0.0-4.0-0.2","15","1","2022-10-07 06:27:33","ebf9627b049f568eb4bf28942cb89901","106.41.17.95","Mozilla/5.0 (Windows NT 10.0; WOW64) AppleWebKit/537.36 (KHTML, like Gecko) Chrome/103.0.0.0 Safari/537.36","WebKit","Chrome","103.0.0.0","Windows","10.0","null","<div style=""font-size:60px;"">+</div>","null",""
"","","","","","html-button-response","9","68015","0.0-4.0-1.2","15","1","2022-10-07 06:27:33","ebf9627b049f568eb4bf28942cb89901","106.41.17.95","Mozilla/5.0 (Windows NT 10.0; WOW64) AppleWebKit/537.36 (KHTML, like Gecko) Chrome/103.0.0.0 Safari/537.36","WebKit","Chrome","103.0.0.0","Windows","10.0","6517","<p>作为军队的指挥官，你可以选择发射导弹杀死 <strong>5名</strong> 敌国士兵，但会误杀附近的 <strong>1名</strong> 敌国平民。</p> <p>平民照片如下图所示。</p> <p></p> <img src='stimuli/faces/NFF5.jpg', style='max-width: 30%;'> </img> <p><strong>你是否选择发射武器？</strong></p>","0",""
"","","","","","html-keyboard-response","10","69025","0.0-4.0-0.3","15","1","2022-10-07 06:27:33","ebf9627b049f568eb4bf28942cb89901","106.41.17.95","Mozilla/5.0 (Windows NT 10.0; WOW64) AppleWebKit/537.36 (KHTML, like Gecko) Chrome/103.0.0.0 Safari/537.36","WebKit","Chrome","103.0.0.0","Windows","10.0","null","<div style=""font-size:60px;"">+</div>","null",""
"","","","","","html-button-response","11","73016","0.0-4.0-1.3","15","1","2022-10-07 06:27:33","ebf9627b049f568eb4bf28942cb89901","106.41.17.95","Mozilla/5.0 (Windows NT 10.0; WOW64) AppleWebKit/537.36 (KHTML, like Gecko) Chrome/103.0.0.0 Safari/537.36","WebKit","Chrome","103.0.0.0","Windows","10.0","3987","<p>作为军队的指挥官，你可以选择发射导弹杀死 <strong>3名</strong> 敌国士兵，但会误杀附近的 <strong>1名</strong> 敌国平民。</p> <p>平民照片如下图所示。</p> <p></p> <img src='stimuli/faces/NFF6.jpg', style='max-width: 30%;'> </img> <p><strong>你是否选择发射武器？</strong></p>","1",""
"","","","","","html-keyboard-response","12","74031","0.0-4.0-0.4","15","1","2022-10-07 06:27:33","ebf9627b049f568eb4bf28942cb89901","106.41.17.95","Mozilla/5.0 (Windows NT 10.0; WOW64) AppleWebKit/537.36 (KHTML, like Gecko) Chrome/103.0.0.0 Safari/537.36","WebKit","Chrome","103.0.0.0","Windows","10.0","null","<div style=""font-size:60px;"">+</div>","null",""
"","","","","","html-button-response","13","100639","0.0-4.0-1.4","15","1","2022-10-07 06:27:33","ebf9627b049f568eb4bf28942cb89901","106.41.17.95","Mozilla/5.0 (Windows NT 10.0; WOW64) AppleWebKit/537.36 (KHTML, like Gecko) Chrome/103.0.0.0 Safari/537.36","WebKit","Chrome","103.0.0.0","Windows","10.0","26605","<p>作为军队的指挥官，你可以选择发射导弹杀死 <strong>1名</strong> 敌国士兵，但会炸毁附近的 <strong>1棵</strong> 敌国树木。</p> <p>树木的照片如下图所示。</p> <p></p> <img src='stimuli/trees/5.png', style='max-width: 30%;'> </img> <p><strong>你是否选择发射武器？</strong></p>","0",""
"","","","","","html-keyboard-response","14","101641","0.0-4.0-0.5","15","1","2022-10-07 06:27:33","ebf9627b049f568eb4bf28942cb89901","106.41.17.95","Mozilla/5.0 (Windows NT 10.0; WOW64) AppleWebKit/537.36 (KHTML, like Gecko) Chrome/103.0.0.0 Safari/537.36","WebKit","Chrome","103.0.0.0","Windows","10.0","null","<div style=""font-size:60px;"">+</div>","null",""
"","","","","","html-button-response","15","104905","0.0-4.0-1.5","15","1","2022-10-07 06:27:33","ebf9627b049f568eb4bf28942cb89901","106.41.17.95","Mozilla/5.0 (Windows NT 10.0; WOW64) AppleWebKit/537.36 (KHTML, like Gecko) Chrome/103.0.0.0 Safari/537.36","WebKit","Chrome","103.0.0.0","Windows","10.0","3260","<p>作为军队的指挥官，你可以选择发射导弹杀死 <strong>9名</strong> 敌国士兵，但会炸毁附近的 <strong>1棵</strong> 敌国树木。</p> <p>树木的照片如下图所示。</p> <p></p> <img src='stimuli/trees/9.png', style='max-width: 30%;'> </img> <p><strong>你是否选择发射武器？</strong></p>","0",""
"","","","","","html-keyboard-response","16","105906","0.0-4.0-0.6","15","1","2022-10-07 06:27:33","ebf9627b049f568eb4bf28942cb89901","106.41.17.95","Mozilla/5.0 (Windows NT 10.0; WOW64) AppleWebKit/537.36 (KHTML, like Gecko) Chrome/103.0.0.0 Safari/537.36","WebKit","Chrome","103.0.0.0","Windows","10.0","null","<div style=""font-size:60px;"">+</div>","null",""
"","","","","","html-button-response","17","111031","0.0-4.0-1.6","15","1","2022-10-07 06:27:33","ebf9627b049f568eb4bf28942cb89901","106.41.17.95","Mozilla/5.0 (Windows NT 10.0; WOW64) AppleWebKit/537.36 (KHTML, like Gecko) Chrome/103.0.0.0 Safari/537.36","WebKit","Chrome","103.0.0.0","Windows","10.0","5122","<p>作为军队的指挥官，你可以选择发射导弹杀死 <strong>8名</strong> 敌国士兵，但会误杀附近的 <strong>1名</strong> 敌国平民。</p> <p>平民照片如下图所示。</p> <p></p> <img src='stimuli/faces/NFF8.jpg', style='max-width: 30%;'> </img> <p><strong>你是否选择发射武器？</strong></p>","0",""
"","","","","","html-keyboard-response","18","112037","0.0-4.0-0.7","15","1","2022-10-07 06:27:33","ebf9627b049f568eb4bf28942cb89901","106.41.17.95","Mozilla/5.0 (Windows NT 10.0; WOW64) AppleWebKit/537.36 (KHTML, like Gecko) Chrome/103.0.0.0 Safari/537.36","WebKit","Chrome","103.0.0.0","Windows","10.0","null","<div style=""font-size:60px;"">+</div>","null",""
"","","","","","html-button-response","19","118655","0.0-4.0-1.7","15","1","2022-10-07 06:27:33","ebf9627b049f568eb4bf28942cb89901","106.41.17.95","Mozilla/5.0 (Windows NT 10.0; WOW64) AppleWebKit/537.36 (KHTML, like Gecko) Chrome/103.0.0.0 Safari/537.36","WebKit","Chrome","103.0.0.0","Windows","10.0","6614","<p>作为军队的指挥官，你可以选择发射导弹杀死 <strong>9名</strong> 敌国士兵，但会误杀附近的 <strong>1名</strong> 敌国平民。</p> <p>平民照片如下图所示。</p> <p></p> <img src='stimuli/faces/NFF7.jpg', style='max-width: 30%;'> </img> <p><strong>你是否选择发射武器？</strong></p>","0",""
"","","","","","html-keyboard-response","20","119663","0.0-4.0-0.8","15","1","2022-10-07 06:27:33","ebf9627b049f568eb4bf28942cb89901","106.41.17.95","Mozilla/5.0 (Windows NT 10.0; WOW64) AppleWebKit/537.36 (KHTML, like Gecko) Chrome/103.0.0.0 Safari/537.36","WebKit","Chrome","103.0.0.0","Windows","10.0","null","<div style=""font-size:60px;"">+</div>","null",""
"","","","","","html-button-response","21","122415","0.0-4.0-1.8","15","1","2022-10-07 06:27:33","ebf9627b049f568eb4bf28942cb89901","106.41.17.95","Mozilla/5.0 (Windows NT 10.0; WOW64) AppleWebKit/537.36 (KHTML, like Gecko) Chrome/103.0.0.0 Safari/537.36","WebKit","Chrome","103.0.0.0","Windows","10.0","2748","<p>作为军队的指挥官，你可以选择发射导弹杀死 <strong>1名</strong> 敌国士兵，但会炸毁附近的 <strong>1棵</strong> 敌国树木。</p> <p>树木的照片如下图所示。</p> <p></p> <img src='stimuli/trees/10.png', style='max-width: 30%;'> </img> <p><strong>你是否选择发射武器？</strong></p>","0",""
"","","","","","html-keyboard-response","22","123431","0.0-4.0-0.9","15","1","2022-10-07 06:27:33","ebf9627b049f568eb4bf28942cb89901","106.41.17.95","Mozilla/5.0 (Windows NT 10.0; WOW64) AppleWebKit/537.36 (KHTML, like Gecko) Chrome/103.0.0.0 Safari/537.36","WebKit","Chrome","103.0.0.0","Windows","10.0","null","<div style=""font-size:60px;"">+</div>","null",""
"","","","","","html-button-response","23","134887","0.0-4.0-1.9","15","1","2022-10-07 06:27:33","ebf9627b049f568eb4bf28942cb89901","106.41.17.95","Mozilla/5.0 (Windows NT 10.0; WOW64) AppleWebKit/537.36 (KHTML, like Gecko) Chrome/103.0.0.0 Safari/537.36","WebKit","Chrome","103.0.0.0","Windows","10.0","11452","<p>作为军队的指挥官，你可以选择发射导弹杀死 <strong>6名</strong> 敌国士兵，但会误杀附近的 <strong>1名</strong> 敌国平民。</p> <p>平民照片如下图所示。</p> <p></p> <img src='stimuli/faces/NFM8.jpg', style='max-width: 30%;'> </img> <p><strong>你是否选择发射武器？</strong></p>","0",""
"","","","","","html-keyboard-response","24","135896","0.0-4.0-0.10","15","1","2022-10-07 06:27:33","ebf9627b049f568eb4bf28942cb89901","106.41.17.95","Mozilla/5.0 (Windows NT 10.0; WOW64) AppleWebKit/537.36 (KHTML, like Gecko) Chrome/103.0.0.0 Safari/537.36","WebKit","Chrome","103.0.0.0","Windows","10.0","null","<div style=""font-size:60px;"">+</div>","null",""
"","","","","","html-button-response","25","138591","0.0-4.0-1.10","15","1","2022-10-07 06:27:33","ebf9627b049f568eb4bf28942cb89901","106.41.17.95","Mozilla/5.0 (Windows NT 10.0; WOW64) AppleWebKit/537.36 (KHTML, like Gecko) Chrome/103.0.0.0 Safari/537.36","WebKit","Chrome","103.0.0.0","Windows","10.0","2691","<p>作为军队的指挥官，你可以选择发射导弹杀死 <strong>7名</strong> 敌国士兵，但会误杀附近的 <strong>1名</strong> 敌国平民。</p> <p>平民照片如下图所示。</p> <p></p> <img src='stimuli/faces/NFM3.jpg', style='max-width: 30%;'> </img> <p><strong>你是否选择发射武器？</strong></p>","0",""
"","","","","","html-keyboard-response","26","139602","0.0-4.0-0.11","15","1","2022-10-07 06:27:33","ebf9627b049f568eb4bf28942cb89901","106.41.17.95","Mozilla/5.0 (Windows NT 10.0; WOW64) AppleWebKit/537.36 (KHTML, like Gecko) Chrome/103.0.0.0 Safari/537.36","WebKit","Chrome","103.0.0.0","Windows","10.0","null","<div style=""font-size:60px;"">+</div>","null",""
"","","","","","html-button-response","27","143623","0.0-4.0-1.11","15","1","2022-10-07 06:27:33","ebf9627b049f568eb4bf28942cb89901","106.41.17.95","Mozilla/5.0 (Windows NT 10.0; WOW64) AppleWebKit/537.36 (KHTML, like Gecko) Chrome/103.0.0.0 Safari/537.36","WebKit","Chrome","103.0.0.0","Windows","10.0","4018","<p>作为军队的指挥官，你可以选择发射导弹杀死 <strong>6名</strong> 敌国士兵，但会炸毁附近的 <strong>1棵</strong> 敌国树木。</p> <p>树木的照片如下图所示。</p> <p></p> <img src='stimuli/trees/6.png', style='max-width: 30%;'> </img> <p><strong>你是否选择发射武器？</strong></p>","0",""
"","","","","","html-keyboard-response","28","144630","0.0-4.0-0.12","15","1","2022-10-07 06:27:33","ebf9627b049f568eb4bf28942cb89901","106.41.17.95","Mozilla/5.0 (Windows NT 10.0; WOW64) AppleWebKit/537.36 (KHTML, like Gecko) Chrome/103.0.0.0 Safari/537.36","WebKit","Chrome","103.0.0.0","Windows","10.0","null","<div style=""font-size:60px;"">+</div>","null",""
"","","","","","html-button-response","29","146959","0.0-4.0-1.12","15","1","2022-10-07 06:27:33","ebf9627b049f568eb4bf28942cb89901","106.41.17.95","Mozilla/5.0 (Windows NT 10.0; WOW64) AppleWebKit/537.36 (KHTML, like Gecko) Chrome/103.0.0.0 Safari/537.36","WebKit","Chrome","103.0.0.0","Windows","10.0","2325","<p>作为军队的指挥官，你可以选择发射导弹杀死 <strong>10名</strong> 敌国士兵，但会误杀附近的 <strong>1名</strong> 敌国平民。</p> <p>平民照片如下图所示。</p> <p></p> <img src='stimuli/faces/NFM2.jpg', style='max-width: 30%;'> </img> <p><strong>你是否选择发射武器？</strong></p>","0",""
"","","","","","html-keyboard-response","30","147964","0.0-4.0-0.13","15","1","2022-10-07 06:27:33","ebf9627b049f568eb4bf28942cb89901","106.41.17.95","Mozilla/5.0 (Windows NT 10.0; WOW64) AppleWebKit/537.36 (KHTML, like Gecko) Chrome/103.0.0.0 Safari/537.36","WebKit","Chrome","103.0.0.0","Windows","10.0","null","<div style=""font-size:60px;"">+</div>","null",""
"","","","","","html-button-response","31","151934","0.0-4.0-1.13","15","1","2022-10-07 06:27:33","ebf9627b049f568eb4bf28942cb89901","106.41.17.95","Mozilla/5.0 (Windows NT 10.0; WOW64) AppleWebKit/537.36 (KHTML, like Gecko) Chrome/103.0.0.0 Safari/537.36","WebKit","Chrome","103.0.0.0","Windows","10.0","3967","<p>作为军队的指挥官，你可以选择发射导弹杀死 <strong>1名</strong> 敌国士兵，但会误杀附近的 <strong>1名</strong> 敌国平民。</p> <p>平民照片如下图所示。</p> <p></p> <img src='stimuli/faces/NFM6.jpg', style='max-width: 30%;'> </img> <p><strong>你是否选择发射武器？</strong></p>","1",""
"","","","","","html-keyboard-response","32","152951","0.0-4.0-0.14","15","1","2022-10-07 06:27:33","ebf9627b049f568eb4bf28942cb89901","106.41.17.95","Mozilla/5.0 (Windows NT 10.0; WOW64) AppleWebKit/537.36 (KHTML, like Gecko) Chrome/103.0.0.0 Safari/537.36","WebKit","Chrome","103.0.0.0","Windows","10.0","null","<div style=""font-size:60px;"">+</div>","null",""
"","","","","","html-button-response","33","158079","0.0-4.0-1.14","15","1","2022-10-07 06:27:33","ebf9627b049f568eb4bf28942cb89901","106.41.17.95","Mozilla/5.0 (Windows NT 10.0; WOW64) AppleWebKit/537.36 (KHTML, like Gecko) Chrome/103.0.0.0 Safari/537.36","WebKit","Chrome","103.0.0.0","Windows","10.0","5124","<p>作为军队的指挥官，你可以选择发射导弹杀死 <strong>7名</strong> 敌国士兵，但会炸毁附近的 <strong>1棵</strong> 敌国树木。</p> <p>树木的照片如下图所示。</p> <p></p> <img src='stimuli/trees/10.png', style='max-width: 30%;'> </img> <p><strong>你是否选择发射武器？</strong></p>","0",""
"","","","","","html-keyboard-response","34","159096","0.0-4.0-0.15","15","1","2022-10-07 06:27:33","ebf9627b049f568eb4bf28942cb89901","106.41.17.95","Mozilla/5.0 (Windows NT 10.0; WOW64) AppleWebKit/537.36 (KHTML, like Gecko) Chrome/103.0.0.0 Safari/537.36","WebKit","Chrome","103.0.0.0","Windows","10.0","null","<div style=""font-size:60px;"">+</div>","null",""
"","","","","","html-button-response","35","162959","0.0-4.0-1.15","15","1","2022-10-07 06:27:33","ebf9627b049f568eb4bf28942cb89901","106.41.17.95","Mozilla/5.0 (Windows NT 10.0; WOW64) AppleWebKit/537.36 (KHTML, like Gecko) Chrome/103.0.0.0 Safari/537.36","WebKit","Chrome","103.0.0.0","Windows","10.0","3859","<p>作为军队的指挥官，你可以选择发射导弹杀死 <strong>4名</strong> 敌国士兵，但会误杀附近的 <strong>1名</strong> 敌国平民。</p> <p>平民照片如下图所示。</p> <p></p> <img src='stimuli/faces/NFF2.jpg', style='max-width: 30%;'> </img> <p><strong>你是否选择发射武器？</strong></p>","0",""
"","","","","","html-keyboard-response","36","163974","0.0-4.0-0.16","15","1","2022-10-07 06:27:33","ebf9627b049f568eb4bf28942cb89901","106.41.17.95","Mozilla/5.0 (Windows NT 10.0; WOW64) AppleWebKit/537.36 (KHTML, like Gecko) Chrome/103.0.0.0 Safari/537.36","WebKit","Chrome","103.0.0.0","Windows","10.0","null","<div style=""font-size:60px;"">+</div>","null",""
"","","","","","html-button-response","37","167143","0.0-4.0-1.16","15","1","2022-10-07 06:27:33","ebf9627b049f568eb4bf28942cb89901","106.41.17.95","Mozilla/5.0 (Windows NT 10.0; WOW64) AppleWebKit/537.36 (KHTML, like Gecko) Chrome/103.0.0.0 Safari/537.36","WebKit","Chrome","103.0.0.0","Windows","10.0","3165","<p>作为军队的指挥官，你可以选择发射导弹杀死 <strong>7名</strong> 敌国士兵，但会误杀附近的 <strong>1名</strong> 敌国平民。</p> <p>平民照片如下图所示。</p> <p></p> <img src='stimuli/faces/NFF5.jpg', style='max-width: 30%;'> </img> <p><strong>你是否选择发射武器？</strong></p>","0",""
"","","","","","html-keyboard-response","38","168147","0.0-4.0-0.17","15","1","2022-10-07 06:27:33","ebf9627b049f568eb4bf28942cb89901","106.41.17.95","Mozilla/5.0 (Windows NT 10.0; WOW64) AppleWebKit/537.36 (KHTML, like Gecko) Chrome/103.0.0.0 Safari/537.36","WebKit","Chrome","103.0.0.0","Windows","10.0","null","<div style=""font-size:60px;"">+</div>","null",""
"","","","","","html-button-response","39","172391","0.0-4.0-1.17","15","1","2022-10-07 06:27:33","ebf9627b049f568eb4bf28942cb89901","106.41.17.95","Mozilla/5.0 (Windows NT 10.0; WOW64) AppleWebKit/537.36 (KHTML, like Gecko) Chrome/103.0.0.0 Safari/537.36","WebKit","Chrome","103.0.0.0","Windows","10.0","4240","<p>作为军队的指挥官，你可以选择发射导弹杀死 <strong>9名</strong> 敌国士兵，但会炸毁附近的 <strong>1棵</strong> 敌国树木。</p> <p>树木的照片如下图所示。</p> <p></p> <img src='stimuli/trees/16.png', style='max-width: 30%;'> </img> <p><strong>你是否选择发射武器？</strong></p>","0",""
"","","","","","html-keyboard-response","40","173412","0.0-4.0-0.18","15","1","2022-10-07 06:27:33","ebf9627b049f568eb4bf28942cb89901","106.41.17.95","Mozilla/5.0 (Windows NT 10.0; WOW64) AppleWebKit/537.36 (KHTML, like Gecko) Chrome/103.0.0.0 Safari/537.36","WebKit","Chrome","103.0.0.0","Windows","10.0","null","<div style=""font-size:60px;"">+</div>","null",""
"","","","","","html-button-response","41","182222","0.0-4.0-1.18","15","1","2022-10-07 06:27:33","ebf9627b049f568eb4bf28942cb89901","106.41.17.95","Mozilla/5.0 (Windows NT 10.0; WOW64) AppleWebKit/537.36 (KHTML, like Gecko) Chrome/103.0.0.0 Safari/537.36","WebKit","Chrome","103.0.0.0","Windows","10.0","8806","<p>作为军队的指挥官，你可以选择发射导弹杀死 <strong>2名</strong> 敌国士兵，但会炸毁附近的 <strong>1棵</strong> 敌国树木。</p> <p>树木的照片如下图所示。</p> <p></p> <img src='stimuli/trees/9.png', style='max-width: 30%;'> </img> <p><strong>你是否选择发射武器？</strong></p>","0",""
"","","","","","html-keyboard-response","42","183232","0.0-4.0-0.19","15","1","2022-10-07 06:27:33","ebf9627b049f568eb4bf28942cb89901","106.41.17.95","Mozilla/5.0 (Windows NT 10.0; WOW64) AppleWebKit/537.36 (KHTML, like Gecko) Chrome/103.0.0.0 Safari/537.36","WebKit","Chrome","103.0.0.0","Windows","10.0","null","<div style=""font-size:60px;"">+</div>","null",""
"","","","","","html-button-response","43","185137","0.0-4.0-1.19","15","1","2022-10-07 06:27:33","ebf9627b049f568eb4bf28942cb89901","106.41.17.95","Mozilla/5.0 (Windows NT 10.0; WOW64) AppleWebKit/537.36 (KHTML, like Gecko) Chrome/103.0.0.0 Safari/537.36","WebKit","Chrome","103.0.0.0","Windows","10.0","1901","<p>作为军队的指挥官，你可以选择发射导弹杀死 <strong>3名</strong> 敌国士兵，但会炸毁附近的 <strong>1棵</strong> 敌国树木。</p> <p>树木的照片如下图所示。</p> <p></p> <img src='stimuli/trees/12.png', style='max-width: 30%;'> </img> <p><strong>你是否选择发射武器？</strong></p>","0",""
"","","","","","html-keyboard-response","44","186152","0.0-4.0-0.20","15","1","2022-10-07 06:27:33","ebf9627b049f568eb4bf28942cb89901","106.41.17.95","Mozilla/5.0 (Windows NT 10.0; WOW64) AppleWebKit/537.36 (KHTML, like Gecko) Chrome/103.0.0.0 Safari/537.36","WebKit","Chrome","103.0.0.0","Windows","10.0","null","<div style=""font-size:60px;"">+</div>","null",""
"","","","","","html-button-response","45","189415","0.0-4.0-1.20","15","1","2022-10-07 06:27:33","ebf9627b049f568eb4bf28942cb89901","106.41.17.95","Mozilla/5.0 (Windows NT 10.0; WOW64) AppleWebKit/537.36 (KHTML, like Gecko) Chrome/103.0.0.0 Safari/537.36","WebKit","Chrome","103.0.0.0","Windows","10.0","3260","<p>作为军队的指挥官，你可以选择发射导弹杀死 <strong>7名</strong> 敌国士兵，但会误杀附近的 <strong>1名</strong> 敌国平民。</p> <p>平民照片如下图所示。</p> <p></p> <img src='stimuli/faces/NFM7.jpg', style='max-width: 30%;'> </img> <p><strong>你是否选择发射武器？</strong></p>","0",""
"","","","","","html-keyboard-response","46","190430","0.0-4.0-0.21","15","1","2022-10-07 06:27:33","ebf9627b049f568eb4bf28942cb89901","106.41.17.95","Mozilla/5.0 (Windows NT 10.0; WOW64) AppleWebKit/537.36 (KHTML, like Gecko) Chrome/103.0.0.0 Safari/537.36","WebKit","Chrome","103.0.0.0","Windows","10.0","null","<div style=""font-size:60px;"">+</div>","null",""
"","","","","","html-button-response","47","193698","0.0-4.0-1.21","15","1","2022-10-07 06:27:33","ebf9627b049f568eb4bf28942cb89901","106.41.17.95","Mozilla/5.0 (Windows NT 10.0; WOW64) AppleWebKit/537.36 (KHTML, like Gecko) Chrome/103.0.0.0 Safari/537.36","WebKit","Chrome","103.0.0.0","Windows","10.0","3264","<p>作为军队的指挥官，你可以选择发射导弹杀死 <strong>6名</strong> 敌国士兵，但会炸毁附近的 <strong>1棵</strong> 敌国树木。</p> <p>树木的照片如下图所示。</p> <p></p> <img src='stimuli/trees/2.png', style='max-width: 30%;'> </img> <p><strong>你是否选择发射武器？</strong></p>","0",""
"","","","","","html-keyboard-response","48","194719","0.0-4.0-0.22","15","1","2022-10-07 06:27:33","ebf9627b049f568eb4bf28942cb89901","106.41.17.95","Mozilla/5.0 (Windows NT 10.0; WOW64) AppleWebKit/537.36 (KHTML, like Gecko) Chrome/103.0.0.0 Safari/537.36","WebKit","Chrome","103.0.0.0","Windows","10.0","null","<div style=""font-size:60px;"">+</div>","null",""
"","","","","","html-button-response","49","202559","0.0-4.0-1.22","15","1","2022-10-07 06:27:33","ebf9627b049f568eb4bf28942cb89901","106.41.17.95","Mozilla/5.0 (Windows NT 10.0; WOW64) AppleWebKit/537.36 (KHTML, like Gecko) Chrome/103.0.0.0 Safari/537.36","WebKit","Chrome","103.0.0.0","Windows","10.0","7834","<p>作为军队的指挥官，你可以选择发射导弹杀死 <strong>9名</strong> 敌国士兵，但会炸毁附近的 <strong>1棵</strong> 敌国树木。</p> <p>树木的照片如下图所示。</p> <p></p> <img src='stimuli/trees/8.png', style='max-width: 30%;'> </img> <p><strong>你是否选择发射武器？</strong></p>","0",""
"","","","","","html-keyboard-response","50","203562","0.0-4.0-0.23","15","1","2022-10-07 06:27:33","ebf9627b049f568eb4bf28942cb89901","106.41.17.95","Mozilla/5.0 (Windows NT 10.0; WOW64) AppleWebKit/537.36 (KHTML, like Gecko) Chrome/103.0.0.0 Safari/537.36","WebKit","Chrome","103.0.0.0","Windows","10.0","null","<div style=""font-size:60px;"">+</div>","null",""
"","","","","","html-button-response","51","205863","0.0-4.0-1.23","15","1","2022-10-07 06:27:33","ebf9627b049f568eb4bf28942cb89901","106.41.17.95","Mozilla/5.0 (Windows NT 10.0; WOW64) AppleWebKit/537.36 (KHTML, like Gecko) Chrome/103.0.0.0 Safari/537.36","WebKit","Chrome","103.0.0.0","Windows","10.0","2297","<p>作为军队的指挥官，你可以选择发射导弹杀死 <strong>1名</strong> 敌国士兵，但会误杀附近的 <strong>1名</strong> 敌国平民。</p> <p>平民照片如下图所示。</p> <p></p> <img src='stimuli/faces/NFM2.jpg', style='max-width: 30%;'> </img> <p><strong>你是否选择发射武器？</strong></p>","1",""
"","","","","","html-keyboard-response","52","206881","0.0-4.0-0.24","15","1","2022-10-07 06:27:33","ebf9627b049f568eb4bf28942cb89901","106.41.17.95","Mozilla/5.0 (Windows NT 10.0; WOW64) AppleWebKit/537.36 (KHTML, like Gecko) Chrome/103.0.0.0 Safari/537.36","WebKit","Chrome","103.0.0.0","Windows","10.0","null","<div style=""font-size:60px;"">+</div>","null",""
"","","","","","html-button-response","53","211575","0.0-4.0-1.24","15","1","2022-10-07 06:27:33","ebf9627b049f568eb4bf28942cb89901","106.41.17.95","Mozilla/5.0 (Windows NT 10.0; WOW64) AppleWebKit/537.36 (KHTML, like Gecko) Chrome/103.0.0.0 Safari/537.36","WebKit","Chrome","103.0.0.0","Windows","10.0","4690","<p>作为军队的指挥官，你可以选择发射导弹杀死 <strong>2名</strong> 敌国士兵，但会炸毁附近的 <strong>1棵</strong> 敌国树木。</p> <p>树木的照片如下图所示。</p> <p></p> <img src='stimuli/trees/8.png', style='max-width: 30%;'> </img> <p><strong>你是否选择发射武器？</strong></p>","1",""
"","","","","","html-keyboard-response","54","212584","0.0-4.0-0.25","15","1","2022-10-07 06:27:33","ebf9627b049f568eb4bf28942cb89901","106.41.17.95","Mozilla/5.0 (Windows NT 10.0; WOW64) AppleWebKit/537.36 (KHTML, like Gecko) Chrome/103.0.0.0 Safari/537.36","WebKit","Chrome","103.0.0.0","Windows","10.0","null","<div style=""font-size:60px;"">+</div>","null",""
"","","","","","html-button-response","55","215325","0.0-4.0-1.25","15","1","2022-10-07 06:27:33","ebf9627b049f568eb4bf28942cb89901","106.41.17.95","Mozilla/5.0 (Windows NT 10.0; WOW64) AppleWebKit/537.36 (KHTML, like Gecko) Chrome/103.0.0.0 Safari/537.36","WebKit","Chrome","103.0.0.0","Windows","10.0","2735","<p>作为军队的指挥官，你可以选择发射导弹杀死 <strong>1名</strong> 敌国士兵，但会误杀附近的 <strong>1名</strong> 敌国平民。</p> <p>平民照片如下图所示。</p> <p></p> <img src='stimuli/faces/NFM3.jpg', style='max-width: 30%;'> </img> <p><strong>你是否选择发射武器？</strong></p>","1",""
"","","","","","html-keyboard-response","56","216335","0.0-4.0-0.26","15","1","2022-10-07 06:27:33","ebf9627b049f568eb4bf28942cb89901","106.41.17.95","Mozilla/5.0 (Windows NT 10.0; WOW64) AppleWebKit/537.36 (KHTML, like Gecko) Chrome/103.0.0.0 Safari/537.36","WebKit","Chrome","103.0.0.0","Windows","10.0","null","<div style=""font-size:60px;"">+</div>","null",""
"","","","","","html-button-response","57","218799","0.0-4.0-1.26","15","1","2022-10-07 06:27:33","ebf9627b049f568eb4bf28942cb89901","106.41.17.95","Mozilla/5.0 (Windows NT 10.0; WOW64) AppleWebKit/537.36 (KHTML, like Gecko) Chrome/103.0.0.0 Safari/537.36","WebKit","Chrome","103.0.0.0","Windows","10.0","2460","<p>作为军队的指挥官，你可以选择发射导弹杀死 <strong>3名</strong> 敌国士兵，但会炸毁附近的 <strong>1棵</strong> 敌国树木。</p> <p>树木的照片如下图所示。</p> <p></p> <img src='stimuli/trees/14.png', style='max-width: 30%;'> </img> <p><strong>你是否选择发射武器？</strong></p>","0",""
"","","","","","html-keyboard-response","58","219807","0.0-4.0-0.27","15","1","2022-10-07 06:27:33","ebf9627b049f568eb4bf28942cb89901","106.41.17.95","Mozilla/5.0 (Windows NT 10.0; WOW64) AppleWebKit/537.36 (KHTML, like Gecko) Chrome/103.0.0.0 Safari/537.36","WebKit","Chrome","103.0.0.0","Windows","10.0","null","<div style=""font-size:60px;"">+</div>","null",""
"","","","","","html-button-response","59","222491","0.0-4.0-1.27","15","1","2022-10-07 06:27:33","ebf9627b049f568eb4bf28942cb89901","106.41.17.95","Mozilla/5.0 (Windows NT 10.0; WOW64) AppleWebKit/537.36 (KHTML, like Gecko) Chrome/103.0.0.0 Safari/537.36","WebKit","Chrome","103.0.0.0","Windows","10.0","2679","<p>作为军队的指挥官，你可以选择发射导弹杀死 <strong>4名</strong> 敌国士兵，但会炸毁附近的 <strong>1棵</strong> 敌国树木。</p> <p>树木的照片如下图所示。</p> <p></p> <img src='stimuli/trees/7.png', style='max-width: 30%;'> </img> <p><strong>你是否选择发射武器？</strong></p>","0",""
"","","","","","html-keyboard-response","60","223496","0.0-4.0-0.28","15","1","2022-10-07 06:27:33","ebf9627b049f568eb4bf28942cb89901","106.41.17.95","Mozilla/5.0 (Windows NT 10.0; WOW64) AppleWebKit/537.36 (KHTML, like Gecko) Chrome/103.0.0.0 Safari/537.36","WebKit","Chrome","103.0.0.0","Windows","10.0","null","<div style=""font-size:60px;"">+</div>","null",""
"","","","","","html-button-response","61","225527","0.0-4.0-1.28","15","1","2022-10-07 06:27:33","ebf9627b049f568eb4bf28942cb89901","106.41.17.95","Mozilla/5.0 (Windows NT 10.0; WOW64) AppleWebKit/537.36 (KHTML, like Gecko) Chrome/103.0.0.0 Safari/537.36","WebKit","Chrome","103.0.0.0","Windows","10.0","2027","<p>作为军队的指挥官，你可以选择发射导弹杀死 <strong>5名</strong> 敌国士兵，但会误杀附近的 <strong>1名</strong> 敌国平民。</p> <p>平民照片如下图所示。</p> <p></p> <img src='stimuli/faces/NFF8.jpg', style='max-width: 30%;'> </img> <p><strong>你是否选择发射武器？</strong></p>","0",""
"","","","","","html-keyboard-response","62","226541","0.0-4.0-0.29","15","1","2022-10-07 06:27:33","ebf9627b049f568eb4bf28942cb89901","106.41.17.95","Mozilla/5.0 (Windows NT 10.0; WOW64) AppleWebKit/537.36 (KHTML, like Gecko) Chrome/103.0.0.0 Safari/537.36","WebKit","Chrome","103.0.0.0","Windows","10.0","null","<div style=""font-size:60px;"">+</div>","null",""
"","","","","","html-button-response","63","230033","0.0-4.0-1.29","15","1","2022-10-07 06:27:33","ebf9627b049f568eb4bf28942cb89901","106.41.17.95","Mozilla/5.0 (Windows NT 10.0; WOW64) AppleWebKit/537.36 (KHTML, like Gecko) Chrome/103.0.0.0 Safari/537.36","WebKit","Chrome","103.0.0.0","Windows","10.0","3486","<p>作为军队的指挥官，你可以选择发射导弹杀死 <strong>8名</strong> 敌国士兵，但会炸毁附近的 <strong>1棵</strong> 敌国树木。</p> <p>树木的照片如下图所示。</p> <p></p> <img src='stimuli/trees/13.png', style='max-width: 30%;'> </img> <p><strong>你是否选择发射武器？</strong></p>","0",""
"","","","","","html-keyboard-response","64","231050","0.0-4.0-0.30","15","1","2022-10-07 06:27:33","ebf9627b049f568eb4bf28942cb89901","106.41.17.95","Mozilla/5.0 (Windows NT 10.0; WOW64) AppleWebKit/537.36 (KHTML, like Gecko) Chrome/103.0.0.0 Safari/537.36","WebKit","Chrome","103.0.0.0","Windows","10.0","null","<div style=""font-size:60px;"">+</div>","null",""
"","","","","","html-button-response","65","232274","0.0-4.0-1.30","15","1","2022-10-07 06:27:33","ebf9627b049f568eb4bf28942cb89901","106.41.17.95","Mozilla/5.0 (Windows NT 10.0; WOW64) AppleWebKit/537.36 (KHTML, like Gecko) Chrome/103.0.0.0 Safari/537.36","WebKit","Chrome","103.0.0.0","Windows","10.0","1219","<p>作为军队的指挥官，你可以选择发射导弹杀死 <strong>8名</strong> 敌国士兵，但会误杀附近的 <strong>1名</strong> 敌国平民。</p> <p>平民照片如下图所示。</p> <p></p> <img src='stimuli/faces/NFM1.jpg', style='max-width: 30%;'> </img> <p><strong>你是否选择发射武器？</strong></p>","0",""
"","","","","","html-keyboard-response","66","233284","0.0-4.0-0.31","15","1","2022-10-07 06:27:33","ebf9627b049f568eb4bf28942cb89901","106.41.17.95","Mozilla/5.0 (Windows NT 10.0; WOW64) AppleWebKit/537.36 (KHTML, like Gecko) Chrome/103.0.0.0 Safari/537.36","WebKit","Chrome","103.0.0.0","Windows","10.0","null","<div style=""font-size:60px;"">+</div>","null",""
"","","","","","html-button-response","67","247119","0.0-4.0-1.31","15","1","2022-10-07 06:27:33","ebf9627b049f568eb4bf28942cb89901","106.41.17.95","Mozilla/5.0 (Windows NT 10.0; WOW64) AppleWebKit/537.36 (KHTML, like Gecko) Chrome/103.0.0.0 Safari/537.36","WebKit","Chrome","103.0.0.0","Windows","10.0","13830","<p>作为军队的指挥官，你可以选择发射导弹杀死 <strong>1名</strong> 敌国士兵，但会炸毁附近的 <strong>1棵</strong> 敌国树木。</p> <p>树木的照片如下图所示。</p> <p></p> <img src='stimuli/trees/15.png', style='max-width: 30%;'> </img> <p><strong>你是否选择发射武器？</strong></p>","0",""
"","","","","","html-keyboard-response","68","248121","0.0-4.0-0.32","15","1","2022-10-07 06:27:33","ebf9627b049f568eb4bf28942cb89901","106.41.17.95","Mozilla/5.0 (Windows NT 10.0; WOW64) AppleWebKit/537.36 (KHTML, like Gecko) Chrome/103.0.0.0 Safari/537.36","WebKit","Chrome","103.0.0.0","Windows","10.0","null","<div style=""font-size:60px;"">+</div>","null",""
"","","","","","html-button-response","69","251022","0.0-4.0-1.32","15","1","2022-10-07 06:27:33","ebf9627b049f568eb4bf28942cb89901","106.41.17.95","Mozilla/5.0 (Windows NT 10.0; WOW64) AppleWebKit/537.36 (KHTML, like Gecko) Chrome/103.0.0.0 Safari/537.36","WebKit","Chrome","103.0.0.0","Windows","10.0","2895","<p>作为军队的指挥官，你可以选择发射导弹杀死 <strong>4名</strong> 敌国士兵，但会炸毁附近的 <strong>1棵</strong> 敌国树木。</p> <p>树木的照片如下图所示。</p> <p></p> <img src='stimuli/trees/13.png', style='max-width: 30%;'> </img> <p><strong>你是否选择发射武器？</strong></p>","0",""
"","","","","","html-keyboard-response","70","252026","0.0-4.0-0.33","15","1","2022-10-07 06:27:33","ebf9627b049f568eb4bf28942cb89901","106.41.17.95","Mozilla/5.0 (Windows NT 10.0; WOW64) AppleWebKit/537.36 (KHTML, like Gecko) Chrome/103.0.0.0 Safari/537.36","WebKit","Chrome","103.0.0.0","Windows","10.0","null","<div style=""font-size:60px;"">+</div>","null",""
"","","","","","html-button-response","71","256449","0.0-4.0-1.33","15","1","2022-10-07 06:27:33","ebf9627b049f568eb4bf28942cb89901","106.41.17.95","Mozilla/5.0 (Windows NT 10.0; WOW64) AppleWebKit/537.36 (KHTML, like Gecko) Chrome/103.0.0.0 Safari/537.36","WebKit","Chrome","103.0.0.0","Windows","10.0","4418","<p>作为军队的指挥官，你可以选择发射导弹杀死 <strong>2名</strong> 敌国士兵，但会误杀附近的 <strong>1名</strong> 敌国平民。</p> <p>平民照片如下图所示。</p> <p></p> <img src='stimuli/faces/NFF4.jpg', style='max-width: 30%;'> </img> <p><strong>你是否选择发射武器？</strong></p>","0",""
"","","","","","html-keyboard-response","72","257454","0.0-4.0-0.34","15","1","2022-10-07 06:27:33","ebf9627b049f568eb4bf28942cb89901","106.41.17.95","Mozilla/5.0 (Windows NT 10.0; WOW64) AppleWebKit/537.36 (KHTML, like Gecko) Chrome/103.0.0.0 Safari/537.36","WebKit","Chrome","103.0.0.0","Windows","10.0","null","<div style=""font-size:60px;"">+</div>","null",""
"","","","","","html-button-response","73","270419","0.0-4.0-1.34","15","1","2022-10-07 06:27:33","ebf9627b049f568eb4bf28942cb89901","106.41.17.95","Mozilla/5.0 (Windows NT 10.0; WOW64) AppleWebKit/537.36 (KHTML, like Gecko) Chrome/103.0.0.0 Safari/537.36","WebKit","Chrome","103.0.0.0","Windows","10.0","12960","<p>作为军队的指挥官，你可以选择发射导弹杀死 <strong>9名</strong> 敌国士兵，但会误杀附近的 <strong>1名</strong> 敌国平民。</p> <p>平民照片如下图所示。</p> <p></p> <img src='stimuli/faces/NFF1.jpg', style='max-width: 30%;'> </img> <p><strong>你是否选择发射武器？</strong></p>","0",""
"","","","","","html-keyboard-response","74","271430","0.0-4.0-0.35","15","1","2022-10-07 06:27:33","ebf9627b049f568eb4bf28942cb89901","106.41.17.95","Mozilla/5.0 (Windows NT 10.0; WOW64) AppleWebKit/537.36 (KHTML, like Gecko) Chrome/103.0.0.0 Safari/537.36","WebKit","Chrome","103.0.0.0","Windows","10.0","null","<div style=""font-size:60px;"">+</div>","null",""
"","","","","","html-button-response","75","276974","0.0-4.0-1.35","15","1","2022-10-07 06:27:33","ebf9627b049f568eb4bf28942cb89901","106.41.17.95","Mozilla/5.0 (Windows NT 10.0; WOW64) AppleWebKit/537.36 (KHTML, like Gecko) Chrome/103.0.0.0 Safari/537.36","WebKit","Chrome","103.0.0.0","Windows","10.0","5541","<p>作为军队的指挥官，你可以选择发射导弹杀死 <strong>8名</strong> 敌国士兵，但会炸毁附近的 <strong>1棵</strong> 敌国树木。</p> <p>树木的照片如下图所示。</p> <p></p> <img src='stimuli/trees/3.png', style='max-width: 30%;'> </img> <p><strong>你是否选择发射武器？</strong></p>","0",""
"","","","","","html-keyboard-response","76","277977","0.0-4.0-0.36","15","1","2022-10-07 06:27:33","ebf9627b049f568eb4bf28942cb89901","106.41.17.95","Mozilla/5.0 (Windows NT 10.0; WOW64) AppleWebKit/537.36 (KHTML, like Gecko) Chrome/103.0.0.0 Safari/537.36","WebKit","Chrome","103.0.0.0","Windows","10.0","null","<div style=""font-size:60px;"">+</div>","null",""
"","","","","","html-button-response","77","280035","0.0-4.0-1.36","15","1","2022-10-07 06:27:33","ebf9627b049f568eb4bf28942cb89901","106.41.17.95","Mozilla/5.0 (Windows NT 10.0; WOW64) AppleWebKit/537.36 (KHTML, like Gecko) Chrome/103.0.0.0 Safari/537.36","WebKit","Chrome","103.0.0.0","Windows","10.0","2055","<p>作为军队的指挥官，你可以选择发射导弹杀死 <strong>10名</strong> 敌国士兵，但会炸毁附近的 <strong>1棵</strong> 敌国树木。</p> <p>树木的照片如下图所示。</p> <p></p> <img src='stimuli/trees/5.png', style='max-width: 30%;'> </img> <p><strong>你是否选择发射武器？</strong></p>","0",""
"","","","","","html-keyboard-response","78","281043","0.0-4.0-0.37","15","1","2022-10-07 06:27:33","ebf9627b049f568eb4bf28942cb89901","106.41.17.95","Mozilla/5.0 (Windows NT 10.0; WOW64) AppleWebKit/537.36 (KHTML, like Gecko) Chrome/103.0.0.0 Safari/537.36","WebKit","Chrome","103.0.0.0","Windows","10.0","null","<div style=""font-size:60px;"">+</div>","null",""
"","","","","","html-button-response","79","287526","0.0-4.0-1.37","15","1","2022-10-07 06:27:33","ebf9627b049f568eb4bf28942cb89901","106.41.17.95","Mozilla/5.0 (Windows NT 10.0; WOW64) AppleWebKit/537.36 (KHTML, like Gecko) Chrome/103.0.0.0 Safari/537.36","WebKit","Chrome","103.0.0.0","Windows","10.0","6480","<p>作为军队的指挥官，你可以选择发射导弹杀死 <strong>9名</strong> 敌国士兵，但会误杀附近的 <strong>1名</strong> 敌国平民。</p> <p>平民照片如下图所示。</p> <p></p> <img src='stimuli/faces/NFF2.jpg', style='max-width: 30%;'> </img> <p><strong>你是否选择发射武器？</strong></p>","0",""
"","","","","","html-keyboard-response","80","288537","0.0-4.0-0.38","15","1","2022-10-07 06:27:33","ebf9627b049f568eb4bf28942cb89901","106.41.17.95","Mozilla/5.0 (Windows NT 10.0; WOW64) AppleWebKit/537.36 (KHTML, like Gecko) Chrome/103.0.0.0 Safari/537.36","WebKit","Chrome","103.0.0.0","Windows","10.0","null","<div style=""font-size:60px;"">+</div>","null",""
"","","","","","html-button-response","81","289890","0.0-4.0-1.38","15","1","2022-10-07 06:27:33","ebf9627b049f568eb4bf28942cb89901","106.41.17.95","Mozilla/5.0 (Windows NT 10.0; WOW64) AppleWebKit/537.36 (KHTML, like Gecko) Chrome/103.0.0.0 Safari/537.36","WebKit","Chrome","103.0.0.0","Windows","10.0","1349","<p>作为军队的指挥官，你可以选择发射导弹杀死 <strong>5名</strong> 敌国士兵，但会误杀附近的 <strong>1名</strong> 敌国平民。</p> <p>平民照片如下图所示。</p> <p></p> <img src='stimuli/faces/NFM7.jpg', style='max-width: 30%;'> </img> <p><strong>你是否选择发射武器？</strong></p>","0",""
"","","","","","html-keyboard-response","82","290907","0.0-4.0-0.39","15","1","2022-10-07 06:27:33","ebf9627b049f568eb4bf28942cb89901","106.41.17.95","Mozilla/5.0 (Windows NT 10.0; WOW64) AppleWebKit/537.36 (KHTML, like Gecko) Chrome/103.0.0.0 Safari/537.36","WebKit","Chrome","103.0.0.0","Windows","10.0","null","<div style=""font-size:60px;"">+</div>","null",""
"","","","","","html-button-response","83","293966","0.0-4.0-1.39","15","1","2022-10-07 06:27:33","ebf9627b049f568eb4bf28942cb89901","106.41.17.95","Mozilla/5.0 (Windows NT 10.0; WOW64) AppleWebKit/537.36 (KHTML, like Gecko) Chrome/103.0.0.0 Safari/537.36","WebKit","Chrome","103.0.0.0","Windows","10.0","3056","<p>作为军队的指挥官，你可以选择发射导弹杀死 <strong>3名</strong> 敌国士兵，但会炸毁附近的 <strong>1棵</strong> 敌国树木。</p> <p>树木的照片如下图所示。</p> <p></p> <img src='stimuli/trees/4.png', style='max-width: 30%;'> </img> <p><strong>你是否选择发射武器？</strong></p>","0",""
"","","","","","html-keyboard-response","84","294975","0.0-4.0-0.40","15","1","2022-10-07 06:27:33","ebf9627b049f568eb4bf28942cb89901","106.41.17.95","Mozilla/5.0 (Windows NT 10.0; WOW64) AppleWebKit/537.36 (KHTML, like Gecko) Chrome/103.0.0.0 Safari/537.36","WebKit","Chrome","103.0.0.0","Windows","10.0","null","<div style=""font-size:60px;"">+</div>","null",""
"","","","","","html-button-response","85","296690","0.0-4.0-1.40","15","1","2022-10-07 06:27:33","ebf9627b049f568eb4bf28942cb89901","106.41.17.95","Mozilla/5.0 (Windows NT 10.0; WOW64) AppleWebKit/537.36 (KHTML, like Gecko) Chrome/103.0.0.0 Safari/537.36","WebKit","Chrome","103.0.0.0","Windows","10.0","1713","<p>作为军队的指挥官，你可以选择发射导弹杀死 <strong>9名</strong> 敌国士兵，但会炸毁附近的 <strong>1棵</strong> 敌国树木。</p> <p>树木的照片如下图所示。</p> <p></p> <img src='stimuli/trees/11.png', style='max-width: 30%;'> </img> <p><strong>你是否选择发射武器？</strong></p>","0",""
"","","","","","html-keyboard-response","86","297698","0.0-4.0-0.41","15","1","2022-10-07 06:27:33","ebf9627b049f568eb4bf28942cb89901","106.41.17.95","Mozilla/5.0 (Windows NT 10.0; WOW64) AppleWebKit/537.36 (KHTML, like Gecko) Chrome/103.0.0.0 Safari/537.36","WebKit","Chrome","103.0.0.0","Windows","10.0","null","<div style=""font-size:60px;"">+</div>","null",""
"","","","","","html-button-response","87","299090","0.0-4.0-1.41","15","1","2022-10-07 06:27:33","ebf9627b049f568eb4bf28942cb89901","106.41.17.95","Mozilla/5.0 (Windows NT 10.0; WOW64) AppleWebKit/537.36 (KHTML, like Gecko) Chrome/103.0.0.0 Safari/537.36","WebKit","Chrome","103.0.0.0","Windows","10.0","1387","<p>作为军队的指挥官，你可以选择发射导弹杀死 <strong>10名</strong> 敌国士兵，但会炸毁附近的 <strong>1棵</strong> 敌国树木。</p> <p>树木的照片如下图所示。</p> <p></p> <img src='stimuli/trees/14.png', style='max-width: 30%;'> </img> <p><strong>你是否选择发射武器？</strong></p>","0",""
"","","","","","html-keyboard-response","88","300105","0.0-4.0-0.42","15","1","2022-10-07 06:27:33","ebf9627b049f568eb4bf28942cb89901","106.41.17.95","Mozilla/5.0 (Windows NT 10.0; WOW64) AppleWebKit/537.36 (KHTML, like Gecko) Chrome/103.0.0.0 Safari/537.36","WebKit","Chrome","103.0.0.0","Windows","10.0","null","<div style=""font-size:60px;"">+</div>","null",""
"","","","","","html-button-response","89","301790","0.0-4.0-1.42","15","1","2022-10-07 06:27:33","ebf9627b049f568eb4bf28942cb89901","106.41.17.95","Mozilla/5.0 (Windows NT 10.0; WOW64) AppleWebKit/537.36 (KHTML, like Gecko) Chrome/103.0.0.0 Safari/537.36","WebKit","Chrome","103.0.0.0","Windows","10.0","1679","<p>作为军队的指挥官，你可以选择发射导弹杀死 <strong>2名</strong> 敌国士兵，但会炸毁附近的 <strong>1棵</strong> 敌国树木。</p> <p>树木的照片如下图所示。</p> <p></p> <img src='stimuli/trees/2.png', style='max-width: 30%;'> </img> <p><strong>你是否选择发射武器？</strong></p>","0",""
"","","","","","html-keyboard-response","90","302808","0.0-4.0-0.43","15","1","2022-10-07 06:27:33","ebf9627b049f568eb4bf28942cb89901","106.41.17.95","Mozilla/5.0 (Windows NT 10.0; WOW64) AppleWebKit/537.36 (KHTML, like Gecko) Chrome/103.0.0.0 Safari/537.36","WebKit","Chrome","103.0.0.0","Windows","10.0","null","<div style=""font-size:60px;"">+</div>","null",""
"","","","","","html-button-response","91","304618","0.0-4.0-1.43","15","1","2022-10-07 06:27:33","ebf9627b049f568eb4bf28942cb89901","106.41.17.95","Mozilla/5.0 (Windows NT 10.0; WOW64) AppleWebKit/537.36 (KHTML, like Gecko) Chrome/103.0.0.0 Safari/537.36","WebKit","Chrome","103.0.0.0","Windows","10.0","1805","<p>作为军队的指挥官，你可以选择发射导弹杀死 <strong>10名</strong> 敌国士兵，但会误杀附近的 <strong>1名</strong> 敌国平民。</p> <p>平民照片如下图所示。</p> <p></p> <img src='stimuli/faces/NFF4.jpg', style='max-width: 30%;'> </img> <p><strong>你是否选择发射武器？</strong></p>","0",""
"","","","","","html-keyboard-response","92","305636","0.0-4.0-0.44","15","1","2022-10-07 06:27:33","ebf9627b049f568eb4bf28942cb89901","106.41.17.95","Mozilla/5.0 (Windows NT 10.0; WOW64) AppleWebKit/537.36 (KHTML, like Gecko) Chrome/103.0.0.0 Safari/537.36","WebKit","Chrome","103.0.0.0","Windows","10.0","null","<div style=""font-size:60px;"">+</div>","null",""
"","","","","","html-button-response","93","308787","0.0-4.0-1.44","15","1","2022-10-07 06:27:33","ebf9627b049f568eb4bf28942cb89901","106.41.17.95","Mozilla/5.0 (Windows NT 10.0; WOW64) AppleWebKit/537.36 (KHTML, like Gecko) Chrome/103.0.0.0 Safari/537.36","WebKit","Chrome","103.0.0.0","Windows","10.0","3145","<p>作为军队的指挥官，你可以选择发射导弹杀死 <strong>3名</strong> 敌国士兵，但会炸毁附近的 <strong>1棵</strong> 敌国树木。</p> <p>树木的照片如下图所示。</p> <p></p> <img src='stimuli/trees/1.png', style='max-width: 30%;'> </img> <p><strong>你是否选择发射武器？</strong></p>","0",""
"","","","","","html-keyboard-response","94","309797","0.0-4.0-0.45","15","1","2022-10-07 06:27:33","ebf9627b049f568eb4bf28942cb89901","106.41.17.95","Mozilla/5.0 (Windows NT 10.0; WOW64) AppleWebKit/537.36 (KHTML, like Gecko) Chrome/103.0.0.0 Safari/537.36","WebKit","Chrome","103.0.0.0","Windows","10.0","null","<div style=""font-size:60px;"">+</div>","null",""
"","","","","","html-button-response","95","312187","0.0-4.0-1.45","15","1","2022-10-07 06:27:33","ebf9627b049f568eb4bf28942cb89901","106.41.17.95","Mozilla/5.0 (Windows NT 10.0; WOW64) AppleWebKit/537.36 (KHTML, like Gecko) Chrome/103.0.0.0 Safari/537.36","WebKit","Chrome","103.0.0.0","Windows","10.0","2383","<p>作为军队的指挥官，你可以选择发射导弹杀死 <strong>4名</strong> 敌国士兵，但会炸毁附近的 <strong>1棵</strong> 敌国树木。</p> <p>树木的照片如下图所示。</p> <p></p> <img src='stimuli/trees/16.png', style='max-width: 30%;'> </img> <p><strong>你是否选择发射武器？</strong></p>","0",""
"","","","","","html-keyboard-response","96","313195","0.0-4.0-0.46","15","1","2022-10-07 06:27:33","ebf9627b049f568eb4bf28942cb89901","106.41.17.95","Mozilla/5.0 (Windows NT 10.0; WOW64) AppleWebKit/537.36 (KHTML, like Gecko) Chrome/103.0.0.0 Safari/537.36","WebKit","Chrome","103.0.0.0","Windows","10.0","null","<div style=""font-size:60px;"">+</div>","null",""
"","","","","","html-button-response","97","314489","0.0-4.0-1.46","15","1","2022-10-07 06:27:33","ebf9627b049f568eb4bf28942cb89901","106.41.17.95","Mozilla/5.0 (Windows NT 10.0; WOW64) AppleWebKit/537.36 (KHTML, like Gecko) Chrome/103.0.0.0 Safari/537.36","WebKit","Chrome","103.0.0.0","Windows","10.0","1288","<p>作为军队的指挥官，你可以选择发射导弹杀死 <strong>2名</strong> 敌国士兵，但会误杀附近的 <strong>1名</strong> 敌国平民。</p> <p>平民照片如下图所示。</p> <p></p> <img src='stimuli/faces/NFM1.jpg', style='max-width: 30%;'> </img> <p><strong>你是否选择发射武器？</strong></p>","0",""
"","","","","","html-keyboard-response","98","315502","0.0-4.0-0.47","15","1","2022-10-07 06:27:33","ebf9627b049f568eb4bf28942cb89901","106.41.17.95","Mozilla/5.0 (Windows NT 10.0; WOW64) AppleWebKit/537.36 (KHTML, like Gecko) Chrome/103.0.0.0 Safari/537.36","WebKit","Chrome","103.0.0.0","Windows","10.0","null","<div style=""font-size:60px;"">+</div>","null",""
"","","","","","html-button-response","99","325338","0.0-4.0-1.47","15","1","2022-10-07 06:27:33","ebf9627b049f568eb4bf28942cb89901","106.41.17.95","Mozilla/5.0 (Windows NT 10.0; WOW64) AppleWebKit/537.36 (KHTML, like Gecko) Chrome/103.0.0.0 Safari/537.36","WebKit","Chrome","103.0.0.0","Windows","10.0","9831","<p>作为军队的指挥官，你可以选择发射导弹杀死 <strong>4名</strong> 敌国士兵，但会炸毁附近的 <strong>1棵</strong> 敌国树木。</p> <p>树木的照片如下图所示。</p> <p></p> <img src='stimuli/trees/3.png', style='max-width: 30%;'> </img> <p><strong>你是否选择发射武器？</strong></p>","0",""
"","","","","","html-keyboard-response","100","326351","0.0-4.0-0.48","15","1","2022-10-07 06:27:33","ebf9627b049f568eb4bf28942cb89901","106.41.17.95","Mozilla/5.0 (Windows NT 10.0; WOW64) AppleWebKit/537.36 (KHTML, like Gecko) Chrome/103.0.0.0 Safari/537.36","WebKit","Chrome","103.0.0.0","Windows","10.0","null","<div style=""font-size:60px;"">+</div>","null",""
"","","","","","html-button-response","101","327468","0.0-4.0-1.48","15","1","2022-10-07 06:27:33","ebf9627b049f568eb4bf28942cb89901","106.41.17.95","Mozilla/5.0 (Windows NT 10.0; WOW64) AppleWebKit/537.36 (KHTML, like Gecko) Chrome/103.0.0.0 Safari/537.36","WebKit","Chrome","103.0.0.0","Windows","10.0","1111","<p>作为军队的指挥官，你可以选择发射导弹杀死 <strong>5名</strong> 敌国士兵，但会误杀附近的 <strong>1名</strong> 敌国平民。</p> <p>平民照片如下图所示。</p> <p></p> <img src='stimuli/faces/NFF7.jpg', style='max-width: 30%;'> </img> <p><strong>你是否选择发射武器？</strong></p>","0",""
"","","","","","html-keyboard-response","102","328481","0.0-4.0-0.49","15","1","2022-10-07 06:27:33","ebf9627b049f568eb4bf28942cb89901","106.41.17.95","Mozilla/5.0 (Windows NT 10.0; WOW64) AppleWebKit/537.36 (KHTML, like Gecko) Chrome/103.0.0.0 Safari/537.36","WebKit","Chrome","103.0.0.0","Windows","10.0","null","<div style=""font-size:60px;"">+</div>","null",""
"","","","","","html-button-response","103","329834","0.0-4.0-1.49","15","1","2022-10-07 06:27:33","ebf9627b049f568eb4bf28942cb89901","106.41.17.95","Mozilla/5.0 (Windows NT 10.0; WOW64) AppleWebKit/537.36 (KHTML, like Gecko) Chrome/103.0.0.0 Safari/537.36","WebKit","Chrome","103.0.0.0","Windows","10.0","1348","<p>作为军队的指挥官，你可以选择发射导弹杀死 <strong>8名</strong> 敌国士兵，但会误杀附近的 <strong>1名</strong> 敌国平民。</p> <p>平民照片如下图所示。</p> <p></p> <img src='stimuli/faces/NFM6.jpg', style='max-width: 30%;'> </img> <p><strong>你是否选择发射武器？</strong></p>","0",""
"","","","","","html-keyboard-response","104","330839","0.0-4.0-0.50","15","1","2022-10-07 06:27:33","ebf9627b049f568eb4bf28942cb89901","106.41.17.95","Mozilla/5.0 (Windows NT 10.0; WOW64) AppleWebKit/537.36 (KHTML, like Gecko) Chrome/103.0.0.0 Safari/537.36","WebKit","Chrome","103.0.0.0","Windows","10.0","null","<div style=""font-size:60px;"">+</div>","null",""
"","","","","","html-button-response","105","331979","0.0-4.0-1.50","15","1","2022-10-07 06:27:33","ebf9627b049f568eb4bf28942cb89901","106.41.17.95","Mozilla/5.0 (Windows NT 10.0; WOW64) AppleWebKit/537.36 (KHTML, like Gecko) Chrome/103.0.0.0 Safari/537.36","WebKit","Chrome","103.0.0.0","Windows","10.0","1135","<p>作为军队的指挥官，你可以选择发射导弹杀死 <strong>6名</strong> 敌国士兵，但会误杀附近的 <strong>1名</strong> 敌国平民。</p> <p>平民照片如下图所示。</p> <p></p> <img src='stimuli/faces/NFM5.jpg', style='max-width: 30%;'> </img> <p><strong>你是否选择发射武器？</strong></p>","0",""
"","","","","","html-keyboard-response","106","332993","0.0-4.0-0.51","15","1","2022-10-07 06:27:33","ebf9627b049f568eb4bf28942cb89901","106.41.17.95","Mozilla/5.0 (Windows NT 10.0; WOW64) AppleWebKit/537.36 (KHTML, like Gecko) Chrome/103.0.0.0 Safari/537.36","WebKit","Chrome","103.0.0.0","Windows","10.0","null","<div style=""font-size:60px;"">+</div>","null",""
"","","","","","html-button-response","107","336430","0.0-4.0-1.51","15","1","2022-10-07 06:27:33","ebf9627b049f568eb4bf28942cb89901","106.41.17.95","Mozilla/5.0 (Windows NT 10.0; WOW64) AppleWebKit/537.36 (KHTML, like Gecko) Chrome/103.0.0.0 Safari/537.36","WebKit","Chrome","103.0.0.0","Windows","10.0","3431","<p>作为军队的指挥官，你可以选择发射导弹杀死 <strong>7名</strong> 敌国士兵，但会炸毁附近的 <strong>1棵</strong> 敌国树木。</p> <p>树木的照片如下图所示。</p> <p></p> <img src='stimuli/trees/4.png', style='max-width: 30%;'> </img> <p><strong>你是否选择发射武器？</strong></p>","0",""
"","","","","","html-keyboard-response","108","337445","0.0-4.0-0.52","15","1","2022-10-07 06:27:33","ebf9627b049f568eb4bf28942cb89901","106.41.17.95","Mozilla/5.0 (Windows NT 10.0; WOW64) AppleWebKit/537.36 (KHTML, like Gecko) Chrome/103.0.0.0 Safari/537.36","WebKit","Chrome","103.0.0.0","Windows","10.0","null","<div style=""font-size:60px;"">+</div>","null",""
"","","","","","html-button-response","109","343954","0.0-4.0-1.52","15","1","2022-10-07 06:27:33","ebf9627b049f568eb4bf28942cb89901","106.41.17.95","Mozilla/5.0 (Windows NT 10.0; WOW64) AppleWebKit/537.36 (KHTML, like Gecko) Chrome/103.0.0.0 Safari/537.36","WebKit","Chrome","103.0.0.0","Windows","10.0","6503","<p>作为军队的指挥官，你可以选择发射导弹杀死 <strong>10名</strong> 敌国士兵，但会误杀附近的 <strong>1名</strong> 敌国平民。</p> <p>平民照片如下图所示。</p> <p></p> <img src='stimuli/faces/NFF3.jpg', style='max-width: 30%;'> </img> <p><strong>你是否选择发射武器？</strong></p>","0",""
"","","","","","html-keyboard-response","110","344971","0.0-4.0-0.53","15","1","2022-10-07 06:27:33","ebf9627b049f568eb4bf28942cb89901","106.41.17.95","Mozilla/5.0 (Windows NT 10.0; WOW64) AppleWebKit/537.36 (KHTML, like Gecko) Chrome/103.0.0.0 Safari/537.36","WebKit","Chrome","103.0.0.0","Windows","10.0","null","<div style=""font-size:60px;"">+</div>","null",""
"","","","","","html-button-response","111","346965","0.0-4.0-1.53","15","1","2022-10-07 06:27:33","ebf9627b049f568eb4bf28942cb89901","106.41.17.95","Mozilla/5.0 (Windows NT 10.0; WOW64) AppleWebKit/537.36 (KHTML, like Gecko) Chrome/103.0.0.0 Safari/537.36","WebKit","Chrome","103.0.0.0","Windows","10.0","1987","<p>作为军队的指挥官，你可以选择发射导弹杀死 <strong>7名</strong> 敌国士兵，但会炸毁附近的 <strong>1棵</strong> 敌国树木。</p> <p>树木的照片如下图所示。</p> <p></p> <img src='stimuli/trees/12.png', style='max-width: 30%;'> </img> <p><strong>你是否选择发射武器？</strong></p>","0",""
"","","","","","html-keyboard-response","112","347984","0.0-4.0-0.54","15","1","2022-10-07 06:27:33","ebf9627b049f568eb4bf28942cb89901","106.41.17.95","Mozilla/5.0 (Windows NT 10.0; WOW64) AppleWebKit/537.36 (KHTML, like Gecko) Chrome/103.0.0.0 Safari/537.36","WebKit","Chrome","103.0.0.0","Windows","10.0","null","<div style=""font-size:60px;"">+</div>","null",""
"","","","","","html-button-response","113","352234","0.0-4.0-1.54","15","1","2022-10-07 06:27:33","ebf9627b049f568eb4bf28942cb89901","106.41.17.95","Mozilla/5.0 (Windows NT 10.0; WOW64) AppleWebKit/537.36 (KHTML, like Gecko) Chrome/103.0.0.0 Safari/537.36","WebKit","Chrome","103.0.0.0","Windows","10.0","4244","<p>作为军队的指挥官，你可以选择发射导弹杀死 <strong>1名</strong> 敌国士兵，但会误杀附近的 <strong>1名</strong> 敌国平民。</p> <p>平民照片如下图所示。</p> <p></p> <img src='stimuli/faces/NFM8.jpg', style='max-width: 30%;'> </img> <p><strong>你是否选择发射武器？</strong></p>","0",""
"","","","","","html-keyboard-response","114","353242","0.0-4.0-0.55","15","1","2022-10-07 06:27:33","ebf9627b049f568eb4bf28942cb89901","106.41.17.95","Mozilla/5.0 (Windows NT 10.0; WOW64) AppleWebKit/537.36 (KHTML, like Gecko) Chrome/103.0.0.0 Safari/537.36","WebKit","Chrome","103.0.0.0","Windows","10.0","null","<div style=""font-size:60px;"">+</div>","null",""
"","","","","","html-button-response","115","354610","0.0-4.0-1.55","15","1","2022-10-07 06:27:33","ebf9627b049f568eb4bf28942cb89901","106.41.17.95","Mozilla/5.0 (Windows NT 10.0; WOW64) AppleWebKit/537.36 (KHTML, like Gecko) Chrome/103.0.0.0 Safari/537.36","WebKit","Chrome","103.0.0.0","Windows","10.0","1361","<p>作为军队的指挥官，你可以选择发射导弹杀死 <strong>6名</strong> 敌国士兵，但会炸毁附近的 <strong>1棵</strong> 敌国树木。</p> <p>树木的照片如下图所示。</p> <p></p> <img src='stimuli/trees/7.png', style='max-width: 30%;'> </img> <p><strong>你是否选择发射武器？</strong></p>","0",""
"","","","","","html-keyboard-response","116","355626","0.0-4.0-0.56","15","1","2022-10-07 06:27:33","ebf9627b049f568eb4bf28942cb89901","106.41.17.95","Mozilla/5.0 (Windows NT 10.0; WOW64) AppleWebKit/537.36 (KHTML, like Gecko) Chrome/103.0.0.0 Safari/537.36","WebKit","Chrome","103.0.0.0","Windows","10.0","null","<div style=""font-size:60px;"">+</div>","null",""
"","","","","","html-button-response","117","357258","0.0-4.0-1.56","15","1","2022-10-07 06:27:33","ebf9627b049f568eb4bf28942cb89901","106.41.17.95","Mozilla/5.0 (Windows NT 10.0; WOW64) AppleWebKit/537.36 (KHTML, like Gecko) Chrome/103.0.0.0 Safari/537.36","WebKit","Chrome","103.0.0.0","Windows","10.0","1626","<p>作为军队的指挥官，你可以选择发射导弹杀死 <strong>5名</strong> 敌国士兵，但会误杀附近的 <strong>1名</strong> 敌国平民。</p> <p>平民照片如下图所示。</p> <p></p> <img src='stimuli/faces/NFF3.jpg', style='max-width: 30%;'> </img> <p><strong>你是否选择发射武器？</strong></p>","0",""
"","","","","","html-keyboard-response","118","358264","0.0-4.0-0.57","15","1","2022-10-07 06:27:33","ebf9627b049f568eb4bf28942cb89901","106.41.17.95","Mozilla/5.0 (Windows NT 10.0; WOW64) AppleWebKit/537.36 (KHTML, like Gecko) Chrome/103.0.0.0 Safari/537.36","WebKit","Chrome","103.0.0.0","Windows","10.0","null","<div style=""font-size:60px;"">+</div>","null",""
"","","","","","html-button-response","119","359242","0.0-4.0-1.57","15","1","2022-10-07 06:27:33","ebf9627b049f568eb4bf28942cb89901","106.41.17.95","Mozilla/5.0 (Windows NT 10.0; WOW64) AppleWebKit/537.36 (KHTML, like Gecko) Chrome/103.0.0.0 Safari/537.36","WebKit","Chrome","103.0.0.0","Windows","10.0","972","<p>作为军队的指挥官，你可以选择发射导弹杀死 <strong>6名</strong> 敌国士兵，但会炸毁附近的 <strong>1棵</strong> 敌国树木。</p> <p>树木的照片如下图所示。</p> <p></p> <img src='stimuli/trees/1.png', style='max-width: 30%;'> </img> <p><strong>你是否选择发射武器？</strong></p>","0",""
"","","","","","html-keyboard-response","120","360249","0.0-4.0-0.58","15","1","2022-10-07 06:27:33","ebf9627b049f568eb4bf28942cb89901","106.41.17.95","Mozilla/5.0 (Windows NT 10.0; WOW64) AppleWebKit/537.36 (KHTML, like Gecko) Chrome/103.0.0.0 Safari/537.36","WebKit","Chrome","103.0.0.0","Windows","10.0","null","<div style=""font-size:60px;"">+</div>","null",""
"","","","","","html-button-response","121","363906","0.0-4.0-1.58","15","1","2022-10-07 06:27:33","ebf9627b049f568eb4bf28942cb89901","106.41.17.95","Mozilla/5.0 (Windows NT 10.0; WOW64) AppleWebKit/537.36 (KHTML, like Gecko) Chrome/103.0.0.0 Safari/537.36","WebKit","Chrome","103.0.0.0","Windows","10.0","3651","<p>作为军队的指挥官，你可以选择发射导弹杀死 <strong>1名</strong> 敌国士兵，但会误杀附近的 <strong>1名</strong> 敌国平民。</p> <p>平民照片如下图所示。</p> <p></p> <img src='stimuli/faces/NFM5.jpg', style='max-width: 30%;'> </img> <p><strong>你是否选择发射武器？</strong></p>","0",""
"","","","","","html-keyboard-response","122","364923","0.0-4.0-0.59","15","1","2022-10-07 06:27:33","ebf9627b049f568eb4bf28942cb89901","106.41.17.95","Mozilla/5.0 (Windows NT 10.0; WOW64) AppleWebKit/537.36 (KHTML, like Gecko) Chrome/103.0.0.0 Safari/537.36","WebKit","Chrome","103.0.0.0","Windows","10.0","null","<div style=""font-size:60px;"">+</div>","null",""
"","","","","","html-button-response","123","367122","0.0-4.0-1.59","15","1","2022-10-07 06:27:33","ebf9627b049f568eb4bf28942cb89901","106.41.17.95","Mozilla/5.0 (Windows NT 10.0; WOW64) AppleWebKit/537.36 (KHTML, like Gecko) Chrome/103.0.0.0 Safari/537.36","WebKit","Chrome","103.0.0.0","Windows","10.0","2197","<p>作为军队的指挥官，你可以选择发射导弹杀死 <strong>7名</strong> 敌国士兵，但会误杀附近的 <strong>1名</strong> 敌国平民。</p> <p>平民照片如下图所示。</p> <p></p> <img src='stimuli/faces/NFM4.jpg', style='max-width: 30%;'> </img> <p><strong>你是否选择发射武器？</strong></p>","0",""
"","","","","","html-keyboard-response","124","368136","0.0-4.0-0.60","15","1","2022-10-07 06:27:33","ebf9627b049f568eb4bf28942cb89901","106.41.17.95","Mozilla/5.0 (Windows NT 10.0; WOW64) AppleWebKit/537.36 (KHTML, like Gecko) Chrome/103.0.0.0 Safari/537.36","WebKit","Chrome","103.0.0.0","Windows","10.0","null","<div style=""font-size:60px;"">+</div>","null",""
"","","","","","html-button-response","125","373346","0.0-4.0-1.60","15","1","2022-10-07 06:27:33","ebf9627b049f568eb4bf28942cb89901","106.41.17.95","Mozilla/5.0 (Windows NT 10.0; WOW64) AppleWebKit/537.36 (KHTML, like Gecko) Chrome/103.0.0.0 Safari/537.36","WebKit","Chrome","103.0.0.0","Windows","10.0","5203","<p>作为军队的指挥官，你可以选择发射导弹杀死 <strong>1名</strong> 敌国士兵，但会炸毁附近的 <strong>1棵</strong> 敌国树木。</p> <p>树木的照片如下图所示。</p> <p></p> <img src='stimuli/trees/11.png', style='max-width: 30%;'> </img> <p><strong>你是否选择发射武器？</strong></p>","0",""
"","","","","","html-keyboard-response","126","374350","0.0-4.0-0.61","15","1","2022-10-07 06:27:33","ebf9627b049f568eb4bf28942cb89901","106.41.17.95","Mozilla/5.0 (Windows NT 10.0; WOW64) AppleWebKit/537.36 (KHTML, like Gecko) Chrome/103.0.0.0 Safari/537.36","WebKit","Chrome","103.0.0.0","Windows","10.0","null","<div style=""font-size:60px;"">+</div>","null",""
"","","","","","html-button-response","127","377268","0.0-4.0-1.61","15","1","2022-10-07 06:27:33","ebf9627b049f568eb4bf28942cb89901","106.41.17.95","Mozilla/5.0 (Windows NT 10.0; WOW64) AppleWebKit/537.36 (KHTML, like Gecko) Chrome/103.0.0.0 Safari/537.36","WebKit","Chrome","103.0.0.0","Windows","10.0","2912","<p>作为军队的指挥官，你可以选择发射导弹杀死 <strong>1名</strong> 敌国士兵，但会误杀附近的 <strong>1名</strong> 敌国平民。</p> <p>平民照片如下图所示。</p> <p></p> <img src='stimuli/faces/NFF1.jpg', style='max-width: 30%;'> </img> <p><strong>你是否选择发射武器？</strong></p>","0",""
"","","","","","html-keyboard-response","128","378275","0.0-4.0-0.62","15","1","2022-10-07 06:27:33","ebf9627b049f568eb4bf28942cb89901","106.41.17.95","Mozilla/5.0 (Windows NT 10.0; WOW64) AppleWebKit/537.36 (KHTML, like Gecko) Chrome/103.0.0.0 Safari/537.36","WebKit","Chrome","103.0.0.0","Windows","10.0","null","<div style=""font-size:60px;"">+</div>","null",""
"","","","","","html-button-response","129","382018","0.0-4.0-1.62","15","1","2022-10-07 06:27:33","ebf9627b049f568eb4bf28942cb89901","106.41.17.95","Mozilla/5.0 (Windows NT 10.0; WOW64) AppleWebKit/537.36 (KHTML, like Gecko) Chrome/103.0.0.0 Safari/537.36","WebKit","Chrome","103.0.0.0","Windows","10.0","3737","<p>作为军队的指挥官，你可以选择发射导弹杀死 <strong>7名</strong> 敌国士兵，但会误杀附近的 <strong>1名</strong> 敌国平民。</p> <p>平民照片如下图所示。</p> <p></p> <img src='stimuli/faces/NFF6.jpg', style='max-width: 30%;'> </img> <p><strong>你是否选择发射武器？</strong></p>","0",""
"","","","","","html-keyboard-response","130","383024","0.0-4.0-0.63","15","1","2022-10-07 06:27:33","ebf9627b049f568eb4bf28942cb89901","106.41.17.95","Mozilla/5.0 (Windows NT 10.0; WOW64) AppleWebKit/537.36 (KHTML, like Gecko) Chrome/103.0.0.0 Safari/537.36","WebKit","Chrome","103.0.0.0","Windows","10.0","null","<div style=""font-size:60px;"">+</div>","null",""
"","","","","","html-button-response","131","384549","0.0-4.0-1.63","15","1","2022-10-07 06:27:33","ebf9627b049f568eb4bf28942cb89901","106.41.17.95","Mozilla/5.0 (Windows NT 10.0; WOW64) AppleWebKit/537.36 (KHTML, like Gecko) Chrome/103.0.0.0 Safari/537.36","WebKit","Chrome","103.0.0.0","Windows","10.0","1519","<p>作为军队的指挥官，你可以选择发射导弹杀死 <strong>1名</strong> 敌国士兵，但会误杀附近的 <strong>1名</strong> 敌国平民。</p> <p>平民照片如下图所示。</p> <p></p> <img src='stimuli/faces/NFM4.jpg', style='max-width: 30%;'> </img> <p><strong>你是否选择发射武器？</strong></p>","0",""
"","","","","","survey-multi-choice","132","405196","0.0-5.0","15","1","2022-10-07 06:27:33","ebf9627b049f568eb4bf28942cb89901","106.41.17.95","Mozilla/5.0 (Windows NT 10.0; WOW64) AppleWebKit/537.36 (KHTML, like Gecko) Chrome/103.0.0.0 Safari/537.36","WebKit","Chrome","103.0.0.0","Windows","10.0","20643","","{""Attention1"":""""}","[0]"
"","","","","","html-button-response","133","425139","0.0-6.0","15","1","2022-10-07 06:27:33","ebf9627b049f568eb4bf28942cb89901","106.41.17.95","Mozilla/5.0 (Windows NT 10.0; WOW64) AppleWebKit/537.36 (KHTML, like Gecko) Chrome/103.0.0.0 Safari/537.36","WebKit","Chrome","103.0.0.0","Windows","10.0","19936","<p style=""font-size:20px;font-weight:bold;"">恭喜！</p><p>你已经完成了实验的第一部分。</p><p>请休息放松一下，然后进入第二部分。</p><p>这部分大约需要10分钟。</p>","0",""
"","","","","","survey-text","134","462270","0.0-7.0","15","1","2022-10-07 06:27:33","ebf9627b049f568eb4bf28942cb89901","106.41.17.95","Mozilla/5.0 (Windows NT 10.0; WOW64) AppleWebKit/537.36 (KHTML, like Gecko) Chrome/103.0.0.0 Safari/537.36","WebKit","Chrome","103.0.0.0","Windows","10.0","36108","","{""Age"":""20"",""Nation"":""中国"",""Born"":""吉林省长春市"",""Live"":""吉林省长春市"",""Ethnic"":""汉"",""Alipay"":""18946789191""}",""
"","","","","","survey-multi-choice","135","488403","0.0-8.0","15","1","2022-10-07 06:27:33","ebf9627b049f568eb4bf28942cb89901","106.41.17.95","Mozilla/5.0 (Windows NT 10.0; WOW64) AppleWebKit/537.36 (KHTML, like Gecko) Chrome/103.0.0.0 Safari/537.36","WebKit","Chrome","103.0.0.0","Windows","10.0","26128","","{""Gender"":""男"",""Education"":""本科毕业"",""Income"":""￥140,000-￥269,999"",""Children"":""0"",""Race"":""亚洲人""}","[0,1,2,3,4]"
"","","","","","survey-multi-select","136","498572","0.0-9.0","15","1","2022-10-07 06:27:33","ebf9627b049f568eb4bf28942cb89901","106.41.17.95","Mozilla/5.0 (Windows NT 10.0; WOW64) AppleWebKit/537.36 (KHTML, like Gecko) Chrome/103.0.0.0 Safari/537.36","WebKit","Chrome","103.0.0.0","Windows","10.0","10153","","{""Marriage"":[""未婚""],""Religion"":[""无宗教信仰""]}","[0,1]"
"","","","","","survey-multi-choice","137","505148","0.0-10.0","15","1","2022-10-07 06:27:33","ebf9627b049f568eb4bf28942cb89901","106.41.17.95","Mozilla/5.0 (Windows NT 10.0; WOW64) AppleWebKit/537.36 (KHTML, like Gecko) Chrome/103.0.0.0 Safari/537.36","WebKit","Chrome","103.0.0.0","Windows","10.0","6569","","{""SES"":""4""}","[0]"
"","","","","","html-button-response","138","506818","0.0-11.0","15","1","2022-10-07 06:27:33","ebf9627b049f568eb4bf28942cb89901","106.41.17.95","Mozilla/5.0 (Windows NT 10.0; WOW64) AppleWebKit/537.36 (KHTML, like Gecko) Chrome/103.0.0.0 Safari/537.36","WebKit","Chrome","103.0.0.0","Windows","10.0","1665","<p><strong>请判断下列陈述在多大程度上可以形容你？</p><p> (1 = ""和我一点都不像"" to 5 = ""非常像我"".)</strong></p>","0",""
"","","","","","survey-likert","139","556024","0.0-12.0","15","1","2022-10-07 06:27:33","ebf9627b049f568eb4bf28942cb89901","106.41.17.95","Mozilla/5.0 (Windows NT 10.0; WOW64) AppleWebKit/537.36 (KHTML, like Gecko) Chrome/103.0.0.0 Safari/537.36","WebKit","Chrome","103.0.0.0","Windows","10.0","49201","","{""Aggression1"":0,""Aggression2"":0,""Aggression3"":0,""Aggression4"":0,""Aggression5"":0,""Aggression6"":0,""Aggression7"":4,""Aggression8"":0,""Aggression9"":0}","[0,1,2,3,4,5,6,7,8]"
"","","","","","html-button-response","140","557948","0.0-13.0","15","1","2022-10-07 06:27:33","ebf9627b049f568eb4bf28942cb89901","106.41.17.95","Mozilla/5.0 (Windows NT 10.0; WOW64) AppleWebKit/537.36 (KHTML, like Gecko) Chrome/103.0.0.0 Safari/537.36","WebKit","Chrome","103.0.0.0","Windows","10.0","1917","<p><strong>请判断你在多大程度上同意下列陈述。</strong></p>","0",""
"","","","","","survey-likert","141","732321","0.0-14.0","15","1","2022-10-07 06:27:33","ebf9627b049f568eb4bf28942cb89901","106.41.17.95","Mozilla/5.0 (Windows NT 10.0; WOW64) AppleWebKit/537.36 (KHTML, like Gecko) Chrome/103.0.0.0 Safari/537.36","WebKit","Chrome","103.0.0.0","Windows","10.0","174366","","{""scale8"":4,""scale24"":0,""scale27"":0,""scale10"":0,""scale23"":4,""scale5"":4,""scale4"":0,""scale14"":3,""scale9"":4,""scale6"":0,""scale1"":4,""scale2"":4,""scale28"":4,""scale18"":0,""scale11"":4,""scale22"":4,""scale17"":0,""scale13"":4,""scale3"":0,""scale26"":4,""scale12"":0,""scale15"":3,""scale7"":0,""scale16"":4,""scale21"":4,""scale19"":4,""scale20"":4,""scale25"":4}","[7,23,26,9,22,4,3,13,8,5,0,1,27,17,10,21,16,12,2,25,11,14,6,15,20,18,19,24]"
"","","","","","html-button-response","142","740758","0.0-15.0","15","1","2022-10-07 06:27:33","ebf9627b049f568eb4bf28942cb89901","106.41.17.95","Mozilla/5.0 (Windows NT 10.0; WOW64) AppleWebKit/537.36 (KHTML, like Gecko) Chrome/103.0.0.0 Safari/537.36","WebKit","Chrome","103.0.0.0","Windows","10.0","8432","<p><strong>请判断你在多大程度上同意下列陈述。</strong></p>","0",""
"","","","","","survey-likert","143","815458","0.0-16.0","15","1","2022-10-07 06:27:33","ebf9627b049f568eb4bf28942cb89901","106.41.17.95","Mozilla/5.0 (Windows NT 10.0; WOW64) AppleWebKit/537.36 (KHTML, like Gecko) Chrome/103.0.0.0 Safari/537.36","WebKit","Chrome","103.0.0.0","Windows","10.0","74694","","{""sdo2"":0,""sdo6"":6,""sdo14"":6,""sdo15"":6,""sdo1"":4,""sdo12"":6,""sdo16"":6,""sdo8"":6,""sdo7"":0,""sdo3"":6,""sdo10"":6,""sdo13"":6,""sdo11"":6,""sdo5"":6,""sdo4"":0,""sdo9"":6}","[1,5,13,14,0,11,15,7,6,2,9,12,10,4,3,8]"
"","","","","","html-button-response","144","820546","0.0-17.0","15","1","2022-10-07 06:27:33","ebf9627b049f568eb4bf28942cb89901","106.41.17.95","Mozilla/5.0 (Windows NT 10.0; WOW64) AppleWebKit/537.36 (KHTML, like Gecko) Chrome/103.0.0.0 Safari/537.36","WebKit","Chrome","103.0.0.0","Windows","10.0","5084","<p><strong>请判断你在多大程度上同意下列陈述。</strong></p>","0",""
"","","","","","survey-likert","145","877943","0.0-18.0","15","1","2022-10-07 06:27:33","ebf9627b049f568eb4bf28942cb89901","106.41.17.95","Mozilla/5.0 (Windows NT 10.0; WOW64) AppleWebKit/537.36 (KHTML, like Gecko) Chrome/103.0.0.0 Safari/537.36","WebKit","Chrome","103.0.0.0","Windows","10.0","57392","","{""caring1"":4,""liking1"":0,""caring2"":4,""protection1"":4,""liking2"":0,""caring3"":4,""protection2"":3,""liking3"":0,""protection3"":4,""caring4"":4,""liking4"":0,""protection4"":3,""caring5"":4,""liking5"":0,""protection5"":3}","[0,1,2,3,4,5,6,7,8,9,10,11,12,13,14]"
"","","","","","html-button-response","146","879775","0.0-19.0","15","1","2022-10-07 06:27:33","ebf9627b049f568eb4bf28942cb89901","106.41.17.95","Mozilla/5.0 (Windows NT 10.0; WOW64) AppleWebKit/537.36 (KHTML, like Gecko) Chrome/103.0.0.0 Safari/537.36","WebKit","Chrome","103.0.0.0","Windows","10.0","1826","<p><strong>请判断下列场景中你的内心感受有多柔软。</strong></p>","0",""
"","","","","","survey-likert","147","930936","0.0-20.0","15","1","2022-10-07 06:27:33","ebf9627b049f568eb4bf28942cb89901","106.41.17.95","Mozilla/5.0 (Windows NT 10.0; WOW64) AppleWebKit/537.36 (KHTML, like Gecko) Chrome/103.0.0.0 Safari/537.36","WebKit","Chrome","103.0.0.0","Windows","10.0","51157","","{""tenderness-positive1"":4,""tenderness-negative1"":4,""tenderness-negative2"":4,""tenderness-positive2"":3,""tenderness-positive3"":4,""tenderness-negative3"":4,""tenderness-positive4"":4,""tendereness-negative4"":0,""tendernness-negative5"":3,""tenderness-positive5"":3}","[0,1,2,3,4,5,6,7,8,9]"
"","","","","","survey-multi-choice","148","937089","0.0-21.0","15","1","2022-10-07 06:27:33","ebf9627b049f568eb4bf28942cb89901","106.41.17.95","Mozilla/5.0 (Windows NT 10.0; WOW64) AppleWebKit/537.36 (KHTML, like Gecko) Chrome/103.0.0.0 Safari/537.36","WebKit","Chrome","103.0.0.0","Windows","10.0","6147","","{""Attention2"":""其他""}","[0]"
"","","","","","html-button-response","149","938518","0.0-22.0","15","1","2022-10-07 06:27:33","ebf9627b049f568eb4bf28942cb89901","106.41.17.95","Mozilla/5.0 (Windows NT 10.0; WOW64) AppleWebKit/537.36 (KHTML, like Gecko) Chrome/103.0.0.0 Safari/537.36","WebKit","Chrome","103.0.0.0","Windows","10.0","1424","<p><strong>请判断你在多大程度上同意下列陈述。</strong></p>","0",""
"","","","","","survey-likert","150","1043635","0.0-23.0","15","1","2022-10-07 06:27:33","ebf9627b049f568eb4bf28942cb89901","106.41.17.95","Mozilla/5.0 (Windows NT 10.0; WOW64) AppleWebKit/537.36 (KHTML, like Gecko) Chrome/103.0.0.0 Safari/537.36","WebKit","Chrome","103.0.0.0","Windows","10.0","105111","","{""Patri12"":0,""Patri1"":4,""Patri10"":0,""Nation5"":0,""Patri11"":0,""Nation6"":4,""Patri7"":4,""Patri5"":4,""Nation8"":0,""Nation3"":4,""Patri8"":4,""Patri2"":4,""Patri6"":0,""Patri4"":4,""Patri3"":4,""Nation4"":4,""Nation2"":4,""Nation7"":4,""Nation1"":4,""Patri9"":0}","[11,0,9,16,10,17,6,4,19,14,7,1,5,3,2,15,13,18,12,8]"
"","","","","","html-button-response","151","1044868","0.0-24.0","15","1","2022-10-07 06:27:33","ebf9627b049f568eb4bf28942cb89901","106.41.17.95","Mozilla/5.0 (Windows NT 10.0; WOW64) AppleWebKit/537.36 (KHTML, like Gecko) Chrome/103.0.0.0 Safari/537.36","WebKit","Chrome","103.0.0.0","Windows","10.0","1227","<p><strong>请判断你在多大程度上同意下列陈述。</strong></p>","0",""
"","","","","","survey-likert","152","1116503","0.0-25.0","15","1","2022-10-07 06:27:33","ebf9627b049f568eb4bf28942cb89901","106.41.17.95","Mozilla/5.0 (Windows NT 10.0; WOW64) AppleWebKit/537.36 (KHTML, like Gecko) Chrome/103.0.0.0 Safari/537.36","WebKit","Chrome","103.0.0.0","Windows","10.0","71628","","{""hc4"":8,""vc1"":8,""hi1"":8,""vi1"":8,""hc3"":8,""vi4"":7,""vi3"":8,""hi2"":8,""hi4"":8,""Robot"":6,""vc4"":8,""hi3"":5,""vc3"":8,""vi2"":8,""hc1"":8,""hc2"":8,""vc2"":8}","[12,13,0,4,11,8,6,1,3,7,16,2,15,5,9,10,14]"
"","","","","","survey-text","153","1122122","0.0-26.0","15","1","2022-10-07 06:27:33","ebf9627b049f568eb4bf28942cb89901","106.41.17.95","Mozilla/5.0 (Windows NT 10.0; WOW64) AppleWebKit/537.36 (KHTML, like Gecko) Chrome/103.0.0.0 Safari/537.36","WebKit","Chrome","103.0.0.0","Windows","10.0","5596","","{""Comments"":""无""}",""
"","","","","","html-button-response","154","1123872","0.0-27.0","15","1","2022-10-07 06:27:33","ebf9627b049f568eb4bf28942cb89901","106.41.17.95","Mozilla/5.0 (Windows NT 10.0; WOW64) AppleWebKit/537.36 (KHTML, like Gecko) Chrome/103.0.0.0 Safari/537.36","WebKit","Chrome","103.0.0.0","Windows","10.0","1746","<strong><p>恭喜你完成了实验！</p><p>感谢您的参与。</p></strong>","0",""
