"success","timeout","failed_images","failed_audio","failed_video","trial_type","trial_index","time_elapsed","internal_node_id","run_id","condition","recorded_at","source_code_version","ip","user_agent","device","browser","browser_version","platform","platform_version","rt","stimulus","response","question_order"
"true","false","[]","[]","[]","preload","0","1921","0.0-0.0","168","1","2022-10-10 03:15:34","ebf9627b049f568eb4bf28942cb89901","182.123.167.10","Mozilla/5.0 (iPhone; CPU iPhone OS 15_6_1 like Mac OS X) AppleWebKit/605.1.15 (KHTML, like Gecko) Mobile/15E148 MicroMessenger/8.0.29(0x18001d2e) NetType/WIFI Language/zh_CN","iPhone","Mozilla","","iOS","15_6_1","","","",""
"true","","","","","fullscreen","1","22042","0.0-1.0","168","1","2022-10-10 03:15:34","ebf9627b049f568eb4bf28942cb89901","182.123.167.10","Mozilla/5.0 (iPhone; CPU iPhone OS 15_6_1 like Mac OS X) AppleWebKit/605.1.15 (KHTML, like Gecko) Mobile/15E148 MicroMessenger/8.0.29(0x18001d2e) NetType/WIFI Language/zh_CN","iPhone","Mozilla","","iOS","15_6_1","","","",""
"","","","","","html-button-response","2","91687","0.0-2.0","168","1","2022-10-10 03:15:34","ebf9627b049f568eb4bf28942cb89901","182.123.167.10","Mozilla/5.0 (iPhone; CPU iPhone OS 15_6_1 like Mac OS X) AppleWebKit/605.1.15 (KHTML, like Gecko) Mobile/15E148 MicroMessenger/8.0.29(0x18001d2e) NetType/WIFI Language/zh_CN","iPhone","Mozilla","","iOS","15_6_1","69640","<p style=""font-size:20px;font-weight:bold;"">实验知情同意书</p><p style=""text-align:left;""><strong>实验名称：</strong>社会冲突研究</p><p style=""text-align:left;""><strong>主要研究者：</strong>韩晓春副教授（北京师范大学心理学部）</p><p style=""text-align:left;""><strong>联系方式：</strong>发送邮件至xiaochun.han@bnu.edu.cn</p><p style=""text-align:left;""><strong>研究目的：</strong>研究旨在了解人类面对群体冲突时的决策方式，以及相关的心理学特质。实验调查大约需要20分钟。</p><p style=""text-align:left;""><strong>实验流程：</strong>实验包含两部分。第一部分呈现一系列群体冲突场景，请你决定如何对这些冲突进行反应，大约需要10分钟完成。第二部分包含一系列人口统计学信息收集和心理学问卷，大约需要10分钟完成。</p><p style=""text-align:left;""><strong>参加及退出规则：</strong>参加本实验完全取决于您的个人意愿。在参与过程中，您可以随时退出，并且不用承担任何后果。</p><p style=""text-align:left;""><strong>隐私：</strong>本实验完全匿名进行，不会收集您的姓名或其他能够识别您身份的信息。实验中收集的作答仅用作科学研究使用，可能会在学术期刊/书籍上发表，或者用于教学，您的数据未来可能会和其他研究者或实验室分享，但您的个人身份不会被识别。</p><p style=""text-align:left;""><strong>实验报酬：</strong>实验完成后，您将获得15元人民币报酬，以感谢您的时间和努力。调查问卷中包含几道题目用以测验您作答时的认真度。只有完成全部实验，并且正确回答认真度测验的被试才能获得实验报酬。实验报酬将通过支付宝转账发放。</p><p style=""text-align:left;font-size:20px;""><strong>如果您同意以上实验知情同意书的内容，请点击'同意并且开始实验'按钮；否则请关闭浏览器界面，退出实验。</strong></p>","0",""
"","","","","","html-button-response","3","94586","0.0-3.0","168","1","2022-10-10 03:15:34","ebf9627b049f568eb4bf28942cb89901","182.123.167.10","Mozilla/5.0 (iPhone; CPU iPhone OS 15_6_1 like Mac OS X) AppleWebKit/605.1.15 (KHTML, like Gecko) Mobile/15E148 MicroMessenger/8.0.29(0x18001d2e) NetType/WIFI Language/zh_CN","iPhone","Mozilla","","iOS","15_6_1","2893","<p ><strong>实验任务一：</strong></p><p>请想象你的国家与另一个国家发生了军事冲突。</p><p>你是国家军队的指挥官，你将如何在冲突中进行决策。</p><p>具体来说，作为军队指挥官，请你决定是否发射导弹进行打击。</p><p>接下来，你会面对一系列场景，请仔细阅读每个场景，然后进行决策。</p><p>这部分实验任务大约需要10分钟。</p><p><strong>实验过程中，请集中注意力。</strong></p>","0",""
"","","","","","html-keyboard-response","4","95592","0.0-4.0-0.0","168","1","2022-10-10 03:15:34","ebf9627b049f568eb4bf28942cb89901","182.123.167.10","Mozilla/5.0 (iPhone; CPU iPhone OS 15_6_1 like Mac OS X) AppleWebKit/605.1.15 (KHTML, like Gecko) Mobile/15E148 MicroMessenger/8.0.29(0x18001d2e) NetType/WIFI Language/zh_CN","iPhone","Mozilla","","iOS","15_6_1","null","<div style=""font-size:60px;"">+</div>","null",""
"","","","","","html-button-response","5","98434","0.0-4.0-1.0","168","1","2022-10-10 03:15:34","ebf9627b049f568eb4bf28942cb89901","182.123.167.10","Mozilla/5.0 (iPhone; CPU iPhone OS 15_6_1 like Mac OS X) AppleWebKit/605.1.15 (KHTML, like Gecko) Mobile/15E148 MicroMessenger/8.0.29(0x18001d2e) NetType/WIFI Language/zh_CN","iPhone","Mozilla","","iOS","15_6_1","2835","<p>作为军队的指挥官，你可以选择发射导弹杀死 <strong>8名</strong> 敌国士兵，但会炸毁附近的 <strong>1棵</strong> 敌国树木。</p> <p>树木的照片如下图所示。</p> <p></p> <img src='stimuli/trees/13.png', style='max-width: 30%;'> </img> <p><strong>你是否选择发射武器？</strong></p>","0",""
"","","","","","html-keyboard-response","6","99442","0.0-4.0-0.1","168","1","2022-10-10 03:15:34","ebf9627b049f568eb4bf28942cb89901","182.123.167.10","Mozilla/5.0 (iPhone; CPU iPhone OS 15_6_1 like Mac OS X) AppleWebKit/605.1.15 (KHTML, like Gecko) Mobile/15E148 MicroMessenger/8.0.29(0x18001d2e) NetType/WIFI Language/zh_CN","iPhone","Mozilla","","iOS","15_6_1","null","<div style=""font-size:60px;"">+</div>","null",""
"","","","","","html-button-response","7","102753","0.0-4.0-1.1","168","1","2022-10-10 03:15:34","ebf9627b049f568eb4bf28942cb89901","182.123.167.10","Mozilla/5.0 (iPhone; CPU iPhone OS 15_6_1 like Mac OS X) AppleWebKit/605.1.15 (KHTML, like Gecko) Mobile/15E148 MicroMessenger/8.0.29(0x18001d2e) NetType/WIFI Language/zh_CN","iPhone","Mozilla","","iOS","15_6_1","3305","<p>作为军队的指挥官，你可以选择发射导弹杀死 <strong>8名</strong> 敌国士兵，但会误杀附近的 <strong>1名</strong> 敌国平民。</p> <p>平民照片如下图所示。</p> <p></p> <img src='stimuli/faces/NFM6.jpg', style='max-width: 30%;'> </img> <p><strong>你是否选择发射武器？</strong></p>","1",""
"","","","","","html-keyboard-response","8","103758","0.0-4.0-0.2","168","1","2022-10-10 03:15:34","ebf9627b049f568eb4bf28942cb89901","182.123.167.10","Mozilla/5.0 (iPhone; CPU iPhone OS 15_6_1 like Mac OS X) AppleWebKit/605.1.15 (KHTML, like Gecko) Mobile/15E148 MicroMessenger/8.0.29(0x18001d2e) NetType/WIFI Language/zh_CN","iPhone","Mozilla","","iOS","15_6_1","null","<div style=""font-size:60px;"">+</div>","null",""
"","","","","","html-button-response","9","107685","0.0-4.0-1.2","168","1","2022-10-10 03:15:34","ebf9627b049f568eb4bf28942cb89901","182.123.167.10","Mozilla/5.0 (iPhone; CPU iPhone OS 15_6_1 like Mac OS X) AppleWebKit/605.1.15 (KHTML, like Gecko) Mobile/15E148 MicroMessenger/8.0.29(0x18001d2e) NetType/WIFI Language/zh_CN","iPhone","Mozilla","","iOS","15_6_1","3920","<p>作为军队的指挥官，你可以选择发射导弹杀死 <strong>6名</strong> 敌国士兵，但会炸毁附近的 <strong>1棵</strong> 敌国树木。</p> <p>树木的照片如下图所示。</p> <p></p> <img src='stimuli/trees/7.png', style='max-width: 30%;'> </img> <p><strong>你是否选择发射武器？</strong></p>","0",""
"","","","","","html-keyboard-response","10","108691","0.0-4.0-0.3","168","1","2022-10-10 03:15:34","ebf9627b049f568eb4bf28942cb89901","182.123.167.10","Mozilla/5.0 (iPhone; CPU iPhone OS 15_6_1 like Mac OS X) AppleWebKit/605.1.15 (KHTML, like Gecko) Mobile/15E148 MicroMessenger/8.0.29(0x18001d2e) NetType/WIFI Language/zh_CN","iPhone","Mozilla","","iOS","15_6_1","null","<div style=""font-size:60px;"">+</div>","null",""
"","","","","","html-button-response","11","125888","0.0-4.0-1.3","168","1","2022-10-10 03:15:34","ebf9627b049f568eb4bf28942cb89901","182.123.167.10","Mozilla/5.0 (iPhone; CPU iPhone OS 15_6_1 like Mac OS X) AppleWebKit/605.1.15 (KHTML, like Gecko) Mobile/15E148 MicroMessenger/8.0.29(0x18001d2e) NetType/WIFI Language/zh_CN","iPhone","Mozilla","","iOS","15_6_1","17190","<p>作为军队的指挥官，你可以选择发射导弹杀死 <strong>4名</strong> 敌国士兵，但会误杀附近的 <strong>1名</strong> 敌国平民。</p> <p>平民照片如下图所示。</p> <p></p> <img src='stimuli/faces/NFF1.jpg', style='max-width: 30%;'> </img> <p><strong>你是否选择发射武器？</strong></p>","1",""
"","","","","","html-keyboard-response","12","126896","0.0-4.0-0.4","168","1","2022-10-10 03:15:34","ebf9627b049f568eb4bf28942cb89901","182.123.167.10","Mozilla/5.0 (iPhone; CPU iPhone OS 15_6_1 like Mac OS X) AppleWebKit/605.1.15 (KHTML, like Gecko) Mobile/15E148 MicroMessenger/8.0.29(0x18001d2e) NetType/WIFI Language/zh_CN","iPhone","Mozilla","","iOS","15_6_1","null","<div style=""font-size:60px;"">+</div>","null",""
"","","","","","html-button-response","13","129707","0.0-4.0-1.4","168","1","2022-10-10 03:15:34","ebf9627b049f568eb4bf28942cb89901","182.123.167.10","Mozilla/5.0 (iPhone; CPU iPhone OS 15_6_1 like Mac OS X) AppleWebKit/605.1.15 (KHTML, like Gecko) Mobile/15E148 MicroMessenger/8.0.29(0x18001d2e) NetType/WIFI Language/zh_CN","iPhone","Mozilla","","iOS","15_6_1","2801","<p>作为军队的指挥官，你可以选择发射导弹杀死 <strong>3名</strong> 敌国士兵，但会炸毁附近的 <strong>1棵</strong> 敌国树木。</p> <p>树木的照片如下图所示。</p> <p></p> <img src='stimuli/trees/16.png', style='max-width: 30%;'> </img> <p><strong>你是否选择发射武器？</strong></p>","0",""
"","","","","","html-keyboard-response","14","130714","0.0-4.0-0.5","168","1","2022-10-10 03:15:34","ebf9627b049f568eb4bf28942cb89901","182.123.167.10","Mozilla/5.0 (iPhone; CPU iPhone OS 15_6_1 like Mac OS X) AppleWebKit/605.1.15 (KHTML, like Gecko) Mobile/15E148 MicroMessenger/8.0.29(0x18001d2e) NetType/WIFI Language/zh_CN","iPhone","Mozilla","","iOS","15_6_1","null","<div style=""font-size:60px;"">+</div>","null",""
"","","","","","html-button-response","15","134792","0.0-4.0-1.5","168","1","2022-10-10 03:15:34","ebf9627b049f568eb4bf28942cb89901","182.123.167.10","Mozilla/5.0 (iPhone; CPU iPhone OS 15_6_1 like Mac OS X) AppleWebKit/605.1.15 (KHTML, like Gecko) Mobile/15E148 MicroMessenger/8.0.29(0x18001d2e) NetType/WIFI Language/zh_CN","iPhone","Mozilla","","iOS","15_6_1","4070","<p>作为军队的指挥官，你可以选择发射导弹杀死 <strong>9名</strong> 敌国士兵，但会误杀附近的 <strong>1名</strong> 敌国平民。</p> <p>平民照片如下图所示。</p> <p></p> <img src='stimuli/faces/NFM1.jpg', style='max-width: 30%;'> </img> <p><strong>你是否选择发射武器？</strong></p>","1",""
"","","","","","html-keyboard-response","16","135798","0.0-4.0-0.6","168","1","2022-10-10 03:15:34","ebf9627b049f568eb4bf28942cb89901","182.123.167.10","Mozilla/5.0 (iPhone; CPU iPhone OS 15_6_1 like Mac OS X) AppleWebKit/605.1.15 (KHTML, like Gecko) Mobile/15E148 MicroMessenger/8.0.29(0x18001d2e) NetType/WIFI Language/zh_CN","iPhone","Mozilla","","iOS","15_6_1","null","<div style=""font-size:60px;"">+</div>","null",""
"","","","","","html-button-response","17","138161","0.0-4.0-1.6","168","1","2022-10-10 03:15:34","ebf9627b049f568eb4bf28942cb89901","182.123.167.10","Mozilla/5.0 (iPhone; CPU iPhone OS 15_6_1 like Mac OS X) AppleWebKit/605.1.15 (KHTML, like Gecko) Mobile/15E148 MicroMessenger/8.0.29(0x18001d2e) NetType/WIFI Language/zh_CN","iPhone","Mozilla","","iOS","15_6_1","2357","<p>作为军队的指挥官，你可以选择发射导弹杀死 <strong>3名</strong> 敌国士兵，但会炸毁附近的 <strong>1棵</strong> 敌国树木。</p> <p>树木的照片如下图所示。</p> <p></p> <img src='stimuli/trees/2.png', style='max-width: 30%;'> </img> <p><strong>你是否选择发射武器？</strong></p>","0",""
"","","","","","html-keyboard-response","18","139167","0.0-4.0-0.7","168","1","2022-10-10 03:15:34","ebf9627b049f568eb4bf28942cb89901","182.123.167.10","Mozilla/5.0 (iPhone; CPU iPhone OS 15_6_1 like Mac OS X) AppleWebKit/605.1.15 (KHTML, like Gecko) Mobile/15E148 MicroMessenger/8.0.29(0x18001d2e) NetType/WIFI Language/zh_CN","iPhone","Mozilla","","iOS","15_6_1","null","<div style=""font-size:60px;"">+</div>","null",""
"","","","","","html-button-response","19","140626","0.0-4.0-1.7","168","1","2022-10-10 03:15:34","ebf9627b049f568eb4bf28942cb89901","182.123.167.10","Mozilla/5.0 (iPhone; CPU iPhone OS 15_6_1 like Mac OS X) AppleWebKit/605.1.15 (KHTML, like Gecko) Mobile/15E148 MicroMessenger/8.0.29(0x18001d2e) NetType/WIFI Language/zh_CN","iPhone","Mozilla","","iOS","15_6_1","1450","<p>作为军队的指挥官，你可以选择发射导弹杀死 <strong>3名</strong> 敌国士兵，但会误杀附近的 <strong>1名</strong> 敌国平民。</p> <p>平民照片如下图所示。</p> <p></p> <img src='stimuli/faces/NFF6.jpg', style='max-width: 30%;'> </img> <p><strong>你是否选择发射武器？</strong></p>","1",""
"","","","","","html-keyboard-response","20","141632","0.0-4.0-0.8","168","1","2022-10-10 03:15:34","ebf9627b049f568eb4bf28942cb89901","182.123.167.10","Mozilla/5.0 (iPhone; CPU iPhone OS 15_6_1 like Mac OS X) AppleWebKit/605.1.15 (KHTML, like Gecko) Mobile/15E148 MicroMessenger/8.0.29(0x18001d2e) NetType/WIFI Language/zh_CN","iPhone","Mozilla","","iOS","15_6_1","null","<div style=""font-size:60px;"">+</div>","null",""
"","","","","","html-button-response","21","142759","0.0-4.0-1.8","168","1","2022-10-10 03:15:34","ebf9627b049f568eb4bf28942cb89901","182.123.167.10","Mozilla/5.0 (iPhone; CPU iPhone OS 15_6_1 like Mac OS X) AppleWebKit/605.1.15 (KHTML, like Gecko) Mobile/15E148 MicroMessenger/8.0.29(0x18001d2e) NetType/WIFI Language/zh_CN","iPhone","Mozilla","","iOS","15_6_1","1119","<p>作为军队的指挥官，你可以选择发射导弹杀死 <strong>3名</strong> 敌国士兵，但会误杀附近的 <strong>1名</strong> 敌国平民。</p> <p>平民照片如下图所示。</p> <p></p> <img src='stimuli/faces/NFM7.jpg', style='max-width: 30%;'> </img> <p><strong>你是否选择发射武器？</strong></p>","1",""
"","","","","","html-keyboard-response","22","143763","0.0-4.0-0.9","168","1","2022-10-10 03:15:34","ebf9627b049f568eb4bf28942cb89901","182.123.167.10","Mozilla/5.0 (iPhone; CPU iPhone OS 15_6_1 like Mac OS X) AppleWebKit/605.1.15 (KHTML, like Gecko) Mobile/15E148 MicroMessenger/8.0.29(0x18001d2e) NetType/WIFI Language/zh_CN","iPhone","Mozilla","","iOS","15_6_1","null","<div style=""font-size:60px;"">+</div>","null",""
"","","","","","html-button-response","23","144957","0.0-4.0-1.9","168","1","2022-10-10 03:15:34","ebf9627b049f568eb4bf28942cb89901","182.123.167.10","Mozilla/5.0 (iPhone; CPU iPhone OS 15_6_1 like Mac OS X) AppleWebKit/605.1.15 (KHTML, like Gecko) Mobile/15E148 MicroMessenger/8.0.29(0x18001d2e) NetType/WIFI Language/zh_CN","iPhone","Mozilla","","iOS","15_6_1","1184","<p>作为军队的指挥官，你可以选择发射导弹杀死 <strong>9名</strong> 敌国士兵，但会炸毁附近的 <strong>1棵</strong> 敌国树木。</p> <p>树木的照片如下图所示。</p> <p></p> <img src='stimuli/trees/4.png', style='max-width: 30%;'> </img> <p><strong>你是否选择发射武器？</strong></p>","0",""
"","","","","","html-keyboard-response","24","145966","0.0-4.0-0.10","168","1","2022-10-10 03:15:34","ebf9627b049f568eb4bf28942cb89901","182.123.167.10","Mozilla/5.0 (iPhone; CPU iPhone OS 15_6_1 like Mac OS X) AppleWebKit/605.1.15 (KHTML, like Gecko) Mobile/15E148 MicroMessenger/8.0.29(0x18001d2e) NetType/WIFI Language/zh_CN","iPhone","Mozilla","","iOS","15_6_1","null","<div style=""font-size:60px;"">+</div>","null",""
"","","","","","html-button-response","25","146939","0.0-4.0-1.10","168","1","2022-10-10 03:15:34","ebf9627b049f568eb4bf28942cb89901","182.123.167.10","Mozilla/5.0 (iPhone; CPU iPhone OS 15_6_1 like Mac OS X) AppleWebKit/605.1.15 (KHTML, like Gecko) Mobile/15E148 MicroMessenger/8.0.29(0x18001d2e) NetType/WIFI Language/zh_CN","iPhone","Mozilla","","iOS","15_6_1","965","<p>作为军队的指挥官，你可以选择发射导弹杀死 <strong>3名</strong> 敌国士兵，但会炸毁附近的 <strong>1棵</strong> 敌国树木。</p> <p>树木的照片如下图所示。</p> <p></p> <img src='stimuli/trees/12.png', style='max-width: 30%;'> </img> <p><strong>你是否选择发射武器？</strong></p>","0",""
"","","","","","html-keyboard-response","26","147945","0.0-4.0-0.11","168","1","2022-10-10 03:15:34","ebf9627b049f568eb4bf28942cb89901","182.123.167.10","Mozilla/5.0 (iPhone; CPU iPhone OS 15_6_1 like Mac OS X) AppleWebKit/605.1.15 (KHTML, like Gecko) Mobile/15E148 MicroMessenger/8.0.29(0x18001d2e) NetType/WIFI Language/zh_CN","iPhone","Mozilla","","iOS","15_6_1","null","<div style=""font-size:60px;"">+</div>","null",""
"","","","","","html-button-response","27","148924","0.0-4.0-1.11","168","1","2022-10-10 03:15:34","ebf9627b049f568eb4bf28942cb89901","182.123.167.10","Mozilla/5.0 (iPhone; CPU iPhone OS 15_6_1 like Mac OS X) AppleWebKit/605.1.15 (KHTML, like Gecko) Mobile/15E148 MicroMessenger/8.0.29(0x18001d2e) NetType/WIFI Language/zh_CN","iPhone","Mozilla","","iOS","15_6_1","971","<p>作为军队的指挥官，你可以选择发射导弹杀死 <strong>4名</strong> 敌国士兵，但会误杀附近的 <strong>1名</strong> 敌国平民。</p> <p>平民照片如下图所示。</p> <p></p> <img src='stimuli/faces/NFF7.jpg', style='max-width: 30%;'> </img> <p><strong>你是否选择发射武器？</strong></p>","1",""
"","","","","","html-keyboard-response","28","149931","0.0-4.0-0.12","168","1","2022-10-10 03:15:34","ebf9627b049f568eb4bf28942cb89901","182.123.167.10","Mozilla/5.0 (iPhone; CPU iPhone OS 15_6_1 like Mac OS X) AppleWebKit/605.1.15 (KHTML, like Gecko) Mobile/15E148 MicroMessenger/8.0.29(0x18001d2e) NetType/WIFI Language/zh_CN","iPhone","Mozilla","","iOS","15_6_1","null","<div style=""font-size:60px;"">+</div>","null",""
"","","","","","html-button-response","29","150797","0.0-4.0-1.12","168","1","2022-10-10 03:15:34","ebf9627b049f568eb4bf28942cb89901","182.123.167.10","Mozilla/5.0 (iPhone; CPU iPhone OS 15_6_1 like Mac OS X) AppleWebKit/605.1.15 (KHTML, like Gecko) Mobile/15E148 MicroMessenger/8.0.29(0x18001d2e) NetType/WIFI Language/zh_CN","iPhone","Mozilla","","iOS","15_6_1","858","<p>作为军队的指挥官，你可以选择发射导弹杀死 <strong>6名</strong> 敌国士兵，但会误杀附近的 <strong>1名</strong> 敌国平民。</p> <p>平民照片如下图所示。</p> <p></p> <img src='stimuli/faces/NFF1.jpg', style='max-width: 30%;'> </img> <p><strong>你是否选择发射武器？</strong></p>","1",""
"","","","","","html-keyboard-response","30","151801","0.0-4.0-0.13","168","1","2022-10-10 03:15:34","ebf9627b049f568eb4bf28942cb89901","182.123.167.10","Mozilla/5.0 (iPhone; CPU iPhone OS 15_6_1 like Mac OS X) AppleWebKit/605.1.15 (KHTML, like Gecko) Mobile/15E148 MicroMessenger/8.0.29(0x18001d2e) NetType/WIFI Language/zh_CN","iPhone","Mozilla","","iOS","15_6_1","null","<div style=""font-size:60px;"">+</div>","null",""
"","","","","","html-button-response","31","154946","0.0-4.0-1.13","168","1","2022-10-10 03:15:34","ebf9627b049f568eb4bf28942cb89901","182.123.167.10","Mozilla/5.0 (iPhone; CPU iPhone OS 15_6_1 like Mac OS X) AppleWebKit/605.1.15 (KHTML, like Gecko) Mobile/15E148 MicroMessenger/8.0.29(0x18001d2e) NetType/WIFI Language/zh_CN","iPhone","Mozilla","","iOS","15_6_1","3137","<p>作为军队的指挥官，你可以选择发射导弹杀死 <strong>1名</strong> 敌国士兵，但会误杀附近的 <strong>1名</strong> 敌国平民。</p> <p>平民照片如下图所示。</p> <p></p> <img src='stimuli/faces/NFM1.jpg', style='max-width: 30%;'> </img> <p><strong>你是否选择发射武器？</strong></p>","1",""
"","","","","","html-keyboard-response","32","155953","0.0-4.0-0.14","168","1","2022-10-10 03:15:34","ebf9627b049f568eb4bf28942cb89901","182.123.167.10","Mozilla/5.0 (iPhone; CPU iPhone OS 15_6_1 like Mac OS X) AppleWebKit/605.1.15 (KHTML, like Gecko) Mobile/15E148 MicroMessenger/8.0.29(0x18001d2e) NetType/WIFI Language/zh_CN","iPhone","Mozilla","","iOS","15_6_1","null","<div style=""font-size:60px;"">+</div>","null",""
"","","","","","html-button-response","33","157324","0.0-4.0-1.14","168","1","2022-10-10 03:15:34","ebf9627b049f568eb4bf28942cb89901","182.123.167.10","Mozilla/5.0 (iPhone; CPU iPhone OS 15_6_1 like Mac OS X) AppleWebKit/605.1.15 (KHTML, like Gecko) Mobile/15E148 MicroMessenger/8.0.29(0x18001d2e) NetType/WIFI Language/zh_CN","iPhone","Mozilla","","iOS","15_6_1","1362","<p>作为军队的指挥官，你可以选择发射导弹杀死 <strong>2名</strong> 敌国士兵，但会炸毁附近的 <strong>1棵</strong> 敌国树木。</p> <p>树木的照片如下图所示。</p> <p></p> <img src='stimuli/trees/15.png', style='max-width: 30%;'> </img> <p><strong>你是否选择发射武器？</strong></p>","0",""
"","","","","","html-keyboard-response","34","158332","0.0-4.0-0.15","168","1","2022-10-10 03:15:34","ebf9627b049f568eb4bf28942cb89901","182.123.167.10","Mozilla/5.0 (iPhone; CPU iPhone OS 15_6_1 like Mac OS X) AppleWebKit/605.1.15 (KHTML, like Gecko) Mobile/15E148 MicroMessenger/8.0.29(0x18001d2e) NetType/WIFI Language/zh_CN","iPhone","Mozilla","","iOS","15_6_1","null","<div style=""font-size:60px;"">+</div>","null",""
"","","","","","html-button-response","35","159197","0.0-4.0-1.15","168","1","2022-10-10 03:15:34","ebf9627b049f568eb4bf28942cb89901","182.123.167.10","Mozilla/5.0 (iPhone; CPU iPhone OS 15_6_1 like Mac OS X) AppleWebKit/605.1.15 (KHTML, like Gecko) Mobile/15E148 MicroMessenger/8.0.29(0x18001d2e) NetType/WIFI Language/zh_CN","iPhone","Mozilla","","iOS","15_6_1","857","<p>作为军队的指挥官，你可以选择发射导弹杀死 <strong>9名</strong> 敌国士兵，但会误杀附近的 <strong>1名</strong> 敌国平民。</p> <p>平民照片如下图所示。</p> <p></p> <img src='stimuli/faces/NFF3.jpg', style='max-width: 30%;'> </img> <p><strong>你是否选择发射武器？</strong></p>","1",""
"","","","","","html-keyboard-response","36","160203","0.0-4.0-0.16","168","1","2022-10-10 03:15:34","ebf9627b049f568eb4bf28942cb89901","182.123.167.10","Mozilla/5.0 (iPhone; CPU iPhone OS 15_6_1 like Mac OS X) AppleWebKit/605.1.15 (KHTML, like Gecko) Mobile/15E148 MicroMessenger/8.0.29(0x18001d2e) NetType/WIFI Language/zh_CN","iPhone","Mozilla","","iOS","15_6_1","null","<div style=""font-size:60px;"">+</div>","null",""
"","","","","","html-button-response","37","161192","0.0-4.0-1.16","168","1","2022-10-10 03:15:34","ebf9627b049f568eb4bf28942cb89901","182.123.167.10","Mozilla/5.0 (iPhone; CPU iPhone OS 15_6_1 like Mac OS X) AppleWebKit/605.1.15 (KHTML, like Gecko) Mobile/15E148 MicroMessenger/8.0.29(0x18001d2e) NetType/WIFI Language/zh_CN","iPhone","Mozilla","","iOS","15_6_1","985","<p>作为军队的指挥官，你可以选择发射导弹杀死 <strong>10名</strong> 敌国士兵，但会误杀附近的 <strong>1名</strong> 敌国平民。</p> <p>平民照片如下图所示。</p> <p></p> <img src='stimuli/faces/NFF8.jpg', style='max-width: 30%;'> </img> <p><strong>你是否选择发射武器？</strong></p>","1",""
"","","","","","html-keyboard-response","38","162199","0.0-4.0-0.17","168","1","2022-10-10 03:15:34","ebf9627b049f568eb4bf28942cb89901","182.123.167.10","Mozilla/5.0 (iPhone; CPU iPhone OS 15_6_1 like Mac OS X) AppleWebKit/605.1.15 (KHTML, like Gecko) Mobile/15E148 MicroMessenger/8.0.29(0x18001d2e) NetType/WIFI Language/zh_CN","iPhone","Mozilla","","iOS","15_6_1","null","<div style=""font-size:60px;"">+</div>","null",""
"","","","","","html-button-response","39","163425","0.0-4.0-1.17","168","1","2022-10-10 03:15:34","ebf9627b049f568eb4bf28942cb89901","182.123.167.10","Mozilla/5.0 (iPhone; CPU iPhone OS 15_6_1 like Mac OS X) AppleWebKit/605.1.15 (KHTML, like Gecko) Mobile/15E148 MicroMessenger/8.0.29(0x18001d2e) NetType/WIFI Language/zh_CN","iPhone","Mozilla","","iOS","15_6_1","1218","<p>作为军队的指挥官，你可以选择发射导弹杀死 <strong>8名</strong> 敌国士兵，但会炸毁附近的 <strong>1棵</strong> 敌国树木。</p> <p>树木的照片如下图所示。</p> <p></p> <img src='stimuli/trees/12.png', style='max-width: 30%;'> </img> <p><strong>你是否选择发射武器？</strong></p>","0",""
"","","","","","html-keyboard-response","40","164433","0.0-4.0-0.18","168","1","2022-10-10 03:15:34","ebf9627b049f568eb4bf28942cb89901","182.123.167.10","Mozilla/5.0 (iPhone; CPU iPhone OS 15_6_1 like Mac OS X) AppleWebKit/605.1.15 (KHTML, like Gecko) Mobile/15E148 MicroMessenger/8.0.29(0x18001d2e) NetType/WIFI Language/zh_CN","iPhone","Mozilla","","iOS","15_6_1","null","<div style=""font-size:60px;"">+</div>","null",""
"","","","","","html-button-response","41","165938","0.0-4.0-1.18","168","1","2022-10-10 03:15:34","ebf9627b049f568eb4bf28942cb89901","182.123.167.10","Mozilla/5.0 (iPhone; CPU iPhone OS 15_6_1 like Mac OS X) AppleWebKit/605.1.15 (KHTML, like Gecko) Mobile/15E148 MicroMessenger/8.0.29(0x18001d2e) NetType/WIFI Language/zh_CN","iPhone","Mozilla","","iOS","15_6_1","1497","<p>作为军队的指挥官，你可以选择发射导弹杀死 <strong>6名</strong> 敌国士兵，但会炸毁附近的 <strong>1棵</strong> 敌国树木。</p> <p>树木的照片如下图所示。</p> <p></p> <img src='stimuli/trees/16.png', style='max-width: 30%;'> </img> <p><strong>你是否选择发射武器？</strong></p>","0",""
"","","","","","html-keyboard-response","42","166946","0.0-4.0-0.19","168","1","2022-10-10 03:15:34","ebf9627b049f568eb4bf28942cb89901","182.123.167.10","Mozilla/5.0 (iPhone; CPU iPhone OS 15_6_1 like Mac OS X) AppleWebKit/605.1.15 (KHTML, like Gecko) Mobile/15E148 MicroMessenger/8.0.29(0x18001d2e) NetType/WIFI Language/zh_CN","iPhone","Mozilla","","iOS","15_6_1","null","<div style=""font-size:60px;"">+</div>","null",""
"","","","","","html-button-response","43","167975","0.0-4.0-1.19","168","1","2022-10-10 03:15:34","ebf9627b049f568eb4bf28942cb89901","182.123.167.10","Mozilla/5.0 (iPhone; CPU iPhone OS 15_6_1 like Mac OS X) AppleWebKit/605.1.15 (KHTML, like Gecko) Mobile/15E148 MicroMessenger/8.0.29(0x18001d2e) NetType/WIFI Language/zh_CN","iPhone","Mozilla","","iOS","15_6_1","1022","<p>作为军队的指挥官，你可以选择发射导弹杀死 <strong>2名</strong> 敌国士兵，但会误杀附近的 <strong>1名</strong> 敌国平民。</p> <p>平民照片如下图所示。</p> <p></p> <img src='stimuli/faces/NFF5.jpg', style='max-width: 30%;'> </img> <p><strong>你是否选择发射武器？</strong></p>","1",""
"","","","","","html-keyboard-response","44","168982","0.0-4.0-0.20","168","1","2022-10-10 03:15:34","ebf9627b049f568eb4bf28942cb89901","182.123.167.10","Mozilla/5.0 (iPhone; CPU iPhone OS 15_6_1 like Mac OS X) AppleWebKit/605.1.15 (KHTML, like Gecko) Mobile/15E148 MicroMessenger/8.0.29(0x18001d2e) NetType/WIFI Language/zh_CN","iPhone","Mozilla","","iOS","15_6_1","null","<div style=""font-size:60px;"">+</div>","null",""
"","","","","","html-button-response","45","170224","0.0-4.0-1.20","168","1","2022-10-10 03:15:34","ebf9627b049f568eb4bf28942cb89901","182.123.167.10","Mozilla/5.0 (iPhone; CPU iPhone OS 15_6_1 like Mac OS X) AppleWebKit/605.1.15 (KHTML, like Gecko) Mobile/15E148 MicroMessenger/8.0.29(0x18001d2e) NetType/WIFI Language/zh_CN","iPhone","Mozilla","","iOS","15_6_1","1234","<p>作为军队的指挥官，你可以选择发射导弹杀死 <strong>10名</strong> 敌国士兵，但会误杀附近的 <strong>1名</strong> 敌国平民。</p> <p>平民照片如下图所示。</p> <p></p> <img src='stimuli/faces/NFM8.jpg', style='max-width: 30%;'> </img> <p><strong>你是否选择发射武器？</strong></p>","1",""
"","","","","","html-keyboard-response","46","171229","0.0-4.0-0.21","168","1","2022-10-10 03:15:34","ebf9627b049f568eb4bf28942cb89901","182.123.167.10","Mozilla/5.0 (iPhone; CPU iPhone OS 15_6_1 like Mac OS X) AppleWebKit/605.1.15 (KHTML, like Gecko) Mobile/15E148 MicroMessenger/8.0.29(0x18001d2e) NetType/WIFI Language/zh_CN","iPhone","Mozilla","","iOS","15_6_1","null","<div style=""font-size:60px;"">+</div>","null",""
"","","","","","html-button-response","47","172213","0.0-4.0-1.21","168","1","2022-10-10 03:15:34","ebf9627b049f568eb4bf28942cb89901","182.123.167.10","Mozilla/5.0 (iPhone; CPU iPhone OS 15_6_1 like Mac OS X) AppleWebKit/605.1.15 (KHTML, like Gecko) Mobile/15E148 MicroMessenger/8.0.29(0x18001d2e) NetType/WIFI Language/zh_CN","iPhone","Mozilla","","iOS","15_6_1","976","<p>作为军队的指挥官，你可以选择发射导弹杀死 <strong>7名</strong> 敌国士兵，但会炸毁附近的 <strong>1棵</strong> 敌国树木。</p> <p>树木的照片如下图所示。</p> <p></p> <img src='stimuli/trees/11.png', style='max-width: 30%;'> </img> <p><strong>你是否选择发射武器？</strong></p>","0",""
"","","","","","html-keyboard-response","48","173220","0.0-4.0-0.22","168","1","2022-10-10 03:15:34","ebf9627b049f568eb4bf28942cb89901","182.123.167.10","Mozilla/5.0 (iPhone; CPU iPhone OS 15_6_1 like Mac OS X) AppleWebKit/605.1.15 (KHTML, like Gecko) Mobile/15E148 MicroMessenger/8.0.29(0x18001d2e) NetType/WIFI Language/zh_CN","iPhone","Mozilla","","iOS","15_6_1","null","<div style=""font-size:60px;"">+</div>","null",""
"","","","","","html-button-response","49","174926","0.0-4.0-1.22","168","1","2022-10-10 03:15:34","ebf9627b049f568eb4bf28942cb89901","182.123.167.10","Mozilla/5.0 (iPhone; CPU iPhone OS 15_6_1 like Mac OS X) AppleWebKit/605.1.15 (KHTML, like Gecko) Mobile/15E148 MicroMessenger/8.0.29(0x18001d2e) NetType/WIFI Language/zh_CN","iPhone","Mozilla","","iOS","15_6_1","1697","<p>作为军队的指挥官，你可以选择发射导弹杀死 <strong>8名</strong> 敌国士兵，但会误杀附近的 <strong>1名</strong> 敌国平民。</p> <p>平民照片如下图所示。</p> <p></p> <img src='stimuli/faces/NFF2.jpg', style='max-width: 30%;'> </img> <p><strong>你是否选择发射武器？</strong></p>","1",""
"","","","","","html-keyboard-response","50","175935","0.0-4.0-0.23","168","1","2022-10-10 03:15:34","ebf9627b049f568eb4bf28942cb89901","182.123.167.10","Mozilla/5.0 (iPhone; CPU iPhone OS 15_6_1 like Mac OS X) AppleWebKit/605.1.15 (KHTML, like Gecko) Mobile/15E148 MicroMessenger/8.0.29(0x18001d2e) NetType/WIFI Language/zh_CN","iPhone","Mozilla","","iOS","15_6_1","null","<div style=""font-size:60px;"">+</div>","null",""
"","","","","","html-button-response","51","177500","0.0-4.0-1.23","168","1","2022-10-10 03:15:34","ebf9627b049f568eb4bf28942cb89901","182.123.167.10","Mozilla/5.0 (iPhone; CPU iPhone OS 15_6_1 like Mac OS X) AppleWebKit/605.1.15 (KHTML, like Gecko) Mobile/15E148 MicroMessenger/8.0.29(0x18001d2e) NetType/WIFI Language/zh_CN","iPhone","Mozilla","","iOS","15_6_1","1557","<p>作为军队的指挥官，你可以选择发射导弹杀死 <strong>6名</strong> 敌国士兵，但会炸毁附近的 <strong>1棵</strong> 敌国树木。</p> <p>树木的照片如下图所示。</p> <p></p> <img src='stimuli/trees/8.png', style='max-width: 30%;'> </img> <p><strong>你是否选择发射武器？</strong></p>","0",""
"","","","","","html-keyboard-response","52","178504","0.0-4.0-0.24","168","1","2022-10-10 03:15:34","ebf9627b049f568eb4bf28942cb89901","182.123.167.10","Mozilla/5.0 (iPhone; CPU iPhone OS 15_6_1 like Mac OS X) AppleWebKit/605.1.15 (KHTML, like Gecko) Mobile/15E148 MicroMessenger/8.0.29(0x18001d2e) NetType/WIFI Language/zh_CN","iPhone","Mozilla","","iOS","15_6_1","null","<div style=""font-size:60px;"">+</div>","null",""
"","","","","","html-button-response","53","180376","0.0-4.0-1.24","168","1","2022-10-10 03:15:34","ebf9627b049f568eb4bf28942cb89901","182.123.167.10","Mozilla/5.0 (iPhone; CPU iPhone OS 15_6_1 like Mac OS X) AppleWebKit/605.1.15 (KHTML, like Gecko) Mobile/15E148 MicroMessenger/8.0.29(0x18001d2e) NetType/WIFI Language/zh_CN","iPhone","Mozilla","","iOS","15_6_1","1862","<p>作为军队的指挥官，你可以选择发射导弹杀死 <strong>7名</strong> 敌国士兵，但会误杀附近的 <strong>1名</strong> 敌国平民。</p> <p>平民照片如下图所示。</p> <p></p> <img src='stimuli/faces/NFM4.jpg', style='max-width: 30%;'> </img> <p><strong>你是否选择发射武器？</strong></p>","1",""
"","","","","","html-keyboard-response","54","181381","0.0-4.0-0.25","168","1","2022-10-10 03:15:34","ebf9627b049f568eb4bf28942cb89901","182.123.167.10","Mozilla/5.0 (iPhone; CPU iPhone OS 15_6_1 like Mac OS X) AppleWebKit/605.1.15 (KHTML, like Gecko) Mobile/15E148 MicroMessenger/8.0.29(0x18001d2e) NetType/WIFI Language/zh_CN","iPhone","Mozilla","","iOS","15_6_1","null","<div style=""font-size:60px;"">+</div>","null",""
"","","","","","html-button-response","55","185196","0.0-4.0-1.25","168","1","2022-10-10 03:15:34","ebf9627b049f568eb4bf28942cb89901","182.123.167.10","Mozilla/5.0 (iPhone; CPU iPhone OS 15_6_1 like Mac OS X) AppleWebKit/605.1.15 (KHTML, like Gecko) Mobile/15E148 MicroMessenger/8.0.29(0x18001d2e) NetType/WIFI Language/zh_CN","iPhone","Mozilla","","iOS","15_6_1","3806","<p>作为军队的指挥官，你可以选择发射导弹杀死 <strong>6名</strong> 敌国士兵，但会误杀附近的 <strong>1名</strong> 敌国平民。</p> <p>平民照片如下图所示。</p> <p></p> <img src='stimuli/faces/NFF5.jpg', style='max-width: 30%;'> </img> <p><strong>你是否选择发射武器？</strong></p>","1",""
"","","","","","html-keyboard-response","56","186207","0.0-4.0-0.26","168","1","2022-10-10 03:15:34","ebf9627b049f568eb4bf28942cb89901","182.123.167.10","Mozilla/5.0 (iPhone; CPU iPhone OS 15_6_1 like Mac OS X) AppleWebKit/605.1.15 (KHTML, like Gecko) Mobile/15E148 MicroMessenger/8.0.29(0x18001d2e) NetType/WIFI Language/zh_CN","iPhone","Mozilla","","iOS","15_6_1","null","<div style=""font-size:60px;"">+</div>","null",""
"","","","","","html-button-response","57","187062","0.0-4.0-1.26","168","1","2022-10-10 03:15:34","ebf9627b049f568eb4bf28942cb89901","182.123.167.10","Mozilla/5.0 (iPhone; CPU iPhone OS 15_6_1 like Mac OS X) AppleWebKit/605.1.15 (KHTML, like Gecko) Mobile/15E148 MicroMessenger/8.0.29(0x18001d2e) NetType/WIFI Language/zh_CN","iPhone","Mozilla","","iOS","15_6_1","845","<p>作为军队的指挥官，你可以选择发射导弹杀死 <strong>10名</strong> 敌国士兵，但会炸毁附近的 <strong>1棵</strong> 敌国树木。</p> <p>树木的照片如下图所示。</p> <p></p> <img src='stimuli/trees/2.png', style='max-width: 30%;'> </img> <p><strong>你是否选择发射武器？</strong></p>","0",""
"","","","","","html-keyboard-response","58","188069","0.0-4.0-0.27","168","1","2022-10-10 03:15:34","ebf9627b049f568eb4bf28942cb89901","182.123.167.10","Mozilla/5.0 (iPhone; CPU iPhone OS 15_6_1 like Mac OS X) AppleWebKit/605.1.15 (KHTML, like Gecko) Mobile/15E148 MicroMessenger/8.0.29(0x18001d2e) NetType/WIFI Language/zh_CN","iPhone","Mozilla","","iOS","15_6_1","null","<div style=""font-size:60px;"">+</div>","null",""
"","","","","","html-button-response","59","189150","0.0-4.0-1.27","168","1","2022-10-10 03:15:34","ebf9627b049f568eb4bf28942cb89901","182.123.167.10","Mozilla/5.0 (iPhone; CPU iPhone OS 15_6_1 like Mac OS X) AppleWebKit/605.1.15 (KHTML, like Gecko) Mobile/15E148 MicroMessenger/8.0.29(0x18001d2e) NetType/WIFI Language/zh_CN","iPhone","Mozilla","","iOS","15_6_1","1072","<p>作为军队的指挥官，你可以选择发射导弹杀死 <strong>3名</strong> 敌国士兵，但会误杀附近的 <strong>1名</strong> 敌国平民。</p> <p>平民照片如下图所示。</p> <p></p> <img src='stimuli/faces/NFF2.jpg', style='max-width: 30%;'> </img> <p><strong>你是否选择发射武器？</strong></p>","1",""
"","","","","","html-keyboard-response","60","190155","0.0-4.0-0.28","168","1","2022-10-10 03:15:34","ebf9627b049f568eb4bf28942cb89901","182.123.167.10","Mozilla/5.0 (iPhone; CPU iPhone OS 15_6_1 like Mac OS X) AppleWebKit/605.1.15 (KHTML, like Gecko) Mobile/15E148 MicroMessenger/8.0.29(0x18001d2e) NetType/WIFI Language/zh_CN","iPhone","Mozilla","","iOS","15_6_1","null","<div style=""font-size:60px;"">+</div>","null",""
"","","","","","html-button-response","61","190985","0.0-4.0-1.28","168","1","2022-10-10 03:15:34","ebf9627b049f568eb4bf28942cb89901","182.123.167.10","Mozilla/5.0 (iPhone; CPU iPhone OS 15_6_1 like Mac OS X) AppleWebKit/605.1.15 (KHTML, like Gecko) Mobile/15E148 MicroMessenger/8.0.29(0x18001d2e) NetType/WIFI Language/zh_CN","iPhone","Mozilla","","iOS","15_6_1","820","<p>作为军队的指挥官，你可以选择发射导弹杀死 <strong>2名</strong> 敌国士兵，但会误杀附近的 <strong>1名</strong> 敌国平民。</p> <p>平民照片如下图所示。</p> <p></p> <img src='stimuli/faces/NFF4.jpg', style='max-width: 30%;'> </img> <p><strong>你是否选择发射武器？</strong></p>","1",""
"","","","","","html-keyboard-response","62","191990","0.0-4.0-0.29","168","1","2022-10-10 03:15:34","ebf9627b049f568eb4bf28942cb89901","182.123.167.10","Mozilla/5.0 (iPhone; CPU iPhone OS 15_6_1 like Mac OS X) AppleWebKit/605.1.15 (KHTML, like Gecko) Mobile/15E148 MicroMessenger/8.0.29(0x18001d2e) NetType/WIFI Language/zh_CN","iPhone","Mozilla","","iOS","15_6_1","null","<div style=""font-size:60px;"">+</div>","null",""
"","","","","","html-button-response","63","192990","0.0-4.0-1.29","168","1","2022-10-10 03:15:34","ebf9627b049f568eb4bf28942cb89901","182.123.167.10","Mozilla/5.0 (iPhone; CPU iPhone OS 15_6_1 like Mac OS X) AppleWebKit/605.1.15 (KHTML, like Gecko) Mobile/15E148 MicroMessenger/8.0.29(0x18001d2e) NetType/WIFI Language/zh_CN","iPhone","Mozilla","","iOS","15_6_1","990","<p>作为军队的指挥官，你可以选择发射导弹杀死 <strong>5名</strong> 敌国士兵，但会炸毁附近的 <strong>1棵</strong> 敌国树木。</p> <p>树木的照片如下图所示。</p> <p></p> <img src='stimuli/trees/13.png', style='max-width: 30%;'> </img> <p><strong>你是否选择发射武器？</strong></p>","0",""
"","","","","","html-keyboard-response","64","193996","0.0-4.0-0.30","168","1","2022-10-10 03:15:34","ebf9627b049f568eb4bf28942cb89901","182.123.167.10","Mozilla/5.0 (iPhone; CPU iPhone OS 15_6_1 like Mac OS X) AppleWebKit/605.1.15 (KHTML, like Gecko) Mobile/15E148 MicroMessenger/8.0.29(0x18001d2e) NetType/WIFI Language/zh_CN","iPhone","Mozilla","","iOS","15_6_1","null","<div style=""font-size:60px;"">+</div>","null",""
"","","","","","html-button-response","65","195697","0.0-4.0-1.30","168","1","2022-10-10 03:15:34","ebf9627b049f568eb4bf28942cb89901","182.123.167.10","Mozilla/5.0 (iPhone; CPU iPhone OS 15_6_1 like Mac OS X) AppleWebKit/605.1.15 (KHTML, like Gecko) Mobile/15E148 MicroMessenger/8.0.29(0x18001d2e) NetType/WIFI Language/zh_CN","iPhone","Mozilla","","iOS","15_6_1","1685","<p>作为军队的指挥官，你可以选择发射导弹杀死 <strong>3名</strong> 敌国士兵，但会炸毁附近的 <strong>1棵</strong> 敌国树木。</p> <p>树木的照片如下图所示。</p> <p></p> <img src='stimuli/trees/5.png', style='max-width: 30%;'> </img> <p><strong>你是否选择发射武器？</strong></p>","0",""
"","","","","","html-keyboard-response","66","196705","0.0-4.0-0.31","168","1","2022-10-10 03:15:34","ebf9627b049f568eb4bf28942cb89901","182.123.167.10","Mozilla/5.0 (iPhone; CPU iPhone OS 15_6_1 like Mac OS X) AppleWebKit/605.1.15 (KHTML, like Gecko) Mobile/15E148 MicroMessenger/8.0.29(0x18001d2e) NetType/WIFI Language/zh_CN","iPhone","Mozilla","","iOS","15_6_1","null","<div style=""font-size:60px;"">+</div>","null",""
"","","","","","html-button-response","67","197745","0.0-4.0-1.31","168","1","2022-10-10 03:15:34","ebf9627b049f568eb4bf28942cb89901","182.123.167.10","Mozilla/5.0 (iPhone; CPU iPhone OS 15_6_1 like Mac OS X) AppleWebKit/605.1.15 (KHTML, like Gecko) Mobile/15E148 MicroMessenger/8.0.29(0x18001d2e) NetType/WIFI Language/zh_CN","iPhone","Mozilla","","iOS","15_6_1","1030","<p>作为军队的指挥官，你可以选择发射导弹杀死 <strong>2名</strong> 敌国士兵，但会炸毁附近的 <strong>1棵</strong> 敌国树木。</p> <p>树木的照片如下图所示。</p> <p></p> <img src='stimuli/trees/14.png', style='max-width: 30%;'> </img> <p><strong>你是否选择发射武器？</strong></p>","0",""
"","","","","","html-keyboard-response","68","198753","0.0-4.0-0.32","168","1","2022-10-10 03:15:34","ebf9627b049f568eb4bf28942cb89901","182.123.167.10","Mozilla/5.0 (iPhone; CPU iPhone OS 15_6_1 like Mac OS X) AppleWebKit/605.1.15 (KHTML, like Gecko) Mobile/15E148 MicroMessenger/8.0.29(0x18001d2e) NetType/WIFI Language/zh_CN","iPhone","Mozilla","","iOS","15_6_1","null","<div style=""font-size:60px;"">+</div>","null",""
"","","","","","html-button-response","69","201163","0.0-4.0-1.32","168","1","2022-10-10 03:15:34","ebf9627b049f568eb4bf28942cb89901","182.123.167.10","Mozilla/5.0 (iPhone; CPU iPhone OS 15_6_1 like Mac OS X) AppleWebKit/605.1.15 (KHTML, like Gecko) Mobile/15E148 MicroMessenger/8.0.29(0x18001d2e) NetType/WIFI Language/zh_CN","iPhone","Mozilla","","iOS","15_6_1","2400","<p>作为军队的指挥官，你可以选择发射导弹杀死 <strong>6名</strong> 敌国士兵，但会炸毁附近的 <strong>1棵</strong> 敌国树木。</p> <p>树木的照片如下图所示。</p> <p></p> <img src='stimuli/trees/5.png', style='max-width: 30%;'> </img> <p><strong>你是否选择发射武器？</strong></p>","0",""
"","","","","","html-keyboard-response","70","202171","0.0-4.0-0.33","168","1","2022-10-10 03:15:34","ebf9627b049f568eb4bf28942cb89901","182.123.167.10","Mozilla/5.0 (iPhone; CPU iPhone OS 15_6_1 like Mac OS X) AppleWebKit/605.1.15 (KHTML, like Gecko) Mobile/15E148 MicroMessenger/8.0.29(0x18001d2e) NetType/WIFI Language/zh_CN","iPhone","Mozilla","","iOS","15_6_1","null","<div style=""font-size:60px;"">+</div>","null",""
"","","","","","html-button-response","71","203197","0.0-4.0-1.33","168","1","2022-10-10 03:15:34","ebf9627b049f568eb4bf28942cb89901","182.123.167.10","Mozilla/5.0 (iPhone; CPU iPhone OS 15_6_1 like Mac OS X) AppleWebKit/605.1.15 (KHTML, like Gecko) Mobile/15E148 MicroMessenger/8.0.29(0x18001d2e) NetType/WIFI Language/zh_CN","iPhone","Mozilla","","iOS","15_6_1","1017","<p>作为军队的指挥官，你可以选择发射导弹杀死 <strong>3名</strong> 敌国士兵，但会炸毁附近的 <strong>1棵</strong> 敌国树木。</p> <p>树木的照片如下图所示。</p> <p></p> <img src='stimuli/trees/4.png', style='max-width: 30%;'> </img> <p><strong>你是否选择发射武器？</strong></p>","0",""
"","","","","","html-keyboard-response","72","204206","0.0-4.0-0.34","168","1","2022-10-10 03:15:34","ebf9627b049f568eb4bf28942cb89901","182.123.167.10","Mozilla/5.0 (iPhone; CPU iPhone OS 15_6_1 like Mac OS X) AppleWebKit/605.1.15 (KHTML, like Gecko) Mobile/15E148 MicroMessenger/8.0.29(0x18001d2e) NetType/WIFI Language/zh_CN","iPhone","Mozilla","","iOS","15_6_1","null","<div style=""font-size:60px;"">+</div>","null",""
"","","","","","html-button-response","73","205080","0.0-4.0-1.34","168","1","2022-10-10 03:15:34","ebf9627b049f568eb4bf28942cb89901","182.123.167.10","Mozilla/5.0 (iPhone; CPU iPhone OS 15_6_1 like Mac OS X) AppleWebKit/605.1.15 (KHTML, like Gecko) Mobile/15E148 MicroMessenger/8.0.29(0x18001d2e) NetType/WIFI Language/zh_CN","iPhone","Mozilla","","iOS","15_6_1","858","<p>作为军队的指挥官，你可以选择发射导弹杀死 <strong>2名</strong> 敌国士兵，但会炸毁附近的 <strong>1棵</strong> 敌国树木。</p> <p>树木的照片如下图所示。</p> <p></p> <img src='stimuli/trees/8.png', style='max-width: 30%;'> </img> <p><strong>你是否选择发射武器？</strong></p>","0",""
"","","","","","html-keyboard-response","74","206089","0.0-4.0-0.35","168","1","2022-10-10 03:15:34","ebf9627b049f568eb4bf28942cb89901","182.123.167.10","Mozilla/5.0 (iPhone; CPU iPhone OS 15_6_1 like Mac OS X) AppleWebKit/605.1.15 (KHTML, like Gecko) Mobile/15E148 MicroMessenger/8.0.29(0x18001d2e) NetType/WIFI Language/zh_CN","iPhone","Mozilla","","iOS","15_6_1","null","<div style=""font-size:60px;"">+</div>","null",""
"","","","","","html-button-response","75","207168","0.0-4.0-1.35","168","1","2022-10-10 03:15:34","ebf9627b049f568eb4bf28942cb89901","182.123.167.10","Mozilla/5.0 (iPhone; CPU iPhone OS 15_6_1 like Mac OS X) AppleWebKit/605.1.15 (KHTML, like Gecko) Mobile/15E148 MicroMessenger/8.0.29(0x18001d2e) NetType/WIFI Language/zh_CN","iPhone","Mozilla","","iOS","15_6_1","1072","<p>作为军队的指挥官，你可以选择发射导弹杀死 <strong>5名</strong> 敌国士兵，但会误杀附近的 <strong>1名</strong> 敌国平民。</p> <p>平民照片如下图所示。</p> <p></p> <img src='stimuli/faces/NFM6.jpg', style='max-width: 30%;'> </img> <p><strong>你是否选择发射武器？</strong></p>","1",""
"","","","","","html-keyboard-response","76","208174","0.0-4.0-0.36","168","1","2022-10-10 03:15:34","ebf9627b049f568eb4bf28942cb89901","182.123.167.10","Mozilla/5.0 (iPhone; CPU iPhone OS 15_6_1 like Mac OS X) AppleWebKit/605.1.15 (KHTML, like Gecko) Mobile/15E148 MicroMessenger/8.0.29(0x18001d2e) NetType/WIFI Language/zh_CN","iPhone","Mozilla","","iOS","15_6_1","null","<div style=""font-size:60px;"">+</div>","null",""
"","","","","","html-button-response","77","209331","0.0-4.0-1.36","168","1","2022-10-10 03:15:34","ebf9627b049f568eb4bf28942cb89901","182.123.167.10","Mozilla/5.0 (iPhone; CPU iPhone OS 15_6_1 like Mac OS X) AppleWebKit/605.1.15 (KHTML, like Gecko) Mobile/15E148 MicroMessenger/8.0.29(0x18001d2e) NetType/WIFI Language/zh_CN","iPhone","Mozilla","","iOS","15_6_1","1146","<p>作为军队的指挥官，你可以选择发射导弹杀死 <strong>6名</strong> 敌国士兵，但会炸毁附近的 <strong>1棵</strong> 敌国树木。</p> <p>树木的照片如下图所示。</p> <p></p> <img src='stimuli/trees/9.png', style='max-width: 30%;'> </img> <p><strong>你是否选择发射武器？</strong></p>","0",""
"","","","","","html-keyboard-response","78","210341","0.0-4.0-0.37","168","1","2022-10-10 03:15:34","ebf9627b049f568eb4bf28942cb89901","182.123.167.10","Mozilla/5.0 (iPhone; CPU iPhone OS 15_6_1 like Mac OS X) AppleWebKit/605.1.15 (KHTML, like Gecko) Mobile/15E148 MicroMessenger/8.0.29(0x18001d2e) NetType/WIFI Language/zh_CN","iPhone","Mozilla","","iOS","15_6_1","null","<div style=""font-size:60px;"">+</div>","null",""
"","","","","","html-button-response","79","211147","0.0-4.0-1.37","168","1","2022-10-10 03:15:34","ebf9627b049f568eb4bf28942cb89901","182.123.167.10","Mozilla/5.0 (iPhone; CPU iPhone OS 15_6_1 like Mac OS X) AppleWebKit/605.1.15 (KHTML, like Gecko) Mobile/15E148 MicroMessenger/8.0.29(0x18001d2e) NetType/WIFI Language/zh_CN","iPhone","Mozilla","","iOS","15_6_1","795","<p>作为军队的指挥官，你可以选择发射导弹杀死 <strong>2名</strong> 敌国士兵，但会炸毁附近的 <strong>1棵</strong> 敌国树木。</p> <p>树木的照片如下图所示。</p> <p></p> <img src='stimuli/trees/6.png', style='max-width: 30%;'> </img> <p><strong>你是否选择发射武器？</strong></p>","0",""
"","","","","","html-keyboard-response","80","212155","0.0-4.0-0.38","168","1","2022-10-10 03:15:34","ebf9627b049f568eb4bf28942cb89901","182.123.167.10","Mozilla/5.0 (iPhone; CPU iPhone OS 15_6_1 like Mac OS X) AppleWebKit/605.1.15 (KHTML, like Gecko) Mobile/15E148 MicroMessenger/8.0.29(0x18001d2e) NetType/WIFI Language/zh_CN","iPhone","Mozilla","","iOS","15_6_1","null","<div style=""font-size:60px;"">+</div>","null",""
"","","","","","html-button-response","81","213054","0.0-4.0-1.38","168","1","2022-10-10 03:15:34","ebf9627b049f568eb4bf28942cb89901","182.123.167.10","Mozilla/5.0 (iPhone; CPU iPhone OS 15_6_1 like Mac OS X) AppleWebKit/605.1.15 (KHTML, like Gecko) Mobile/15E148 MicroMessenger/8.0.29(0x18001d2e) NetType/WIFI Language/zh_CN","iPhone","Mozilla","","iOS","15_6_1","881","<p>作为军队的指挥官，你可以选择发射导弹杀死 <strong>10名</strong> 敌国士兵，但会误杀附近的 <strong>1名</strong> 敌国平民。</p> <p>平民照片如下图所示。</p> <p></p> <img src='stimuli/faces/NFF6.jpg', style='max-width: 30%;'> </img> <p><strong>你是否选择发射武器？</strong></p>","1",""
"","","","","","html-keyboard-response","82","214060","0.0-4.0-0.39","168","1","2022-10-10 03:15:34","ebf9627b049f568eb4bf28942cb89901","182.123.167.10","Mozilla/5.0 (iPhone; CPU iPhone OS 15_6_1 like Mac OS X) AppleWebKit/605.1.15 (KHTML, like Gecko) Mobile/15E148 MicroMessenger/8.0.29(0x18001d2e) NetType/WIFI Language/zh_CN","iPhone","Mozilla","","iOS","15_6_1","null","<div style=""font-size:60px;"">+</div>","null",""
"","","","","","html-button-response","83","215089","0.0-4.0-1.39","168","1","2022-10-10 03:15:34","ebf9627b049f568eb4bf28942cb89901","182.123.167.10","Mozilla/5.0 (iPhone; CPU iPhone OS 15_6_1 like Mac OS X) AppleWebKit/605.1.15 (KHTML, like Gecko) Mobile/15E148 MicroMessenger/8.0.29(0x18001d2e) NetType/WIFI Language/zh_CN","iPhone","Mozilla","","iOS","15_6_1","1021","<p>作为军队的指挥官，你可以选择发射导弹杀死 <strong>1名</strong> 敌国士兵，但会炸毁附近的 <strong>1棵</strong> 敌国树木。</p> <p>树木的照片如下图所示。</p> <p></p> <img src='stimuli/trees/11.png', style='max-width: 30%;'> </img> <p><strong>你是否选择发射武器？</strong></p>","0",""
"","","","","","html-keyboard-response","84","216095","0.0-4.0-0.40","168","1","2022-10-10 03:15:34","ebf9627b049f568eb4bf28942cb89901","182.123.167.10","Mozilla/5.0 (iPhone; CPU iPhone OS 15_6_1 like Mac OS X) AppleWebKit/605.1.15 (KHTML, like Gecko) Mobile/15E148 MicroMessenger/8.0.29(0x18001d2e) NetType/WIFI Language/zh_CN","iPhone","Mozilla","","iOS","15_6_1","null","<div style=""font-size:60px;"">+</div>","null",""
"","","","","","html-button-response","85","219890","0.0-4.0-1.40","168","1","2022-10-10 03:15:34","ebf9627b049f568eb4bf28942cb89901","182.123.167.10","Mozilla/5.0 (iPhone; CPU iPhone OS 15_6_1 like Mac OS X) AppleWebKit/605.1.15 (KHTML, like Gecko) Mobile/15E148 MicroMessenger/8.0.29(0x18001d2e) NetType/WIFI Language/zh_CN","iPhone","Mozilla","","iOS","15_6_1","3784","<p>作为军队的指挥官，你可以选择发射导弹杀死 <strong>6名</strong> 敌国士兵，但会误杀附近的 <strong>1名</strong> 敌国平民。</p> <p>平民照片如下图所示。</p> <p></p> <img src='stimuli/faces/NFF7.jpg', style='max-width: 30%;'> </img> <p><strong>你是否选择发射武器？</strong></p>","1",""
"","","","","","html-keyboard-response","86","220896","0.0-4.0-0.41","168","1","2022-10-10 03:15:34","ebf9627b049f568eb4bf28942cb89901","182.123.167.10","Mozilla/5.0 (iPhone; CPU iPhone OS 15_6_1 like Mac OS X) AppleWebKit/605.1.15 (KHTML, like Gecko) Mobile/15E148 MicroMessenger/8.0.29(0x18001d2e) NetType/WIFI Language/zh_CN","iPhone","Mozilla","","iOS","15_6_1","null","<div style=""font-size:60px;"">+</div>","null",""
"","","","","","html-button-response","87","222938","0.0-4.0-1.41","168","1","2022-10-10 03:15:34","ebf9627b049f568eb4bf28942cb89901","182.123.167.10","Mozilla/5.0 (iPhone; CPU iPhone OS 15_6_1 like Mac OS X) AppleWebKit/605.1.15 (KHTML, like Gecko) Mobile/15E148 MicroMessenger/8.0.29(0x18001d2e) NetType/WIFI Language/zh_CN","iPhone","Mozilla","","iOS","15_6_1","2030","<p>作为军队的指挥官，你可以选择发射导弹杀死 <strong>1名</strong> 敌国士兵，但会炸毁附近的 <strong>1棵</strong> 敌国树木。</p> <p>树木的照片如下图所示。</p> <p></p> <img src='stimuli/trees/7.png', style='max-width: 30%;'> </img> <p><strong>你是否选择发射武器？</strong></p>","0",""
"","","","","","html-keyboard-response","88","223944","0.0-4.0-0.42","168","1","2022-10-10 03:15:34","ebf9627b049f568eb4bf28942cb89901","182.123.167.10","Mozilla/5.0 (iPhone; CPU iPhone OS 15_6_1 like Mac OS X) AppleWebKit/605.1.15 (KHTML, like Gecko) Mobile/15E148 MicroMessenger/8.0.29(0x18001d2e) NetType/WIFI Language/zh_CN","iPhone","Mozilla","","iOS","15_6_1","null","<div style=""font-size:60px;"">+</div>","null",""
"","","","","","html-button-response","89","225679","0.0-4.0-1.42","168","1","2022-10-10 03:15:34","ebf9627b049f568eb4bf28942cb89901","182.123.167.10","Mozilla/5.0 (iPhone; CPU iPhone OS 15_6_1 like Mac OS X) AppleWebKit/605.1.15 (KHTML, like Gecko) Mobile/15E148 MicroMessenger/8.0.29(0x18001d2e) NetType/WIFI Language/zh_CN","iPhone","Mozilla","","iOS","15_6_1","1723","<p>作为军队的指挥官，你可以选择发射导弹杀死 <strong>9名</strong> 敌国士兵，但会炸毁附近的 <strong>1棵</strong> 敌国树木。</p> <p>树木的照片如下图所示。</p> <p></p> <img src='stimuli/trees/6.png', style='max-width: 30%;'> </img> <p><strong>你是否选择发射武器？</strong></p>","0",""
"","","","","","html-keyboard-response","90","226687","0.0-4.0-0.43","168","1","2022-10-10 03:15:34","ebf9627b049f568eb4bf28942cb89901","182.123.167.10","Mozilla/5.0 (iPhone; CPU iPhone OS 15_6_1 like Mac OS X) AppleWebKit/605.1.15 (KHTML, like Gecko) Mobile/15E148 MicroMessenger/8.0.29(0x18001d2e) NetType/WIFI Language/zh_CN","iPhone","Mozilla","","iOS","15_6_1","null","<div style=""font-size:60px;"">+</div>","null",""
"","","","","","html-button-response","91","227850","0.0-4.0-1.43","168","1","2022-10-10 03:15:34","ebf9627b049f568eb4bf28942cb89901","182.123.167.10","Mozilla/5.0 (iPhone; CPU iPhone OS 15_6_1 like Mac OS X) AppleWebKit/605.1.15 (KHTML, like Gecko) Mobile/15E148 MicroMessenger/8.0.29(0x18001d2e) NetType/WIFI Language/zh_CN","iPhone","Mozilla","","iOS","15_6_1","1146","<p>作为军队的指挥官，你可以选择发射导弹杀死 <strong>1名</strong> 敌国士兵，但会误杀附近的 <strong>1名</strong> 敌国平民。</p> <p>平民照片如下图所示。</p> <p></p> <img src='stimuli/faces/NFM4.jpg', style='max-width: 30%;'> </img> <p><strong>你是否选择发射武器？</strong></p>","1",""
"","","","","","html-keyboard-response","92","228859","0.0-4.0-0.44","168","1","2022-10-10 03:15:34","ebf9627b049f568eb4bf28942cb89901","182.123.167.10","Mozilla/5.0 (iPhone; CPU iPhone OS 15_6_1 like Mac OS X) AppleWebKit/605.1.15 (KHTML, like Gecko) Mobile/15E148 MicroMessenger/8.0.29(0x18001d2e) NetType/WIFI Language/zh_CN","iPhone","Mozilla","","iOS","15_6_1","null","<div style=""font-size:60px;"">+</div>","null",""
"","","","","","html-button-response","93","229767","0.0-4.0-1.44","168","1","2022-10-10 03:15:34","ebf9627b049f568eb4bf28942cb89901","182.123.167.10","Mozilla/5.0 (iPhone; CPU iPhone OS 15_6_1 like Mac OS X) AppleWebKit/605.1.15 (KHTML, like Gecko) Mobile/15E148 MicroMessenger/8.0.29(0x18001d2e) NetType/WIFI Language/zh_CN","iPhone","Mozilla","","iOS","15_6_1","896","<p>作为军队的指挥官，你可以选择发射导弹杀死 <strong>8名</strong> 敌国士兵，但会误杀附近的 <strong>1名</strong> 敌国平民。</p> <p>平民照片如下图所示。</p> <p></p> <img src='stimuli/faces/NFM5.jpg', style='max-width: 30%;'> </img> <p><strong>你是否选择发射武器？</strong></p>","1",""
"","","","","","html-keyboard-response","94","230777","0.0-4.0-0.45","168","1","2022-10-10 03:15:34","ebf9627b049f568eb4bf28942cb89901","182.123.167.10","Mozilla/5.0 (iPhone; CPU iPhone OS 15_6_1 like Mac OS X) AppleWebKit/605.1.15 (KHTML, like Gecko) Mobile/15E148 MicroMessenger/8.0.29(0x18001d2e) NetType/WIFI Language/zh_CN","iPhone","Mozilla","","iOS","15_6_1","null","<div style=""font-size:60px;"">+</div>","null",""
"","","","","","html-button-response","95","231749","0.0-4.0-1.45","168","1","2022-10-10 03:15:34","ebf9627b049f568eb4bf28942cb89901","182.123.167.10","Mozilla/5.0 (iPhone; CPU iPhone OS 15_6_1 like Mac OS X) AppleWebKit/605.1.15 (KHTML, like Gecko) Mobile/15E148 MicroMessenger/8.0.29(0x18001d2e) NetType/WIFI Language/zh_CN","iPhone","Mozilla","","iOS","15_6_1","963","<p>作为军队的指挥官，你可以选择发射导弹杀死 <strong>1名</strong> 敌国士兵，但会误杀附近的 <strong>1名</strong> 敌国平民。</p> <p>平民照片如下图所示。</p> <p></p> <img src='stimuli/faces/NFF8.jpg', style='max-width: 30%;'> </img> <p><strong>你是否选择发射武器？</strong></p>","1",""
"","","","","","html-keyboard-response","96","232758","0.0-4.0-0.46","168","1","2022-10-10 03:15:34","ebf9627b049f568eb4bf28942cb89901","182.123.167.10","Mozilla/5.0 (iPhone; CPU iPhone OS 15_6_1 like Mac OS X) AppleWebKit/605.1.15 (KHTML, like Gecko) Mobile/15E148 MicroMessenger/8.0.29(0x18001d2e) NetType/WIFI Language/zh_CN","iPhone","Mozilla","","iOS","15_6_1","null","<div style=""font-size:60px;"">+</div>","null",""
"","","","","","html-button-response","97","234947","0.0-4.0-1.46","168","1","2022-10-10 03:15:34","ebf9627b049f568eb4bf28942cb89901","182.123.167.10","Mozilla/5.0 (iPhone; CPU iPhone OS 15_6_1 like Mac OS X) AppleWebKit/605.1.15 (KHTML, like Gecko) Mobile/15E148 MicroMessenger/8.0.29(0x18001d2e) NetType/WIFI Language/zh_CN","iPhone","Mozilla","","iOS","15_6_1","2170","<p>作为军队的指挥官，你可以选择发射导弹杀死 <strong>7名</strong> 敌国士兵，但会炸毁附近的 <strong>1棵</strong> 敌国树木。</p> <p>树木的照片如下图所示。</p> <p></p> <img src='stimuli/trees/1.png', style='max-width: 30%;'> </img> <p><strong>你是否选择发射武器？</strong></p>","0",""
"","","","","","html-keyboard-response","98","235955","0.0-4.0-0.47","168","1","2022-10-10 03:15:34","ebf9627b049f568eb4bf28942cb89901","182.123.167.10","Mozilla/5.0 (iPhone; CPU iPhone OS 15_6_1 like Mac OS X) AppleWebKit/605.1.15 (KHTML, like Gecko) Mobile/15E148 MicroMessenger/8.0.29(0x18001d2e) NetType/WIFI Language/zh_CN","iPhone","Mozilla","","iOS","15_6_1","null","<div style=""font-size:60px;"">+</div>","null",""
"","","","","","html-button-response","99","237155","0.0-4.0-1.47","168","1","2022-10-10 03:15:34","ebf9627b049f568eb4bf28942cb89901","182.123.167.10","Mozilla/5.0 (iPhone; CPU iPhone OS 15_6_1 like Mac OS X) AppleWebKit/605.1.15 (KHTML, like Gecko) Mobile/15E148 MicroMessenger/8.0.29(0x18001d2e) NetType/WIFI Language/zh_CN","iPhone","Mozilla","","iOS","15_6_1","1188","<p>作为军队的指挥官，你可以选择发射导弹杀死 <strong>7名</strong> 敌国士兵，但会误杀附近的 <strong>1名</strong> 敌国平民。</p> <p>平民照片如下图所示。</p> <p></p> <img src='stimuli/faces/NFM2.jpg', style='max-width: 30%;'> </img> <p><strong>你是否选择发射武器？</strong></p>","1",""
"","","","","","html-keyboard-response","100","238161","0.0-4.0-0.48","168","1","2022-10-10 03:15:34","ebf9627b049f568eb4bf28942cb89901","182.123.167.10","Mozilla/5.0 (iPhone; CPU iPhone OS 15_6_1 like Mac OS X) AppleWebKit/605.1.15 (KHTML, like Gecko) Mobile/15E148 MicroMessenger/8.0.29(0x18001d2e) NetType/WIFI Language/zh_CN","iPhone","Mozilla","","iOS","15_6_1","null","<div style=""font-size:60px;"">+</div>","null",""
"","","","","","html-button-response","101","239203","0.0-4.0-1.48","168","1","2022-10-10 03:15:34","ebf9627b049f568eb4bf28942cb89901","182.123.167.10","Mozilla/5.0 (iPhone; CPU iPhone OS 15_6_1 like Mac OS X) AppleWebKit/605.1.15 (KHTML, like Gecko) Mobile/15E148 MicroMessenger/8.0.29(0x18001d2e) NetType/WIFI Language/zh_CN","iPhone","Mozilla","","iOS","15_6_1","1030","<p>作为军队的指挥官，你可以选择发射导弹杀死 <strong>2名</strong> 敌国士兵，但会误杀附近的 <strong>1名</strong> 敌国平民。</p> <p>平民照片如下图所示。</p> <p></p> <img src='stimuli/faces/NFF3.jpg', style='max-width: 30%;'> </img> <p><strong>你是否选择发射武器？</strong></p>","1",""
"","","","","","html-keyboard-response","102","240211","0.0-4.0-0.49","168","1","2022-10-10 03:15:34","ebf9627b049f568eb4bf28942cb89901","182.123.167.10","Mozilla/5.0 (iPhone; CPU iPhone OS 15_6_1 like Mac OS X) AppleWebKit/605.1.15 (KHTML, like Gecko) Mobile/15E148 MicroMessenger/8.0.29(0x18001d2e) NetType/WIFI Language/zh_CN","iPhone","Mozilla","","iOS","15_6_1","null","<div style=""font-size:60px;"">+</div>","null",""
"","","","","","html-button-response","103","241104","0.0-4.0-1.49","168","1","2022-10-10 03:15:34","ebf9627b049f568eb4bf28942cb89901","182.123.167.10","Mozilla/5.0 (iPhone; CPU iPhone OS 15_6_1 like Mac OS X) AppleWebKit/605.1.15 (KHTML, like Gecko) Mobile/15E148 MicroMessenger/8.0.29(0x18001d2e) NetType/WIFI Language/zh_CN","iPhone","Mozilla","","iOS","15_6_1","887","<p>作为军队的指挥官，你可以选择发射导弹杀死 <strong>3名</strong> 敌国士兵，但会误杀附近的 <strong>1名</strong> 敌国平民。</p> <p>平民照片如下图所示。</p> <p></p> <img src='stimuli/faces/NFM2.jpg', style='max-width: 30%;'> </img> <p><strong>你是否选择发射武器？</strong></p>","1",""
"","","","","","html-keyboard-response","104","242111","0.0-4.0-0.50","168","1","2022-10-10 03:15:34","ebf9627b049f568eb4bf28942cb89901","182.123.167.10","Mozilla/5.0 (iPhone; CPU iPhone OS 15_6_1 like Mac OS X) AppleWebKit/605.1.15 (KHTML, like Gecko) Mobile/15E148 MicroMessenger/8.0.29(0x18001d2e) NetType/WIFI Language/zh_CN","iPhone","Mozilla","","iOS","15_6_1","null","<div style=""font-size:60px;"">+</div>","null",""
"","","","","","html-button-response","105","243087","0.0-4.0-1.50","168","1","2022-10-10 03:15:34","ebf9627b049f568eb4bf28942cb89901","182.123.167.10","Mozilla/5.0 (iPhone; CPU iPhone OS 15_6_1 like Mac OS X) AppleWebKit/605.1.15 (KHTML, like Gecko) Mobile/15E148 MicroMessenger/8.0.29(0x18001d2e) NetType/WIFI Language/zh_CN","iPhone","Mozilla","","iOS","15_6_1","956","<p>作为军队的指挥官，你可以选择发射导弹杀死 <strong>3名</strong> 敌国士兵，但会误杀附近的 <strong>1名</strong> 敌国平民。</p> <p>平民照片如下图所示。</p> <p></p> <img src='stimuli/faces/NFM5.jpg', style='max-width: 30%;'> </img> <p><strong>你是否选择发射武器？</strong></p>","1",""
"","","","","","html-keyboard-response","106","244093","0.0-4.0-0.51","168","1","2022-10-10 03:15:34","ebf9627b049f568eb4bf28942cb89901","182.123.167.10","Mozilla/5.0 (iPhone; CPU iPhone OS 15_6_1 like Mac OS X) AppleWebKit/605.1.15 (KHTML, like Gecko) Mobile/15E148 MicroMessenger/8.0.29(0x18001d2e) NetType/WIFI Language/zh_CN","iPhone","Mozilla","","iOS","15_6_1","null","<div style=""font-size:60px;"">+</div>","null",""
"","","","","","html-button-response","107","245339","0.0-4.0-1.51","168","1","2022-10-10 03:15:34","ebf9627b049f568eb4bf28942cb89901","182.123.167.10","Mozilla/5.0 (iPhone; CPU iPhone OS 15_6_1 like Mac OS X) AppleWebKit/605.1.15 (KHTML, like Gecko) Mobile/15E148 MicroMessenger/8.0.29(0x18001d2e) NetType/WIFI Language/zh_CN","iPhone","Mozilla","","iOS","15_6_1","1233","<p>作为军队的指挥官，你可以选择发射导弹杀死 <strong>5名</strong> 敌国士兵，但会炸毁附近的 <strong>1棵</strong> 敌国树木。</p> <p>树木的照片如下图所示。</p> <p></p> <img src='stimuli/trees/10.png', style='max-width: 30%;'> </img> <p><strong>你是否选择发射武器？</strong></p>","0",""
"","","","","","html-keyboard-response","108","246348","0.0-4.0-0.52","168","1","2022-10-10 03:15:34","ebf9627b049f568eb4bf28942cb89901","182.123.167.10","Mozilla/5.0 (iPhone; CPU iPhone OS 15_6_1 like Mac OS X) AppleWebKit/605.1.15 (KHTML, like Gecko) Mobile/15E148 MicroMessenger/8.0.29(0x18001d2e) NetType/WIFI Language/zh_CN","iPhone","Mozilla","","iOS","15_6_1","null","<div style=""font-size:60px;"">+</div>","null",""
"","","","","","html-button-response","109","248927","0.0-4.0-1.52","168","1","2022-10-10 03:15:34","ebf9627b049f568eb4bf28942cb89901","182.123.167.10","Mozilla/5.0 (iPhone; CPU iPhone OS 15_6_1 like Mac OS X) AppleWebKit/605.1.15 (KHTML, like Gecko) Mobile/15E148 MicroMessenger/8.0.29(0x18001d2e) NetType/WIFI Language/zh_CN","iPhone","Mozilla","","iOS","15_6_1","2568","<p>作为军队的指挥官，你可以选择发射导弹杀死 <strong>3名</strong> 敌国士兵，但会误杀附近的 <strong>1名</strong> 敌国平民。</p> <p>平民照片如下图所示。</p> <p></p> <img src='stimuli/faces/NFM8.jpg', style='max-width: 30%;'> </img> <p><strong>你是否选择发射武器？</strong></p>","0",""
"","","","","","html-keyboard-response","110","249936","0.0-4.0-0.53","168","1","2022-10-10 03:15:34","ebf9627b049f568eb4bf28942cb89901","182.123.167.10","Mozilla/5.0 (iPhone; CPU iPhone OS 15_6_1 like Mac OS X) AppleWebKit/605.1.15 (KHTML, like Gecko) Mobile/15E148 MicroMessenger/8.0.29(0x18001d2e) NetType/WIFI Language/zh_CN","iPhone","Mozilla","","iOS","15_6_1","null","<div style=""font-size:60px;"">+</div>","null",""
"","","","","","html-button-response","111","251022","0.0-4.0-1.53","168","1","2022-10-10 03:15:34","ebf9627b049f568eb4bf28942cb89901","182.123.167.10","Mozilla/5.0 (iPhone; CPU iPhone OS 15_6_1 like Mac OS X) AppleWebKit/605.1.15 (KHTML, like Gecko) Mobile/15E148 MicroMessenger/8.0.29(0x18001d2e) NetType/WIFI Language/zh_CN","iPhone","Mozilla","","iOS","15_6_1","1077","<p>作为军队的指挥官，你可以选择发射导弹杀死 <strong>3名</strong> 敌国士兵，但会炸毁附近的 <strong>1棵</strong> 敌国树木。</p> <p>树木的照片如下图所示。</p> <p></p> <img src='stimuli/trees/3.png', style='max-width: 30%;'> </img> <p><strong>你是否选择发射武器？</strong></p>","0",""
"","","","","","html-keyboard-response","112","252031","0.0-4.0-0.54","168","1","2022-10-10 03:15:34","ebf9627b049f568eb4bf28942cb89901","182.123.167.10","Mozilla/5.0 (iPhone; CPU iPhone OS 15_6_1 like Mac OS X) AppleWebKit/605.1.15 (KHTML, like Gecko) Mobile/15E148 MicroMessenger/8.0.29(0x18001d2e) NetType/WIFI Language/zh_CN","iPhone","Mozilla","","iOS","15_6_1","null","<div style=""font-size:60px;"">+</div>","null",""
"","","","","","html-button-response","113","253387","0.0-4.0-1.54","168","1","2022-10-10 03:15:34","ebf9627b049f568eb4bf28942cb89901","182.123.167.10","Mozilla/5.0 (iPhone; CPU iPhone OS 15_6_1 like Mac OS X) AppleWebKit/605.1.15 (KHTML, like Gecko) Mobile/15E148 MicroMessenger/8.0.29(0x18001d2e) NetType/WIFI Language/zh_CN","iPhone","Mozilla","","iOS","15_6_1","1343","<p>作为军队的指挥官，你可以选择发射导弹杀死 <strong>9名</strong> 敌国士兵，但会误杀附近的 <strong>1名</strong> 敌国平民。</p> <p>平民照片如下图所示。</p> <p></p> <img src='stimuli/faces/NFF4.jpg', style='max-width: 30%;'> </img> <p><strong>你是否选择发射武器？</strong></p>","1",""
"","","","","","html-keyboard-response","114","254393","0.0-4.0-0.55","168","1","2022-10-10 03:15:34","ebf9627b049f568eb4bf28942cb89901","182.123.167.10","Mozilla/5.0 (iPhone; CPU iPhone OS 15_6_1 like Mac OS X) AppleWebKit/605.1.15 (KHTML, like Gecko) Mobile/15E148 MicroMessenger/8.0.29(0x18001d2e) NetType/WIFI Language/zh_CN","iPhone","Mozilla","","iOS","15_6_1","null","<div style=""font-size:60px;"">+</div>","null",""
"","","","","","html-button-response","115","256192","0.0-4.0-1.55","168","1","2022-10-10 03:15:34","ebf9627b049f568eb4bf28942cb89901","182.123.167.10","Mozilla/5.0 (iPhone; CPU iPhone OS 15_6_1 like Mac OS X) AppleWebKit/605.1.15 (KHTML, like Gecko) Mobile/15E148 MicroMessenger/8.0.29(0x18001d2e) NetType/WIFI Language/zh_CN","iPhone","Mozilla","","iOS","15_6_1","1789","<p>作为军队的指挥官，你可以选择发射导弹杀死 <strong>7名</strong> 敌国士兵，但会炸毁附近的 <strong>1棵</strong> 敌国树木。</p> <p>树木的照片如下图所示。</p> <p></p> <img src='stimuli/trees/14.png', style='max-width: 30%;'> </img> <p><strong>你是否选择发射武器？</strong></p>","0",""
"","","","","","html-keyboard-response","116","257197","0.0-4.0-0.56","168","1","2022-10-10 03:15:34","ebf9627b049f568eb4bf28942cb89901","182.123.167.10","Mozilla/5.0 (iPhone; CPU iPhone OS 15_6_1 like Mac OS X) AppleWebKit/605.1.15 (KHTML, like Gecko) Mobile/15E148 MicroMessenger/8.0.29(0x18001d2e) NetType/WIFI Language/zh_CN","iPhone","Mozilla","","iOS","15_6_1","null","<div style=""font-size:60px;"">+</div>","null",""
"","","","","","html-button-response","117","258109","0.0-4.0-1.56","168","1","2022-10-10 03:15:34","ebf9627b049f568eb4bf28942cb89901","182.123.167.10","Mozilla/5.0 (iPhone; CPU iPhone OS 15_6_1 like Mac OS X) AppleWebKit/605.1.15 (KHTML, like Gecko) Mobile/15E148 MicroMessenger/8.0.29(0x18001d2e) NetType/WIFI Language/zh_CN","iPhone","Mozilla","","iOS","15_6_1","899","<p>作为军队的指挥官，你可以选择发射导弹杀死 <strong>6名</strong> 敌国士兵，但会炸毁附近的 <strong>1棵</strong> 敌国树木。</p> <p>树木的照片如下图所示。</p> <p></p> <img src='stimuli/trees/3.png', style='max-width: 30%;'> </img> <p><strong>你是否选择发射武器？</strong></p>","0",""
"","","","","","html-keyboard-response","118","259117","0.0-4.0-0.57","168","1","2022-10-10 03:15:34","ebf9627b049f568eb4bf28942cb89901","182.123.167.10","Mozilla/5.0 (iPhone; CPU iPhone OS 15_6_1 like Mac OS X) AppleWebKit/605.1.15 (KHTML, like Gecko) Mobile/15E148 MicroMessenger/8.0.29(0x18001d2e) NetType/WIFI Language/zh_CN","iPhone","Mozilla","","iOS","15_6_1","null","<div style=""font-size:60px;"">+</div>","null",""
"","","","","","html-button-response","119","260420","0.0-4.0-1.57","168","1","2022-10-10 03:15:34","ebf9627b049f568eb4bf28942cb89901","182.123.167.10","Mozilla/5.0 (iPhone; CPU iPhone OS 15_6_1 like Mac OS X) AppleWebKit/605.1.15 (KHTML, like Gecko) Mobile/15E148 MicroMessenger/8.0.29(0x18001d2e) NetType/WIFI Language/zh_CN","iPhone","Mozilla","","iOS","15_6_1","1292","<p>作为军队的指挥官，你可以选择发射导弹杀死 <strong>10名</strong> 敌国士兵，但会误杀附近的 <strong>1名</strong> 敌国平民。</p> <p>平民照片如下图所示。</p> <p></p> <img src='stimuli/faces/NFM7.jpg', style='max-width: 30%;'> </img> <p><strong>你是否选择发射武器？</strong></p>","1",""
"","","","","","html-keyboard-response","120","261428","0.0-4.0-0.58","168","1","2022-10-10 03:15:34","ebf9627b049f568eb4bf28942cb89901","182.123.167.10","Mozilla/5.0 (iPhone; CPU iPhone OS 15_6_1 like Mac OS X) AppleWebKit/605.1.15 (KHTML, like Gecko) Mobile/15E148 MicroMessenger/8.0.29(0x18001d2e) NetType/WIFI Language/zh_CN","iPhone","Mozilla","","iOS","15_6_1","null","<div style=""font-size:60px;"">+</div>","null",""
"","","","","","html-button-response","121","262069","0.0-4.0-1.58","168","1","2022-10-10 03:15:34","ebf9627b049f568eb4bf28942cb89901","182.123.167.10","Mozilla/5.0 (iPhone; CPU iPhone OS 15_6_1 like Mac OS X) AppleWebKit/605.1.15 (KHTML, like Gecko) Mobile/15E148 MicroMessenger/8.0.29(0x18001d2e) NetType/WIFI Language/zh_CN","iPhone","Mozilla","","iOS","15_6_1","626","<p>作为军队的指挥官，你可以选择发射导弹杀死 <strong>8名</strong> 敌国士兵，但会误杀附近的 <strong>1名</strong> 敌国平民。</p> <p>平民照片如下图所示。</p> <p></p> <img src='stimuli/faces/NFM3.jpg', style='max-width: 30%;'> </img> <p><strong>你是否选择发射武器？</strong></p>","1",""
"","","","","","html-keyboard-response","122","263078","0.0-4.0-0.59","168","1","2022-10-10 03:15:34","ebf9627b049f568eb4bf28942cb89901","182.123.167.10","Mozilla/5.0 (iPhone; CPU iPhone OS 15_6_1 like Mac OS X) AppleWebKit/605.1.15 (KHTML, like Gecko) Mobile/15E148 MicroMessenger/8.0.29(0x18001d2e) NetType/WIFI Language/zh_CN","iPhone","Mozilla","","iOS","15_6_1","null","<div style=""font-size:60px;"">+</div>","null",""
"","","","","","html-button-response","123","264006","0.0-4.0-1.59","168","1","2022-10-10 03:15:34","ebf9627b049f568eb4bf28942cb89901","182.123.167.10","Mozilla/5.0 (iPhone; CPU iPhone OS 15_6_1 like Mac OS X) AppleWebKit/605.1.15 (KHTML, like Gecko) Mobile/15E148 MicroMessenger/8.0.29(0x18001d2e) NetType/WIFI Language/zh_CN","iPhone","Mozilla","","iOS","15_6_1","917","<p>作为军队的指挥官，你可以选择发射导弹杀死 <strong>5名</strong> 敌国士兵，但会炸毁附近的 <strong>1棵</strong> 敌国树木。</p> <p>树木的照片如下图所示。</p> <p></p> <img src='stimuli/trees/9.png', style='max-width: 30%;'> </img> <p><strong>你是否选择发射武器？</strong></p>","0",""
"","","","","","html-keyboard-response","124","265013","0.0-4.0-0.60","168","1","2022-10-10 03:15:34","ebf9627b049f568eb4bf28942cb89901","182.123.167.10","Mozilla/5.0 (iPhone; CPU iPhone OS 15_6_1 like Mac OS X) AppleWebKit/605.1.15 (KHTML, like Gecko) Mobile/15E148 MicroMessenger/8.0.29(0x18001d2e) NetType/WIFI Language/zh_CN","iPhone","Mozilla","","iOS","15_6_1","null","<div style=""font-size:60px;"">+</div>","null",""
"","","","","","html-button-response","125","266053","0.0-4.0-1.60","168","1","2022-10-10 03:15:34","ebf9627b049f568eb4bf28942cb89901","182.123.167.10","Mozilla/5.0 (iPhone; CPU iPhone OS 15_6_1 like Mac OS X) AppleWebKit/605.1.15 (KHTML, like Gecko) Mobile/15E148 MicroMessenger/8.0.29(0x18001d2e) NetType/WIFI Language/zh_CN","iPhone","Mozilla","","iOS","15_6_1","1021","<p>作为军队的指挥官，你可以选择发射导弹杀死 <strong>2名</strong> 敌国士兵，但会炸毁附近的 <strong>1棵</strong> 敌国树木。</p> <p>树木的照片如下图所示。</p> <p></p> <img src='stimuli/trees/1.png', style='max-width: 30%;'> </img> <p><strong>你是否选择发射武器？</strong></p>","0",""
"","","","","","html-keyboard-response","126","267061","0.0-4.0-0.61","168","1","2022-10-10 03:15:34","ebf9627b049f568eb4bf28942cb89901","182.123.167.10","Mozilla/5.0 (iPhone; CPU iPhone OS 15_6_1 like Mac OS X) AppleWebKit/605.1.15 (KHTML, like Gecko) Mobile/15E148 MicroMessenger/8.0.29(0x18001d2e) NetType/WIFI Language/zh_CN","iPhone","Mozilla","","iOS","15_6_1","null","<div style=""font-size:60px;"">+</div>","null",""
"","","","","","html-button-response","127","267946","0.0-4.0-1.61","168","1","2022-10-10 03:15:34","ebf9627b049f568eb4bf28942cb89901","182.123.167.10","Mozilla/5.0 (iPhone; CPU iPhone OS 15_6_1 like Mac OS X) AppleWebKit/605.1.15 (KHTML, like Gecko) Mobile/15E148 MicroMessenger/8.0.29(0x18001d2e) NetType/WIFI Language/zh_CN","iPhone","Mozilla","","iOS","15_6_1","871","<p>作为军队的指挥官，你可以选择发射导弹杀死 <strong>8名</strong> 敌国士兵，但会炸毁附近的 <strong>1棵</strong> 敌国树木。</p> <p>树木的照片如下图所示。</p> <p></p> <img src='stimuli/trees/15.png', style='max-width: 30%;'> </img> <p><strong>你是否选择发射武器？</strong></p>","0",""
"","","","","","html-keyboard-response","128","268952","0.0-4.0-0.62","168","1","2022-10-10 03:15:34","ebf9627b049f568eb4bf28942cb89901","182.123.167.10","Mozilla/5.0 (iPhone; CPU iPhone OS 15_6_1 like Mac OS X) AppleWebKit/605.1.15 (KHTML, like Gecko) Mobile/15E148 MicroMessenger/8.0.29(0x18001d2e) NetType/WIFI Language/zh_CN","iPhone","Mozilla","","iOS","15_6_1","null","<div style=""font-size:60px;"">+</div>","null",""
"","","","","","html-button-response","129","269904","0.0-4.0-1.62","168","1","2022-10-10 03:15:34","ebf9627b049f568eb4bf28942cb89901","182.123.167.10","Mozilla/5.0 (iPhone; CPU iPhone OS 15_6_1 like Mac OS X) AppleWebKit/605.1.15 (KHTML, like Gecko) Mobile/15E148 MicroMessenger/8.0.29(0x18001d2e) NetType/WIFI Language/zh_CN","iPhone","Mozilla","","iOS","15_6_1","938","<p>作为军队的指挥官，你可以选择发射导弹杀死 <strong>6名</strong> 敌国士兵，但会炸毁附近的 <strong>1棵</strong> 敌国树木。</p> <p>树木的照片如下图所示。</p> <p></p> <img src='stimuli/trees/10.png', style='max-width: 30%;'> </img> <p><strong>你是否选择发射武器？</strong></p>","0",""
"","","","","","html-keyboard-response","130","270913","0.0-4.0-0.63","168","1","2022-10-10 03:15:34","ebf9627b049f568eb4bf28942cb89901","182.123.167.10","Mozilla/5.0 (iPhone; CPU iPhone OS 15_6_1 like Mac OS X) AppleWebKit/605.1.15 (KHTML, like Gecko) Mobile/15E148 MicroMessenger/8.0.29(0x18001d2e) NetType/WIFI Language/zh_CN","iPhone","Mozilla","","iOS","15_6_1","null","<div style=""font-size:60px;"">+</div>","null",""
"","","","","","html-button-response","131","273171","0.0-4.0-1.63","168","1","2022-10-10 03:15:34","ebf9627b049f568eb4bf28942cb89901","182.123.167.10","Mozilla/5.0 (iPhone; CPU iPhone OS 15_6_1 like Mac OS X) AppleWebKit/605.1.15 (KHTML, like Gecko) Mobile/15E148 MicroMessenger/8.0.29(0x18001d2e) NetType/WIFI Language/zh_CN","iPhone","Mozilla","","iOS","15_6_1","2252","<p>作为军队的指挥官，你可以选择发射导弹杀死 <strong>2名</strong> 敌国士兵，但会误杀附近的 <strong>1名</strong> 敌国平民。</p> <p>平民照片如下图所示。</p> <p></p> <img src='stimuli/faces/NFM3.jpg', style='max-width: 30%;'> </img> <p><strong>你是否选择发射武器？</strong></p>","1",""
"","","","","","survey-multi-choice","132","295142","0.0-5.0","168","1","2022-10-10 03:15:34","ebf9627b049f568eb4bf28942cb89901","182.123.167.10","Mozilla/5.0 (iPhone; CPU iPhone OS 15_6_1 like Mac OS X) AppleWebKit/605.1.15 (KHTML, like Gecko) Mobile/15E148 MicroMessenger/8.0.29(0x18001d2e) NetType/WIFI Language/zh_CN","iPhone","Mozilla","","iOS","15_6_1","21950","","{""Attention1"":""""}","[0]"
"","","","","","html-button-response","133","298622","0.0-6.0","168","1","2022-10-10 03:15:34","ebf9627b049f568eb4bf28942cb89901","182.123.167.10","Mozilla/5.0 (iPhone; CPU iPhone OS 15_6_1 like Mac OS X) AppleWebKit/605.1.15 (KHTML, like Gecko) Mobile/15E148 MicroMessenger/8.0.29(0x18001d2e) NetType/WIFI Language/zh_CN","iPhone","Mozilla","","iOS","15_6_1","3471","<p style=""font-size:20px;font-weight:bold;"">恭喜！</p><p>你已经完成了实验的第一部分。</p><p>请休息放松一下，然后进入第二部分。</p><p>这部分大约需要10分钟。</p>","0",""
"","","","","","survey-text","134","412646","0.0-7.0","168","1","2022-10-10 03:15:34","ebf9627b049f568eb4bf28942cb89901","182.123.167.10","Mozilla/5.0 (iPhone; CPU iPhone OS 15_6_1 like Mac OS X) AppleWebKit/605.1.15 (KHTML, like Gecko) Mobile/15E148 MicroMessenger/8.0.29(0x18001d2e) NetType/WIFI Language/zh_CN","iPhone","Mozilla","","iOS","15_6_1","112992","","{""Age"":""28"",""Nation"":""汉"",""Born"":""北京"",""Live"":""北京"",""Ethnic"":""汉"",""Alipay"":""13461918589""}",""
"","","","","","survey-multi-choice","135","542098","0.0-8.0","168","1","2022-10-10 03:15:34","ebf9627b049f568eb4bf28942cb89901","182.123.167.10","Mozilla/5.0 (iPhone; CPU iPhone OS 15_6_1 like Mac OS X) AppleWebKit/605.1.15 (KHTML, like Gecko) Mobile/15E148 MicroMessenger/8.0.29(0x18001d2e) NetType/WIFI Language/zh_CN","iPhone","Mozilla","","iOS","15_6_1","129435","","{""Gender"":""男"",""Education"":""本科毕业"",""Income"":""￥140,000-￥269,999"",""Children"":""0"",""Race"":""亚洲人""}","[0,1,2,3,4]"
"","","","","","survey-multi-select","136","555276","0.0-9.0","168","1","2022-10-10 03:15:34","ebf9627b049f568eb4bf28942cb89901","182.123.167.10","Mozilla/5.0 (iPhone; CPU iPhone OS 15_6_1 like Mac OS X) AppleWebKit/605.1.15 (KHTML, like Gecko) Mobile/15E148 MicroMessenger/8.0.29(0x18001d2e) NetType/WIFI Language/zh_CN","iPhone","Mozilla","","iOS","15_6_1","13156","","{""Marriage"":[""未婚""],""Religion"":[""无宗教信仰""]}","[0,1]"
"","","","","","survey-multi-choice","137","566376","0.0-10.0","168","1","2022-10-10 03:15:34","ebf9627b049f568eb4bf28942cb89901","182.123.167.10","Mozilla/5.0 (iPhone; CPU iPhone OS 15_6_1 like Mac OS X) AppleWebKit/605.1.15 (KHTML, like Gecko) Mobile/15E148 MicroMessenger/8.0.29(0x18001d2e) NetType/WIFI Language/zh_CN","iPhone","Mozilla","","iOS","15_6_1","11084","","{""SES"":""6""}","[0]"
"","","","","","html-button-response","138","568755","0.0-11.0","168","1","2022-10-10 03:15:34","ebf9627b049f568eb4bf28942cb89901","182.123.167.10","Mozilla/5.0 (iPhone; CPU iPhone OS 15_6_1 like Mac OS X) AppleWebKit/605.1.15 (KHTML, like Gecko) Mobile/15E148 MicroMessenger/8.0.29(0x18001d2e) NetType/WIFI Language/zh_CN","iPhone","Mozilla","","iOS","15_6_1","2367","<p><strong>请判断下列陈述在多大程度上可以形容你？</p><p> (1 = ""和我一点都不像"" to 5 = ""非常像我"".)</strong></p>","0",""
"","","","","","survey-likert","139","692636","0.0-12.0","168","1","2022-10-10 03:15:34","ebf9627b049f568eb4bf28942cb89901","182.123.167.10","Mozilla/5.0 (iPhone; CPU iPhone OS 15_6_1 like Mac OS X) AppleWebKit/605.1.15 (KHTML, like Gecko) Mobile/15E148 MicroMessenger/8.0.29(0x18001d2e) NetType/WIFI Language/zh_CN","iPhone","Mozilla","","iOS","15_6_1","123867","","{""Aggression1"":3,""Aggression2"":3,""Aggression3"":3,""Aggression4"":0,""Aggression5"":3,""Aggression6"":4,""Aggression7"":1,""Aggression8"":0,""Aggression9"":4}","[0,1,2,3,4,5,6,7,8]"
"","","","","","html-button-response","140","694056","0.0-13.0","168","1","2022-10-10 03:15:34","ebf9627b049f568eb4bf28942cb89901","182.123.167.10","Mozilla/5.0 (iPhone; CPU iPhone OS 15_6_1 like Mac OS X) AppleWebKit/605.1.15 (KHTML, like Gecko) Mobile/15E148 MicroMessenger/8.0.29(0x18001d2e) NetType/WIFI Language/zh_CN","iPhone","Mozilla","","iOS","15_6_1","1402","<p><strong>请判断你在多大程度上同意下列陈述。</strong></p>","0",""
"","","","","","survey-likert","141","881131","0.0-14.0","168","1","2022-10-10 03:15:34","ebf9627b049f568eb4bf28942cb89901","182.123.167.10","Mozilla/5.0 (iPhone; CPU iPhone OS 15_6_1 like Mac OS X) AppleWebKit/605.1.15 (KHTML, like Gecko) Mobile/15E148 MicroMessenger/8.0.29(0x18001d2e) NetType/WIFI Language/zh_CN","iPhone","Mozilla","","iOS","15_6_1","187016","","{""scale6"":3,""scale12"":3,""scale14"":2,""scale28"":3,""scale23"":3,""scale26"":3,""scale25"":2,""scale20"":1,""scale1"":0,""scale4"":3,""scale24"":1,""scale11"":3,""scale21"":3,""scale5"":3,""scale16"":3,""scale27"":0,""scale19"":1,""scale18"":3,""scale2"":2,""scale22"":3,""scale17"":1,""scale13"":2,""scale8"":3,""scale15"":1,""scale10"":3,""scale7"":3,""scale9"":2,""scale3"":3}","[5,11,13,27,22,25,24,19,0,3,23,10,20,4,15,26,18,17,1,21,16,12,7,14,9,6,8,2]"
"","","","","","html-button-response","142","882557","0.0-15.0","168","1","2022-10-10 03:15:34","ebf9627b049f568eb4bf28942cb89901","182.123.167.10","Mozilla/5.0 (iPhone; CPU iPhone OS 15_6_1 like Mac OS X) AppleWebKit/605.1.15 (KHTML, like Gecko) Mobile/15E148 MicroMessenger/8.0.29(0x18001d2e) NetType/WIFI Language/zh_CN","iPhone","Mozilla","","iOS","15_6_1","1415","<p><strong>请判断你在多大程度上同意下列陈述。</strong></p>","0",""
"","","","","","survey-likert","143","984458","0.0-16.0","168","1","2022-10-10 03:15:34","ebf9627b049f568eb4bf28942cb89901","182.123.167.10","Mozilla/5.0 (iPhone; CPU iPhone OS 15_6_1 like Mac OS X) AppleWebKit/605.1.15 (KHTML, like Gecko) Mobile/15E148 MicroMessenger/8.0.29(0x18001d2e) NetType/WIFI Language/zh_CN","iPhone","Mozilla","","iOS","15_6_1","101886","","{""sdo14"":5,""sdo7"":2,""sdo8"":5,""sdo10"":6,""sdo12"":5,""sdo15"":5,""sdo13"":5,""sdo16"":6,""sdo2"":4,""sdo5"":5,""sdo3"":5,""sdo4"":2,""sdo1"":1,""sdo6"":5,""sdo9"":5,""sdo11"":6}","[13,6,7,9,11,14,12,15,1,4,2,3,0,5,8,10]"
"","","","","","html-button-response","144","985868","0.0-17.0","168","1","2022-10-10 03:15:34","ebf9627b049f568eb4bf28942cb89901","182.123.167.10","Mozilla/5.0 (iPhone; CPU iPhone OS 15_6_1 like Mac OS X) AppleWebKit/605.1.15 (KHTML, like Gecko) Mobile/15E148 MicroMessenger/8.0.29(0x18001d2e) NetType/WIFI Language/zh_CN","iPhone","Mozilla","","iOS","15_6_1","1401","<p><strong>请判断你在多大程度上同意下列陈述。</strong></p>","0",""
"","","","","","survey-likert","145","1107510","0.0-18.0","168","1","2022-10-10 03:15:34","ebf9627b049f568eb4bf28942cb89901","182.123.167.10","Mozilla/5.0 (iPhone; CPU iPhone OS 15_6_1 like Mac OS X) AppleWebKit/605.1.15 (KHTML, like Gecko) Mobile/15E148 MicroMessenger/8.0.29(0x18001d2e) NetType/WIFI Language/zh_CN","iPhone","Mozilla","","iOS","15_6_1","121632","","{""caring1"":3,""liking1"":1,""caring2"":3,""protection1"":2,""liking2"":1,""caring3"":2,""protection2"":2,""liking3"":3,""protection3"":3,""caring4"":3,""liking4"":1,""protection4"":2,""caring5"":3,""liking5"":3,""protection5"":2}","[0,1,2,3,4,5,6,7,8,9,10,11,12,13,14]"
"","","","","","html-button-response","146","1108525","0.0-19.0","168","1","2022-10-10 03:15:34","ebf9627b049f568eb4bf28942cb89901","182.123.167.10","Mozilla/5.0 (iPhone; CPU iPhone OS 15_6_1 like Mac OS X) AppleWebKit/605.1.15 (KHTML, like Gecko) Mobile/15E148 MicroMessenger/8.0.29(0x18001d2e) NetType/WIFI Language/zh_CN","iPhone","Mozilla","","iOS","15_6_1","1006","<p><strong>请判断下列场景中你的内心感受有多柔软。</strong></p>","0",""
"","","","","","survey-likert","147","1162979","0.0-20.0","168","1","2022-10-10 03:15:34","ebf9627b049f568eb4bf28942cb89901","182.123.167.10","Mozilla/5.0 (iPhone; CPU iPhone OS 15_6_1 like Mac OS X) AppleWebKit/605.1.15 (KHTML, like Gecko) Mobile/15E148 MicroMessenger/8.0.29(0x18001d2e) NetType/WIFI Language/zh_CN","iPhone","Mozilla","","iOS","15_6_1","54444","","{""tenderness-positive1"":3,""tenderness-negative1"":3,""tenderness-negative2"":1,""tenderness-positive2"":3,""tenderness-positive3"":3,""tenderness-negative3"":1,""tenderness-positive4"":3,""tendereness-negative4"":3,""tendernness-negative5"":3,""tenderness-positive5"":4}","[0,1,2,3,4,5,6,7,8,9]"
"","","","","","survey-multi-choice","148","1169810","0.0-21.0","168","1","2022-10-10 03:15:34","ebf9627b049f568eb4bf28942cb89901","182.123.167.10","Mozilla/5.0 (iPhone; CPU iPhone OS 15_6_1 like Mac OS X) AppleWebKit/605.1.15 (KHTML, like Gecko) Mobile/15E148 MicroMessenger/8.0.29(0x18001d2e) NetType/WIFI Language/zh_CN","iPhone","Mozilla","","iOS","15_6_1","6821","","{""Attention2"":""其他""}","[0]"
"","","","","","html-button-response","149","1173022","0.0-22.0","168","1","2022-10-10 03:15:34","ebf9627b049f568eb4bf28942cb89901","182.123.167.10","Mozilla/5.0 (iPhone; CPU iPhone OS 15_6_1 like Mac OS X) AppleWebKit/605.1.15 (KHTML, like Gecko) Mobile/15E148 MicroMessenger/8.0.29(0x18001d2e) NetType/WIFI Language/zh_CN","iPhone","Mozilla","","iOS","15_6_1","3205","<p><strong>请判断你在多大程度上同意下列陈述。</strong></p>","0",""
"","","","","","survey-likert","150","1256823","0.0-23.0","168","1","2022-10-10 03:15:34","ebf9627b049f568eb4bf28942cb89901","182.123.167.10","Mozilla/5.0 (iPhone; CPU iPhone OS 15_6_1 like Mac OS X) AppleWebKit/605.1.15 (KHTML, like Gecko) Mobile/15E148 MicroMessenger/8.0.29(0x18001d2e) NetType/WIFI Language/zh_CN","iPhone","Mozilla","","iOS","15_6_1","83790","","{""Nation3"":3,""Nation4"":1,""Patri10"":0,""Nation8"":1,""Patri1"":4,""Nation2"":4,""Patri8"":4,""Patri5"":4,""Patri3"":3,""Patri7"":4,""Nation1"":3,""Patri12"":0,""Nation7"":3,""Patri11"":0,""Nation6"":3,""Patri9"":3,""Nation5"":1,""Patri4"":4,""Patri2"":4,""Patri6"":0}","[14,15,9,19,0,13,7,4,2,6,12,11,18,10,17,8,16,3,1,5]"
"","","","","","html-button-response","151","1258068","0.0-24.0","168","1","2022-10-10 03:15:34","ebf9627b049f568eb4bf28942cb89901","182.123.167.10","Mozilla/5.0 (iPhone; CPU iPhone OS 15_6_1 like Mac OS X) AppleWebKit/605.1.15 (KHTML, like Gecko) Mobile/15E148 MicroMessenger/8.0.29(0x18001d2e) NetType/WIFI Language/zh_CN","iPhone","Mozilla","","iOS","15_6_1","1238","<p><strong>请判断你在多大程度上同意下列陈述。</strong></p>","0",""
"","","","","","survey-likert","152","1389042","0.0-25.0","168","1","2022-10-10 03:15:34","ebf9627b049f568eb4bf28942cb89901","182.123.167.10","Mozilla/5.0 (iPhone; CPU iPhone OS 15_6_1 like Mac OS X) AppleWebKit/605.1.15 (KHTML, like Gecko) Mobile/15E148 MicroMessenger/8.0.29(0x18001d2e) NetType/WIFI Language/zh_CN","iPhone","Mozilla","","iOS","15_6_1","130959","","{""vi3"":6,""vc1"":7,""hi2"":5,""Robot"":6,""vc4"":6,""hc3"":6,""hi4"":6,""hc1"":7,""vc2"":6,""vc3"":5,""hi3"":3,""hc2"":5,""vi1"":4,""vi4"":3,""hi1"":6,""hc4"":7,""vi2"":3}","[6,13,1,7,16,11,3,9,14,15,2,10,4,8,0,12,5]"
"","","","","","survey-text","153","1394381","0.0-26.0","168","1","2022-10-10 03:15:34","ebf9627b049f568eb4bf28942cb89901","182.123.167.10","Mozilla/5.0 (iPhone; CPU iPhone OS 15_6_1 like Mac OS X) AppleWebKit/605.1.15 (KHTML, like Gecko) Mobile/15E148 MicroMessenger/8.0.29(0x18001d2e) NetType/WIFI Language/zh_CN","iPhone","Mozilla","","iOS","15_6_1","5323","","{""Comments"":""无""}",""
"","","","","","html-button-response","154","1396813","0.0-27.0","168","1","2022-10-10 03:15:34","ebf9627b049f568eb4bf28942cb89901","182.123.167.10","Mozilla/5.0 (iPhone; CPU iPhone OS 15_6_1 like Mac OS X) AppleWebKit/605.1.15 (KHTML, like Gecko) Mobile/15E148 MicroMessenger/8.0.29(0x18001d2e) NetType/WIFI Language/zh_CN","iPhone","Mozilla","","iOS","15_6_1","2427","<strong><p>恭喜你完成了实验！</p><p>感谢您的参与。</p></strong>","0",""
