"success","timeout","failed_images","failed_audio","failed_video","trial_type","trial_index","time_elapsed","internal_node_id","run_id","condition","recorded_at","source_code_version","ip","user_agent","device","browser","browser_version","platform","platform_version","rt","stimulus","response","question_order"
"true","false","[]","[]","[]","preload","0","3130","0.0-0.0","178","1","2022-10-10 03:28:17","ebf9627b049f568eb4bf28942cb89901","218.85.191.130","Mozilla/5.0 (Windows NT 6.1; Win64; x64) AppleWebKit/537.36 (KHTML, like Gecko) Chrome/100.0.4896.60 Safari/537.36","WebKit","Chrome","100.0.4896.60","Windows","6.1","","","",""
"true","","","","","fullscreen","1","27445","0.0-1.0","178","1","2022-10-10 03:28:17","ebf9627b049f568eb4bf28942cb89901","218.85.191.130","Mozilla/5.0 (Windows NT 6.1; Win64; x64) AppleWebKit/537.36 (KHTML, like Gecko) Chrome/100.0.4896.60 Safari/537.36","WebKit","Chrome","100.0.4896.60","Windows","6.1","","","",""
"","","","","","html-button-response","2","31973","0.0-2.0","178","1","2022-10-10 03:28:17","ebf9627b049f568eb4bf28942cb89901","218.85.191.130","Mozilla/5.0 (Windows NT 6.1; Win64; x64) AppleWebKit/537.36 (KHTML, like Gecko) Chrome/100.0.4896.60 Safari/537.36","WebKit","Chrome","100.0.4896.60","Windows","6.1","4523","<p style=""font-size:20px;font-weight:bold;"">实验知情同意书</p><p style=""text-align:left;""><strong>实验名称：</strong>社会冲突研究</p><p style=""text-align:left;""><strong>主要研究者：</strong>韩晓春副教授（北京师范大学心理学部）</p><p style=""text-align:left;""><strong>联系方式：</strong>发送邮件至xiaochun.han@bnu.edu.cn</p><p style=""text-align:left;""><strong>研究目的：</strong>研究旨在了解人类面对群体冲突时的决策方式，以及相关的心理学特质。实验调查大约需要20分钟。</p><p style=""text-align:left;""><strong>实验流程：</strong>实验包含两部分。第一部分呈现一系列群体冲突场景，请你决定如何对这些冲突进行反应，大约需要10分钟完成。第二部分包含一系列人口统计学信息收集和心理学问卷，大约需要10分钟完成。</p><p style=""text-align:left;""><strong>参加及退出规则：</strong>参加本实验完全取决于您的个人意愿。在参与过程中，您可以随时退出，并且不用承担任何后果。</p><p style=""text-align:left;""><strong>隐私：</strong>本实验完全匿名进行，不会收集您的姓名或其他能够识别您身份的信息。实验中收集的作答仅用作科学研究使用，可能会在学术期刊/书籍上发表，或者用于教学，您的数据未来可能会和其他研究者或实验室分享，但您的个人身份不会被识别。</p><p style=""text-align:left;""><strong>实验报酬：</strong>实验完成后，您将获得15元人民币报酬，以感谢您的时间和努力。调查问卷中包含几道题目用以测验您作答时的认真度。只有完成全部实验，并且正确回答认真度测验的被试才能获得实验报酬。实验报酬将通过支付宝转账发放。</p><p style=""text-align:left;font-size:20px;""><strong>如果您同意以上实验知情同意书的内容，请点击'同意并且开始实验'按钮；否则请关闭浏览器界面，退出实验。</strong></p>","0",""
"","","","","","html-button-response","3","33163","0.0-3.0","178","1","2022-10-10 03:28:17","ebf9627b049f568eb4bf28942cb89901","218.85.191.130","Mozilla/5.0 (Windows NT 6.1; Win64; x64) AppleWebKit/537.36 (KHTML, like Gecko) Chrome/100.0.4896.60 Safari/537.36","WebKit","Chrome","100.0.4896.60","Windows","6.1","1185","<p ><strong>实验任务一：</strong></p><p>请想象你的国家与另一个国家发生了军事冲突。</p><p>你是国家军队的指挥官，你将如何在冲突中进行决策。</p><p>具体来说，作为军队指挥官，请你决定是否发射导弹进行打击。</p><p>接下来，你会面对一系列场景，请仔细阅读每个场景，然后进行决策。</p><p>这部分实验任务大约需要10分钟。</p><p><strong>实验过程中，请集中注意力。</strong></p>","0",""
"","","","","","html-keyboard-response","4","34167","0.0-4.0-0.0","178","1","2022-10-10 03:28:17","ebf9627b049f568eb4bf28942cb89901","218.85.191.130","Mozilla/5.0 (Windows NT 6.1; Win64; x64) AppleWebKit/537.36 (KHTML, like Gecko) Chrome/100.0.4896.60 Safari/537.36","WebKit","Chrome","100.0.4896.60","Windows","6.1","null","<div style=""font-size:60px;"">+</div>","null",""
"","","","","","html-button-response","5","36014","0.0-4.0-1.0","178","1","2022-10-10 03:28:17","ebf9627b049f568eb4bf28942cb89901","218.85.191.130","Mozilla/5.0 (Windows NT 6.1; Win64; x64) AppleWebKit/537.36 (KHTML, like Gecko) Chrome/100.0.4896.60 Safari/537.36","WebKit","Chrome","100.0.4896.60","Windows","6.1","1843","<p>作为军队的指挥官，你可以选择发射导弹杀死 <strong>6名</strong> 敌国士兵，但会炸毁附近的 <strong>1棵</strong> 敌国树木。</p> <p>树木的照片如下图所示。</p> <p></p> <img src='stimuli/trees/9.png', style='max-width: 30%;'> </img> <p><strong>你是否选择发射武器？</strong></p>","1",""
"","","","","","html-keyboard-response","6","37017","0.0-4.0-0.1","178","1","2022-10-10 03:28:17","ebf9627b049f568eb4bf28942cb89901","218.85.191.130","Mozilla/5.0 (Windows NT 6.1; Win64; x64) AppleWebKit/537.36 (KHTML, like Gecko) Chrome/100.0.4896.60 Safari/537.36","WebKit","Chrome","100.0.4896.60","Windows","6.1","null","<div style=""font-size:60px;"">+</div>","null",""
"","","","","","html-button-response","7","39316","0.0-4.0-1.1","178","1","2022-10-10 03:28:17","ebf9627b049f568eb4bf28942cb89901","218.85.191.130","Mozilla/5.0 (Windows NT 6.1; Win64; x64) AppleWebKit/537.36 (KHTML, like Gecko) Chrome/100.0.4896.60 Safari/537.36","WebKit","Chrome","100.0.4896.60","Windows","6.1","2296","<p>作为军队的指挥官，你可以选择发射导弹杀死 <strong>3名</strong> 敌国士兵，但会炸毁附近的 <strong>1棵</strong> 敌国树木。</p> <p>树木的照片如下图所示。</p> <p></p> <img src='stimuli/trees/10.png', style='max-width: 30%;'> </img> <p><strong>你是否选择发射武器？</strong></p>","0",""
"","","","","","html-keyboard-response","8","40319","0.0-4.0-0.2","178","1","2022-10-10 03:28:17","ebf9627b049f568eb4bf28942cb89901","218.85.191.130","Mozilla/5.0 (Windows NT 6.1; Win64; x64) AppleWebKit/537.36 (KHTML, like Gecko) Chrome/100.0.4896.60 Safari/537.36","WebKit","Chrome","100.0.4896.60","Windows","6.1","null","<div style=""font-size:60px;"">+</div>","null",""
"","","","","","html-button-response","9","43748","0.0-4.0-1.2","178","1","2022-10-10 03:28:17","ebf9627b049f568eb4bf28942cb89901","218.85.191.130","Mozilla/5.0 (Windows NT 6.1; Win64; x64) AppleWebKit/537.36 (KHTML, like Gecko) Chrome/100.0.4896.60 Safari/537.36","WebKit","Chrome","100.0.4896.60","Windows","6.1","3424","<p>作为军队的指挥官，你可以选择发射导弹杀死 <strong>2名</strong> 敌国士兵，但会炸毁附近的 <strong>1棵</strong> 敌国树木。</p> <p>树木的照片如下图所示。</p> <p></p> <img src='stimuli/trees/6.png', style='max-width: 30%;'> </img> <p><strong>你是否选择发射武器？</strong></p>","0",""
"","","","","","html-keyboard-response","10","44751","0.0-4.0-0.3","178","1","2022-10-10 03:28:17","ebf9627b049f568eb4bf28942cb89901","218.85.191.130","Mozilla/5.0 (Windows NT 6.1; Win64; x64) AppleWebKit/537.36 (KHTML, like Gecko) Chrome/100.0.4896.60 Safari/537.36","WebKit","Chrome","100.0.4896.60","Windows","6.1","null","<div style=""font-size:60px;"">+</div>","null",""
"","","","","","html-button-response","11","46059","0.0-4.0-1.3","178","1","2022-10-10 03:28:17","ebf9627b049f568eb4bf28942cb89901","218.85.191.130","Mozilla/5.0 (Windows NT 6.1; Win64; x64) AppleWebKit/537.36 (KHTML, like Gecko) Chrome/100.0.4896.60 Safari/537.36","WebKit","Chrome","100.0.4896.60","Windows","6.1","1304","<p>作为军队的指挥官，你可以选择发射导弹杀死 <strong>8名</strong> 敌国士兵，但会炸毁附近的 <strong>1棵</strong> 敌国树木。</p> <p>树木的照片如下图所示。</p> <p></p> <img src='stimuli/trees/4.png', style='max-width: 30%;'> </img> <p><strong>你是否选择发射武器？</strong></p>","1",""
"","","","","","html-keyboard-response","12","47065","0.0-4.0-0.4","178","1","2022-10-10 03:28:17","ebf9627b049f568eb4bf28942cb89901","218.85.191.130","Mozilla/5.0 (Windows NT 6.1; Win64; x64) AppleWebKit/537.36 (KHTML, like Gecko) Chrome/100.0.4896.60 Safari/537.36","WebKit","Chrome","100.0.4896.60","Windows","6.1","null","<div style=""font-size:60px;"">+</div>","null",""
"","","","","","html-button-response","13","47540","0.0-4.0-1.4","178","1","2022-10-10 03:28:17","ebf9627b049f568eb4bf28942cb89901","218.85.191.130","Mozilla/5.0 (Windows NT 6.1; Win64; x64) AppleWebKit/537.36 (KHTML, like Gecko) Chrome/100.0.4896.60 Safari/537.36","WebKit","Chrome","100.0.4896.60","Windows","6.1","472","<p>作为军队的指挥官，你可以选择发射导弹杀死 <strong>5名</strong> 敌国士兵，但会炸毁附近的 <strong>1棵</strong> 敌国树木。</p> <p>树木的照片如下图所示。</p> <p></p> <img src='stimuli/trees/15.png', style='max-width: 30%;'> </img> <p><strong>你是否选择发射武器？</strong></p>","1",""
"","","","","","html-keyboard-response","14","48543","0.0-4.0-0.5","178","1","2022-10-10 03:28:17","ebf9627b049f568eb4bf28942cb89901","218.85.191.130","Mozilla/5.0 (Windows NT 6.1; Win64; x64) AppleWebKit/537.36 (KHTML, like Gecko) Chrome/100.0.4896.60 Safari/537.36","WebKit","Chrome","100.0.4896.60","Windows","6.1","null","<div style=""font-size:60px;"">+</div>","null",""
"","","","","","html-button-response","15","50045","0.0-4.0-1.5","178","1","2022-10-10 03:28:17","ebf9627b049f568eb4bf28942cb89901","218.85.191.130","Mozilla/5.0 (Windows NT 6.1; Win64; x64) AppleWebKit/537.36 (KHTML, like Gecko) Chrome/100.0.4896.60 Safari/537.36","WebKit","Chrome","100.0.4896.60","Windows","6.1","1496","<p>作为军队的指挥官，你可以选择发射导弹杀死 <strong>9名</strong> 敌国士兵，但会炸毁附近的 <strong>1棵</strong> 敌国树木。</p> <p>树木的照片如下图所示。</p> <p></p> <img src='stimuli/trees/16.png', style='max-width: 30%;'> </img> <p><strong>你是否选择发射武器？</strong></p>","0",""
"","","","","","html-keyboard-response","16","51049","0.0-4.0-0.6","178","1","2022-10-10 03:28:17","ebf9627b049f568eb4bf28942cb89901","218.85.191.130","Mozilla/5.0 (Windows NT 6.1; Win64; x64) AppleWebKit/537.36 (KHTML, like Gecko) Chrome/100.0.4896.60 Safari/537.36","WebKit","Chrome","100.0.4896.60","Windows","6.1","null","<div style=""font-size:60px;"">+</div>","null",""
"","","","","","html-button-response","17","52742","0.0-4.0-1.6","178","1","2022-10-10 03:28:17","ebf9627b049f568eb4bf28942cb89901","218.85.191.130","Mozilla/5.0 (Windows NT 6.1; Win64; x64) AppleWebKit/537.36 (KHTML, like Gecko) Chrome/100.0.4896.60 Safari/537.36","WebKit","Chrome","100.0.4896.60","Windows","6.1","1689","<p>作为军队的指挥官，你可以选择发射导弹杀死 <strong>5名</strong> 敌国士兵，但会误杀附近的 <strong>1名</strong> 敌国平民。</p> <p>平民照片如下图所示。</p> <p></p> <img src='stimuli/faces/NFF8.jpg', style='max-width: 30%;'> </img> <p><strong>你是否选择发射武器？</strong></p>","0",""
"","","","","","html-keyboard-response","18","53745","0.0-4.0-0.7","178","1","2022-10-10 03:28:17","ebf9627b049f568eb4bf28942cb89901","218.85.191.130","Mozilla/5.0 (Windows NT 6.1; Win64; x64) AppleWebKit/537.36 (KHTML, like Gecko) Chrome/100.0.4896.60 Safari/537.36","WebKit","Chrome","100.0.4896.60","Windows","6.1","null","<div style=""font-size:60px;"">+</div>","null",""
"","","","","","html-button-response","19","54301","0.0-4.0-1.7","178","1","2022-10-10 03:28:17","ebf9627b049f568eb4bf28942cb89901","218.85.191.130","Mozilla/5.0 (Windows NT 6.1; Win64; x64) AppleWebKit/537.36 (KHTML, like Gecko) Chrome/100.0.4896.60 Safari/537.36","WebKit","Chrome","100.0.4896.60","Windows","6.1","551","<p>作为军队的指挥官，你可以选择发射导弹杀死 <strong>2名</strong> 敌国士兵，但会误杀附近的 <strong>1名</strong> 敌国平民。</p> <p>平民照片如下图所示。</p> <p></p> <img src='stimuli/faces/NFM1.jpg', style='max-width: 30%;'> </img> <p><strong>你是否选择发射武器？</strong></p>","1",""
"","","","","","html-keyboard-response","20","55305","0.0-4.0-0.8","178","1","2022-10-10 03:28:17","ebf9627b049f568eb4bf28942cb89901","218.85.191.130","Mozilla/5.0 (Windows NT 6.1; Win64; x64) AppleWebKit/537.36 (KHTML, like Gecko) Chrome/100.0.4896.60 Safari/537.36","WebKit","Chrome","100.0.4896.60","Windows","6.1","null","<div style=""font-size:60px;"">+</div>","null",""
"","","","","","html-button-response","21","56223","0.0-4.0-1.8","178","1","2022-10-10 03:28:17","ebf9627b049f568eb4bf28942cb89901","218.85.191.130","Mozilla/5.0 (Windows NT 6.1; Win64; x64) AppleWebKit/537.36 (KHTML, like Gecko) Chrome/100.0.4896.60 Safari/537.36","WebKit","Chrome","100.0.4896.60","Windows","6.1","915","<p>作为军队的指挥官，你可以选择发射导弹杀死 <strong>5名</strong> 敌国士兵，但会炸毁附近的 <strong>1棵</strong> 敌国树木。</p> <p>树木的照片如下图所示。</p> <p></p> <img src='stimuli/trees/16.png', style='max-width: 30%;'> </img> <p><strong>你是否选择发射武器？</strong></p>","0",""
"","","","","","html-keyboard-response","22","57226","0.0-4.0-0.9","178","1","2022-10-10 03:28:17","ebf9627b049f568eb4bf28942cb89901","218.85.191.130","Mozilla/5.0 (Windows NT 6.1; Win64; x64) AppleWebKit/537.36 (KHTML, like Gecko) Chrome/100.0.4896.60 Safari/537.36","WebKit","Chrome","100.0.4896.60","Windows","6.1","null","<div style=""font-size:60px;"">+</div>","null",""
"","","","","","html-button-response","23","57844","0.0-4.0-1.9","178","1","2022-10-10 03:28:17","ebf9627b049f568eb4bf28942cb89901","218.85.191.130","Mozilla/5.0 (Windows NT 6.1; Win64; x64) AppleWebKit/537.36 (KHTML, like Gecko) Chrome/100.0.4896.60 Safari/537.36","WebKit","Chrome","100.0.4896.60","Windows","6.1","616","<p>作为军队的指挥官，你可以选择发射导弹杀死 <strong>4名</strong> 敌国士兵，但会误杀附近的 <strong>1名</strong> 敌国平民。</p> <p>平民照片如下图所示。</p> <p></p> <img src='stimuli/faces/NFF4.jpg', style='max-width: 30%;'> </img> <p><strong>你是否选择发射武器？</strong></p>","0",""
"","","","","","html-keyboard-response","24","58849","0.0-4.0-0.10","178","1","2022-10-10 03:28:17","ebf9627b049f568eb4bf28942cb89901","218.85.191.130","Mozilla/5.0 (Windows NT 6.1; Win64; x64) AppleWebKit/537.36 (KHTML, like Gecko) Chrome/100.0.4896.60 Safari/537.36","WebKit","Chrome","100.0.4896.60","Windows","6.1","null","<div style=""font-size:60px;"">+</div>","null",""
"","","","","","html-button-response","25","60181","0.0-4.0-1.10","178","1","2022-10-10 03:28:17","ebf9627b049f568eb4bf28942cb89901","218.85.191.130","Mozilla/5.0 (Windows NT 6.1; Win64; x64) AppleWebKit/537.36 (KHTML, like Gecko) Chrome/100.0.4896.60 Safari/537.36","WebKit","Chrome","100.0.4896.60","Windows","6.1","1328","<p>作为军队的指挥官，你可以选择发射导弹杀死 <strong>4名</strong> 敌国士兵，但会误杀附近的 <strong>1名</strong> 敌国平民。</p> <p>平民照片如下图所示。</p> <p></p> <img src='stimuli/faces/NFF2.jpg', style='max-width: 30%;'> </img> <p><strong>你是否选择发射武器？</strong></p>","0",""
"","","","","","html-keyboard-response","26","61185","0.0-4.0-0.11","178","1","2022-10-10 03:28:17","ebf9627b049f568eb4bf28942cb89901","218.85.191.130","Mozilla/5.0 (Windows NT 6.1; Win64; x64) AppleWebKit/537.36 (KHTML, like Gecko) Chrome/100.0.4896.60 Safari/537.36","WebKit","Chrome","100.0.4896.60","Windows","6.1","null","<div style=""font-size:60px;"">+</div>","null",""
"","","","","","html-button-response","27","61886","0.0-4.0-1.11","178","1","2022-10-10 03:28:17","ebf9627b049f568eb4bf28942cb89901","218.85.191.130","Mozilla/5.0 (Windows NT 6.1; Win64; x64) AppleWebKit/537.36 (KHTML, like Gecko) Chrome/100.0.4896.60 Safari/537.36","WebKit","Chrome","100.0.4896.60","Windows","6.1","697","<p>作为军队的指挥官，你可以选择发射导弹杀死 <strong>5名</strong> 敌国士兵，但会误杀附近的 <strong>1名</strong> 敌国平民。</p> <p>平民照片如下图所示。</p> <p></p> <img src='stimuli/faces/NFM2.jpg', style='max-width: 30%;'> </img> <p><strong>你是否选择发射武器？</strong></p>","1",""
"","","","","","html-keyboard-response","28","62890","0.0-4.0-0.12","178","1","2022-10-10 03:28:17","ebf9627b049f568eb4bf28942cb89901","218.85.191.130","Mozilla/5.0 (Windows NT 6.1; Win64; x64) AppleWebKit/537.36 (KHTML, like Gecko) Chrome/100.0.4896.60 Safari/537.36","WebKit","Chrome","100.0.4896.60","Windows","6.1","null","<div style=""font-size:60px;"">+</div>","null",""
"","","","","","html-button-response","29","66900","0.0-4.0-1.12","178","1","2022-10-10 03:28:17","ebf9627b049f568eb4bf28942cb89901","218.85.191.130","Mozilla/5.0 (Windows NT 6.1; Win64; x64) AppleWebKit/537.36 (KHTML, like Gecko) Chrome/100.0.4896.60 Safari/537.36","WebKit","Chrome","100.0.4896.60","Windows","6.1","4007","<p>作为军队的指挥官，你可以选择发射导弹杀死 <strong>2名</strong> 敌国士兵，但会炸毁附近的 <strong>1棵</strong> 敌国树木。</p> <p>树木的照片如下图所示。</p> <p></p> <img src='stimuli/trees/7.png', style='max-width: 30%;'> </img> <p><strong>你是否选择发射武器？</strong></p>","0",""
"","","","","","html-keyboard-response","30","67904","0.0-4.0-0.13","178","1","2022-10-10 03:28:17","ebf9627b049f568eb4bf28942cb89901","218.85.191.130","Mozilla/5.0 (Windows NT 6.1; Win64; x64) AppleWebKit/537.36 (KHTML, like Gecko) Chrome/100.0.4896.60 Safari/537.36","WebKit","Chrome","100.0.4896.60","Windows","6.1","null","<div style=""font-size:60px;"">+</div>","null",""
"","","","","","html-button-response","31","69212","0.0-4.0-1.13","178","1","2022-10-10 03:28:17","ebf9627b049f568eb4bf28942cb89901","218.85.191.130","Mozilla/5.0 (Windows NT 6.1; Win64; x64) AppleWebKit/537.36 (KHTML, like Gecko) Chrome/100.0.4896.60 Safari/537.36","WebKit","Chrome","100.0.4896.60","Windows","6.1","1303","<p>作为军队的指挥官，你可以选择发射导弹杀死 <strong>10名</strong> 敌国士兵，但会炸毁附近的 <strong>1棵</strong> 敌国树木。</p> <p>树木的照片如下图所示。</p> <p></p> <img src='stimuli/trees/2.png', style='max-width: 30%;'> </img> <p><strong>你是否选择发射武器？</strong></p>","0",""
"","","","","","html-keyboard-response","32","70214","0.0-4.0-0.14","178","1","2022-10-10 03:28:17","ebf9627b049f568eb4bf28942cb89901","218.85.191.130","Mozilla/5.0 (Windows NT 6.1; Win64; x64) AppleWebKit/537.36 (KHTML, like Gecko) Chrome/100.0.4896.60 Safari/537.36","WebKit","Chrome","100.0.4896.60","Windows","6.1","null","<div style=""font-size:60px;"">+</div>","null",""
"","","","","","html-button-response","33","70731","0.0-4.0-1.14","178","1","2022-10-10 03:28:17","ebf9627b049f568eb4bf28942cb89901","218.85.191.130","Mozilla/5.0 (Windows NT 6.1; Win64; x64) AppleWebKit/537.36 (KHTML, like Gecko) Chrome/100.0.4896.60 Safari/537.36","WebKit","Chrome","100.0.4896.60","Windows","6.1","515","<p>作为军队的指挥官，你可以选择发射导弹杀死 <strong>7名</strong> 敌国士兵，但会炸毁附近的 <strong>1棵</strong> 敌国树木。</p> <p>树木的照片如下图所示。</p> <p></p> <img src='stimuli/trees/10.png', style='max-width: 30%;'> </img> <p><strong>你是否选择发射武器？</strong></p>","0",""
"","","","","","html-keyboard-response","34","71732","0.0-4.0-0.15","178","1","2022-10-10 03:28:17","ebf9627b049f568eb4bf28942cb89901","218.85.191.130","Mozilla/5.0 (Windows NT 6.1; Win64; x64) AppleWebKit/537.36 (KHTML, like Gecko) Chrome/100.0.4896.60 Safari/537.36","WebKit","Chrome","100.0.4896.60","Windows","6.1","null","<div style=""font-size:60px;"">+</div>","null",""
"","","","","","html-button-response","35","72628","0.0-4.0-1.15","178","1","2022-10-10 03:28:17","ebf9627b049f568eb4bf28942cb89901","218.85.191.130","Mozilla/5.0 (Windows NT 6.1; Win64; x64) AppleWebKit/537.36 (KHTML, like Gecko) Chrome/100.0.4896.60 Safari/537.36","WebKit","Chrome","100.0.4896.60","Windows","6.1","892","<p>作为军队的指挥官，你可以选择发射导弹杀死 <strong>5名</strong> 敌国士兵，但会误杀附近的 <strong>1名</strong> 敌国平民。</p> <p>平民照片如下图所示。</p> <p></p> <img src='stimuli/faces/NFM5.jpg', style='max-width: 30%;'> </img> <p><strong>你是否选择发射武器？</strong></p>","1",""
"","","","","","html-keyboard-response","36","73632","0.0-4.0-0.16","178","1","2022-10-10 03:28:17","ebf9627b049f568eb4bf28942cb89901","218.85.191.130","Mozilla/5.0 (Windows NT 6.1; Win64; x64) AppleWebKit/537.36 (KHTML, like Gecko) Chrome/100.0.4896.60 Safari/537.36","WebKit","Chrome","100.0.4896.60","Windows","6.1","null","<div style=""font-size:60px;"">+</div>","null",""
"","","","","","html-button-response","37","74020","0.0-4.0-1.16","178","1","2022-10-10 03:28:17","ebf9627b049f568eb4bf28942cb89901","218.85.191.130","Mozilla/5.0 (Windows NT 6.1; Win64; x64) AppleWebKit/537.36 (KHTML, like Gecko) Chrome/100.0.4896.60 Safari/537.36","WebKit","Chrome","100.0.4896.60","Windows","6.1","384","<p>作为军队的指挥官，你可以选择发射导弹杀死 <strong>3名</strong> 敌国士兵，但会误杀附近的 <strong>1名</strong> 敌国平民。</p> <p>平民照片如下图所示。</p> <p></p> <img src='stimuli/faces/NFF6.jpg', style='max-width: 30%;'> </img> <p><strong>你是否选择发射武器？</strong></p>","1",""
"","","","","","html-keyboard-response","38","75024","0.0-4.0-0.17","178","1","2022-10-10 03:28:17","ebf9627b049f568eb4bf28942cb89901","218.85.191.130","Mozilla/5.0 (Windows NT 6.1; Win64; x64) AppleWebKit/537.36 (KHTML, like Gecko) Chrome/100.0.4896.60 Safari/537.36","WebKit","Chrome","100.0.4896.60","Windows","6.1","null","<div style=""font-size:60px;"">+</div>","null",""
"","","","","","html-button-response","39","75788","0.0-4.0-1.17","178","1","2022-10-10 03:28:17","ebf9627b049f568eb4bf28942cb89901","218.85.191.130","Mozilla/5.0 (Windows NT 6.1; Win64; x64) AppleWebKit/537.36 (KHTML, like Gecko) Chrome/100.0.4896.60 Safari/537.36","WebKit","Chrome","100.0.4896.60","Windows","6.1","758","<p>作为军队的指挥官，你可以选择发射导弹杀死 <strong>10名</strong> 敌国士兵，但会炸毁附近的 <strong>1棵</strong> 敌国树木。</p> <p>树木的照片如下图所示。</p> <p></p> <img src='stimuli/trees/11.png', style='max-width: 30%;'> </img> <p><strong>你是否选择发射武器？</strong></p>","1",""
"","","","","","html-keyboard-response","40","76791","0.0-4.0-0.18","178","1","2022-10-10 03:28:17","ebf9627b049f568eb4bf28942cb89901","218.85.191.130","Mozilla/5.0 (Windows NT 6.1; Win64; x64) AppleWebKit/537.36 (KHTML, like Gecko) Chrome/100.0.4896.60 Safari/537.36","WebKit","Chrome","100.0.4896.60","Windows","6.1","null","<div style=""font-size:60px;"">+</div>","null",""
"","","","","","html-button-response","41","77348","0.0-4.0-1.18","178","1","2022-10-10 03:28:17","ebf9627b049f568eb4bf28942cb89901","218.85.191.130","Mozilla/5.0 (Windows NT 6.1; Win64; x64) AppleWebKit/537.36 (KHTML, like Gecko) Chrome/100.0.4896.60 Safari/537.36","WebKit","Chrome","100.0.4896.60","Windows","6.1","553","<p>作为军队的指挥官，你可以选择发射导弹杀死 <strong>7名</strong> 敌国士兵，但会炸毁附近的 <strong>1棵</strong> 敌国树木。</p> <p>树木的照片如下图所示。</p> <p></p> <img src='stimuli/trees/5.png', style='max-width: 30%;'> </img> <p><strong>你是否选择发射武器？</strong></p>","1",""
"","","","","","html-keyboard-response","42","78352","0.0-4.0-0.19","178","1","2022-10-10 03:28:17","ebf9627b049f568eb4bf28942cb89901","218.85.191.130","Mozilla/5.0 (Windows NT 6.1; Win64; x64) AppleWebKit/537.36 (KHTML, like Gecko) Chrome/100.0.4896.60 Safari/537.36","WebKit","Chrome","100.0.4896.60","Windows","6.1","null","<div style=""font-size:60px;"">+</div>","null",""
"","","","","","html-button-response","43","79116","0.0-4.0-1.19","178","1","2022-10-10 03:28:17","ebf9627b049f568eb4bf28942cb89901","218.85.191.130","Mozilla/5.0 (Windows NT 6.1; Win64; x64) AppleWebKit/537.36 (KHTML, like Gecko) Chrome/100.0.4896.60 Safari/537.36","WebKit","Chrome","100.0.4896.60","Windows","6.1","759","<p>作为军队的指挥官，你可以选择发射导弹杀死 <strong>7名</strong> 敌国士兵，但会误杀附近的 <strong>1名</strong> 敌国平民。</p> <p>平民照片如下图所示。</p> <p></p> <img src='stimuli/faces/NFM3.jpg', style='max-width: 30%;'> </img> <p><strong>你是否选择发射武器？</strong></p>","1",""
"","","","","","html-keyboard-response","44","80120","0.0-4.0-0.20","178","1","2022-10-10 03:28:17","ebf9627b049f568eb4bf28942cb89901","218.85.191.130","Mozilla/5.0 (Windows NT 6.1; Win64; x64) AppleWebKit/537.36 (KHTML, like Gecko) Chrome/100.0.4896.60 Safari/537.36","WebKit","Chrome","100.0.4896.60","Windows","6.1","null","<div style=""font-size:60px;"">+</div>","null",""
"","","","","","html-button-response","45","95531","0.0-4.0-1.20","178","1","2022-10-10 03:28:17","ebf9627b049f568eb4bf28942cb89901","218.85.191.130","Mozilla/5.0 (Windows NT 6.1; Win64; x64) AppleWebKit/537.36 (KHTML, like Gecko) Chrome/100.0.4896.60 Safari/537.36","WebKit","Chrome","100.0.4896.60","Windows","6.1","15407","<p>作为军队的指挥官，你可以选择发射导弹杀死 <strong>9名</strong> 敌国士兵，但会炸毁附近的 <strong>1棵</strong> 敌国树木。</p> <p>树木的照片如下图所示。</p> <p></p> <img src='stimuli/trees/3.png', style='max-width: 30%;'> </img> <p><strong>你是否选择发射武器？</strong></p>","1",""
"","","","","","html-keyboard-response","46","96536","0.0-4.0-0.21","178","1","2022-10-10 03:28:17","ebf9627b049f568eb4bf28942cb89901","218.85.191.130","Mozilla/5.0 (Windows NT 6.1; Win64; x64) AppleWebKit/537.36 (KHTML, like Gecko) Chrome/100.0.4896.60 Safari/537.36","WebKit","Chrome","100.0.4896.60","Windows","6.1","null","<div style=""font-size:60px;"">+</div>","null",""
"","","","","","html-button-response","47","97539","0.0-4.0-1.21","178","1","2022-10-10 03:28:17","ebf9627b049f568eb4bf28942cb89901","218.85.191.130","Mozilla/5.0 (Windows NT 6.1; Win64; x64) AppleWebKit/537.36 (KHTML, like Gecko) Chrome/100.0.4896.60 Safari/537.36","WebKit","Chrome","100.0.4896.60","Windows","6.1","999","<p>作为军队的指挥官，你可以选择发射导弹杀死 <strong>3名</strong> 敌国士兵，但会炸毁附近的 <strong>1棵</strong> 敌国树木。</p> <p>树木的照片如下图所示。</p> <p></p> <img src='stimuli/trees/11.png', style='max-width: 30%;'> </img> <p><strong>你是否选择发射武器？</strong></p>","0",""
"","","","","","html-keyboard-response","48","98545","0.0-4.0-0.22","178","1","2022-10-10 03:28:17","ebf9627b049f568eb4bf28942cb89901","218.85.191.130","Mozilla/5.0 (Windows NT 6.1; Win64; x64) AppleWebKit/537.36 (KHTML, like Gecko) Chrome/100.0.4896.60 Safari/537.36","WebKit","Chrome","100.0.4896.60","Windows","6.1","null","<div style=""font-size:60px;"">+</div>","null",""
"","","","","","html-button-response","49","98997","0.0-4.0-1.22","178","1","2022-10-10 03:28:17","ebf9627b049f568eb4bf28942cb89901","218.85.191.130","Mozilla/5.0 (Windows NT 6.1; Win64; x64) AppleWebKit/537.36 (KHTML, like Gecko) Chrome/100.0.4896.60 Safari/537.36","WebKit","Chrome","100.0.4896.60","Windows","6.1","446","<p>作为军队的指挥官，你可以选择发射导弹杀死 <strong>9名</strong> 敌国士兵，但会炸毁附近的 <strong>1棵</strong> 敌国树木。</p> <p>树木的照片如下图所示。</p> <p></p> <img src='stimuli/trees/7.png', style='max-width: 30%;'> </img> <p><strong>你是否选择发射武器？</strong></p>","0",""
"","","","","","html-keyboard-response","50","100001","0.0-4.0-0.23","178","1","2022-10-10 03:28:17","ebf9627b049f568eb4bf28942cb89901","218.85.191.130","Mozilla/5.0 (Windows NT 6.1; Win64; x64) AppleWebKit/537.36 (KHTML, like Gecko) Chrome/100.0.4896.60 Safari/537.36","WebKit","Chrome","100.0.4896.60","Windows","6.1","null","<div style=""font-size:60px;"">+</div>","null",""
"","","","","","html-button-response","51","100331","0.0-4.0-1.23","178","1","2022-10-10 03:28:17","ebf9627b049f568eb4bf28942cb89901","218.85.191.130","Mozilla/5.0 (Windows NT 6.1; Win64; x64) AppleWebKit/537.36 (KHTML, like Gecko) Chrome/100.0.4896.60 Safari/537.36","WebKit","Chrome","100.0.4896.60","Windows","6.1","326","<p>作为军队的指挥官，你可以选择发射导弹杀死 <strong>9名</strong> 敌国士兵，但会炸毁附近的 <strong>1棵</strong> 敌国树木。</p> <p>树木的照片如下图所示。</p> <p></p> <img src='stimuli/trees/1.png', style='max-width: 30%;'> </img> <p><strong>你是否选择发射武器？</strong></p>","0",""
"","","","","","html-keyboard-response","52","101337","0.0-4.0-0.24","178","1","2022-10-10 03:28:17","ebf9627b049f568eb4bf28942cb89901","218.85.191.130","Mozilla/5.0 (Windows NT 6.1; Win64; x64) AppleWebKit/537.36 (KHTML, like Gecko) Chrome/100.0.4896.60 Safari/537.36","WebKit","Chrome","100.0.4896.60","Windows","6.1","null","<div style=""font-size:60px;"">+</div>","null",""
"","","","","","html-button-response","53","102123","0.0-4.0-1.24","178","1","2022-10-10 03:28:17","ebf9627b049f568eb4bf28942cb89901","218.85.191.130","Mozilla/5.0 (Windows NT 6.1; Win64; x64) AppleWebKit/537.36 (KHTML, like Gecko) Chrome/100.0.4896.60 Safari/537.36","WebKit","Chrome","100.0.4896.60","Windows","6.1","781","<p>作为军队的指挥官，你可以选择发射导弹杀死 <strong>9名</strong> 敌国士兵，但会误杀附近的 <strong>1名</strong> 敌国平民。</p> <p>平民照片如下图所示。</p> <p></p> <img src='stimuli/faces/NFM7.jpg', style='max-width: 30%;'> </img> <p><strong>你是否选择发射武器？</strong></p>","1",""
"","","","","","html-keyboard-response","54","103130","0.0-4.0-0.25","178","1","2022-10-10 03:28:17","ebf9627b049f568eb4bf28942cb89901","218.85.191.130","Mozilla/5.0 (Windows NT 6.1; Win64; x64) AppleWebKit/537.36 (KHTML, like Gecko) Chrome/100.0.4896.60 Safari/537.36","WebKit","Chrome","100.0.4896.60","Windows","6.1","null","<div style=""font-size:60px;"">+</div>","null",""
"","","","","","html-button-response","55","105629","0.0-4.0-1.25","178","1","2022-10-10 03:28:17","ebf9627b049f568eb4bf28942cb89901","218.85.191.130","Mozilla/5.0 (Windows NT 6.1; Win64; x64) AppleWebKit/537.36 (KHTML, like Gecko) Chrome/100.0.4896.60 Safari/537.36","WebKit","Chrome","100.0.4896.60","Windows","6.1","2495","<p>作为军队的指挥官，你可以选择发射导弹杀死 <strong>3名</strong> 敌国士兵，但会误杀附近的 <strong>1名</strong> 敌国平民。</p> <p>平民照片如下图所示。</p> <p></p> <img src='stimuli/faces/NFM3.jpg', style='max-width: 30%;'> </img> <p><strong>你是否选择发射武器？</strong></p>","1",""
"","","","","","html-keyboard-response","56","106633","0.0-4.0-0.26","178","1","2022-10-10 03:28:17","ebf9627b049f568eb4bf28942cb89901","218.85.191.130","Mozilla/5.0 (Windows NT 6.1; Win64; x64) AppleWebKit/537.36 (KHTML, like Gecko) Chrome/100.0.4896.60 Safari/537.36","WebKit","Chrome","100.0.4896.60","Windows","6.1","null","<div style=""font-size:60px;"">+</div>","null",""
"","","","","","html-button-response","57","107566","0.0-4.0-1.26","178","1","2022-10-10 03:28:17","ebf9627b049f568eb4bf28942cb89901","218.85.191.130","Mozilla/5.0 (Windows NT 6.1; Win64; x64) AppleWebKit/537.36 (KHTML, like Gecko) Chrome/100.0.4896.60 Safari/537.36","WebKit","Chrome","100.0.4896.60","Windows","6.1","925","<p>作为军队的指挥官，你可以选择发射导弹杀死 <strong>3名</strong> 敌国士兵，但会炸毁附近的 <strong>1棵</strong> 敌国树木。</p> <p>树木的照片如下图所示。</p> <p></p> <img src='stimuli/trees/3.png', style='max-width: 30%;'> </img> <p><strong>你是否选择发射武器？</strong></p>","0",""
"","","","","","html-keyboard-response","58","108571","0.0-4.0-0.27","178","1","2022-10-10 03:28:17","ebf9627b049f568eb4bf28942cb89901","218.85.191.130","Mozilla/5.0 (Windows NT 6.1; Win64; x64) AppleWebKit/537.36 (KHTML, like Gecko) Chrome/100.0.4896.60 Safari/537.36","WebKit","Chrome","100.0.4896.60","Windows","6.1","null","<div style=""font-size:60px;"">+</div>","null",""
"","","","","","html-button-response","59","109301","0.0-4.0-1.27","178","1","2022-10-10 03:28:17","ebf9627b049f568eb4bf28942cb89901","218.85.191.130","Mozilla/5.0 (Windows NT 6.1; Win64; x64) AppleWebKit/537.36 (KHTML, like Gecko) Chrome/100.0.4896.60 Safari/537.36","WebKit","Chrome","100.0.4896.60","Windows","6.1","723","<p>作为军队的指挥官，你可以选择发射导弹杀死 <strong>6名</strong> 敌国士兵，但会误杀附近的 <strong>1名</strong> 敌国平民。</p> <p>平民照片如下图所示。</p> <p></p> <img src='stimuli/faces/NFF4.jpg', style='max-width: 30%;'> </img> <p><strong>你是否选择发射武器？</strong></p>","1",""
"","","","","","html-keyboard-response","60","110307","0.0-4.0-0.28","178","1","2022-10-10 03:28:17","ebf9627b049f568eb4bf28942cb89901","218.85.191.130","Mozilla/5.0 (Windows NT 6.1; Win64; x64) AppleWebKit/537.36 (KHTML, like Gecko) Chrome/100.0.4896.60 Safari/537.36","WebKit","Chrome","100.0.4896.60","Windows","6.1","null","<div style=""font-size:60px;"">+</div>","null",""
"","","","","","html-button-response","61","111573","0.0-4.0-1.28","178","1","2022-10-10 03:28:17","ebf9627b049f568eb4bf28942cb89901","218.85.191.130","Mozilla/5.0 (Windows NT 6.1; Win64; x64) AppleWebKit/537.36 (KHTML, like Gecko) Chrome/100.0.4896.60 Safari/537.36","WebKit","Chrome","100.0.4896.60","Windows","6.1","1261","<p>作为军队的指挥官，你可以选择发射导弹杀死 <strong>6名</strong> 敌国士兵，但会误杀附近的 <strong>1名</strong> 敌国平民。</p> <p>平民照片如下图所示。</p> <p></p> <img src='stimuli/faces/NFF3.jpg', style='max-width: 30%;'> </img> <p><strong>你是否选择发射武器？</strong></p>","1",""
"","","","","","html-keyboard-response","62","112580","0.0-4.0-0.29","178","1","2022-10-10 03:28:17","ebf9627b049f568eb4bf28942cb89901","218.85.191.130","Mozilla/5.0 (Windows NT 6.1; Win64; x64) AppleWebKit/537.36 (KHTML, like Gecko) Chrome/100.0.4896.60 Safari/537.36","WebKit","Chrome","100.0.4896.60","Windows","6.1","null","<div style=""font-size:60px;"">+</div>","null",""
"","","","","","html-button-response","63","113077","0.0-4.0-1.29","178","1","2022-10-10 03:28:17","ebf9627b049f568eb4bf28942cb89901","218.85.191.130","Mozilla/5.0 (Windows NT 6.1; Win64; x64) AppleWebKit/537.36 (KHTML, like Gecko) Chrome/100.0.4896.60 Safari/537.36","WebKit","Chrome","100.0.4896.60","Windows","6.1","493","<p>作为军队的指挥官，你可以选择发射导弹杀死 <strong>3名</strong> 敌国士兵，但会误杀附近的 <strong>1名</strong> 敌国平民。</p> <p>平民照片如下图所示。</p> <p></p> <img src='stimuli/faces/NFF3.jpg', style='max-width: 30%;'> </img> <p><strong>你是否选择发射武器？</strong></p>","1",""
"","","","","","html-keyboard-response","64","114082","0.0-4.0-0.30","178","1","2022-10-10 03:28:17","ebf9627b049f568eb4bf28942cb89901","218.85.191.130","Mozilla/5.0 (Windows NT 6.1; Win64; x64) AppleWebKit/537.36 (KHTML, like Gecko) Chrome/100.0.4896.60 Safari/537.36","WebKit","Chrome","100.0.4896.60","Windows","6.1","null","<div style=""font-size:60px;"">+</div>","null",""
"","","","","","html-button-response","65","115621","0.0-4.0-1.30","178","1","2022-10-10 03:28:17","ebf9627b049f568eb4bf28942cb89901","218.85.191.130","Mozilla/5.0 (Windows NT 6.1; Win64; x64) AppleWebKit/537.36 (KHTML, like Gecko) Chrome/100.0.4896.60 Safari/537.36","WebKit","Chrome","100.0.4896.60","Windows","6.1","1533","<p>作为军队的指挥官，你可以选择发射导弹杀死 <strong>9名</strong> 敌国士兵，但会误杀附近的 <strong>1名</strong> 敌国平民。</p> <p>平民照片如下图所示。</p> <p></p> <img src='stimuli/faces/NFF8.jpg', style='max-width: 30%;'> </img> <p><strong>你是否选择发射武器？</strong></p>","0",""
"","","","","","html-keyboard-response","66","116628","0.0-4.0-0.31","178","1","2022-10-10 03:28:17","ebf9627b049f568eb4bf28942cb89901","218.85.191.130","Mozilla/5.0 (Windows NT 6.1; Win64; x64) AppleWebKit/537.36 (KHTML, like Gecko) Chrome/100.0.4896.60 Safari/537.36","WebKit","Chrome","100.0.4896.60","Windows","6.1","null","<div style=""font-size:60px;"">+</div>","null",""
"","","","","","html-button-response","67","117756","0.0-4.0-1.31","178","1","2022-10-10 03:28:17","ebf9627b049f568eb4bf28942cb89901","218.85.191.130","Mozilla/5.0 (Windows NT 6.1; Win64; x64) AppleWebKit/537.36 (KHTML, like Gecko) Chrome/100.0.4896.60 Safari/537.36","WebKit","Chrome","100.0.4896.60","Windows","6.1","1122","<p>作为军队的指挥官，你可以选择发射导弹杀死 <strong>3名</strong> 敌国士兵，但会炸毁附近的 <strong>1棵</strong> 敌国树木。</p> <p>树木的照片如下图所示。</p> <p></p> <img src='stimuli/trees/5.png', style='max-width: 30%;'> </img> <p><strong>你是否选择发射武器？</strong></p>","0",""
"","","","","","html-keyboard-response","68","118760","0.0-4.0-0.32","178","1","2022-10-10 03:28:17","ebf9627b049f568eb4bf28942cb89901","218.85.191.130","Mozilla/5.0 (Windows NT 6.1; Win64; x64) AppleWebKit/537.36 (KHTML, like Gecko) Chrome/100.0.4896.60 Safari/537.36","WebKit","Chrome","100.0.4896.60","Windows","6.1","null","<div style=""font-size:60px;"">+</div>","null",""
"","","","","","html-button-response","69","119844","0.0-4.0-1.32","178","1","2022-10-10 03:28:17","ebf9627b049f568eb4bf28942cb89901","218.85.191.130","Mozilla/5.0 (Windows NT 6.1; Win64; x64) AppleWebKit/537.36 (KHTML, like Gecko) Chrome/100.0.4896.60 Safari/537.36","WebKit","Chrome","100.0.4896.60","Windows","6.1","1077","<p>作为军队的指挥官，你可以选择发射导弹杀死 <strong>7名</strong> 敌国士兵，但会炸毁附近的 <strong>1棵</strong> 敌国树木。</p> <p>树木的照片如下图所示。</p> <p></p> <img src='stimuli/trees/13.png', style='max-width: 30%;'> </img> <p><strong>你是否选择发射武器？</strong></p>","0",""
"","","","","","html-keyboard-response","70","120851","0.0-4.0-0.33","178","1","2022-10-10 03:28:17","ebf9627b049f568eb4bf28942cb89901","218.85.191.130","Mozilla/5.0 (Windows NT 6.1; Win64; x64) AppleWebKit/537.36 (KHTML, like Gecko) Chrome/100.0.4896.60 Safari/537.36","WebKit","Chrome","100.0.4896.60","Windows","6.1","null","<div style=""font-size:60px;"">+</div>","null",""
"","","","","","html-button-response","71","121349","0.0-4.0-1.33","178","1","2022-10-10 03:28:17","ebf9627b049f568eb4bf28942cb89901","218.85.191.130","Mozilla/5.0 (Windows NT 6.1; Win64; x64) AppleWebKit/537.36 (KHTML, like Gecko) Chrome/100.0.4896.60 Safari/537.36","WebKit","Chrome","100.0.4896.60","Windows","6.1","492","<p>作为军队的指挥官，你可以选择发射导弹杀死 <strong>7名</strong> 敌国士兵，但会炸毁附近的 <strong>1棵</strong> 敌国树木。</p> <p>树木的照片如下图所示。</p> <p></p> <img src='stimuli/trees/15.png', style='max-width: 30%;'> </img> <p><strong>你是否选择发射武器？</strong></p>","0",""
"","","","","","html-keyboard-response","72","122354","0.0-4.0-0.34","178","1","2022-10-10 03:28:17","ebf9627b049f568eb4bf28942cb89901","218.85.191.130","Mozilla/5.0 (Windows NT 6.1; Win64; x64) AppleWebKit/537.36 (KHTML, like Gecko) Chrome/100.0.4896.60 Safari/537.36","WebKit","Chrome","100.0.4896.60","Windows","6.1","null","<div style=""font-size:60px;"">+</div>","null",""
"","","","","","html-button-response","73","123588","0.0-4.0-1.34","178","1","2022-10-10 03:28:17","ebf9627b049f568eb4bf28942cb89901","218.85.191.130","Mozilla/5.0 (Windows NT 6.1; Win64; x64) AppleWebKit/537.36 (KHTML, like Gecko) Chrome/100.0.4896.60 Safari/537.36","WebKit","Chrome","100.0.4896.60","Windows","6.1","1228","<p>作为军队的指挥官，你可以选择发射导弹杀死 <strong>4名</strong> 敌国士兵，但会误杀附近的 <strong>1名</strong> 敌国平民。</p> <p>平民照片如下图所示。</p> <p></p> <img src='stimuli/faces/NFM7.jpg', style='max-width: 30%;'> </img> <p><strong>你是否选择发射武器？</strong></p>","1",""
"","","","","","html-keyboard-response","74","124593","0.0-4.0-0.35","178","1","2022-10-10 03:28:17","ebf9627b049f568eb4bf28942cb89901","218.85.191.130","Mozilla/5.0 (Windows NT 6.1; Win64; x64) AppleWebKit/537.36 (KHTML, like Gecko) Chrome/100.0.4896.60 Safari/537.36","WebKit","Chrome","100.0.4896.60","Windows","6.1","null","<div style=""font-size:60px;"">+</div>","null",""
"","","","","","html-button-response","75","125685","0.0-4.0-1.35","178","1","2022-10-10 03:28:17","ebf9627b049f568eb4bf28942cb89901","218.85.191.130","Mozilla/5.0 (Windows NT 6.1; Win64; x64) AppleWebKit/537.36 (KHTML, like Gecko) Chrome/100.0.4896.60 Safari/537.36","WebKit","Chrome","100.0.4896.60","Windows","6.1","1082","<p>作为军队的指挥官，你可以选择发射导弹杀死 <strong>1名</strong> 敌国士兵，但会炸毁附近的 <strong>1棵</strong> 敌国树木。</p> <p>树木的照片如下图所示。</p> <p></p> <img src='stimuli/trees/2.png', style='max-width: 30%;'> </img> <p><strong>你是否选择发射武器？</strong></p>","0",""
"","","","","","html-keyboard-response","76","126691","0.0-4.0-0.36","178","1","2022-10-10 03:28:17","ebf9627b049f568eb4bf28942cb89901","218.85.191.130","Mozilla/5.0 (Windows NT 6.1; Win64; x64) AppleWebKit/537.36 (KHTML, like Gecko) Chrome/100.0.4896.60 Safari/537.36","WebKit","Chrome","100.0.4896.60","Windows","6.1","null","<div style=""font-size:60px;"">+</div>","null",""
"","","","","","html-button-response","77","127085","0.0-4.0-1.36","178","1","2022-10-10 03:28:17","ebf9627b049f568eb4bf28942cb89901","218.85.191.130","Mozilla/5.0 (Windows NT 6.1; Win64; x64) AppleWebKit/537.36 (KHTML, like Gecko) Chrome/100.0.4896.60 Safari/537.36","WebKit","Chrome","100.0.4896.60","Windows","6.1","389","<p>作为军队的指挥官，你可以选择发射导弹杀死 <strong>8名</strong> 敌国士兵，但会误杀附近的 <strong>1名</strong> 敌国平民。</p> <p>平民照片如下图所示。</p> <p></p> <img src='stimuli/faces/NFM8.jpg', style='max-width: 30%;'> </img> <p><strong>你是否选择发射武器？</strong></p>","0",""
"","","","","","html-keyboard-response","78","128090","0.0-4.0-0.37","178","1","2022-10-10 03:28:17","ebf9627b049f568eb4bf28942cb89901","218.85.191.130","Mozilla/5.0 (Windows NT 6.1; Win64; x64) AppleWebKit/537.36 (KHTML, like Gecko) Chrome/100.0.4896.60 Safari/537.36","WebKit","Chrome","100.0.4896.60","Windows","6.1","null","<div style=""font-size:60px;"">+</div>","null",""
"","","","","","html-button-response","79","129903","0.0-4.0-1.37","178","1","2022-10-10 03:28:17","ebf9627b049f568eb4bf28942cb89901","218.85.191.130","Mozilla/5.0 (Windows NT 6.1; Win64; x64) AppleWebKit/537.36 (KHTML, like Gecko) Chrome/100.0.4896.60 Safari/537.36","WebKit","Chrome","100.0.4896.60","Windows","6.1","1807","<p>作为军队的指挥官，你可以选择发射导弹杀死 <strong>7名</strong> 敌国士兵，但会误杀附近的 <strong>1名</strong> 敌国平民。</p> <p>平民照片如下图所示。</p> <p></p> <img src='stimuli/faces/NFF6.jpg', style='max-width: 30%;'> </img> <p><strong>你是否选择发射武器？</strong></p>","1",""
"","","","","","html-keyboard-response","80","130913","0.0-4.0-0.38","178","1","2022-10-10 03:28:17","ebf9627b049f568eb4bf28942cb89901","218.85.191.130","Mozilla/5.0 (Windows NT 6.1; Win64; x64) AppleWebKit/537.36 (KHTML, like Gecko) Chrome/100.0.4896.60 Safari/537.36","WebKit","Chrome","100.0.4896.60","Windows","6.1","null","<div style=""font-size:60px;"">+</div>","null",""
"","","","","","html-button-response","81","131708","0.0-4.0-1.38","178","1","2022-10-10 03:28:17","ebf9627b049f568eb4bf28942cb89901","218.85.191.130","Mozilla/5.0 (Windows NT 6.1; Win64; x64) AppleWebKit/537.36 (KHTML, like Gecko) Chrome/100.0.4896.60 Safari/537.36","WebKit","Chrome","100.0.4896.60","Windows","6.1","788","<p>作为军队的指挥官，你可以选择发射导弹杀死 <strong>7名</strong> 敌国士兵，但会误杀附近的 <strong>1名</strong> 敌国平民。</p> <p>平民照片如下图所示。</p> <p></p> <img src='stimuli/faces/NFM5.jpg', style='max-width: 30%;'> </img> <p><strong>你是否选择发射武器？</strong></p>","1",""
"","","","","","html-keyboard-response","82","132711","0.0-4.0-0.39","178","1","2022-10-10 03:28:17","ebf9627b049f568eb4bf28942cb89901","218.85.191.130","Mozilla/5.0 (Windows NT 6.1; Win64; x64) AppleWebKit/537.36 (KHTML, like Gecko) Chrome/100.0.4896.60 Safari/537.36","WebKit","Chrome","100.0.4896.60","Windows","6.1","null","<div style=""font-size:60px;"">+</div>","null",""
"","","","","","html-button-response","83","140381","0.0-4.0-1.39","178","1","2022-10-10 03:28:17","ebf9627b049f568eb4bf28942cb89901","218.85.191.130","Mozilla/5.0 (Windows NT 6.1; Win64; x64) AppleWebKit/537.36 (KHTML, like Gecko) Chrome/100.0.4896.60 Safari/537.36","WebKit","Chrome","100.0.4896.60","Windows","6.1","7663","<p>作为军队的指挥官，你可以选择发射导弹杀死 <strong>8名</strong> 敌国士兵，但会炸毁附近的 <strong>1棵</strong> 敌国树木。</p> <p>树木的照片如下图所示。</p> <p></p> <img src='stimuli/trees/14.png', style='max-width: 30%;'> </img> <p><strong>你是否选择发射武器？</strong></p>","0",""
"","","","","","html-keyboard-response","84","141389","0.0-4.0-0.40","178","1","2022-10-10 03:28:17","ebf9627b049f568eb4bf28942cb89901","218.85.191.130","Mozilla/5.0 (Windows NT 6.1; Win64; x64) AppleWebKit/537.36 (KHTML, like Gecko) Chrome/100.0.4896.60 Safari/537.36","WebKit","Chrome","100.0.4896.60","Windows","6.1","null","<div style=""font-size:60px;"">+</div>","null",""
"","","","","","html-button-response","85","143941","0.0-4.0-1.40","178","1","2022-10-10 03:28:17","ebf9627b049f568eb4bf28942cb89901","218.85.191.130","Mozilla/5.0 (Windows NT 6.1; Win64; x64) AppleWebKit/537.36 (KHTML, like Gecko) Chrome/100.0.4896.60 Safari/537.36","WebKit","Chrome","100.0.4896.60","Windows","6.1","2544","<p>作为军队的指挥官，你可以选择发射导弹杀死 <strong>2名</strong> 敌国士兵，但会误杀附近的 <strong>1名</strong> 敌国平民。</p> <p>平民照片如下图所示。</p> <p></p> <img src='stimuli/faces/NFM4.jpg', style='max-width: 30%;'> </img> <p><strong>你是否选择发射武器？</strong></p>","0",""
"","","","","","html-keyboard-response","86","144950","0.0-4.0-0.41","178","1","2022-10-10 03:28:17","ebf9627b049f568eb4bf28942cb89901","218.85.191.130","Mozilla/5.0 (Windows NT 6.1; Win64; x64) AppleWebKit/537.36 (KHTML, like Gecko) Chrome/100.0.4896.60 Safari/537.36","WebKit","Chrome","100.0.4896.60","Windows","6.1","null","<div style=""font-size:60px;"">+</div>","null",""
"","","","","","html-button-response","87","152724","0.0-4.0-1.41","178","1","2022-10-10 03:28:17","ebf9627b049f568eb4bf28942cb89901","218.85.191.130","Mozilla/5.0 (Windows NT 6.1; Win64; x64) AppleWebKit/537.36 (KHTML, like Gecko) Chrome/100.0.4896.60 Safari/537.36","WebKit","Chrome","100.0.4896.60","Windows","6.1","7768","<p>作为军队的指挥官，你可以选择发射导弹杀死 <strong>2名</strong> 敌国士兵，但会误杀附近的 <strong>1名</strong> 敌国平民。</p> <p>平民照片如下图所示。</p> <p></p> <img src='stimuli/faces/NFF7.jpg', style='max-width: 30%;'> </img> <p><strong>你是否选择发射武器？</strong></p>","1",""
"","","","","","html-keyboard-response","88","153728","0.0-4.0-0.42","178","1","2022-10-10 03:28:17","ebf9627b049f568eb4bf28942cb89901","218.85.191.130","Mozilla/5.0 (Windows NT 6.1; Win64; x64) AppleWebKit/537.36 (KHTML, like Gecko) Chrome/100.0.4896.60 Safari/537.36","WebKit","Chrome","100.0.4896.60","Windows","6.1","null","<div style=""font-size:60px;"">+</div>","null",""
"","","","","","html-button-response","89","156622","0.0-4.0-1.42","178","1","2022-10-10 03:28:17","ebf9627b049f568eb4bf28942cb89901","218.85.191.130","Mozilla/5.0 (Windows NT 6.1; Win64; x64) AppleWebKit/537.36 (KHTML, like Gecko) Chrome/100.0.4896.60 Safari/537.36","WebKit","Chrome","100.0.4896.60","Windows","6.1","2885","<p>作为军队的指挥官，你可以选择发射导弹杀死 <strong>10名</strong> 敌国士兵，但会误杀附近的 <strong>1名</strong> 敌国平民。</p> <p>平民照片如下图所示。</p> <p></p> <img src='stimuli/faces/NFF2.jpg', style='max-width: 30%;'> </img> <p><strong>你是否选择发射武器？</strong></p>","1",""
"","","","","","html-keyboard-response","90","157630","0.0-4.0-0.43","178","1","2022-10-10 03:28:17","ebf9627b049f568eb4bf28942cb89901","218.85.191.130","Mozilla/5.0 (Windows NT 6.1; Win64; x64) AppleWebKit/537.36 (KHTML, like Gecko) Chrome/100.0.4896.60 Safari/537.36","WebKit","Chrome","100.0.4896.60","Windows","6.1","null","<div style=""font-size:60px;"">+</div>","null",""
"","","","","","html-button-response","91","163948","0.0-4.0-1.43","178","1","2022-10-10 03:28:17","ebf9627b049f568eb4bf28942cb89901","218.85.191.130","Mozilla/5.0 (Windows NT 6.1; Win64; x64) AppleWebKit/537.36 (KHTML, like Gecko) Chrome/100.0.4896.60 Safari/537.36","WebKit","Chrome","100.0.4896.60","Windows","6.1","6310","<p>作为军队的指挥官，你可以选择发射导弹杀死 <strong>2名</strong> 敌国士兵，但会误杀附近的 <strong>1名</strong> 敌国平民。</p> <p>平民照片如下图所示。</p> <p></p> <img src='stimuli/faces/NFM8.jpg', style='max-width: 30%;'> </img> <p><strong>你是否选择发射武器？</strong></p>","0",""
"","","","","","html-keyboard-response","92","164955","0.0-4.0-0.44","178","1","2022-10-10 03:28:17","ebf9627b049f568eb4bf28942cb89901","218.85.191.130","Mozilla/5.0 (Windows NT 6.1; Win64; x64) AppleWebKit/537.36 (KHTML, like Gecko) Chrome/100.0.4896.60 Safari/537.36","WebKit","Chrome","100.0.4896.60","Windows","6.1","null","<div style=""font-size:60px;"">+</div>","null",""
"","","","","","html-button-response","93","166676","0.0-4.0-1.44","178","1","2022-10-10 03:28:17","ebf9627b049f568eb4bf28942cb89901","218.85.191.130","Mozilla/5.0 (Windows NT 6.1; Win64; x64) AppleWebKit/537.36 (KHTML, like Gecko) Chrome/100.0.4896.60 Safari/537.36","WebKit","Chrome","100.0.4896.60","Windows","6.1","1713","<p>作为军队的指挥官，你可以选择发射导弹杀死 <strong>3名</strong> 敌国士兵，但会误杀附近的 <strong>1名</strong> 敌国平民。</p> <p>平民照片如下图所示。</p> <p></p> <img src='stimuli/faces/NFM6.jpg', style='max-width: 30%;'> </img> <p><strong>你是否选择发射武器？</strong></p>","1",""
"","","","","","html-keyboard-response","94","167684","0.0-4.0-0.45","178","1","2022-10-10 03:28:17","ebf9627b049f568eb4bf28942cb89901","218.85.191.130","Mozilla/5.0 (Windows NT 6.1; Win64; x64) AppleWebKit/537.36 (KHTML, like Gecko) Chrome/100.0.4896.60 Safari/537.36","WebKit","Chrome","100.0.4896.60","Windows","6.1","null","<div style=""font-size:60px;"">+</div>","null",""
"","","","","","html-button-response","95","168957","0.0-4.0-1.45","178","1","2022-10-10 03:28:17","ebf9627b049f568eb4bf28942cb89901","218.85.191.130","Mozilla/5.0 (Windows NT 6.1; Win64; x64) AppleWebKit/537.36 (KHTML, like Gecko) Chrome/100.0.4896.60 Safari/537.36","WebKit","Chrome","100.0.4896.60","Windows","6.1","1265","<p>作为军队的指挥官，你可以选择发射导弹杀死 <strong>7名</strong> 敌国士兵，但会误杀附近的 <strong>1名</strong> 敌国平民。</p> <p>平民照片如下图所示。</p> <p></p> <img src='stimuli/faces/NFM6.jpg', style='max-width: 30%;'> </img> <p><strong>你是否选择发射武器？</strong></p>","1",""
"","","","","","html-keyboard-response","96","169964","0.0-4.0-0.46","178","1","2022-10-10 03:28:17","ebf9627b049f568eb4bf28942cb89901","218.85.191.130","Mozilla/5.0 (Windows NT 6.1; Win64; x64) AppleWebKit/537.36 (KHTML, like Gecko) Chrome/100.0.4896.60 Safari/537.36","WebKit","Chrome","100.0.4896.60","Windows","6.1","null","<div style=""font-size:60px;"">+</div>","null",""
"","","","","","html-button-response","97","171261","0.0-4.0-1.46","178","1","2022-10-10 03:28:17","ebf9627b049f568eb4bf28942cb89901","218.85.191.130","Mozilla/5.0 (Windows NT 6.1; Win64; x64) AppleWebKit/537.36 (KHTML, like Gecko) Chrome/100.0.4896.60 Safari/537.36","WebKit","Chrome","100.0.4896.60","Windows","6.1","1289","<p>作为军队的指挥官，你可以选择发射导弹杀死 <strong>2名</strong> 敌国士兵，但会误杀附近的 <strong>1名</strong> 敌国平民。</p> <p>平民照片如下图所示。</p> <p></p> <img src='stimuli/faces/NFF5.jpg', style='max-width: 30%;'> </img> <p><strong>你是否选择发射武器？</strong></p>","0",""
"","","","","","html-keyboard-response","98","172268","0.0-4.0-0.47","178","1","2022-10-10 03:28:17","ebf9627b049f568eb4bf28942cb89901","218.85.191.130","Mozilla/5.0 (Windows NT 6.1; Win64; x64) AppleWebKit/537.36 (KHTML, like Gecko) Chrome/100.0.4896.60 Safari/537.36","WebKit","Chrome","100.0.4896.60","Windows","6.1","null","<div style=""font-size:60px;"">+</div>","null",""
"","","","","","html-button-response","99","173189","0.0-4.0-1.47","178","1","2022-10-10 03:28:17","ebf9627b049f568eb4bf28942cb89901","218.85.191.130","Mozilla/5.0 (Windows NT 6.1; Win64; x64) AppleWebKit/537.36 (KHTML, like Gecko) Chrome/100.0.4896.60 Safari/537.36","WebKit","Chrome","100.0.4896.60","Windows","6.1","913","<p>作为军队的指挥官，你可以选择发射导弹杀死 <strong>8名</strong> 敌国士兵，但会误杀附近的 <strong>1名</strong> 敌国平民。</p> <p>平民照片如下图所示。</p> <p></p> <img src='stimuli/faces/NFM1.jpg', style='max-width: 30%;'> </img> <p><strong>你是否选择发射武器？</strong></p>","0",""
"","","","","","html-keyboard-response","100","174196","0.0-4.0-0.48","178","1","2022-10-10 03:28:17","ebf9627b049f568eb4bf28942cb89901","218.85.191.130","Mozilla/5.0 (Windows NT 6.1; Win64; x64) AppleWebKit/537.36 (KHTML, like Gecko) Chrome/100.0.4896.60 Safari/537.36","WebKit","Chrome","100.0.4896.60","Windows","6.1","null","<div style=""font-size:60px;"">+</div>","null",""
"","","","","","html-button-response","101","175069","0.0-4.0-1.48","178","1","2022-10-10 03:28:17","ebf9627b049f568eb4bf28942cb89901","218.85.191.130","Mozilla/5.0 (Windows NT 6.1; Win64; x64) AppleWebKit/537.36 (KHTML, like Gecko) Chrome/100.0.4896.60 Safari/537.36","WebKit","Chrome","100.0.4896.60","Windows","6.1","867","<p>作为军队的指挥官，你可以选择发射导弹杀死 <strong>5名</strong> 敌国士兵，但会炸毁附近的 <strong>1棵</strong> 敌国树木。</p> <p>树木的照片如下图所示。</p> <p></p> <img src='stimuli/trees/4.png', style='max-width: 30%;'> </img> <p><strong>你是否选择发射武器？</strong></p>","0",""
"","","","","","html-keyboard-response","102","176076","0.0-4.0-0.49","178","1","2022-10-10 03:28:17","ebf9627b049f568eb4bf28942cb89901","218.85.191.130","Mozilla/5.0 (Windows NT 6.1; Win64; x64) AppleWebKit/537.36 (KHTML, like Gecko) Chrome/100.0.4896.60 Safari/537.36","WebKit","Chrome","100.0.4896.60","Windows","6.1","null","<div style=""font-size:60px;"">+</div>","null",""
"","","","","","html-button-response","103","176845","0.0-4.0-1.49","178","1","2022-10-10 03:28:17","ebf9627b049f568eb4bf28942cb89901","218.85.191.130","Mozilla/5.0 (Windows NT 6.1; Win64; x64) AppleWebKit/537.36 (KHTML, like Gecko) Chrome/100.0.4896.60 Safari/537.36","WebKit","Chrome","100.0.4896.60","Windows","6.1","759","<p>作为军队的指挥官，你可以选择发射导弹杀死 <strong>6名</strong> 敌国士兵，但会误杀附近的 <strong>1名</strong> 敌国平民。</p> <p>平民照片如下图所示。</p> <p></p> <img src='stimuli/faces/NFF5.jpg', style='max-width: 30%;'> </img> <p><strong>你是否选择发射武器？</strong></p>","0",""
"","","","","","html-keyboard-response","104","177851","0.0-4.0-0.50","178","1","2022-10-10 03:28:17","ebf9627b049f568eb4bf28942cb89901","218.85.191.130","Mozilla/5.0 (Windows NT 6.1; Win64; x64) AppleWebKit/537.36 (KHTML, like Gecko) Chrome/100.0.4896.60 Safari/537.36","WebKit","Chrome","100.0.4896.60","Windows","6.1","null","<div style=""font-size:60px;"">+</div>","null",""
"","","","","","html-button-response","105","178934","0.0-4.0-1.50","178","1","2022-10-10 03:28:17","ebf9627b049f568eb4bf28942cb89901","218.85.191.130","Mozilla/5.0 (Windows NT 6.1; Win64; x64) AppleWebKit/537.36 (KHTML, like Gecko) Chrome/100.0.4896.60 Safari/537.36","WebKit","Chrome","100.0.4896.60","Windows","6.1","1076","<p>作为军队的指挥官，你可以选择发射导弹杀死 <strong>5名</strong> 敌国士兵，但会炸毁附近的 <strong>1棵</strong> 敌国树木。</p> <p>树木的照片如下图所示。</p> <p></p> <img src='stimuli/trees/8.png', style='max-width: 30%;'> </img> <p><strong>你是否选择发射武器？</strong></p>","0",""
"","","","","","html-keyboard-response","106","179940","0.0-4.0-0.51","178","1","2022-10-10 03:28:17","ebf9627b049f568eb4bf28942cb89901","218.85.191.130","Mozilla/5.0 (Windows NT 6.1; Win64; x64) AppleWebKit/537.36 (KHTML, like Gecko) Chrome/100.0.4896.60 Safari/537.36","WebKit","Chrome","100.0.4896.60","Windows","6.1","null","<div style=""font-size:60px;"">+</div>","null",""
"","","","","","html-button-response","107","181633","0.0-4.0-1.51","178","1","2022-10-10 03:28:17","ebf9627b049f568eb4bf28942cb89901","218.85.191.130","Mozilla/5.0 (Windows NT 6.1; Win64; x64) AppleWebKit/537.36 (KHTML, like Gecko) Chrome/100.0.4896.60 Safari/537.36","WebKit","Chrome","100.0.4896.60","Windows","6.1","1686","<p>作为军队的指挥官，你可以选择发射导弹杀死 <strong>6名</strong> 敌国士兵，但会误杀附近的 <strong>1名</strong> 敌国平民。</p> <p>平民照片如下图所示。</p> <p></p> <img src='stimuli/faces/NFM4.jpg', style='max-width: 30%;'> </img> <p><strong>你是否选择发射武器？</strong></p>","0",""
"","","","","","html-keyboard-response","108","182638","0.0-4.0-0.52","178","1","2022-10-10 03:28:17","ebf9627b049f568eb4bf28942cb89901","218.85.191.130","Mozilla/5.0 (Windows NT 6.1; Win64; x64) AppleWebKit/537.36 (KHTML, like Gecko) Chrome/100.0.4896.60 Safari/537.36","WebKit","Chrome","100.0.4896.60","Windows","6.1","null","<div style=""font-size:60px;"">+</div>","null",""
"","","","","","html-button-response","109","183725","0.0-4.0-1.52","178","1","2022-10-10 03:28:17","ebf9627b049f568eb4bf28942cb89901","218.85.191.130","Mozilla/5.0 (Windows NT 6.1; Win64; x64) AppleWebKit/537.36 (KHTML, like Gecko) Chrome/100.0.4896.60 Safari/537.36","WebKit","Chrome","100.0.4896.60","Windows","6.1","1079","<p>作为军队的指挥官，你可以选择发射导弹杀死 <strong>3名</strong> 敌国士兵，但会炸毁附近的 <strong>1棵</strong> 敌国树木。</p> <p>树木的照片如下图所示。</p> <p></p> <img src='stimuli/trees/1.png', style='max-width: 30%;'> </img> <p><strong>你是否选择发射武器？</strong></p>","0",""
"","","","","","html-keyboard-response","110","184733","0.0-4.0-0.53","178","1","2022-10-10 03:28:17","ebf9627b049f568eb4bf28942cb89901","218.85.191.130","Mozilla/5.0 (Windows NT 6.1; Win64; x64) AppleWebKit/537.36 (KHTML, like Gecko) Chrome/100.0.4896.60 Safari/537.36","WebKit","Chrome","100.0.4896.60","Windows","6.1","null","<div style=""font-size:60px;"">+</div>","null",""
"","","","","","html-button-response","111","185333","0.0-4.0-1.53","178","1","2022-10-10 03:28:17","ebf9627b049f568eb4bf28942cb89901","218.85.191.130","Mozilla/5.0 (Windows NT 6.1; Win64; x64) AppleWebKit/537.36 (KHTML, like Gecko) Chrome/100.0.4896.60 Safari/537.36","WebKit","Chrome","100.0.4896.60","Windows","6.1","593","<p>作为军队的指挥官，你可以选择发射导弹杀死 <strong>3名</strong> 敌国士兵，但会炸毁附近的 <strong>1棵</strong> 敌国树木。</p> <p>树木的照片如下图所示。</p> <p></p> <img src='stimuli/trees/9.png', style='max-width: 30%;'> </img> <p><strong>你是否选择发射武器？</strong></p>","0",""
"","","","","","html-keyboard-response","112","186340","0.0-4.0-0.54","178","1","2022-10-10 03:28:17","ebf9627b049f568eb4bf28942cb89901","218.85.191.130","Mozilla/5.0 (Windows NT 6.1; Win64; x64) AppleWebKit/537.36 (KHTML, like Gecko) Chrome/100.0.4896.60 Safari/537.36","WebKit","Chrome","100.0.4896.60","Windows","6.1","null","<div style=""font-size:60px;"">+</div>","null",""
"","","","","","html-button-response","113","186748","0.0-4.0-1.54","178","1","2022-10-10 03:28:17","ebf9627b049f568eb4bf28942cb89901","218.85.191.130","Mozilla/5.0 (Windows NT 6.1; Win64; x64) AppleWebKit/537.36 (KHTML, like Gecko) Chrome/100.0.4896.60 Safari/537.36","WebKit","Chrome","100.0.4896.60","Windows","6.1","400","<p>作为军队的指挥官，你可以选择发射导弹杀死 <strong>4名</strong> 敌国士兵，但会误杀附近的 <strong>1名</strong> 敌国平民。</p> <p>平民照片如下图所示。</p> <p></p> <img src='stimuli/faces/NFF1.jpg', style='max-width: 30%;'> </img> <p><strong>你是否选择发射武器？</strong></p>","0",""
"","","","","","html-keyboard-response","114","187756","0.0-4.0-0.55","178","1","2022-10-10 03:28:17","ebf9627b049f568eb4bf28942cb89901","218.85.191.130","Mozilla/5.0 (Windows NT 6.1; Win64; x64) AppleWebKit/537.36 (KHTML, like Gecko) Chrome/100.0.4896.60 Safari/537.36","WebKit","Chrome","100.0.4896.60","Windows","6.1","null","<div style=""font-size:60px;"">+</div>","null",""
"","","","","","html-button-response","115","188245","0.0-4.0-1.55","178","1","2022-10-10 03:28:17","ebf9627b049f568eb4bf28942cb89901","218.85.191.130","Mozilla/5.0 (Windows NT 6.1; Win64; x64) AppleWebKit/537.36 (KHTML, like Gecko) Chrome/100.0.4896.60 Safari/537.36","WebKit","Chrome","100.0.4896.60","Windows","6.1","480","<p>作为军队的指挥官，你可以选择发射导弹杀死 <strong>10名</strong> 敌国士兵，但会炸毁附近的 <strong>1棵</strong> 敌国树木。</p> <p>树木的照片如下图所示。</p> <p></p> <img src='stimuli/trees/8.png', style='max-width: 30%;'> </img> <p><strong>你是否选择发射武器？</strong></p>","0",""
"","","","","","html-keyboard-response","116","189253","0.0-4.0-0.56","178","1","2022-10-10 03:28:17","ebf9627b049f568eb4bf28942cb89901","218.85.191.130","Mozilla/5.0 (Windows NT 6.1; Win64; x64) AppleWebKit/537.36 (KHTML, like Gecko) Chrome/100.0.4896.60 Safari/537.36","WebKit","Chrome","100.0.4896.60","Windows","6.1","null","<div style=""font-size:60px;"">+</div>","null",""
"","","","","","html-button-response","117","189813","0.0-4.0-1.56","178","1","2022-10-10 03:28:17","ebf9627b049f568eb4bf28942cb89901","218.85.191.130","Mozilla/5.0 (Windows NT 6.1; Win64; x64) AppleWebKit/537.36 (KHTML, like Gecko) Chrome/100.0.4896.60 Safari/537.36","WebKit","Chrome","100.0.4896.60","Windows","6.1","552","<p>作为军队的指挥官，你可以选择发射导弹杀死 <strong>1名</strong> 敌国士兵，但会炸毁附近的 <strong>1棵</strong> 敌国树木。</p> <p>树木的照片如下图所示。</p> <p></p> <img src='stimuli/trees/12.png', style='max-width: 30%;'> </img> <p><strong>你是否选择发射武器？</strong></p>","0",""
"","","","","","html-keyboard-response","118","190821","0.0-4.0-0.57","178","1","2022-10-10 03:28:17","ebf9627b049f568eb4bf28942cb89901","218.85.191.130","Mozilla/5.0 (Windows NT 6.1; Win64; x64) AppleWebKit/537.36 (KHTML, like Gecko) Chrome/100.0.4896.60 Safari/537.36","WebKit","Chrome","100.0.4896.60","Windows","6.1","null","<div style=""font-size:60px;"">+</div>","null",""
"","","","","","html-button-response","119","191350","0.0-4.0-1.57","178","1","2022-10-10 03:28:17","ebf9627b049f568eb4bf28942cb89901","218.85.191.130","Mozilla/5.0 (Windows NT 6.1; Win64; x64) AppleWebKit/537.36 (KHTML, like Gecko) Chrome/100.0.4896.60 Safari/537.36","WebKit","Chrome","100.0.4896.60","Windows","6.1","522","<p>作为军队的指挥官，你可以选择发射导弹杀死 <strong>9名</strong> 敌国士兵，但会误杀附近的 <strong>1名</strong> 敌国平民。</p> <p>平民照片如下图所示。</p> <p></p> <img src='stimuli/faces/NFM2.jpg', style='max-width: 30%;'> </img> <p><strong>你是否选择发射武器？</strong></p>","0",""
"","","","","","html-keyboard-response","120","192357","0.0-4.0-0.58","178","1","2022-10-10 03:28:17","ebf9627b049f568eb4bf28942cb89901","218.85.191.130","Mozilla/5.0 (Windows NT 6.1; Win64; x64) AppleWebKit/537.36 (KHTML, like Gecko) Chrome/100.0.4896.60 Safari/537.36","WebKit","Chrome","100.0.4896.60","Windows","6.1","null","<div style=""font-size:60px;"">+</div>","null",""
"","","","","","html-button-response","121","193060","0.0-4.0-1.58","178","1","2022-10-10 03:28:17","ebf9627b049f568eb4bf28942cb89901","218.85.191.130","Mozilla/5.0 (Windows NT 6.1; Win64; x64) AppleWebKit/537.36 (KHTML, like Gecko) Chrome/100.0.4896.60 Safari/537.36","WebKit","Chrome","100.0.4896.60","Windows","6.1","696","<p>作为军队的指挥官，你可以选择发射导弹杀死 <strong>6名</strong> 敌国士兵，但会误杀附近的 <strong>1名</strong> 敌国平民。</p> <p>平民照片如下图所示。</p> <p></p> <img src='stimuli/faces/NFF1.jpg', style='max-width: 30%;'> </img> <p><strong>你是否选择发射武器？</strong></p>","1",""
"","","","","","html-keyboard-response","122","194069","0.0-4.0-0.59","178","1","2022-10-10 03:28:17","ebf9627b049f568eb4bf28942cb89901","218.85.191.130","Mozilla/5.0 (Windows NT 6.1; Win64; x64) AppleWebKit/537.36 (KHTML, like Gecko) Chrome/100.0.4896.60 Safari/537.36","WebKit","Chrome","100.0.4896.60","Windows","6.1","null","<div style=""font-size:60px;"">+</div>","null",""
"","","","","","html-button-response","123","195460","0.0-4.0-1.59","178","1","2022-10-10 03:28:17","ebf9627b049f568eb4bf28942cb89901","218.85.191.130","Mozilla/5.0 (Windows NT 6.1; Win64; x64) AppleWebKit/537.36 (KHTML, like Gecko) Chrome/100.0.4896.60 Safari/537.36","WebKit","Chrome","100.0.4896.60","Windows","6.1","1383","<p>作为军队的指挥官，你可以选择发射导弹杀死 <strong>4名</strong> 敌国士兵，但会炸毁附近的 <strong>1棵</strong> 敌国树木。</p> <p>树木的照片如下图所示。</p> <p></p> <img src='stimuli/trees/13.png', style='max-width: 30%;'> </img> <p><strong>你是否选择发射武器？</strong></p>","0",""
"","","","","","html-keyboard-response","124","196467","0.0-4.0-0.60","178","1","2022-10-10 03:28:17","ebf9627b049f568eb4bf28942cb89901","218.85.191.130","Mozilla/5.0 (Windows NT 6.1; Win64; x64) AppleWebKit/537.36 (KHTML, like Gecko) Chrome/100.0.4896.60 Safari/537.36","WebKit","Chrome","100.0.4896.60","Windows","6.1","null","<div style=""font-size:60px;"">+</div>","null",""
"","","","","","html-button-response","125","197678","0.0-4.0-1.60","178","1","2022-10-10 03:28:17","ebf9627b049f568eb4bf28942cb89901","218.85.191.130","Mozilla/5.0 (Windows NT 6.1; Win64; x64) AppleWebKit/537.36 (KHTML, like Gecko) Chrome/100.0.4896.60 Safari/537.36","WebKit","Chrome","100.0.4896.60","Windows","6.1","1204","<p>作为军队的指挥官，你可以选择发射导弹杀死 <strong>6名</strong> 敌国士兵，但会误杀附近的 <strong>1名</strong> 敌国平民。</p> <p>平民照片如下图所示。</p> <p></p> <img src='stimuli/faces/NFF7.jpg', style='max-width: 30%;'> </img> <p><strong>你是否选择发射武器？</strong></p>","1",""
"","","","","","html-keyboard-response","126","198686","0.0-4.0-0.61","178","1","2022-10-10 03:28:17","ebf9627b049f568eb4bf28942cb89901","218.85.191.130","Mozilla/5.0 (Windows NT 6.1; Win64; x64) AppleWebKit/537.36 (KHTML, like Gecko) Chrome/100.0.4896.60 Safari/537.36","WebKit","Chrome","100.0.4896.60","Windows","6.1","null","<div style=""font-size:60px;"">+</div>","null",""
"","","","","","html-button-response","127","201156","0.0-4.0-1.61","178","1","2022-10-10 03:28:17","ebf9627b049f568eb4bf28942cb89901","218.85.191.130","Mozilla/5.0 (Windows NT 6.1; Win64; x64) AppleWebKit/537.36 (KHTML, like Gecko) Chrome/100.0.4896.60 Safari/537.36","WebKit","Chrome","100.0.4896.60","Windows","6.1","2463","<p>作为军队的指挥官，你可以选择发射导弹杀死 <strong>4名</strong> 敌国士兵，但会炸毁附近的 <strong>1棵</strong> 敌国树木。</p> <p>树木的照片如下图所示。</p> <p></p> <img src='stimuli/trees/14.png', style='max-width: 30%;'> </img> <p><strong>你是否选择发射武器？</strong></p>","0",""
"","","","","","html-keyboard-response","128","202163","0.0-4.0-0.62","178","1","2022-10-10 03:28:17","ebf9627b049f568eb4bf28942cb89901","218.85.191.130","Mozilla/5.0 (Windows NT 6.1; Win64; x64) AppleWebKit/537.36 (KHTML, like Gecko) Chrome/100.0.4896.60 Safari/537.36","WebKit","Chrome","100.0.4896.60","Windows","6.1","null","<div style=""font-size:60px;"">+</div>","null",""
"","","","","","html-button-response","129","213987","0.0-4.0-1.62","178","1","2022-10-10 03:28:17","ebf9627b049f568eb4bf28942cb89901","218.85.191.130","Mozilla/5.0 (Windows NT 6.1; Win64; x64) AppleWebKit/537.36 (KHTML, like Gecko) Chrome/100.0.4896.60 Safari/537.36","WebKit","Chrome","100.0.4896.60","Windows","6.1","11817","<p>作为军队的指挥官，你可以选择发射导弹杀死 <strong>8名</strong> 敌国士兵，但会炸毁附近的 <strong>1棵</strong> 敌国树木。</p> <p>树木的照片如下图所示。</p> <p></p> <img src='stimuli/trees/6.png', style='max-width: 30%;'> </img> <p><strong>你是否选择发射武器？</strong></p>","0",""
"","","","","","html-keyboard-response","130","214995","0.0-4.0-0.63","178","1","2022-10-10 03:28:17","ebf9627b049f568eb4bf28942cb89901","218.85.191.130","Mozilla/5.0 (Windows NT 6.1; Win64; x64) AppleWebKit/537.36 (KHTML, like Gecko) Chrome/100.0.4896.60 Safari/537.36","WebKit","Chrome","100.0.4896.60","Windows","6.1","null","<div style=""font-size:60px;"">+</div>","null",""
"","","","","","html-button-response","131","216845","0.0-4.0-1.63","178","1","2022-10-10 03:28:17","ebf9627b049f568eb4bf28942cb89901","218.85.191.130","Mozilla/5.0 (Windows NT 6.1; Win64; x64) AppleWebKit/537.36 (KHTML, like Gecko) Chrome/100.0.4896.60 Safari/537.36","WebKit","Chrome","100.0.4896.60","Windows","6.1","1840","<p>作为军队的指挥官，你可以选择发射导弹杀死 <strong>9名</strong> 敌国士兵，但会炸毁附近的 <strong>1棵</strong> 敌国树木。</p> <p>树木的照片如下图所示。</p> <p></p> <img src='stimuli/trees/12.png', style='max-width: 30%;'> </img> <p><strong>你是否选择发射武器？</strong></p>","0",""
"","","","","","survey-multi-choice","132","226830","0.0-5.0","178","1","2022-10-10 03:28:17","ebf9627b049f568eb4bf28942cb89901","218.85.191.130","Mozilla/5.0 (Windows NT 6.1; Win64; x64) AppleWebKit/537.36 (KHTML, like Gecko) Chrome/100.0.4896.60 Safari/537.36","WebKit","Chrome","100.0.4896.60","Windows","6.1","9973","","{""Attention1"":""""}","[0]"
"","","","","","html-button-response","133","228167","0.0-6.0","178","1","2022-10-10 03:28:17","ebf9627b049f568eb4bf28942cb89901","218.85.191.130","Mozilla/5.0 (Windows NT 6.1; Win64; x64) AppleWebKit/537.36 (KHTML, like Gecko) Chrome/100.0.4896.60 Safari/537.36","WebKit","Chrome","100.0.4896.60","Windows","6.1","1319","<p style=""font-size:20px;font-weight:bold;"">恭喜！</p><p>你已经完成了实验的第一部分。</p><p>请休息放松一下，然后进入第二部分。</p><p>这部分大约需要10分钟。</p>","0",""
"","","","","","survey-text","134","262445","0.0-7.0","178","1","2022-10-10 03:28:17","ebf9627b049f568eb4bf28942cb89901","218.85.191.130","Mozilla/5.0 (Windows NT 6.1; Win64; x64) AppleWebKit/537.36 (KHTML, like Gecko) Chrome/100.0.4896.60 Safari/537.36","WebKit","Chrome","100.0.4896.60","Windows","6.1","33245","","{""Age"":""21"",""Nation"":""中国"",""Born"":""福建省厦门市"",""Live"":""福建省泉州市 "",""Ethnic"":""汉族"",""Alipay"":""17750084485""}",""
"","","","","","survey-multi-choice","135","271149","0.0-8.0","178","1","2022-10-10 03:28:17","ebf9627b049f568eb4bf28942cb89901","218.85.191.130","Mozilla/5.0 (Windows NT 6.1; Win64; x64) AppleWebKit/537.36 (KHTML, like Gecko) Chrome/100.0.4896.60 Safari/537.36","WebKit","Chrome","100.0.4896.60","Windows","6.1","8693","","{""Gender"":""女"",""Education"":""本科毕业"",""Income"":""￥490,000-￥699,999"",""Children"":""0"",""Race"":""亚洲人""}","[0,1,2,3,4]"
"","","","","","survey-multi-select","136","275092","0.0-9.0","178","1","2022-10-10 03:28:17","ebf9627b049f568eb4bf28942cb89901","218.85.191.130","Mozilla/5.0 (Windows NT 6.1; Win64; x64) AppleWebKit/537.36 (KHTML, like Gecko) Chrome/100.0.4896.60 Safari/537.36","WebKit","Chrome","100.0.4896.60","Windows","6.1","3895","","{""Marriage"":[""未婚""],""Religion"":[""无宗教信仰""]}","[0,1]"
"","","","","","survey-multi-choice","137","279708","0.0-10.0","178","1","2022-10-10 03:28:17","ebf9627b049f568eb4bf28942cb89901","218.85.191.130","Mozilla/5.0 (Windows NT 6.1; Win64; x64) AppleWebKit/537.36 (KHTML, like Gecko) Chrome/100.0.4896.60 Safari/537.36","WebKit","Chrome","100.0.4896.60","Windows","6.1","4605","","{""SES"":""6""}","[0]"
"","","","","","html-button-response","138","280739","0.0-11.0","178","1","2022-10-10 03:28:17","ebf9627b049f568eb4bf28942cb89901","218.85.191.130","Mozilla/5.0 (Windows NT 6.1; Win64; x64) AppleWebKit/537.36 (KHTML, like Gecko) Chrome/100.0.4896.60 Safari/537.36","WebKit","Chrome","100.0.4896.60","Windows","6.1","1019","<p><strong>请判断下列陈述在多大程度上可以形容你？</p><p> (1 = ""和我一点都不像"" to 5 = ""非常像我"".)</strong></p>","0",""
"","","","","","survey-likert","139","295193","0.0-12.0","178","1","2022-10-10 03:28:17","ebf9627b049f568eb4bf28942cb89901","218.85.191.130","Mozilla/5.0 (Windows NT 6.1; Win64; x64) AppleWebKit/537.36 (KHTML, like Gecko) Chrome/100.0.4896.60 Safari/537.36","WebKit","Chrome","100.0.4896.60","Windows","6.1","14441","","{""Aggression1"":0,""Aggression2"":1,""Aggression3"":3,""Aggression4"":0,""Aggression5"":1,""Aggression6"":0,""Aggression7"":0,""Aggression8"":0,""Aggression9"":3}","[0,1,2,3,4,5,6,7,8]"
"","","","","","html-button-response","140","295957","0.0-13.0","178","1","2022-10-10 03:28:17","ebf9627b049f568eb4bf28942cb89901","218.85.191.130","Mozilla/5.0 (Windows NT 6.1; Win64; x64) AppleWebKit/537.36 (KHTML, like Gecko) Chrome/100.0.4896.60 Safari/537.36","WebKit","Chrome","100.0.4896.60","Windows","6.1","748","<p><strong>请判断你在多大程度上同意下列陈述。</strong></p>","0",""
"","","","","","survey-likert","141","342843","0.0-14.0","178","1","2022-10-10 03:28:17","ebf9627b049f568eb4bf28942cb89901","218.85.191.130","Mozilla/5.0 (Windows NT 6.1; Win64; x64) AppleWebKit/537.36 (KHTML, like Gecko) Chrome/100.0.4896.60 Safari/537.36","WebKit","Chrome","100.0.4896.60","Windows","6.1","46863","","{""scale6"":3,""scale17"":2,""scale16"":3,""scale2"":4,""scale3"":1,""scale11"":3,""scale26"":3,""scale15"":1,""scale13"":3,""scale7"":1,""scale20"":2,""scale1"":2,""scale23"":3,""scale8"":3,""scale22"":4,""scale12"":1,""scale14"":1,""scale19"":3,""scale4"":0,""scale24"":1,""scale27"":1,""scale5"":3,""scale10"":1,""scale25"":3,""scale28"":1,""scale18"":0,""scale9"":3,""scale21"":3}","[5,16,15,1,2,10,25,14,12,6,19,0,22,7,21,11,13,18,3,23,26,4,9,24,27,17,8,20]"
"","","","","","html-button-response","142","343740","0.0-15.0","178","1","2022-10-10 03:28:17","ebf9627b049f568eb4bf28942cb89901","218.85.191.130","Mozilla/5.0 (Windows NT 6.1; Win64; x64) AppleWebKit/537.36 (KHTML, like Gecko) Chrome/100.0.4896.60 Safari/537.36","WebKit","Chrome","100.0.4896.60","Windows","6.1","880","<p><strong>请判断你在多大程度上同意下列陈述。</strong></p>","0",""
"","","","","","survey-likert","143","372738","0.0-16.0","178","1","2022-10-10 03:28:17","ebf9627b049f568eb4bf28942cb89901","218.85.191.130","Mozilla/5.0 (Windows NT 6.1; Win64; x64) AppleWebKit/537.36 (KHTML, like Gecko) Chrome/100.0.4896.60 Safari/537.36","WebKit","Chrome","100.0.4896.60","Windows","6.1","28981","","{""sdo12"":5,""sdo4"":1,""sdo2"":0,""sdo9"":5,""sdo13"":6,""sdo15"":5,""sdo14"":6,""sdo11"":5,""sdo8"":5,""sdo10"":6,""sdo5"":4,""sdo6"":5,""sdo7"":2,""sdo3"":4,""sdo1"":5,""sdo16"":5}","[11,3,1,8,12,14,13,10,7,9,4,5,6,2,0,15]"
"","","","","","html-button-response","144","373789","0.0-17.0","178","1","2022-10-10 03:28:17","ebf9627b049f568eb4bf28942cb89901","218.85.191.130","Mozilla/5.0 (Windows NT 6.1; Win64; x64) AppleWebKit/537.36 (KHTML, like Gecko) Chrome/100.0.4896.60 Safari/537.36","WebKit","Chrome","100.0.4896.60","Windows","6.1","1040","<p><strong>请判断你在多大程度上同意下列陈述。</strong></p>","0",""
"","","","","","survey-likert","145","398000","0.0-18.0","178","1","2022-10-10 03:28:17","ebf9627b049f568eb4bf28942cb89901","218.85.191.130","Mozilla/5.0 (Windows NT 6.1; Win64; x64) AppleWebKit/537.36 (KHTML, like Gecko) Chrome/100.0.4896.60 Safari/537.36","WebKit","Chrome","100.0.4896.60","Windows","6.1","24199","","{""caring1"":3,""liking1"":0,""caring2"":4,""protection1"":0,""liking2"":1,""caring3"":3,""protection2"":2,""liking3"":1,""protection3"":3,""caring4"":4,""liking4"":0,""protection4"":3,""caring5"":4,""liking5"":4,""protection5"":2}","[0,1,2,3,4,5,6,7,8,9,10,11,12,13,14]"
"","","","","","html-button-response","146","398996","0.0-19.0","178","1","2022-10-10 03:28:17","ebf9627b049f568eb4bf28942cb89901","218.85.191.130","Mozilla/5.0 (Windows NT 6.1; Win64; x64) AppleWebKit/537.36 (KHTML, like Gecko) Chrome/100.0.4896.60 Safari/537.36","WebKit","Chrome","100.0.4896.60","Windows","6.1","982","<p><strong>请判断下列场景中你的内心感受有多柔软。</strong></p>","0",""
"","","","","","survey-likert","147","417553","0.0-20.0","178","1","2022-10-10 03:28:17","ebf9627b049f568eb4bf28942cb89901","218.85.191.130","Mozilla/5.0 (Windows NT 6.1; Win64; x64) AppleWebKit/537.36 (KHTML, like Gecko) Chrome/100.0.4896.60 Safari/537.36","WebKit","Chrome","100.0.4896.60","Windows","6.1","18542","","{""tenderness-positive1"":3,""tenderness-negative1"":4,""tenderness-negative2"":1,""tenderness-positive2"":4,""tenderness-positive3"":4,""tenderness-negative3"":1,""tenderness-positive4"":4,""tendereness-negative4"":3,""tendernness-negative5"":1,""tenderness-positive5"":3}","[0,1,2,3,4,5,6,7,8,9]"
"","","","","","survey-multi-choice","148","421624","0.0-21.0","178","1","2022-10-10 03:28:17","ebf9627b049f568eb4bf28942cb89901","218.85.191.130","Mozilla/5.0 (Windows NT 6.1; Win64; x64) AppleWebKit/537.36 (KHTML, like Gecko) Chrome/100.0.4896.60 Safari/537.36","WebKit","Chrome","100.0.4896.60","Windows","6.1","4056","","{""Attention2"":""其他""}","[0]"
"","","","","","html-button-response","149","422325","0.0-22.0","178","1","2022-10-10 03:28:17","ebf9627b049f568eb4bf28942cb89901","218.85.191.130","Mozilla/5.0 (Windows NT 6.1; Win64; x64) AppleWebKit/537.36 (KHTML, like Gecko) Chrome/100.0.4896.60 Safari/537.36","WebKit","Chrome","100.0.4896.60","Windows","6.1","686","<p><strong>请判断你在多大程度上同意下列陈述。</strong></p>","0",""
"","","","","","survey-likert","150","477856","0.0-23.0","178","1","2022-10-10 03:28:17","ebf9627b049f568eb4bf28942cb89901","218.85.191.130","Mozilla/5.0 (Windows NT 6.1; Win64; x64) AppleWebKit/537.36 (KHTML, like Gecko) Chrome/100.0.4896.60 Safari/537.36","WebKit","Chrome","100.0.4896.60","Windows","6.1","55518","","{""Nation4"":3,""Patri4"":4,""Nation6"":4,""Nation5"":3,""Patri9"":3,""Nation7"":4,""Patri8"":4,""Nation3"":3,""Patri3"":3,""Patri6"":4,""Patri11"":3,""Nation1"":4,""Patri7"":3,""Patri1"":3,""Patri10"":0,""Nation8"":1,""Patri2"":4,""Patri12"":1,""Patri5"":4,""Nation2"":4}","[15,3,17,16,8,18,7,14,2,5,10,12,6,0,9,19,1,11,4,13]"
"","","","","","html-button-response","151","478813","0.0-24.0","178","1","2022-10-10 03:28:17","ebf9627b049f568eb4bf28942cb89901","218.85.191.130","Mozilla/5.0 (Windows NT 6.1; Win64; x64) AppleWebKit/537.36 (KHTML, like Gecko) Chrome/100.0.4896.60 Safari/537.36","WebKit","Chrome","100.0.4896.60","Windows","6.1","944","<p><strong>请判断你在多大程度上同意下列陈述。</strong></p>","0",""
"","","","","","survey-likert","152","513445","0.0-25.0","178","1","2022-10-10 03:28:17","ebf9627b049f568eb4bf28942cb89901","218.85.191.130","Mozilla/5.0 (Windows NT 6.1; Win64; x64) AppleWebKit/537.36 (KHTML, like Gecko) Chrome/100.0.4896.60 Safari/537.36","WebKit","Chrome","100.0.4896.60","Windows","6.1","34615","","{""vc3"":6,""vi3"":7,""hc2"":7,""hi2"":3,""vi1"":6,""hc4"":7,""hi1"":6,""hi4"":7,""hi3"":6,""Robot"":6,""vc2"":3,""vi2"":5,""vi4"":2,""vc4"":7,""vc1"":8,""hc3"":7,""hc1"":8}","[15,6,10,1,4,12,0,3,2,7,14,5,8,16,13,11,9]"
"","","","","","survey-text","153","517925","0.0-26.0","178","1","2022-10-10 03:28:17","ebf9627b049f568eb4bf28942cb89901","218.85.191.130","Mozilla/5.0 (Windows NT 6.1; Win64; x64) AppleWebKit/537.36 (KHTML, like Gecko) Chrome/100.0.4896.60 Safari/537.36","WebKit","Chrome","100.0.4896.60","Windows","6.1","4427","","{""Comments"":""没有了 谢谢""}",""
"","","","","","html-button-response","154","519139","0.0-27.0","178","1","2022-10-10 03:28:17","ebf9627b049f568eb4bf28942cb89901","218.85.191.130","Mozilla/5.0 (Windows NT 6.1; Win64; x64) AppleWebKit/537.36 (KHTML, like Gecko) Chrome/100.0.4896.60 Safari/537.36","WebKit","Chrome","100.0.4896.60","Windows","6.1","1206","<strong><p>恭喜你完成了实验！</p><p>感谢您的参与。</p></strong>","0",""
