"success","timeout","failed_images","failed_audio","failed_video","trial_type","trial_index","time_elapsed","internal_node_id","run_id","condition","recorded_at","source_code_version","ip","user_agent","device","browser","browser_version","platform","platform_version","rt","stimulus","response","question_order"
"true","false","[]","[]","[]","preload","0","1038","0.0-0.0","170","1","2022-10-10 03:16:46","ebf9627b049f568eb4bf28942cb89901","182.123.167.10","Mozilla/5.0 (Linux; Android 9; V1809A Build/PKQ1.181030.001; wv) AppleWebKit/537.36 (KHTML, like Gecko) Version/4.0 Chrome/86.0.4240.99 XWEB/4317 MMWEBSDK/20220903 Mobile Safari/537.36 MMWEBID/9874 MicroMessenger/8.0.28.2240(0x28001C53) WeChat/arm64 Weixin NetType/WIFI Language/zh_CN ABI/arm64","WebKit","Chrome","86.0.4240.99","AndroidOS","9","","","",""
"true","","","","","fullscreen","1","22866","0.0-1.0","170","1","2022-10-10 03:16:46","ebf9627b049f568eb4bf28942cb89901","182.123.167.10","Mozilla/5.0 (Linux; Android 9; V1809A Build/PKQ1.181030.001; wv) AppleWebKit/537.36 (KHTML, like Gecko) Version/4.0 Chrome/86.0.4240.99 XWEB/4317 MMWEBSDK/20220903 Mobile Safari/537.36 MMWEBID/9874 MicroMessenger/8.0.28.2240(0x28001C53) WeChat/arm64 Weixin NetType/WIFI Language/zh_CN ABI/arm64","WebKit","Chrome","86.0.4240.99","AndroidOS","9","","","",""
"","","","","","html-button-response","2","32921","0.0-2.0","170","1","2022-10-10 03:16:46","ebf9627b049f568eb4bf28942cb89901","182.123.167.10","Mozilla/5.0 (Linux; Android 9; V1809A Build/PKQ1.181030.001; wv) AppleWebKit/537.36 (KHTML, like Gecko) Version/4.0 Chrome/86.0.4240.99 XWEB/4317 MMWEBSDK/20220903 Mobile Safari/537.36 MMWEBID/9874 MicroMessenger/8.0.28.2240(0x28001C53) WeChat/arm64 Weixin NetType/WIFI Language/zh_CN ABI/arm64","WebKit","Chrome","86.0.4240.99","AndroidOS","9","10022","<p style=""font-size:20px;font-weight:bold;"">实验知情同意书</p><p style=""text-align:left;""><strong>实验名称：</strong>社会冲突研究</p><p style=""text-align:left;""><strong>主要研究者：</strong>韩晓春副教授（北京师范大学心理学部）</p><p style=""text-align:left;""><strong>联系方式：</strong>发送邮件至xiaochun.han@bnu.edu.cn</p><p style=""text-align:left;""><strong>研究目的：</strong>研究旨在了解人类面对群体冲突时的决策方式，以及相关的心理学特质。实验调查大约需要20分钟。</p><p style=""text-align:left;""><strong>实验流程：</strong>实验包含两部分。第一部分呈现一系列群体冲突场景，请你决定如何对这些冲突进行反应，大约需要10分钟完成。第二部分包含一系列人口统计学信息收集和心理学问卷，大约需要10分钟完成。</p><p style=""text-align:left;""><strong>参加及退出规则：</strong>参加本实验完全取决于您的个人意愿。在参与过程中，您可以随时退出，并且不用承担任何后果。</p><p style=""text-align:left;""><strong>隐私：</strong>本实验完全匿名进行，不会收集您的姓名或其他能够识别您身份的信息。实验中收集的作答仅用作科学研究使用，可能会在学术期刊/书籍上发表，或者用于教学，您的数据未来可能会和其他研究者或实验室分享，但您的个人身份不会被识别。</p><p style=""text-align:left;""><strong>实验报酬：</strong>实验完成后，您将获得15元人民币报酬，以感谢您的时间和努力。调查问卷中包含几道题目用以测验您作答时的认真度。只有完成全部实验，并且正确回答认真度测验的被试才能获得实验报酬。实验报酬将通过支付宝转账发放。</p><p style=""text-align:left;font-size:20px;""><strong>如果您同意以上实验知情同意书的内容，请点击'同意并且开始实验'按钮；否则请关闭浏览器界面，退出实验。</strong></p>","0",""
"","","","","","html-button-response","3","34266","0.0-3.0","170","1","2022-10-10 03:16:46","ebf9627b049f568eb4bf28942cb89901","182.123.167.10","Mozilla/5.0 (Linux; Android 9; V1809A Build/PKQ1.181030.001; wv) AppleWebKit/537.36 (KHTML, like Gecko) Version/4.0 Chrome/86.0.4240.99 XWEB/4317 MMWEBSDK/20220903 Mobile Safari/537.36 MMWEBID/9874 MicroMessenger/8.0.28.2240(0x28001C53) WeChat/arm64 Weixin NetType/WIFI Language/zh_CN ABI/arm64","WebKit","Chrome","86.0.4240.99","AndroidOS","9","1326","<p ><strong>实验任务一：</strong></p><p>请想象你的国家与另一个国家发生了军事冲突。</p><p>你是国家军队的指挥官，你将如何在冲突中进行决策。</p><p>具体来说，作为军队指挥官，请你决定是否发射导弹进行打击。</p><p>接下来，你会面对一系列场景，请仔细阅读每个场景，然后进行决策。</p><p>这部分实验任务大约需要10分钟。</p><p><strong>实验过程中，请集中注意力。</strong></p>","0",""
"","","","","","html-keyboard-response","4","35281","0.0-4.0-0.0","170","1","2022-10-10 03:16:46","ebf9627b049f568eb4bf28942cb89901","182.123.167.10","Mozilla/5.0 (Linux; Android 9; V1809A Build/PKQ1.181030.001; wv) AppleWebKit/537.36 (KHTML, like Gecko) Version/4.0 Chrome/86.0.4240.99 XWEB/4317 MMWEBSDK/20220903 Mobile Safari/537.36 MMWEBID/9874 MicroMessenger/8.0.28.2240(0x28001C53) WeChat/arm64 Weixin NetType/WIFI Language/zh_CN ABI/arm64","WebKit","Chrome","86.0.4240.99","AndroidOS","9","null","<div style=""font-size:60px;"">+</div>","null",""
"","","","","","html-button-response","5","39259","0.0-4.0-1.0","170","1","2022-10-10 03:16:46","ebf9627b049f568eb4bf28942cb89901","182.123.167.10","Mozilla/5.0 (Linux; Android 9; V1809A Build/PKQ1.181030.001; wv) AppleWebKit/537.36 (KHTML, like Gecko) Version/4.0 Chrome/86.0.4240.99 XWEB/4317 MMWEBSDK/20220903 Mobile Safari/537.36 MMWEBID/9874 MicroMessenger/8.0.28.2240(0x28001C53) WeChat/arm64 Weixin NetType/WIFI Language/zh_CN ABI/arm64","WebKit","Chrome","86.0.4240.99","AndroidOS","9","3946","<p>作为军队的指挥官，你可以选择发射导弹杀死 <strong>2名</strong> 敌国士兵，但会炸毁附近的 <strong>1棵</strong> 敌国树木。</p> <p>树木的照片如下图所示。</p> <p></p> <img src='stimuli/trees/3.png', style='max-width: 30%;'> </img> <p><strong>你是否选择发射武器？</strong></p>","0",""
"","","","","","html-keyboard-response","6","40276","0.0-4.0-0.1","170","1","2022-10-10 03:16:46","ebf9627b049f568eb4bf28942cb89901","182.123.167.10","Mozilla/5.0 (Linux; Android 9; V1809A Build/PKQ1.181030.001; wv) AppleWebKit/537.36 (KHTML, like Gecko) Version/4.0 Chrome/86.0.4240.99 XWEB/4317 MMWEBSDK/20220903 Mobile Safari/537.36 MMWEBID/9874 MicroMessenger/8.0.28.2240(0x28001C53) WeChat/arm64 Weixin NetType/WIFI Language/zh_CN ABI/arm64","WebKit","Chrome","86.0.4240.99","AndroidOS","9","null","<div style=""font-size:60px;"">+</div>","null",""
"","","","","","html-button-response","7","54471","0.0-4.0-1.1","170","1","2022-10-10 03:16:46","ebf9627b049f568eb4bf28942cb89901","182.123.167.10","Mozilla/5.0 (Linux; Android 9; V1809A Build/PKQ1.181030.001; wv) AppleWebKit/537.36 (KHTML, like Gecko) Version/4.0 Chrome/86.0.4240.99 XWEB/4317 MMWEBSDK/20220903 Mobile Safari/537.36 MMWEBID/9874 MicroMessenger/8.0.28.2240(0x28001C53) WeChat/arm64 Weixin NetType/WIFI Language/zh_CN ABI/arm64","WebKit","Chrome","86.0.4240.99","AndroidOS","9","14163","<p>作为军队的指挥官，你可以选择发射导弹杀死 <strong>1名</strong> 敌国士兵，但会误杀附近的 <strong>1名</strong> 敌国平民。</p> <p>平民照片如下图所示。</p> <p></p> <img src='stimuli/faces/NFF5.jpg', style='max-width: 30%;'> </img> <p><strong>你是否选择发射武器？</strong></p>","1",""
"","","","","","html-keyboard-response","8","55486","0.0-4.0-0.2","170","1","2022-10-10 03:16:46","ebf9627b049f568eb4bf28942cb89901","182.123.167.10","Mozilla/5.0 (Linux; Android 9; V1809A Build/PKQ1.181030.001; wv) AppleWebKit/537.36 (KHTML, like Gecko) Version/4.0 Chrome/86.0.4240.99 XWEB/4317 MMWEBSDK/20220903 Mobile Safari/537.36 MMWEBID/9874 MicroMessenger/8.0.28.2240(0x28001C53) WeChat/arm64 Weixin NetType/WIFI Language/zh_CN ABI/arm64","WebKit","Chrome","86.0.4240.99","AndroidOS","9","null","<div style=""font-size:60px;"">+</div>","null",""
"","","","","","html-button-response","9","58999","0.0-4.0-1.2","170","1","2022-10-10 03:16:46","ebf9627b049f568eb4bf28942cb89901","182.123.167.10","Mozilla/5.0 (Linux; Android 9; V1809A Build/PKQ1.181030.001; wv) AppleWebKit/537.36 (KHTML, like Gecko) Version/4.0 Chrome/86.0.4240.99 XWEB/4317 MMWEBSDK/20220903 Mobile Safari/537.36 MMWEBID/9874 MicroMessenger/8.0.28.2240(0x28001C53) WeChat/arm64 Weixin NetType/WIFI Language/zh_CN ABI/arm64","WebKit","Chrome","86.0.4240.99","AndroidOS","9","3489","<p>作为军队的指挥官，你可以选择发射导弹杀死 <strong>5名</strong> 敌国士兵，但会误杀附近的 <strong>1名</strong> 敌国平民。</p> <p>平民照片如下图所示。</p> <p></p> <img src='stimuli/faces/NFM2.jpg', style='max-width: 30%;'> </img> <p><strong>你是否选择发射武器？</strong></p>","1",""
"","","","","","html-keyboard-response","10","60020","0.0-4.0-0.3","170","1","2022-10-10 03:16:46","ebf9627b049f568eb4bf28942cb89901","182.123.167.10","Mozilla/5.0 (Linux; Android 9; V1809A Build/PKQ1.181030.001; wv) AppleWebKit/537.36 (KHTML, like Gecko) Version/4.0 Chrome/86.0.4240.99 XWEB/4317 MMWEBSDK/20220903 Mobile Safari/537.36 MMWEBID/9874 MicroMessenger/8.0.28.2240(0x28001C53) WeChat/arm64 Weixin NetType/WIFI Language/zh_CN ABI/arm64","WebKit","Chrome","86.0.4240.99","AndroidOS","9","null","<div style=""font-size:60px;"">+</div>","null",""
"","","","","","html-button-response","11","64254","0.0-4.0-1.3","170","1","2022-10-10 03:16:46","ebf9627b049f568eb4bf28942cb89901","182.123.167.10","Mozilla/5.0 (Linux; Android 9; V1809A Build/PKQ1.181030.001; wv) AppleWebKit/537.36 (KHTML, like Gecko) Version/4.0 Chrome/86.0.4240.99 XWEB/4317 MMWEBSDK/20220903 Mobile Safari/537.36 MMWEBID/9874 MicroMessenger/8.0.28.2240(0x28001C53) WeChat/arm64 Weixin NetType/WIFI Language/zh_CN ABI/arm64","WebKit","Chrome","86.0.4240.99","AndroidOS","9","4204","<p>作为军队的指挥官，你可以选择发射导弹杀死 <strong>9名</strong> 敌国士兵，但会炸毁附近的 <strong>1棵</strong> 敌国树木。</p> <p>树木的照片如下图所示。</p> <p></p> <img src='stimuli/trees/3.png', style='max-width: 30%;'> </img> <p><strong>你是否选择发射武器？</strong></p>","0",""
"","","","","","html-keyboard-response","12","65268","0.0-4.0-0.4","170","1","2022-10-10 03:16:46","ebf9627b049f568eb4bf28942cb89901","182.123.167.10","Mozilla/5.0 (Linux; Android 9; V1809A Build/PKQ1.181030.001; wv) AppleWebKit/537.36 (KHTML, like Gecko) Version/4.0 Chrome/86.0.4240.99 XWEB/4317 MMWEBSDK/20220903 Mobile Safari/537.36 MMWEBID/9874 MicroMessenger/8.0.28.2240(0x28001C53) WeChat/arm64 Weixin NetType/WIFI Language/zh_CN ABI/arm64","WebKit","Chrome","86.0.4240.99","AndroidOS","9","null","<div style=""font-size:60px;"">+</div>","null",""
"","","","","","html-button-response","13","67855","0.0-4.0-1.4","170","1","2022-10-10 03:16:46","ebf9627b049f568eb4bf28942cb89901","182.123.167.10","Mozilla/5.0 (Linux; Android 9; V1809A Build/PKQ1.181030.001; wv) AppleWebKit/537.36 (KHTML, like Gecko) Version/4.0 Chrome/86.0.4240.99 XWEB/4317 MMWEBSDK/20220903 Mobile Safari/537.36 MMWEBID/9874 MicroMessenger/8.0.28.2240(0x28001C53) WeChat/arm64 Weixin NetType/WIFI Language/zh_CN ABI/arm64","WebKit","Chrome","86.0.4240.99","AndroidOS","9","2556","<p>作为军队的指挥官，你可以选择发射导弹杀死 <strong>7名</strong> 敌国士兵，但会误杀附近的 <strong>1名</strong> 敌国平民。</p> <p>平民照片如下图所示。</p> <p></p> <img src='stimuli/faces/NFM2.jpg', style='max-width: 30%;'> </img> <p><strong>你是否选择发射武器？</strong></p>","1",""
"","","","","","html-keyboard-response","14","68870","0.0-4.0-0.5","170","1","2022-10-10 03:16:46","ebf9627b049f568eb4bf28942cb89901","182.123.167.10","Mozilla/5.0 (Linux; Android 9; V1809A Build/PKQ1.181030.001; wv) AppleWebKit/537.36 (KHTML, like Gecko) Version/4.0 Chrome/86.0.4240.99 XWEB/4317 MMWEBSDK/20220903 Mobile Safari/537.36 MMWEBID/9874 MicroMessenger/8.0.28.2240(0x28001C53) WeChat/arm64 Weixin NetType/WIFI Language/zh_CN ABI/arm64","WebKit","Chrome","86.0.4240.99","AndroidOS","9","null","<div style=""font-size:60px;"">+</div>","null",""
"","","","","","html-button-response","15","70159","0.0-4.0-1.5","170","1","2022-10-10 03:16:46","ebf9627b049f568eb4bf28942cb89901","182.123.167.10","Mozilla/5.0 (Linux; Android 9; V1809A Build/PKQ1.181030.001; wv) AppleWebKit/537.36 (KHTML, like Gecko) Version/4.0 Chrome/86.0.4240.99 XWEB/4317 MMWEBSDK/20220903 Mobile Safari/537.36 MMWEBID/9874 MicroMessenger/8.0.28.2240(0x28001C53) WeChat/arm64 Weixin NetType/WIFI Language/zh_CN ABI/arm64","WebKit","Chrome","86.0.4240.99","AndroidOS","9","1261","<p>作为军队的指挥官，你可以选择发射导弹杀死 <strong>1名</strong> 敌国士兵，但会炸毁附近的 <strong>1棵</strong> 敌国树木。</p> <p>树木的照片如下图所示。</p> <p></p> <img src='stimuli/trees/16.png', style='max-width: 30%;'> </img> <p><strong>你是否选择发射武器？</strong></p>","0",""
"","","","","","html-keyboard-response","16","71177","0.0-4.0-0.6","170","1","2022-10-10 03:16:46","ebf9627b049f568eb4bf28942cb89901","182.123.167.10","Mozilla/5.0 (Linux; Android 9; V1809A Build/PKQ1.181030.001; wv) AppleWebKit/537.36 (KHTML, like Gecko) Version/4.0 Chrome/86.0.4240.99 XWEB/4317 MMWEBSDK/20220903 Mobile Safari/537.36 MMWEBID/9874 MicroMessenger/8.0.28.2240(0x28001C53) WeChat/arm64 Weixin NetType/WIFI Language/zh_CN ABI/arm64","WebKit","Chrome","86.0.4240.99","AndroidOS","9","null","<div style=""font-size:60px;"">+</div>","null",""
"","","","","","html-button-response","17","72229","0.0-4.0-1.6","170","1","2022-10-10 03:16:46","ebf9627b049f568eb4bf28942cb89901","182.123.167.10","Mozilla/5.0 (Linux; Android 9; V1809A Build/PKQ1.181030.001; wv) AppleWebKit/537.36 (KHTML, like Gecko) Version/4.0 Chrome/86.0.4240.99 XWEB/4317 MMWEBSDK/20220903 Mobile Safari/537.36 MMWEBID/9874 MicroMessenger/8.0.28.2240(0x28001C53) WeChat/arm64 Weixin NetType/WIFI Language/zh_CN ABI/arm64","WebKit","Chrome","86.0.4240.99","AndroidOS","9","1011","<p>作为军队的指挥官，你可以选择发射导弹杀死 <strong>7名</strong> 敌国士兵，但会炸毁附近的 <strong>1棵</strong> 敌国树木。</p> <p>树木的照片如下图所示。</p> <p></p> <img src='stimuli/trees/14.png', style='max-width: 30%;'> </img> <p><strong>你是否选择发射武器？</strong></p>","0",""
"","","","","","html-keyboard-response","18","73242","0.0-4.0-0.7","170","1","2022-10-10 03:16:46","ebf9627b049f568eb4bf28942cb89901","182.123.167.10","Mozilla/5.0 (Linux; Android 9; V1809A Build/PKQ1.181030.001; wv) AppleWebKit/537.36 (KHTML, like Gecko) Version/4.0 Chrome/86.0.4240.99 XWEB/4317 MMWEBSDK/20220903 Mobile Safari/537.36 MMWEBID/9874 MicroMessenger/8.0.28.2240(0x28001C53) WeChat/arm64 Weixin NetType/WIFI Language/zh_CN ABI/arm64","WebKit","Chrome","86.0.4240.99","AndroidOS","9","null","<div style=""font-size:60px;"">+</div>","null",""
"","","","","","html-button-response","19","74323","0.0-4.0-1.7","170","1","2022-10-10 03:16:46","ebf9627b049f568eb4bf28942cb89901","182.123.167.10","Mozilla/5.0 (Linux; Android 9; V1809A Build/PKQ1.181030.001; wv) AppleWebKit/537.36 (KHTML, like Gecko) Version/4.0 Chrome/86.0.4240.99 XWEB/4317 MMWEBSDK/20220903 Mobile Safari/537.36 MMWEBID/9874 MicroMessenger/8.0.28.2240(0x28001C53) WeChat/arm64 Weixin NetType/WIFI Language/zh_CN ABI/arm64","WebKit","Chrome","86.0.4240.99","AndroidOS","9","1052","<p>作为军队的指挥官，你可以选择发射导弹杀死 <strong>3名</strong> 敌国士兵，但会误杀附近的 <strong>1名</strong> 敌国平民。</p> <p>平民照片如下图所示。</p> <p></p> <img src='stimuli/faces/NFF7.jpg', style='max-width: 30%;'> </img> <p><strong>你是否选择发射武器？</strong></p>","1",""
"","","","","","html-keyboard-response","20","75338","0.0-4.0-0.8","170","1","2022-10-10 03:16:46","ebf9627b049f568eb4bf28942cb89901","182.123.167.10","Mozilla/5.0 (Linux; Android 9; V1809A Build/PKQ1.181030.001; wv) AppleWebKit/537.36 (KHTML, like Gecko) Version/4.0 Chrome/86.0.4240.99 XWEB/4317 MMWEBSDK/20220903 Mobile Safari/537.36 MMWEBID/9874 MicroMessenger/8.0.28.2240(0x28001C53) WeChat/arm64 Weixin NetType/WIFI Language/zh_CN ABI/arm64","WebKit","Chrome","86.0.4240.99","AndroidOS","9","null","<div style=""font-size:60px;"">+</div>","null",""
"","","","","","html-button-response","21","76435","0.0-4.0-1.8","170","1","2022-10-10 03:16:46","ebf9627b049f568eb4bf28942cb89901","182.123.167.10","Mozilla/5.0 (Linux; Android 9; V1809A Build/PKQ1.181030.001; wv) AppleWebKit/537.36 (KHTML, like Gecko) Version/4.0 Chrome/86.0.4240.99 XWEB/4317 MMWEBSDK/20220903 Mobile Safari/537.36 MMWEBID/9874 MicroMessenger/8.0.28.2240(0x28001C53) WeChat/arm64 Weixin NetType/WIFI Language/zh_CN ABI/arm64","WebKit","Chrome","86.0.4240.99","AndroidOS","9","1072","<p>作为军队的指挥官，你可以选择发射导弹杀死 <strong>6名</strong> 敌国士兵，但会炸毁附近的 <strong>1棵</strong> 敌国树木。</p> <p>树木的照片如下图所示。</p> <p></p> <img src='stimuli/trees/5.png', style='max-width: 30%;'> </img> <p><strong>你是否选择发射武器？</strong></p>","0",""
"","","","","","html-keyboard-response","22","77451","0.0-4.0-0.9","170","1","2022-10-10 03:16:46","ebf9627b049f568eb4bf28942cb89901","182.123.167.10","Mozilla/5.0 (Linux; Android 9; V1809A Build/PKQ1.181030.001; wv) AppleWebKit/537.36 (KHTML, like Gecko) Version/4.0 Chrome/86.0.4240.99 XWEB/4317 MMWEBSDK/20220903 Mobile Safari/537.36 MMWEBID/9874 MicroMessenger/8.0.28.2240(0x28001C53) WeChat/arm64 Weixin NetType/WIFI Language/zh_CN ABI/arm64","WebKit","Chrome","86.0.4240.99","AndroidOS","9","null","<div style=""font-size:60px;"">+</div>","null",""
"","","","","","html-button-response","23","78307","0.0-4.0-1.9","170","1","2022-10-10 03:16:46","ebf9627b049f568eb4bf28942cb89901","182.123.167.10","Mozilla/5.0 (Linux; Android 9; V1809A Build/PKQ1.181030.001; wv) AppleWebKit/537.36 (KHTML, like Gecko) Version/4.0 Chrome/86.0.4240.99 XWEB/4317 MMWEBSDK/20220903 Mobile Safari/537.36 MMWEBID/9874 MicroMessenger/8.0.28.2240(0x28001C53) WeChat/arm64 Weixin NetType/WIFI Language/zh_CN ABI/arm64","WebKit","Chrome","86.0.4240.99","AndroidOS","9","829","<p>作为军队的指挥官，你可以选择发射导弹杀死 <strong>10名</strong> 敌国士兵，但会误杀附近的 <strong>1名</strong> 敌国平民。</p> <p>平民照片如下图所示。</p> <p></p> <img src='stimuli/faces/NFM4.jpg', style='max-width: 30%;'> </img> <p><strong>你是否选择发射武器？</strong></p>","1",""
"","","","","","html-keyboard-response","24","79319","0.0-4.0-0.10","170","1","2022-10-10 03:16:46","ebf9627b049f568eb4bf28942cb89901","182.123.167.10","Mozilla/5.0 (Linux; Android 9; V1809A Build/PKQ1.181030.001; wv) AppleWebKit/537.36 (KHTML, like Gecko) Version/4.0 Chrome/86.0.4240.99 XWEB/4317 MMWEBSDK/20220903 Mobile Safari/537.36 MMWEBID/9874 MicroMessenger/8.0.28.2240(0x28001C53) WeChat/arm64 Weixin NetType/WIFI Language/zh_CN ABI/arm64","WebKit","Chrome","86.0.4240.99","AndroidOS","9","null","<div style=""font-size:60px;"">+</div>","null",""
"","","","","","html-button-response","25","80220","0.0-4.0-1.10","170","1","2022-10-10 03:16:46","ebf9627b049f568eb4bf28942cb89901","182.123.167.10","Mozilla/5.0 (Linux; Android 9; V1809A Build/PKQ1.181030.001; wv) AppleWebKit/537.36 (KHTML, like Gecko) Version/4.0 Chrome/86.0.4240.99 XWEB/4317 MMWEBSDK/20220903 Mobile Safari/537.36 MMWEBID/9874 MicroMessenger/8.0.28.2240(0x28001C53) WeChat/arm64 Weixin NetType/WIFI Language/zh_CN ABI/arm64","WebKit","Chrome","86.0.4240.99","AndroidOS","9","876","<p>作为军队的指挥官，你可以选择发射导弹杀死 <strong>10名</strong> 敌国士兵，但会炸毁附近的 <strong>1棵</strong> 敌国树木。</p> <p>树木的照片如下图所示。</p> <p></p> <img src='stimuli/trees/16.png', style='max-width: 30%;'> </img> <p><strong>你是否选择发射武器？</strong></p>","1",""
"","","","","","html-keyboard-response","26","81232","0.0-4.0-0.11","170","1","2022-10-10 03:16:46","ebf9627b049f568eb4bf28942cb89901","182.123.167.10","Mozilla/5.0 (Linux; Android 9; V1809A Build/PKQ1.181030.001; wv) AppleWebKit/537.36 (KHTML, like Gecko) Version/4.0 Chrome/86.0.4240.99 XWEB/4317 MMWEBSDK/20220903 Mobile Safari/537.36 MMWEBID/9874 MicroMessenger/8.0.28.2240(0x28001C53) WeChat/arm64 Weixin NetType/WIFI Language/zh_CN ABI/arm64","WebKit","Chrome","86.0.4240.99","AndroidOS","9","null","<div style=""font-size:60px;"">+</div>","null",""
"","","","","","html-button-response","27","82638","0.0-4.0-1.11","170","1","2022-10-10 03:16:46","ebf9627b049f568eb4bf28942cb89901","182.123.167.10","Mozilla/5.0 (Linux; Android 9; V1809A Build/PKQ1.181030.001; wv) AppleWebKit/537.36 (KHTML, like Gecko) Version/4.0 Chrome/86.0.4240.99 XWEB/4317 MMWEBSDK/20220903 Mobile Safari/537.36 MMWEBID/9874 MicroMessenger/8.0.28.2240(0x28001C53) WeChat/arm64 Weixin NetType/WIFI Language/zh_CN ABI/arm64","WebKit","Chrome","86.0.4240.99","AndroidOS","9","1370","<p>作为军队的指挥官，你可以选择发射导弹杀死 <strong>10名</strong> 敌国士兵，但会炸毁附近的 <strong>1棵</strong> 敌国树木。</p> <p>树木的照片如下图所示。</p> <p></p> <img src='stimuli/trees/6.png', style='max-width: 30%;'> </img> <p><strong>你是否选择发射武器？</strong></p>","0",""
"","","","","","html-keyboard-response","28","83656","0.0-4.0-0.12","170","1","2022-10-10 03:16:46","ebf9627b049f568eb4bf28942cb89901","182.123.167.10","Mozilla/5.0 (Linux; Android 9; V1809A Build/PKQ1.181030.001; wv) AppleWebKit/537.36 (KHTML, like Gecko) Version/4.0 Chrome/86.0.4240.99 XWEB/4317 MMWEBSDK/20220903 Mobile Safari/537.36 MMWEBID/9874 MicroMessenger/8.0.28.2240(0x28001C53) WeChat/arm64 Weixin NetType/WIFI Language/zh_CN ABI/arm64","WebKit","Chrome","86.0.4240.99","AndroidOS","9","null","<div style=""font-size:60px;"">+</div>","null",""
"","","","","","html-button-response","29","84861","0.0-4.0-1.12","170","1","2022-10-10 03:16:46","ebf9627b049f568eb4bf28942cb89901","182.123.167.10","Mozilla/5.0 (Linux; Android 9; V1809A Build/PKQ1.181030.001; wv) AppleWebKit/537.36 (KHTML, like Gecko) Version/4.0 Chrome/86.0.4240.99 XWEB/4317 MMWEBSDK/20220903 Mobile Safari/537.36 MMWEBID/9874 MicroMessenger/8.0.28.2240(0x28001C53) WeChat/arm64 Weixin NetType/WIFI Language/zh_CN ABI/arm64","WebKit","Chrome","86.0.4240.99","AndroidOS","9","1169","<p>作为军队的指挥官，你可以选择发射导弹杀死 <strong>5名</strong> 敌国士兵，但会炸毁附近的 <strong>1棵</strong> 敌国树木。</p> <p>树木的照片如下图所示。</p> <p></p> <img src='stimuli/trees/15.png', style='max-width: 30%;'> </img> <p><strong>你是否选择发射武器？</strong></p>","0",""
"","","","","","html-keyboard-response","30","85881","0.0-4.0-0.13","170","1","2022-10-10 03:16:46","ebf9627b049f568eb4bf28942cb89901","182.123.167.10","Mozilla/5.0 (Linux; Android 9; V1809A Build/PKQ1.181030.001; wv) AppleWebKit/537.36 (KHTML, like Gecko) Version/4.0 Chrome/86.0.4240.99 XWEB/4317 MMWEBSDK/20220903 Mobile Safari/537.36 MMWEBID/9874 MicroMessenger/8.0.28.2240(0x28001C53) WeChat/arm64 Weixin NetType/WIFI Language/zh_CN ABI/arm64","WebKit","Chrome","86.0.4240.99","AndroidOS","9","null","<div style=""font-size:60px;"">+</div>","null",""
"","","","","","html-button-response","31","87450","0.0-4.0-1.13","170","1","2022-10-10 03:16:46","ebf9627b049f568eb4bf28942cb89901","182.123.167.10","Mozilla/5.0 (Linux; Android 9; V1809A Build/PKQ1.181030.001; wv) AppleWebKit/537.36 (KHTML, like Gecko) Version/4.0 Chrome/86.0.4240.99 XWEB/4317 MMWEBSDK/20220903 Mobile Safari/537.36 MMWEBID/9874 MicroMessenger/8.0.28.2240(0x28001C53) WeChat/arm64 Weixin NetType/WIFI Language/zh_CN ABI/arm64","WebKit","Chrome","86.0.4240.99","AndroidOS","9","1529","<p>作为军队的指挥官，你可以选择发射导弹杀死 <strong>6名</strong> 敌国士兵，但会误杀附近的 <strong>1名</strong> 敌国平民。</p> <p>平民照片如下图所示。</p> <p></p> <img src='stimuli/faces/NFF7.jpg', style='max-width: 30%;'> </img> <p><strong>你是否选择发射武器？</strong></p>","1",""
"","","","","","html-keyboard-response","32","88469","0.0-4.0-0.14","170","1","2022-10-10 03:16:46","ebf9627b049f568eb4bf28942cb89901","182.123.167.10","Mozilla/5.0 (Linux; Android 9; V1809A Build/PKQ1.181030.001; wv) AppleWebKit/537.36 (KHTML, like Gecko) Version/4.0 Chrome/86.0.4240.99 XWEB/4317 MMWEBSDK/20220903 Mobile Safari/537.36 MMWEBID/9874 MicroMessenger/8.0.28.2240(0x28001C53) WeChat/arm64 Weixin NetType/WIFI Language/zh_CN ABI/arm64","WebKit","Chrome","86.0.4240.99","AndroidOS","9","null","<div style=""font-size:60px;"">+</div>","null",""
"","","","","","html-button-response","33","89578","0.0-4.0-1.14","170","1","2022-10-10 03:16:46","ebf9627b049f568eb4bf28942cb89901","182.123.167.10","Mozilla/5.0 (Linux; Android 9; V1809A Build/PKQ1.181030.001; wv) AppleWebKit/537.36 (KHTML, like Gecko) Version/4.0 Chrome/86.0.4240.99 XWEB/4317 MMWEBSDK/20220903 Mobile Safari/537.36 MMWEBID/9874 MicroMessenger/8.0.28.2240(0x28001C53) WeChat/arm64 Weixin NetType/WIFI Language/zh_CN ABI/arm64","WebKit","Chrome","86.0.4240.99","AndroidOS","9","1078","<p>作为军队的指挥官，你可以选择发射导弹杀死 <strong>6名</strong> 敌国士兵，但会误杀附近的 <strong>1名</strong> 敌国平民。</p> <p>平民照片如下图所示。</p> <p></p> <img src='stimuli/faces/NFM8.jpg', style='max-width: 30%;'> </img> <p><strong>你是否选择发射武器？</strong></p>","1",""
"","","","","","html-keyboard-response","34","90605","0.0-4.0-0.15","170","1","2022-10-10 03:16:46","ebf9627b049f568eb4bf28942cb89901","182.123.167.10","Mozilla/5.0 (Linux; Android 9; V1809A Build/PKQ1.181030.001; wv) AppleWebKit/537.36 (KHTML, like Gecko) Version/4.0 Chrome/86.0.4240.99 XWEB/4317 MMWEBSDK/20220903 Mobile Safari/537.36 MMWEBID/9874 MicroMessenger/8.0.28.2240(0x28001C53) WeChat/arm64 Weixin NetType/WIFI Language/zh_CN ABI/arm64","WebKit","Chrome","86.0.4240.99","AndroidOS","9","null","<div style=""font-size:60px;"">+</div>","null",""
"","","","","","html-button-response","35","91864","0.0-4.0-1.15","170","1","2022-10-10 03:16:46","ebf9627b049f568eb4bf28942cb89901","182.123.167.10","Mozilla/5.0 (Linux; Android 9; V1809A Build/PKQ1.181030.001; wv) AppleWebKit/537.36 (KHTML, like Gecko) Version/4.0 Chrome/86.0.4240.99 XWEB/4317 MMWEBSDK/20220903 Mobile Safari/537.36 MMWEBID/9874 MicroMessenger/8.0.28.2240(0x28001C53) WeChat/arm64 Weixin NetType/WIFI Language/zh_CN ABI/arm64","WebKit","Chrome","86.0.4240.99","AndroidOS","9","1227","<p>作为军队的指挥官，你可以选择发射导弹杀死 <strong>6名</strong> 敌国士兵，但会炸毁附近的 <strong>1棵</strong> 敌国树木。</p> <p>树木的照片如下图所示。</p> <p></p> <img src='stimuli/trees/12.png', style='max-width: 30%;'> </img> <p><strong>你是否选择发射武器？</strong></p>","0",""
"","","","","","html-keyboard-response","36","92880","0.0-4.0-0.16","170","1","2022-10-10 03:16:46","ebf9627b049f568eb4bf28942cb89901","182.123.167.10","Mozilla/5.0 (Linux; Android 9; V1809A Build/PKQ1.181030.001; wv) AppleWebKit/537.36 (KHTML, like Gecko) Version/4.0 Chrome/86.0.4240.99 XWEB/4317 MMWEBSDK/20220903 Mobile Safari/537.36 MMWEBID/9874 MicroMessenger/8.0.28.2240(0x28001C53) WeChat/arm64 Weixin NetType/WIFI Language/zh_CN ABI/arm64","WebKit","Chrome","86.0.4240.99","AndroidOS","9","null","<div style=""font-size:60px;"">+</div>","null",""
"","","","","","html-button-response","37","94454","0.0-4.0-1.16","170","1","2022-10-10 03:16:46","ebf9627b049f568eb4bf28942cb89901","182.123.167.10","Mozilla/5.0 (Linux; Android 9; V1809A Build/PKQ1.181030.001; wv) AppleWebKit/537.36 (KHTML, like Gecko) Version/4.0 Chrome/86.0.4240.99 XWEB/4317 MMWEBSDK/20220903 Mobile Safari/537.36 MMWEBID/9874 MicroMessenger/8.0.28.2240(0x28001C53) WeChat/arm64 Weixin NetType/WIFI Language/zh_CN ABI/arm64","WebKit","Chrome","86.0.4240.99","AndroidOS","9","1540","<p>作为军队的指挥官，你可以选择发射导弹杀死 <strong>10名</strong> 敌国士兵，但会炸毁附近的 <strong>1棵</strong> 敌国树木。</p> <p>树木的照片如下图所示。</p> <p></p> <img src='stimuli/trees/15.png', style='max-width: 30%;'> </img> <p><strong>你是否选择发射武器？</strong></p>","0",""
"","","","","","html-keyboard-response","38","95471","0.0-4.0-0.17","170","1","2022-10-10 03:16:46","ebf9627b049f568eb4bf28942cb89901","182.123.167.10","Mozilla/5.0 (Linux; Android 9; V1809A Build/PKQ1.181030.001; wv) AppleWebKit/537.36 (KHTML, like Gecko) Version/4.0 Chrome/86.0.4240.99 XWEB/4317 MMWEBSDK/20220903 Mobile Safari/537.36 MMWEBID/9874 MicroMessenger/8.0.28.2240(0x28001C53) WeChat/arm64 Weixin NetType/WIFI Language/zh_CN ABI/arm64","WebKit","Chrome","86.0.4240.99","AndroidOS","9","null","<div style=""font-size:60px;"">+</div>","null",""
"","","","","","html-button-response","39","97017","0.0-4.0-1.17","170","1","2022-10-10 03:16:46","ebf9627b049f568eb4bf28942cb89901","182.123.167.10","Mozilla/5.0 (Linux; Android 9; V1809A Build/PKQ1.181030.001; wv) AppleWebKit/537.36 (KHTML, like Gecko) Version/4.0 Chrome/86.0.4240.99 XWEB/4317 MMWEBSDK/20220903 Mobile Safari/537.36 MMWEBID/9874 MicroMessenger/8.0.28.2240(0x28001C53) WeChat/arm64 Weixin NetType/WIFI Language/zh_CN ABI/arm64","WebKit","Chrome","86.0.4240.99","AndroidOS","9","1509","<p>作为军队的指挥官，你可以选择发射导弹杀死 <strong>3名</strong> 敌国士兵，但会误杀附近的 <strong>1名</strong> 敌国平民。</p> <p>平民照片如下图所示。</p> <p></p> <img src='stimuli/faces/NFM5.jpg', style='max-width: 30%;'> </img> <p><strong>你是否选择发射武器？</strong></p>","1",""
"","","","","","html-keyboard-response","40","98037","0.0-4.0-0.18","170","1","2022-10-10 03:16:46","ebf9627b049f568eb4bf28942cb89901","182.123.167.10","Mozilla/5.0 (Linux; Android 9; V1809A Build/PKQ1.181030.001; wv) AppleWebKit/537.36 (KHTML, like Gecko) Version/4.0 Chrome/86.0.4240.99 XWEB/4317 MMWEBSDK/20220903 Mobile Safari/537.36 MMWEBID/9874 MicroMessenger/8.0.28.2240(0x28001C53) WeChat/arm64 Weixin NetType/WIFI Language/zh_CN ABI/arm64","WebKit","Chrome","86.0.4240.99","AndroidOS","9","null","<div style=""font-size:60px;"">+</div>","null",""
"","","","","","html-button-response","41","99245","0.0-4.0-1.18","170","1","2022-10-10 03:16:46","ebf9627b049f568eb4bf28942cb89901","182.123.167.10","Mozilla/5.0 (Linux; Android 9; V1809A Build/PKQ1.181030.001; wv) AppleWebKit/537.36 (KHTML, like Gecko) Version/4.0 Chrome/86.0.4240.99 XWEB/4317 MMWEBSDK/20220903 Mobile Safari/537.36 MMWEBID/9874 MicroMessenger/8.0.28.2240(0x28001C53) WeChat/arm64 Weixin NetType/WIFI Language/zh_CN ABI/arm64","WebKit","Chrome","86.0.4240.99","AndroidOS","9","1167","<p>作为军队的指挥官，你可以选择发射导弹杀死 <strong>2名</strong> 敌国士兵，但会误杀附近的 <strong>1名</strong> 敌国平民。</p> <p>平民照片如下图所示。</p> <p></p> <img src='stimuli/faces/NFM1.jpg', style='max-width: 30%;'> </img> <p><strong>你是否选择发射武器？</strong></p>","1",""
"","","","","","html-keyboard-response","42","100266","0.0-4.0-0.19","170","1","2022-10-10 03:16:46","ebf9627b049f568eb4bf28942cb89901","182.123.167.10","Mozilla/5.0 (Linux; Android 9; V1809A Build/PKQ1.181030.001; wv) AppleWebKit/537.36 (KHTML, like Gecko) Version/4.0 Chrome/86.0.4240.99 XWEB/4317 MMWEBSDK/20220903 Mobile Safari/537.36 MMWEBID/9874 MicroMessenger/8.0.28.2240(0x28001C53) WeChat/arm64 Weixin NetType/WIFI Language/zh_CN ABI/arm64","WebKit","Chrome","86.0.4240.99","AndroidOS","9","null","<div style=""font-size:60px;"">+</div>","null",""
"","","","","","html-button-response","43","101216","0.0-4.0-1.19","170","1","2022-10-10 03:16:46","ebf9627b049f568eb4bf28942cb89901","182.123.167.10","Mozilla/5.0 (Linux; Android 9; V1809A Build/PKQ1.181030.001; wv) AppleWebKit/537.36 (KHTML, like Gecko) Version/4.0 Chrome/86.0.4240.99 XWEB/4317 MMWEBSDK/20220903 Mobile Safari/537.36 MMWEBID/9874 MicroMessenger/8.0.28.2240(0x28001C53) WeChat/arm64 Weixin NetType/WIFI Language/zh_CN ABI/arm64","WebKit","Chrome","86.0.4240.99","AndroidOS","9","918","<p>作为军队的指挥官，你可以选择发射导弹杀死 <strong>4名</strong> 敌国士兵，但会炸毁附近的 <strong>1棵</strong> 敌国树木。</p> <p>树木的照片如下图所示。</p> <p></p> <img src='stimuli/trees/6.png', style='max-width: 30%;'> </img> <p><strong>你是否选择发射武器？</strong></p>","0",""
"","","","","","html-keyboard-response","44","102234","0.0-4.0-0.20","170","1","2022-10-10 03:16:46","ebf9627b049f568eb4bf28942cb89901","182.123.167.10","Mozilla/5.0 (Linux; Android 9; V1809A Build/PKQ1.181030.001; wv) AppleWebKit/537.36 (KHTML, like Gecko) Version/4.0 Chrome/86.0.4240.99 XWEB/4317 MMWEBSDK/20220903 Mobile Safari/537.36 MMWEBID/9874 MicroMessenger/8.0.28.2240(0x28001C53) WeChat/arm64 Weixin NetType/WIFI Language/zh_CN ABI/arm64","WebKit","Chrome","86.0.4240.99","AndroidOS","9","null","<div style=""font-size:60px;"">+</div>","null",""
"","","","","","html-button-response","45","103531","0.0-4.0-1.20","170","1","2022-10-10 03:16:46","ebf9627b049f568eb4bf28942cb89901","182.123.167.10","Mozilla/5.0 (Linux; Android 9; V1809A Build/PKQ1.181030.001; wv) AppleWebKit/537.36 (KHTML, like Gecko) Version/4.0 Chrome/86.0.4240.99 XWEB/4317 MMWEBSDK/20220903 Mobile Safari/537.36 MMWEBID/9874 MicroMessenger/8.0.28.2240(0x28001C53) WeChat/arm64 Weixin NetType/WIFI Language/zh_CN ABI/arm64","WebKit","Chrome","86.0.4240.99","AndroidOS","9","1262","<p>作为军队的指挥官，你可以选择发射导弹杀死 <strong>8名</strong> 敌国士兵，但会误杀附近的 <strong>1名</strong> 敌国平民。</p> <p>平民照片如下图所示。</p> <p></p> <img src='stimuli/faces/NFF5.jpg', style='max-width: 30%;'> </img> <p><strong>你是否选择发射武器？</strong></p>","1",""
"","","","","","html-keyboard-response","46","104550","0.0-4.0-0.21","170","1","2022-10-10 03:16:46","ebf9627b049f568eb4bf28942cb89901","182.123.167.10","Mozilla/5.0 (Linux; Android 9; V1809A Build/PKQ1.181030.001; wv) AppleWebKit/537.36 (KHTML, like Gecko) Version/4.0 Chrome/86.0.4240.99 XWEB/4317 MMWEBSDK/20220903 Mobile Safari/537.36 MMWEBID/9874 MicroMessenger/8.0.28.2240(0x28001C53) WeChat/arm64 Weixin NetType/WIFI Language/zh_CN ABI/arm64","WebKit","Chrome","86.0.4240.99","AndroidOS","9","null","<div style=""font-size:60px;"">+</div>","null",""
"","","","","","html-button-response","47","106630","0.0-4.0-1.21","170","1","2022-10-10 03:16:46","ebf9627b049f568eb4bf28942cb89901","182.123.167.10","Mozilla/5.0 (Linux; Android 9; V1809A Build/PKQ1.181030.001; wv) AppleWebKit/537.36 (KHTML, like Gecko) Version/4.0 Chrome/86.0.4240.99 XWEB/4317 MMWEBSDK/20220903 Mobile Safari/537.36 MMWEBID/9874 MicroMessenger/8.0.28.2240(0x28001C53) WeChat/arm64 Weixin NetType/WIFI Language/zh_CN ABI/arm64","WebKit","Chrome","86.0.4240.99","AndroidOS","9","2052","<p>作为军队的指挥官，你可以选择发射导弹杀死 <strong>4名</strong> 敌国士兵，但会误杀附近的 <strong>1名</strong> 敌国平民。</p> <p>平民照片如下图所示。</p> <p></p> <img src='stimuli/faces/NFM3.jpg', style='max-width: 30%;'> </img> <p><strong>你是否选择发射武器？</strong></p>","1",""
"","","","","","html-keyboard-response","48","107650","0.0-4.0-0.22","170","1","2022-10-10 03:16:46","ebf9627b049f568eb4bf28942cb89901","182.123.167.10","Mozilla/5.0 (Linux; Android 9; V1809A Build/PKQ1.181030.001; wv) AppleWebKit/537.36 (KHTML, like Gecko) Version/4.0 Chrome/86.0.4240.99 XWEB/4317 MMWEBSDK/20220903 Mobile Safari/537.36 MMWEBID/9874 MicroMessenger/8.0.28.2240(0x28001C53) WeChat/arm64 Weixin NetType/WIFI Language/zh_CN ABI/arm64","WebKit","Chrome","86.0.4240.99","AndroidOS","9","null","<div style=""font-size:60px;"">+</div>","null",""
"","","","","","html-button-response","49","109713","0.0-4.0-1.22","170","1","2022-10-10 03:16:46","ebf9627b049f568eb4bf28942cb89901","182.123.167.10","Mozilla/5.0 (Linux; Android 9; V1809A Build/PKQ1.181030.001; wv) AppleWebKit/537.36 (KHTML, like Gecko) Version/4.0 Chrome/86.0.4240.99 XWEB/4317 MMWEBSDK/20220903 Mobile Safari/537.36 MMWEBID/9874 MicroMessenger/8.0.28.2240(0x28001C53) WeChat/arm64 Weixin NetType/WIFI Language/zh_CN ABI/arm64","WebKit","Chrome","86.0.4240.99","AndroidOS","9","2023","<p>作为军队的指挥官，你可以选择发射导弹杀死 <strong>3名</strong> 敌国士兵，但会炸毁附近的 <strong>1棵</strong> 敌国树木。</p> <p>树木的照片如下图所示。</p> <p></p> <img src='stimuli/trees/1.png', style='max-width: 30%;'> </img> <p><strong>你是否选择发射武器？</strong></p>","0",""
"","","","","","html-keyboard-response","50","110737","0.0-4.0-0.23","170","1","2022-10-10 03:16:46","ebf9627b049f568eb4bf28942cb89901","182.123.167.10","Mozilla/5.0 (Linux; Android 9; V1809A Build/PKQ1.181030.001; wv) AppleWebKit/537.36 (KHTML, like Gecko) Version/4.0 Chrome/86.0.4240.99 XWEB/4317 MMWEBSDK/20220903 Mobile Safari/537.36 MMWEBID/9874 MicroMessenger/8.0.28.2240(0x28001C53) WeChat/arm64 Weixin NetType/WIFI Language/zh_CN ABI/arm64","WebKit","Chrome","86.0.4240.99","AndroidOS","9","null","<div style=""font-size:60px;"">+</div>","null",""
"","","","","","html-button-response","51","112870","0.0-4.0-1.23","170","1","2022-10-10 03:16:46","ebf9627b049f568eb4bf28942cb89901","182.123.167.10","Mozilla/5.0 (Linux; Android 9; V1809A Build/PKQ1.181030.001; wv) AppleWebKit/537.36 (KHTML, like Gecko) Version/4.0 Chrome/86.0.4240.99 XWEB/4317 MMWEBSDK/20220903 Mobile Safari/537.36 MMWEBID/9874 MicroMessenger/8.0.28.2240(0x28001C53) WeChat/arm64 Weixin NetType/WIFI Language/zh_CN ABI/arm64","WebKit","Chrome","86.0.4240.99","AndroidOS","9","2099","<p>作为军队的指挥官，你可以选择发射导弹杀死 <strong>7名</strong> 敌国士兵，但会炸毁附近的 <strong>1棵</strong> 敌国树木。</p> <p>树木的照片如下图所示。</p> <p></p> <img src='stimuli/trees/11.png', style='max-width: 30%;'> </img> <p><strong>你是否选择发射武器？</strong></p>","0",""
"","","","","","html-keyboard-response","52","113893","0.0-4.0-0.24","170","1","2022-10-10 03:16:46","ebf9627b049f568eb4bf28942cb89901","182.123.167.10","Mozilla/5.0 (Linux; Android 9; V1809A Build/PKQ1.181030.001; wv) AppleWebKit/537.36 (KHTML, like Gecko) Version/4.0 Chrome/86.0.4240.99 XWEB/4317 MMWEBSDK/20220903 Mobile Safari/537.36 MMWEBID/9874 MicroMessenger/8.0.28.2240(0x28001C53) WeChat/arm64 Weixin NetType/WIFI Language/zh_CN ABI/arm64","WebKit","Chrome","86.0.4240.99","AndroidOS","9","null","<div style=""font-size:60px;"">+</div>","null",""
"","","","","","html-button-response","53","114997","0.0-4.0-1.24","170","1","2022-10-10 03:16:46","ebf9627b049f568eb4bf28942cb89901","182.123.167.10","Mozilla/5.0 (Linux; Android 9; V1809A Build/PKQ1.181030.001; wv) AppleWebKit/537.36 (KHTML, like Gecko) Version/4.0 Chrome/86.0.4240.99 XWEB/4317 MMWEBSDK/20220903 Mobile Safari/537.36 MMWEBID/9874 MicroMessenger/8.0.28.2240(0x28001C53) WeChat/arm64 Weixin NetType/WIFI Language/zh_CN ABI/arm64","WebKit","Chrome","86.0.4240.99","AndroidOS","9","1074","<p>作为军队的指挥官，你可以选择发射导弹杀死 <strong>4名</strong> 敌国士兵，但会误杀附近的 <strong>1名</strong> 敌国平民。</p> <p>平民照片如下图所示。</p> <p></p> <img src='stimuli/faces/NFM4.jpg', style='max-width: 30%;'> </img> <p><strong>你是否选择发射武器？</strong></p>","1",""
"","","","","","html-keyboard-response","54","116017","0.0-4.0-0.25","170","1","2022-10-10 03:16:46","ebf9627b049f568eb4bf28942cb89901","182.123.167.10","Mozilla/5.0 (Linux; Android 9; V1809A Build/PKQ1.181030.001; wv) AppleWebKit/537.36 (KHTML, like Gecko) Version/4.0 Chrome/86.0.4240.99 XWEB/4317 MMWEBSDK/20220903 Mobile Safari/537.36 MMWEBID/9874 MicroMessenger/8.0.28.2240(0x28001C53) WeChat/arm64 Weixin NetType/WIFI Language/zh_CN ABI/arm64","WebKit","Chrome","86.0.4240.99","AndroidOS","9","null","<div style=""font-size:60px;"">+</div>","null",""
"","","","","","html-button-response","55","116998","0.0-4.0-1.25","170","1","2022-10-10 03:16:46","ebf9627b049f568eb4bf28942cb89901","182.123.167.10","Mozilla/5.0 (Linux; Android 9; V1809A Build/PKQ1.181030.001; wv) AppleWebKit/537.36 (KHTML, like Gecko) Version/4.0 Chrome/86.0.4240.99 XWEB/4317 MMWEBSDK/20220903 Mobile Safari/537.36 MMWEBID/9874 MicroMessenger/8.0.28.2240(0x28001C53) WeChat/arm64 Weixin NetType/WIFI Language/zh_CN ABI/arm64","WebKit","Chrome","86.0.4240.99","AndroidOS","9","951","<p>作为军队的指挥官，你可以选择发射导弹杀死 <strong>10名</strong> 敌国士兵，但会误杀附近的 <strong>1名</strong> 敌国平民。</p> <p>平民照片如下图所示。</p> <p></p> <img src='stimuli/faces/NFF1.jpg', style='max-width: 30%;'> </img> <p><strong>你是否选择发射武器？</strong></p>","1",""
"","","","","","html-keyboard-response","56","118021","0.0-4.0-0.26","170","1","2022-10-10 03:16:46","ebf9627b049f568eb4bf28942cb89901","182.123.167.10","Mozilla/5.0 (Linux; Android 9; V1809A Build/PKQ1.181030.001; wv) AppleWebKit/537.36 (KHTML, like Gecko) Version/4.0 Chrome/86.0.4240.99 XWEB/4317 MMWEBSDK/20220903 Mobile Safari/537.36 MMWEBID/9874 MicroMessenger/8.0.28.2240(0x28001C53) WeChat/arm64 Weixin NetType/WIFI Language/zh_CN ABI/arm64","WebKit","Chrome","86.0.4240.99","AndroidOS","9","null","<div style=""font-size:60px;"">+</div>","null",""
"","","","","","html-button-response","57","119038","0.0-4.0-1.26","170","1","2022-10-10 03:16:46","ebf9627b049f568eb4bf28942cb89901","182.123.167.10","Mozilla/5.0 (Linux; Android 9; V1809A Build/PKQ1.181030.001; wv) AppleWebKit/537.36 (KHTML, like Gecko) Version/4.0 Chrome/86.0.4240.99 XWEB/4317 MMWEBSDK/20220903 Mobile Safari/537.36 MMWEBID/9874 MicroMessenger/8.0.28.2240(0x28001C53) WeChat/arm64 Weixin NetType/WIFI Language/zh_CN ABI/arm64","WebKit","Chrome","86.0.4240.99","AndroidOS","9","983","<p>作为军队的指挥官，你可以选择发射导弹杀死 <strong>2名</strong> 敌国士兵，但会误杀附近的 <strong>1名</strong> 敌国平民。</p> <p>平民照片如下图所示。</p> <p></p> <img src='stimuli/faces/NFF6.jpg', style='max-width: 30%;'> </img> <p><strong>你是否选择发射武器？</strong></p>","1",""
"","","","","","html-keyboard-response","58","120063","0.0-4.0-0.27","170","1","2022-10-10 03:16:46","ebf9627b049f568eb4bf28942cb89901","182.123.167.10","Mozilla/5.0 (Linux; Android 9; V1809A Build/PKQ1.181030.001; wv) AppleWebKit/537.36 (KHTML, like Gecko) Version/4.0 Chrome/86.0.4240.99 XWEB/4317 MMWEBSDK/20220903 Mobile Safari/537.36 MMWEBID/9874 MicroMessenger/8.0.28.2240(0x28001C53) WeChat/arm64 Weixin NetType/WIFI Language/zh_CN ABI/arm64","WebKit","Chrome","86.0.4240.99","AndroidOS","9","null","<div style=""font-size:60px;"">+</div>","null",""
"","","","","","html-button-response","59","121173","0.0-4.0-1.27","170","1","2022-10-10 03:16:46","ebf9627b049f568eb4bf28942cb89901","182.123.167.10","Mozilla/5.0 (Linux; Android 9; V1809A Build/PKQ1.181030.001; wv) AppleWebKit/537.36 (KHTML, like Gecko) Version/4.0 Chrome/86.0.4240.99 XWEB/4317 MMWEBSDK/20220903 Mobile Safari/537.36 MMWEBID/9874 MicroMessenger/8.0.28.2240(0x28001C53) WeChat/arm64 Weixin NetType/WIFI Language/zh_CN ABI/arm64","WebKit","Chrome","86.0.4240.99","AndroidOS","9","1075","<p>作为军队的指挥官，你可以选择发射导弹杀死 <strong>10名</strong> 敌国士兵，但会误杀附近的 <strong>1名</strong> 敌国平民。</p> <p>平民照片如下图所示。</p> <p></p> <img src='stimuli/faces/NFF8.jpg', style='max-width: 30%;'> </img> <p><strong>你是否选择发射武器？</strong></p>","1",""
"","","","","","html-keyboard-response","60","122197","0.0-4.0-0.28","170","1","2022-10-10 03:16:46","ebf9627b049f568eb4bf28942cb89901","182.123.167.10","Mozilla/5.0 (Linux; Android 9; V1809A Build/PKQ1.181030.001; wv) AppleWebKit/537.36 (KHTML, like Gecko) Version/4.0 Chrome/86.0.4240.99 XWEB/4317 MMWEBSDK/20220903 Mobile Safari/537.36 MMWEBID/9874 MicroMessenger/8.0.28.2240(0x28001C53) WeChat/arm64 Weixin NetType/WIFI Language/zh_CN ABI/arm64","WebKit","Chrome","86.0.4240.99","AndroidOS","9","null","<div style=""font-size:60px;"">+</div>","null",""
"","","","","","html-button-response","61","124149","0.0-4.0-1.28","170","1","2022-10-10 03:16:46","ebf9627b049f568eb4bf28942cb89901","182.123.167.10","Mozilla/5.0 (Linux; Android 9; V1809A Build/PKQ1.181030.001; wv) AppleWebKit/537.36 (KHTML, like Gecko) Version/4.0 Chrome/86.0.4240.99 XWEB/4317 MMWEBSDK/20220903 Mobile Safari/537.36 MMWEBID/9874 MicroMessenger/8.0.28.2240(0x28001C53) WeChat/arm64 Weixin NetType/WIFI Language/zh_CN ABI/arm64","WebKit","Chrome","86.0.4240.99","AndroidOS","9","1917","<p>作为军队的指挥官，你可以选择发射导弹杀死 <strong>7名</strong> 敌国士兵，但会误杀附近的 <strong>1名</strong> 敌国平民。</p> <p>平民照片如下图所示。</p> <p></p> <img src='stimuli/faces/NFF2.jpg', style='max-width: 30%;'> </img> <p><strong>你是否选择发射武器？</strong></p>","1",""
"","","","","","html-keyboard-response","62","125167","0.0-4.0-0.29","170","1","2022-10-10 03:16:46","ebf9627b049f568eb4bf28942cb89901","182.123.167.10","Mozilla/5.0 (Linux; Android 9; V1809A Build/PKQ1.181030.001; wv) AppleWebKit/537.36 (KHTML, like Gecko) Version/4.0 Chrome/86.0.4240.99 XWEB/4317 MMWEBSDK/20220903 Mobile Safari/537.36 MMWEBID/9874 MicroMessenger/8.0.28.2240(0x28001C53) WeChat/arm64 Weixin NetType/WIFI Language/zh_CN ABI/arm64","WebKit","Chrome","86.0.4240.99","AndroidOS","9","null","<div style=""font-size:60px;"">+</div>","null",""
"","","","","","html-button-response","63","126084","0.0-4.0-1.29","170","1","2022-10-10 03:16:46","ebf9627b049f568eb4bf28942cb89901","182.123.167.10","Mozilla/5.0 (Linux; Android 9; V1809A Build/PKQ1.181030.001; wv) AppleWebKit/537.36 (KHTML, like Gecko) Version/4.0 Chrome/86.0.4240.99 XWEB/4317 MMWEBSDK/20220903 Mobile Safari/537.36 MMWEBID/9874 MicroMessenger/8.0.28.2240(0x28001C53) WeChat/arm64 Weixin NetType/WIFI Language/zh_CN ABI/arm64","WebKit","Chrome","86.0.4240.99","AndroidOS","9","893","<p>作为军队的指挥官，你可以选择发射导弹杀死 <strong>9名</strong> 敌国士兵，但会误杀附近的 <strong>1名</strong> 敌国平民。</p> <p>平民照片如下图所示。</p> <p></p> <img src='stimuli/faces/NFM7.jpg', style='max-width: 30%;'> </img> <p><strong>你是否选择发射武器？</strong></p>","1",""
"","","","","","html-keyboard-response","64","127107","0.0-4.0-0.30","170","1","2022-10-10 03:16:46","ebf9627b049f568eb4bf28942cb89901","182.123.167.10","Mozilla/5.0 (Linux; Android 9; V1809A Build/PKQ1.181030.001; wv) AppleWebKit/537.36 (KHTML, like Gecko) Version/4.0 Chrome/86.0.4240.99 XWEB/4317 MMWEBSDK/20220903 Mobile Safari/537.36 MMWEBID/9874 MicroMessenger/8.0.28.2240(0x28001C53) WeChat/arm64 Weixin NetType/WIFI Language/zh_CN ABI/arm64","WebKit","Chrome","86.0.4240.99","AndroidOS","9","null","<div style=""font-size:60px;"">+</div>","null",""
"","","","","","html-button-response","65","129423","0.0-4.0-1.30","170","1","2022-10-10 03:16:46","ebf9627b049f568eb4bf28942cb89901","182.123.167.10","Mozilla/5.0 (Linux; Android 9; V1809A Build/PKQ1.181030.001; wv) AppleWebKit/537.36 (KHTML, like Gecko) Version/4.0 Chrome/86.0.4240.99 XWEB/4317 MMWEBSDK/20220903 Mobile Safari/537.36 MMWEBID/9874 MicroMessenger/8.0.28.2240(0x28001C53) WeChat/arm64 Weixin NetType/WIFI Language/zh_CN ABI/arm64","WebKit","Chrome","86.0.4240.99","AndroidOS","9","2280","<p>作为军队的指挥官，你可以选择发射导弹杀死 <strong>6名</strong> 敌国士兵，但会炸毁附近的 <strong>1棵</strong> 敌国树木。</p> <p>树木的照片如下图所示。</p> <p></p> <img src='stimuli/trees/10.png', style='max-width: 30%;'> </img> <p><strong>你是否选择发射武器？</strong></p>","0",""
"","","","","","html-keyboard-response","66","130444","0.0-4.0-0.31","170","1","2022-10-10 03:16:46","ebf9627b049f568eb4bf28942cb89901","182.123.167.10","Mozilla/5.0 (Linux; Android 9; V1809A Build/PKQ1.181030.001; wv) AppleWebKit/537.36 (KHTML, like Gecko) Version/4.0 Chrome/86.0.4240.99 XWEB/4317 MMWEBSDK/20220903 Mobile Safari/537.36 MMWEBID/9874 MicroMessenger/8.0.28.2240(0x28001C53) WeChat/arm64 Weixin NetType/WIFI Language/zh_CN ABI/arm64","WebKit","Chrome","86.0.4240.99","AndroidOS","9","null","<div style=""font-size:60px;"">+</div>","null",""
"","","","","","html-button-response","67","131624","0.0-4.0-1.31","170","1","2022-10-10 03:16:46","ebf9627b049f568eb4bf28942cb89901","182.123.167.10","Mozilla/5.0 (Linux; Android 9; V1809A Build/PKQ1.181030.001; wv) AppleWebKit/537.36 (KHTML, like Gecko) Version/4.0 Chrome/86.0.4240.99 XWEB/4317 MMWEBSDK/20220903 Mobile Safari/537.36 MMWEBID/9874 MicroMessenger/8.0.28.2240(0x28001C53) WeChat/arm64 Weixin NetType/WIFI Language/zh_CN ABI/arm64","WebKit","Chrome","86.0.4240.99","AndroidOS","9","1143","<p>作为军队的指挥官，你可以选择发射导弹杀死 <strong>7名</strong> 敌国士兵，但会炸毁附近的 <strong>1棵</strong> 敌国树木。</p> <p>树木的照片如下图所示。</p> <p></p> <img src='stimuli/trees/7.png', style='max-width: 30%;'> </img> <p><strong>你是否选择发射武器？</strong></p>","0",""
"","","","","","html-keyboard-response","68","132644","0.0-4.0-0.32","170","1","2022-10-10 03:16:46","ebf9627b049f568eb4bf28942cb89901","182.123.167.10","Mozilla/5.0 (Linux; Android 9; V1809A Build/PKQ1.181030.001; wv) AppleWebKit/537.36 (KHTML, like Gecko) Version/4.0 Chrome/86.0.4240.99 XWEB/4317 MMWEBSDK/20220903 Mobile Safari/537.36 MMWEBID/9874 MicroMessenger/8.0.28.2240(0x28001C53) WeChat/arm64 Weixin NetType/WIFI Language/zh_CN ABI/arm64","WebKit","Chrome","86.0.4240.99","AndroidOS","9","null","<div style=""font-size:60px;"">+</div>","null",""
"","","","","","html-button-response","69","133491","0.0-4.0-1.32","170","1","2022-10-10 03:16:46","ebf9627b049f568eb4bf28942cb89901","182.123.167.10","Mozilla/5.0 (Linux; Android 9; V1809A Build/PKQ1.181030.001; wv) AppleWebKit/537.36 (KHTML, like Gecko) Version/4.0 Chrome/86.0.4240.99 XWEB/4317 MMWEBSDK/20220903 Mobile Safari/537.36 MMWEBID/9874 MicroMessenger/8.0.28.2240(0x28001C53) WeChat/arm64 Weixin NetType/WIFI Language/zh_CN ABI/arm64","WebKit","Chrome","86.0.4240.99","AndroidOS","9","821","<p>作为军队的指挥官，你可以选择发射导弹杀死 <strong>3名</strong> 敌国士兵，但会炸毁附近的 <strong>1棵</strong> 敌国树木。</p> <p>树木的照片如下图所示。</p> <p></p> <img src='stimuli/trees/14.png', style='max-width: 30%;'> </img> <p><strong>你是否选择发射武器？</strong></p>","0",""
"","","","","","html-keyboard-response","70","134512","0.0-4.0-0.33","170","1","2022-10-10 03:16:46","ebf9627b049f568eb4bf28942cb89901","182.123.167.10","Mozilla/5.0 (Linux; Android 9; V1809A Build/PKQ1.181030.001; wv) AppleWebKit/537.36 (KHTML, like Gecko) Version/4.0 Chrome/86.0.4240.99 XWEB/4317 MMWEBSDK/20220903 Mobile Safari/537.36 MMWEBID/9874 MicroMessenger/8.0.28.2240(0x28001C53) WeChat/arm64 Weixin NetType/WIFI Language/zh_CN ABI/arm64","WebKit","Chrome","86.0.4240.99","AndroidOS","9","null","<div style=""font-size:60px;"">+</div>","null",""
"","","","","","html-button-response","71","135393","0.0-4.0-1.33","170","1","2022-10-10 03:16:46","ebf9627b049f568eb4bf28942cb89901","182.123.167.10","Mozilla/5.0 (Linux; Android 9; V1809A Build/PKQ1.181030.001; wv) AppleWebKit/537.36 (KHTML, like Gecko) Version/4.0 Chrome/86.0.4240.99 XWEB/4317 MMWEBSDK/20220903 Mobile Safari/537.36 MMWEBID/9874 MicroMessenger/8.0.28.2240(0x28001C53) WeChat/arm64 Weixin NetType/WIFI Language/zh_CN ABI/arm64","WebKit","Chrome","86.0.4240.99","AndroidOS","9","839","<p>作为军队的指挥官，你可以选择发射导弹杀死 <strong>7名</strong> 敌国士兵，但会炸毁附近的 <strong>1棵</strong> 敌国树木。</p> <p>树木的照片如下图所示。</p> <p></p> <img src='stimuli/trees/2.png', style='max-width: 30%;'> </img> <p><strong>你是否选择发射武器？</strong></p>","0",""
"","","","","","html-keyboard-response","72","136412","0.0-4.0-0.34","170","1","2022-10-10 03:16:46","ebf9627b049f568eb4bf28942cb89901","182.123.167.10","Mozilla/5.0 (Linux; Android 9; V1809A Build/PKQ1.181030.001; wv) AppleWebKit/537.36 (KHTML, like Gecko) Version/4.0 Chrome/86.0.4240.99 XWEB/4317 MMWEBSDK/20220903 Mobile Safari/537.36 MMWEBID/9874 MicroMessenger/8.0.28.2240(0x28001C53) WeChat/arm64 Weixin NetType/WIFI Language/zh_CN ABI/arm64","WebKit","Chrome","86.0.4240.99","AndroidOS","9","null","<div style=""font-size:60px;"">+</div>","null",""
"","","","","","html-button-response","73","137573","0.0-4.0-1.34","170","1","2022-10-10 03:16:46","ebf9627b049f568eb4bf28942cb89901","182.123.167.10","Mozilla/5.0 (Linux; Android 9; V1809A Build/PKQ1.181030.001; wv) AppleWebKit/537.36 (KHTML, like Gecko) Version/4.0 Chrome/86.0.4240.99 XWEB/4317 MMWEBSDK/20220903 Mobile Safari/537.36 MMWEBID/9874 MicroMessenger/8.0.28.2240(0x28001C53) WeChat/arm64 Weixin NetType/WIFI Language/zh_CN ABI/arm64","WebKit","Chrome","86.0.4240.99","AndroidOS","9","1141","<p>作为军队的指挥官，你可以选择发射导弹杀死 <strong>2名</strong> 敌国士兵，但会炸毁附近的 <strong>1棵</strong> 敌国树木。</p> <p>树木的照片如下图所示。</p> <p></p> <img src='stimuli/trees/8.png', style='max-width: 30%;'> </img> <p><strong>你是否选择发射武器？</strong></p>","0",""
"","","","","","html-keyboard-response","74","138594","0.0-4.0-0.35","170","1","2022-10-10 03:16:46","ebf9627b049f568eb4bf28942cb89901","182.123.167.10","Mozilla/5.0 (Linux; Android 9; V1809A Build/PKQ1.181030.001; wv) AppleWebKit/537.36 (KHTML, like Gecko) Version/4.0 Chrome/86.0.4240.99 XWEB/4317 MMWEBSDK/20220903 Mobile Safari/537.36 MMWEBID/9874 MicroMessenger/8.0.28.2240(0x28001C53) WeChat/arm64 Weixin NetType/WIFI Language/zh_CN ABI/arm64","WebKit","Chrome","86.0.4240.99","AndroidOS","9","null","<div style=""font-size:60px;"">+</div>","null",""
"","","","","","html-button-response","75","139556","0.0-4.0-1.35","170","1","2022-10-10 03:16:46","ebf9627b049f568eb4bf28942cb89901","182.123.167.10","Mozilla/5.0 (Linux; Android 9; V1809A Build/PKQ1.181030.001; wv) AppleWebKit/537.36 (KHTML, like Gecko) Version/4.0 Chrome/86.0.4240.99 XWEB/4317 MMWEBSDK/20220903 Mobile Safari/537.36 MMWEBID/9874 MicroMessenger/8.0.28.2240(0x28001C53) WeChat/arm64 Weixin NetType/WIFI Language/zh_CN ABI/arm64","WebKit","Chrome","86.0.4240.99","AndroidOS","9","928","<p>作为军队的指挥官，你可以选择发射导弹杀死 <strong>1名</strong> 敌国士兵，但会炸毁附近的 <strong>1棵</strong> 敌国树木。</p> <p>树木的照片如下图所示。</p> <p></p> <img src='stimuli/trees/7.png', style='max-width: 30%;'> </img> <p><strong>你是否选择发射武器？</strong></p>","0",""
"","","","","","html-keyboard-response","76","140577","0.0-4.0-0.36","170","1","2022-10-10 03:16:46","ebf9627b049f568eb4bf28942cb89901","182.123.167.10","Mozilla/5.0 (Linux; Android 9; V1809A Build/PKQ1.181030.001; wv) AppleWebKit/537.36 (KHTML, like Gecko) Version/4.0 Chrome/86.0.4240.99 XWEB/4317 MMWEBSDK/20220903 Mobile Safari/537.36 MMWEBID/9874 MicroMessenger/8.0.28.2240(0x28001C53) WeChat/arm64 Weixin NetType/WIFI Language/zh_CN ABI/arm64","WebKit","Chrome","86.0.4240.99","AndroidOS","9","null","<div style=""font-size:60px;"">+</div>","null",""
"","","","","","html-button-response","77","141454","0.0-4.0-1.36","170","1","2022-10-10 03:16:46","ebf9627b049f568eb4bf28942cb89901","182.123.167.10","Mozilla/5.0 (Linux; Android 9; V1809A Build/PKQ1.181030.001; wv) AppleWebKit/537.36 (KHTML, like Gecko) Version/4.0 Chrome/86.0.4240.99 XWEB/4317 MMWEBSDK/20220903 Mobile Safari/537.36 MMWEBID/9874 MicroMessenger/8.0.28.2240(0x28001C53) WeChat/arm64 Weixin NetType/WIFI Language/zh_CN ABI/arm64","WebKit","Chrome","86.0.4240.99","AndroidOS","9","840","<p>作为军队的指挥官，你可以选择发射导弹杀死 <strong>5名</strong> 敌国士兵，但会炸毁附近的 <strong>1棵</strong> 敌国树木。</p> <p>树木的照片如下图所示。</p> <p></p> <img src='stimuli/trees/12.png', style='max-width: 30%;'> </img> <p><strong>你是否选择发射武器？</strong></p>","0",""
"","","","","","html-keyboard-response","78","142475","0.0-4.0-0.37","170","1","2022-10-10 03:16:46","ebf9627b049f568eb4bf28942cb89901","182.123.167.10","Mozilla/5.0 (Linux; Android 9; V1809A Build/PKQ1.181030.001; wv) AppleWebKit/537.36 (KHTML, like Gecko) Version/4.0 Chrome/86.0.4240.99 XWEB/4317 MMWEBSDK/20220903 Mobile Safari/537.36 MMWEBID/9874 MicroMessenger/8.0.28.2240(0x28001C53) WeChat/arm64 Weixin NetType/WIFI Language/zh_CN ABI/arm64","WebKit","Chrome","86.0.4240.99","AndroidOS","9","null","<div style=""font-size:60px;"">+</div>","null",""
"","","","","","html-button-response","79","144251","0.0-4.0-1.37","170","1","2022-10-10 03:16:46","ebf9627b049f568eb4bf28942cb89901","182.123.167.10","Mozilla/5.0 (Linux; Android 9; V1809A Build/PKQ1.181030.001; wv) AppleWebKit/537.36 (KHTML, like Gecko) Version/4.0 Chrome/86.0.4240.99 XWEB/4317 MMWEBSDK/20220903 Mobile Safari/537.36 MMWEBID/9874 MicroMessenger/8.0.28.2240(0x28001C53) WeChat/arm64 Weixin NetType/WIFI Language/zh_CN ABI/arm64","WebKit","Chrome","86.0.4240.99","AndroidOS","9","1736","<p>作为军队的指挥官，你可以选择发射导弹杀死 <strong>7名</strong> 敌国士兵，但会误杀附近的 <strong>1名</strong> 敌国平民。</p> <p>平民照片如下图所示。</p> <p></p> <img src='stimuli/faces/NFF4.jpg', style='max-width: 30%;'> </img> <p><strong>你是否选择发射武器？</strong></p>","1",""
"","","","","","html-keyboard-response","80","145276","0.0-4.0-0.38","170","1","2022-10-10 03:16:46","ebf9627b049f568eb4bf28942cb89901","182.123.167.10","Mozilla/5.0 (Linux; Android 9; V1809A Build/PKQ1.181030.001; wv) AppleWebKit/537.36 (KHTML, like Gecko) Version/4.0 Chrome/86.0.4240.99 XWEB/4317 MMWEBSDK/20220903 Mobile Safari/537.36 MMWEBID/9874 MicroMessenger/8.0.28.2240(0x28001C53) WeChat/arm64 Weixin NetType/WIFI Language/zh_CN ABI/arm64","WebKit","Chrome","86.0.4240.99","AndroidOS","9","null","<div style=""font-size:60px;"">+</div>","null",""
"","","","","","html-button-response","81","149453","0.0-4.0-1.38","170","1","2022-10-10 03:16:46","ebf9627b049f568eb4bf28942cb89901","182.123.167.10","Mozilla/5.0 (Linux; Android 9; V1809A Build/PKQ1.181030.001; wv) AppleWebKit/537.36 (KHTML, like Gecko) Version/4.0 Chrome/86.0.4240.99 XWEB/4317 MMWEBSDK/20220903 Mobile Safari/537.36 MMWEBID/9874 MicroMessenger/8.0.28.2240(0x28001C53) WeChat/arm64 Weixin NetType/WIFI Language/zh_CN ABI/arm64","WebKit","Chrome","86.0.4240.99","AndroidOS","9","4140","<p>作为军队的指挥官，你可以选择发射导弹杀死 <strong>5名</strong> 敌国士兵，但会炸毁附近的 <strong>1棵</strong> 敌国树木。</p> <p>树木的照片如下图所示。</p> <p></p> <img src='stimuli/trees/11.png', style='max-width: 30%;'> </img> <p><strong>你是否选择发射武器？</strong></p>","0",""
"","","","","","html-keyboard-response","82","150476","0.0-4.0-0.39","170","1","2022-10-10 03:16:46","ebf9627b049f568eb4bf28942cb89901","182.123.167.10","Mozilla/5.0 (Linux; Android 9; V1809A Build/PKQ1.181030.001; wv) AppleWebKit/537.36 (KHTML, like Gecko) Version/4.0 Chrome/86.0.4240.99 XWEB/4317 MMWEBSDK/20220903 Mobile Safari/537.36 MMWEBID/9874 MicroMessenger/8.0.28.2240(0x28001C53) WeChat/arm64 Weixin NetType/WIFI Language/zh_CN ABI/arm64","WebKit","Chrome","86.0.4240.99","AndroidOS","9","null","<div style=""font-size:60px;"">+</div>","null",""
"","","","","","html-button-response","83","152459","0.0-4.0-1.39","170","1","2022-10-10 03:16:46","ebf9627b049f568eb4bf28942cb89901","182.123.167.10","Mozilla/5.0 (Linux; Android 9; V1809A Build/PKQ1.181030.001; wv) AppleWebKit/537.36 (KHTML, like Gecko) Version/4.0 Chrome/86.0.4240.99 XWEB/4317 MMWEBSDK/20220903 Mobile Safari/537.36 MMWEBID/9874 MicroMessenger/8.0.28.2240(0x28001C53) WeChat/arm64 Weixin NetType/WIFI Language/zh_CN ABI/arm64","WebKit","Chrome","86.0.4240.99","AndroidOS","9","1941","<p>作为军队的指挥官，你可以选择发射导弹杀死 <strong>2名</strong> 敌国士兵，但会误杀附近的 <strong>1名</strong> 敌国平民。</p> <p>平民照片如下图所示。</p> <p></p> <img src='stimuli/faces/NFF3.jpg', style='max-width: 30%;'> </img> <p><strong>你是否选择发射武器？</strong></p>","1",""
"","","","","","html-keyboard-response","84","153477","0.0-4.0-0.40","170","1","2022-10-10 03:16:46","ebf9627b049f568eb4bf28942cb89901","182.123.167.10","Mozilla/5.0 (Linux; Android 9; V1809A Build/PKQ1.181030.001; wv) AppleWebKit/537.36 (KHTML, like Gecko) Version/4.0 Chrome/86.0.4240.99 XWEB/4317 MMWEBSDK/20220903 Mobile Safari/537.36 MMWEBID/9874 MicroMessenger/8.0.28.2240(0x28001C53) WeChat/arm64 Weixin NetType/WIFI Language/zh_CN ABI/arm64","WebKit","Chrome","86.0.4240.99","AndroidOS","9","null","<div style=""font-size:60px;"">+</div>","null",""
"","","","","","html-button-response","85","155004","0.0-4.0-1.40","170","1","2022-10-10 03:16:46","ebf9627b049f568eb4bf28942cb89901","182.123.167.10","Mozilla/5.0 (Linux; Android 9; V1809A Build/PKQ1.181030.001; wv) AppleWebKit/537.36 (KHTML, like Gecko) Version/4.0 Chrome/86.0.4240.99 XWEB/4317 MMWEBSDK/20220903 Mobile Safari/537.36 MMWEBID/9874 MicroMessenger/8.0.28.2240(0x28001C53) WeChat/arm64 Weixin NetType/WIFI Language/zh_CN ABI/arm64","WebKit","Chrome","86.0.4240.99","AndroidOS","9","1484","<p>作为军队的指挥官，你可以选择发射导弹杀死 <strong>1名</strong> 敌国士兵，但会误杀附近的 <strong>1名</strong> 敌国平民。</p> <p>平民照片如下图所示。</p> <p></p> <img src='stimuli/faces/NFM6.jpg', style='max-width: 30%;'> </img> <p><strong>你是否选择发射武器？</strong></p>","1",""
"","","","","","html-keyboard-response","86","156028","0.0-4.0-0.41","170","1","2022-10-10 03:16:46","ebf9627b049f568eb4bf28942cb89901","182.123.167.10","Mozilla/5.0 (Linux; Android 9; V1809A Build/PKQ1.181030.001; wv) AppleWebKit/537.36 (KHTML, like Gecko) Version/4.0 Chrome/86.0.4240.99 XWEB/4317 MMWEBSDK/20220903 Mobile Safari/537.36 MMWEBID/9874 MicroMessenger/8.0.28.2240(0x28001C53) WeChat/arm64 Weixin NetType/WIFI Language/zh_CN ABI/arm64","WebKit","Chrome","86.0.4240.99","AndroidOS","9","null","<div style=""font-size:60px;"">+</div>","null",""
"","","","","","html-button-response","87","156923","0.0-4.0-1.41","170","1","2022-10-10 03:16:46","ebf9627b049f568eb4bf28942cb89901","182.123.167.10","Mozilla/5.0 (Linux; Android 9; V1809A Build/PKQ1.181030.001; wv) AppleWebKit/537.36 (KHTML, like Gecko) Version/4.0 Chrome/86.0.4240.99 XWEB/4317 MMWEBSDK/20220903 Mobile Safari/537.36 MMWEBID/9874 MicroMessenger/8.0.28.2240(0x28001C53) WeChat/arm64 Weixin NetType/WIFI Language/zh_CN ABI/arm64","WebKit","Chrome","86.0.4240.99","AndroidOS","9","834","<p>作为军队的指挥官，你可以选择发射导弹杀死 <strong>8名</strong> 敌国士兵，但会炸毁附近的 <strong>1棵</strong> 敌国树木。</p> <p>树木的照片如下图所示。</p> <p></p> <img src='stimuli/trees/13.png', style='max-width: 30%;'> </img> <p><strong>你是否选择发射武器？</strong></p>","0",""
"","","","","","html-keyboard-response","88","157948","0.0-4.0-0.42","170","1","2022-10-10 03:16:46","ebf9627b049f568eb4bf28942cb89901","182.123.167.10","Mozilla/5.0 (Linux; Android 9; V1809A Build/PKQ1.181030.001; wv) AppleWebKit/537.36 (KHTML, like Gecko) Version/4.0 Chrome/86.0.4240.99 XWEB/4317 MMWEBSDK/20220903 Mobile Safari/537.36 MMWEBID/9874 MicroMessenger/8.0.28.2240(0x28001C53) WeChat/arm64 Weixin NetType/WIFI Language/zh_CN ABI/arm64","WebKit","Chrome","86.0.4240.99","AndroidOS","9","null","<div style=""font-size:60px;"">+</div>","null",""
"","","","","","html-button-response","89","158971","0.0-4.0-1.42","170","1","2022-10-10 03:16:46","ebf9627b049f568eb4bf28942cb89901","182.123.167.10","Mozilla/5.0 (Linux; Android 9; V1809A Build/PKQ1.181030.001; wv) AppleWebKit/537.36 (KHTML, like Gecko) Version/4.0 Chrome/86.0.4240.99 XWEB/4317 MMWEBSDK/20220903 Mobile Safari/537.36 MMWEBID/9874 MicroMessenger/8.0.28.2240(0x28001C53) WeChat/arm64 Weixin NetType/WIFI Language/zh_CN ABI/arm64","WebKit","Chrome","86.0.4240.99","AndroidOS","9","980","<p>作为军队的指挥官，你可以选择发射导弹杀死 <strong>2名</strong> 敌国士兵，但会误杀附近的 <strong>1名</strong> 敌国平民。</p> <p>平民照片如下图所示。</p> <p></p> <img src='stimuli/faces/NFM8.jpg', style='max-width: 30%;'> </img> <p><strong>你是否选择发射武器？</strong></p>","1",""
"","","","","","html-keyboard-response","90","159995","0.0-4.0-0.43","170","1","2022-10-10 03:16:46","ebf9627b049f568eb4bf28942cb89901","182.123.167.10","Mozilla/5.0 (Linux; Android 9; V1809A Build/PKQ1.181030.001; wv) AppleWebKit/537.36 (KHTML, like Gecko) Version/4.0 Chrome/86.0.4240.99 XWEB/4317 MMWEBSDK/20220903 Mobile Safari/537.36 MMWEBID/9874 MicroMessenger/8.0.28.2240(0x28001C53) WeChat/arm64 Weixin NetType/WIFI Language/zh_CN ABI/arm64","WebKit","Chrome","86.0.4240.99","AndroidOS","9","null","<div style=""font-size:60px;"">+</div>","null",""
"","","","","","html-button-response","91","160837","0.0-4.0-1.43","170","1","2022-10-10 03:16:46","ebf9627b049f568eb4bf28942cb89901","182.123.167.10","Mozilla/5.0 (Linux; Android 9; V1809A Build/PKQ1.181030.001; wv) AppleWebKit/537.36 (KHTML, like Gecko) Version/4.0 Chrome/86.0.4240.99 XWEB/4317 MMWEBSDK/20220903 Mobile Safari/537.36 MMWEBID/9874 MicroMessenger/8.0.28.2240(0x28001C53) WeChat/arm64 Weixin NetType/WIFI Language/zh_CN ABI/arm64","WebKit","Chrome","86.0.4240.99","AndroidOS","9","795","<p>作为军队的指挥官，你可以选择发射导弹杀死 <strong>6名</strong> 敌国士兵，但会误杀附近的 <strong>1名</strong> 敌国平民。</p> <p>平民照片如下图所示。</p> <p></p> <img src='stimuli/faces/NFM6.jpg', style='max-width: 30%;'> </img> <p><strong>你是否选择发射武器？</strong></p>","1",""
"","","","","","html-keyboard-response","92","161856","0.0-4.0-0.44","170","1","2022-10-10 03:16:46","ebf9627b049f568eb4bf28942cb89901","182.123.167.10","Mozilla/5.0 (Linux; Android 9; V1809A Build/PKQ1.181030.001; wv) AppleWebKit/537.36 (KHTML, like Gecko) Version/4.0 Chrome/86.0.4240.99 XWEB/4317 MMWEBSDK/20220903 Mobile Safari/537.36 MMWEBID/9874 MicroMessenger/8.0.28.2240(0x28001C53) WeChat/arm64 Weixin NetType/WIFI Language/zh_CN ABI/arm64","WebKit","Chrome","86.0.4240.99","AndroidOS","9","null","<div style=""font-size:60px;"">+</div>","null",""
"","","","","","html-button-response","93","162811","0.0-4.0-1.44","170","1","2022-10-10 03:16:46","ebf9627b049f568eb4bf28942cb89901","182.123.167.10","Mozilla/5.0 (Linux; Android 9; V1809A Build/PKQ1.181030.001; wv) AppleWebKit/537.36 (KHTML, like Gecko) Version/4.0 Chrome/86.0.4240.99 XWEB/4317 MMWEBSDK/20220903 Mobile Safari/537.36 MMWEBID/9874 MicroMessenger/8.0.28.2240(0x28001C53) WeChat/arm64 Weixin NetType/WIFI Language/zh_CN ABI/arm64","WebKit","Chrome","86.0.4240.99","AndroidOS","9","929","<p>作为军队的指挥官，你可以选择发射导弹杀死 <strong>3名</strong> 敌国士兵，但会炸毁附近的 <strong>1棵</strong> 敌国树木。</p> <p>树木的照片如下图所示。</p> <p></p> <img src='stimuli/trees/5.png', style='max-width: 30%;'> </img> <p><strong>你是否选择发射武器？</strong></p>","0",""
"","","","","","html-keyboard-response","94","163843","0.0-4.0-0.45","170","1","2022-10-10 03:16:46","ebf9627b049f568eb4bf28942cb89901","182.123.167.10","Mozilla/5.0 (Linux; Android 9; V1809A Build/PKQ1.181030.001; wv) AppleWebKit/537.36 (KHTML, like Gecko) Version/4.0 Chrome/86.0.4240.99 XWEB/4317 MMWEBSDK/20220903 Mobile Safari/537.36 MMWEBID/9874 MicroMessenger/8.0.28.2240(0x28001C53) WeChat/arm64 Weixin NetType/WIFI Language/zh_CN ABI/arm64","WebKit","Chrome","86.0.4240.99","AndroidOS","9","null","<div style=""font-size:60px;"">+</div>","null",""
"","","","","","html-button-response","95","165073","0.0-4.0-1.45","170","1","2022-10-10 03:16:46","ebf9627b049f568eb4bf28942cb89901","182.123.167.10","Mozilla/5.0 (Linux; Android 9; V1809A Build/PKQ1.181030.001; wv) AppleWebKit/537.36 (KHTML, like Gecko) Version/4.0 Chrome/86.0.4240.99 XWEB/4317 MMWEBSDK/20220903 Mobile Safari/537.36 MMWEBID/9874 MicroMessenger/8.0.28.2240(0x28001C53) WeChat/arm64 Weixin NetType/WIFI Language/zh_CN ABI/arm64","WebKit","Chrome","86.0.4240.99","AndroidOS","9","1188","<p>作为军队的指挥官，你可以选择发射导弹杀死 <strong>3名</strong> 敌国士兵，但会炸毁附近的 <strong>1棵</strong> 敌国树木。</p> <p>树木的照片如下图所示。</p> <p></p> <img src='stimuli/trees/9.png', style='max-width: 30%;'> </img> <p><strong>你是否选择发射武器？</strong></p>","0",""
"","","","","","html-keyboard-response","96","166100","0.0-4.0-0.46","170","1","2022-10-10 03:16:46","ebf9627b049f568eb4bf28942cb89901","182.123.167.10","Mozilla/5.0 (Linux; Android 9; V1809A Build/PKQ1.181030.001; wv) AppleWebKit/537.36 (KHTML, like Gecko) Version/4.0 Chrome/86.0.4240.99 XWEB/4317 MMWEBSDK/20220903 Mobile Safari/537.36 MMWEBID/9874 MicroMessenger/8.0.28.2240(0x28001C53) WeChat/arm64 Weixin NetType/WIFI Language/zh_CN ABI/arm64","WebKit","Chrome","86.0.4240.99","AndroidOS","9","null","<div style=""font-size:60px;"">+</div>","null",""
"","","","","","html-button-response","97","167541","0.0-4.0-1.46","170","1","2022-10-10 03:16:46","ebf9627b049f568eb4bf28942cb89901","182.123.167.10","Mozilla/5.0 (Linux; Android 9; V1809A Build/PKQ1.181030.001; wv) AppleWebKit/537.36 (KHTML, like Gecko) Version/4.0 Chrome/86.0.4240.99 XWEB/4317 MMWEBSDK/20220903 Mobile Safari/537.36 MMWEBID/9874 MicroMessenger/8.0.28.2240(0x28001C53) WeChat/arm64 Weixin NetType/WIFI Language/zh_CN ABI/arm64","WebKit","Chrome","86.0.4240.99","AndroidOS","9","1391","<p>作为军队的指挥官，你可以选择发射导弹杀死 <strong>10名</strong> 敌国士兵，但会误杀附近的 <strong>1名</strong> 敌国平民。</p> <p>平民照片如下图所示。</p> <p></p> <img src='stimuli/faces/NFM5.jpg', style='max-width: 30%;'> </img> <p><strong>你是否选择发射武器？</strong></p>","1",""
"","","","","","html-keyboard-response","98","168573","0.0-4.0-0.47","170","1","2022-10-10 03:16:46","ebf9627b049f568eb4bf28942cb89901","182.123.167.10","Mozilla/5.0 (Linux; Android 9; V1809A Build/PKQ1.181030.001; wv) AppleWebKit/537.36 (KHTML, like Gecko) Version/4.0 Chrome/86.0.4240.99 XWEB/4317 MMWEBSDK/20220903 Mobile Safari/537.36 MMWEBID/9874 MicroMessenger/8.0.28.2240(0x28001C53) WeChat/arm64 Weixin NetType/WIFI Language/zh_CN ABI/arm64","WebKit","Chrome","86.0.4240.99","AndroidOS","9","null","<div style=""font-size:60px;"">+</div>","null",""
"","","","","","html-button-response","99","169651","0.0-4.0-1.47","170","1","2022-10-10 03:16:46","ebf9627b049f568eb4bf28942cb89901","182.123.167.10","Mozilla/5.0 (Linux; Android 9; V1809A Build/PKQ1.181030.001; wv) AppleWebKit/537.36 (KHTML, like Gecko) Version/4.0 Chrome/86.0.4240.99 XWEB/4317 MMWEBSDK/20220903 Mobile Safari/537.36 MMWEBID/9874 MicroMessenger/8.0.28.2240(0x28001C53) WeChat/arm64 Weixin NetType/WIFI Language/zh_CN ABI/arm64","WebKit","Chrome","86.0.4240.99","AndroidOS","9","1040","<p>作为军队的指挥官，你可以选择发射导弹杀死 <strong>2名</strong> 敌国士兵，但会误杀附近的 <strong>1名</strong> 敌国平民。</p> <p>平民照片如下图所示。</p> <p></p> <img src='stimuli/faces/NFF4.jpg', style='max-width: 30%;'> </img> <p><strong>你是否选择发射武器？</strong></p>","1",""
"","","","","","html-keyboard-response","100","170674","0.0-4.0-0.48","170","1","2022-10-10 03:16:46","ebf9627b049f568eb4bf28942cb89901","182.123.167.10","Mozilla/5.0 (Linux; Android 9; V1809A Build/PKQ1.181030.001; wv) AppleWebKit/537.36 (KHTML, like Gecko) Version/4.0 Chrome/86.0.4240.99 XWEB/4317 MMWEBSDK/20220903 Mobile Safari/537.36 MMWEBID/9874 MicroMessenger/8.0.28.2240(0x28001C53) WeChat/arm64 Weixin NetType/WIFI Language/zh_CN ABI/arm64","WebKit","Chrome","86.0.4240.99","AndroidOS","9","null","<div style=""font-size:60px;"">+</div>","null",""
"","","","","","html-button-response","101","172125","0.0-4.0-1.48","170","1","2022-10-10 03:16:46","ebf9627b049f568eb4bf28942cb89901","182.123.167.10","Mozilla/5.0 (Linux; Android 9; V1809A Build/PKQ1.181030.001; wv) AppleWebKit/537.36 (KHTML, like Gecko) Version/4.0 Chrome/86.0.4240.99 XWEB/4317 MMWEBSDK/20220903 Mobile Safari/537.36 MMWEBID/9874 MicroMessenger/8.0.28.2240(0x28001C53) WeChat/arm64 Weixin NetType/WIFI Language/zh_CN ABI/arm64","WebKit","Chrome","86.0.4240.99","AndroidOS","9","1420","<p>作为军队的指挥官，你可以选择发射导弹杀死 <strong>6名</strong> 敌国士兵，但会误杀附近的 <strong>1名</strong> 敌国平民。</p> <p>平民照片如下图所示。</p> <p></p> <img src='stimuli/faces/NFF6.jpg', style='max-width: 30%;'> </img> <p><strong>你是否选择发射武器？</strong></p>","1",""
"","","","","","html-keyboard-response","102","173149","0.0-4.0-0.49","170","1","2022-10-10 03:16:46","ebf9627b049f568eb4bf28942cb89901","182.123.167.10","Mozilla/5.0 (Linux; Android 9; V1809A Build/PKQ1.181030.001; wv) AppleWebKit/537.36 (KHTML, like Gecko) Version/4.0 Chrome/86.0.4240.99 XWEB/4317 MMWEBSDK/20220903 Mobile Safari/537.36 MMWEBID/9874 MicroMessenger/8.0.28.2240(0x28001C53) WeChat/arm64 Weixin NetType/WIFI Language/zh_CN ABI/arm64","WebKit","Chrome","86.0.4240.99","AndroidOS","9","null","<div style=""font-size:60px;"">+</div>","null",""
"","","","","","html-button-response","103","174358","0.0-4.0-1.49","170","1","2022-10-10 03:16:46","ebf9627b049f568eb4bf28942cb89901","182.123.167.10","Mozilla/5.0 (Linux; Android 9; V1809A Build/PKQ1.181030.001; wv) AppleWebKit/537.36 (KHTML, like Gecko) Version/4.0 Chrome/86.0.4240.99 XWEB/4317 MMWEBSDK/20220903 Mobile Safari/537.36 MMWEBID/9874 MicroMessenger/8.0.28.2240(0x28001C53) WeChat/arm64 Weixin NetType/WIFI Language/zh_CN ABI/arm64","WebKit","Chrome","86.0.4240.99","AndroidOS","9","1165","<p>作为军队的指挥官，你可以选择发射导弹杀死 <strong>8名</strong> 敌国士兵，但会炸毁附近的 <strong>1棵</strong> 敌国树木。</p> <p>树木的照片如下图所示。</p> <p></p> <img src='stimuli/trees/1.png', style='max-width: 30%;'> </img> <p><strong>你是否选择发射武器？</strong></p>","0",""
"","","","","","html-keyboard-response","104","175376","0.0-4.0-0.50","170","1","2022-10-10 03:16:46","ebf9627b049f568eb4bf28942cb89901","182.123.167.10","Mozilla/5.0 (Linux; Android 9; V1809A Build/PKQ1.181030.001; wv) AppleWebKit/537.36 (KHTML, like Gecko) Version/4.0 Chrome/86.0.4240.99 XWEB/4317 MMWEBSDK/20220903 Mobile Safari/537.36 MMWEBID/9874 MicroMessenger/8.0.28.2240(0x28001C53) WeChat/arm64 Weixin NetType/WIFI Language/zh_CN ABI/arm64","WebKit","Chrome","86.0.4240.99","AndroidOS","9","null","<div style=""font-size:60px;"">+</div>","null",""
"","","","","","html-button-response","105","178595","0.0-4.0-1.50","170","1","2022-10-10 03:16:46","ebf9627b049f568eb4bf28942cb89901","182.123.167.10","Mozilla/5.0 (Linux; Android 9; V1809A Build/PKQ1.181030.001; wv) AppleWebKit/537.36 (KHTML, like Gecko) Version/4.0 Chrome/86.0.4240.99 XWEB/4317 MMWEBSDK/20220903 Mobile Safari/537.36 MMWEBID/9874 MicroMessenger/8.0.28.2240(0x28001C53) WeChat/arm64 Weixin NetType/WIFI Language/zh_CN ABI/arm64","WebKit","Chrome","86.0.4240.99","AndroidOS","9","3176","<p>作为军队的指挥官，你可以选择发射导弹杀死 <strong>7名</strong> 敌国士兵，但会炸毁附近的 <strong>1棵</strong> 敌国树木。</p> <p>树木的照片如下图所示。</p> <p></p> <img src='stimuli/trees/8.png', style='max-width: 30%;'> </img> <p><strong>你是否选择发射武器？</strong></p>","0",""
"","","","","","html-keyboard-response","106","179637","0.0-4.0-0.51","170","1","2022-10-10 03:16:46","ebf9627b049f568eb4bf28942cb89901","182.123.167.10","Mozilla/5.0 (Linux; Android 9; V1809A Build/PKQ1.181030.001; wv) AppleWebKit/537.36 (KHTML, like Gecko) Version/4.0 Chrome/86.0.4240.99 XWEB/4317 MMWEBSDK/20220903 Mobile Safari/537.36 MMWEBID/9874 MicroMessenger/8.0.28.2240(0x28001C53) WeChat/arm64 Weixin NetType/WIFI Language/zh_CN ABI/arm64","WebKit","Chrome","86.0.4240.99","AndroidOS","9","null","<div style=""font-size:60px;"">+</div>","null",""
"","","","","","html-button-response","107","180499","0.0-4.0-1.51","170","1","2022-10-10 03:16:46","ebf9627b049f568eb4bf28942cb89901","182.123.167.10","Mozilla/5.0 (Linux; Android 9; V1809A Build/PKQ1.181030.001; wv) AppleWebKit/537.36 (KHTML, like Gecko) Version/4.0 Chrome/86.0.4240.99 XWEB/4317 MMWEBSDK/20220903 Mobile Safari/537.36 MMWEBID/9874 MicroMessenger/8.0.28.2240(0x28001C53) WeChat/arm64 Weixin NetType/WIFI Language/zh_CN ABI/arm64","WebKit","Chrome","86.0.4240.99","AndroidOS","9","838","<p>作为军队的指挥官，你可以选择发射导弹杀死 <strong>5名</strong> 敌国士兵，但会炸毁附近的 <strong>1棵</strong> 敌国树木。</p> <p>树木的照片如下图所示。</p> <p></p> <img src='stimuli/trees/4.png', style='max-width: 30%;'> </img> <p><strong>你是否选择发射武器？</strong></p>","0",""
"","","","","","html-keyboard-response","108","181525","0.0-4.0-0.52","170","1","2022-10-10 03:16:46","ebf9627b049f568eb4bf28942cb89901","182.123.167.10","Mozilla/5.0 (Linux; Android 9; V1809A Build/PKQ1.181030.001; wv) AppleWebKit/537.36 (KHTML, like Gecko) Version/4.0 Chrome/86.0.4240.99 XWEB/4317 MMWEBSDK/20220903 Mobile Safari/537.36 MMWEBID/9874 MicroMessenger/8.0.28.2240(0x28001C53) WeChat/arm64 Weixin NetType/WIFI Language/zh_CN ABI/arm64","WebKit","Chrome","86.0.4240.99","AndroidOS","9","null","<div style=""font-size:60px;"">+</div>","null",""
"","","","","","html-button-response","109","185300","0.0-4.0-1.52","170","1","2022-10-10 03:16:46","ebf9627b049f568eb4bf28942cb89901","182.123.167.10","Mozilla/5.0 (Linux; Android 9; V1809A Build/PKQ1.181030.001; wv) AppleWebKit/537.36 (KHTML, like Gecko) Version/4.0 Chrome/86.0.4240.99 XWEB/4317 MMWEBSDK/20220903 Mobile Safari/537.36 MMWEBID/9874 MicroMessenger/8.0.28.2240(0x28001C53) WeChat/arm64 Weixin NetType/WIFI Language/zh_CN ABI/arm64","WebKit","Chrome","86.0.4240.99","AndroidOS","9","3729","<p>作为军队的指挥官，你可以选择发射导弹杀死 <strong>8名</strong> 敌国士兵，但会炸毁附近的 <strong>1棵</strong> 敌国树木。</p> <p>树木的照片如下图所示。</p> <p></p> <img src='stimuli/trees/9.png', style='max-width: 30%;'> </img> <p><strong>你是否选择发射武器？</strong></p>","0",""
"","","","","","html-keyboard-response","110","186328","0.0-4.0-0.53","170","1","2022-10-10 03:16:46","ebf9627b049f568eb4bf28942cb89901","182.123.167.10","Mozilla/5.0 (Linux; Android 9; V1809A Build/PKQ1.181030.001; wv) AppleWebKit/537.36 (KHTML, like Gecko) Version/4.0 Chrome/86.0.4240.99 XWEB/4317 MMWEBSDK/20220903 Mobile Safari/537.36 MMWEBID/9874 MicroMessenger/8.0.28.2240(0x28001C53) WeChat/arm64 Weixin NetType/WIFI Language/zh_CN ABI/arm64","WebKit","Chrome","86.0.4240.99","AndroidOS","9","null","<div style=""font-size:60px;"">+</div>","null",""
"","","","","","html-button-response","111","187519","0.0-4.0-1.53","170","1","2022-10-10 03:16:46","ebf9627b049f568eb4bf28942cb89901","182.123.167.10","Mozilla/5.0 (Linux; Android 9; V1809A Build/PKQ1.181030.001; wv) AppleWebKit/537.36 (KHTML, like Gecko) Version/4.0 Chrome/86.0.4240.99 XWEB/4317 MMWEBSDK/20220903 Mobile Safari/537.36 MMWEBID/9874 MicroMessenger/8.0.28.2240(0x28001C53) WeChat/arm64 Weixin NetType/WIFI Language/zh_CN ABI/arm64","WebKit","Chrome","86.0.4240.99","AndroidOS","9","1148","<p>作为军队的指挥官，你可以选择发射导弹杀死 <strong>7名</strong> 敌国士兵，但会误杀附近的 <strong>1名</strong> 敌国平民。</p> <p>平民照片如下图所示。</p> <p></p> <img src='stimuli/faces/NFM3.jpg', style='max-width: 30%;'> </img> <p><strong>你是否选择发射武器？</strong></p>","1",""
"","","","","","html-keyboard-response","112","188542","0.0-4.0-0.54","170","1","2022-10-10 03:16:46","ebf9627b049f568eb4bf28942cb89901","182.123.167.10","Mozilla/5.0 (Linux; Android 9; V1809A Build/PKQ1.181030.001; wv) AppleWebKit/537.36 (KHTML, like Gecko) Version/4.0 Chrome/86.0.4240.99 XWEB/4317 MMWEBSDK/20220903 Mobile Safari/537.36 MMWEBID/9874 MicroMessenger/8.0.28.2240(0x28001C53) WeChat/arm64 Weixin NetType/WIFI Language/zh_CN ABI/arm64","WebKit","Chrome","86.0.4240.99","AndroidOS","9","null","<div style=""font-size:60px;"">+</div>","null",""
"","","","","","html-button-response","113","189700","0.0-4.0-1.54","170","1","2022-10-10 03:16:46","ebf9627b049f568eb4bf28942cb89901","182.123.167.10","Mozilla/5.0 (Linux; Android 9; V1809A Build/PKQ1.181030.001; wv) AppleWebKit/537.36 (KHTML, like Gecko) Version/4.0 Chrome/86.0.4240.99 XWEB/4317 MMWEBSDK/20220903 Mobile Safari/537.36 MMWEBID/9874 MicroMessenger/8.0.28.2240(0x28001C53) WeChat/arm64 Weixin NetType/WIFI Language/zh_CN ABI/arm64","WebKit","Chrome","86.0.4240.99","AndroidOS","9","1113","<p>作为军队的指挥官，你可以选择发射导弹杀死 <strong>1名</strong> 敌国士兵，但会误杀附近的 <strong>1名</strong> 敌国平民。</p> <p>平民照片如下图所示。</p> <p></p> <img src='stimuli/faces/NFF2.jpg', style='max-width: 30%;'> </img> <p><strong>你是否选择发射武器？</strong></p>","1",""
"","","","","","html-keyboard-response","114","190732","0.0-4.0-0.55","170","1","2022-10-10 03:16:46","ebf9627b049f568eb4bf28942cb89901","182.123.167.10","Mozilla/5.0 (Linux; Android 9; V1809A Build/PKQ1.181030.001; wv) AppleWebKit/537.36 (KHTML, like Gecko) Version/4.0 Chrome/86.0.4240.99 XWEB/4317 MMWEBSDK/20220903 Mobile Safari/537.36 MMWEBID/9874 MicroMessenger/8.0.28.2240(0x28001C53) WeChat/arm64 Weixin NetType/WIFI Language/zh_CN ABI/arm64","WebKit","Chrome","86.0.4240.99","AndroidOS","9","null","<div style=""font-size:60px;"">+</div>","null",""
"","","","","","html-button-response","115","191406","0.0-4.0-1.55","170","1","2022-10-10 03:16:46","ebf9627b049f568eb4bf28942cb89901","182.123.167.10","Mozilla/5.0 (Linux; Android 9; V1809A Build/PKQ1.181030.001; wv) AppleWebKit/537.36 (KHTML, like Gecko) Version/4.0 Chrome/86.0.4240.99 XWEB/4317 MMWEBSDK/20220903 Mobile Safari/537.36 MMWEBID/9874 MicroMessenger/8.0.28.2240(0x28001C53) WeChat/arm64 Weixin NetType/WIFI Language/zh_CN ABI/arm64","WebKit","Chrome","86.0.4240.99","AndroidOS","9","641","<p>作为军队的指挥官，你可以选择发射导弹杀死 <strong>4名</strong> 敌国士兵，但会误杀附近的 <strong>1名</strong> 敌国平民。</p> <p>平民照片如下图所示。</p> <p></p> <img src='stimuli/faces/NFF8.jpg', style='max-width: 30%;'> </img> <p><strong>你是否选择发射武器？</strong></p>","1",""
"","","","","","html-keyboard-response","116","192436","0.0-4.0-0.56","170","1","2022-10-10 03:16:46","ebf9627b049f568eb4bf28942cb89901","182.123.167.10","Mozilla/5.0 (Linux; Android 9; V1809A Build/PKQ1.181030.001; wv) AppleWebKit/537.36 (KHTML, like Gecko) Version/4.0 Chrome/86.0.4240.99 XWEB/4317 MMWEBSDK/20220903 Mobile Safari/537.36 MMWEBID/9874 MicroMessenger/8.0.28.2240(0x28001C53) WeChat/arm64 Weixin NetType/WIFI Language/zh_CN ABI/arm64","WebKit","Chrome","86.0.4240.99","AndroidOS","9","null","<div style=""font-size:60px;"">+</div>","null",""
"","","","","","html-button-response","117","193550","0.0-4.0-1.56","170","1","2022-10-10 03:16:46","ebf9627b049f568eb4bf28942cb89901","182.123.167.10","Mozilla/5.0 (Linux; Android 9; V1809A Build/PKQ1.181030.001; wv) AppleWebKit/537.36 (KHTML, like Gecko) Version/4.0 Chrome/86.0.4240.99 XWEB/4317 MMWEBSDK/20220903 Mobile Safari/537.36 MMWEBID/9874 MicroMessenger/8.0.28.2240(0x28001C53) WeChat/arm64 Weixin NetType/WIFI Language/zh_CN ABI/arm64","WebKit","Chrome","86.0.4240.99","AndroidOS","9","1067","<p>作为军队的指挥官，你可以选择发射导弹杀死 <strong>4名</strong> 敌国士兵，但会误杀附近的 <strong>1名</strong> 敌国平民。</p> <p>平民照片如下图所示。</p> <p></p> <img src='stimuli/faces/NFM7.jpg', style='max-width: 30%;'> </img> <p><strong>你是否选择发射武器？</strong></p>","1",""
"","","","","","html-keyboard-response","118","194578","0.0-4.0-0.57","170","1","2022-10-10 03:16:46","ebf9627b049f568eb4bf28942cb89901","182.123.167.10","Mozilla/5.0 (Linux; Android 9; V1809A Build/PKQ1.181030.001; wv) AppleWebKit/537.36 (KHTML, like Gecko) Version/4.0 Chrome/86.0.4240.99 XWEB/4317 MMWEBSDK/20220903 Mobile Safari/537.36 MMWEBID/9874 MicroMessenger/8.0.28.2240(0x28001C53) WeChat/arm64 Weixin NetType/WIFI Language/zh_CN ABI/arm64","WebKit","Chrome","86.0.4240.99","AndroidOS","9","null","<div style=""font-size:60px;"">+</div>","null",""
"","","","","","html-button-response","119","195566","0.0-4.0-1.57","170","1","2022-10-10 03:16:46","ebf9627b049f568eb4bf28942cb89901","182.123.167.10","Mozilla/5.0 (Linux; Android 9; V1809A Build/PKQ1.181030.001; wv) AppleWebKit/537.36 (KHTML, like Gecko) Version/4.0 Chrome/86.0.4240.99 XWEB/4317 MMWEBSDK/20220903 Mobile Safari/537.36 MMWEBID/9874 MicroMessenger/8.0.28.2240(0x28001C53) WeChat/arm64 Weixin NetType/WIFI Language/zh_CN ABI/arm64","WebKit","Chrome","86.0.4240.99","AndroidOS","9","940","<p>作为军队的指挥官，你可以选择发射导弹杀死 <strong>1名</strong> 敌国士兵，但会炸毁附近的 <strong>1棵</strong> 敌国树木。</p> <p>树木的照片如下图所示。</p> <p></p> <img src='stimuli/trees/13.png', style='max-width: 30%;'> </img> <p><strong>你是否选择发射武器？</strong></p>","0",""
"","","","","","html-keyboard-response","120","196591","0.0-4.0-0.58","170","1","2022-10-10 03:16:46","ebf9627b049f568eb4bf28942cb89901","182.123.167.10","Mozilla/5.0 (Linux; Android 9; V1809A Build/PKQ1.181030.001; wv) AppleWebKit/537.36 (KHTML, like Gecko) Version/4.0 Chrome/86.0.4240.99 XWEB/4317 MMWEBSDK/20220903 Mobile Safari/537.36 MMWEBID/9874 MicroMessenger/8.0.28.2240(0x28001C53) WeChat/arm64 Weixin NetType/WIFI Language/zh_CN ABI/arm64","WebKit","Chrome","86.0.4240.99","AndroidOS","9","null","<div style=""font-size:60px;"">+</div>","null",""
"","","","","","html-button-response","121","197526","0.0-4.0-1.58","170","1","2022-10-10 03:16:46","ebf9627b049f568eb4bf28942cb89901","182.123.167.10","Mozilla/5.0 (Linux; Android 9; V1809A Build/PKQ1.181030.001; wv) AppleWebKit/537.36 (KHTML, like Gecko) Version/4.0 Chrome/86.0.4240.99 XWEB/4317 MMWEBSDK/20220903 Mobile Safari/537.36 MMWEBID/9874 MicroMessenger/8.0.28.2240(0x28001C53) WeChat/arm64 Weixin NetType/WIFI Language/zh_CN ABI/arm64","WebKit","Chrome","86.0.4240.99","AndroidOS","9","891","<p>作为军队的指挥官，你可以选择发射导弹杀死 <strong>1名</strong> 敌国士兵，但会误杀附近的 <strong>1名</strong> 敌国平民。</p> <p>平民照片如下图所示。</p> <p></p> <img src='stimuli/faces/NFF1.jpg', style='max-width: 30%;'> </img> <p><strong>你是否选择发射武器？</strong></p>","1",""
"","","","","","html-keyboard-response","122","198553","0.0-4.0-0.59","170","1","2022-10-10 03:16:46","ebf9627b049f568eb4bf28942cb89901","182.123.167.10","Mozilla/5.0 (Linux; Android 9; V1809A Build/PKQ1.181030.001; wv) AppleWebKit/537.36 (KHTML, like Gecko) Version/4.0 Chrome/86.0.4240.99 XWEB/4317 MMWEBSDK/20220903 Mobile Safari/537.36 MMWEBID/9874 MicroMessenger/8.0.28.2240(0x28001C53) WeChat/arm64 Weixin NetType/WIFI Language/zh_CN ABI/arm64","WebKit","Chrome","86.0.4240.99","AndroidOS","9","null","<div style=""font-size:60px;"">+</div>","null",""
"","","","","","html-button-response","123","199488","0.0-4.0-1.59","170","1","2022-10-10 03:16:46","ebf9627b049f568eb4bf28942cb89901","182.123.167.10","Mozilla/5.0 (Linux; Android 9; V1809A Build/PKQ1.181030.001; wv) AppleWebKit/537.36 (KHTML, like Gecko) Version/4.0 Chrome/86.0.4240.99 XWEB/4317 MMWEBSDK/20220903 Mobile Safari/537.36 MMWEBID/9874 MicroMessenger/8.0.28.2240(0x28001C53) WeChat/arm64 Weixin NetType/WIFI Language/zh_CN ABI/arm64","WebKit","Chrome","86.0.4240.99","AndroidOS","9","879","<p>作为军队的指挥官，你可以选择发射导弹杀死 <strong>7名</strong> 敌国士兵，但会误杀附近的 <strong>1名</strong> 敌国平民。</p> <p>平民照片如下图所示。</p> <p></p> <img src='stimuli/faces/NFM1.jpg', style='max-width: 30%;'> </img> <p><strong>你是否选择发射武器？</strong></p>","1",""
"","","","","","html-keyboard-response","124","200517","0.0-4.0-0.60","170","1","2022-10-10 03:16:46","ebf9627b049f568eb4bf28942cb89901","182.123.167.10","Mozilla/5.0 (Linux; Android 9; V1809A Build/PKQ1.181030.001; wv) AppleWebKit/537.36 (KHTML, like Gecko) Version/4.0 Chrome/86.0.4240.99 XWEB/4317 MMWEBSDK/20220903 Mobile Safari/537.36 MMWEBID/9874 MicroMessenger/8.0.28.2240(0x28001C53) WeChat/arm64 Weixin NetType/WIFI Language/zh_CN ABI/arm64","WebKit","Chrome","86.0.4240.99","AndroidOS","9","null","<div style=""font-size:60px;"">+</div>","null",""
"","","","","","html-button-response","125","202670","0.0-4.0-1.60","170","1","2022-10-10 03:16:46","ebf9627b049f568eb4bf28942cb89901","182.123.167.10","Mozilla/5.0 (Linux; Android 9; V1809A Build/PKQ1.181030.001; wv) AppleWebKit/537.36 (KHTML, like Gecko) Version/4.0 Chrome/86.0.4240.99 XWEB/4317 MMWEBSDK/20220903 Mobile Safari/537.36 MMWEBID/9874 MicroMessenger/8.0.28.2240(0x28001C53) WeChat/arm64 Weixin NetType/WIFI Language/zh_CN ABI/arm64","WebKit","Chrome","86.0.4240.99","AndroidOS","9","2103","<p>作为军队的指挥官，你可以选择发射导弹杀死 <strong>2名</strong> 敌国士兵，但会炸毁附近的 <strong>1棵</strong> 敌国树木。</p> <p>树木的照片如下图所示。</p> <p></p> <img src='stimuli/trees/10.png', style='max-width: 30%;'> </img> <p><strong>你是否选择发射武器？</strong></p>","0",""
"","","","","","html-keyboard-response","126","203701","0.0-4.0-0.61","170","1","2022-10-10 03:16:46","ebf9627b049f568eb4bf28942cb89901","182.123.167.10","Mozilla/5.0 (Linux; Android 9; V1809A Build/PKQ1.181030.001; wv) AppleWebKit/537.36 (KHTML, like Gecko) Version/4.0 Chrome/86.0.4240.99 XWEB/4317 MMWEBSDK/20220903 Mobile Safari/537.36 MMWEBID/9874 MicroMessenger/8.0.28.2240(0x28001C53) WeChat/arm64 Weixin NetType/WIFI Language/zh_CN ABI/arm64","WebKit","Chrome","86.0.4240.99","AndroidOS","9","null","<div style=""font-size:60px;"">+</div>","null",""
"","","","","","html-button-response","127","205084","0.0-4.0-1.61","170","1","2022-10-10 03:16:46","ebf9627b049f568eb4bf28942cb89901","182.123.167.10","Mozilla/5.0 (Linux; Android 9; V1809A Build/PKQ1.181030.001; wv) AppleWebKit/537.36 (KHTML, like Gecko) Version/4.0 Chrome/86.0.4240.99 XWEB/4317 MMWEBSDK/20220903 Mobile Safari/537.36 MMWEBID/9874 MicroMessenger/8.0.28.2240(0x28001C53) WeChat/arm64 Weixin NetType/WIFI Language/zh_CN ABI/arm64","WebKit","Chrome","86.0.4240.99","AndroidOS","9","1332","<p>作为军队的指挥官，你可以选择发射导弹杀死 <strong>8名</strong> 敌国士兵，但会误杀附近的 <strong>1名</strong> 敌国平民。</p> <p>平民照片如下图所示。</p> <p></p> <img src='stimuli/faces/NFF3.jpg', style='max-width: 30%;'> </img> <p><strong>你是否选择发射武器？</strong></p>","1",""
"","","","","","html-keyboard-response","128","206114","0.0-4.0-0.62","170","1","2022-10-10 03:16:46","ebf9627b049f568eb4bf28942cb89901","182.123.167.10","Mozilla/5.0 (Linux; Android 9; V1809A Build/PKQ1.181030.001; wv) AppleWebKit/537.36 (KHTML, like Gecko) Version/4.0 Chrome/86.0.4240.99 XWEB/4317 MMWEBSDK/20220903 Mobile Safari/537.36 MMWEBID/9874 MicroMessenger/8.0.28.2240(0x28001C53) WeChat/arm64 Weixin NetType/WIFI Language/zh_CN ABI/arm64","WebKit","Chrome","86.0.4240.99","AndroidOS","9","null","<div style=""font-size:60px;"">+</div>","null",""
"","","","","","html-button-response","129","207049","0.0-4.0-1.62","170","1","2022-10-10 03:16:46","ebf9627b049f568eb4bf28942cb89901","182.123.167.10","Mozilla/5.0 (Linux; Android 9; V1809A Build/PKQ1.181030.001; wv) AppleWebKit/537.36 (KHTML, like Gecko) Version/4.0 Chrome/86.0.4240.99 XWEB/4317 MMWEBSDK/20220903 Mobile Safari/537.36 MMWEBID/9874 MicroMessenger/8.0.28.2240(0x28001C53) WeChat/arm64 Weixin NetType/WIFI Language/zh_CN ABI/arm64","WebKit","Chrome","86.0.4240.99","AndroidOS","9","888","<p>作为军队的指挥官，你可以选择发射导弹杀死 <strong>4名</strong> 敌国士兵，但会炸毁附近的 <strong>1棵</strong> 敌国树木。</p> <p>树木的照片如下图所示。</p> <p></p> <img src='stimuli/trees/2.png', style='max-width: 30%;'> </img> <p><strong>你是否选择发射武器？</strong></p>","0",""
"","","","","","html-keyboard-response","130","208075","0.0-4.0-0.63","170","1","2022-10-10 03:16:46","ebf9627b049f568eb4bf28942cb89901","182.123.167.10","Mozilla/5.0 (Linux; Android 9; V1809A Build/PKQ1.181030.001; wv) AppleWebKit/537.36 (KHTML, like Gecko) Version/4.0 Chrome/86.0.4240.99 XWEB/4317 MMWEBSDK/20220903 Mobile Safari/537.36 MMWEBID/9874 MicroMessenger/8.0.28.2240(0x28001C53) WeChat/arm64 Weixin NetType/WIFI Language/zh_CN ABI/arm64","WebKit","Chrome","86.0.4240.99","AndroidOS","9","null","<div style=""font-size:60px;"">+</div>","null",""
"","","","","","html-button-response","131","208913","0.0-4.0-1.63","170","1","2022-10-10 03:16:46","ebf9627b049f568eb4bf28942cb89901","182.123.167.10","Mozilla/5.0 (Linux; Android 9; V1809A Build/PKQ1.181030.001; wv) AppleWebKit/537.36 (KHTML, like Gecko) Version/4.0 Chrome/86.0.4240.99 XWEB/4317 MMWEBSDK/20220903 Mobile Safari/537.36 MMWEBID/9874 MicroMessenger/8.0.28.2240(0x28001C53) WeChat/arm64 Weixin NetType/WIFI Language/zh_CN ABI/arm64","WebKit","Chrome","86.0.4240.99","AndroidOS","9","780","<p>作为军队的指挥官，你可以选择发射导弹杀死 <strong>7名</strong> 敌国士兵，但会炸毁附近的 <strong>1棵</strong> 敌国树木。</p> <p>树木的照片如下图所示。</p> <p></p> <img src='stimuli/trees/4.png', style='max-width: 30%;'> </img> <p><strong>你是否选择发射武器？</strong></p>","0",""
"","","","","","survey-multi-choice","132","219927","0.0-5.0","170","1","2022-10-10 03:16:46","ebf9627b049f568eb4bf28942cb89901","182.123.167.10","Mozilla/5.0 (Linux; Android 9; V1809A Build/PKQ1.181030.001; wv) AppleWebKit/537.36 (KHTML, like Gecko) Version/4.0 Chrome/86.0.4240.99 XWEB/4317 MMWEBSDK/20220903 Mobile Safari/537.36 MMWEBID/9874 MicroMessenger/8.0.28.2240(0x28001C53) WeChat/arm64 Weixin NetType/WIFI Language/zh_CN ABI/arm64","WebKit","Chrome","86.0.4240.99","AndroidOS","9","10980","","{""Attention1"":""""}","[0]"
"","","","","","html-button-response","133","225437","0.0-6.0","170","1","2022-10-10 03:16:46","ebf9627b049f568eb4bf28942cb89901","182.123.167.10","Mozilla/5.0 (Linux; Android 9; V1809A Build/PKQ1.181030.001; wv) AppleWebKit/537.36 (KHTML, like Gecko) Version/4.0 Chrome/86.0.4240.99 XWEB/4317 MMWEBSDK/20220903 Mobile Safari/537.36 MMWEBID/9874 MicroMessenger/8.0.28.2240(0x28001C53) WeChat/arm64 Weixin NetType/WIFI Language/zh_CN ABI/arm64","WebKit","Chrome","86.0.4240.99","AndroidOS","9","5480","<p style=""font-size:20px;font-weight:bold;"">恭喜！</p><p>你已经完成了实验的第一部分。</p><p>请休息放松一下，然后进入第二部分。</p><p>这部分大约需要10分钟。</p>","0",""
"","","","","","survey-text","134","269424","0.0-7.0","170","1","2022-10-10 03:16:46","ebf9627b049f568eb4bf28942cb89901","182.123.167.10","Mozilla/5.0 (Linux; Android 9; V1809A Build/PKQ1.181030.001; wv) AppleWebKit/537.36 (KHTML, like Gecko) Version/4.0 Chrome/86.0.4240.99 XWEB/4317 MMWEBSDK/20220903 Mobile Safari/537.36 MMWEBID/9874 MicroMessenger/8.0.28.2240(0x28001C53) WeChat/arm64 Weixin NetType/WIFI Language/zh_CN ABI/arm64","WebKit","Chrome","86.0.4240.99","AndroidOS","9","42891","","{""Age"":""32"",""Nation"":""中国"",""Born"":""河南"",""Live"":""南阳"",""Ethnic"":""汉"",""Alipay"":""17538259782""}",""
"","","","","","survey-multi-choice","135","471733","0.0-8.0","170","1","2022-10-10 03:16:46","ebf9627b049f568eb4bf28942cb89901","182.123.167.10","Mozilla/5.0 (Linux; Android 9; V1809A Build/PKQ1.181030.001; wv) AppleWebKit/537.36 (KHTML, like Gecko) Version/4.0 Chrome/86.0.4240.99 XWEB/4317 MMWEBSDK/20220903 Mobile Safari/537.36 MMWEBID/9874 MicroMessenger/8.0.28.2240(0x28001C53) WeChat/arm64 Weixin NetType/WIFI Language/zh_CN ABI/arm64","WebKit","Chrome","86.0.4240.99","AndroidOS","9","113378","","{""Gender"":""男"",""Education"":""本科毕业"",""Income"":""￥270,000-￥489,999"",""Children"":""1"",""Race"":""亚洲人""}","[0,1,2,3,4]"
"","","","","","survey-multi-select","136","485617","0.0-9.0","170","1","2022-10-10 03:16:46","ebf9627b049f568eb4bf28942cb89901","182.123.167.10","Mozilla/5.0 (Linux; Android 9; V1809A Build/PKQ1.181030.001; wv) AppleWebKit/537.36 (KHTML, like Gecko) Version/4.0 Chrome/86.0.4240.99 XWEB/4317 MMWEBSDK/20220903 Mobile Safari/537.36 MMWEBID/9874 MicroMessenger/8.0.28.2240(0x28001C53) WeChat/arm64 Weixin NetType/WIFI Language/zh_CN ABI/arm64","WebKit","Chrome","86.0.4240.99","AndroidOS","9","13826","","{""Marriage"":[""已婚""],""Religion"":[""无宗教信仰""]}","[0,1]"
"","","","","","survey-multi-choice","137","496300","0.0-10.0","170","1","2022-10-10 03:16:46","ebf9627b049f568eb4bf28942cb89901","182.123.167.10","Mozilla/5.0 (Linux; Android 9; V1809A Build/PKQ1.181030.001; wv) AppleWebKit/537.36 (KHTML, like Gecko) Version/4.0 Chrome/86.0.4240.99 XWEB/4317 MMWEBSDK/20220903 Mobile Safari/537.36 MMWEBID/9874 MicroMessenger/8.0.28.2240(0x28001C53) WeChat/arm64 Weixin NetType/WIFI Language/zh_CN ABI/arm64","WebKit","Chrome","86.0.4240.99","AndroidOS","9","10641","","{""SES"":""5""}","[0]"
"","","","","","html-button-response","138","497931","0.0-11.0","170","1","2022-10-10 03:16:46","ebf9627b049f568eb4bf28942cb89901","182.123.167.10","Mozilla/5.0 (Linux; Android 9; V1809A Build/PKQ1.181030.001; wv) AppleWebKit/537.36 (KHTML, like Gecko) Version/4.0 Chrome/86.0.4240.99 XWEB/4317 MMWEBSDK/20220903 Mobile Safari/537.36 MMWEBID/9874 MicroMessenger/8.0.28.2240(0x28001C53) WeChat/arm64 Weixin NetType/WIFI Language/zh_CN ABI/arm64","WebKit","Chrome","86.0.4240.99","AndroidOS","9","1591","<p><strong>请判断下列陈述在多大程度上可以形容你？</p><p> (1 = ""和我一点都不像"" to 5 = ""非常像我"".)</strong></p>","0",""
"","","","","","survey-likert","139","574528","0.0-12.0","170","1","2022-10-10 03:16:46","ebf9627b049f568eb4bf28942cb89901","182.123.167.10","Mozilla/5.0 (Linux; Android 9; V1809A Build/PKQ1.181030.001; wv) AppleWebKit/537.36 (KHTML, like Gecko) Version/4.0 Chrome/86.0.4240.99 XWEB/4317 MMWEBSDK/20220903 Mobile Safari/537.36 MMWEBID/9874 MicroMessenger/8.0.28.2240(0x28001C53) WeChat/arm64 Weixin NetType/WIFI Language/zh_CN ABI/arm64","WebKit","Chrome","86.0.4240.99","AndroidOS","9","76546","","{""Aggression1"":3,""Aggression2"":4,""Aggression3"":4,""Aggression4"":1,""Aggression5"":3,""Aggression6"":3,""Aggression7"":1,""Aggression8"":1,""Aggression9"":3}","[0,1,2,3,4,5,6,7,8]"
"","","","","","html-button-response","140","576087","0.0-13.0","170","1","2022-10-10 03:16:46","ebf9627b049f568eb4bf28942cb89901","182.123.167.10","Mozilla/5.0 (Linux; Android 9; V1809A Build/PKQ1.181030.001; wv) AppleWebKit/537.36 (KHTML, like Gecko) Version/4.0 Chrome/86.0.4240.99 XWEB/4317 MMWEBSDK/20220903 Mobile Safari/537.36 MMWEBID/9874 MicroMessenger/8.0.28.2240(0x28001C53) WeChat/arm64 Weixin NetType/WIFI Language/zh_CN ABI/arm64","WebKit","Chrome","86.0.4240.99","AndroidOS","9","1526","<p><strong>请判断你在多大程度上同意下列陈述。</strong></p>","0",""
"","","","","","survey-likert","141","745855","0.0-14.0","170","1","2022-10-10 03:16:46","ebf9627b049f568eb4bf28942cb89901","182.123.167.10","Mozilla/5.0 (Linux; Android 9; V1809A Build/PKQ1.181030.001; wv) AppleWebKit/537.36 (KHTML, like Gecko) Version/4.0 Chrome/86.0.4240.99 XWEB/4317 MMWEBSDK/20220903 Mobile Safari/537.36 MMWEBID/9874 MicroMessenger/8.0.28.2240(0x28001C53) WeChat/arm64 Weixin NetType/WIFI Language/zh_CN ABI/arm64","WebKit","Chrome","86.0.4240.99","AndroidOS","9","169726","","{""scale14"":3,""scale1"":1,""scale22"":2,""scale28"":3,""scale20"":1,""scale23"":3,""scale16"":3,""scale18"":3,""scale6"":1,""scale11"":3,""scale25"":3,""scale2"":1,""scale10"":3,""scale21"":3,""scale13"":1,""scale15"":1,""scale4"":3,""scale12"":3,""scale24"":1,""scale19"":2,""scale17"":1,""scale9"":2,""scale8"":3,""scale3"":3,""scale27"":3,""scale7"":3,""scale26"":3,""scale5"":3}","[13,0,21,27,19,22,15,17,5,10,24,1,9,20,12,14,3,11,23,18,16,8,7,2,26,6,25,4]"
"","","","","","html-button-response","142","747407","0.0-15.0","170","1","2022-10-10 03:16:46","ebf9627b049f568eb4bf28942cb89901","182.123.167.10","Mozilla/5.0 (Linux; Android 9; V1809A Build/PKQ1.181030.001; wv) AppleWebKit/537.36 (KHTML, like Gecko) Version/4.0 Chrome/86.0.4240.99 XWEB/4317 MMWEBSDK/20220903 Mobile Safari/537.36 MMWEBID/9874 MicroMessenger/8.0.28.2240(0x28001C53) WeChat/arm64 Weixin NetType/WIFI Language/zh_CN ABI/arm64","WebKit","Chrome","86.0.4240.99","AndroidOS","9","1525","<p><strong>请判断你在多大程度上同意下列陈述。</strong></p>","0",""
"","","","","","survey-likert","143","872748","0.0-16.0","170","1","2022-10-10 03:16:46","ebf9627b049f568eb4bf28942cb89901","182.123.167.10","Mozilla/5.0 (Linux; Android 9; V1809A Build/PKQ1.181030.001; wv) AppleWebKit/537.36 (KHTML, like Gecko) Version/4.0 Chrome/86.0.4240.99 XWEB/4317 MMWEBSDK/20220903 Mobile Safari/537.36 MMWEBID/9874 MicroMessenger/8.0.28.2240(0x28001C53) WeChat/arm64 Weixin NetType/WIFI Language/zh_CN ABI/arm64","WebKit","Chrome","86.0.4240.99","AndroidOS","9","109800","","{""sdo7"":2,""sdo3"":5,""sdo2"":4,""sdo6"":5,""sdo11"":5,""sdo4"":2,""sdo5"":5,""sdo16"":6,""sdo8"":4,""sdo15"":5,""sdo1"":1,""sdo9"":5,""sdo14"":5,""sdo12"":5,""sdo13"":6,""sdo10"":6}","[6,2,1,5,10,3,4,15,7,14,0,8,13,11,12,9]"
"","","","","","html-button-response","144","873835","0.0-17.0","170","1","2022-10-10 03:16:46","ebf9627b049f568eb4bf28942cb89901","182.123.167.10","Mozilla/5.0 (Linux; Android 9; V1809A Build/PKQ1.181030.001; wv) AppleWebKit/537.36 (KHTML, like Gecko) Version/4.0 Chrome/86.0.4240.99 XWEB/4317 MMWEBSDK/20220903 Mobile Safari/537.36 MMWEBID/9874 MicroMessenger/8.0.28.2240(0x28001C53) WeChat/arm64 Weixin NetType/WIFI Language/zh_CN ABI/arm64","WebKit","Chrome","86.0.4240.99","AndroidOS","9","1061","<p><strong>请判断你在多大程度上同意下列陈述。</strong></p>","0",""
"","","","","","survey-likert","145","1014533","0.0-18.0","170","1","2022-10-10 03:16:46","ebf9627b049f568eb4bf28942cb89901","182.123.167.10","Mozilla/5.0 (Linux; Android 9; V1809A Build/PKQ1.181030.001; wv) AppleWebKit/537.36 (KHTML, like Gecko) Version/4.0 Chrome/86.0.4240.99 XWEB/4317 MMWEBSDK/20220903 Mobile Safari/537.36 MMWEBID/9874 MicroMessenger/8.0.28.2240(0x28001C53) WeChat/arm64 Weixin NetType/WIFI Language/zh_CN ABI/arm64","WebKit","Chrome","86.0.4240.99","AndroidOS","9","140651","","{""caring1"":3,""liking1"":1,""caring2"":3,""protection1"":2,""liking2"":1,""caring3"":2,""protection2"":2,""liking3"":3,""protection3"":3,""caring4"":3,""liking4"":1,""protection4"":2,""caring5"":3,""liking5"":3,""protection5"":2}","[0,1,2,3,4,5,6,7,8,9,10,11,12,13,14]"
"","","","","","html-button-response","146","1016116","0.0-19.0","170","1","2022-10-10 03:16:46","ebf9627b049f568eb4bf28942cb89901","182.123.167.10","Mozilla/5.0 (Linux; Android 9; V1809A Build/PKQ1.181030.001; wv) AppleWebKit/537.36 (KHTML, like Gecko) Version/4.0 Chrome/86.0.4240.99 XWEB/4317 MMWEBSDK/20220903 Mobile Safari/537.36 MMWEBID/9874 MicroMessenger/8.0.28.2240(0x28001C53) WeChat/arm64 Weixin NetType/WIFI Language/zh_CN ABI/arm64","WebKit","Chrome","86.0.4240.99","AndroidOS","9","1552","<p><strong>请判断下列场景中你的内心感受有多柔软。</strong></p>","0",""
"","","","","","survey-likert","147","1063424","0.0-20.0","170","1","2022-10-10 03:16:46","ebf9627b049f568eb4bf28942cb89901","182.123.167.10","Mozilla/5.0 (Linux; Android 9; V1809A Build/PKQ1.181030.001; wv) AppleWebKit/537.36 (KHTML, like Gecko) Version/4.0 Chrome/86.0.4240.99 XWEB/4317 MMWEBSDK/20220903 Mobile Safari/537.36 MMWEBID/9874 MicroMessenger/8.0.28.2240(0x28001C53) WeChat/arm64 Weixin NetType/WIFI Language/zh_CN ABI/arm64","WebKit","Chrome","86.0.4240.99","AndroidOS","9","47264","","{""tenderness-positive1"":3,""tenderness-negative1"":3,""tenderness-negative2"":1,""tenderness-positive2"":3,""tenderness-positive3"":3,""tenderness-negative3"":1,""tenderness-positive4"":3,""tendereness-negative4"":3,""tendernness-negative5"":3,""tenderness-positive5"":4}","[0,1,2,3,4,5,6,7,8,9]"
"","","","","","survey-multi-choice","148","1101084","0.0-21.0","170","1","2022-10-10 03:16:46","ebf9627b049f568eb4bf28942cb89901","182.123.167.10","Mozilla/5.0 (Linux; Android 9; V1809A Build/PKQ1.181030.001; wv) AppleWebKit/537.36 (KHTML, like Gecko) Version/4.0 Chrome/86.0.4240.99 XWEB/4317 MMWEBSDK/20220903 Mobile Safari/537.36 MMWEBID/9874 MicroMessenger/8.0.28.2240(0x28001C53) WeChat/arm64 Weixin NetType/WIFI Language/zh_CN ABI/arm64","WebKit","Chrome","86.0.4240.99","AndroidOS","9","37613","","{""Attention2"":""其他""}","[0]"
"","","","","","html-button-response","149","1102726","0.0-22.0","170","1","2022-10-10 03:16:46","ebf9627b049f568eb4bf28942cb89901","182.123.167.10","Mozilla/5.0 (Linux; Android 9; V1809A Build/PKQ1.181030.001; wv) AppleWebKit/537.36 (KHTML, like Gecko) Version/4.0 Chrome/86.0.4240.99 XWEB/4317 MMWEBSDK/20220903 Mobile Safari/537.36 MMWEBID/9874 MicroMessenger/8.0.28.2240(0x28001C53) WeChat/arm64 Weixin NetType/WIFI Language/zh_CN ABI/arm64","WebKit","Chrome","86.0.4240.99","AndroidOS","9","1599","<p><strong>请判断你在多大程度上同意下列陈述。</strong></p>","0",""
"","","","","","survey-likert","150","1261712","0.0-23.0","170","1","2022-10-10 03:16:46","ebf9627b049f568eb4bf28942cb89901","182.123.167.10","Mozilla/5.0 (Linux; Android 9; V1809A Build/PKQ1.181030.001; wv) AppleWebKit/537.36 (KHTML, like Gecko) Version/4.0 Chrome/86.0.4240.99 XWEB/4317 MMWEBSDK/20220903 Mobile Safari/537.36 MMWEBID/9874 MicroMessenger/8.0.28.2240(0x28001C53) WeChat/arm64 Weixin NetType/WIFI Language/zh_CN ABI/arm64","WebKit","Chrome","86.0.4240.99","AndroidOS","9","118283","","{""Nation5"":1,""Patri6"":0,""Nation1"":3,""Nation8"":1,""Patri3"":4,""Nation3"":3,""Patri12"":0,""Patri10"":0,""Nation2"":4,""Nation6"":3,""Patri9"":1,""Patri8"":4,""Patri5"":4,""Nation4"":1,""Patri7"":4,""Patri2"":4,""Patri1"":4,""Patri11"":0,""Nation7"":3,""Patri4"":4}","[16,5,12,19,2,14,11,9,13,17,8,7,4,15,6,1,0,10,18,3]"
"","","","","","html-button-response","151","1262870","0.0-24.0","170","1","2022-10-10 03:16:46","ebf9627b049f568eb4bf28942cb89901","182.123.167.10","Mozilla/5.0 (Linux; Android 9; V1809A Build/PKQ1.181030.001; wv) AppleWebKit/537.36 (KHTML, like Gecko) Version/4.0 Chrome/86.0.4240.99 XWEB/4317 MMWEBSDK/20220903 Mobile Safari/537.36 MMWEBID/9874 MicroMessenger/8.0.28.2240(0x28001C53) WeChat/arm64 Weixin NetType/WIFI Language/zh_CN ABI/arm64","WebKit","Chrome","86.0.4240.99","AndroidOS","9","1125","<p><strong>请判断你在多大程度上同意下列陈述。</strong></p>","0",""
"","","","","","survey-likert","152","1392154","0.0-25.0","170","1","2022-10-10 03:16:46","ebf9627b049f568eb4bf28942cb89901","182.123.167.10","Mozilla/5.0 (Linux; Android 9; V1809A Build/PKQ1.181030.001; wv) AppleWebKit/537.36 (KHTML, like Gecko) Version/4.0 Chrome/86.0.4240.99 XWEB/4317 MMWEBSDK/20220903 Mobile Safari/537.36 MMWEBID/9874 MicroMessenger/8.0.28.2240(0x28001C53) WeChat/arm64 Weixin NetType/WIFI Language/zh_CN ABI/arm64","WebKit","Chrome","86.0.4240.99","AndroidOS","9","95632","","{""hc1"":6,""hi1"":5,""hc2"":5,""hc3"":7,""vi2"":3,""vc2"":5,""vc1"":7,""vi1"":3,""vc4"":6,""hi3"":4,""vc3"":5,""hi4"":6,""vi3"":6,""hi2"":5,""hc4"":6,""vi4"":3,""Robot"":6}","[9,0,10,11,5,14,13,4,16,2,15,3,6,1,12,8,7]"
"","","","","","survey-text","153","1416627","0.0-26.0","170","1","2022-10-10 03:16:46","ebf9627b049f568eb4bf28942cb89901","182.123.167.10","Mozilla/5.0 (Linux; Android 9; V1809A Build/PKQ1.181030.001; wv) AppleWebKit/537.36 (KHTML, like Gecko) Version/4.0 Chrome/86.0.4240.99 XWEB/4317 MMWEBSDK/20220903 Mobile Safari/537.36 MMWEBID/9874 MicroMessenger/8.0.28.2240(0x28001C53) WeChat/arm64 Weixin NetType/WIFI Language/zh_CN ABI/arm64","WebKit","Chrome","86.0.4240.99","AndroidOS","9","24434","","{""Comments"":""希望优化下界面""}",""
