"success","timeout","failed_images","failed_audio","failed_video","trial_type","trial_index","time_elapsed","internal_node_id","run_id","condition","recorded_at","source_code_version","ip","user_agent","device","browser","browser_version","platform","platform_version","rt","stimulus","response","question_order"
"true","false","[]","[]","[]","preload","0","2777","0.0-0.0","184","1","2022-10-10 07:10:44","ebf9627b049f568eb4bf28942cb89901","218.85.191.130","Mozilla/5.0 (Windows NT 6.1; Win64; x64) AppleWebKit/537.36 (KHTML, like Gecko) Chrome/100.0.4896.60 Safari/537.36","WebKit","Chrome","100.0.4896.60","Windows","6.1","","","",""
"true","","","","","fullscreen","1","4932","0.0-1.0","184","1","2022-10-10 07:10:44","ebf9627b049f568eb4bf28942cb89901","218.85.191.130","Mozilla/5.0 (Windows NT 6.1; Win64; x64) AppleWebKit/537.36 (KHTML, like Gecko) Chrome/100.0.4896.60 Safari/537.36","WebKit","Chrome","100.0.4896.60","Windows","6.1","","","",""
"","","","","","html-button-response","2","9594","0.0-2.0","184","1","2022-10-10 07:10:44","ebf9627b049f568eb4bf28942cb89901","218.85.191.130","Mozilla/5.0 (Windows NT 6.1; Win64; x64) AppleWebKit/537.36 (KHTML, like Gecko) Chrome/100.0.4896.60 Safari/537.36","WebKit","Chrome","100.0.4896.60","Windows","6.1","4659","<p style=""font-size:20px;font-weight:bold;"">实验知情同意书</p><p style=""text-align:left;""><strong>实验名称：</strong>社会冲突研究</p><p style=""text-align:left;""><strong>主要研究者：</strong>韩晓春副教授（北京师范大学心理学部）</p><p style=""text-align:left;""><strong>联系方式：</strong>发送邮件至xiaochun.han@bnu.edu.cn</p><p style=""text-align:left;""><strong>研究目的：</strong>研究旨在了解人类面对群体冲突时的决策方式，以及相关的心理学特质。实验调查大约需要20分钟。</p><p style=""text-align:left;""><strong>实验流程：</strong>实验包含两部分。第一部分呈现一系列群体冲突场景，请你决定如何对这些冲突进行反应，大约需要10分钟完成。第二部分包含一系列人口统计学信息收集和心理学问卷，大约需要10分钟完成。</p><p style=""text-align:left;""><strong>参加及退出规则：</strong>参加本实验完全取决于您的个人意愿。在参与过程中，您可以随时退出，并且不用承担任何后果。</p><p style=""text-align:left;""><strong>隐私：</strong>本实验完全匿名进行，不会收集您的姓名或其他能够识别您身份的信息。实验中收集的作答仅用作科学研究使用，可能会在学术期刊/书籍上发表，或者用于教学，您的数据未来可能会和其他研究者或实验室分享，但您的个人身份不会被识别。</p><p style=""text-align:left;""><strong>实验报酬：</strong>实验完成后，您将获得15元人民币报酬，以感谢您的时间和努力。调查问卷中包含几道题目用以测验您作答时的认真度。只有完成全部实验，并且正确回答认真度测验的被试才能获得实验报酬。实验报酬将通过支付宝转账发放。</p><p style=""text-align:left;font-size:20px;""><strong>如果您同意以上实验知情同意书的内容，请点击'同意并且开始实验'按钮；否则请关闭浏览器界面，退出实验。</strong></p>","0",""
"","","","","","html-button-response","3","10577","0.0-3.0","184","1","2022-10-10 07:10:44","ebf9627b049f568eb4bf28942cb89901","218.85.191.130","Mozilla/5.0 (Windows NT 6.1; Win64; x64) AppleWebKit/537.36 (KHTML, like Gecko) Chrome/100.0.4896.60 Safari/537.36","WebKit","Chrome","100.0.4896.60","Windows","6.1","979","<p ><strong>实验任务一：</strong></p><p>请想象你的国家与另一个国家发生了军事冲突。</p><p>你是国家军队的指挥官，你将如何在冲突中进行决策。</p><p>具体来说，作为军队指挥官，请你决定是否发射导弹进行打击。</p><p>接下来，你会面对一系列场景，请仔细阅读每个场景，然后进行决策。</p><p>这部分实验任务大约需要10分钟。</p><p><strong>实验过程中，请集中注意力。</strong></p>","0",""
"","","","","","html-keyboard-response","4","11580","0.0-4.0-0.0","184","1","2022-10-10 07:10:44","ebf9627b049f568eb4bf28942cb89901","218.85.191.130","Mozilla/5.0 (Windows NT 6.1; Win64; x64) AppleWebKit/537.36 (KHTML, like Gecko) Chrome/100.0.4896.60 Safari/537.36","WebKit","Chrome","100.0.4896.60","Windows","6.1","null","<div style=""font-size:60px;"">+</div>","null",""
"","","","","","html-button-response","5","12515","0.0-4.0-1.0","184","1","2022-10-10 07:10:44","ebf9627b049f568eb4bf28942cb89901","218.85.191.130","Mozilla/5.0 (Windows NT 6.1; Win64; x64) AppleWebKit/537.36 (KHTML, like Gecko) Chrome/100.0.4896.60 Safari/537.36","WebKit","Chrome","100.0.4896.60","Windows","6.1","931","<p>作为军队的指挥官，你可以选择发射导弹杀死 <strong>6名</strong> 敌国士兵，但会误杀附近的 <strong>1名</strong> 敌国平民。</p> <p>平民照片如下图所示。</p> <p></p> <img src='stimuli/faces/NFM7.jpg', style='max-width: 30%;'> </img> <p><strong>你是否选择发射武器？</strong></p>","1",""
"","","","","","html-keyboard-response","6","13519","0.0-4.0-0.1","184","1","2022-10-10 07:10:44","ebf9627b049f568eb4bf28942cb89901","218.85.191.130","Mozilla/5.0 (Windows NT 6.1; Win64; x64) AppleWebKit/537.36 (KHTML, like Gecko) Chrome/100.0.4896.60 Safari/537.36","WebKit","Chrome","100.0.4896.60","Windows","6.1","null","<div style=""font-size:60px;"">+</div>","null",""
"","","","","","html-button-response","7","14138","0.0-4.0-1.1","184","1","2022-10-10 07:10:44","ebf9627b049f568eb4bf28942cb89901","218.85.191.130","Mozilla/5.0 (Windows NT 6.1; Win64; x64) AppleWebKit/537.36 (KHTML, like Gecko) Chrome/100.0.4896.60 Safari/537.36","WebKit","Chrome","100.0.4896.60","Windows","6.1","615","<p>作为军队的指挥官，你可以选择发射导弹杀死 <strong>5名</strong> 敌国士兵，但会误杀附近的 <strong>1名</strong> 敌国平民。</p> <p>平民照片如下图所示。</p> <p></p> <img src='stimuli/faces/NFM3.jpg', style='max-width: 30%;'> </img> <p><strong>你是否选择发射武器？</strong></p>","1",""
"","","","","","html-keyboard-response","8","15142","0.0-4.0-0.2","184","1","2022-10-10 07:10:44","ebf9627b049f568eb4bf28942cb89901","218.85.191.130","Mozilla/5.0 (Windows NT 6.1; Win64; x64) AppleWebKit/537.36 (KHTML, like Gecko) Chrome/100.0.4896.60 Safari/537.36","WebKit","Chrome","100.0.4896.60","Windows","6.1","null","<div style=""font-size:60px;"">+</div>","null",""
"","","","","","html-button-response","9","16049","0.0-4.0-1.2","184","1","2022-10-10 07:10:44","ebf9627b049f568eb4bf28942cb89901","218.85.191.130","Mozilla/5.0 (Windows NT 6.1; Win64; x64) AppleWebKit/537.36 (KHTML, like Gecko) Chrome/100.0.4896.60 Safari/537.36","WebKit","Chrome","100.0.4896.60","Windows","6.1","904","<p>作为军队的指挥官，你可以选择发射导弹杀死 <strong>3名</strong> 敌国士兵，但会炸毁附近的 <strong>1棵</strong> 敌国树木。</p> <p>树木的照片如下图所示。</p> <p></p> <img src='stimuli/trees/11.png', style='max-width: 30%;'> </img> <p><strong>你是否选择发射武器？</strong></p>","0",""
"","","","","","html-keyboard-response","10","17052","0.0-4.0-0.3","184","1","2022-10-10 07:10:44","ebf9627b049f568eb4bf28942cb89901","218.85.191.130","Mozilla/5.0 (Windows NT 6.1; Win64; x64) AppleWebKit/537.36 (KHTML, like Gecko) Chrome/100.0.4896.60 Safari/537.36","WebKit","Chrome","100.0.4896.60","Windows","6.1","null","<div style=""font-size:60px;"">+</div>","null",""
"","","","","","html-button-response","11","17553","0.0-4.0-1.3","184","1","2022-10-10 07:10:44","ebf9627b049f568eb4bf28942cb89901","218.85.191.130","Mozilla/5.0 (Windows NT 6.1; Win64; x64) AppleWebKit/537.36 (KHTML, like Gecko) Chrome/100.0.4896.60 Safari/537.36","WebKit","Chrome","100.0.4896.60","Windows","6.1","497","<p>作为军队的指挥官，你可以选择发射导弹杀死 <strong>3名</strong> 敌国士兵，但会误杀附近的 <strong>1名</strong> 敌国平民。</p> <p>平民照片如下图所示。</p> <p></p> <img src='stimuli/faces/NFF5.jpg', style='max-width: 30%;'> </img> <p><strong>你是否选择发射武器？</strong></p>","1",""
"","","","","","html-keyboard-response","12","18557","0.0-4.0-0.4","184","1","2022-10-10 07:10:44","ebf9627b049f568eb4bf28942cb89901","218.85.191.130","Mozilla/5.0 (Windows NT 6.1; Win64; x64) AppleWebKit/537.36 (KHTML, like Gecko) Chrome/100.0.4896.60 Safari/537.36","WebKit","Chrome","100.0.4896.60","Windows","6.1","null","<div style=""font-size:60px;"">+</div>","null",""
"","","","","","html-button-response","13","18913","0.0-4.0-1.4","184","1","2022-10-10 07:10:44","ebf9627b049f568eb4bf28942cb89901","218.85.191.130","Mozilla/5.0 (Windows NT 6.1; Win64; x64) AppleWebKit/537.36 (KHTML, like Gecko) Chrome/100.0.4896.60 Safari/537.36","WebKit","Chrome","100.0.4896.60","Windows","6.1","353","<p>作为军队的指挥官，你可以选择发射导弹杀死 <strong>1名</strong> 敌国士兵，但会炸毁附近的 <strong>1棵</strong> 敌国树木。</p> <p>树木的照片如下图所示。</p> <p></p> <img src='stimuli/trees/3.png', style='max-width: 30%;'> </img> <p><strong>你是否选择发射武器？</strong></p>","1",""
"","","","","","html-keyboard-response","14","19917","0.0-4.0-0.5","184","1","2022-10-10 07:10:44","ebf9627b049f568eb4bf28942cb89901","218.85.191.130","Mozilla/5.0 (Windows NT 6.1; Win64; x64) AppleWebKit/537.36 (KHTML, like Gecko) Chrome/100.0.4896.60 Safari/537.36","WebKit","Chrome","100.0.4896.60","Windows","6.1","null","<div style=""font-size:60px;"">+</div>","null",""
"","","","","","html-button-response","15","20297","0.0-4.0-1.5","184","1","2022-10-10 07:10:44","ebf9627b049f568eb4bf28942cb89901","218.85.191.130","Mozilla/5.0 (Windows NT 6.1; Win64; x64) AppleWebKit/537.36 (KHTML, like Gecko) Chrome/100.0.4896.60 Safari/537.36","WebKit","Chrome","100.0.4896.60","Windows","6.1","376","<p>作为军队的指挥官，你可以选择发射导弹杀死 <strong>2名</strong> 敌国士兵，但会误杀附近的 <strong>1名</strong> 敌国平民。</p> <p>平民照片如下图所示。</p> <p></p> <img src='stimuli/faces/NFF2.jpg', style='max-width: 30%;'> </img> <p><strong>你是否选择发射武器？</strong></p>","1",""
"","","","","","html-keyboard-response","16","21300","0.0-4.0-0.6","184","1","2022-10-10 07:10:44","ebf9627b049f568eb4bf28942cb89901","218.85.191.130","Mozilla/5.0 (Windows NT 6.1; Win64; x64) AppleWebKit/537.36 (KHTML, like Gecko) Chrome/100.0.4896.60 Safari/537.36","WebKit","Chrome","100.0.4896.60","Windows","6.1","null","<div style=""font-size:60px;"">+</div>","null",""
"","","","","","html-button-response","17","22089","0.0-4.0-1.6","184","1","2022-10-10 07:10:44","ebf9627b049f568eb4bf28942cb89901","218.85.191.130","Mozilla/5.0 (Windows NT 6.1; Win64; x64) AppleWebKit/537.36 (KHTML, like Gecko) Chrome/100.0.4896.60 Safari/537.36","WebKit","Chrome","100.0.4896.60","Windows","6.1","785","<p>作为军队的指挥官，你可以选择发射导弹杀死 <strong>7名</strong> 敌国士兵，但会炸毁附近的 <strong>1棵</strong> 敌国树木。</p> <p>树木的照片如下图所示。</p> <p></p> <img src='stimuli/trees/9.png', style='max-width: 30%;'> </img> <p><strong>你是否选择发射武器？</strong></p>","0",""
"","","","","","html-keyboard-response","18","23093","0.0-4.0-0.7","184","1","2022-10-10 07:10:44","ebf9627b049f568eb4bf28942cb89901","218.85.191.130","Mozilla/5.0 (Windows NT 6.1; Win64; x64) AppleWebKit/537.36 (KHTML, like Gecko) Chrome/100.0.4896.60 Safari/537.36","WebKit","Chrome","100.0.4896.60","Windows","6.1","null","<div style=""font-size:60px;"">+</div>","null",""
"","","","","","html-button-response","19","23506","0.0-4.0-1.7","184","1","2022-10-10 07:10:44","ebf9627b049f568eb4bf28942cb89901","218.85.191.130","Mozilla/5.0 (Windows NT 6.1; Win64; x64) AppleWebKit/537.36 (KHTML, like Gecko) Chrome/100.0.4896.60 Safari/537.36","WebKit","Chrome","100.0.4896.60","Windows","6.1","410","<p>作为军队的指挥官，你可以选择发射导弹杀死 <strong>5名</strong> 敌国士兵，但会炸毁附近的 <strong>1棵</strong> 敌国树木。</p> <p>树木的照片如下图所示。</p> <p></p> <img src='stimuli/trees/5.png', style='max-width: 30%;'> </img> <p><strong>你是否选择发射武器？</strong></p>","1",""
"","","","","","html-keyboard-response","20","24509","0.0-4.0-0.8","184","1","2022-10-10 07:10:44","ebf9627b049f568eb4bf28942cb89901","218.85.191.130","Mozilla/5.0 (Windows NT 6.1; Win64; x64) AppleWebKit/537.36 (KHTML, like Gecko) Chrome/100.0.4896.60 Safari/537.36","WebKit","Chrome","100.0.4896.60","Windows","6.1","null","<div style=""font-size:60px;"">+</div>","null",""
"","","","","","html-button-response","21","24841","0.0-4.0-1.8","184","1","2022-10-10 07:10:44","ebf9627b049f568eb4bf28942cb89901","218.85.191.130","Mozilla/5.0 (Windows NT 6.1; Win64; x64) AppleWebKit/537.36 (KHTML, like Gecko) Chrome/100.0.4896.60 Safari/537.36","WebKit","Chrome","100.0.4896.60","Windows","6.1","330","<p>作为军队的指挥官，你可以选择发射导弹杀死 <strong>6名</strong> 敌国士兵，但会误杀附近的 <strong>1名</strong> 敌国平民。</p> <p>平民照片如下图所示。</p> <p></p> <img src='stimuli/faces/NFM2.jpg', style='max-width: 30%;'> </img> <p><strong>你是否选择发射武器？</strong></p>","1",""
"","","","","","html-keyboard-response","22","25844","0.0-4.0-0.9","184","1","2022-10-10 07:10:44","ebf9627b049f568eb4bf28942cb89901","218.85.191.130","Mozilla/5.0 (Windows NT 6.1; Win64; x64) AppleWebKit/537.36 (KHTML, like Gecko) Chrome/100.0.4896.60 Safari/537.36","WebKit","Chrome","100.0.4896.60","Windows","6.1","null","<div style=""font-size:60px;"">+</div>","null",""
"","","","","","html-button-response","23","26073","0.0-4.0-1.9","184","1","2022-10-10 07:10:44","ebf9627b049f568eb4bf28942cb89901","218.85.191.130","Mozilla/5.0 (Windows NT 6.1; Win64; x64) AppleWebKit/537.36 (KHTML, like Gecko) Chrome/100.0.4896.60 Safari/537.36","WebKit","Chrome","100.0.4896.60","Windows","6.1","226","<p>作为军队的指挥官，你可以选择发射导弹杀死 <strong>6名</strong> 敌国士兵，但会误杀附近的 <strong>1名</strong> 敌国平民。</p> <p>平民照片如下图所示。</p> <p></p> <img src='stimuli/faces/NFM1.jpg', style='max-width: 30%;'> </img> <p><strong>你是否选择发射武器？</strong></p>","1",""
"","","","","","html-keyboard-response","24","27077","0.0-4.0-0.10","184","1","2022-10-10 07:10:44","ebf9627b049f568eb4bf28942cb89901","218.85.191.130","Mozilla/5.0 (Windows NT 6.1; Win64; x64) AppleWebKit/537.36 (KHTML, like Gecko) Chrome/100.0.4896.60 Safari/537.36","WebKit","Chrome","100.0.4896.60","Windows","6.1","null","<div style=""font-size:60px;"">+</div>","null",""
"","","","","","html-button-response","25","27305","0.0-4.0-1.10","184","1","2022-10-10 07:10:44","ebf9627b049f568eb4bf28942cb89901","218.85.191.130","Mozilla/5.0 (Windows NT 6.1; Win64; x64) AppleWebKit/537.36 (KHTML, like Gecko) Chrome/100.0.4896.60 Safari/537.36","WebKit","Chrome","100.0.4896.60","Windows","6.1","224","<p>作为军队的指挥官，你可以选择发射导弹杀死 <strong>3名</strong> 敌国士兵，但会误杀附近的 <strong>1名</strong> 敌国平民。</p> <p>平民照片如下图所示。</p> <p></p> <img src='stimuli/faces/NFM6.jpg', style='max-width: 30%;'> </img> <p><strong>你是否选择发射武器？</strong></p>","1",""
"","","","","","html-keyboard-response","26","28309","0.0-4.0-0.11","184","1","2022-10-10 07:10:44","ebf9627b049f568eb4bf28942cb89901","218.85.191.130","Mozilla/5.0 (Windows NT 6.1; Win64; x64) AppleWebKit/537.36 (KHTML, like Gecko) Chrome/100.0.4896.60 Safari/537.36","WebKit","Chrome","100.0.4896.60","Windows","6.1","null","<div style=""font-size:60px;"">+</div>","null",""
"","","","","","html-button-response","27","28817","0.0-4.0-1.11","184","1","2022-10-10 07:10:44","ebf9627b049f568eb4bf28942cb89901","218.85.191.130","Mozilla/5.0 (Windows NT 6.1; Win64; x64) AppleWebKit/537.36 (KHTML, like Gecko) Chrome/100.0.4896.60 Safari/537.36","WebKit","Chrome","100.0.4896.60","Windows","6.1","504","<p>作为军队的指挥官，你可以选择发射导弹杀死 <strong>8名</strong> 敌国士兵，但会误杀附近的 <strong>1名</strong> 敌国平民。</p> <p>平民照片如下图所示。</p> <p></p> <img src='stimuli/faces/NFM4.jpg', style='max-width: 30%;'> </img> <p><strong>你是否选择发射武器？</strong></p>","1",""
"","","","","","html-keyboard-response","28","29820","0.0-4.0-0.12","184","1","2022-10-10 07:10:44","ebf9627b049f568eb4bf28942cb89901","218.85.191.130","Mozilla/5.0 (Windows NT 6.1; Win64; x64) AppleWebKit/537.36 (KHTML, like Gecko) Chrome/100.0.4896.60 Safari/537.36","WebKit","Chrome","100.0.4896.60","Windows","6.1","null","<div style=""font-size:60px;"">+</div>","null",""
"","","","","","html-button-response","29","30209","0.0-4.0-1.12","184","1","2022-10-10 07:10:44","ebf9627b049f568eb4bf28942cb89901","218.85.191.130","Mozilla/5.0 (Windows NT 6.1; Win64; x64) AppleWebKit/537.36 (KHTML, like Gecko) Chrome/100.0.4896.60 Safari/537.36","WebKit","Chrome","100.0.4896.60","Windows","6.1","383","<p>作为军队的指挥官，你可以选择发射导弹杀死 <strong>1名</strong> 敌国士兵，但会误杀附近的 <strong>1名</strong> 敌国平民。</p> <p>平民照片如下图所示。</p> <p></p> <img src='stimuli/faces/NFF7.jpg', style='max-width: 30%;'> </img> <p><strong>你是否选择发射武器？</strong></p>","1",""
"","","","","","html-keyboard-response","30","31213","0.0-4.0-0.13","184","1","2022-10-10 07:10:44","ebf9627b049f568eb4bf28942cb89901","218.85.191.130","Mozilla/5.0 (Windows NT 6.1; Win64; x64) AppleWebKit/537.36 (KHTML, like Gecko) Chrome/100.0.4896.60 Safari/537.36","WebKit","Chrome","100.0.4896.60","Windows","6.1","null","<div style=""font-size:60px;"">+</div>","null",""
"","","","","","html-button-response","31","31641","0.0-4.0-1.13","184","1","2022-10-10 07:10:44","ebf9627b049f568eb4bf28942cb89901","218.85.191.130","Mozilla/5.0 (Windows NT 6.1; Win64; x64) AppleWebKit/537.36 (KHTML, like Gecko) Chrome/100.0.4896.60 Safari/537.36","WebKit","Chrome","100.0.4896.60","Windows","6.1","424","<p>作为军队的指挥官，你可以选择发射导弹杀死 <strong>1名</strong> 敌国士兵，但会炸毁附近的 <strong>1棵</strong> 敌国树木。</p> <p>树木的照片如下图所示。</p> <p></p> <img src='stimuli/trees/8.png', style='max-width: 30%;'> </img> <p><strong>你是否选择发射武器？</strong></p>","1",""
"","","","","","html-keyboard-response","32","32645","0.0-4.0-0.14","184","1","2022-10-10 07:10:44","ebf9627b049f568eb4bf28942cb89901","218.85.191.130","Mozilla/5.0 (Windows NT 6.1; Win64; x64) AppleWebKit/537.36 (KHTML, like Gecko) Chrome/100.0.4896.60 Safari/537.36","WebKit","Chrome","100.0.4896.60","Windows","6.1","null","<div style=""font-size:60px;"">+</div>","null",""
"","","","","","html-button-response","33","33513","0.0-4.0-1.14","184","1","2022-10-10 07:10:44","ebf9627b049f568eb4bf28942cb89901","218.85.191.130","Mozilla/5.0 (Windows NT 6.1; Win64; x64) AppleWebKit/537.36 (KHTML, like Gecko) Chrome/100.0.4896.60 Safari/537.36","WebKit","Chrome","100.0.4896.60","Windows","6.1","864","<p>作为军队的指挥官，你可以选择发射导弹杀死 <strong>3名</strong> 敌国士兵，但会炸毁附近的 <strong>1棵</strong> 敌国树木。</p> <p>树木的照片如下图所示。</p> <p></p> <img src='stimuli/trees/12.png', style='max-width: 30%;'> </img> <p><strong>你是否选择发射武器？</strong></p>","0",""
"","","","","","html-keyboard-response","34","34518","0.0-4.0-0.15","184","1","2022-10-10 07:10:44","ebf9627b049f568eb4bf28942cb89901","218.85.191.130","Mozilla/5.0 (Windows NT 6.1; Win64; x64) AppleWebKit/537.36 (KHTML, like Gecko) Chrome/100.0.4896.60 Safari/537.36","WebKit","Chrome","100.0.4896.60","Windows","6.1","null","<div style=""font-size:60px;"">+</div>","null",""
"","","","","","html-button-response","35","35041","0.0-4.0-1.15","184","1","2022-10-10 07:10:44","ebf9627b049f568eb4bf28942cb89901","218.85.191.130","Mozilla/5.0 (Windows NT 6.1; Win64; x64) AppleWebKit/537.36 (KHTML, like Gecko) Chrome/100.0.4896.60 Safari/537.36","WebKit","Chrome","100.0.4896.60","Windows","6.1","517","<p>作为军队的指挥官，你可以选择发射导弹杀死 <strong>2名</strong> 敌国士兵，但会炸毁附近的 <strong>1棵</strong> 敌国树木。</p> <p>树木的照片如下图所示。</p> <p></p> <img src='stimuli/trees/2.png', style='max-width: 30%;'> </img> <p><strong>你是否选择发射武器？</strong></p>","1",""
"","","","","","html-keyboard-response","36","36045","0.0-4.0-0.16","184","1","2022-10-10 07:10:44","ebf9627b049f568eb4bf28942cb89901","218.85.191.130","Mozilla/5.0 (Windows NT 6.1; Win64; x64) AppleWebKit/537.36 (KHTML, like Gecko) Chrome/100.0.4896.60 Safari/537.36","WebKit","Chrome","100.0.4896.60","Windows","6.1","null","<div style=""font-size:60px;"">+</div>","null",""
"","","","","","html-button-response","37","36552","0.0-4.0-1.16","184","1","2022-10-10 07:10:44","ebf9627b049f568eb4bf28942cb89901","218.85.191.130","Mozilla/5.0 (Windows NT 6.1; Win64; x64) AppleWebKit/537.36 (KHTML, like Gecko) Chrome/100.0.4896.60 Safari/537.36","WebKit","Chrome","100.0.4896.60","Windows","6.1","503","<p>作为军队的指挥官，你可以选择发射导弹杀死 <strong>2名</strong> 敌国士兵，但会误杀附近的 <strong>1名</strong> 敌国平民。</p> <p>平民照片如下图所示。</p> <p></p> <img src='stimuli/faces/NFF1.jpg', style='max-width: 30%;'> </img> <p><strong>你是否选择发射武器？</strong></p>","1",""
"","","","","","html-keyboard-response","38","37558","0.0-4.0-0.17","184","1","2022-10-10 07:10:44","ebf9627b049f568eb4bf28942cb89901","218.85.191.130","Mozilla/5.0 (Windows NT 6.1; Win64; x64) AppleWebKit/537.36 (KHTML, like Gecko) Chrome/100.0.4896.60 Safari/537.36","WebKit","Chrome","100.0.4896.60","Windows","6.1","null","<div style=""font-size:60px;"">+</div>","null",""
"","","","","","html-button-response","39","37872","0.0-4.0-1.17","184","1","2022-10-10 07:10:44","ebf9627b049f568eb4bf28942cb89901","218.85.191.130","Mozilla/5.0 (Windows NT 6.1; Win64; x64) AppleWebKit/537.36 (KHTML, like Gecko) Chrome/100.0.4896.60 Safari/537.36","WebKit","Chrome","100.0.4896.60","Windows","6.1","310","<p>作为军队的指挥官，你可以选择发射导弹杀死 <strong>3名</strong> 敌国士兵，但会误杀附近的 <strong>1名</strong> 敌国平民。</p> <p>平民照片如下图所示。</p> <p></p> <img src='stimuli/faces/NFM5.jpg', style='max-width: 30%;'> </img> <p><strong>你是否选择发射武器？</strong></p>","1",""
"","","","","","html-keyboard-response","40","38877","0.0-4.0-0.18","184","1","2022-10-10 07:10:44","ebf9627b049f568eb4bf28942cb89901","218.85.191.130","Mozilla/5.0 (Windows NT 6.1; Win64; x64) AppleWebKit/537.36 (KHTML, like Gecko) Chrome/100.0.4896.60 Safari/537.36","WebKit","Chrome","100.0.4896.60","Windows","6.1","null","<div style=""font-size:60px;"">+</div>","null",""
"","","","","","html-button-response","41","39328","0.0-4.0-1.18","184","1","2022-10-10 07:10:44","ebf9627b049f568eb4bf28942cb89901","218.85.191.130","Mozilla/5.0 (Windows NT 6.1; Win64; x64) AppleWebKit/537.36 (KHTML, like Gecko) Chrome/100.0.4896.60 Safari/537.36","WebKit","Chrome","100.0.4896.60","Windows","6.1","447","<p>作为军队的指挥官，你可以选择发射导弹杀死 <strong>6名</strong> 敌国士兵，但会炸毁附近的 <strong>1棵</strong> 敌国树木。</p> <p>树木的照片如下图所示。</p> <p></p> <img src='stimuli/trees/6.png', style='max-width: 30%;'> </img> <p><strong>你是否选择发射武器？</strong></p>","1",""
"","","","","","html-keyboard-response","42","40334","0.0-4.0-0.19","184","1","2022-10-10 07:10:44","ebf9627b049f568eb4bf28942cb89901","218.85.191.130","Mozilla/5.0 (Windows NT 6.1; Win64; x64) AppleWebKit/537.36 (KHTML, like Gecko) Chrome/100.0.4896.60 Safari/537.36","WebKit","Chrome","100.0.4896.60","Windows","6.1","null","<div style=""font-size:60px;"">+</div>","null",""
"","","","","","html-button-response","43","40736","0.0-4.0-1.19","184","1","2022-10-10 07:10:44","ebf9627b049f568eb4bf28942cb89901","218.85.191.130","Mozilla/5.0 (Windows NT 6.1; Win64; x64) AppleWebKit/537.36 (KHTML, like Gecko) Chrome/100.0.4896.60 Safari/537.36","WebKit","Chrome","100.0.4896.60","Windows","6.1","398","<p>作为军队的指挥官，你可以选择发射导弹杀死 <strong>5名</strong> 敌国士兵，但会误杀附近的 <strong>1名</strong> 敌国平民。</p> <p>平民照片如下图所示。</p> <p></p> <img src='stimuli/faces/NFF3.jpg', style='max-width: 30%;'> </img> <p><strong>你是否选择发射武器？</strong></p>","1",""
"","","","","","html-keyboard-response","44","41741","0.0-4.0-0.20","184","1","2022-10-10 07:10:44","ebf9627b049f568eb4bf28942cb89901","218.85.191.130","Mozilla/5.0 (Windows NT 6.1; Win64; x64) AppleWebKit/537.36 (KHTML, like Gecko) Chrome/100.0.4896.60 Safari/537.36","WebKit","Chrome","100.0.4896.60","Windows","6.1","null","<div style=""font-size:60px;"">+</div>","null",""
"","","","","","html-button-response","45","44016","0.0-4.0-1.20","184","1","2022-10-10 07:10:44","ebf9627b049f568eb4bf28942cb89901","218.85.191.130","Mozilla/5.0 (Windows NT 6.1; Win64; x64) AppleWebKit/537.36 (KHTML, like Gecko) Chrome/100.0.4896.60 Safari/537.36","WebKit","Chrome","100.0.4896.60","Windows","6.1","2270","<p>作为军队的指挥官，你可以选择发射导弹杀死 <strong>8名</strong> 敌国士兵，但会误杀附近的 <strong>1名</strong> 敌国平民。</p> <p>平民照片如下图所示。</p> <p></p> <img src='stimuli/faces/NFM8.jpg', style='max-width: 30%;'> </img> <p><strong>你是否选择发射武器？</strong></p>","1",""
"","","","","","html-keyboard-response","46","45023","0.0-4.0-0.21","184","1","2022-10-10 07:10:44","ebf9627b049f568eb4bf28942cb89901","218.85.191.130","Mozilla/5.0 (Windows NT 6.1; Win64; x64) AppleWebKit/537.36 (KHTML, like Gecko) Chrome/100.0.4896.60 Safari/537.36","WebKit","Chrome","100.0.4896.60","Windows","6.1","null","<div style=""font-size:60px;"">+</div>","null",""
"","","","","","html-button-response","47","46482","0.0-4.0-1.21","184","1","2022-10-10 07:10:44","ebf9627b049f568eb4bf28942cb89901","218.85.191.130","Mozilla/5.0 (Windows NT 6.1; Win64; x64) AppleWebKit/537.36 (KHTML, like Gecko) Chrome/100.0.4896.60 Safari/537.36","WebKit","Chrome","100.0.4896.60","Windows","6.1","1453","<p>作为军队的指挥官，你可以选择发射导弹杀死 <strong>2名</strong> 敌国士兵，但会炸毁附近的 <strong>1棵</strong> 敌国树木。</p> <p>树木的照片如下图所示。</p> <p></p> <img src='stimuli/trees/4.png', style='max-width: 30%;'> </img> <p><strong>你是否选择发射武器？</strong></p>","0",""
"","","","","","html-keyboard-response","48","47488","0.0-4.0-0.22","184","1","2022-10-10 07:10:44","ebf9627b049f568eb4bf28942cb89901","218.85.191.130","Mozilla/5.0 (Windows NT 6.1; Win64; x64) AppleWebKit/537.36 (KHTML, like Gecko) Chrome/100.0.4896.60 Safari/537.36","WebKit","Chrome","100.0.4896.60","Windows","6.1","null","<div style=""font-size:60px;"">+</div>","null",""
"","","","","","html-button-response","49","48186","0.0-4.0-1.22","184","1","2022-10-10 07:10:44","ebf9627b049f568eb4bf28942cb89901","218.85.191.130","Mozilla/5.0 (Windows NT 6.1; Win64; x64) AppleWebKit/537.36 (KHTML, like Gecko) Chrome/100.0.4896.60 Safari/537.36","WebKit","Chrome","100.0.4896.60","Windows","6.1","693","<p>作为军队的指挥官，你可以选择发射导弹杀死 <strong>6名</strong> 敌国士兵，但会误杀附近的 <strong>1名</strong> 敌国平民。</p> <p>平民照片如下图所示。</p> <p></p> <img src='stimuli/faces/NFF2.jpg', style='max-width: 30%;'> </img> <p><strong>你是否选择发射武器？</strong></p>","1",""
"","","","","","html-keyboard-response","50","49193","0.0-4.0-0.23","184","1","2022-10-10 07:10:44","ebf9627b049f568eb4bf28942cb89901","218.85.191.130","Mozilla/5.0 (Windows NT 6.1; Win64; x64) AppleWebKit/537.36 (KHTML, like Gecko) Chrome/100.0.4896.60 Safari/537.36","WebKit","Chrome","100.0.4896.60","Windows","6.1","null","<div style=""font-size:60px;"">+</div>","null",""
"","","","","","html-button-response","51","50200","0.0-4.0-1.23","184","1","2022-10-10 07:10:44","ebf9627b049f568eb4bf28942cb89901","218.85.191.130","Mozilla/5.0 (Windows NT 6.1; Win64; x64) AppleWebKit/537.36 (KHTML, like Gecko) Chrome/100.0.4896.60 Safari/537.36","WebKit","Chrome","100.0.4896.60","Windows","6.1","1005","<p>作为军队的指挥官，你可以选择发射导弹杀死 <strong>10名</strong> 敌国士兵，但会炸毁附近的 <strong>1棵</strong> 敌国树木。</p> <p>树木的照片如下图所示。</p> <p></p> <img src='stimuli/trees/14.png', style='max-width: 30%;'> </img> <p><strong>你是否选择发射武器？</strong></p>","1",""
"","","","","","html-keyboard-response","52","51206","0.0-4.0-0.24","184","1","2022-10-10 07:10:44","ebf9627b049f568eb4bf28942cb89901","218.85.191.130","Mozilla/5.0 (Windows NT 6.1; Win64; x64) AppleWebKit/537.36 (KHTML, like Gecko) Chrome/100.0.4896.60 Safari/537.36","WebKit","Chrome","100.0.4896.60","Windows","6.1","null","<div style=""font-size:60px;"">+</div>","null",""
"","","","","","html-button-response","53","51696","0.0-4.0-1.24","184","1","2022-10-10 07:10:44","ebf9627b049f568eb4bf28942cb89901","218.85.191.130","Mozilla/5.0 (Windows NT 6.1; Win64; x64) AppleWebKit/537.36 (KHTML, like Gecko) Chrome/100.0.4896.60 Safari/537.36","WebKit","Chrome","100.0.4896.60","Windows","6.1","485","<p>作为军队的指挥官，你可以选择发射导弹杀死 <strong>3名</strong> 敌国士兵，但会炸毁附近的 <strong>1棵</strong> 敌国树木。</p> <p>树木的照片如下图所示。</p> <p></p> <img src='stimuli/trees/9.png', style='max-width: 30%;'> </img> <p><strong>你是否选择发射武器？</strong></p>","1",""
"","","","","","html-keyboard-response","54","52702","0.0-4.0-0.25","184","1","2022-10-10 07:10:44","ebf9627b049f568eb4bf28942cb89901","218.85.191.130","Mozilla/5.0 (Windows NT 6.1; Win64; x64) AppleWebKit/537.36 (KHTML, like Gecko) Chrome/100.0.4896.60 Safari/537.36","WebKit","Chrome","100.0.4896.60","Windows","6.1","null","<div style=""font-size:60px;"">+</div>","null",""
"","","","","","html-button-response","55","53330","0.0-4.0-1.25","184","1","2022-10-10 07:10:44","ebf9627b049f568eb4bf28942cb89901","218.85.191.130","Mozilla/5.0 (Windows NT 6.1; Win64; x64) AppleWebKit/537.36 (KHTML, like Gecko) Chrome/100.0.4896.60 Safari/537.36","WebKit","Chrome","100.0.4896.60","Windows","6.1","622","<p>作为军队的指挥官，你可以选择发射导弹杀死 <strong>1名</strong> 敌国士兵，但会误杀附近的 <strong>1名</strong> 敌国平民。</p> <p>平民照片如下图所示。</p> <p></p> <img src='stimuli/faces/NFM8.jpg', style='max-width: 30%;'> </img> <p><strong>你是否选择发射武器？</strong></p>","1",""
"","","","","","html-keyboard-response","56","54335","0.0-4.0-0.26","184","1","2022-10-10 07:10:44","ebf9627b049f568eb4bf28942cb89901","218.85.191.130","Mozilla/5.0 (Windows NT 6.1; Win64; x64) AppleWebKit/537.36 (KHTML, like Gecko) Chrome/100.0.4896.60 Safari/537.36","WebKit","Chrome","100.0.4896.60","Windows","6.1","null","<div style=""font-size:60px;"">+</div>","null",""
"","","","","","html-button-response","57","54921","0.0-4.0-1.26","184","1","2022-10-10 07:10:44","ebf9627b049f568eb4bf28942cb89901","218.85.191.130","Mozilla/5.0 (Windows NT 6.1; Win64; x64) AppleWebKit/537.36 (KHTML, like Gecko) Chrome/100.0.4896.60 Safari/537.36","WebKit","Chrome","100.0.4896.60","Windows","6.1","579","<p>作为军队的指挥官，你可以选择发射导弹杀死 <strong>9名</strong> 敌国士兵，但会炸毁附近的 <strong>1棵</strong> 敌国树木。</p> <p>树木的照片如下图所示。</p> <p></p> <img src='stimuli/trees/4.png', style='max-width: 30%;'> </img> <p><strong>你是否选择发射武器？</strong></p>","1",""
"","","","","","html-keyboard-response","58","55926","0.0-4.0-0.27","184","1","2022-10-10 07:10:44","ebf9627b049f568eb4bf28942cb89901","218.85.191.130","Mozilla/5.0 (Windows NT 6.1; Win64; x64) AppleWebKit/537.36 (KHTML, like Gecko) Chrome/100.0.4896.60 Safari/537.36","WebKit","Chrome","100.0.4896.60","Windows","6.1","null","<div style=""font-size:60px;"">+</div>","null",""
"","","","","","html-button-response","59","56873","0.0-4.0-1.27","184","1","2022-10-10 07:10:44","ebf9627b049f568eb4bf28942cb89901","218.85.191.130","Mozilla/5.0 (Windows NT 6.1; Win64; x64) AppleWebKit/537.36 (KHTML, like Gecko) Chrome/100.0.4896.60 Safari/537.36","WebKit","Chrome","100.0.4896.60","Windows","6.1","941","<p>作为军队的指挥官，你可以选择发射导弹杀死 <strong>8名</strong> 敌国士兵，但会炸毁附近的 <strong>1棵</strong> 敌国树木。</p> <p>树木的照片如下图所示。</p> <p></p> <img src='stimuli/trees/13.png', style='max-width: 30%;'> </img> <p><strong>你是否选择发射武器？</strong></p>","0",""
"","","","","","html-keyboard-response","60","57879","0.0-4.0-0.28","184","1","2022-10-10 07:10:44","ebf9627b049f568eb4bf28942cb89901","218.85.191.130","Mozilla/5.0 (Windows NT 6.1; Win64; x64) AppleWebKit/537.36 (KHTML, like Gecko) Chrome/100.0.4896.60 Safari/537.36","WebKit","Chrome","100.0.4896.60","Windows","6.1","null","<div style=""font-size:60px;"">+</div>","null",""
"","","","","","html-button-response","61","58506","0.0-4.0-1.28","184","1","2022-10-10 07:10:44","ebf9627b049f568eb4bf28942cb89901","218.85.191.130","Mozilla/5.0 (Windows NT 6.1; Win64; x64) AppleWebKit/537.36 (KHTML, like Gecko) Chrome/100.0.4896.60 Safari/537.36","WebKit","Chrome","100.0.4896.60","Windows","6.1","622","<p>作为军队的指挥官，你可以选择发射导弹杀死 <strong>8名</strong> 敌国士兵，但会误杀附近的 <strong>1名</strong> 敌国平民。</p> <p>平民照片如下图所示。</p> <p></p> <img src='stimuli/faces/NFM6.jpg', style='max-width: 30%;'> </img> <p><strong>你是否选择发射武器？</strong></p>","1",""
"","","","","","html-keyboard-response","62","59513","0.0-4.0-0.29","184","1","2022-10-10 07:10:44","ebf9627b049f568eb4bf28942cb89901","218.85.191.130","Mozilla/5.0 (Windows NT 6.1; Win64; x64) AppleWebKit/537.36 (KHTML, like Gecko) Chrome/100.0.4896.60 Safari/537.36","WebKit","Chrome","100.0.4896.60","Windows","6.1","null","<div style=""font-size:60px;"">+</div>","null",""
"","","","","","html-button-response","63","59809","0.0-4.0-1.29","184","1","2022-10-10 07:10:44","ebf9627b049f568eb4bf28942cb89901","218.85.191.130","Mozilla/5.0 (Windows NT 6.1; Win64; x64) AppleWebKit/537.36 (KHTML, like Gecko) Chrome/100.0.4896.60 Safari/537.36","WebKit","Chrome","100.0.4896.60","Windows","6.1","291","<p>作为军队的指挥官，你可以选择发射导弹杀死 <strong>10名</strong> 敌国士兵，但会误杀附近的 <strong>1名</strong> 敌国平民。</p> <p>平民照片如下图所示。</p> <p></p> <img src='stimuli/faces/NFF5.jpg', style='max-width: 30%;'> </img> <p><strong>你是否选择发射武器？</strong></p>","1",""
"","","","","","html-keyboard-response","64","60815","0.0-4.0-0.30","184","1","2022-10-10 07:10:44","ebf9627b049f568eb4bf28942cb89901","218.85.191.130","Mozilla/5.0 (Windows NT 6.1; Win64; x64) AppleWebKit/537.36 (KHTML, like Gecko) Chrome/100.0.4896.60 Safari/537.36","WebKit","Chrome","100.0.4896.60","Windows","6.1","null","<div style=""font-size:60px;"">+</div>","null",""
"","","","","","html-button-response","65","61170","0.0-4.0-1.30","184","1","2022-10-10 07:10:44","ebf9627b049f568eb4bf28942cb89901","218.85.191.130","Mozilla/5.0 (Windows NT 6.1; Win64; x64) AppleWebKit/537.36 (KHTML, like Gecko) Chrome/100.0.4896.60 Safari/537.36","WebKit","Chrome","100.0.4896.60","Windows","6.1","349","<p>作为军队的指挥官，你可以选择发射导弹杀死 <strong>4名</strong> 敌国士兵，但会炸毁附近的 <strong>1棵</strong> 敌国树木。</p> <p>树木的照片如下图所示。</p> <p></p> <img src='stimuli/trees/1.png', style='max-width: 30%;'> </img> <p><strong>你是否选择发射武器？</strong></p>","1",""
"","","","","","html-keyboard-response","66","62177","0.0-4.0-0.31","184","1","2022-10-10 07:10:44","ebf9627b049f568eb4bf28942cb89901","218.85.191.130","Mozilla/5.0 (Windows NT 6.1; Win64; x64) AppleWebKit/537.36 (KHTML, like Gecko) Chrome/100.0.4896.60 Safari/537.36","WebKit","Chrome","100.0.4896.60","Windows","6.1","null","<div style=""font-size:60px;"">+</div>","null",""
"","","","","","html-button-response","67","62641","0.0-4.0-1.31","184","1","2022-10-10 07:10:44","ebf9627b049f568eb4bf28942cb89901","218.85.191.130","Mozilla/5.0 (Windows NT 6.1; Win64; x64) AppleWebKit/537.36 (KHTML, like Gecko) Chrome/100.0.4896.60 Safari/537.36","WebKit","Chrome","100.0.4896.60","Windows","6.1","458","<p>作为军队的指挥官，你可以选择发射导弹杀死 <strong>9名</strong> 敌国士兵，但会炸毁附近的 <strong>1棵</strong> 敌国树木。</p> <p>树木的照片如下图所示。</p> <p></p> <img src='stimuli/trees/11.png', style='max-width: 30%;'> </img> <p><strong>你是否选择发射武器？</strong></p>","1",""
"","","","","","html-keyboard-response","68","63648","0.0-4.0-0.32","184","1","2022-10-10 07:10:44","ebf9627b049f568eb4bf28942cb89901","218.85.191.130","Mozilla/5.0 (Windows NT 6.1; Win64; x64) AppleWebKit/537.36 (KHTML, like Gecko) Chrome/100.0.4896.60 Safari/537.36","WebKit","Chrome","100.0.4896.60","Windows","6.1","null","<div style=""font-size:60px;"">+</div>","null",""
"","","","","","html-button-response","69","64227","0.0-4.0-1.32","184","1","2022-10-10 07:10:44","ebf9627b049f568eb4bf28942cb89901","218.85.191.130","Mozilla/5.0 (Windows NT 6.1; Win64; x64) AppleWebKit/537.36 (KHTML, like Gecko) Chrome/100.0.4896.60 Safari/537.36","WebKit","Chrome","100.0.4896.60","Windows","6.1","574","<p>作为军队的指挥官，你可以选择发射导弹杀死 <strong>7名</strong> 敌国士兵，但会炸毁附近的 <strong>1棵</strong> 敌国树木。</p> <p>树木的照片如下图所示。</p> <p></p> <img src='stimuli/trees/3.png', style='max-width: 30%;'> </img> <p><strong>你是否选择发射武器？</strong></p>","1",""
"","","","","","html-keyboard-response","70","65232","0.0-4.0-0.33","184","1","2022-10-10 07:10:44","ebf9627b049f568eb4bf28942cb89901","218.85.191.130","Mozilla/5.0 (Windows NT 6.1; Win64; x64) AppleWebKit/537.36 (KHTML, like Gecko) Chrome/100.0.4896.60 Safari/537.36","WebKit","Chrome","100.0.4896.60","Windows","6.1","null","<div style=""font-size:60px;"">+</div>","null",""
"","","","","","html-button-response","71","65697","0.0-4.0-1.33","184","1","2022-10-10 07:10:44","ebf9627b049f568eb4bf28942cb89901","218.85.191.130","Mozilla/5.0 (Windows NT 6.1; Win64; x64) AppleWebKit/537.36 (KHTML, like Gecko) Chrome/100.0.4896.60 Safari/537.36","WebKit","Chrome","100.0.4896.60","Windows","6.1","460","<p>作为军队的指挥官，你可以选择发射导弹杀死 <strong>1名</strong> 敌国士兵，但会炸毁附近的 <strong>1棵</strong> 敌国树木。</p> <p>树木的照片如下图所示。</p> <p></p> <img src='stimuli/trees/15.png', style='max-width: 30%;'> </img> <p><strong>你是否选择发射武器？</strong></p>","1",""
"","","","","","html-keyboard-response","72","66704","0.0-4.0-0.34","184","1","2022-10-10 07:10:44","ebf9627b049f568eb4bf28942cb89901","218.85.191.130","Mozilla/5.0 (Windows NT 6.1; Win64; x64) AppleWebKit/537.36 (KHTML, like Gecko) Chrome/100.0.4896.60 Safari/537.36","WebKit","Chrome","100.0.4896.60","Windows","6.1","null","<div style=""font-size:60px;"">+</div>","null",""
"","","","","","html-button-response","73","68403","0.0-4.0-1.34","184","1","2022-10-10 07:10:44","ebf9627b049f568eb4bf28942cb89901","218.85.191.130","Mozilla/5.0 (Windows NT 6.1; Win64; x64) AppleWebKit/537.36 (KHTML, like Gecko) Chrome/100.0.4896.60 Safari/537.36","WebKit","Chrome","100.0.4896.60","Windows","6.1","1692","<p>作为军队的指挥官，你可以选择发射导弹杀死 <strong>1名</strong> 敌国士兵，但会炸毁附近的 <strong>1棵</strong> 敌国树木。</p> <p>树木的照片如下图所示。</p> <p></p> <img src='stimuli/trees/6.png', style='max-width: 30%;'> </img> <p><strong>你是否选择发射武器？</strong></p>","0",""
"","","","","","html-keyboard-response","74","69412","0.0-4.0-0.35","184","1","2022-10-10 07:10:44","ebf9627b049f568eb4bf28942cb89901","218.85.191.130","Mozilla/5.0 (Windows NT 6.1; Win64; x64) AppleWebKit/537.36 (KHTML, like Gecko) Chrome/100.0.4896.60 Safari/537.36","WebKit","Chrome","100.0.4896.60","Windows","6.1","null","<div style=""font-size:60px;"">+</div>","null",""
"","","","","","html-button-response","75","69985","0.0-4.0-1.35","184","1","2022-10-10 07:10:44","ebf9627b049f568eb4bf28942cb89901","218.85.191.130","Mozilla/5.0 (Windows NT 6.1; Win64; x64) AppleWebKit/537.36 (KHTML, like Gecko) Chrome/100.0.4896.60 Safari/537.36","WebKit","Chrome","100.0.4896.60","Windows","6.1","566","<p>作为军队的指挥官，你可以选择发射导弹杀死 <strong>6名</strong> 敌国士兵，但会误杀附近的 <strong>1名</strong> 敌国平民。</p> <p>平民照片如下图所示。</p> <p></p> <img src='stimuli/faces/NFF6.jpg', style='max-width: 30%;'> </img> <p><strong>你是否选择发射武器？</strong></p>","1",""
"","","","","","html-keyboard-response","76","70992","0.0-4.0-0.36","184","1","2022-10-10 07:10:44","ebf9627b049f568eb4bf28942cb89901","218.85.191.130","Mozilla/5.0 (Windows NT 6.1; Win64; x64) AppleWebKit/537.36 (KHTML, like Gecko) Chrome/100.0.4896.60 Safari/537.36","WebKit","Chrome","100.0.4896.60","Windows","6.1","null","<div style=""font-size:60px;"">+</div>","null",""
"","","","","","html-button-response","77","71457","0.0-4.0-1.36","184","1","2022-10-10 07:10:44","ebf9627b049f568eb4bf28942cb89901","218.85.191.130","Mozilla/5.0 (Windows NT 6.1; Win64; x64) AppleWebKit/537.36 (KHTML, like Gecko) Chrome/100.0.4896.60 Safari/537.36","WebKit","Chrome","100.0.4896.60","Windows","6.1","459","<p>作为军队的指挥官，你可以选择发射导弹杀死 <strong>4名</strong> 敌国士兵，但会误杀附近的 <strong>1名</strong> 敌国平民。</p> <p>平民照片如下图所示。</p> <p></p> <img src='stimuli/faces/NFF8.jpg', style='max-width: 30%;'> </img> <p><strong>你是否选择发射武器？</strong></p>","1",""
"","","","","","html-keyboard-response","78","72463","0.0-4.0-0.37","184","1","2022-10-10 07:10:44","ebf9627b049f568eb4bf28942cb89901","218.85.191.130","Mozilla/5.0 (Windows NT 6.1; Win64; x64) AppleWebKit/537.36 (KHTML, like Gecko) Chrome/100.0.4896.60 Safari/537.36","WebKit","Chrome","100.0.4896.60","Windows","6.1","null","<div style=""font-size:60px;"">+</div>","null",""
"","","","","","html-button-response","79","72930","0.0-4.0-1.37","184","1","2022-10-10 07:10:44","ebf9627b049f568eb4bf28942cb89901","218.85.191.130","Mozilla/5.0 (Windows NT 6.1; Win64; x64) AppleWebKit/537.36 (KHTML, like Gecko) Chrome/100.0.4896.60 Safari/537.36","WebKit","Chrome","100.0.4896.60","Windows","6.1","459","<p>作为军队的指挥官，你可以选择发射导弹杀死 <strong>2名</strong> 敌国士兵，但会误杀附近的 <strong>1名</strong> 敌国平民。</p> <p>平民照片如下图所示。</p> <p></p> <img src='stimuli/faces/NFF4.jpg', style='max-width: 30%;'> </img> <p><strong>你是否选择发射武器？</strong></p>","1",""
"","","","","","html-keyboard-response","80","73937","0.0-4.0-0.38","184","1","2022-10-10 07:10:44","ebf9627b049f568eb4bf28942cb89901","218.85.191.130","Mozilla/5.0 (Windows NT 6.1; Win64; x64) AppleWebKit/537.36 (KHTML, like Gecko) Chrome/100.0.4896.60 Safari/537.36","WebKit","Chrome","100.0.4896.60","Windows","6.1","null","<div style=""font-size:60px;"">+</div>","null",""
"","","","","","html-button-response","81","74521","0.0-4.0-1.38","184","1","2022-10-10 07:10:44","ebf9627b049f568eb4bf28942cb89901","218.85.191.130","Mozilla/5.0 (Windows NT 6.1; Win64; x64) AppleWebKit/537.36 (KHTML, like Gecko) Chrome/100.0.4896.60 Safari/537.36","WebKit","Chrome","100.0.4896.60","Windows","6.1","578","<p>作为军队的指挥官，你可以选择发射导弹杀死 <strong>5名</strong> 敌国士兵，但会炸毁附近的 <strong>1棵</strong> 敌国树木。</p> <p>树木的照片如下图所示。</p> <p></p> <img src='stimuli/trees/13.png', style='max-width: 30%;'> </img> <p><strong>你是否选择发射武器？</strong></p>","1",""
"","","","","","html-keyboard-response","82","75527","0.0-4.0-0.39","184","1","2022-10-10 07:10:44","ebf9627b049f568eb4bf28942cb89901","218.85.191.130","Mozilla/5.0 (Windows NT 6.1; Win64; x64) AppleWebKit/537.36 (KHTML, like Gecko) Chrome/100.0.4896.60 Safari/537.36","WebKit","Chrome","100.0.4896.60","Windows","6.1","null","<div style=""font-size:60px;"">+</div>","null",""
"","","","","","html-button-response","83","76057","0.0-4.0-1.39","184","1","2022-10-10 07:10:44","ebf9627b049f568eb4bf28942cb89901","218.85.191.130","Mozilla/5.0 (Windows NT 6.1; Win64; x64) AppleWebKit/537.36 (KHTML, like Gecko) Chrome/100.0.4896.60 Safari/537.36","WebKit","Chrome","100.0.4896.60","Windows","6.1","524","<p>作为军队的指挥官，你可以选择发射导弹杀死 <strong>9名</strong> 敌国士兵，但会炸毁附近的 <strong>1棵</strong> 敌国树木。</p> <p>树木的照片如下图所示。</p> <p></p> <img src='stimuli/trees/2.png', style='max-width: 30%;'> </img> <p><strong>你是否选择发射武器？</strong></p>","1",""
"","","","","","html-keyboard-response","84","77062","0.0-4.0-0.40","184","1","2022-10-10 07:10:44","ebf9627b049f568eb4bf28942cb89901","218.85.191.130","Mozilla/5.0 (Windows NT 6.1; Win64; x64) AppleWebKit/537.36 (KHTML, like Gecko) Chrome/100.0.4896.60 Safari/537.36","WebKit","Chrome","100.0.4896.60","Windows","6.1","null","<div style=""font-size:60px;"">+</div>","null",""
"","","","","","html-button-response","85","77809","0.0-4.0-1.40","184","1","2022-10-10 07:10:44","ebf9627b049f568eb4bf28942cb89901","218.85.191.130","Mozilla/5.0 (Windows NT 6.1; Win64; x64) AppleWebKit/537.36 (KHTML, like Gecko) Chrome/100.0.4896.60 Safari/537.36","WebKit","Chrome","100.0.4896.60","Windows","6.1","739","<p>作为军队的指挥官，你可以选择发射导弹杀死 <strong>3名</strong> 敌国士兵，但会炸毁附近的 <strong>1棵</strong> 敌国树木。</p> <p>树木的照片如下图所示。</p> <p></p> <img src='stimuli/trees/7.png', style='max-width: 30%;'> </img> <p><strong>你是否选择发射武器？</strong></p>","1",""
"","","","","","html-keyboard-response","86","78816","0.0-4.0-0.41","184","1","2022-10-10 07:10:44","ebf9627b049f568eb4bf28942cb89901","218.85.191.130","Mozilla/5.0 (Windows NT 6.1; Win64; x64) AppleWebKit/537.36 (KHTML, like Gecko) Chrome/100.0.4896.60 Safari/537.36","WebKit","Chrome","100.0.4896.60","Windows","6.1","null","<div style=""font-size:60px;"">+</div>","null",""
"","","","","","html-button-response","87","79338","0.0-4.0-1.41","184","1","2022-10-10 07:10:44","ebf9627b049f568eb4bf28942cb89901","218.85.191.130","Mozilla/5.0 (Windows NT 6.1; Win64; x64) AppleWebKit/537.36 (KHTML, like Gecko) Chrome/100.0.4896.60 Safari/537.36","WebKit","Chrome","100.0.4896.60","Windows","6.1","512","<p>作为军队的指挥官，你可以选择发射导弹杀死 <strong>6名</strong> 敌国士兵，但会炸毁附近的 <strong>1棵</strong> 敌国树木。</p> <p>树木的照片如下图所示。</p> <p></p> <img src='stimuli/trees/15.png', style='max-width: 30%;'> </img> <p><strong>你是否选择发射武器？</strong></p>","1",""
"","","","","","html-keyboard-response","88","80345","0.0-4.0-0.42","184","1","2022-10-10 07:10:44","ebf9627b049f568eb4bf28942cb89901","218.85.191.130","Mozilla/5.0 (Windows NT 6.1; Win64; x64) AppleWebKit/537.36 (KHTML, like Gecko) Chrome/100.0.4896.60 Safari/537.36","WebKit","Chrome","100.0.4896.60","Windows","6.1","null","<div style=""font-size:60px;"">+</div>","null",""
"","","","","","html-button-response","89","81706","0.0-4.0-1.42","184","1","2022-10-10 07:10:44","ebf9627b049f568eb4bf28942cb89901","218.85.191.130","Mozilla/5.0 (Windows NT 6.1; Win64; x64) AppleWebKit/537.36 (KHTML, like Gecko) Chrome/100.0.4896.60 Safari/537.36","WebKit","Chrome","100.0.4896.60","Windows","6.1","1354","<p>作为军队的指挥官，你可以选择发射导弹杀死 <strong>1名</strong> 敌国士兵，但会炸毁附近的 <strong>1棵</strong> 敌国树木。</p> <p>树木的照片如下图所示。</p> <p></p> <img src='stimuli/trees/16.png', style='max-width: 30%;'> </img> <p><strong>你是否选择发射武器？</strong></p>","0",""
"","","","","","html-keyboard-response","90","82712","0.0-4.0-0.43","184","1","2022-10-10 07:10:44","ebf9627b049f568eb4bf28942cb89901","218.85.191.130","Mozilla/5.0 (Windows NT 6.1; Win64; x64) AppleWebKit/537.36 (KHTML, like Gecko) Chrome/100.0.4896.60 Safari/537.36","WebKit","Chrome","100.0.4896.60","Windows","6.1","null","<div style=""font-size:60px;"">+</div>","null",""
"","","","","","html-button-response","91","83315","0.0-4.0-1.43","184","1","2022-10-10 07:10:44","ebf9627b049f568eb4bf28942cb89901","218.85.191.130","Mozilla/5.0 (Windows NT 6.1; Win64; x64) AppleWebKit/537.36 (KHTML, like Gecko) Chrome/100.0.4896.60 Safari/537.36","WebKit","Chrome","100.0.4896.60","Windows","6.1","596","<p>作为军队的指挥官，你可以选择发射导弹杀死 <strong>2名</strong> 敌国士兵，但会误杀附近的 <strong>1名</strong> 敌国平民。</p> <p>平民照片如下图所示。</p> <p></p> <img src='stimuli/faces/NFM1.jpg', style='max-width: 30%;'> </img> <p><strong>你是否选择发射武器？</strong></p>","1",""
"","","","","","html-keyboard-response","92","84322","0.0-4.0-0.44","184","1","2022-10-10 07:10:44","ebf9627b049f568eb4bf28942cb89901","218.85.191.130","Mozilla/5.0 (Windows NT 6.1; Win64; x64) AppleWebKit/537.36 (KHTML, like Gecko) Chrome/100.0.4896.60 Safari/537.36","WebKit","Chrome","100.0.4896.60","Windows","6.1","null","<div style=""font-size:60px;"">+</div>","null",""
"","","","","","html-button-response","93","84785","0.0-4.0-1.44","184","1","2022-10-10 07:10:44","ebf9627b049f568eb4bf28942cb89901","218.85.191.130","Mozilla/5.0 (Windows NT 6.1; Win64; x64) AppleWebKit/537.36 (KHTML, like Gecko) Chrome/100.0.4896.60 Safari/537.36","WebKit","Chrome","100.0.4896.60","Windows","6.1","456","<p>作为军队的指挥官，你可以选择发射导弹杀死 <strong>4名</strong> 敌国士兵，但会误杀附近的 <strong>1名</strong> 敌国平民。</p> <p>平民照片如下图所示。</p> <p></p> <img src='stimuli/faces/NFM7.jpg', style='max-width: 30%;'> </img> <p><strong>你是否选择发射武器？</strong></p>","1",""
"","","","","","html-keyboard-response","94","85792","0.0-4.0-0.45","184","1","2022-10-10 07:10:44","ebf9627b049f568eb4bf28942cb89901","218.85.191.130","Mozilla/5.0 (Windows NT 6.1; Win64; x64) AppleWebKit/537.36 (KHTML, like Gecko) Chrome/100.0.4896.60 Safari/537.36","WebKit","Chrome","100.0.4896.60","Windows","6.1","null","<div style=""font-size:60px;"">+</div>","null",""
"","","","","","html-button-response","95","86361","0.0-4.0-1.45","184","1","2022-10-10 07:10:44","ebf9627b049f568eb4bf28942cb89901","218.85.191.130","Mozilla/5.0 (Windows NT 6.1; Win64; x64) AppleWebKit/537.36 (KHTML, like Gecko) Chrome/100.0.4896.60 Safari/537.36","WebKit","Chrome","100.0.4896.60","Windows","6.1","566","<p>作为军队的指挥官，你可以选择发射导弹杀死 <strong>3名</strong> 敌国士兵，但会炸毁附近的 <strong>1棵</strong> 敌国树木。</p> <p>树木的照片如下图所示。</p> <p></p> <img src='stimuli/trees/10.png', style='max-width: 30%;'> </img> <p><strong>你是否选择发射武器？</strong></p>","1",""
"","","","","","html-keyboard-response","96","87368","0.0-4.0-0.46","184","1","2022-10-10 07:10:44","ebf9627b049f568eb4bf28942cb89901","218.85.191.130","Mozilla/5.0 (Windows NT 6.1; Win64; x64) AppleWebKit/537.36 (KHTML, like Gecko) Chrome/100.0.4896.60 Safari/537.36","WebKit","Chrome","100.0.4896.60","Windows","6.1","null","<div style=""font-size:60px;"">+</div>","null",""
"","","","","","html-button-response","97","87777","0.0-4.0-1.46","184","1","2022-10-10 07:10:44","ebf9627b049f568eb4bf28942cb89901","218.85.191.130","Mozilla/5.0 (Windows NT 6.1; Win64; x64) AppleWebKit/537.36 (KHTML, like Gecko) Chrome/100.0.4896.60 Safari/537.36","WebKit","Chrome","100.0.4896.60","Windows","6.1","396","<p>作为军队的指挥官，你可以选择发射导弹杀死 <strong>6名</strong> 敌国士兵，但会炸毁附近的 <strong>1棵</strong> 敌国树木。</p> <p>树木的照片如下图所示。</p> <p></p> <img src='stimuli/trees/8.png', style='max-width: 30%;'> </img> <p><strong>你是否选择发射武器？</strong></p>","1",""
"","","","","","html-keyboard-response","98","88784","0.0-4.0-0.47","184","1","2022-10-10 07:10:44","ebf9627b049f568eb4bf28942cb89901","218.85.191.130","Mozilla/5.0 (Windows NT 6.1; Win64; x64) AppleWebKit/537.36 (KHTML, like Gecko) Chrome/100.0.4896.60 Safari/537.36","WebKit","Chrome","100.0.4896.60","Windows","6.1","null","<div style=""font-size:60px;"">+</div>","null",""
"","","","","","html-button-response","99","89265","0.0-4.0-1.47","184","1","2022-10-10 07:10:44","ebf9627b049f568eb4bf28942cb89901","218.85.191.130","Mozilla/5.0 (Windows NT 6.1; Win64; x64) AppleWebKit/537.36 (KHTML, like Gecko) Chrome/100.0.4896.60 Safari/537.36","WebKit","Chrome","100.0.4896.60","Windows","6.1","474","<p>作为军队的指挥官，你可以选择发射导弹杀死 <strong>1名</strong> 敌国士兵，但会误杀附近的 <strong>1名</strong> 敌国平民。</p> <p>平民照片如下图所示。</p> <p></p> <img src='stimuli/faces/NFM2.jpg', style='max-width: 30%;'> </img> <p><strong>你是否选择发射武器？</strong></p>","1",""
"","","","","","html-keyboard-response","100","90273","0.0-4.0-0.48","184","1","2022-10-10 07:10:44","ebf9627b049f568eb4bf28942cb89901","218.85.191.130","Mozilla/5.0 (Windows NT 6.1; Win64; x64) AppleWebKit/537.36 (KHTML, like Gecko) Chrome/100.0.4896.60 Safari/537.36","WebKit","Chrome","100.0.4896.60","Windows","6.1","null","<div style=""font-size:60px;"">+</div>","null",""
"","","","","","html-button-response","101","91321","0.0-4.0-1.48","184","1","2022-10-10 07:10:44","ebf9627b049f568eb4bf28942cb89901","218.85.191.130","Mozilla/5.0 (Windows NT 6.1; Win64; x64) AppleWebKit/537.36 (KHTML, like Gecko) Chrome/100.0.4896.60 Safari/537.36","WebKit","Chrome","100.0.4896.60","Windows","6.1","1040","<p>作为军队的指挥官，你可以选择发射导弹杀死 <strong>7名</strong> 敌国士兵，但会误杀附近的 <strong>1名</strong> 敌国平民。</p> <p>平民照片如下图所示。</p> <p></p> <img src='stimuli/faces/NFM5.jpg', style='max-width: 30%;'> </img> <p><strong>你是否选择发射武器？</strong></p>","1",""
"","","","","","html-keyboard-response","102","92328","0.0-4.0-0.49","184","1","2022-10-10 07:10:44","ebf9627b049f568eb4bf28942cb89901","218.85.191.130","Mozilla/5.0 (Windows NT 6.1; Win64; x64) AppleWebKit/537.36 (KHTML, like Gecko) Chrome/100.0.4896.60 Safari/537.36","WebKit","Chrome","100.0.4896.60","Windows","6.1","null","<div style=""font-size:60px;"">+</div>","null",""
"","","","","","html-button-response","103","92921","0.0-4.0-1.49","184","1","2022-10-10 07:10:44","ebf9627b049f568eb4bf28942cb89901","218.85.191.130","Mozilla/5.0 (Windows NT 6.1; Win64; x64) AppleWebKit/537.36 (KHTML, like Gecko) Chrome/100.0.4896.60 Safari/537.36","WebKit","Chrome","100.0.4896.60","Windows","6.1","585","<p>作为军队的指挥官，你可以选择发射导弹杀死 <strong>2名</strong> 敌国士兵，但会炸毁附近的 <strong>1棵</strong> 敌国树木。</p> <p>树木的照片如下图所示。</p> <p></p> <img src='stimuli/trees/14.png', style='max-width: 30%;'> </img> <p><strong>你是否选择发射武器？</strong></p>","1",""
"","","","","","html-keyboard-response","104","93927","0.0-4.0-0.50","184","1","2022-10-10 07:10:44","ebf9627b049f568eb4bf28942cb89901","218.85.191.130","Mozilla/5.0 (Windows NT 6.1; Win64; x64) AppleWebKit/537.36 (KHTML, like Gecko) Chrome/100.0.4896.60 Safari/537.36","WebKit","Chrome","100.0.4896.60","Windows","6.1","null","<div style=""font-size:60px;"">+</div>","null",""
"","","","","","html-button-response","105","95281","0.0-4.0-1.50","184","1","2022-10-10 07:10:44","ebf9627b049f568eb4bf28942cb89901","218.85.191.130","Mozilla/5.0 (Windows NT 6.1; Win64; x64) AppleWebKit/537.36 (KHTML, like Gecko) Chrome/100.0.4896.60 Safari/537.36","WebKit","Chrome","100.0.4896.60","Windows","6.1","1347","<p>作为军队的指挥官，你可以选择发射导弹杀死 <strong>8名</strong> 敌国士兵，但会误杀附近的 <strong>1名</strong> 敌国平民。</p> <p>平民照片如下图所示。</p> <p></p> <img src='stimuli/faces/NFF8.jpg', style='max-width: 30%;'> </img> <p><strong>你是否选择发射武器？</strong></p>","1",""
"","","","","","html-keyboard-response","106","96289","0.0-4.0-0.51","184","1","2022-10-10 07:10:44","ebf9627b049f568eb4bf28942cb89901","218.85.191.130","Mozilla/5.0 (Windows NT 6.1; Win64; x64) AppleWebKit/537.36 (KHTML, like Gecko) Chrome/100.0.4896.60 Safari/537.36","WebKit","Chrome","100.0.4896.60","Windows","6.1","null","<div style=""font-size:60px;"">+</div>","null",""
"","","","","","html-button-response","107","96712","0.0-4.0-1.51","184","1","2022-10-10 07:10:44","ebf9627b049f568eb4bf28942cb89901","218.85.191.130","Mozilla/5.0 (Windows NT 6.1; Win64; x64) AppleWebKit/537.36 (KHTML, like Gecko) Chrome/100.0.4896.60 Safari/537.36","WebKit","Chrome","100.0.4896.60","Windows","6.1","416","<p>作为军队的指挥官，你可以选择发射导弹杀死 <strong>8名</strong> 敌国士兵，但会炸毁附近的 <strong>1棵</strong> 敌国树木。</p> <p>树木的照片如下图所示。</p> <p></p> <img src='stimuli/trees/5.png', style='max-width: 30%;'> </img> <p><strong>你是否选择发射武器？</strong></p>","1",""
"","","","","","html-keyboard-response","108","97719","0.0-4.0-0.52","184","1","2022-10-10 07:10:44","ebf9627b049f568eb4bf28942cb89901","218.85.191.130","Mozilla/5.0 (Windows NT 6.1; Win64; x64) AppleWebKit/537.36 (KHTML, like Gecko) Chrome/100.0.4896.60 Safari/537.36","WebKit","Chrome","100.0.4896.60","Windows","6.1","null","<div style=""font-size:60px;"">+</div>","null",""
"","","","","","html-button-response","109","98129","0.0-4.0-1.52","184","1","2022-10-10 07:10:44","ebf9627b049f568eb4bf28942cb89901","218.85.191.130","Mozilla/5.0 (Windows NT 6.1; Win64; x64) AppleWebKit/537.36 (KHTML, like Gecko) Chrome/100.0.4896.60 Safari/537.36","WebKit","Chrome","100.0.4896.60","Windows","6.1","401","<p>作为军队的指挥官，你可以选择发射导弹杀死 <strong>3名</strong> 敌国士兵，但会误杀附近的 <strong>1名</strong> 敌国平民。</p> <p>平民照片如下图所示。</p> <p></p> <img src='stimuli/faces/NFM4.jpg', style='max-width: 30%;'> </img> <p><strong>你是否选择发射武器？</strong></p>","1",""
"","","","","","html-keyboard-response","110","99136","0.0-4.0-0.53","184","1","2022-10-10 07:10:44","ebf9627b049f568eb4bf28942cb89901","218.85.191.130","Mozilla/5.0 (Windows NT 6.1; Win64; x64) AppleWebKit/537.36 (KHTML, like Gecko) Chrome/100.0.4896.60 Safari/537.36","WebKit","Chrome","100.0.4896.60","Windows","6.1","null","<div style=""font-size:60px;"">+</div>","null",""
"","","","","","html-button-response","111","99560","0.0-4.0-1.53","184","1","2022-10-10 07:10:44","ebf9627b049f568eb4bf28942cb89901","218.85.191.130","Mozilla/5.0 (Windows NT 6.1; Win64; x64) AppleWebKit/537.36 (KHTML, like Gecko) Chrome/100.0.4896.60 Safari/537.36","WebKit","Chrome","100.0.4896.60","Windows","6.1","416","<p>作为军队的指挥官，你可以选择发射导弹杀死 <strong>2名</strong> 敌国士兵，但会误杀附近的 <strong>1名</strong> 敌国平民。</p> <p>平民照片如下图所示。</p> <p></p> <img src='stimuli/faces/NFF6.jpg', style='max-width: 30%;'> </img> <p><strong>你是否选择发射武器？</strong></p>","1",""
"","","","","","html-keyboard-response","112","100567","0.0-4.0-0.54","184","1","2022-10-10 07:10:44","ebf9627b049f568eb4bf28942cb89901","218.85.191.130","Mozilla/5.0 (Windows NT 6.1; Win64; x64) AppleWebKit/537.36 (KHTML, like Gecko) Chrome/100.0.4896.60 Safari/537.36","WebKit","Chrome","100.0.4896.60","Windows","6.1","null","<div style=""font-size:60px;"">+</div>","null",""
"","","","","","html-button-response","113","100960","0.0-4.0-1.54","184","1","2022-10-10 07:10:44","ebf9627b049f568eb4bf28942cb89901","218.85.191.130","Mozilla/5.0 (Windows NT 6.1; Win64; x64) AppleWebKit/537.36 (KHTML, like Gecko) Chrome/100.0.4896.60 Safari/537.36","WebKit","Chrome","100.0.4896.60","Windows","6.1","385","<p>作为军队的指挥官，你可以选择发射导弹杀死 <strong>7名</strong> 敌国士兵，但会误杀附近的 <strong>1名</strong> 敌国平民。</p> <p>平民照片如下图所示。</p> <p></p> <img src='stimuli/faces/NFF4.jpg', style='max-width: 30%;'> </img> <p><strong>你是否选择发射武器？</strong></p>","1",""
"","","","","","html-keyboard-response","114","101967","0.0-4.0-0.55","184","1","2022-10-10 07:10:44","ebf9627b049f568eb4bf28942cb89901","218.85.191.130","Mozilla/5.0 (Windows NT 6.1; Win64; x64) AppleWebKit/537.36 (KHTML, like Gecko) Chrome/100.0.4896.60 Safari/537.36","WebKit","Chrome","100.0.4896.60","Windows","6.1","null","<div style=""font-size:60px;"">+</div>","null",""
"","","","","","html-button-response","115","102464","0.0-4.0-1.55","184","1","2022-10-10 07:10:44","ebf9627b049f568eb4bf28942cb89901","218.85.191.130","Mozilla/5.0 (Windows NT 6.1; Win64; x64) AppleWebKit/537.36 (KHTML, like Gecko) Chrome/100.0.4896.60 Safari/537.36","WebKit","Chrome","100.0.4896.60","Windows","6.1","491","<p>作为军队的指挥官，你可以选择发射导弹杀死 <strong>10名</strong> 敌国士兵，但会误杀附近的 <strong>1名</strong> 敌国平民。</p> <p>平民照片如下图所示。</p> <p></p> <img src='stimuli/faces/NFF7.jpg', style='max-width: 30%;'> </img> <p><strong>你是否选择发射武器？</strong></p>","1",""
"","","","","","html-keyboard-response","116","103471","0.0-4.0-0.56","184","1","2022-10-10 07:10:44","ebf9627b049f568eb4bf28942cb89901","218.85.191.130","Mozilla/5.0 (Windows NT 6.1; Win64; x64) AppleWebKit/537.36 (KHTML, like Gecko) Chrome/100.0.4896.60 Safari/537.36","WebKit","Chrome","100.0.4896.60","Windows","6.1","null","<div style=""font-size:60px;"">+</div>","null",""
"","","","","","html-button-response","117","104117","0.0-4.0-1.56","184","1","2022-10-10 07:10:44","ebf9627b049f568eb4bf28942cb89901","218.85.191.130","Mozilla/5.0 (Windows NT 6.1; Win64; x64) AppleWebKit/537.36 (KHTML, like Gecko) Chrome/100.0.4896.60 Safari/537.36","WebKit","Chrome","100.0.4896.60","Windows","6.1","640","<p>作为军队的指挥官，你可以选择发射导弹杀死 <strong>7名</strong> 敌国士兵，但会炸毁附近的 <strong>1棵</strong> 敌国树木。</p> <p>树木的照片如下图所示。</p> <p></p> <img src='stimuli/trees/16.png', style='max-width: 30%;'> </img> <p><strong>你是否选择发射武器？</strong></p>","1",""
"","","","","","html-keyboard-response","118","105125","0.0-4.0-0.57","184","1","2022-10-10 07:10:44","ebf9627b049f568eb4bf28942cb89901","218.85.191.130","Mozilla/5.0 (Windows NT 6.1; Win64; x64) AppleWebKit/537.36 (KHTML, like Gecko) Chrome/100.0.4896.60 Safari/537.36","WebKit","Chrome","100.0.4896.60","Windows","6.1","null","<div style=""font-size:60px;"">+</div>","null",""
"","","","","","html-button-response","119","106082","0.0-4.0-1.57","184","1","2022-10-10 07:10:44","ebf9627b049f568eb4bf28942cb89901","218.85.191.130","Mozilla/5.0 (Windows NT 6.1; Win64; x64) AppleWebKit/537.36 (KHTML, like Gecko) Chrome/100.0.4896.60 Safari/537.36","WebKit","Chrome","100.0.4896.60","Windows","6.1","950","<p>作为军队的指挥官，你可以选择发射导弹杀死 <strong>10名</strong> 敌国士兵，但会炸毁附近的 <strong>1棵</strong> 敌国树木。</p> <p>树木的照片如下图所示。</p> <p></p> <img src='stimuli/trees/1.png', style='max-width: 30%;'> </img> <p><strong>你是否选择发射武器？</strong></p>","0",""
"","","","","","html-keyboard-response","120","107089","0.0-4.0-0.58","184","1","2022-10-10 07:10:44","ebf9627b049f568eb4bf28942cb89901","218.85.191.130","Mozilla/5.0 (Windows NT 6.1; Win64; x64) AppleWebKit/537.36 (KHTML, like Gecko) Chrome/100.0.4896.60 Safari/537.36","WebKit","Chrome","100.0.4896.60","Windows","6.1","null","<div style=""font-size:60px;"">+</div>","null",""
"","","","","","html-button-response","121","107681","0.0-4.0-1.58","184","1","2022-10-10 07:10:44","ebf9627b049f568eb4bf28942cb89901","218.85.191.130","Mozilla/5.0 (Windows NT 6.1; Win64; x64) AppleWebKit/537.36 (KHTML, like Gecko) Chrome/100.0.4896.60 Safari/537.36","WebKit","Chrome","100.0.4896.60","Windows","6.1","585","<p>作为军队的指挥官，你可以选择发射导弹杀死 <strong>10名</strong> 敌国士兵，但会炸毁附近的 <strong>1棵</strong> 敌国树木。</p> <p>树木的照片如下图所示。</p> <p></p> <img src='stimuli/trees/7.png', style='max-width: 30%;'> </img> <p><strong>你是否选择发射武器？</strong></p>","1",""
"","","","","","html-keyboard-response","122","108688","0.0-4.0-0.59","184","1","2022-10-10 07:10:44","ebf9627b049f568eb4bf28942cb89901","218.85.191.130","Mozilla/5.0 (Windows NT 6.1; Win64; x64) AppleWebKit/537.36 (KHTML, like Gecko) Chrome/100.0.4896.60 Safari/537.36","WebKit","Chrome","100.0.4896.60","Windows","6.1","null","<div style=""font-size:60px;"">+</div>","null",""
"","","","","","html-button-response","123","109906","0.0-4.0-1.59","184","1","2022-10-10 07:10:44","ebf9627b049f568eb4bf28942cb89901","218.85.191.130","Mozilla/5.0 (Windows NT 6.1; Win64; x64) AppleWebKit/537.36 (KHTML, like Gecko) Chrome/100.0.4896.60 Safari/537.36","WebKit","Chrome","100.0.4896.60","Windows","6.1","1211","<p>作为军队的指挥官，你可以选择发射导弹杀死 <strong>9名</strong> 敌国士兵，但会炸毁附近的 <strong>1棵</strong> 敌国树木。</p> <p>树木的照片如下图所示。</p> <p></p> <img src='stimuli/trees/10.png', style='max-width: 30%;'> </img> <p><strong>你是否选择发射武器？</strong></p>","0",""
"","","","","","html-keyboard-response","124","110912","0.0-4.0-0.60","184","1","2022-10-10 07:10:44","ebf9627b049f568eb4bf28942cb89901","218.85.191.130","Mozilla/5.0 (Windows NT 6.1; Win64; x64) AppleWebKit/537.36 (KHTML, like Gecko) Chrome/100.0.4896.60 Safari/537.36","WebKit","Chrome","100.0.4896.60","Windows","6.1","null","<div style=""font-size:60px;"">+</div>","null",""
"","","","","","html-button-response","125","111505","0.0-4.0-1.60","184","1","2022-10-10 07:10:44","ebf9627b049f568eb4bf28942cb89901","218.85.191.130","Mozilla/5.0 (Windows NT 6.1; Win64; x64) AppleWebKit/537.36 (KHTML, like Gecko) Chrome/100.0.4896.60 Safari/537.36","WebKit","Chrome","100.0.4896.60","Windows","6.1","587","<p>作为军队的指挥官，你可以选择发射导弹杀死 <strong>6名</strong> 敌国士兵，但会误杀附近的 <strong>1名</strong> 敌国平民。</p> <p>平民照片如下图所示。</p> <p></p> <img src='stimuli/faces/NFM3.jpg', style='max-width: 30%;'> </img> <p><strong>你是否选择发射武器？</strong></p>","1",""
"","","","","","html-keyboard-response","126","112512","0.0-4.0-0.61","184","1","2022-10-10 07:10:44","ebf9627b049f568eb4bf28942cb89901","218.85.191.130","Mozilla/5.0 (Windows NT 6.1; Win64; x64) AppleWebKit/537.36 (KHTML, like Gecko) Chrome/100.0.4896.60 Safari/537.36","WebKit","Chrome","100.0.4896.60","Windows","6.1","null","<div style=""font-size:60px;"">+</div>","null",""
"","","","","","html-button-response","127","112976","0.0-4.0-1.61","184","1","2022-10-10 07:10:44","ebf9627b049f568eb4bf28942cb89901","218.85.191.130","Mozilla/5.0 (Windows NT 6.1; Win64; x64) AppleWebKit/537.36 (KHTML, like Gecko) Chrome/100.0.4896.60 Safari/537.36","WebKit","Chrome","100.0.4896.60","Windows","6.1","456","<p>作为军队的指挥官，你可以选择发射导弹杀死 <strong>8名</strong> 敌国士兵，但会误杀附近的 <strong>1名</strong> 敌国平民。</p> <p>平民照片如下图所示。</p> <p></p> <img src='stimuli/faces/NFF1.jpg', style='max-width: 30%;'> </img> <p><strong>你是否选择发射武器？</strong></p>","1",""
"","","","","","html-keyboard-response","128","113982","0.0-4.0-0.62","184","1","2022-10-10 07:10:44","ebf9627b049f568eb4bf28942cb89901","218.85.191.130","Mozilla/5.0 (Windows NT 6.1; Win64; x64) AppleWebKit/537.36 (KHTML, like Gecko) Chrome/100.0.4896.60 Safari/537.36","WebKit","Chrome","100.0.4896.60","Windows","6.1","null","<div style=""font-size:60px;"">+</div>","null",""
"","","","","","html-button-response","129","114544","0.0-4.0-1.62","184","1","2022-10-10 07:10:44","ebf9627b049f568eb4bf28942cb89901","218.85.191.130","Mozilla/5.0 (Windows NT 6.1; Win64; x64) AppleWebKit/537.36 (KHTML, like Gecko) Chrome/100.0.4896.60 Safari/537.36","WebKit","Chrome","100.0.4896.60","Windows","6.1","553","<p>作为军队的指挥官，你可以选择发射导弹杀死 <strong>7名</strong> 敌国士兵，但会误杀附近的 <strong>1名</strong> 敌国平民。</p> <p>平民照片如下图所示。</p> <p></p> <img src='stimuli/faces/NFF3.jpg', style='max-width: 30%;'> </img> <p><strong>你是否选择发射武器？</strong></p>","1",""
"","","","","","html-keyboard-response","130","115550","0.0-4.0-0.63","184","1","2022-10-10 07:10:44","ebf9627b049f568eb4bf28942cb89901","218.85.191.130","Mozilla/5.0 (Windows NT 6.1; Win64; x64) AppleWebKit/537.36 (KHTML, like Gecko) Chrome/100.0.4896.60 Safari/537.36","WebKit","Chrome","100.0.4896.60","Windows","6.1","null","<div style=""font-size:60px;"">+</div>","null",""
"","","","","","html-button-response","131","116200","0.0-4.0-1.63","184","1","2022-10-10 07:10:44","ebf9627b049f568eb4bf28942cb89901","218.85.191.130","Mozilla/5.0 (Windows NT 6.1; Win64; x64) AppleWebKit/537.36 (KHTML, like Gecko) Chrome/100.0.4896.60 Safari/537.36","WebKit","Chrome","100.0.4896.60","Windows","6.1","642","<p>作为军队的指挥官，你可以选择发射导弹杀死 <strong>6名</strong> 敌国士兵，但会炸毁附近的 <strong>1棵</strong> 敌国树木。</p> <p>树木的照片如下图所示。</p> <p></p> <img src='stimuli/trees/12.png', style='max-width: 30%;'> </img> <p><strong>你是否选择发射武器？</strong></p>","1",""
"","","","","","survey-multi-choice","132","121587","0.0-5.0","184","1","2022-10-10 07:10:44","ebf9627b049f568eb4bf28942cb89901","218.85.191.130","Mozilla/5.0 (Windows NT 6.1; Win64; x64) AppleWebKit/537.36 (KHTML, like Gecko) Chrome/100.0.4896.60 Safari/537.36","WebKit","Chrome","100.0.4896.60","Windows","6.1","5372","","{""Attention1"":""""}","[0]"
"","","","","","html-button-response","133","297529","0.0-6.0","184","1","2022-10-10 07:10:44","ebf9627b049f568eb4bf28942cb89901","218.85.191.130","Mozilla/5.0 (Windows NT 6.1; Win64; x64) AppleWebKit/537.36 (KHTML, like Gecko) Chrome/100.0.4896.60 Safari/537.36","WebKit","Chrome","100.0.4896.60","Windows","6.1","175921","<p style=""font-size:20px;font-weight:bold;"">恭喜！</p><p>你已经完成了实验的第一部分。</p><p>请休息放松一下，然后进入第二部分。</p><p>这部分大约需要10分钟。</p>","0",""
"","","","","","survey-text","134","327163","0.0-7.0","184","1","2022-10-10 07:10:44","ebf9627b049f568eb4bf28942cb89901","218.85.191.130","Mozilla/5.0 (Windows NT 6.1; Win64; x64) AppleWebKit/537.36 (KHTML, like Gecko) Chrome/100.0.4896.60 Safari/537.36","WebKit","Chrome","100.0.4896.60","Windows","6.1","28609","","{""Age"":""20"",""Nation"":""中国"",""Born"":""上海闵行"",""Live"":""浙江金华"",""Ethnic"":""汉族"",""Alipay"":""13860718123""}",""
"","","","","","survey-multi-choice","135","336786","0.0-8.0","184","1","2022-10-10 07:10:44","ebf9627b049f568eb4bf28942cb89901","218.85.191.130","Mozilla/5.0 (Windows NT 6.1; Win64; x64) AppleWebKit/537.36 (KHTML, like Gecko) Chrome/100.0.4896.60 Safari/537.36","WebKit","Chrome","100.0.4896.60","Windows","6.1","9611","","{""Gender"":""男"",""Education"":""本科毕业"",""Income"":""￥490,000-￥699,999"",""Children"":""0"",""Race"":""亚洲人""}","[0,1,2,3,4]"
"","","","","","survey-multi-select","136","341907","0.0-9.0","184","1","2022-10-10 07:10:44","ebf9627b049f568eb4bf28942cb89901","218.85.191.130","Mozilla/5.0 (Windows NT 6.1; Win64; x64) AppleWebKit/537.36 (KHTML, like Gecko) Chrome/100.0.4896.60 Safari/537.36","WebKit","Chrome","100.0.4896.60","Windows","6.1","5095","","{""Marriage"":[""未婚""],""Religion"":[""无宗教信仰""]}","[0,1]"
"","","","","","survey-multi-choice","137","346089","0.0-10.0","184","1","2022-10-10 07:10:44","ebf9627b049f568eb4bf28942cb89901","218.85.191.130","Mozilla/5.0 (Windows NT 6.1; Win64; x64) AppleWebKit/537.36 (KHTML, like Gecko) Chrome/100.0.4896.60 Safari/537.36","WebKit","Chrome","100.0.4896.60","Windows","6.1","4163","","{""SES"":""7""}","[0]"
"","","","","","html-button-response","138","347194","0.0-11.0","184","1","2022-10-10 07:10:44","ebf9627b049f568eb4bf28942cb89901","218.85.191.130","Mozilla/5.0 (Windows NT 6.1; Win64; x64) AppleWebKit/537.36 (KHTML, like Gecko) Chrome/100.0.4896.60 Safari/537.36","WebKit","Chrome","100.0.4896.60","Windows","6.1","1089","<p><strong>请判断下列陈述在多大程度上可以形容你？</p><p> (1 = ""和我一点都不像"" to 5 = ""非常像我"".)</strong></p>","0",""
"","","","","","survey-likert","139","366948","0.0-12.0","184","1","2022-10-10 07:10:44","ebf9627b049f568eb4bf28942cb89901","218.85.191.130","Mozilla/5.0 (Windows NT 6.1; Win64; x64) AppleWebKit/537.36 (KHTML, like Gecko) Chrome/100.0.4896.60 Safari/537.36","WebKit","Chrome","100.0.4896.60","Windows","6.1","19736","","{""Aggression1"":0,""Aggression2"":0,""Aggression3"":3,""Aggression4"":0,""Aggression5"":1,""Aggression6"":1,""Aggression7"":3,""Aggression8"":0,""Aggression9"":3}","[0,1,2,3,4,5,6,7,8]"
"","","","","","html-button-response","140","367874","0.0-13.0","184","1","2022-10-10 07:10:44","ebf9627b049f568eb4bf28942cb89901","218.85.191.130","Mozilla/5.0 (Windows NT 6.1; Win64; x64) AppleWebKit/537.36 (KHTML, like Gecko) Chrome/100.0.4896.60 Safari/537.36","WebKit","Chrome","100.0.4896.60","Windows","6.1","912","<p><strong>请判断你在多大程度上同意下列陈述。</strong></p>","0",""
"","","","","","survey-likert","141","417586","0.0-14.0","184","1","2022-10-10 07:10:44","ebf9627b049f568eb4bf28942cb89901","218.85.191.130","Mozilla/5.0 (Windows NT 6.1; Win64; x64) AppleWebKit/537.36 (KHTML, like Gecko) Chrome/100.0.4896.60 Safari/537.36","WebKit","Chrome","100.0.4896.60","Windows","6.1","49692","","{""scale8"":3,""scale25"":4,""scale12"":1,""scale21"":3,""scale15"":0,""scale22"":3,""scale17"":4,""scale2"":3,""scale4"":1,""scale16"":3,""scale1"":0,""scale3"":1,""scale27"":3,""scale24"":1,""scale7"":1,""scale14"":0,""scale18"":1,""scale6"":2,""scale5"":3,""scale11"":4,""scale23"":3,""scale28"":2,""scale10"":1,""scale26"":1,""scale19"":3,""scale9"":3,""scale20"":4,""scale13"":0}","[7,24,11,20,14,21,16,1,3,15,0,2,26,23,6,13,17,5,4,10,22,27,9,25,18,8,19,12]"
"","","","","","html-button-response","142","418386","0.0-15.0","184","1","2022-10-10 07:10:44","ebf9627b049f568eb4bf28942cb89901","218.85.191.130","Mozilla/5.0 (Windows NT 6.1; Win64; x64) AppleWebKit/537.36 (KHTML, like Gecko) Chrome/100.0.4896.60 Safari/537.36","WebKit","Chrome","100.0.4896.60","Windows","6.1","782","<p><strong>请判断你在多大程度上同意下列陈述。</strong></p>","0",""
"","","","","","survey-likert","143","464303","0.0-16.0","184","1","2022-10-10 07:10:44","ebf9627b049f568eb4bf28942cb89901","218.85.191.130","Mozilla/5.0 (Windows NT 6.1; Win64; x64) AppleWebKit/537.36 (KHTML, like Gecko) Chrome/100.0.4896.60 Safari/537.36","WebKit","Chrome","100.0.4896.60","Windows","6.1","45904","","{""sdo3"":4,""sdo9"":5,""sdo8"":2,""sdo4"":2,""sdo1"":1,""sdo10"":4,""sdo2"":5,""sdo15"":4,""sdo6"":5,""sdo14"":4,""sdo13"":5,""sdo7"":5,""sdo11"":5,""sdo16"":4,""sdo5"":4,""sdo12"":5}","[2,8,7,3,0,9,1,14,5,13,12,6,10,15,4,11]"
"","","","","","html-button-response","144","465233","0.0-17.0","184","1","2022-10-10 07:10:44","ebf9627b049f568eb4bf28942cb89901","218.85.191.130","Mozilla/5.0 (Windows NT 6.1; Win64; x64) AppleWebKit/537.36 (KHTML, like Gecko) Chrome/100.0.4896.60 Safari/537.36","WebKit","Chrome","100.0.4896.60","Windows","6.1","911","<p><strong>请判断你在多大程度上同意下列陈述。</strong></p>","0",""
"","","","","","survey-likert","145","533317","0.0-18.0","184","1","2022-10-10 07:10:44","ebf9627b049f568eb4bf28942cb89901","218.85.191.130","Mozilla/5.0 (Windows NT 6.1; Win64; x64) AppleWebKit/537.36 (KHTML, like Gecko) Chrome/100.0.4896.60 Safari/537.36","WebKit","Chrome","100.0.4896.60","Windows","6.1","68070","","{""caring1"":4,""liking1"":0,""caring2"":4,""protection1"":2,""liking2"":1,""caring3"":3,""protection2"":1,""liking3"":0,""protection3"":1,""caring4"":3,""liking4"":0,""protection4"":1,""caring5"":3,""liking5"":4,""protection5"":1}","[0,1,2,3,4,5,6,7,8,9,10,11,12,13,14]"
"","","","","","html-button-response","146","534545","0.0-19.0","184","1","2022-10-10 07:10:44","ebf9627b049f568eb4bf28942cb89901","218.85.191.130","Mozilla/5.0 (Windows NT 6.1; Win64; x64) AppleWebKit/537.36 (KHTML, like Gecko) Chrome/100.0.4896.60 Safari/537.36","WebKit","Chrome","100.0.4896.60","Windows","6.1","1211","<p><strong>请判断下列场景中你的内心感受有多柔软。</strong></p>","0",""
"","","","","","survey-likert","147","580816","0.0-20.0","184","1","2022-10-10 07:10:44","ebf9627b049f568eb4bf28942cb89901","218.85.191.130","Mozilla/5.0 (Windows NT 6.1; Win64; x64) AppleWebKit/537.36 (KHTML, like Gecko) Chrome/100.0.4896.60 Safari/537.36","WebKit","Chrome","100.0.4896.60","Windows","6.1","46257","","{""tenderness-positive1"":3,""tenderness-negative1"":1,""tenderness-negative2"":0,""tenderness-positive2"":4,""tenderness-positive3"":3,""tenderness-negative3"":1,""tenderness-positive4"":4,""tendereness-negative4"":3,""tendernness-negative5"":3,""tenderness-positive5"":4}","[0,1,2,3,4,5,6,7,8,9]"
"","","","","","survey-multi-choice","148","583499","0.0-21.0","184","1","2022-10-10 07:10:44","ebf9627b049f568eb4bf28942cb89901","218.85.191.130","Mozilla/5.0 (Windows NT 6.1; Win64; x64) AppleWebKit/537.36 (KHTML, like Gecko) Chrome/100.0.4896.60 Safari/537.36","WebKit","Chrome","100.0.4896.60","Windows","6.1","2667","","{""Attention2"":""其他""}","[0]"
"","","","","","html-button-response","149","584265","0.0-22.0","184","1","2022-10-10 07:10:44","ebf9627b049f568eb4bf28942cb89901","218.85.191.130","Mozilla/5.0 (Windows NT 6.1; Win64; x64) AppleWebKit/537.36 (KHTML, like Gecko) Chrome/100.0.4896.60 Safari/537.36","WebKit","Chrome","100.0.4896.60","Windows","6.1","753","<p><strong>请判断你在多大程度上同意下列陈述。</strong></p>","0",""
"","","","","","survey-likert","150","642847","0.0-23.0","184","1","2022-10-10 07:10:44","ebf9627b049f568eb4bf28942cb89901","218.85.191.130","Mozilla/5.0 (Windows NT 6.1; Win64; x64) AppleWebKit/537.36 (KHTML, like Gecko) Chrome/100.0.4896.60 Safari/537.36","WebKit","Chrome","100.0.4896.60","Windows","6.1","58564","","{""Patri1"":4,""Patri11"":0,""Patri4"":3,""Nation5"":2,""Patri8"":4,""Patri6"":1,""Nation3"":0,""Patri7"":4,""Patri9"":1,""Patri3"":3,""Patri10"":0,""Nation2"":3,""Nation4"":1,""Patri5"":4,""Nation7"":3,""Nation8"":3,""Patri2"":4,""Nation6"":3,""Nation1"":4,""Patri12"":0}","[0,10,3,16,7,5,14,6,8,2,9,13,15,4,18,19,1,17,12,11]"
"","","","","","html-button-response","151","644241","0.0-24.0","184","1","2022-10-10 07:10:44","ebf9627b049f568eb4bf28942cb89901","218.85.191.130","Mozilla/5.0 (Windows NT 6.1; Win64; x64) AppleWebKit/537.36 (KHTML, like Gecko) Chrome/100.0.4896.60 Safari/537.36","WebKit","Chrome","100.0.4896.60","Windows","6.1","1377","<p><strong>请判断你在多大程度上同意下列陈述。</strong></p>","0",""
"","","","","","survey-likert","152","736284","0.0-25.0","184","1","2022-10-10 07:10:44","ebf9627b049f568eb4bf28942cb89901","218.85.191.130","Mozilla/5.0 (Windows NT 6.1; Win64; x64) AppleWebKit/537.36 (KHTML, like Gecko) Chrome/100.0.4896.60 Safari/537.36","WebKit","Chrome","100.0.4896.60","Windows","6.1","92026","","{""vi4"":3,""vc3"":3,""hi4"":6,""hi3"":6,""hc4"":7,""hi1"":7,""Robot"":6,""vi2"":7,""vc1"":7,""hc1"":7,""vc2"":3,""vc4"":7,""hc2"":6,""vi1"":6,""hc3"":7,""vi3"":7,""hi2"":7}","[8,15,3,2,12,0,7,5,13,9,14,16,10,4,11,6,1]"
"","","","","","survey-text","153","741513","0.0-26.0","184","1","2022-10-10 07:10:44","ebf9627b049f568eb4bf28942cb89901","218.85.191.130","Mozilla/5.0 (Windows NT 6.1; Win64; x64) AppleWebKit/537.36 (KHTML, like Gecko) Chrome/100.0.4896.60 Safari/537.36","WebKit","Chrome","100.0.4896.60","Windows","6.1","5217","","{""Comments"":""""}",""
"","","","","","html-button-response","154","742362","0.0-27.0","184","1","2022-10-10 07:10:44","ebf9627b049f568eb4bf28942cb89901","218.85.191.130","Mozilla/5.0 (Windows NT 6.1; Win64; x64) AppleWebKit/537.36 (KHTML, like Gecko) Chrome/100.0.4896.60 Safari/537.36","WebKit","Chrome","100.0.4896.60","Windows","6.1","844","<strong><p>恭喜你完成了实验！</p><p>感谢您的参与。</p></strong>","0",""
