"success","timeout","failed_images","failed_audio","failed_video","trial_type","trial_index","time_elapsed","internal_node_id","run_id","condition","recorded_at","source_code_version","ip","user_agent","device","browser","browser_version","platform","platform_version","rt","stimulus","response","question_order"
"true","false","[]","[]","[]","preload","0","1157","0.0-0.0","187","1","2022-10-10 08:25:31","ebf9627b049f568eb4bf28942cb89901","120.231.49.53","Mozilla/5.0 (Windows NT 10.0; Win64; x64) AppleWebKit/537.36 (KHTML, like Gecko) Chrome/106.0.0.0 Safari/537.36 Edg/106.0.1370.37","WebKit","Edge","106.0.1370.37","Windows","10.0","","","",""
"true","","","","","fullscreen","1","3379","0.0-1.0","187","1","2022-10-10 08:25:31","ebf9627b049f568eb4bf28942cb89901","120.231.49.53","Mozilla/5.0 (Windows NT 10.0; Win64; x64) AppleWebKit/537.36 (KHTML, like Gecko) Chrome/106.0.0.0 Safari/537.36 Edg/106.0.1370.37","WebKit","Edge","106.0.1370.37","Windows","10.0","","","",""
"","","","","","html-button-response","2","17102","0.0-2.0","187","1","2022-10-10 08:25:31","ebf9627b049f568eb4bf28942cb89901","120.231.49.53","Mozilla/5.0 (Windows NT 10.0; Win64; x64) AppleWebKit/537.36 (KHTML, like Gecko) Chrome/106.0.0.0 Safari/537.36 Edg/106.0.1370.37","WebKit","Edge","106.0.1370.37","Windows","10.0","13722","<p style=""font-size:20px;font-weight:bold;"">实验知情同意书</p><p style=""text-align:left;""><strong>实验名称：</strong>社会冲突研究</p><p style=""text-align:left;""><strong>主要研究者：</strong>韩晓春副教授（北京师范大学心理学部）</p><p style=""text-align:left;""><strong>联系方式：</strong>发送邮件至xiaochun.han@bnu.edu.cn</p><p style=""text-align:left;""><strong>研究目的：</strong>研究旨在了解人类面对群体冲突时的决策方式，以及相关的心理学特质。实验调查大约需要20分钟。</p><p style=""text-align:left;""><strong>实验流程：</strong>实验包含两部分。第一部分呈现一系列群体冲突场景，请你决定如何对这些冲突进行反应，大约需要10分钟完成。第二部分包含一系列人口统计学信息收集和心理学问卷，大约需要10分钟完成。</p><p style=""text-align:left;""><strong>参加及退出规则：</strong>参加本实验完全取决于您的个人意愿。在参与过程中，您可以随时退出，并且不用承担任何后果。</p><p style=""text-align:left;""><strong>隐私：</strong>本实验完全匿名进行，不会收集您的姓名或其他能够识别您身份的信息。实验中收集的作答仅用作科学研究使用，可能会在学术期刊/书籍上发表，或者用于教学，您的数据未来可能会和其他研究者或实验室分享，但您的个人身份不会被识别。</p><p style=""text-align:left;""><strong>实验报酬：</strong>实验完成后，您将获得15元人民币报酬，以感谢您的时间和努力。调查问卷中包含几道题目用以测验您作答时的认真度。只有完成全部实验，并且正确回答认真度测验的被试才能获得实验报酬。实验报酬将通过支付宝转账发放。</p><p style=""text-align:left;font-size:20px;""><strong>如果您同意以上实验知情同意书的内容，请点击'同意并且开始实验'按钮；否则请关闭浏览器界面，退出实验。</strong></p>","0",""
"","","","","","html-button-response","3","23437","0.0-3.0","187","1","2022-10-10 08:25:31","ebf9627b049f568eb4bf28942cb89901","120.231.49.53","Mozilla/5.0 (Windows NT 10.0; Win64; x64) AppleWebKit/537.36 (KHTML, like Gecko) Chrome/106.0.0.0 Safari/537.36 Edg/106.0.1370.37","WebKit","Edge","106.0.1370.37","Windows","10.0","6333","<p ><strong>实验任务一：</strong></p><p>请想象你的国家与另一个国家发生了军事冲突。</p><p>你是国家军队的指挥官，你将如何在冲突中进行决策。</p><p>具体来说，作为军队指挥官，请你决定是否发射导弹进行打击。</p><p>接下来，你会面对一系列场景，请仔细阅读每个场景，然后进行决策。</p><p>这部分实验任务大约需要10分钟。</p><p><strong>实验过程中，请集中注意力。</strong></p>","0",""
"","","","","","html-keyboard-response","4","24452","0.0-4.0-0.0","187","1","2022-10-10 08:25:31","ebf9627b049f568eb4bf28942cb89901","120.231.49.53","Mozilla/5.0 (Windows NT 10.0; Win64; x64) AppleWebKit/537.36 (KHTML, like Gecko) Chrome/106.0.0.0 Safari/537.36 Edg/106.0.1370.37","WebKit","Edge","106.0.1370.37","Windows","10.0","null","<div style=""font-size:60px;"">+</div>","null",""
"","","","","","html-button-response","5","35669","0.0-4.0-1.0","187","1","2022-10-10 08:25:31","ebf9627b049f568eb4bf28942cb89901","120.231.49.53","Mozilla/5.0 (Windows NT 10.0; Win64; x64) AppleWebKit/537.36 (KHTML, like Gecko) Chrome/106.0.0.0 Safari/537.36 Edg/106.0.1370.37","WebKit","Edge","106.0.1370.37","Windows","10.0","11214","<p>作为军队的指挥官，你可以选择发射导弹杀死 <strong>7名</strong> 敌国士兵，但会炸毁附近的 <strong>1棵</strong> 敌国树木。</p> <p>树木的照片如下图所示。</p> <p></p> <img src='stimuli/trees/10.png', style='max-width: 30%;'> </img> <p><strong>你是否选择发射武器？</strong></p>","0",""
"","","","","","html-keyboard-response","6","36684","0.0-4.0-0.1","187","1","2022-10-10 08:25:31","ebf9627b049f568eb4bf28942cb89901","120.231.49.53","Mozilla/5.0 (Windows NT 10.0; Win64; x64) AppleWebKit/537.36 (KHTML, like Gecko) Chrome/106.0.0.0 Safari/537.36 Edg/106.0.1370.37","WebKit","Edge","106.0.1370.37","Windows","10.0","null","<div style=""font-size:60px;"">+</div>","null",""
"","","","","","html-button-response","7","40639","0.0-4.0-1.1","187","1","2022-10-10 08:25:31","ebf9627b049f568eb4bf28942cb89901","120.231.49.53","Mozilla/5.0 (Windows NT 10.0; Win64; x64) AppleWebKit/537.36 (KHTML, like Gecko) Chrome/106.0.0.0 Safari/537.36 Edg/106.0.1370.37","WebKit","Edge","106.0.1370.37","Windows","10.0","3953","<p>作为军队的指挥官，你可以选择发射导弹杀死 <strong>4名</strong> 敌国士兵，但会炸毁附近的 <strong>1棵</strong> 敌国树木。</p> <p>树木的照片如下图所示。</p> <p></p> <img src='stimuli/trees/4.png', style='max-width: 30%;'> </img> <p><strong>你是否选择发射武器？</strong></p>","1",""
"","","","","","html-keyboard-response","8","41641","0.0-4.0-0.2","187","1","2022-10-10 08:25:31","ebf9627b049f568eb4bf28942cb89901","120.231.49.53","Mozilla/5.0 (Windows NT 10.0; Win64; x64) AppleWebKit/537.36 (KHTML, like Gecko) Chrome/106.0.0.0 Safari/537.36 Edg/106.0.1370.37","WebKit","Edge","106.0.1370.37","Windows","10.0","null","<div style=""font-size:60px;"">+</div>","null",""
"","","","","","html-button-response","9","52389","0.0-4.0-1.2","187","1","2022-10-10 08:25:31","ebf9627b049f568eb4bf28942cb89901","120.231.49.53","Mozilla/5.0 (Windows NT 10.0; Win64; x64) AppleWebKit/537.36 (KHTML, like Gecko) Chrome/106.0.0.0 Safari/537.36 Edg/106.0.1370.37","WebKit","Edge","106.0.1370.37","Windows","10.0","10745","<p>作为军队的指挥官，你可以选择发射导弹杀死 <strong>9名</strong> 敌国士兵，但会误杀附近的 <strong>1名</strong> 敌国平民。</p> <p>平民照片如下图所示。</p> <p></p> <img src='stimuli/faces/NFF2.jpg', style='max-width: 30%;'> </img> <p><strong>你是否选择发射武器？</strong></p>","1",""
"","","","","","html-keyboard-response","10","53406","0.0-4.0-0.3","187","1","2022-10-10 08:25:31","ebf9627b049f568eb4bf28942cb89901","120.231.49.53","Mozilla/5.0 (Windows NT 10.0; Win64; x64) AppleWebKit/537.36 (KHTML, like Gecko) Chrome/106.0.0.0 Safari/537.36 Edg/106.0.1370.37","WebKit","Edge","106.0.1370.37","Windows","10.0","null","<div style=""font-size:60px;"">+</div>","null",""
"","","","","","html-button-response","11","57094","0.0-4.0-1.3","187","1","2022-10-10 08:25:31","ebf9627b049f568eb4bf28942cb89901","120.231.49.53","Mozilla/5.0 (Windows NT 10.0; Win64; x64) AppleWebKit/537.36 (KHTML, like Gecko) Chrome/106.0.0.0 Safari/537.36 Edg/106.0.1370.37","WebKit","Edge","106.0.1370.37","Windows","10.0","3686","<p>作为军队的指挥官，你可以选择发射导弹杀死 <strong>7名</strong> 敌国士兵，但会炸毁附近的 <strong>1棵</strong> 敌国树木。</p> <p>树木的照片如下图所示。</p> <p></p> <img src='stimuli/trees/1.png', style='max-width: 30%;'> </img> <p><strong>你是否选择发射武器？</strong></p>","0",""
"","","","","","html-keyboard-response","12","58098","0.0-4.0-0.4","187","1","2022-10-10 08:25:31","ebf9627b049f568eb4bf28942cb89901","120.231.49.53","Mozilla/5.0 (Windows NT 10.0; Win64; x64) AppleWebKit/537.36 (KHTML, like Gecko) Chrome/106.0.0.0 Safari/537.36 Edg/106.0.1370.37","WebKit","Edge","106.0.1370.37","Windows","10.0","null","<div style=""font-size:60px;"">+</div>","null",""
"","","","","","html-button-response","13","60038","0.0-4.0-1.4","187","1","2022-10-10 08:25:31","ebf9627b049f568eb4bf28942cb89901","120.231.49.53","Mozilla/5.0 (Windows NT 10.0; Win64; x64) AppleWebKit/537.36 (KHTML, like Gecko) Chrome/106.0.0.0 Safari/537.36 Edg/106.0.1370.37","WebKit","Edge","106.0.1370.37","Windows","10.0","1938","<p>作为军队的指挥官，你可以选择发射导弹杀死 <strong>4名</strong> 敌国士兵，但会误杀附近的 <strong>1名</strong> 敌国平民。</p> <p>平民照片如下图所示。</p> <p></p> <img src='stimuli/faces/NFF3.jpg', style='max-width: 30%;'> </img> <p><strong>你是否选择发射武器？</strong></p>","1",""
"","","","","","html-keyboard-response","14","61050","0.0-4.0-0.5","187","1","2022-10-10 08:25:31","ebf9627b049f568eb4bf28942cb89901","120.231.49.53","Mozilla/5.0 (Windows NT 10.0; Win64; x64) AppleWebKit/537.36 (KHTML, like Gecko) Chrome/106.0.0.0 Safari/537.36 Edg/106.0.1370.37","WebKit","Edge","106.0.1370.37","Windows","10.0","null","<div style=""font-size:60px;"">+</div>","null",""
"","","","","","html-button-response","15","63926","0.0-4.0-1.5","187","1","2022-10-10 08:25:31","ebf9627b049f568eb4bf28942cb89901","120.231.49.53","Mozilla/5.0 (Windows NT 10.0; Win64; x64) AppleWebKit/537.36 (KHTML, like Gecko) Chrome/106.0.0.0 Safari/537.36 Edg/106.0.1370.37","WebKit","Edge","106.0.1370.37","Windows","10.0","2874","<p>作为军队的指挥官，你可以选择发射导弹杀死 <strong>3名</strong> 敌国士兵，但会炸毁附近的 <strong>1棵</strong> 敌国树木。</p> <p>树木的照片如下图所示。</p> <p></p> <img src='stimuli/trees/1.png', style='max-width: 30%;'> </img> <p><strong>你是否选择发射武器？</strong></p>","0",""
"","","","","","html-keyboard-response","16","64927","0.0-4.0-0.6","187","1","2022-10-10 08:25:31","ebf9627b049f568eb4bf28942cb89901","120.231.49.53","Mozilla/5.0 (Windows NT 10.0; Win64; x64) AppleWebKit/537.36 (KHTML, like Gecko) Chrome/106.0.0.0 Safari/537.36 Edg/106.0.1370.37","WebKit","Edge","106.0.1370.37","Windows","10.0","null","<div style=""font-size:60px;"">+</div>","null",""
"","","","","","html-button-response","17","67302","0.0-4.0-1.6","187","1","2022-10-10 08:25:31","ebf9627b049f568eb4bf28942cb89901","120.231.49.53","Mozilla/5.0 (Windows NT 10.0; Win64; x64) AppleWebKit/537.36 (KHTML, like Gecko) Chrome/106.0.0.0 Safari/537.36 Edg/106.0.1370.37","WebKit","Edge","106.0.1370.37","Windows","10.0","2372","<p>作为军队的指挥官，你可以选择发射导弹杀死 <strong>1名</strong> 敌国士兵，但会误杀附近的 <strong>1名</strong> 敌国平民。</p> <p>平民照片如下图所示。</p> <p></p> <img src='stimuli/faces/NFM1.jpg', style='max-width: 30%;'> </img> <p><strong>你是否选择发射武器？</strong></p>","1",""
"","","","","","html-keyboard-response","18","68304","0.0-4.0-0.7","187","1","2022-10-10 08:25:31","ebf9627b049f568eb4bf28942cb89901","120.231.49.53","Mozilla/5.0 (Windows NT 10.0; Win64; x64) AppleWebKit/537.36 (KHTML, like Gecko) Chrome/106.0.0.0 Safari/537.36 Edg/106.0.1370.37","WebKit","Edge","106.0.1370.37","Windows","10.0","null","<div style=""font-size:60px;"">+</div>","null",""
"","","","","","html-button-response","19","70046","0.0-4.0-1.7","187","1","2022-10-10 08:25:31","ebf9627b049f568eb4bf28942cb89901","120.231.49.53","Mozilla/5.0 (Windows NT 10.0; Win64; x64) AppleWebKit/537.36 (KHTML, like Gecko) Chrome/106.0.0.0 Safari/537.36 Edg/106.0.1370.37","WebKit","Edge","106.0.1370.37","Windows","10.0","1740","<p>作为军队的指挥官，你可以选择发射导弹杀死 <strong>1名</strong> 敌国士兵，但会误杀附近的 <strong>1名</strong> 敌国平民。</p> <p>平民照片如下图所示。</p> <p></p> <img src='stimuli/faces/NFM3.jpg', style='max-width: 30%;'> </img> <p><strong>你是否选择发射武器？</strong></p>","1",""
"","","","","","html-keyboard-response","20","71058","0.0-4.0-0.8","187","1","2022-10-10 08:25:31","ebf9627b049f568eb4bf28942cb89901","120.231.49.53","Mozilla/5.0 (Windows NT 10.0; Win64; x64) AppleWebKit/537.36 (KHTML, like Gecko) Chrome/106.0.0.0 Safari/537.36 Edg/106.0.1370.37","WebKit","Edge","106.0.1370.37","Windows","10.0","null","<div style=""font-size:60px;"">+</div>","null",""
"","","","","","html-button-response","21","74301","0.0-4.0-1.8","187","1","2022-10-10 08:25:31","ebf9627b049f568eb4bf28942cb89901","120.231.49.53","Mozilla/5.0 (Windows NT 10.0; Win64; x64) AppleWebKit/537.36 (KHTML, like Gecko) Chrome/106.0.0.0 Safari/537.36 Edg/106.0.1370.37","WebKit","Edge","106.0.1370.37","Windows","10.0","3240","<p>作为军队的指挥官，你可以选择发射导弹杀死 <strong>3名</strong> 敌国士兵，但会误杀附近的 <strong>1名</strong> 敌国平民。</p> <p>平民照片如下图所示。</p> <p></p> <img src='stimuli/faces/NFF5.jpg', style='max-width: 30%;'> </img> <p><strong>你是否选择发射武器？</strong></p>","1",""
"","","","","","html-keyboard-response","22","75319","0.0-4.0-0.9","187","1","2022-10-10 08:25:31","ebf9627b049f568eb4bf28942cb89901","120.231.49.53","Mozilla/5.0 (Windows NT 10.0; Win64; x64) AppleWebKit/537.36 (KHTML, like Gecko) Chrome/106.0.0.0 Safari/537.36 Edg/106.0.1370.37","WebKit","Edge","106.0.1370.37","Windows","10.0","null","<div style=""font-size:60px;"">+</div>","null",""
"","","","","","html-button-response","23","102541","0.0-4.0-1.9","187","1","2022-10-10 08:25:31","ebf9627b049f568eb4bf28942cb89901","120.231.49.53","Mozilla/5.0 (Windows NT 10.0; Win64; x64) AppleWebKit/537.36 (KHTML, like Gecko) Chrome/106.0.0.0 Safari/537.36 Edg/106.0.1370.37","WebKit","Edge","106.0.1370.37","Windows","10.0","27220","<p>作为军队的指挥官，你可以选择发射导弹杀死 <strong>9名</strong> 敌国士兵，但会误杀附近的 <strong>1名</strong> 敌国平民。</p> <p>平民照片如下图所示。</p> <p></p> <img src='stimuli/faces/NFM5.jpg', style='max-width: 30%;'> </img> <p><strong>你是否选择发射武器？</strong></p>","1",""
"","","","","","html-keyboard-response","24","103543","0.0-4.0-0.10","187","1","2022-10-10 08:25:31","ebf9627b049f568eb4bf28942cb89901","120.231.49.53","Mozilla/5.0 (Windows NT 10.0; Win64; x64) AppleWebKit/537.36 (KHTML, like Gecko) Chrome/106.0.0.0 Safari/537.36 Edg/106.0.1370.37","WebKit","Edge","106.0.1370.37","Windows","10.0","null","<div style=""font-size:60px;"">+</div>","null",""
"","","","","","html-button-response","25","105470","0.0-4.0-1.10","187","1","2022-10-10 08:25:31","ebf9627b049f568eb4bf28942cb89901","120.231.49.53","Mozilla/5.0 (Windows NT 10.0; Win64; x64) AppleWebKit/537.36 (KHTML, like Gecko) Chrome/106.0.0.0 Safari/537.36 Edg/106.0.1370.37","WebKit","Edge","106.0.1370.37","Windows","10.0","1925","<p>作为军队的指挥官，你可以选择发射导弹杀死 <strong>9名</strong> 敌国士兵，但会炸毁附近的 <strong>1棵</strong> 敌国树木。</p> <p>树木的照片如下图所示。</p> <p></p> <img src='stimuli/trees/12.png', style='max-width: 30%;'> </img> <p><strong>你是否选择发射武器？</strong></p>","0",""
"","","","","","html-keyboard-response","26","106482","0.0-4.0-0.11","187","1","2022-10-10 08:25:31","ebf9627b049f568eb4bf28942cb89901","120.231.49.53","Mozilla/5.0 (Windows NT 10.0; Win64; x64) AppleWebKit/537.36 (KHTML, like Gecko) Chrome/106.0.0.0 Safari/537.36 Edg/106.0.1370.37","WebKit","Edge","106.0.1370.37","Windows","10.0","null","<div style=""font-size:60px;"">+</div>","null",""
"","","","","","html-button-response","27","111166","0.0-4.0-1.11","187","1","2022-10-10 08:25:31","ebf9627b049f568eb4bf28942cb89901","120.231.49.53","Mozilla/5.0 (Windows NT 10.0; Win64; x64) AppleWebKit/537.36 (KHTML, like Gecko) Chrome/106.0.0.0 Safari/537.36 Edg/106.0.1370.37","WebKit","Edge","106.0.1370.37","Windows","10.0","4682","<p>作为军队的指挥官，你可以选择发射导弹杀死 <strong>7名</strong> 敌国士兵，但会误杀附近的 <strong>1名</strong> 敌国平民。</p> <p>平民照片如下图所示。</p> <p></p> <img src='stimuli/faces/NFF6.jpg', style='max-width: 30%;'> </img> <p><strong>你是否选择发射武器？</strong></p>","0",""
"","","","","","html-keyboard-response","28","112170","0.0-4.0-0.12","187","1","2022-10-10 08:25:31","ebf9627b049f568eb4bf28942cb89901","120.231.49.53","Mozilla/5.0 (Windows NT 10.0; Win64; x64) AppleWebKit/537.36 (KHTML, like Gecko) Chrome/106.0.0.0 Safari/537.36 Edg/106.0.1370.37","WebKit","Edge","106.0.1370.37","Windows","10.0","null","<div style=""font-size:60px;"">+</div>","null",""
"","","","","","html-button-response","29","114934","0.0-4.0-1.12","187","1","2022-10-10 08:25:31","ebf9627b049f568eb4bf28942cb89901","120.231.49.53","Mozilla/5.0 (Windows NT 10.0; Win64; x64) AppleWebKit/537.36 (KHTML, like Gecko) Chrome/106.0.0.0 Safari/537.36 Edg/106.0.1370.37","WebKit","Edge","106.0.1370.37","Windows","10.0","2762","<p>作为军队的指挥官，你可以选择发射导弹杀死 <strong>1名</strong> 敌国士兵，但会炸毁附近的 <strong>1棵</strong> 敌国树木。</p> <p>树木的照片如下图所示。</p> <p></p> <img src='stimuli/trees/3.png', style='max-width: 30%;'> </img> <p><strong>你是否选择发射武器？</strong></p>","0",""
"","","","","","html-keyboard-response","30","115941","0.0-4.0-0.13","187","1","2022-10-10 08:25:31","ebf9627b049f568eb4bf28942cb89901","120.231.49.53","Mozilla/5.0 (Windows NT 10.0; Win64; x64) AppleWebKit/537.36 (KHTML, like Gecko) Chrome/106.0.0.0 Safari/537.36 Edg/106.0.1370.37","WebKit","Edge","106.0.1370.37","Windows","10.0","null","<div style=""font-size:60px;"">+</div>","null",""
"","","","","","html-button-response","31","117293","0.0-4.0-1.13","187","1","2022-10-10 08:25:31","ebf9627b049f568eb4bf28942cb89901","120.231.49.53","Mozilla/5.0 (Windows NT 10.0; Win64; x64) AppleWebKit/537.36 (KHTML, like Gecko) Chrome/106.0.0.0 Safari/537.36 Edg/106.0.1370.37","WebKit","Edge","106.0.1370.37","Windows","10.0","1350","<p>作为军队的指挥官，你可以选择发射导弹杀死 <strong>9名</strong> 敌国士兵，但会炸毁附近的 <strong>1棵</strong> 敌国树木。</p> <p>树木的照片如下图所示。</p> <p></p> <img src='stimuli/trees/11.png', style='max-width: 30%;'> </img> <p><strong>你是否选择发射武器？</strong></p>","0",""
"","","","","","html-keyboard-response","32","118307","0.0-4.0-0.14","187","1","2022-10-10 08:25:31","ebf9627b049f568eb4bf28942cb89901","120.231.49.53","Mozilla/5.0 (Windows NT 10.0; Win64; x64) AppleWebKit/537.36 (KHTML, like Gecko) Chrome/106.0.0.0 Safari/537.36 Edg/106.0.1370.37","WebKit","Edge","106.0.1370.37","Windows","10.0","null","<div style=""font-size:60px;"">+</div>","null",""
"","","","","","html-button-response","33","119614","0.0-4.0-1.14","187","1","2022-10-10 08:25:31","ebf9627b049f568eb4bf28942cb89901","120.231.49.53","Mozilla/5.0 (Windows NT 10.0; Win64; x64) AppleWebKit/537.36 (KHTML, like Gecko) Chrome/106.0.0.0 Safari/537.36 Edg/106.0.1370.37","WebKit","Edge","106.0.1370.37","Windows","10.0","1304","<p>作为军队的指挥官，你可以选择发射导弹杀死 <strong>3名</strong> 敌国士兵，但会炸毁附近的 <strong>1棵</strong> 敌国树木。</p> <p>树木的照片如下图所示。</p> <p></p> <img src='stimuli/trees/9.png', style='max-width: 30%;'> </img> <p><strong>你是否选择发射武器？</strong></p>","0",""
"","","","","","html-keyboard-response","34","120620","0.0-4.0-0.15","187","1","2022-10-10 08:25:31","ebf9627b049f568eb4bf28942cb89901","120.231.49.53","Mozilla/5.0 (Windows NT 10.0; Win64; x64) AppleWebKit/537.36 (KHTML, like Gecko) Chrome/106.0.0.0 Safari/537.36 Edg/106.0.1370.37","WebKit","Edge","106.0.1370.37","Windows","10.0","null","<div style=""font-size:60px;"">+</div>","null",""
"","","","","","html-button-response","35","121461","0.0-4.0-1.15","187","1","2022-10-10 08:25:31","ebf9627b049f568eb4bf28942cb89901","120.231.49.53","Mozilla/5.0 (Windows NT 10.0; Win64; x64) AppleWebKit/537.36 (KHTML, like Gecko) Chrome/106.0.0.0 Safari/537.36 Edg/106.0.1370.37","WebKit","Edge","106.0.1370.37","Windows","10.0","839","<p>作为军队的指挥官，你可以选择发射导弹杀死 <strong>3名</strong> 敌国士兵，但会炸毁附近的 <strong>1棵</strong> 敌国树木。</p> <p>树木的照片如下图所示。</p> <p></p> <img src='stimuli/trees/7.png', style='max-width: 30%;'> </img> <p><strong>你是否选择发射武器？</strong></p>","0",""
"","","","","","html-keyboard-response","36","122473","0.0-4.0-0.16","187","1","2022-10-10 08:25:31","ebf9627b049f568eb4bf28942cb89901","120.231.49.53","Mozilla/5.0 (Windows NT 10.0; Win64; x64) AppleWebKit/537.36 (KHTML, like Gecko) Chrome/106.0.0.0 Safari/537.36 Edg/106.0.1370.37","WebKit","Edge","106.0.1370.37","Windows","10.0","null","<div style=""font-size:60px;"">+</div>","null",""
"","","","","","html-button-response","37","123493","0.0-4.0-1.16","187","1","2022-10-10 08:25:31","ebf9627b049f568eb4bf28942cb89901","120.231.49.53","Mozilla/5.0 (Windows NT 10.0; Win64; x64) AppleWebKit/537.36 (KHTML, like Gecko) Chrome/106.0.0.0 Safari/537.36 Edg/106.0.1370.37","WebKit","Edge","106.0.1370.37","Windows","10.0","1018","<p>作为军队的指挥官，你可以选择发射导弹杀死 <strong>2名</strong> 敌国士兵，但会炸毁附近的 <strong>1棵</strong> 敌国树木。</p> <p>树木的照片如下图所示。</p> <p></p> <img src='stimuli/trees/6.png', style='max-width: 30%;'> </img> <p><strong>你是否选择发射武器？</strong></p>","0",""
"","","","","","html-keyboard-response","38","124502","0.0-4.0-0.17","187","1","2022-10-10 08:25:31","ebf9627b049f568eb4bf28942cb89901","120.231.49.53","Mozilla/5.0 (Windows NT 10.0; Win64; x64) AppleWebKit/537.36 (KHTML, like Gecko) Chrome/106.0.0.0 Safari/537.36 Edg/106.0.1370.37","WebKit","Edge","106.0.1370.37","Windows","10.0","null","<div style=""font-size:60px;"">+</div>","null",""
"","","","","","html-button-response","39","125741","0.0-4.0-1.17","187","1","2022-10-10 08:25:31","ebf9627b049f568eb4bf28942cb89901","120.231.49.53","Mozilla/5.0 (Windows NT 10.0; Win64; x64) AppleWebKit/537.36 (KHTML, like Gecko) Chrome/106.0.0.0 Safari/537.36 Edg/106.0.1370.37","WebKit","Edge","106.0.1370.37","Windows","10.0","1236","<p>作为军队的指挥官，你可以选择发射导弹杀死 <strong>9名</strong> 敌国士兵，但会误杀附近的 <strong>1名</strong> 敌国平民。</p> <p>平民照片如下图所示。</p> <p></p> <img src='stimuli/faces/NFM8.jpg', style='max-width: 30%;'> </img> <p><strong>你是否选择发射武器？</strong></p>","1",""
"","","","","","html-keyboard-response","40","126745","0.0-4.0-0.18","187","1","2022-10-10 08:25:31","ebf9627b049f568eb4bf28942cb89901","120.231.49.53","Mozilla/5.0 (Windows NT 10.0; Win64; x64) AppleWebKit/537.36 (KHTML, like Gecko) Chrome/106.0.0.0 Safari/537.36 Edg/106.0.1370.37","WebKit","Edge","106.0.1370.37","Windows","10.0","null","<div style=""font-size:60px;"">+</div>","null",""
"","","","","","html-button-response","41","127332","0.0-4.0-1.18","187","1","2022-10-10 08:25:31","ebf9627b049f568eb4bf28942cb89901","120.231.49.53","Mozilla/5.0 (Windows NT 10.0; Win64; x64) AppleWebKit/537.36 (KHTML, like Gecko) Chrome/106.0.0.0 Safari/537.36 Edg/106.0.1370.37","WebKit","Edge","106.0.1370.37","Windows","10.0","585","<p>作为军队的指挥官，你可以选择发射导弹杀死 <strong>4名</strong> 敌国士兵，但会误杀附近的 <strong>1名</strong> 敌国平民。</p> <p>平民照片如下图所示。</p> <p></p> <img src='stimuli/faces/NFM5.jpg', style='max-width: 30%;'> </img> <p><strong>你是否选择发射武器？</strong></p>","0",""
"","","","","","html-keyboard-response","42","128362","0.0-4.0-0.19","187","1","2022-10-10 08:25:31","ebf9627b049f568eb4bf28942cb89901","120.231.49.53","Mozilla/5.0 (Windows NT 10.0; Win64; x64) AppleWebKit/537.36 (KHTML, like Gecko) Chrome/106.0.0.0 Safari/537.36 Edg/106.0.1370.37","WebKit","Edge","106.0.1370.37","Windows","10.0","null","<div style=""font-size:60px;"">+</div>","null",""
"","","","","","html-button-response","43","129405","0.0-4.0-1.19","187","1","2022-10-10 08:25:31","ebf9627b049f568eb4bf28942cb89901","120.231.49.53","Mozilla/5.0 (Windows NT 10.0; Win64; x64) AppleWebKit/537.36 (KHTML, like Gecko) Chrome/106.0.0.0 Safari/537.36 Edg/106.0.1370.37","WebKit","Edge","106.0.1370.37","Windows","10.0","1040","<p>作为军队的指挥官，你可以选择发射导弹杀死 <strong>6名</strong> 敌国士兵，但会炸毁附近的 <strong>1棵</strong> 敌国树木。</p> <p>树木的照片如下图所示。</p> <p></p> <img src='stimuli/trees/5.png', style='max-width: 30%;'> </img> <p><strong>你是否选择发射武器？</strong></p>","0",""
"","","","","","html-keyboard-response","44","130414","0.0-4.0-0.20","187","1","2022-10-10 08:25:31","ebf9627b049f568eb4bf28942cb89901","120.231.49.53","Mozilla/5.0 (Windows NT 10.0; Win64; x64) AppleWebKit/537.36 (KHTML, like Gecko) Chrome/106.0.0.0 Safari/537.36 Edg/106.0.1370.37","WebKit","Edge","106.0.1370.37","Windows","10.0","null","<div style=""font-size:60px;"">+</div>","null",""
"","","","","","html-button-response","45","132117","0.0-4.0-1.20","187","1","2022-10-10 08:25:31","ebf9627b049f568eb4bf28942cb89901","120.231.49.53","Mozilla/5.0 (Windows NT 10.0; Win64; x64) AppleWebKit/537.36 (KHTML, like Gecko) Chrome/106.0.0.0 Safari/537.36 Edg/106.0.1370.37","WebKit","Edge","106.0.1370.37","Windows","10.0","1701","<p>作为军队的指挥官，你可以选择发射导弹杀死 <strong>8名</strong> 敌国士兵，但会炸毁附近的 <strong>1棵</strong> 敌国树木。</p> <p>树木的照片如下图所示。</p> <p></p> <img src='stimuli/trees/14.png', style='max-width: 30%;'> </img> <p><strong>你是否选择发射武器？</strong></p>","0",""
"","","","","","html-keyboard-response","46","133129","0.0-4.0-0.21","187","1","2022-10-10 08:25:31","ebf9627b049f568eb4bf28942cb89901","120.231.49.53","Mozilla/5.0 (Windows NT 10.0; Win64; x64) AppleWebKit/537.36 (KHTML, like Gecko) Chrome/106.0.0.0 Safari/537.36 Edg/106.0.1370.37","WebKit","Edge","106.0.1370.37","Windows","10.0","null","<div style=""font-size:60px;"">+</div>","null",""
"","","","","","html-button-response","47","134269","0.0-4.0-1.21","187","1","2022-10-10 08:25:31","ebf9627b049f568eb4bf28942cb89901","120.231.49.53","Mozilla/5.0 (Windows NT 10.0; Win64; x64) AppleWebKit/537.36 (KHTML, like Gecko) Chrome/106.0.0.0 Safari/537.36 Edg/106.0.1370.37","WebKit","Edge","106.0.1370.37","Windows","10.0","1137","<p>作为军队的指挥官，你可以选择发射导弹杀死 <strong>10名</strong> 敌国士兵，但会误杀附近的 <strong>1名</strong> 敌国平民。</p> <p>平民照片如下图所示。</p> <p></p> <img src='stimuli/faces/NFF8.jpg', style='max-width: 30%;'> </img> <p><strong>你是否选择发射武器？</strong></p>","1",""
"","","","","","html-keyboard-response","48","135278","0.0-4.0-0.22","187","1","2022-10-10 08:25:31","ebf9627b049f568eb4bf28942cb89901","120.231.49.53","Mozilla/5.0 (Windows NT 10.0; Win64; x64) AppleWebKit/537.36 (KHTML, like Gecko) Chrome/106.0.0.0 Safari/537.36 Edg/106.0.1370.37","WebKit","Edge","106.0.1370.37","Windows","10.0","null","<div style=""font-size:60px;"">+</div>","null",""
"","","","","","html-button-response","49","137573","0.0-4.0-1.22","187","1","2022-10-10 08:25:31","ebf9627b049f568eb4bf28942cb89901","120.231.49.53","Mozilla/5.0 (Windows NT 10.0; Win64; x64) AppleWebKit/537.36 (KHTML, like Gecko) Chrome/106.0.0.0 Safari/537.36 Edg/106.0.1370.37","WebKit","Edge","106.0.1370.37","Windows","10.0","2292","<p>作为军队的指挥官，你可以选择发射导弹杀死 <strong>5名</strong> 敌国士兵，但会误杀附近的 <strong>1名</strong> 敌国平民。</p> <p>平民照片如下图所示。</p> <p></p> <img src='stimuli/faces/NFF1.jpg', style='max-width: 30%;'> </img> <p><strong>你是否选择发射武器？</strong></p>","1",""
"","","","","","html-keyboard-response","50","138593","0.0-4.0-0.23","187","1","2022-10-10 08:25:31","ebf9627b049f568eb4bf28942cb89901","120.231.49.53","Mozilla/5.0 (Windows NT 10.0; Win64; x64) AppleWebKit/537.36 (KHTML, like Gecko) Chrome/106.0.0.0 Safari/537.36 Edg/106.0.1370.37","WebKit","Edge","106.0.1370.37","Windows","10.0","null","<div style=""font-size:60px;"">+</div>","null",""
"","","","","","html-button-response","51","140413","0.0-4.0-1.23","187","1","2022-10-10 08:25:31","ebf9627b049f568eb4bf28942cb89901","120.231.49.53","Mozilla/5.0 (Windows NT 10.0; Win64; x64) AppleWebKit/537.36 (KHTML, like Gecko) Chrome/106.0.0.0 Safari/537.36 Edg/106.0.1370.37","WebKit","Edge","106.0.1370.37","Windows","10.0","1817","<p>作为军队的指挥官，你可以选择发射导弹杀死 <strong>8名</strong> 敌国士兵，但会误杀附近的 <strong>1名</strong> 敌国平民。</p> <p>平民照片如下图所示。</p> <p></p> <img src='stimuli/faces/NFM3.jpg', style='max-width: 30%;'> </img> <p><strong>你是否选择发射武器？</strong></p>","1",""
"","","","","","html-keyboard-response","52","141418","0.0-4.0-0.24","187","1","2022-10-10 08:25:31","ebf9627b049f568eb4bf28942cb89901","120.231.49.53","Mozilla/5.0 (Windows NT 10.0; Win64; x64) AppleWebKit/537.36 (KHTML, like Gecko) Chrome/106.0.0.0 Safari/537.36 Edg/106.0.1370.37","WebKit","Edge","106.0.1370.37","Windows","10.0","null","<div style=""font-size:60px;"">+</div>","null",""
"","","","","","html-button-response","53","142845","0.0-4.0-1.24","187","1","2022-10-10 08:25:31","ebf9627b049f568eb4bf28942cb89901","120.231.49.53","Mozilla/5.0 (Windows NT 10.0; Win64; x64) AppleWebKit/537.36 (KHTML, like Gecko) Chrome/106.0.0.0 Safari/537.36 Edg/106.0.1370.37","WebKit","Edge","106.0.1370.37","Windows","10.0","1424","<p>作为军队的指挥官，你可以选择发射导弹杀死 <strong>3名</strong> 敌国士兵，但会误杀附近的 <strong>1名</strong> 敌国平民。</p> <p>平民照片如下图所示。</p> <p></p> <img src='stimuli/faces/NFM2.jpg', style='max-width: 30%;'> </img> <p><strong>你是否选择发射武器？</strong></p>","1",""
"","","","","","html-keyboard-response","54","143850","0.0-4.0-0.25","187","1","2022-10-10 08:25:31","ebf9627b049f568eb4bf28942cb89901","120.231.49.53","Mozilla/5.0 (Windows NT 10.0; Win64; x64) AppleWebKit/537.36 (KHTML, like Gecko) Chrome/106.0.0.0 Safari/537.36 Edg/106.0.1370.37","WebKit","Edge","106.0.1370.37","Windows","10.0","null","<div style=""font-size:60px;"">+</div>","null",""
"","","","","","html-button-response","55","145797","0.0-4.0-1.25","187","1","2022-10-10 08:25:31","ebf9627b049f568eb4bf28942cb89901","120.231.49.53","Mozilla/5.0 (Windows NT 10.0; Win64; x64) AppleWebKit/537.36 (KHTML, like Gecko) Chrome/106.0.0.0 Safari/537.36 Edg/106.0.1370.37","WebKit","Edge","106.0.1370.37","Windows","10.0","1945","<p>作为军队的指挥官，你可以选择发射导弹杀死 <strong>9名</strong> 敌国士兵，但会误杀附近的 <strong>1名</strong> 敌国平民。</p> <p>平民照片如下图所示。</p> <p></p> <img src='stimuli/faces/NFF1.jpg', style='max-width: 30%;'> </img> <p><strong>你是否选择发射武器？</strong></p>","0",""
"","","","","","html-keyboard-response","56","146803","0.0-4.0-0.26","187","1","2022-10-10 08:25:31","ebf9627b049f568eb4bf28942cb89901","120.231.49.53","Mozilla/5.0 (Windows NT 10.0; Win64; x64) AppleWebKit/537.36 (KHTML, like Gecko) Chrome/106.0.0.0 Safari/537.36 Edg/106.0.1370.37","WebKit","Edge","106.0.1370.37","Windows","10.0","null","<div style=""font-size:60px;"">+</div>","null",""
"","","","","","html-button-response","57","149261","0.0-4.0-1.26","187","1","2022-10-10 08:25:31","ebf9627b049f568eb4bf28942cb89901","120.231.49.53","Mozilla/5.0 (Windows NT 10.0; Win64; x64) AppleWebKit/537.36 (KHTML, like Gecko) Chrome/106.0.0.0 Safari/537.36 Edg/106.0.1370.37","WebKit","Edge","106.0.1370.37","Windows","10.0","2456","<p>作为军队的指挥官，你可以选择发射导弹杀死 <strong>7名</strong> 敌国士兵，但会误杀附近的 <strong>1名</strong> 敌国平民。</p> <p>平民照片如下图所示。</p> <p></p> <img src='stimuli/faces/NFF4.jpg', style='max-width: 30%;'> </img> <p><strong>你是否选择发射武器？</strong></p>","0",""
"","","","","","html-keyboard-response","58","150270","0.0-4.0-0.27","187","1","2022-10-10 08:25:31","ebf9627b049f568eb4bf28942cb89901","120.231.49.53","Mozilla/5.0 (Windows NT 10.0; Win64; x64) AppleWebKit/537.36 (KHTML, like Gecko) Chrome/106.0.0.0 Safari/537.36 Edg/106.0.1370.37","WebKit","Edge","106.0.1370.37","Windows","10.0","null","<div style=""font-size:60px;"">+</div>","null",""
"","","","","","html-button-response","59","152669","0.0-4.0-1.27","187","1","2022-10-10 08:25:31","ebf9627b049f568eb4bf28942cb89901","120.231.49.53","Mozilla/5.0 (Windows NT 10.0; Win64; x64) AppleWebKit/537.36 (KHTML, like Gecko) Chrome/106.0.0.0 Safari/537.36 Edg/106.0.1370.37","WebKit","Edge","106.0.1370.37","Windows","10.0","2396","<p>作为军队的指挥官，你可以选择发射导弹杀死 <strong>9名</strong> 敌国士兵，但会误杀附近的 <strong>1名</strong> 敌国平民。</p> <p>平民照片如下图所示。</p> <p></p> <img src='stimuli/faces/NFF7.jpg', style='max-width: 30%;'> </img> <p><strong>你是否选择发射武器？</strong></p>","0",""
"","","","","","html-keyboard-response","60","153684","0.0-4.0-0.28","187","1","2022-10-10 08:25:31","ebf9627b049f568eb4bf28942cb89901","120.231.49.53","Mozilla/5.0 (Windows NT 10.0; Win64; x64) AppleWebKit/537.36 (KHTML, like Gecko) Chrome/106.0.0.0 Safari/537.36 Edg/106.0.1370.37","WebKit","Edge","106.0.1370.37","Windows","10.0","null","<div style=""font-size:60px;"">+</div>","null",""
"","","","","","html-button-response","61","155278","0.0-4.0-1.28","187","1","2022-10-10 08:25:31","ebf9627b049f568eb4bf28942cb89901","120.231.49.53","Mozilla/5.0 (Windows NT 10.0; Win64; x64) AppleWebKit/537.36 (KHTML, like Gecko) Chrome/106.0.0.0 Safari/537.36 Edg/106.0.1370.37","WebKit","Edge","106.0.1370.37","Windows","10.0","1590","<p>作为军队的指挥官，你可以选择发射导弹杀死 <strong>9名</strong> 敌国士兵，但会误杀附近的 <strong>1名</strong> 敌国平民。</p> <p>平民照片如下图所示。</p> <p></p> <img src='stimuli/faces/NFF3.jpg', style='max-width: 30%;'> </img> <p><strong>你是否选择发射武器？</strong></p>","1",""
"","","","","","html-keyboard-response","62","156285","0.0-4.0-0.29","187","1","2022-10-10 08:25:31","ebf9627b049f568eb4bf28942cb89901","120.231.49.53","Mozilla/5.0 (Windows NT 10.0; Win64; x64) AppleWebKit/537.36 (KHTML, like Gecko) Chrome/106.0.0.0 Safari/537.36 Edg/106.0.1370.37","WebKit","Edge","106.0.1370.37","Windows","10.0","null","<div style=""font-size:60px;"">+</div>","null",""
"","","","","","html-button-response","63","157430","0.0-4.0-1.29","187","1","2022-10-10 08:25:31","ebf9627b049f568eb4bf28942cb89901","120.231.49.53","Mozilla/5.0 (Windows NT 10.0; Win64; x64) AppleWebKit/537.36 (KHTML, like Gecko) Chrome/106.0.0.0 Safari/537.36 Edg/106.0.1370.37","WebKit","Edge","106.0.1370.37","Windows","10.0","1142","<p>作为军队的指挥官，你可以选择发射导弹杀死 <strong>10名</strong> 敌国士兵，但会误杀附近的 <strong>1名</strong> 敌国平民。</p> <p>平民照片如下图所示。</p> <p></p> <img src='stimuli/faces/NFM6.jpg', style='max-width: 30%;'> </img> <p><strong>你是否选择发射武器？</strong></p>","1",""
"","","","","","html-keyboard-response","64","158442","0.0-4.0-0.30","187","1","2022-10-10 08:25:31","ebf9627b049f568eb4bf28942cb89901","120.231.49.53","Mozilla/5.0 (Windows NT 10.0; Win64; x64) AppleWebKit/537.36 (KHTML, like Gecko) Chrome/106.0.0.0 Safari/537.36 Edg/106.0.1370.37","WebKit","Edge","106.0.1370.37","Windows","10.0","null","<div style=""font-size:60px;"">+</div>","null",""
"","","","","","html-button-response","65","159837","0.0-4.0-1.30","187","1","2022-10-10 08:25:31","ebf9627b049f568eb4bf28942cb89901","120.231.49.53","Mozilla/5.0 (Windows NT 10.0; Win64; x64) AppleWebKit/537.36 (KHTML, like Gecko) Chrome/106.0.0.0 Safari/537.36 Edg/106.0.1370.37","WebKit","Edge","106.0.1370.37","Windows","10.0","1392","<p>作为军队的指挥官，你可以选择发射导弹杀死 <strong>4名</strong> 敌国士兵，但会误杀附近的 <strong>1名</strong> 敌国平民。</p> <p>平民照片如下图所示。</p> <p></p> <img src='stimuli/faces/NFF6.jpg', style='max-width: 30%;'> </img> <p><strong>你是否选择发射武器？</strong></p>","1",""
"","","","","","html-keyboard-response","66","160851","0.0-4.0-0.31","187","1","2022-10-10 08:25:31","ebf9627b049f568eb4bf28942cb89901","120.231.49.53","Mozilla/5.0 (Windows NT 10.0; Win64; x64) AppleWebKit/537.36 (KHTML, like Gecko) Chrome/106.0.0.0 Safari/537.36 Edg/106.0.1370.37","WebKit","Edge","106.0.1370.37","Windows","10.0","null","<div style=""font-size:60px;"">+</div>","null",""
"","","","","","html-button-response","67","162469","0.0-4.0-1.31","187","1","2022-10-10 08:25:31","ebf9627b049f568eb4bf28942cb89901","120.231.49.53","Mozilla/5.0 (Windows NT 10.0; Win64; x64) AppleWebKit/537.36 (KHTML, like Gecko) Chrome/106.0.0.0 Safari/537.36 Edg/106.0.1370.37","WebKit","Edge","106.0.1370.37","Windows","10.0","1614","<p>作为军队的指挥官，你可以选择发射导弹杀死 <strong>9名</strong> 敌国士兵，但会炸毁附近的 <strong>1棵</strong> 敌国树木。</p> <p>树木的照片如下图所示。</p> <p></p> <img src='stimuli/trees/16.png', style='max-width: 30%;'> </img> <p><strong>你是否选择发射武器？</strong></p>","0",""
"","","","","","html-keyboard-response","68","163487","0.0-4.0-0.32","187","1","2022-10-10 08:25:31","ebf9627b049f568eb4bf28942cb89901","120.231.49.53","Mozilla/5.0 (Windows NT 10.0; Win64; x64) AppleWebKit/537.36 (KHTML, like Gecko) Chrome/106.0.0.0 Safari/537.36 Edg/106.0.1370.37","WebKit","Edge","106.0.1370.37","Windows","10.0","null","<div style=""font-size:60px;"">+</div>","null",""
"","","","","","html-button-response","69","163997","0.0-4.0-1.32","187","1","2022-10-10 08:25:31","ebf9627b049f568eb4bf28942cb89901","120.231.49.53","Mozilla/5.0 (Windows NT 10.0; Win64; x64) AppleWebKit/537.36 (KHTML, like Gecko) Chrome/106.0.0.0 Safari/537.36 Edg/106.0.1370.37","WebKit","Edge","106.0.1370.37","Windows","10.0","506","<p>作为军队的指挥官，你可以选择发射导弹杀死 <strong>1名</strong> 敌国士兵，但会炸毁附近的 <strong>1棵</strong> 敌国树木。</p> <p>树木的照片如下图所示。</p> <p></p> <img src='stimuli/trees/5.png', style='max-width: 30%;'> </img> <p><strong>你是否选择发射武器？</strong></p>","0",""
"","","","","","html-keyboard-response","70","165013","0.0-4.0-0.33","187","1","2022-10-10 08:25:31","ebf9627b049f568eb4bf28942cb89901","120.231.49.53","Mozilla/5.0 (Windows NT 10.0; Win64; x64) AppleWebKit/537.36 (KHTML, like Gecko) Chrome/106.0.0.0 Safari/537.36 Edg/106.0.1370.37","WebKit","Edge","106.0.1370.37","Windows","10.0","null","<div style=""font-size:60px;"">+</div>","null",""
"","","","","","html-button-response","71","165653","0.0-4.0-1.33","187","1","2022-10-10 08:25:31","ebf9627b049f568eb4bf28942cb89901","120.231.49.53","Mozilla/5.0 (Windows NT 10.0; Win64; x64) AppleWebKit/537.36 (KHTML, like Gecko) Chrome/106.0.0.0 Safari/537.36 Edg/106.0.1370.37","WebKit","Edge","106.0.1370.37","Windows","10.0","638","<p>作为军队的指挥官，你可以选择发射导弹杀死 <strong>9名</strong> 敌国士兵，但会炸毁附近的 <strong>1棵</strong> 敌国树木。</p> <p>树木的照片如下图所示。</p> <p></p> <img src='stimuli/trees/6.png', style='max-width: 30%;'> </img> <p><strong>你是否选择发射武器？</strong></p>","0",""
"","","","","","html-keyboard-response","72","166671","0.0-4.0-0.34","187","1","2022-10-10 08:25:31","ebf9627b049f568eb4bf28942cb89901","120.231.49.53","Mozilla/5.0 (Windows NT 10.0; Win64; x64) AppleWebKit/537.36 (KHTML, like Gecko) Chrome/106.0.0.0 Safari/537.36 Edg/106.0.1370.37","WebKit","Edge","106.0.1370.37","Windows","10.0","null","<div style=""font-size:60px;"">+</div>","null",""
"","","","","","html-button-response","73","168230","0.0-4.0-1.34","187","1","2022-10-10 08:25:31","ebf9627b049f568eb4bf28942cb89901","120.231.49.53","Mozilla/5.0 (Windows NT 10.0; Win64; x64) AppleWebKit/537.36 (KHTML, like Gecko) Chrome/106.0.0.0 Safari/537.36 Edg/106.0.1370.37","WebKit","Edge","106.0.1370.37","Windows","10.0","1556","<p>作为军队的指挥官，你可以选择发射导弹杀死 <strong>7名</strong> 敌国士兵，但会炸毁附近的 <strong>1棵</strong> 敌国树木。</p> <p>树木的照片如下图所示。</p> <p></p> <img src='stimuli/trees/2.png', style='max-width: 30%;'> </img> <p><strong>你是否选择发射武器？</strong></p>","0",""
"","","","","","html-keyboard-response","74","169250","0.0-4.0-0.35","187","1","2022-10-10 08:25:31","ebf9627b049f568eb4bf28942cb89901","120.231.49.53","Mozilla/5.0 (Windows NT 10.0; Win64; x64) AppleWebKit/537.36 (KHTML, like Gecko) Chrome/106.0.0.0 Safari/537.36 Edg/106.0.1370.37","WebKit","Edge","106.0.1370.37","Windows","10.0","null","<div style=""font-size:60px;"">+</div>","null",""
"","","","","","html-button-response","75","171069","0.0-4.0-1.35","187","1","2022-10-10 08:25:31","ebf9627b049f568eb4bf28942cb89901","120.231.49.53","Mozilla/5.0 (Windows NT 10.0; Win64; x64) AppleWebKit/537.36 (KHTML, like Gecko) Chrome/106.0.0.0 Safari/537.36 Edg/106.0.1370.37","WebKit","Edge","106.0.1370.37","Windows","10.0","1817","<p>作为军队的指挥官，你可以选择发射导弹杀死 <strong>9名</strong> 敌国士兵，但会误杀附近的 <strong>1名</strong> 敌国平民。</p> <p>平民照片如下图所示。</p> <p></p> <img src='stimuli/faces/NFM7.jpg', style='max-width: 30%;'> </img> <p><strong>你是否选择发射武器？</strong></p>","1",""
"","","","","","html-keyboard-response","76","172082","0.0-4.0-0.36","187","1","2022-10-10 08:25:31","ebf9627b049f568eb4bf28942cb89901","120.231.49.53","Mozilla/5.0 (Windows NT 10.0; Win64; x64) AppleWebKit/537.36 (KHTML, like Gecko) Chrome/106.0.0.0 Safari/537.36 Edg/106.0.1370.37","WebKit","Edge","106.0.1370.37","Windows","10.0","null","<div style=""font-size:60px;"">+</div>","null",""
"","","","","","html-button-response","77","174157","0.0-4.0-1.36","187","1","2022-10-10 08:25:31","ebf9627b049f568eb4bf28942cb89901","120.231.49.53","Mozilla/5.0 (Windows NT 10.0; Win64; x64) AppleWebKit/537.36 (KHTML, like Gecko) Chrome/106.0.0.0 Safari/537.36 Edg/106.0.1370.37","WebKit","Edge","106.0.1370.37","Windows","10.0","2072","<p>作为军队的指挥官，你可以选择发射导弹杀死 <strong>2名</strong> 敌国士兵，但会误杀附近的 <strong>1名</strong> 敌国平民。</p> <p>平民照片如下图所示。</p> <p></p> <img src='stimuli/faces/NFM8.jpg', style='max-width: 30%;'> </img> <p><strong>你是否选择发射武器？</strong></p>","1",""
"","","","","","html-keyboard-response","78","175173","0.0-4.0-0.37","187","1","2022-10-10 08:25:31","ebf9627b049f568eb4bf28942cb89901","120.231.49.53","Mozilla/5.0 (Windows NT 10.0; Win64; x64) AppleWebKit/537.36 (KHTML, like Gecko) Chrome/106.0.0.0 Safari/537.36 Edg/106.0.1370.37","WebKit","Edge","106.0.1370.37","Windows","10.0","null","<div style=""font-size:60px;"">+</div>","null",""
"","","","","","html-button-response","79","178013","0.0-4.0-1.37","187","1","2022-10-10 08:25:31","ebf9627b049f568eb4bf28942cb89901","120.231.49.53","Mozilla/5.0 (Windows NT 10.0; Win64; x64) AppleWebKit/537.36 (KHTML, like Gecko) Chrome/106.0.0.0 Safari/537.36 Edg/106.0.1370.37","WebKit","Edge","106.0.1370.37","Windows","10.0","2837","<p>作为军队的指挥官，你可以选择发射导弹杀死 <strong>2名</strong> 敌国士兵，但会误杀附近的 <strong>1名</strong> 敌国平民。</p> <p>平民照片如下图所示。</p> <p></p> <img src='stimuli/faces/NFF4.jpg', style='max-width: 30%;'> </img> <p><strong>你是否选择发射武器？</strong></p>","1",""
"","","","","","html-keyboard-response","80","179022","0.0-4.0-0.38","187","1","2022-10-10 08:25:31","ebf9627b049f568eb4bf28942cb89901","120.231.49.53","Mozilla/5.0 (Windows NT 10.0; Win64; x64) AppleWebKit/537.36 (KHTML, like Gecko) Chrome/106.0.0.0 Safari/537.36 Edg/106.0.1370.37","WebKit","Edge","106.0.1370.37","Windows","10.0","null","<div style=""font-size:60px;"">+</div>","null",""
"","","","","","html-button-response","81","181437","0.0-4.0-1.38","187","1","2022-10-10 08:25:31","ebf9627b049f568eb4bf28942cb89901","120.231.49.53","Mozilla/5.0 (Windows NT 10.0; Win64; x64) AppleWebKit/537.36 (KHTML, like Gecko) Chrome/106.0.0.0 Safari/537.36 Edg/106.0.1370.37","WebKit","Edge","106.0.1370.37","Windows","10.0","2411","<p>作为军队的指挥官，你可以选择发射导弹杀死 <strong>8名</strong> 敌国士兵，但会误杀附近的 <strong>1名</strong> 敌国平民。</p> <p>平民照片如下图所示。</p> <p></p> <img src='stimuli/faces/NFF5.jpg', style='max-width: 30%;'> </img> <p><strong>你是否选择发射武器？</strong></p>","1",""
"","","","","","html-keyboard-response","82","182448","0.0-4.0-0.39","187","1","2022-10-10 08:25:31","ebf9627b049f568eb4bf28942cb89901","120.231.49.53","Mozilla/5.0 (Windows NT 10.0; Win64; x64) AppleWebKit/537.36 (KHTML, like Gecko) Chrome/106.0.0.0 Safari/537.36 Edg/106.0.1370.37","WebKit","Edge","106.0.1370.37","Windows","10.0","null","<div style=""font-size:60px;"">+</div>","null",""
"","","","","","html-button-response","83","183773","0.0-4.0-1.39","187","1","2022-10-10 08:25:31","ebf9627b049f568eb4bf28942cb89901","120.231.49.53","Mozilla/5.0 (Windows NT 10.0; Win64; x64) AppleWebKit/537.36 (KHTML, like Gecko) Chrome/106.0.0.0 Safari/537.36 Edg/106.0.1370.37","WebKit","Edge","106.0.1370.37","Windows","10.0","1321","<p>作为军队的指挥官，你可以选择发射导弹杀死 <strong>4名</strong> 敌国士兵，但会炸毁附近的 <strong>1棵</strong> 敌国树木。</p> <p>树木的照片如下图所示。</p> <p></p> <img src='stimuli/trees/13.png', style='max-width: 30%;'> </img> <p><strong>你是否选择发射武器？</strong></p>","0",""
"","","","","","html-keyboard-response","84","184787","0.0-4.0-0.40","187","1","2022-10-10 08:25:31","ebf9627b049f568eb4bf28942cb89901","120.231.49.53","Mozilla/5.0 (Windows NT 10.0; Win64; x64) AppleWebKit/537.36 (KHTML, like Gecko) Chrome/106.0.0.0 Safari/537.36 Edg/106.0.1370.37","WebKit","Edge","106.0.1370.37","Windows","10.0","null","<div style=""font-size:60px;"">+</div>","null",""
"","","","","","html-button-response","85","186149","0.0-4.0-1.40","187","1","2022-10-10 08:25:31","ebf9627b049f568eb4bf28942cb89901","120.231.49.53","Mozilla/5.0 (Windows NT 10.0; Win64; x64) AppleWebKit/537.36 (KHTML, like Gecko) Chrome/106.0.0.0 Safari/537.36 Edg/106.0.1370.37","WebKit","Edge","106.0.1370.37","Windows","10.0","1358","<p>作为军队的指挥官，你可以选择发射导弹杀死 <strong>10名</strong> 敌国士兵，但会炸毁附近的 <strong>1棵</strong> 敌国树木。</p> <p>树木的照片如下图所示。</p> <p></p> <img src='stimuli/trees/13.png', style='max-width: 30%;'> </img> <p><strong>你是否选择发射武器？</strong></p>","0",""
"","","","","","html-keyboard-response","86","187153","0.0-4.0-0.41","187","1","2022-10-10 08:25:31","ebf9627b049f568eb4bf28942cb89901","120.231.49.53","Mozilla/5.0 (Windows NT 10.0; Win64; x64) AppleWebKit/537.36 (KHTML, like Gecko) Chrome/106.0.0.0 Safari/537.36 Edg/106.0.1370.37","WebKit","Edge","106.0.1370.37","Windows","10.0","null","<div style=""font-size:60px;"">+</div>","null",""
"","","","","","html-button-response","87","191957","0.0-4.0-1.41","187","1","2022-10-10 08:25:31","ebf9627b049f568eb4bf28942cb89901","120.231.49.53","Mozilla/5.0 (Windows NT 10.0; Win64; x64) AppleWebKit/537.36 (KHTML, like Gecko) Chrome/106.0.0.0 Safari/537.36 Edg/106.0.1370.37","WebKit","Edge","106.0.1370.37","Windows","10.0","4801","<p>作为军队的指挥官，你可以选择发射导弹杀死 <strong>2名</strong> 敌国士兵，但会炸毁附近的 <strong>1棵</strong> 敌国树木。</p> <p>树木的照片如下图所示。</p> <p></p> <img src='stimuli/trees/12.png', style='max-width: 30%;'> </img> <p><strong>你是否选择发射武器？</strong></p>","1",""
"","","","","","html-keyboard-response","88","192959","0.0-4.0-0.42","187","1","2022-10-10 08:25:31","ebf9627b049f568eb4bf28942cb89901","120.231.49.53","Mozilla/5.0 (Windows NT 10.0; Win64; x64) AppleWebKit/537.36 (KHTML, like Gecko) Chrome/106.0.0.0 Safari/537.36 Edg/106.0.1370.37","WebKit","Edge","106.0.1370.37","Windows","10.0","null","<div style=""font-size:60px;"">+</div>","null",""
"","","","","","html-button-response","89","193741","0.0-4.0-1.42","187","1","2022-10-10 08:25:31","ebf9627b049f568eb4bf28942cb89901","120.231.49.53","Mozilla/5.0 (Windows NT 10.0; Win64; x64) AppleWebKit/537.36 (KHTML, like Gecko) Chrome/106.0.0.0 Safari/537.36 Edg/106.0.1370.37","WebKit","Edge","106.0.1370.37","Windows","10.0","779","<p>作为军队的指挥官，你可以选择发射导弹杀死 <strong>6名</strong> 敌国士兵，但会炸毁附近的 <strong>1棵</strong> 敌国树木。</p> <p>树木的照片如下图所示。</p> <p></p> <img src='stimuli/trees/9.png', style='max-width: 30%;'> </img> <p><strong>你是否选择发射武器？</strong></p>","0",""
"","","","","","html-keyboard-response","90","194752","0.0-4.0-0.43","187","1","2022-10-10 08:25:31","ebf9627b049f568eb4bf28942cb89901","120.231.49.53","Mozilla/5.0 (Windows NT 10.0; Win64; x64) AppleWebKit/537.36 (KHTML, like Gecko) Chrome/106.0.0.0 Safari/537.36 Edg/106.0.1370.37","WebKit","Edge","106.0.1370.37","Windows","10.0","null","<div style=""font-size:60px;"">+</div>","null",""
"","","","","","html-button-response","91","195261","0.0-4.0-1.43","187","1","2022-10-10 08:25:31","ebf9627b049f568eb4bf28942cb89901","120.231.49.53","Mozilla/5.0 (Windows NT 10.0; Win64; x64) AppleWebKit/537.36 (KHTML, like Gecko) Chrome/106.0.0.0 Safari/537.36 Edg/106.0.1370.37","WebKit","Edge","106.0.1370.37","Windows","10.0","505","<p>作为军队的指挥官，你可以选择发射导弹杀死 <strong>8名</strong> 敌国士兵，但会炸毁附近的 <strong>1棵</strong> 敌国树木。</p> <p>树木的照片如下图所示。</p> <p></p> <img src='stimuli/trees/7.png', style='max-width: 30%;'> </img> <p><strong>你是否选择发射武器？</strong></p>","0",""
"","","","","","html-keyboard-response","92","196281","0.0-4.0-0.44","187","1","2022-10-10 08:25:31","ebf9627b049f568eb4bf28942cb89901","120.231.49.53","Mozilla/5.0 (Windows NT 10.0; Win64; x64) AppleWebKit/537.36 (KHTML, like Gecko) Chrome/106.0.0.0 Safari/537.36 Edg/106.0.1370.37","WebKit","Edge","106.0.1370.37","Windows","10.0","null","<div style=""font-size:60px;"">+</div>","null",""
"","","","","","html-button-response","93","196813","0.0-4.0-1.44","187","1","2022-10-10 08:25:31","ebf9627b049f568eb4bf28942cb89901","120.231.49.53","Mozilla/5.0 (Windows NT 10.0; Win64; x64) AppleWebKit/537.36 (KHTML, like Gecko) Chrome/106.0.0.0 Safari/537.36 Edg/106.0.1370.37","WebKit","Edge","106.0.1370.37","Windows","10.0","530","<p>作为军队的指挥官，你可以选择发射导弹杀死 <strong>5名</strong> 敌国士兵，但会炸毁附近的 <strong>1棵</strong> 敌国树木。</p> <p>树木的照片如下图所示。</p> <p></p> <img src='stimuli/trees/15.png', style='max-width: 30%;'> </img> <p><strong>你是否选择发射武器？</strong></p>","0",""
"","","","","","html-keyboard-response","94","197816","0.0-4.0-0.45","187","1","2022-10-10 08:25:31","ebf9627b049f568eb4bf28942cb89901","120.231.49.53","Mozilla/5.0 (Windows NT 10.0; Win64; x64) AppleWebKit/537.36 (KHTML, like Gecko) Chrome/106.0.0.0 Safari/537.36 Edg/106.0.1370.37","WebKit","Edge","106.0.1370.37","Windows","10.0","null","<div style=""font-size:60px;"">+</div>","null",""
"","","","","","html-button-response","95","198285","0.0-4.0-1.45","187","1","2022-10-10 08:25:31","ebf9627b049f568eb4bf28942cb89901","120.231.49.53","Mozilla/5.0 (Windows NT 10.0; Win64; x64) AppleWebKit/537.36 (KHTML, like Gecko) Chrome/106.0.0.0 Safari/537.36 Edg/106.0.1370.37","WebKit","Edge","106.0.1370.37","Windows","10.0","465","<p>作为军队的指挥官，你可以选择发射导弹杀死 <strong>2名</strong> 敌国士兵，但会炸毁附近的 <strong>1棵</strong> 敌国树木。</p> <p>树木的照片如下图所示。</p> <p></p> <img src='stimuli/trees/14.png', style='max-width: 30%;'> </img> <p><strong>你是否选择发射武器？</strong></p>","0",""
"","","","","","html-keyboard-response","96","199302","0.0-4.0-0.46","187","1","2022-10-10 08:25:31","ebf9627b049f568eb4bf28942cb89901","120.231.49.53","Mozilla/5.0 (Windows NT 10.0; Win64; x64) AppleWebKit/537.36 (KHTML, like Gecko) Chrome/106.0.0.0 Safari/537.36 Edg/106.0.1370.37","WebKit","Edge","106.0.1370.37","Windows","10.0","null","<div style=""font-size:60px;"">+</div>","null",""
"","","","","","html-button-response","97","201885","0.0-4.0-1.46","187","1","2022-10-10 08:25:31","ebf9627b049f568eb4bf28942cb89901","120.231.49.53","Mozilla/5.0 (Windows NT 10.0; Win64; x64) AppleWebKit/537.36 (KHTML, like Gecko) Chrome/106.0.0.0 Safari/537.36 Edg/106.0.1370.37","WebKit","Edge","106.0.1370.37","Windows","10.0","2580","<p>作为军队的指挥官，你可以选择发射导弹杀死 <strong>1名</strong> 敌国士兵，但会误杀附近的 <strong>1名</strong> 敌国平民。</p> <p>平民照片如下图所示。</p> <p></p> <img src='stimuli/faces/NFM7.jpg', style='max-width: 30%;'> </img> <p><strong>你是否选择发射武器？</strong></p>","0",""
"","","","","","html-keyboard-response","98","202898","0.0-4.0-0.47","187","1","2022-10-10 08:25:31","ebf9627b049f568eb4bf28942cb89901","120.231.49.53","Mozilla/5.0 (Windows NT 10.0; Win64; x64) AppleWebKit/537.36 (KHTML, like Gecko) Chrome/106.0.0.0 Safari/537.36 Edg/106.0.1370.37","WebKit","Edge","106.0.1370.37","Windows","10.0","null","<div style=""font-size:60px;"">+</div>","null",""
"","","","","","html-button-response","99","205085","0.0-4.0-1.47","187","1","2022-10-10 08:25:31","ebf9627b049f568eb4bf28942cb89901","120.231.49.53","Mozilla/5.0 (Windows NT 10.0; Win64; x64) AppleWebKit/537.36 (KHTML, like Gecko) Chrome/106.0.0.0 Safari/537.36 Edg/106.0.1370.37","WebKit","Edge","106.0.1370.37","Windows","10.0","2184","<p>作为军队的指挥官，你可以选择发射导弹杀死 <strong>8名</strong> 敌国士兵，但会炸毁附近的 <strong>1棵</strong> 敌国树木。</p> <p>树木的照片如下图所示。</p> <p></p> <img src='stimuli/trees/4.png', style='max-width: 30%;'> </img> <p><strong>你是否选择发射武器？</strong></p>","0",""
"","","","","","html-keyboard-response","100","206095","0.0-4.0-0.48","187","1","2022-10-10 08:25:31","ebf9627b049f568eb4bf28942cb89901","120.231.49.53","Mozilla/5.0 (Windows NT 10.0; Win64; x64) AppleWebKit/537.36 (KHTML, like Gecko) Chrome/106.0.0.0 Safari/537.36 Edg/106.0.1370.37","WebKit","Edge","106.0.1370.37","Windows","10.0","null","<div style=""font-size:60px;"">+</div>","null",""
"","","","","","html-button-response","101","207189","0.0-4.0-1.48","187","1","2022-10-10 08:25:31","ebf9627b049f568eb4bf28942cb89901","120.231.49.53","Mozilla/5.0 (Windows NT 10.0; Win64; x64) AppleWebKit/537.36 (KHTML, like Gecko) Chrome/106.0.0.0 Safari/537.36 Edg/106.0.1370.37","WebKit","Edge","106.0.1370.37","Windows","10.0","1089","<p>作为军队的指挥官，你可以选择发射导弹杀死 <strong>7名</strong> 敌国士兵，但会炸毁附近的 <strong>1棵</strong> 敌国树木。</p> <p>树木的照片如下图所示。</p> <p></p> <img src='stimuli/trees/15.png', style='max-width: 30%;'> </img> <p><strong>你是否选择发射武器？</strong></p>","0",""
"","","","","","html-keyboard-response","102","208194","0.0-4.0-0.49","187","1","2022-10-10 08:25:31","ebf9627b049f568eb4bf28942cb89901","120.231.49.53","Mozilla/5.0 (Windows NT 10.0; Win64; x64) AppleWebKit/537.36 (KHTML, like Gecko) Chrome/106.0.0.0 Safari/537.36 Edg/106.0.1370.37","WebKit","Edge","106.0.1370.37","Windows","10.0","null","<div style=""font-size:60px;"">+</div>","null",""
"","","","","","html-button-response","103","210262","0.0-4.0-1.49","187","1","2022-10-10 08:25:31","ebf9627b049f568eb4bf28942cb89901","120.231.49.53","Mozilla/5.0 (Windows NT 10.0; Win64; x64) AppleWebKit/537.36 (KHTML, like Gecko) Chrome/106.0.0.0 Safari/537.36 Edg/106.0.1370.37","WebKit","Edge","106.0.1370.37","Windows","10.0","2063","<p>作为军队的指挥官，你可以选择发射导弹杀死 <strong>5名</strong> 敌国士兵，但会误杀附近的 <strong>1名</strong> 敌国平民。</p> <p>平民照片如下图所示。</p> <p></p> <img src='stimuli/faces/NFM6.jpg', style='max-width: 30%;'> </img> <p><strong>你是否选择发射武器？</strong></p>","1",""
"","","","","","html-keyboard-response","104","211270","0.0-4.0-0.50","187","1","2022-10-10 08:25:31","ebf9627b049f568eb4bf28942cb89901","120.231.49.53","Mozilla/5.0 (Windows NT 10.0; Win64; x64) AppleWebKit/537.36 (KHTML, like Gecko) Chrome/106.0.0.0 Safari/537.36 Edg/106.0.1370.37","WebKit","Edge","106.0.1370.37","Windows","10.0","null","<div style=""font-size:60px;"">+</div>","null",""
"","","","","","html-button-response","105","212445","0.0-4.0-1.50","187","1","2022-10-10 08:25:31","ebf9627b049f568eb4bf28942cb89901","120.231.49.53","Mozilla/5.0 (Windows NT 10.0; Win64; x64) AppleWebKit/537.36 (KHTML, like Gecko) Chrome/106.0.0.0 Safari/537.36 Edg/106.0.1370.37","WebKit","Edge","106.0.1370.37","Windows","10.0","1170","<p>作为军队的指挥官，你可以选择发射导弹杀死 <strong>5名</strong> 敌国士兵，但会炸毁附近的 <strong>1棵</strong> 敌国树木。</p> <p>树木的照片如下图所示。</p> <p></p> <img src='stimuli/trees/16.png', style='max-width: 30%;'> </img> <p><strong>你是否选择发射武器？</strong></p>","0",""
"","","","","","html-keyboard-response","106","213464","0.0-4.0-0.51","187","1","2022-10-10 08:25:31","ebf9627b049f568eb4bf28942cb89901","120.231.49.53","Mozilla/5.0 (Windows NT 10.0; Win64; x64) AppleWebKit/537.36 (KHTML, like Gecko) Chrome/106.0.0.0 Safari/537.36 Edg/106.0.1370.37","WebKit","Edge","106.0.1370.37","Windows","10.0","null","<div style=""font-size:60px;"">+</div>","null",""
"","","","","","html-button-response","107","214013","0.0-4.0-1.51","187","1","2022-10-10 08:25:31","ebf9627b049f568eb4bf28942cb89901","120.231.49.53","Mozilla/5.0 (Windows NT 10.0; Win64; x64) AppleWebKit/537.36 (KHTML, like Gecko) Chrome/106.0.0.0 Safari/537.36 Edg/106.0.1370.37","WebKit","Edge","106.0.1370.37","Windows","10.0","545","<p>作为军队的指挥官，你可以选择发射导弹杀死 <strong>8名</strong> 敌国士兵，但会误杀附近的 <strong>1名</strong> 敌国平民。</p> <p>平民照片如下图所示。</p> <p></p> <img src='stimuli/faces/NFM1.jpg', style='max-width: 30%;'> </img> <p><strong>你是否选择发射武器？</strong></p>","0",""
"","","","","","html-keyboard-response","108","215022","0.0-4.0-0.52","187","1","2022-10-10 08:25:31","ebf9627b049f568eb4bf28942cb89901","120.231.49.53","Mozilla/5.0 (Windows NT 10.0; Win64; x64) AppleWebKit/537.36 (KHTML, like Gecko) Chrome/106.0.0.0 Safari/537.36 Edg/106.0.1370.37","WebKit","Edge","106.0.1370.37","Windows","10.0","null","<div style=""font-size:60px;"">+</div>","null",""
"","","","","","html-button-response","109","216733","0.0-4.0-1.52","187","1","2022-10-10 08:25:31","ebf9627b049f568eb4bf28942cb89901","120.231.49.53","Mozilla/5.0 (Windows NT 10.0; Win64; x64) AppleWebKit/537.36 (KHTML, like Gecko) Chrome/106.0.0.0 Safari/537.36 Edg/106.0.1370.37","WebKit","Edge","106.0.1370.37","Windows","10.0","1707","<p>作为军队的指挥官，你可以选择发射导弹杀死 <strong>4名</strong> 敌国士兵，但会误杀附近的 <strong>1名</strong> 敌国平民。</p> <p>平民照片如下图所示。</p> <p></p> <img src='stimuli/faces/NFF7.jpg', style='max-width: 30%;'> </img> <p><strong>你是否选择发射武器？</strong></p>","0",""
"","","","","","html-keyboard-response","110","217748","0.0-4.0-0.53","187","1","2022-10-10 08:25:31","ebf9627b049f568eb4bf28942cb89901","120.231.49.53","Mozilla/5.0 (Windows NT 10.0; Win64; x64) AppleWebKit/537.36 (KHTML, like Gecko) Chrome/106.0.0.0 Safari/537.36 Edg/106.0.1370.37","WebKit","Edge","106.0.1370.37","Windows","10.0","null","<div style=""font-size:60px;"">+</div>","null",""
"","","","","","html-button-response","111","219653","0.0-4.0-1.53","187","1","2022-10-10 08:25:31","ebf9627b049f568eb4bf28942cb89901","120.231.49.53","Mozilla/5.0 (Windows NT 10.0; Win64; x64) AppleWebKit/537.36 (KHTML, like Gecko) Chrome/106.0.0.0 Safari/537.36 Edg/106.0.1370.37","WebKit","Edge","106.0.1370.37","Windows","10.0","1901","<p>作为军队的指挥官，你可以选择发射导弹杀死 <strong>4名</strong> 敌国士兵，但会炸毁附近的 <strong>1棵</strong> 敌国树木。</p> <p>树木的照片如下图所示。</p> <p></p> <img src='stimuli/trees/2.png', style='max-width: 30%;'> </img> <p><strong>你是否选择发射武器？</strong></p>","0",""
"","","","","","html-keyboard-response","112","220665","0.0-4.0-0.54","187","1","2022-10-10 08:25:31","ebf9627b049f568eb4bf28942cb89901","120.231.49.53","Mozilla/5.0 (Windows NT 10.0; Win64; x64) AppleWebKit/537.36 (KHTML, like Gecko) Chrome/106.0.0.0 Safari/537.36 Edg/106.0.1370.37","WebKit","Edge","106.0.1370.37","Windows","10.0","null","<div style=""font-size:60px;"">+</div>","null",""
"","","","","","html-button-response","113","221869","0.0-4.0-1.54","187","1","2022-10-10 08:25:31","ebf9627b049f568eb4bf28942cb89901","120.231.49.53","Mozilla/5.0 (Windows NT 10.0; Win64; x64) AppleWebKit/537.36 (KHTML, like Gecko) Chrome/106.0.0.0 Safari/537.36 Edg/106.0.1370.37","WebKit","Edge","106.0.1370.37","Windows","10.0","1200","<p>作为军队的指挥官，你可以选择发射导弹杀死 <strong>4名</strong> 敌国士兵，但会炸毁附近的 <strong>1棵</strong> 敌国树木。</p> <p>树木的照片如下图所示。</p> <p></p> <img src='stimuli/trees/8.png', style='max-width: 30%;'> </img> <p><strong>你是否选择发射武器？</strong></p>","0",""
"","","","","","html-keyboard-response","114","222884","0.0-4.0-0.55","187","1","2022-10-10 08:25:31","ebf9627b049f568eb4bf28942cb89901","120.231.49.53","Mozilla/5.0 (Windows NT 10.0; Win64; x64) AppleWebKit/537.36 (KHTML, like Gecko) Chrome/106.0.0.0 Safari/537.36 Edg/106.0.1370.37","WebKit","Edge","106.0.1370.37","Windows","10.0","null","<div style=""font-size:60px;"">+</div>","null",""
"","","","","","html-button-response","115","223949","0.0-4.0-1.55","187","1","2022-10-10 08:25:31","ebf9627b049f568eb4bf28942cb89901","120.231.49.53","Mozilla/5.0 (Windows NT 10.0; Win64; x64) AppleWebKit/537.36 (KHTML, like Gecko) Chrome/106.0.0.0 Safari/537.36 Edg/106.0.1370.37","WebKit","Edge","106.0.1370.37","Windows","10.0","1061","<p>作为军队的指挥官，你可以选择发射导弹杀死 <strong>9名</strong> 敌国士兵，但会误杀附近的 <strong>1名</strong> 敌国平民。</p> <p>平民照片如下图所示。</p> <p></p> <img src='stimuli/faces/NFM4.jpg', style='max-width: 30%;'> </img> <p><strong>你是否选择发射武器？</strong></p>","1",""
"","","","","","html-keyboard-response","116","224955","0.0-4.0-0.56","187","1","2022-10-10 08:25:31","ebf9627b049f568eb4bf28942cb89901","120.231.49.53","Mozilla/5.0 (Windows NT 10.0; Win64; x64) AppleWebKit/537.36 (KHTML, like Gecko) Chrome/106.0.0.0 Safari/537.36 Edg/106.0.1370.37","WebKit","Edge","106.0.1370.37","Windows","10.0","null","<div style=""font-size:60px;"">+</div>","null",""
"","","","","","html-button-response","117","225797","0.0-4.0-1.56","187","1","2022-10-10 08:25:31","ebf9627b049f568eb4bf28942cb89901","120.231.49.53","Mozilla/5.0 (Windows NT 10.0; Win64; x64) AppleWebKit/537.36 (KHTML, like Gecko) Chrome/106.0.0.0 Safari/537.36 Edg/106.0.1370.37","WebKit","Edge","106.0.1370.37","Windows","10.0","838","<p>作为军队的指挥官，你可以选择发射导弹杀死 <strong>1名</strong> 敌国士兵，但会误杀附近的 <strong>1名</strong> 敌国平民。</p> <p>平民照片如下图所示。</p> <p></p> <img src='stimuli/faces/NFF8.jpg', style='max-width: 30%;'> </img> <p><strong>你是否选择发射武器？</strong></p>","1",""
"","","","","","html-keyboard-response","118","226818","0.0-4.0-0.57","187","1","2022-10-10 08:25:31","ebf9627b049f568eb4bf28942cb89901","120.231.49.53","Mozilla/5.0 (Windows NT 10.0; Win64; x64) AppleWebKit/537.36 (KHTML, like Gecko) Chrome/106.0.0.0 Safari/537.36 Edg/106.0.1370.37","WebKit","Edge","106.0.1370.37","Windows","10.0","null","<div style=""font-size:60px;"">+</div>","null",""
"","","","","","html-button-response","119","229669","0.0-4.0-1.57","187","1","2022-10-10 08:25:31","ebf9627b049f568eb4bf28942cb89901","120.231.49.53","Mozilla/5.0 (Windows NT 10.0; Win64; x64) AppleWebKit/537.36 (KHTML, like Gecko) Chrome/106.0.0.0 Safari/537.36 Edg/106.0.1370.37","WebKit","Edge","106.0.1370.37","Windows","10.0","2847","<p>作为军队的指挥官，你可以选择发射导弹杀死 <strong>4名</strong> 敌国士兵，但会炸毁附近的 <strong>1棵</strong> 敌国树木。</p> <p>树木的照片如下图所示。</p> <p></p> <img src='stimuli/trees/11.png', style='max-width: 30%;'> </img> <p><strong>你是否选择发射武器？</strong></p>","0",""
"","","","","","html-keyboard-response","120","230680","0.0-4.0-0.58","187","1","2022-10-10 08:25:31","ebf9627b049f568eb4bf28942cb89901","120.231.49.53","Mozilla/5.0 (Windows NT 10.0; Win64; x64) AppleWebKit/537.36 (KHTML, like Gecko) Chrome/106.0.0.0 Safari/537.36 Edg/106.0.1370.37","WebKit","Edge","106.0.1370.37","Windows","10.0","null","<div style=""font-size:60px;"">+</div>","null",""
"","","","","","html-button-response","121","233141","0.0-4.0-1.58","187","1","2022-10-10 08:25:31","ebf9627b049f568eb4bf28942cb89901","120.231.49.53","Mozilla/5.0 (Windows NT 10.0; Win64; x64) AppleWebKit/537.36 (KHTML, like Gecko) Chrome/106.0.0.0 Safari/537.36 Edg/106.0.1370.37","WebKit","Edge","106.0.1370.37","Windows","10.0","2457","<p>作为军队的指挥官，你可以选择发射导弹杀死 <strong>4名</strong> 敌国士兵，但会炸毁附近的 <strong>1棵</strong> 敌国树木。</p> <p>树木的照片如下图所示。</p> <p></p> <img src='stimuli/trees/10.png', style='max-width: 30%;'> </img> <p><strong>你是否选择发射武器？</strong></p>","1",""
"","","","","","html-keyboard-response","122","234150","0.0-4.0-0.59","187","1","2022-10-10 08:25:31","ebf9627b049f568eb4bf28942cb89901","120.231.49.53","Mozilla/5.0 (Windows NT 10.0; Win64; x64) AppleWebKit/537.36 (KHTML, like Gecko) Chrome/106.0.0.0 Safari/537.36 Edg/106.0.1370.37","WebKit","Edge","106.0.1370.37","Windows","10.0","null","<div style=""font-size:60px;"">+</div>","null",""
"","","","","","html-button-response","123","234925","0.0-4.0-1.59","187","1","2022-10-10 08:25:31","ebf9627b049f568eb4bf28942cb89901","120.231.49.53","Mozilla/5.0 (Windows NT 10.0; Win64; x64) AppleWebKit/537.36 (KHTML, like Gecko) Chrome/106.0.0.0 Safari/537.36 Edg/106.0.1370.37","WebKit","Edge","106.0.1370.37","Windows","10.0","771","<p>作为军队的指挥官，你可以选择发射导弹杀死 <strong>8名</strong> 敌国士兵，但会炸毁附近的 <strong>1棵</strong> 敌国树木。</p> <p>树木的照片如下图所示。</p> <p></p> <img src='stimuli/trees/3.png', style='max-width: 30%;'> </img> <p><strong>你是否选择发射武器？</strong></p>","0",""
"","","","","","html-keyboard-response","124","235943","0.0-4.0-0.60","187","1","2022-10-10 08:25:31","ebf9627b049f568eb4bf28942cb89901","120.231.49.53","Mozilla/5.0 (Windows NT 10.0; Win64; x64) AppleWebKit/537.36 (KHTML, like Gecko) Chrome/106.0.0.0 Safari/537.36 Edg/106.0.1370.37","WebKit","Edge","106.0.1370.37","Windows","10.0","null","<div style=""font-size:60px;"">+</div>","null",""
"","","","","","html-button-response","125","236548","0.0-4.0-1.60","187","1","2022-10-10 08:25:31","ebf9627b049f568eb4bf28942cb89901","120.231.49.53","Mozilla/5.0 (Windows NT 10.0; Win64; x64) AppleWebKit/537.36 (KHTML, like Gecko) Chrome/106.0.0.0 Safari/537.36 Edg/106.0.1370.37","WebKit","Edge","106.0.1370.37","Windows","10.0","601","<p>作为军队的指挥官，你可以选择发射导弹杀死 <strong>10名</strong> 敌国士兵，但会炸毁附近的 <strong>1棵</strong> 敌国树木。</p> <p>树木的照片如下图所示。</p> <p></p> <img src='stimuli/trees/8.png', style='max-width: 30%;'> </img> <p><strong>你是否选择发射武器？</strong></p>","0",""
"","","","","","html-keyboard-response","126","237552","0.0-4.0-0.61","187","1","2022-10-10 08:25:31","ebf9627b049f568eb4bf28942cb89901","120.231.49.53","Mozilla/5.0 (Windows NT 10.0; Win64; x64) AppleWebKit/537.36 (KHTML, like Gecko) Chrome/106.0.0.0 Safari/537.36 Edg/106.0.1370.37","WebKit","Edge","106.0.1370.37","Windows","10.0","null","<div style=""font-size:60px;"">+</div>","null",""
"","","","","","html-button-response","127","239069","0.0-4.0-1.61","187","1","2022-10-10 08:25:31","ebf9627b049f568eb4bf28942cb89901","120.231.49.53","Mozilla/5.0 (Windows NT 10.0; Win64; x64) AppleWebKit/537.36 (KHTML, like Gecko) Chrome/106.0.0.0 Safari/537.36 Edg/106.0.1370.37","WebKit","Edge","106.0.1370.37","Windows","10.0","1514","<p>作为军队的指挥官，你可以选择发射导弹杀死 <strong>4名</strong> 敌国士兵，但会误杀附近的 <strong>1名</strong> 敌国平民。</p> <p>平民照片如下图所示。</p> <p></p> <img src='stimuli/faces/NFF2.jpg', style='max-width: 30%;'> </img> <p><strong>你是否选择发射武器？</strong></p>","1",""
"","","","","","html-keyboard-response","128","240093","0.0-4.0-0.62","187","1","2022-10-10 08:25:31","ebf9627b049f568eb4bf28942cb89901","120.231.49.53","Mozilla/5.0 (Windows NT 10.0; Win64; x64) AppleWebKit/537.36 (KHTML, like Gecko) Chrome/106.0.0.0 Safari/537.36 Edg/106.0.1370.37","WebKit","Edge","106.0.1370.37","Windows","10.0","null","<div style=""font-size:60px;"">+</div>","null",""
"","","","","","html-button-response","129","241797","0.0-4.0-1.62","187","1","2022-10-10 08:25:31","ebf9627b049f568eb4bf28942cb89901","120.231.49.53","Mozilla/5.0 (Windows NT 10.0; Win64; x64) AppleWebKit/537.36 (KHTML, like Gecko) Chrome/106.0.0.0 Safari/537.36 Edg/106.0.1370.37","WebKit","Edge","106.0.1370.37","Windows","10.0","1700","<p>作为军队的指挥官，你可以选择发射导弹杀死 <strong>5名</strong> 敌国士兵，但会误杀附近的 <strong>1名</strong> 敌国平民。</p> <p>平民照片如下图所示。</p> <p></p> <img src='stimuli/faces/NFM4.jpg', style='max-width: 30%;'> </img> <p><strong>你是否选择发射武器？</strong></p>","1",""
"","","","","","html-keyboard-response","130","242814","0.0-4.0-0.63","187","1","2022-10-10 08:25:31","ebf9627b049f568eb4bf28942cb89901","120.231.49.53","Mozilla/5.0 (Windows NT 10.0; Win64; x64) AppleWebKit/537.36 (KHTML, like Gecko) Chrome/106.0.0.0 Safari/537.36 Edg/106.0.1370.37","WebKit","Edge","106.0.1370.37","Windows","10.0","null","<div style=""font-size:60px;"">+</div>","null",""
"","","","","","html-button-response","131","256565","0.0-4.0-1.63","187","1","2022-10-10 08:25:31","ebf9627b049f568eb4bf28942cb89901","120.231.49.53","Mozilla/5.0 (Windows NT 10.0; Win64; x64) AppleWebKit/537.36 (KHTML, like Gecko) Chrome/106.0.0.0 Safari/537.36 Edg/106.0.1370.37","WebKit","Edge","106.0.1370.37","Windows","10.0","13747","<p>作为军队的指挥官，你可以选择发射导弹杀死 <strong>9名</strong> 敌国士兵，但会误杀附近的 <strong>1名</strong> 敌国平民。</p> <p>平民照片如下图所示。</p> <p></p> <img src='stimuli/faces/NFM2.jpg', style='max-width: 30%;'> </img> <p><strong>你是否选择发射武器？</strong></p>","1",""
"","","","","","survey-multi-choice","132","283254","0.0-5.0","187","1","2022-10-10 08:25:31","ebf9627b049f568eb4bf28942cb89901","120.231.49.53","Mozilla/5.0 (Windows NT 10.0; Win64; x64) AppleWebKit/537.36 (KHTML, like Gecko) Chrome/106.0.0.0 Safari/537.36 Edg/106.0.1370.37","WebKit","Edge","106.0.1370.37","Windows","10.0","26684","","{""Attention1"":""""}","[0]"
"","","","","","html-button-response","133","285381","0.0-6.0","187","1","2022-10-10 08:25:31","ebf9627b049f568eb4bf28942cb89901","120.231.49.53","Mozilla/5.0 (Windows NT 10.0; Win64; x64) AppleWebKit/537.36 (KHTML, like Gecko) Chrome/106.0.0.0 Safari/537.36 Edg/106.0.1370.37","WebKit","Edge","106.0.1370.37","Windows","10.0","2121","<p style=""font-size:20px;font-weight:bold;"">恭喜！</p><p>你已经完成了实验的第一部分。</p><p>请休息放松一下，然后进入第二部分。</p><p>这部分大约需要10分钟。</p>","0",""
"","","","","","survey-text","134","329886","0.0-7.0","187","1","2022-10-10 08:25:31","ebf9627b049f568eb4bf28942cb89901","120.231.49.53","Mozilla/5.0 (Windows NT 10.0; Win64; x64) AppleWebKit/537.36 (KHTML, like Gecko) Chrome/106.0.0.0 Safari/537.36 Edg/106.0.1370.37","WebKit","Edge","106.0.1370.37","Windows","10.0","43487","","{""Age"":""20"",""Nation"":""中国"",""Born"":""广东茂名"",""Live"":""广东茂名"",""Ethnic"":""汉"",""Alipay"":""15627578642""}",""
"","","","","","survey-multi-choice","135","349822","0.0-8.0","187","1","2022-10-10 08:25:31","ebf9627b049f568eb4bf28942cb89901","120.231.49.53","Mozilla/5.0 (Windows NT 10.0; Win64; x64) AppleWebKit/537.36 (KHTML, like Gecko) Chrome/106.0.0.0 Safari/537.36 Edg/106.0.1370.37","WebKit","Edge","106.0.1370.37","Windows","10.0","19933","","{""Gender"":""男"",""Education"":""本科毕业"",""Income"":""￥35,000-￥69,999"",""Children"":""0"",""Race"":""亚洲人""}","[0,1,2,3,4]"
"","","","","","survey-multi-select","136","362190","0.0-9.0","187","1","2022-10-10 08:25:31","ebf9627b049f568eb4bf28942cb89901","120.231.49.53","Mozilla/5.0 (Windows NT 10.0; Win64; x64) AppleWebKit/537.36 (KHTML, like Gecko) Chrome/106.0.0.0 Safari/537.36 Edg/106.0.1370.37","WebKit","Edge","106.0.1370.37","Windows","10.0","12357","","{""Marriage"":[""未婚""],""Religion"":[""无宗教信仰""]}","[0,1]"
"","","","","","survey-multi-choice","137","369413","0.0-10.0","187","1","2022-10-10 08:25:31","ebf9627b049f568eb4bf28942cb89901","120.231.49.53","Mozilla/5.0 (Windows NT 10.0; Win64; x64) AppleWebKit/537.36 (KHTML, like Gecko) Chrome/106.0.0.0 Safari/537.36 Edg/106.0.1370.37","WebKit","Edge","106.0.1370.37","Windows","10.0","7218","","{""SES"":""6""}","[0]"
"","","","","","html-button-response","138","374133","0.0-11.0","187","1","2022-10-10 08:25:31","ebf9627b049f568eb4bf28942cb89901","120.231.49.53","Mozilla/5.0 (Windows NT 10.0; Win64; x64) AppleWebKit/537.36 (KHTML, like Gecko) Chrome/106.0.0.0 Safari/537.36 Edg/106.0.1370.37","WebKit","Edge","106.0.1370.37","Windows","10.0","4715","<p><strong>请判断下列陈述在多大程度上可以形容你？</p><p> (1 = ""和我一点都不像"" to 5 = ""非常像我"".)</strong></p>","0",""
"","","","","","survey-likert","139","393351","0.0-12.0","187","1","2022-10-10 08:25:31","ebf9627b049f568eb4bf28942cb89901","120.231.49.53","Mozilla/5.0 (Windows NT 10.0; Win64; x64) AppleWebKit/537.36 (KHTML, like Gecko) Chrome/106.0.0.0 Safari/537.36 Edg/106.0.1370.37","WebKit","Edge","106.0.1370.37","Windows","10.0","19212","","{""Aggression1"":0,""Aggression2"":4,""Aggression3"":4,""Aggression4"":0,""Aggression5"":4,""Aggression6"":4,""Aggression7"":4,""Aggression8"":0,""Aggression9"":0}","[0,1,2,3,4,5,6,7,8]"
"","","","","","html-button-response","140","395102","0.0-13.0","187","1","2022-10-10 08:25:31","ebf9627b049f568eb4bf28942cb89901","120.231.49.53","Mozilla/5.0 (Windows NT 10.0; Win64; x64) AppleWebKit/537.36 (KHTML, like Gecko) Chrome/106.0.0.0 Safari/537.36 Edg/106.0.1370.37","WebKit","Edge","106.0.1370.37","Windows","10.0","1745","<p><strong>请判断你在多大程度上同意下列陈述。</strong></p>","0",""
"","","","","","survey-likert","141","459799","0.0-14.0","187","1","2022-10-10 08:25:31","ebf9627b049f568eb4bf28942cb89901","120.231.49.53","Mozilla/5.0 (Windows NT 10.0; Win64; x64) AppleWebKit/537.36 (KHTML, like Gecko) Chrome/106.0.0.0 Safari/537.36 Edg/106.0.1370.37","WebKit","Edge","106.0.1370.37","Windows","10.0","64692","","{""scale25"":3,""scale4"":0,""scale28"":4,""scale21"":3,""scale6"":4,""scale1"":0,""scale17"":4,""scale24"":1,""scale18"":0,""scale15"":0,""scale3"":0,""scale5"":1,""scale23"":0,""scale20"":4,""scale22"":4,""scale19"":4,""scale9"":4,""scale8"":3,""scale12"":3,""scale14"":0,""scale16"":1,""scale7"":0,""scale10"":4,""scale2"":0,""scale13"":4,""scale11"":3,""scale26"":4,""scale27"":0}","[24,3,27,20,5,0,16,23,17,14,2,4,22,19,21,18,8,7,11,13,15,6,9,1,12,10,25,26]"
"","","","","","html-button-response","142","461566","0.0-15.0","187","1","2022-10-10 08:25:31","ebf9627b049f568eb4bf28942cb89901","120.231.49.53","Mozilla/5.0 (Windows NT 10.0; Win64; x64) AppleWebKit/537.36 (KHTML, like Gecko) Chrome/106.0.0.0 Safari/537.36 Edg/106.0.1370.37","WebKit","Edge","106.0.1370.37","Windows","10.0","1762","<p><strong>请判断你在多大程度上同意下列陈述。</strong></p>","0",""
"","","","","","survey-likert","143","492951","0.0-16.0","187","1","2022-10-10 08:25:31","ebf9627b049f568eb4bf28942cb89901","120.231.49.53","Mozilla/5.0 (Windows NT 10.0; Win64; x64) AppleWebKit/537.36 (KHTML, like Gecko) Chrome/106.0.0.0 Safari/537.36 Edg/106.0.1370.37","WebKit","Edge","106.0.1370.37","Windows","10.0","31379","","{""sdo10"":5,""sdo5"":6,""sdo4"":0,""sdo12"":6,""sdo11"":6,""sdo9"":6,""sdo6"":1,""sdo1"":6,""sdo14"":6,""sdo8"":5,""sdo13"":6,""sdo2"":0,""sdo16"":6,""sdo7"":0,""sdo15"":5,""sdo3"":6}","[9,4,3,11,10,8,5,0,13,7,12,1,15,6,14,2]"
"","","","","","html-button-response","144","494652","0.0-17.0","187","1","2022-10-10 08:25:31","ebf9627b049f568eb4bf28942cb89901","120.231.49.53","Mozilla/5.0 (Windows NT 10.0; Win64; x64) AppleWebKit/537.36 (KHTML, like Gecko) Chrome/106.0.0.0 Safari/537.36 Edg/106.0.1370.37","WebKit","Edge","106.0.1370.37","Windows","10.0","1697","<p><strong>请判断你在多大程度上同意下列陈述。</strong></p>","0",""
"","","","","","survey-likert","145","522102","0.0-18.0","187","1","2022-10-10 08:25:31","ebf9627b049f568eb4bf28942cb89901","120.231.49.53","Mozilla/5.0 (Windows NT 10.0; Win64; x64) AppleWebKit/537.36 (KHTML, like Gecko) Chrome/106.0.0.0 Safari/537.36 Edg/106.0.1370.37","WebKit","Edge","106.0.1370.37","Windows","10.0","27445","","{""caring1"":4,""liking1"":0,""caring2"":4,""protection1"":4,""liking2"":0,""caring3"":4,""protection2"":3,""liking3"":0,""protection3"":4,""caring4"":4,""liking4"":0,""protection4"":4,""caring5"":3,""liking5"":4,""protection5"":4}","[0,1,2,3,4,5,6,7,8,9,10,11,12,13,14]"
"","","","","","html-button-response","146","523421","0.0-19.0","187","1","2022-10-10 08:25:31","ebf9627b049f568eb4bf28942cb89901","120.231.49.53","Mozilla/5.0 (Windows NT 10.0; Win64; x64) AppleWebKit/537.36 (KHTML, like Gecko) Chrome/106.0.0.0 Safari/537.36 Edg/106.0.1370.37","WebKit","Edge","106.0.1370.37","Windows","10.0","1314","<p><strong>请判断下列场景中你的内心感受有多柔软。</strong></p>","0",""
"","","","","","survey-likert","147","543845","0.0-20.0","187","1","2022-10-10 08:25:31","ebf9627b049f568eb4bf28942cb89901","120.231.49.53","Mozilla/5.0 (Windows NT 10.0; Win64; x64) AppleWebKit/537.36 (KHTML, like Gecko) Chrome/106.0.0.0 Safari/537.36 Edg/106.0.1370.37","WebKit","Edge","106.0.1370.37","Windows","10.0","20420","","{""tenderness-positive1"":4,""tenderness-negative1"":1,""tenderness-negative2"":0,""tenderness-positive2"":4,""tenderness-positive3"":3,""tenderness-negative3"":1,""tenderness-positive4"":4,""tendereness-negative4"":3,""tendernness-negative5"":4,""tenderness-positive5"":4}","[0,1,2,3,4,5,6,7,8,9]"
"","","","","","survey-multi-choice","148","556197","0.0-21.0","187","1","2022-10-10 08:25:31","ebf9627b049f568eb4bf28942cb89901","120.231.49.53","Mozilla/5.0 (Windows NT 10.0; Win64; x64) AppleWebKit/537.36 (KHTML, like Gecko) Chrome/106.0.0.0 Safari/537.36 Edg/106.0.1370.37","WebKit","Edge","106.0.1370.37","Windows","10.0","12347","","{""Attention2"":""其他""}","[0]"
"","","","","","html-button-response","149","557228","0.0-22.0","187","1","2022-10-10 08:25:31","ebf9627b049f568eb4bf28942cb89901","120.231.49.53","Mozilla/5.0 (Windows NT 10.0; Win64; x64) AppleWebKit/537.36 (KHTML, like Gecko) Chrome/106.0.0.0 Safari/537.36 Edg/106.0.1370.37","WebKit","Edge","106.0.1370.37","Windows","10.0","1026","<p><strong>请判断你在多大程度上同意下列陈述。</strong></p>","0",""
"","","","","","survey-likert","150","591774","0.0-23.0","187","1","2022-10-10 08:25:31","ebf9627b049f568eb4bf28942cb89901","120.231.49.53","Mozilla/5.0 (Windows NT 10.0; Win64; x64) AppleWebKit/537.36 (KHTML, like Gecko) Chrome/106.0.0.0 Safari/537.36 Edg/106.0.1370.37","WebKit","Edge","106.0.1370.37","Windows","10.0","34541","","{""Nation7"":4,""Patri8"":3,""Nation6"":4,""Nation5"":3,""Patri3"":4,""Patri1"":3,""Patri12"":0,""Nation1"":3,""Nation4"":0,""Patri9"":1,""Patri6"":0,""Patri11"":0,""Nation3"":4,""Patri4"":4,""Nation8"":0,""Patri2"":4,""Patri7"":4,""Nation2"":4,""Patri10"":3,""Patri5"":4}","[18,7,17,16,2,0,11,12,15,8,5,10,14,3,19,1,6,13,9,4]"
"","","","","","html-button-response","151","593132","0.0-24.0","187","1","2022-10-10 08:25:31","ebf9627b049f568eb4bf28942cb89901","120.231.49.53","Mozilla/5.0 (Windows NT 10.0; Win64; x64) AppleWebKit/537.36 (KHTML, like Gecko) Chrome/106.0.0.0 Safari/537.36 Edg/106.0.1370.37","WebKit","Edge","106.0.1370.37","Windows","10.0","1353","<p><strong>请判断你在多大程度上同意下列陈述。</strong></p>","0",""
"","","","","","survey-likert","152","634999","0.0-25.0","187","1","2022-10-10 08:25:31","ebf9627b049f568eb4bf28942cb89901","120.231.49.53","Mozilla/5.0 (Windows NT 10.0; Win64; x64) AppleWebKit/537.36 (KHTML, like Gecko) Chrome/106.0.0.0 Safari/537.36 Edg/106.0.1370.37","WebKit","Edge","106.0.1370.37","Windows","10.0","41860","","{""vi4"":0,""vi1"":6,""hi3"":0,""hc3"":8,""Robot"":6,""vc2"":1,""hc1"":8,""hi2"":8,""hi1"":7,""hc4"":8,""vi3"":3,""vc3"":8,""hi4"":6,""hc2"":8,""vi2"":2,""vc4"":7,""vc1"":8}","[8,4,2,11,7,14,9,1,0,12,6,15,3,10,5,16,13]"
"","","","","","survey-text","153","639493","0.0-26.0","187","1","2022-10-10 08:25:31","ebf9627b049f568eb4bf28942cb89901","120.231.49.53","Mozilla/5.0 (Windows NT 10.0; Win64; x64) AppleWebKit/537.36 (KHTML, like Gecko) Chrome/106.0.0.0 Safari/537.36 Edg/106.0.1370.37","WebKit","Edge","106.0.1370.37","Windows","10.0","4470","","{""Comments"":""无""}",""
"","","","","","html-button-response","154","640758","0.0-27.0","187","1","2022-10-10 08:25:31","ebf9627b049f568eb4bf28942cb89901","120.231.49.53","Mozilla/5.0 (Windows NT 10.0; Win64; x64) AppleWebKit/537.36 (KHTML, like Gecko) Chrome/106.0.0.0 Safari/537.36 Edg/106.0.1370.37","WebKit","Edge","106.0.1370.37","Windows","10.0","1261","<strong><p>恭喜你完成了实验！</p><p>感谢您的参与。</p></strong>","0",""
