"success","timeout","failed_images","failed_audio","failed_video","trial_type","trial_index","time_elapsed","internal_node_id","run_id","condition","recorded_at","source_code_version","ip","user_agent","device","browser","browser_version","platform","platform_version","rt","stimulus","response","question_order"
"true","false","[]","[]","[]","preload","0","3546","0.0-0.0","214","1","2022-10-10 12:57:48","ebf9627b049f568eb4bf28942cb89901","119.120.212.145","Mozilla/5.0 (iPhone; CPU iPhone OS 15_1 like Mac OS X) AppleWebKit/605.1.15 (KHTML, like Gecko) Mobile/15E148 MicroMessenger/8.0.23(0x1800172f) NetType/WIFI Language/zh_CN","iPhone","Mozilla","","iOS","15_1","","","",""
"true","","","","","fullscreen","1","6332","0.0-1.0","214","1","2022-10-10 12:57:48","ebf9627b049f568eb4bf28942cb89901","119.120.212.145","Mozilla/5.0 (iPhone; CPU iPhone OS 15_1 like Mac OS X) AppleWebKit/605.1.15 (KHTML, like Gecko) Mobile/15E148 MicroMessenger/8.0.23(0x1800172f) NetType/WIFI Language/zh_CN","iPhone","Mozilla","","iOS","15_1","","","",""
"","","","","","html-button-response","2","12268","0.0-2.0","214","1","2022-10-10 12:57:48","ebf9627b049f568eb4bf28942cb89901","119.120.212.145","Mozilla/5.0 (iPhone; CPU iPhone OS 15_1 like Mac OS X) AppleWebKit/605.1.15 (KHTML, like Gecko) Mobile/15E148 MicroMessenger/8.0.23(0x1800172f) NetType/WIFI Language/zh_CN","iPhone","Mozilla","","iOS","15_1","5929","<p style=""font-size:20px;font-weight:bold;"">实验知情同意书</p><p style=""text-align:left;""><strong>实验名称：</strong>社会冲突研究</p><p style=""text-align:left;""><strong>主要研究者：</strong>韩晓春副教授（北京师范大学心理学部）</p><p style=""text-align:left;""><strong>联系方式：</strong>发送邮件至xiaochun.han@bnu.edu.cn</p><p style=""text-align:left;""><strong>研究目的：</strong>研究旨在了解人类面对群体冲突时的决策方式，以及相关的心理学特质。实验调查大约需要20分钟。</p><p style=""text-align:left;""><strong>实验流程：</strong>实验包含两部分。第一部分呈现一系列群体冲突场景，请你决定如何对这些冲突进行反应，大约需要10分钟完成。第二部分包含一系列人口统计学信息收集和心理学问卷，大约需要10分钟完成。</p><p style=""text-align:left;""><strong>参加及退出规则：</strong>参加本实验完全取决于您的个人意愿。在参与过程中，您可以随时退出，并且不用承担任何后果。</p><p style=""text-align:left;""><strong>隐私：</strong>本实验完全匿名进行，不会收集您的姓名或其他能够识别您身份的信息。实验中收集的作答仅用作科学研究使用，可能会在学术期刊/书籍上发表，或者用于教学，您的数据未来可能会和其他研究者或实验室分享，但您的个人身份不会被识别。</p><p style=""text-align:left;""><strong>实验报酬：</strong>实验完成后，您将获得15元人民币报酬，以感谢您的时间和努力。调查问卷中包含几道题目用以测验您作答时的认真度。只有完成全部实验，并且正确回答认真度测验的被试才能获得实验报酬。实验报酬将通过支付宝转账发放。</p><p style=""text-align:left;font-size:20px;""><strong>如果您同意以上实验知情同意书的内容，请点击'同意并且开始实验'按钮；否则请关闭浏览器界面，退出实验。</strong></p>","0",""
"","","","","","html-button-response","3","25939","0.0-3.0","214","1","2022-10-10 12:57:48","ebf9627b049f568eb4bf28942cb89901","119.120.212.145","Mozilla/5.0 (iPhone; CPU iPhone OS 15_1 like Mac OS X) AppleWebKit/605.1.15 (KHTML, like Gecko) Mobile/15E148 MicroMessenger/8.0.23(0x1800172f) NetType/WIFI Language/zh_CN","iPhone","Mozilla","","iOS","15_1","13667","<p ><strong>实验任务一：</strong></p><p>请想象你的国家与另一个国家发生了军事冲突。</p><p>你是国家军队的指挥官，你将如何在冲突中进行决策。</p><p>具体来说，作为军队指挥官，请你决定是否发射导弹进行打击。</p><p>接下来，你会面对一系列场景，请仔细阅读每个场景，然后进行决策。</p><p>这部分实验任务大约需要10分钟。</p><p><strong>实验过程中，请集中注意力。</strong></p>","0",""
"","","","","","html-keyboard-response","4","26946","0.0-4.0-0.0","214","1","2022-10-10 12:57:48","ebf9627b049f568eb4bf28942cb89901","119.120.212.145","Mozilla/5.0 (iPhone; CPU iPhone OS 15_1 like Mac OS X) AppleWebKit/605.1.15 (KHTML, like Gecko) Mobile/15E148 MicroMessenger/8.0.23(0x1800172f) NetType/WIFI Language/zh_CN","iPhone","Mozilla","","iOS","15_1","null","<div style=""font-size:60px;"">+</div>","null",""
"","","","","","html-button-response","5","42094","0.0-4.0-1.0","214","1","2022-10-10 12:57:48","ebf9627b049f568eb4bf28942cb89901","119.120.212.145","Mozilla/5.0 (iPhone; CPU iPhone OS 15_1 like Mac OS X) AppleWebKit/605.1.15 (KHTML, like Gecko) Mobile/15E148 MicroMessenger/8.0.23(0x1800172f) NetType/WIFI Language/zh_CN","iPhone","Mozilla","","iOS","15_1","15139","<p>作为军队的指挥官，你可以选择发射导弹杀死 <strong>5名</strong> 敌国士兵，但会误杀附近的 <strong>1名</strong> 敌国平民。</p> <p>平民照片如下图所示。</p> <p></p> <img src='stimuli/faces/NFF2.jpg', style='max-width: 30%;'> </img> <p><strong>你是否选择发射武器？</strong></p>","0",""
"","","","","","html-keyboard-response","6","43101","0.0-4.0-0.1","214","1","2022-10-10 12:57:48","ebf9627b049f568eb4bf28942cb89901","119.120.212.145","Mozilla/5.0 (iPhone; CPU iPhone OS 15_1 like Mac OS X) AppleWebKit/605.1.15 (KHTML, like Gecko) Mobile/15E148 MicroMessenger/8.0.23(0x1800172f) NetType/WIFI Language/zh_CN","iPhone","Mozilla","","iOS","15_1","null","<div style=""font-size:60px;"">+</div>","null",""
"","","","","","html-button-response","7","46421","0.0-4.0-1.1","214","1","2022-10-10 12:57:48","ebf9627b049f568eb4bf28942cb89901","119.120.212.145","Mozilla/5.0 (iPhone; CPU iPhone OS 15_1 like Mac OS X) AppleWebKit/605.1.15 (KHTML, like Gecko) Mobile/15E148 MicroMessenger/8.0.23(0x1800172f) NetType/WIFI Language/zh_CN","iPhone","Mozilla","","iOS","15_1","3313","<p>作为军队的指挥官，你可以选择发射导弹杀死 <strong>8名</strong> 敌国士兵，但会误杀附近的 <strong>1名</strong> 敌国平民。</p> <p>平民照片如下图所示。</p> <p></p> <img src='stimuli/faces/NFF4.jpg', style='max-width: 30%;'> </img> <p><strong>你是否选择发射武器？</strong></p>","0",""
"","","","","","html-keyboard-response","8","47426","0.0-4.0-0.2","214","1","2022-10-10 12:57:48","ebf9627b049f568eb4bf28942cb89901","119.120.212.145","Mozilla/5.0 (iPhone; CPU iPhone OS 15_1 like Mac OS X) AppleWebKit/605.1.15 (KHTML, like Gecko) Mobile/15E148 MicroMessenger/8.0.23(0x1800172f) NetType/WIFI Language/zh_CN","iPhone","Mozilla","","iOS","15_1","null","<div style=""font-size:60px;"">+</div>","null",""
"","","","","","html-button-response","9","48923","0.0-4.0-1.2","214","1","2022-10-10 12:57:48","ebf9627b049f568eb4bf28942cb89901","119.120.212.145","Mozilla/5.0 (iPhone; CPU iPhone OS 15_1 like Mac OS X) AppleWebKit/605.1.15 (KHTML, like Gecko) Mobile/15E148 MicroMessenger/8.0.23(0x1800172f) NetType/WIFI Language/zh_CN","iPhone","Mozilla","","iOS","15_1","1488","<p>作为军队的指挥官，你可以选择发射导弹杀死 <strong>3名</strong> 敌国士兵，但会误杀附近的 <strong>1名</strong> 敌国平民。</p> <p>平民照片如下图所示。</p> <p></p> <img src='stimuli/faces/NFM6.jpg', style='max-width: 30%;'> </img> <p><strong>你是否选择发射武器？</strong></p>","0",""
"","","","","","html-keyboard-response","10","49928","0.0-4.0-0.3","214","1","2022-10-10 12:57:48","ebf9627b049f568eb4bf28942cb89901","119.120.212.145","Mozilla/5.0 (iPhone; CPU iPhone OS 15_1 like Mac OS X) AppleWebKit/605.1.15 (KHTML, like Gecko) Mobile/15E148 MicroMessenger/8.0.23(0x1800172f) NetType/WIFI Language/zh_CN","iPhone","Mozilla","","iOS","15_1","null","<div style=""font-size:60px;"">+</div>","null",""
"","","","","","html-button-response","11","54717","0.0-4.0-1.3","214","1","2022-10-10 12:57:48","ebf9627b049f568eb4bf28942cb89901","119.120.212.145","Mozilla/5.0 (iPhone; CPU iPhone OS 15_1 like Mac OS X) AppleWebKit/605.1.15 (KHTML, like Gecko) Mobile/15E148 MicroMessenger/8.0.23(0x1800172f) NetType/WIFI Language/zh_CN","iPhone","Mozilla","","iOS","15_1","4781","<p>作为军队的指挥官，你可以选择发射导弹杀死 <strong>4名</strong> 敌国士兵，但会误杀附近的 <strong>1名</strong> 敌国平民。</p> <p>平民照片如下图所示。</p> <p></p> <img src='stimuli/faces/NFF6.jpg', style='max-width: 30%;'> </img> <p><strong>你是否选择发射武器？</strong></p>","0",""
"","","","","","html-keyboard-response","12","55721","0.0-4.0-0.4","214","1","2022-10-10 12:57:48","ebf9627b049f568eb4bf28942cb89901","119.120.212.145","Mozilla/5.0 (iPhone; CPU iPhone OS 15_1 like Mac OS X) AppleWebKit/605.1.15 (KHTML, like Gecko) Mobile/15E148 MicroMessenger/8.0.23(0x1800172f) NetType/WIFI Language/zh_CN","iPhone","Mozilla","","iOS","15_1","null","<div style=""font-size:60px;"">+</div>","null",""
"","","","","","html-button-response","13","58136","0.0-4.0-1.4","214","1","2022-10-10 12:57:48","ebf9627b049f568eb4bf28942cb89901","119.120.212.145","Mozilla/5.0 (iPhone; CPU iPhone OS 15_1 like Mac OS X) AppleWebKit/605.1.15 (KHTML, like Gecko) Mobile/15E148 MicroMessenger/8.0.23(0x1800172f) NetType/WIFI Language/zh_CN","iPhone","Mozilla","","iOS","15_1","2408","<p>作为军队的指挥官，你可以选择发射导弹杀死 <strong>10名</strong> 敌国士兵，但会误杀附近的 <strong>1名</strong> 敌国平民。</p> <p>平民照片如下图所示。</p> <p></p> <img src='stimuli/faces/NFM1.jpg', style='max-width: 30%;'> </img> <p><strong>你是否选择发射武器？</strong></p>","0",""
"","","","","","html-keyboard-response","14","59140","0.0-4.0-0.5","214","1","2022-10-10 12:57:48","ebf9627b049f568eb4bf28942cb89901","119.120.212.145","Mozilla/5.0 (iPhone; CPU iPhone OS 15_1 like Mac OS X) AppleWebKit/605.1.15 (KHTML, like Gecko) Mobile/15E148 MicroMessenger/8.0.23(0x1800172f) NetType/WIFI Language/zh_CN","iPhone","Mozilla","","iOS","15_1","null","<div style=""font-size:60px;"">+</div>","null",""
"","","","","","html-button-response","15","62485","0.0-4.0-1.5","214","1","2022-10-10 12:57:48","ebf9627b049f568eb4bf28942cb89901","119.120.212.145","Mozilla/5.0 (iPhone; CPU iPhone OS 15_1 like Mac OS X) AppleWebKit/605.1.15 (KHTML, like Gecko) Mobile/15E148 MicroMessenger/8.0.23(0x1800172f) NetType/WIFI Language/zh_CN","iPhone","Mozilla","","iOS","15_1","3337","<p>作为军队的指挥官，你可以选择发射导弹杀死 <strong>10名</strong> 敌国士兵，但会炸毁附近的 <strong>1棵</strong> 敌国树木。</p> <p>树木的照片如下图所示。</p> <p></p> <img src='stimuli/trees/16.png', style='max-width: 30%;'> </img> <p><strong>你是否选择发射武器？</strong></p>","0",""
"","","","","","html-keyboard-response","16","63489","0.0-4.0-0.6","214","1","2022-10-10 12:57:48","ebf9627b049f568eb4bf28942cb89901","119.120.212.145","Mozilla/5.0 (iPhone; CPU iPhone OS 15_1 like Mac OS X) AppleWebKit/605.1.15 (KHTML, like Gecko) Mobile/15E148 MicroMessenger/8.0.23(0x1800172f) NetType/WIFI Language/zh_CN","iPhone","Mozilla","","iOS","15_1","null","<div style=""font-size:60px;"">+</div>","null",""
"","","","","","html-button-response","17","65330","0.0-4.0-1.6","214","1","2022-10-10 12:57:48","ebf9627b049f568eb4bf28942cb89901","119.120.212.145","Mozilla/5.0 (iPhone; CPU iPhone OS 15_1 like Mac OS X) AppleWebKit/605.1.15 (KHTML, like Gecko) Mobile/15E148 MicroMessenger/8.0.23(0x1800172f) NetType/WIFI Language/zh_CN","iPhone","Mozilla","","iOS","15_1","1832","<p>作为军队的指挥官，你可以选择发射导弹杀死 <strong>2名</strong> 敌国士兵，但会炸毁附近的 <strong>1棵</strong> 敌国树木。</p> <p>树木的照片如下图所示。</p> <p></p> <img src='stimuli/trees/11.png', style='max-width: 30%;'> </img> <p><strong>你是否选择发射武器？</strong></p>","0",""
"","","","","","html-keyboard-response","18","66335","0.0-4.0-0.7","214","1","2022-10-10 12:57:48","ebf9627b049f568eb4bf28942cb89901","119.120.212.145","Mozilla/5.0 (iPhone; CPU iPhone OS 15_1 like Mac OS X) AppleWebKit/605.1.15 (KHTML, like Gecko) Mobile/15E148 MicroMessenger/8.0.23(0x1800172f) NetType/WIFI Language/zh_CN","iPhone","Mozilla","","iOS","15_1","null","<div style=""font-size:60px;"">+</div>","null",""
"","","","","","html-button-response","19","67971","0.0-4.0-1.7","214","1","2022-10-10 12:57:48","ebf9627b049f568eb4bf28942cb89901","119.120.212.145","Mozilla/5.0 (iPhone; CPU iPhone OS 15_1 like Mac OS X) AppleWebKit/605.1.15 (KHTML, like Gecko) Mobile/15E148 MicroMessenger/8.0.23(0x1800172f) NetType/WIFI Language/zh_CN","iPhone","Mozilla","","iOS","15_1","1628","<p>作为军队的指挥官，你可以选择发射导弹杀死 <strong>8名</strong> 敌国士兵，但会误杀附近的 <strong>1名</strong> 敌国平民。</p> <p>平民照片如下图所示。</p> <p></p> <img src='stimuli/faces/NFF6.jpg', style='max-width: 30%;'> </img> <p><strong>你是否选择发射武器？</strong></p>","0",""
"","","","","","html-keyboard-response","20","68976","0.0-4.0-0.8","214","1","2022-10-10 12:57:48","ebf9627b049f568eb4bf28942cb89901","119.120.212.145","Mozilla/5.0 (iPhone; CPU iPhone OS 15_1 like Mac OS X) AppleWebKit/605.1.15 (KHTML, like Gecko) Mobile/15E148 MicroMessenger/8.0.23(0x1800172f) NetType/WIFI Language/zh_CN","iPhone","Mozilla","","iOS","15_1","null","<div style=""font-size:60px;"">+</div>","null",""
"","","","","","html-button-response","21","70880","0.0-4.0-1.8","214","1","2022-10-10 12:57:48","ebf9627b049f568eb4bf28942cb89901","119.120.212.145","Mozilla/5.0 (iPhone; CPU iPhone OS 15_1 like Mac OS X) AppleWebKit/605.1.15 (KHTML, like Gecko) Mobile/15E148 MicroMessenger/8.0.23(0x1800172f) NetType/WIFI Language/zh_CN","iPhone","Mozilla","","iOS","15_1","1895","<p>作为军队的指挥官，你可以选择发射导弹杀死 <strong>10名</strong> 敌国士兵，但会炸毁附近的 <strong>1棵</strong> 敌国树木。</p> <p>树木的照片如下图所示。</p> <p></p> <img src='stimuli/trees/12.png', style='max-width: 30%;'> </img> <p><strong>你是否选择发射武器？</strong></p>","0",""
"","","","","","html-keyboard-response","22","71886","0.0-4.0-0.9","214","1","2022-10-10 12:57:48","ebf9627b049f568eb4bf28942cb89901","119.120.212.145","Mozilla/5.0 (iPhone; CPU iPhone OS 15_1 like Mac OS X) AppleWebKit/605.1.15 (KHTML, like Gecko) Mobile/15E148 MicroMessenger/8.0.23(0x1800172f) NetType/WIFI Language/zh_CN","iPhone","Mozilla","","iOS","15_1","null","<div style=""font-size:60px;"">+</div>","null",""
"","","","","","html-button-response","23","73469","0.0-4.0-1.9","214","1","2022-10-10 12:57:48","ebf9627b049f568eb4bf28942cb89901","119.120.212.145","Mozilla/5.0 (iPhone; CPU iPhone OS 15_1 like Mac OS X) AppleWebKit/605.1.15 (KHTML, like Gecko) Mobile/15E148 MicroMessenger/8.0.23(0x1800172f) NetType/WIFI Language/zh_CN","iPhone","Mozilla","","iOS","15_1","1573","<p>作为军队的指挥官，你可以选择发射导弹杀死 <strong>5名</strong> 敌国士兵，但会炸毁附近的 <strong>1棵</strong> 敌国树木。</p> <p>树木的照片如下图所示。</p> <p></p> <img src='stimuli/trees/13.png', style='max-width: 30%;'> </img> <p><strong>你是否选择发射武器？</strong></p>","0",""
"","","","","","html-keyboard-response","24","74475","0.0-4.0-0.10","214","1","2022-10-10 12:57:48","ebf9627b049f568eb4bf28942cb89901","119.120.212.145","Mozilla/5.0 (iPhone; CPU iPhone OS 15_1 like Mac OS X) AppleWebKit/605.1.15 (KHTML, like Gecko) Mobile/15E148 MicroMessenger/8.0.23(0x1800172f) NetType/WIFI Language/zh_CN","iPhone","Mozilla","","iOS","15_1","null","<div style=""font-size:60px;"">+</div>","null",""
"","","","","","html-button-response","25","76187","0.0-4.0-1.10","214","1","2022-10-10 12:57:48","ebf9627b049f568eb4bf28942cb89901","119.120.212.145","Mozilla/5.0 (iPhone; CPU iPhone OS 15_1 like Mac OS X) AppleWebKit/605.1.15 (KHTML, like Gecko) Mobile/15E148 MicroMessenger/8.0.23(0x1800172f) NetType/WIFI Language/zh_CN","iPhone","Mozilla","","iOS","15_1","1705","<p>作为军队的指挥官，你可以选择发射导弹杀死 <strong>10名</strong> 敌国士兵，但会误杀附近的 <strong>1名</strong> 敌国平民。</p> <p>平民照片如下图所示。</p> <p></p> <img src='stimuli/faces/NFM8.jpg', style='max-width: 30%;'> </img> <p><strong>你是否选择发射武器？</strong></p>","0",""
"","","","","","html-keyboard-response","26","77193","0.0-4.0-0.11","214","1","2022-10-10 12:57:48","ebf9627b049f568eb4bf28942cb89901","119.120.212.145","Mozilla/5.0 (iPhone; CPU iPhone OS 15_1 like Mac OS X) AppleWebKit/605.1.15 (KHTML, like Gecko) Mobile/15E148 MicroMessenger/8.0.23(0x1800172f) NetType/WIFI Language/zh_CN","iPhone","Mozilla","","iOS","15_1","null","<div style=""font-size:60px;"">+</div>","null",""
"","","","","","html-button-response","27","78703","0.0-4.0-1.11","214","1","2022-10-10 12:57:48","ebf9627b049f568eb4bf28942cb89901","119.120.212.145","Mozilla/5.0 (iPhone; CPU iPhone OS 15_1 like Mac OS X) AppleWebKit/605.1.15 (KHTML, like Gecko) Mobile/15E148 MicroMessenger/8.0.23(0x1800172f) NetType/WIFI Language/zh_CN","iPhone","Mozilla","","iOS","15_1","1501","<p>作为军队的指挥官，你可以选择发射导弹杀死 <strong>1名</strong> 敌国士兵，但会炸毁附近的 <strong>1棵</strong> 敌国树木。</p> <p>树木的照片如下图所示。</p> <p></p> <img src='stimuli/trees/6.png', style='max-width: 30%;'> </img> <p><strong>你是否选择发射武器？</strong></p>","0",""
"","","","","","html-keyboard-response","28","79710","0.0-4.0-0.12","214","1","2022-10-10 12:57:48","ebf9627b049f568eb4bf28942cb89901","119.120.212.145","Mozilla/5.0 (iPhone; CPU iPhone OS 15_1 like Mac OS X) AppleWebKit/605.1.15 (KHTML, like Gecko) Mobile/15E148 MicroMessenger/8.0.23(0x1800172f) NetType/WIFI Language/zh_CN","iPhone","Mozilla","","iOS","15_1","null","<div style=""font-size:60px;"">+</div>","null",""
"","","","","","html-button-response","29","80947","0.0-4.0-1.12","214","1","2022-10-10 12:57:48","ebf9627b049f568eb4bf28942cb89901","119.120.212.145","Mozilla/5.0 (iPhone; CPU iPhone OS 15_1 like Mac OS X) AppleWebKit/605.1.15 (KHTML, like Gecko) Mobile/15E148 MicroMessenger/8.0.23(0x1800172f) NetType/WIFI Language/zh_CN","iPhone","Mozilla","","iOS","15_1","1229","<p>作为军队的指挥官，你可以选择发射导弹杀死 <strong>1名</strong> 敌国士兵，但会误杀附近的 <strong>1名</strong> 敌国平民。</p> <p>平民照片如下图所示。</p> <p></p> <img src='stimuli/faces/NFM8.jpg', style='max-width: 30%;'> </img> <p><strong>你是否选择发射武器？</strong></p>","1",""
"","","","","","html-keyboard-response","30","81954","0.0-4.0-0.13","214","1","2022-10-10 12:57:48","ebf9627b049f568eb4bf28942cb89901","119.120.212.145","Mozilla/5.0 (iPhone; CPU iPhone OS 15_1 like Mac OS X) AppleWebKit/605.1.15 (KHTML, like Gecko) Mobile/15E148 MicroMessenger/8.0.23(0x1800172f) NetType/WIFI Language/zh_CN","iPhone","Mozilla","","iOS","15_1","null","<div style=""font-size:60px;"">+</div>","null",""
"","","","","","html-button-response","31","83362","0.0-4.0-1.13","214","1","2022-10-10 12:57:48","ebf9627b049f568eb4bf28942cb89901","119.120.212.145","Mozilla/5.0 (iPhone; CPU iPhone OS 15_1 like Mac OS X) AppleWebKit/605.1.15 (KHTML, like Gecko) Mobile/15E148 MicroMessenger/8.0.23(0x1800172f) NetType/WIFI Language/zh_CN","iPhone","Mozilla","","iOS","15_1","1398","<p>作为军队的指挥官，你可以选择发射导弹杀死 <strong>3名</strong> 敌国士兵，但会炸毁附近的 <strong>1棵</strong> 敌国树木。</p> <p>树木的照片如下图所示。</p> <p></p> <img src='stimuli/trees/12.png', style='max-width: 30%;'> </img> <p><strong>你是否选择发射武器？</strong></p>","0",""
"","","","","","html-keyboard-response","32","84368","0.0-4.0-0.14","214","1","2022-10-10 12:57:48","ebf9627b049f568eb4bf28942cb89901","119.120.212.145","Mozilla/5.0 (iPhone; CPU iPhone OS 15_1 like Mac OS X) AppleWebKit/605.1.15 (KHTML, like Gecko) Mobile/15E148 MicroMessenger/8.0.23(0x1800172f) NetType/WIFI Language/zh_CN","iPhone","Mozilla","","iOS","15_1","null","<div style=""font-size:60px;"">+</div>","null",""
"","","","","","html-button-response","33","85520","0.0-4.0-1.14","214","1","2022-10-10 12:57:48","ebf9627b049f568eb4bf28942cb89901","119.120.212.145","Mozilla/5.0 (iPhone; CPU iPhone OS 15_1 like Mac OS X) AppleWebKit/605.1.15 (KHTML, like Gecko) Mobile/15E148 MicroMessenger/8.0.23(0x1800172f) NetType/WIFI Language/zh_CN","iPhone","Mozilla","","iOS","15_1","1143","<p>作为军队的指挥官，你可以选择发射导弹杀死 <strong>9名</strong> 敌国士兵，但会炸毁附近的 <strong>1棵</strong> 敌国树木。</p> <p>树木的照片如下图所示。</p> <p></p> <img src='stimuli/trees/4.png', style='max-width: 30%;'> </img> <p><strong>你是否选择发射武器？</strong></p>","0",""
"","","","","","html-keyboard-response","34","86528","0.0-4.0-0.15","214","1","2022-10-10 12:57:48","ebf9627b049f568eb4bf28942cb89901","119.120.212.145","Mozilla/5.0 (iPhone; CPU iPhone OS 15_1 like Mac OS X) AppleWebKit/605.1.15 (KHTML, like Gecko) Mobile/15E148 MicroMessenger/8.0.23(0x1800172f) NetType/WIFI Language/zh_CN","iPhone","Mozilla","","iOS","15_1","null","<div style=""font-size:60px;"">+</div>","null",""
"","","","","","html-button-response","35","87679","0.0-4.0-1.15","214","1","2022-10-10 12:57:48","ebf9627b049f568eb4bf28942cb89901","119.120.212.145","Mozilla/5.0 (iPhone; CPU iPhone OS 15_1 like Mac OS X) AppleWebKit/605.1.15 (KHTML, like Gecko) Mobile/15E148 MicroMessenger/8.0.23(0x1800172f) NetType/WIFI Language/zh_CN","iPhone","Mozilla","","iOS","15_1","1142","<p>作为军队的指挥官，你可以选择发射导弹杀死 <strong>9名</strong> 敌国士兵，但会炸毁附近的 <strong>1棵</strong> 敌国树木。</p> <p>树木的照片如下图所示。</p> <p></p> <img src='stimuli/trees/13.png', style='max-width: 30%;'> </img> <p><strong>你是否选择发射武器？</strong></p>","0",""
"","","","","","html-keyboard-response","36","88685","0.0-4.0-0.16","214","1","2022-10-10 12:57:48","ebf9627b049f568eb4bf28942cb89901","119.120.212.145","Mozilla/5.0 (iPhone; CPU iPhone OS 15_1 like Mac OS X) AppleWebKit/605.1.15 (KHTML, like Gecko) Mobile/15E148 MicroMessenger/8.0.23(0x1800172f) NetType/WIFI Language/zh_CN","iPhone","Mozilla","","iOS","15_1","null","<div style=""font-size:60px;"">+</div>","null",""
"","","","","","html-button-response","37","89612","0.0-4.0-1.16","214","1","2022-10-10 12:57:48","ebf9627b049f568eb4bf28942cb89901","119.120.212.145","Mozilla/5.0 (iPhone; CPU iPhone OS 15_1 like Mac OS X) AppleWebKit/605.1.15 (KHTML, like Gecko) Mobile/15E148 MicroMessenger/8.0.23(0x1800172f) NetType/WIFI Language/zh_CN","iPhone","Mozilla","","iOS","15_1","918","<p>作为军队的指挥官，你可以选择发射导弹杀死 <strong>8名</strong> 敌国士兵，但会炸毁附近的 <strong>1棵</strong> 敌国树木。</p> <p>树木的照片如下图所示。</p> <p></p> <img src='stimuli/trees/7.png', style='max-width: 30%;'> </img> <p><strong>你是否选择发射武器？</strong></p>","0",""
"","","","","","html-keyboard-response","38","90617","0.0-4.0-0.17","214","1","2022-10-10 12:57:48","ebf9627b049f568eb4bf28942cb89901","119.120.212.145","Mozilla/5.0 (iPhone; CPU iPhone OS 15_1 like Mac OS X) AppleWebKit/605.1.15 (KHTML, like Gecko) Mobile/15E148 MicroMessenger/8.0.23(0x1800172f) NetType/WIFI Language/zh_CN","iPhone","Mozilla","","iOS","15_1","null","<div style=""font-size:60px;"">+</div>","null",""
"","","","","","html-button-response","39","91450","0.0-4.0-1.17","214","1","2022-10-10 12:57:48","ebf9627b049f568eb4bf28942cb89901","119.120.212.145","Mozilla/5.0 (iPhone; CPU iPhone OS 15_1 like Mac OS X) AppleWebKit/605.1.15 (KHTML, like Gecko) Mobile/15E148 MicroMessenger/8.0.23(0x1800172f) NetType/WIFI Language/zh_CN","iPhone","Mozilla","","iOS","15_1","826","<p>作为军队的指挥官，你可以选择发射导弹杀死 <strong>5名</strong> 敌国士兵，但会炸毁附近的 <strong>1棵</strong> 敌国树木。</p> <p>树木的照片如下图所示。</p> <p></p> <img src='stimuli/trees/16.png', style='max-width: 30%;'> </img> <p><strong>你是否选择发射武器？</strong></p>","0",""
"","","","","","html-keyboard-response","40","92455","0.0-4.0-0.18","214","1","2022-10-10 12:57:48","ebf9627b049f568eb4bf28942cb89901","119.120.212.145","Mozilla/5.0 (iPhone; CPU iPhone OS 15_1 like Mac OS X) AppleWebKit/605.1.15 (KHTML, like Gecko) Mobile/15E148 MicroMessenger/8.0.23(0x1800172f) NetType/WIFI Language/zh_CN","iPhone","Mozilla","","iOS","15_1","null","<div style=""font-size:60px;"">+</div>","null",""
"","","","","","html-button-response","41","93695","0.0-4.0-1.18","214","1","2022-10-10 12:57:48","ebf9627b049f568eb4bf28942cb89901","119.120.212.145","Mozilla/5.0 (iPhone; CPU iPhone OS 15_1 like Mac OS X) AppleWebKit/605.1.15 (KHTML, like Gecko) Mobile/15E148 MicroMessenger/8.0.23(0x1800172f) NetType/WIFI Language/zh_CN","iPhone","Mozilla","","iOS","15_1","1230","<p>作为军队的指挥官，你可以选择发射导弹杀死 <strong>7名</strong> 敌国士兵，但会误杀附近的 <strong>1名</strong> 敌国平民。</p> <p>平民照片如下图所示。</p> <p></p> <img src='stimuli/faces/NFM4.jpg', style='max-width: 30%;'> </img> <p><strong>你是否选择发射武器？</strong></p>","0",""
"","","","","","html-keyboard-response","42","94701","0.0-4.0-0.19","214","1","2022-10-10 12:57:48","ebf9627b049f568eb4bf28942cb89901","119.120.212.145","Mozilla/5.0 (iPhone; CPU iPhone OS 15_1 like Mac OS X) AppleWebKit/605.1.15 (KHTML, like Gecko) Mobile/15E148 MicroMessenger/8.0.23(0x1800172f) NetType/WIFI Language/zh_CN","iPhone","Mozilla","","iOS","15_1","null","<div style=""font-size:60px;"">+</div>","null",""
"","","","","","html-button-response","43","95970","0.0-4.0-1.19","214","1","2022-10-10 12:57:48","ebf9627b049f568eb4bf28942cb89901","119.120.212.145","Mozilla/5.0 (iPhone; CPU iPhone OS 15_1 like Mac OS X) AppleWebKit/605.1.15 (KHTML, like Gecko) Mobile/15E148 MicroMessenger/8.0.23(0x1800172f) NetType/WIFI Language/zh_CN","iPhone","Mozilla","","iOS","15_1","1259","<p>作为军队的指挥官，你可以选择发射导弹杀死 <strong>9名</strong> 敌国士兵，但会误杀附近的 <strong>1名</strong> 敌国平民。</p> <p>平民照片如下图所示。</p> <p></p> <img src='stimuli/faces/NFM3.jpg', style='max-width: 30%;'> </img> <p><strong>你是否选择发射武器？</strong></p>","0",""
"","","","","","html-keyboard-response","44","96976","0.0-4.0-0.20","214","1","2022-10-10 12:57:48","ebf9627b049f568eb4bf28942cb89901","119.120.212.145","Mozilla/5.0 (iPhone; CPU iPhone OS 15_1 like Mac OS X) AppleWebKit/605.1.15 (KHTML, like Gecko) Mobile/15E148 MicroMessenger/8.0.23(0x1800172f) NetType/WIFI Language/zh_CN","iPhone","Mozilla","","iOS","15_1","null","<div style=""font-size:60px;"">+</div>","null",""
"","","","","","html-button-response","45","98241","0.0-4.0-1.20","214","1","2022-10-10 12:57:48","ebf9627b049f568eb4bf28942cb89901","119.120.212.145","Mozilla/5.0 (iPhone; CPU iPhone OS 15_1 like Mac OS X) AppleWebKit/605.1.15 (KHTML, like Gecko) Mobile/15E148 MicroMessenger/8.0.23(0x1800172f) NetType/WIFI Language/zh_CN","iPhone","Mozilla","","iOS","15_1","1259","<p>作为军队的指挥官，你可以选择发射导弹杀死 <strong>4名</strong> 敌国士兵，但会误杀附近的 <strong>1名</strong> 敌国平民。</p> <p>平民照片如下图所示。</p> <p></p> <img src='stimuli/faces/NFM5.jpg', style='max-width: 30%;'> </img> <p><strong>你是否选择发射武器？</strong></p>","0",""
"","","","","","html-keyboard-response","46","99248","0.0-4.0-0.21","214","1","2022-10-10 12:57:48","ebf9627b049f568eb4bf28942cb89901","119.120.212.145","Mozilla/5.0 (iPhone; CPU iPhone OS 15_1 like Mac OS X) AppleWebKit/605.1.15 (KHTML, like Gecko) Mobile/15E148 MicroMessenger/8.0.23(0x1800172f) NetType/WIFI Language/zh_CN","iPhone","Mozilla","","iOS","15_1","null","<div style=""font-size:60px;"">+</div>","null",""
"","","","","","html-button-response","47","100027","0.0-4.0-1.21","214","1","2022-10-10 12:57:48","ebf9627b049f568eb4bf28942cb89901","119.120.212.145","Mozilla/5.0 (iPhone; CPU iPhone OS 15_1 like Mac OS X) AppleWebKit/605.1.15 (KHTML, like Gecko) Mobile/15E148 MicroMessenger/8.0.23(0x1800172f) NetType/WIFI Language/zh_CN","iPhone","Mozilla","","iOS","15_1","770","<p>作为军队的指挥官，你可以选择发射导弹杀死 <strong>8名</strong> 敌国士兵，但会炸毁附近的 <strong>1棵</strong> 敌国树木。</p> <p>树木的照片如下图所示。</p> <p></p> <img src='stimuli/trees/11.png', style='max-width: 30%;'> </img> <p><strong>你是否选择发射武器？</strong></p>","0",""
"","","","","","html-keyboard-response","48","101033","0.0-4.0-0.22","214","1","2022-10-10 12:57:48","ebf9627b049f568eb4bf28942cb89901","119.120.212.145","Mozilla/5.0 (iPhone; CPU iPhone OS 15_1 like Mac OS X) AppleWebKit/605.1.15 (KHTML, like Gecko) Mobile/15E148 MicroMessenger/8.0.23(0x1800172f) NetType/WIFI Language/zh_CN","iPhone","Mozilla","","iOS","15_1","null","<div style=""font-size:60px;"">+</div>","null",""
"","","","","","html-button-response","49","102020","0.0-4.0-1.22","214","1","2022-10-10 12:57:48","ebf9627b049f568eb4bf28942cb89901","119.120.212.145","Mozilla/5.0 (iPhone; CPU iPhone OS 15_1 like Mac OS X) AppleWebKit/605.1.15 (KHTML, like Gecko) Mobile/15E148 MicroMessenger/8.0.23(0x1800172f) NetType/WIFI Language/zh_CN","iPhone","Mozilla","","iOS","15_1","981","<p>作为军队的指挥官，你可以选择发射导弹杀死 <strong>8名</strong> 敌国士兵，但会炸毁附近的 <strong>1棵</strong> 敌国树木。</p> <p>树木的照片如下图所示。</p> <p></p> <img src='stimuli/trees/1.png', style='max-width: 30%;'> </img> <p><strong>你是否选择发射武器？</strong></p>","0",""
"","","","","","html-keyboard-response","50","103027","0.0-4.0-0.23","214","1","2022-10-10 12:57:48","ebf9627b049f568eb4bf28942cb89901","119.120.212.145","Mozilla/5.0 (iPhone; CPU iPhone OS 15_1 like Mac OS X) AppleWebKit/605.1.15 (KHTML, like Gecko) Mobile/15E148 MicroMessenger/8.0.23(0x1800172f) NetType/WIFI Language/zh_CN","iPhone","Mozilla","","iOS","15_1","null","<div style=""font-size:60px;"">+</div>","null",""
"","","","","","html-button-response","51","103951","0.0-4.0-1.23","214","1","2022-10-10 12:57:48","ebf9627b049f568eb4bf28942cb89901","119.120.212.145","Mozilla/5.0 (iPhone; CPU iPhone OS 15_1 like Mac OS X) AppleWebKit/605.1.15 (KHTML, like Gecko) Mobile/15E148 MicroMessenger/8.0.23(0x1800172f) NetType/WIFI Language/zh_CN","iPhone","Mozilla","","iOS","15_1","919","<p>作为军队的指挥官，你可以选择发射导弹杀死 <strong>5名</strong> 敌国士兵，但会炸毁附近的 <strong>1棵</strong> 敌国树木。</p> <p>树木的照片如下图所示。</p> <p></p> <img src='stimuli/trees/3.png', style='max-width: 30%;'> </img> <p><strong>你是否选择发射武器？</strong></p>","0",""
"","","","","","html-keyboard-response","52","104957","0.0-4.0-0.24","214","1","2022-10-10 12:57:48","ebf9627b049f568eb4bf28942cb89901","119.120.212.145","Mozilla/5.0 (iPhone; CPU iPhone OS 15_1 like Mac OS X) AppleWebKit/605.1.15 (KHTML, like Gecko) Mobile/15E148 MicroMessenger/8.0.23(0x1800172f) NetType/WIFI Language/zh_CN","iPhone","Mozilla","","iOS","15_1","null","<div style=""font-size:60px;"">+</div>","null",""
"","","","","","html-button-response","53","106201","0.0-4.0-1.24","214","1","2022-10-10 12:57:48","ebf9627b049f568eb4bf28942cb89901","119.120.212.145","Mozilla/5.0 (iPhone; CPU iPhone OS 15_1 like Mac OS X) AppleWebKit/605.1.15 (KHTML, like Gecko) Mobile/15E148 MicroMessenger/8.0.23(0x1800172f) NetType/WIFI Language/zh_CN","iPhone","Mozilla","","iOS","15_1","1234","<p>作为军队的指挥官，你可以选择发射导弹杀死 <strong>4名</strong> 敌国士兵，但会误杀附近的 <strong>1名</strong> 敌国平民。</p> <p>平民照片如下图所示。</p> <p></p> <img src='stimuli/faces/NFF1.jpg', style='max-width: 30%;'> </img> <p><strong>你是否选择发射武器？</strong></p>","0",""
"","","","","","html-keyboard-response","54","107207","0.0-4.0-0.25","214","1","2022-10-10 12:57:48","ebf9627b049f568eb4bf28942cb89901","119.120.212.145","Mozilla/5.0 (iPhone; CPU iPhone OS 15_1 like Mac OS X) AppleWebKit/605.1.15 (KHTML, like Gecko) Mobile/15E148 MicroMessenger/8.0.23(0x1800172f) NetType/WIFI Language/zh_CN","iPhone","Mozilla","","iOS","15_1","null","<div style=""font-size:60px;"">+</div>","null",""
"","","","","","html-button-response","55","108034","0.0-4.0-1.25","214","1","2022-10-10 12:57:48","ebf9627b049f568eb4bf28942cb89901","119.120.212.145","Mozilla/5.0 (iPhone; CPU iPhone OS 15_1 like Mac OS X) AppleWebKit/605.1.15 (KHTML, like Gecko) Mobile/15E148 MicroMessenger/8.0.23(0x1800172f) NetType/WIFI Language/zh_CN","iPhone","Mozilla","","iOS","15_1","817","<p>作为军队的指挥官，你可以选择发射导弹杀死 <strong>8名</strong> 敌国士兵，但会炸毁附近的 <strong>1棵</strong> 敌国树木。</p> <p>树木的照片如下图所示。</p> <p></p> <img src='stimuli/trees/8.png', style='max-width: 30%;'> </img> <p><strong>你是否选择发射武器？</strong></p>","0",""
"","","","","","html-keyboard-response","56","109040","0.0-4.0-0.26","214","1","2022-10-10 12:57:48","ebf9627b049f568eb4bf28942cb89901","119.120.212.145","Mozilla/5.0 (iPhone; CPU iPhone OS 15_1 like Mac OS X) AppleWebKit/605.1.15 (KHTML, like Gecko) Mobile/15E148 MicroMessenger/8.0.23(0x1800172f) NetType/WIFI Language/zh_CN","iPhone","Mozilla","","iOS","15_1","null","<div style=""font-size:60px;"">+</div>","null",""
"","","","","","html-button-response","57","110320","0.0-4.0-1.26","214","1","2022-10-10 12:57:48","ebf9627b049f568eb4bf28942cb89901","119.120.212.145","Mozilla/5.0 (iPhone; CPU iPhone OS 15_1 like Mac OS X) AppleWebKit/605.1.15 (KHTML, like Gecko) Mobile/15E148 MicroMessenger/8.0.23(0x1800172f) NetType/WIFI Language/zh_CN","iPhone","Mozilla","","iOS","15_1","1270","<p>作为军队的指挥官，你可以选择发射导弹杀死 <strong>6名</strong> 敌国士兵，但会误杀附近的 <strong>1名</strong> 敌国平民。</p> <p>平民照片如下图所示。</p> <p></p> <img src='stimuli/faces/NFM7.jpg', style='max-width: 30%;'> </img> <p><strong>你是否选择发射武器？</strong></p>","0",""
"","","","","","html-keyboard-response","58","111327","0.0-4.0-0.27","214","1","2022-10-10 12:57:48","ebf9627b049f568eb4bf28942cb89901","119.120.212.145","Mozilla/5.0 (iPhone; CPU iPhone OS 15_1 like Mac OS X) AppleWebKit/605.1.15 (KHTML, like Gecko) Mobile/15E148 MicroMessenger/8.0.23(0x1800172f) NetType/WIFI Language/zh_CN","iPhone","Mozilla","","iOS","15_1","null","<div style=""font-size:60px;"">+</div>","null",""
"","","","","","html-button-response","59","112509","0.0-4.0-1.27","214","1","2022-10-10 12:57:48","ebf9627b049f568eb4bf28942cb89901","119.120.212.145","Mozilla/5.0 (iPhone; CPU iPhone OS 15_1 like Mac OS X) AppleWebKit/605.1.15 (KHTML, like Gecko) Mobile/15E148 MicroMessenger/8.0.23(0x1800172f) NetType/WIFI Language/zh_CN","iPhone","Mozilla","","iOS","15_1","1172","<p>作为军队的指挥官，你可以选择发射导弹杀死 <strong>8名</strong> 敌国士兵，但会炸毁附近的 <strong>1棵</strong> 敌国树木。</p> <p>树木的照片如下图所示。</p> <p></p> <img src='stimuli/trees/3.png', style='max-width: 30%;'> </img> <p><strong>你是否选择发射武器？</strong></p>","0",""
"","","","","","html-keyboard-response","60","113514","0.0-4.0-0.28","214","1","2022-10-10 12:57:48","ebf9627b049f568eb4bf28942cb89901","119.120.212.145","Mozilla/5.0 (iPhone; CPU iPhone OS 15_1 like Mac OS X) AppleWebKit/605.1.15 (KHTML, like Gecko) Mobile/15E148 MicroMessenger/8.0.23(0x1800172f) NetType/WIFI Language/zh_CN","iPhone","Mozilla","","iOS","15_1","null","<div style=""font-size:60px;"">+</div>","null",""
"","","","","","html-button-response","61","114442","0.0-4.0-1.28","214","1","2022-10-10 12:57:48","ebf9627b049f568eb4bf28942cb89901","119.120.212.145","Mozilla/5.0 (iPhone; CPU iPhone OS 15_1 like Mac OS X) AppleWebKit/605.1.15 (KHTML, like Gecko) Mobile/15E148 MicroMessenger/8.0.23(0x1800172f) NetType/WIFI Language/zh_CN","iPhone","Mozilla","","iOS","15_1","915","<p>作为军队的指挥官，你可以选择发射导弹杀死 <strong>4名</strong> 敌国士兵，但会误杀附近的 <strong>1名</strong> 敌国平民。</p> <p>平民照片如下图所示。</p> <p></p> <img src='stimuli/faces/NFF7.jpg', style='max-width: 30%;'> </img> <p><strong>你是否选择发射武器？</strong></p>","0",""
"","","","","","html-keyboard-response","62","115449","0.0-4.0-0.29","214","1","2022-10-10 12:57:48","ebf9627b049f568eb4bf28942cb89901","119.120.212.145","Mozilla/5.0 (iPhone; CPU iPhone OS 15_1 like Mac OS X) AppleWebKit/605.1.15 (KHTML, like Gecko) Mobile/15E148 MicroMessenger/8.0.23(0x1800172f) NetType/WIFI Language/zh_CN","iPhone","Mozilla","","iOS","15_1","null","<div style=""font-size:60px;"">+</div>","null",""
"","","","","","html-button-response","63","116401","0.0-4.0-1.29","214","1","2022-10-10 12:57:48","ebf9627b049f568eb4bf28942cb89901","119.120.212.145","Mozilla/5.0 (iPhone; CPU iPhone OS 15_1 like Mac OS X) AppleWebKit/605.1.15 (KHTML, like Gecko) Mobile/15E148 MicroMessenger/8.0.23(0x1800172f) NetType/WIFI Language/zh_CN","iPhone","Mozilla","","iOS","15_1","942","<p>作为军队的指挥官，你可以选择发射导弹杀死 <strong>8名</strong> 敌国士兵，但会炸毁附近的 <strong>1棵</strong> 敌国树木。</p> <p>树木的照片如下图所示。</p> <p></p> <img src='stimuli/trees/6.png', style='max-width: 30%;'> </img> <p><strong>你是否选择发射武器？</strong></p>","0",""
"","","","","","html-keyboard-response","64","117408","0.0-4.0-0.30","214","1","2022-10-10 12:57:48","ebf9627b049f568eb4bf28942cb89901","119.120.212.145","Mozilla/5.0 (iPhone; CPU iPhone OS 15_1 like Mac OS X) AppleWebKit/605.1.15 (KHTML, like Gecko) Mobile/15E148 MicroMessenger/8.0.23(0x1800172f) NetType/WIFI Language/zh_CN","iPhone","Mozilla","","iOS","15_1","null","<div style=""font-size:60px;"">+</div>","null",""
"","","","","","html-button-response","65","118352","0.0-4.0-1.30","214","1","2022-10-10 12:57:48","ebf9627b049f568eb4bf28942cb89901","119.120.212.145","Mozilla/5.0 (iPhone; CPU iPhone OS 15_1 like Mac OS X) AppleWebKit/605.1.15 (KHTML, like Gecko) Mobile/15E148 MicroMessenger/8.0.23(0x1800172f) NetType/WIFI Language/zh_CN","iPhone","Mozilla","","iOS","15_1","933","<p>作为军队的指挥官，你可以选择发射导弹杀死 <strong>7名</strong> 敌国士兵，但会炸毁附近的 <strong>1棵</strong> 敌国树木。</p> <p>树木的照片如下图所示。</p> <p></p> <img src='stimuli/trees/15.png', style='max-width: 30%;'> </img> <p><strong>你是否选择发射武器？</strong></p>","0",""
"","","","","","html-keyboard-response","66","119359","0.0-4.0-0.31","214","1","2022-10-10 12:57:48","ebf9627b049f568eb4bf28942cb89901","119.120.212.145","Mozilla/5.0 (iPhone; CPU iPhone OS 15_1 like Mac OS X) AppleWebKit/605.1.15 (KHTML, like Gecko) Mobile/15E148 MicroMessenger/8.0.23(0x1800172f) NetType/WIFI Language/zh_CN","iPhone","Mozilla","","iOS","15_1","null","<div style=""font-size:60px;"">+</div>","null",""
"","","","","","html-button-response","67","121561","0.0-4.0-1.31","214","1","2022-10-10 12:57:48","ebf9627b049f568eb4bf28942cb89901","119.120.212.145","Mozilla/5.0 (iPhone; CPU iPhone OS 15_1 like Mac OS X) AppleWebKit/605.1.15 (KHTML, like Gecko) Mobile/15E148 MicroMessenger/8.0.23(0x1800172f) NetType/WIFI Language/zh_CN","iPhone","Mozilla","","iOS","15_1","2190","<p>作为军队的指挥官，你可以选择发射导弹杀死 <strong>8名</strong> 敌国士兵，但会误杀附近的 <strong>1名</strong> 敌国平民。</p> <p>平民照片如下图所示。</p> <p></p> <img src='stimuli/faces/NFM5.jpg', style='max-width: 30%;'> </img> <p><strong>你是否选择发射武器？</strong></p>","0",""
"","","","","","html-keyboard-response","68","122568","0.0-4.0-0.32","214","1","2022-10-10 12:57:48","ebf9627b049f568eb4bf28942cb89901","119.120.212.145","Mozilla/5.0 (iPhone; CPU iPhone OS 15_1 like Mac OS X) AppleWebKit/605.1.15 (KHTML, like Gecko) Mobile/15E148 MicroMessenger/8.0.23(0x1800172f) NetType/WIFI Language/zh_CN","iPhone","Mozilla","","iOS","15_1","null","<div style=""font-size:60px;"">+</div>","null",""
"","","","","","html-button-response","69","123825","0.0-4.0-1.32","214","1","2022-10-10 12:57:48","ebf9627b049f568eb4bf28942cb89901","119.120.212.145","Mozilla/5.0 (iPhone; CPU iPhone OS 15_1 like Mac OS X) AppleWebKit/605.1.15 (KHTML, like Gecko) Mobile/15E148 MicroMessenger/8.0.23(0x1800172f) NetType/WIFI Language/zh_CN","iPhone","Mozilla","","iOS","15_1","1246","<p>作为军队的指挥官，你可以选择发射导弹杀死 <strong>9名</strong> 敌国士兵，但会误杀附近的 <strong>1名</strong> 敌国平民。</p> <p>平民照片如下图所示。</p> <p></p> <img src='stimuli/faces/NFF2.jpg', style='max-width: 30%;'> </img> <p><strong>你是否选择发射武器？</strong></p>","0",""
"","","","","","html-keyboard-response","70","124831","0.0-4.0-0.33","214","1","2022-10-10 12:57:48","ebf9627b049f568eb4bf28942cb89901","119.120.212.145","Mozilla/5.0 (iPhone; CPU iPhone OS 15_1 like Mac OS X) AppleWebKit/605.1.15 (KHTML, like Gecko) Mobile/15E148 MicroMessenger/8.0.23(0x1800172f) NetType/WIFI Language/zh_CN","iPhone","Mozilla","","iOS","15_1","null","<div style=""font-size:60px;"">+</div>","null",""
"","","","","","html-button-response","71","126543","0.0-4.0-1.33","214","1","2022-10-10 12:57:48","ebf9627b049f568eb4bf28942cb89901","119.120.212.145","Mozilla/5.0 (iPhone; CPU iPhone OS 15_1 like Mac OS X) AppleWebKit/605.1.15 (KHTML, like Gecko) Mobile/15E148 MicroMessenger/8.0.23(0x1800172f) NetType/WIFI Language/zh_CN","iPhone","Mozilla","","iOS","15_1","1695","<p>作为军队的指挥官，你可以选择发射导弹杀死 <strong>6名</strong> 敌国士兵，但会误杀附近的 <strong>1名</strong> 敌国平民。</p> <p>平民照片如下图所示。</p> <p></p> <img src='stimuli/faces/NFF5.jpg', style='max-width: 30%;'> </img> <p><strong>你是否选择发射武器？</strong></p>","0",""
"","","","","","html-keyboard-response","72","127550","0.0-4.0-0.34","214","1","2022-10-10 12:57:48","ebf9627b049f568eb4bf28942cb89901","119.120.212.145","Mozilla/5.0 (iPhone; CPU iPhone OS 15_1 like Mac OS X) AppleWebKit/605.1.15 (KHTML, like Gecko) Mobile/15E148 MicroMessenger/8.0.23(0x1800172f) NetType/WIFI Language/zh_CN","iPhone","Mozilla","","iOS","15_1","null","<div style=""font-size:60px;"">+</div>","null",""
"","","","","","html-button-response","73","128551","0.0-4.0-1.34","214","1","2022-10-10 12:57:48","ebf9627b049f568eb4bf28942cb89901","119.120.212.145","Mozilla/5.0 (iPhone; CPU iPhone OS 15_1 like Mac OS X) AppleWebKit/605.1.15 (KHTML, like Gecko) Mobile/15E148 MicroMessenger/8.0.23(0x1800172f) NetType/WIFI Language/zh_CN","iPhone","Mozilla","","iOS","15_1","990","<p>作为军队的指挥官，你可以选择发射导弹杀死 <strong>6名</strong> 敌国士兵，但会炸毁附近的 <strong>1棵</strong> 敌国树木。</p> <p>树木的照片如下图所示。</p> <p></p> <img src='stimuli/trees/14.png', style='max-width: 30%;'> </img> <p><strong>你是否选择发射武器？</strong></p>","0",""
"","","","","","html-keyboard-response","74","129559","0.0-4.0-0.35","214","1","2022-10-10 12:57:48","ebf9627b049f568eb4bf28942cb89901","119.120.212.145","Mozilla/5.0 (iPhone; CPU iPhone OS 15_1 like Mac OS X) AppleWebKit/605.1.15 (KHTML, like Gecko) Mobile/15E148 MicroMessenger/8.0.23(0x1800172f) NetType/WIFI Language/zh_CN","iPhone","Mozilla","","iOS","15_1","null","<div style=""font-size:60px;"">+</div>","null",""
"","","","","","html-button-response","75","130858","0.0-4.0-1.35","214","1","2022-10-10 12:57:48","ebf9627b049f568eb4bf28942cb89901","119.120.212.145","Mozilla/5.0 (iPhone; CPU iPhone OS 15_1 like Mac OS X) AppleWebKit/605.1.15 (KHTML, like Gecko) Mobile/15E148 MicroMessenger/8.0.23(0x1800172f) NetType/WIFI Language/zh_CN","iPhone","Mozilla","","iOS","15_1","1287","<p>作为军队的指挥官，你可以选择发射导弹杀死 <strong>2名</strong> 敌国士兵，但会误杀附近的 <strong>1名</strong> 敌国平民。</p> <p>平民照片如下图所示。</p> <p></p> <img src='stimuli/faces/NFM4.jpg', style='max-width: 30%;'> </img> <p><strong>你是否选择发射武器？</strong></p>","1",""
"","","","","","html-keyboard-response","76","131866","0.0-4.0-0.36","214","1","2022-10-10 12:57:48","ebf9627b049f568eb4bf28942cb89901","119.120.212.145","Mozilla/5.0 (iPhone; CPU iPhone OS 15_1 like Mac OS X) AppleWebKit/605.1.15 (KHTML, like Gecko) Mobile/15E148 MicroMessenger/8.0.23(0x1800172f) NetType/WIFI Language/zh_CN","iPhone","Mozilla","","iOS","15_1","null","<div style=""font-size:60px;"">+</div>","null",""
"","","","","","html-button-response","77","133684","0.0-4.0-1.36","214","1","2022-10-10 12:57:48","ebf9627b049f568eb4bf28942cb89901","119.120.212.145","Mozilla/5.0 (iPhone; CPU iPhone OS 15_1 like Mac OS X) AppleWebKit/605.1.15 (KHTML, like Gecko) Mobile/15E148 MicroMessenger/8.0.23(0x1800172f) NetType/WIFI Language/zh_CN","iPhone","Mozilla","","iOS","15_1","1807","<p>作为军队的指挥官，你可以选择发射导弹杀死 <strong>1名</strong> 敌国士兵，但会炸毁附近的 <strong>1棵</strong> 敌国树木。</p> <p>树木的照片如下图所示。</p> <p></p> <img src='stimuli/trees/14.png', style='max-width: 30%;'> </img> <p><strong>你是否选择发射武器？</strong></p>","0",""
"","","","","","html-keyboard-response","78","134692","0.0-4.0-0.37","214","1","2022-10-10 12:57:48","ebf9627b049f568eb4bf28942cb89901","119.120.212.145","Mozilla/5.0 (iPhone; CPU iPhone OS 15_1 like Mac OS X) AppleWebKit/605.1.15 (KHTML, like Gecko) Mobile/15E148 MicroMessenger/8.0.23(0x1800172f) NetType/WIFI Language/zh_CN","iPhone","Mozilla","","iOS","15_1","null","<div style=""font-size:60px;"">+</div>","null",""
"","","","","","html-button-response","79","135908","0.0-4.0-1.37","214","1","2022-10-10 12:57:48","ebf9627b049f568eb4bf28942cb89901","119.120.212.145","Mozilla/5.0 (iPhone; CPU iPhone OS 15_1 like Mac OS X) AppleWebKit/605.1.15 (KHTML, like Gecko) Mobile/15E148 MicroMessenger/8.0.23(0x1800172f) NetType/WIFI Language/zh_CN","iPhone","Mozilla","","iOS","15_1","1204","<p>作为军队的指挥官，你可以选择发射导弹杀死 <strong>8名</strong> 敌国士兵，但会误杀附近的 <strong>1名</strong> 敌国平民。</p> <p>平民照片如下图所示。</p> <p></p> <img src='stimuli/faces/NFM6.jpg', style='max-width: 30%;'> </img> <p><strong>你是否选择发射武器？</strong></p>","0",""
"","","","","","html-keyboard-response","80","136916","0.0-4.0-0.38","214","1","2022-10-10 12:57:48","ebf9627b049f568eb4bf28942cb89901","119.120.212.145","Mozilla/5.0 (iPhone; CPU iPhone OS 15_1 like Mac OS X) AppleWebKit/605.1.15 (KHTML, like Gecko) Mobile/15E148 MicroMessenger/8.0.23(0x1800172f) NetType/WIFI Language/zh_CN","iPhone","Mozilla","","iOS","15_1","null","<div style=""font-size:60px;"">+</div>","null",""
"","","","","","html-button-response","81","138373","0.0-4.0-1.38","214","1","2022-10-10 12:57:48","ebf9627b049f568eb4bf28942cb89901","119.120.212.145","Mozilla/5.0 (iPhone; CPU iPhone OS 15_1 like Mac OS X) AppleWebKit/605.1.15 (KHTML, like Gecko) Mobile/15E148 MicroMessenger/8.0.23(0x1800172f) NetType/WIFI Language/zh_CN","iPhone","Mozilla","","iOS","15_1","1442","<p>作为军队的指挥官，你可以选择发射导弹杀死 <strong>8名</strong> 敌国士兵，但会误杀附近的 <strong>1名</strong> 敌国平民。</p> <p>平民照片如下图所示。</p> <p></p> <img src='stimuli/faces/NFF7.jpg', style='max-width: 30%;'> </img> <p><strong>你是否选择发射武器？</strong></p>","0",""
"","","","","","html-keyboard-response","82","139381","0.0-4.0-0.39","214","1","2022-10-10 12:57:48","ebf9627b049f568eb4bf28942cb89901","119.120.212.145","Mozilla/5.0 (iPhone; CPU iPhone OS 15_1 like Mac OS X) AppleWebKit/605.1.15 (KHTML, like Gecko) Mobile/15E148 MicroMessenger/8.0.23(0x1800172f) NetType/WIFI Language/zh_CN","iPhone","Mozilla","","iOS","15_1","null","<div style=""font-size:60px;"">+</div>","null",""
"","","","","","html-button-response","83","140589","0.0-4.0-1.39","214","1","2022-10-10 12:57:48","ebf9627b049f568eb4bf28942cb89901","119.120.212.145","Mozilla/5.0 (iPhone; CPU iPhone OS 15_1 like Mac OS X) AppleWebKit/605.1.15 (KHTML, like Gecko) Mobile/15E148 MicroMessenger/8.0.23(0x1800172f) NetType/WIFI Language/zh_CN","iPhone","Mozilla","","iOS","15_1","1196","<p>作为军队的指挥官，你可以选择发射导弹杀死 <strong>1名</strong> 敌国士兵，但会炸毁附近的 <strong>1棵</strong> 敌国树木。</p> <p>树木的照片如下图所示。</p> <p></p> <img src='stimuli/trees/8.png', style='max-width: 30%;'> </img> <p><strong>你是否选择发射武器？</strong></p>","0",""
"","","","","","html-keyboard-response","84","141596","0.0-4.0-0.40","214","1","2022-10-10 12:57:48","ebf9627b049f568eb4bf28942cb89901","119.120.212.145","Mozilla/5.0 (iPhone; CPU iPhone OS 15_1 like Mac OS X) AppleWebKit/605.1.15 (KHTML, like Gecko) Mobile/15E148 MicroMessenger/8.0.23(0x1800172f) NetType/WIFI Language/zh_CN","iPhone","Mozilla","","iOS","15_1","null","<div style=""font-size:60px;"">+</div>","null",""
"","","","","","html-button-response","85","142698","0.0-4.0-1.40","214","1","2022-10-10 12:57:48","ebf9627b049f568eb4bf28942cb89901","119.120.212.145","Mozilla/5.0 (iPhone; CPU iPhone OS 15_1 like Mac OS X) AppleWebKit/605.1.15 (KHTML, like Gecko) Mobile/15E148 MicroMessenger/8.0.23(0x1800172f) NetType/WIFI Language/zh_CN","iPhone","Mozilla","","iOS","15_1","1090","<p>作为军队的指挥官，你可以选择发射导弹杀死 <strong>4名</strong> 敌国士兵，但会误杀附近的 <strong>1名</strong> 敌国平民。</p> <p>平民照片如下图所示。</p> <p></p> <img src='stimuli/faces/NFM3.jpg', style='max-width: 30%;'> </img> <p><strong>你是否选择发射武器？</strong></p>","0",""
"","","","","","html-keyboard-response","86","143705","0.0-4.0-0.41","214","1","2022-10-10 12:57:48","ebf9627b049f568eb4bf28942cb89901","119.120.212.145","Mozilla/5.0 (iPhone; CPU iPhone OS 15_1 like Mac OS X) AppleWebKit/605.1.15 (KHTML, like Gecko) Mobile/15E148 MicroMessenger/8.0.23(0x1800172f) NetType/WIFI Language/zh_CN","iPhone","Mozilla","","iOS","15_1","null","<div style=""font-size:60px;"">+</div>","null",""
"","","","","","html-button-response","87","144651","0.0-4.0-1.41","214","1","2022-10-10 12:57:48","ebf9627b049f568eb4bf28942cb89901","119.120.212.145","Mozilla/5.0 (iPhone; CPU iPhone OS 15_1 like Mac OS X) AppleWebKit/605.1.15 (KHTML, like Gecko) Mobile/15E148 MicroMessenger/8.0.23(0x1800172f) NetType/WIFI Language/zh_CN","iPhone","Mozilla","","iOS","15_1","934","<p>作为军队的指挥官，你可以选择发射导弹杀死 <strong>6名</strong> 敌国士兵，但会炸毁附近的 <strong>1棵</strong> 敌国树木。</p> <p>树木的照片如下图所示。</p> <p></p> <img src='stimuli/trees/2.png', style='max-width: 30%;'> </img> <p><strong>你是否选择发射武器？</strong></p>","0",""
"","","","","","html-keyboard-response","88","145660","0.0-4.0-0.42","214","1","2022-10-10 12:57:48","ebf9627b049f568eb4bf28942cb89901","119.120.212.145","Mozilla/5.0 (iPhone; CPU iPhone OS 15_1 like Mac OS X) AppleWebKit/605.1.15 (KHTML, like Gecko) Mobile/15E148 MicroMessenger/8.0.23(0x1800172f) NetType/WIFI Language/zh_CN","iPhone","Mozilla","","iOS","15_1","null","<div style=""font-size:60px;"">+</div>","null",""
"","","","","","html-button-response","89","146524","0.0-4.0-1.42","214","1","2022-10-10 12:57:48","ebf9627b049f568eb4bf28942cb89901","119.120.212.145","Mozilla/5.0 (iPhone; CPU iPhone OS 15_1 like Mac OS X) AppleWebKit/605.1.15 (KHTML, like Gecko) Mobile/15E148 MicroMessenger/8.0.23(0x1800172f) NetType/WIFI Language/zh_CN","iPhone","Mozilla","","iOS","15_1","851","<p>作为军队的指挥官，你可以选择发射导弹杀死 <strong>5名</strong> 敌国士兵，但会炸毁附近的 <strong>1棵</strong> 敌国树木。</p> <p>树木的照片如下图所示。</p> <p></p> <img src='stimuli/trees/9.png', style='max-width: 30%;'> </img> <p><strong>你是否选择发射武器？</strong></p>","0",""
"","","","","","html-keyboard-response","90","147533","0.0-4.0-0.43","214","1","2022-10-10 12:57:48","ebf9627b049f568eb4bf28942cb89901","119.120.212.145","Mozilla/5.0 (iPhone; CPU iPhone OS 15_1 like Mac OS X) AppleWebKit/605.1.15 (KHTML, like Gecko) Mobile/15E148 MicroMessenger/8.0.23(0x1800172f) NetType/WIFI Language/zh_CN","iPhone","Mozilla","","iOS","15_1","null","<div style=""font-size:60px;"">+</div>","null",""
"","","","","","html-button-response","91","148708","0.0-4.0-1.43","214","1","2022-10-10 12:57:48","ebf9627b049f568eb4bf28942cb89901","119.120.212.145","Mozilla/5.0 (iPhone; CPU iPhone OS 15_1 like Mac OS X) AppleWebKit/605.1.15 (KHTML, like Gecko) Mobile/15E148 MicroMessenger/8.0.23(0x1800172f) NetType/WIFI Language/zh_CN","iPhone","Mozilla","","iOS","15_1","1164","<p>作为军队的指挥官，你可以选择发射导弹杀死 <strong>2名</strong> 敌国士兵，但会炸毁附近的 <strong>1棵</strong> 敌国树木。</p> <p>树木的照片如下图所示。</p> <p></p> <img src='stimuli/trees/4.png', style='max-width: 30%;'> </img> <p><strong>你是否选择发射武器？</strong></p>","0",""
"","","","","","html-keyboard-response","92","149716","0.0-4.0-0.44","214","1","2022-10-10 12:57:48","ebf9627b049f568eb4bf28942cb89901","119.120.212.145","Mozilla/5.0 (iPhone; CPU iPhone OS 15_1 like Mac OS X) AppleWebKit/605.1.15 (KHTML, like Gecko) Mobile/15E148 MicroMessenger/8.0.23(0x1800172f) NetType/WIFI Language/zh_CN","iPhone","Mozilla","","iOS","15_1","null","<div style=""font-size:60px;"">+</div>","null",""
"","","","","","html-button-response","93","150834","0.0-4.0-1.44","214","1","2022-10-10 12:57:48","ebf9627b049f568eb4bf28942cb89901","119.120.212.145","Mozilla/5.0 (iPhone; CPU iPhone OS 15_1 like Mac OS X) AppleWebKit/605.1.15 (KHTML, like Gecko) Mobile/15E148 MicroMessenger/8.0.23(0x1800172f) NetType/WIFI Language/zh_CN","iPhone","Mozilla","","iOS","15_1","1105","<p>作为军队的指挥官，你可以选择发射导弹杀死 <strong>8名</strong> 敌国士兵，但会误杀附近的 <strong>1名</strong> 敌国平民。</p> <p>平民照片如下图所示。</p> <p></p> <img src='stimuli/faces/NFF1.jpg', style='max-width: 30%;'> </img> <p><strong>你是否选择发射武器？</strong></p>","0",""
"","","","","","html-keyboard-response","94","151842","0.0-4.0-0.45","214","1","2022-10-10 12:57:48","ebf9627b049f568eb4bf28942cb89901","119.120.212.145","Mozilla/5.0 (iPhone; CPU iPhone OS 15_1 like Mac OS X) AppleWebKit/605.1.15 (KHTML, like Gecko) Mobile/15E148 MicroMessenger/8.0.23(0x1800172f) NetType/WIFI Language/zh_CN","iPhone","Mozilla","","iOS","15_1","null","<div style=""font-size:60px;"">+</div>","null",""
"","","","","","html-button-response","95","152957","0.0-4.0-1.45","214","1","2022-10-10 12:57:48","ebf9627b049f568eb4bf28942cb89901","119.120.212.145","Mozilla/5.0 (iPhone; CPU iPhone OS 15_1 like Mac OS X) AppleWebKit/605.1.15 (KHTML, like Gecko) Mobile/15E148 MicroMessenger/8.0.23(0x1800172f) NetType/WIFI Language/zh_CN","iPhone","Mozilla","","iOS","15_1","1098","<p>作为军队的指挥官，你可以选择发射导弹杀死 <strong>1名</strong> 敌国士兵，但会误杀附近的 <strong>1名</strong> 敌国平民。</p> <p>平民照片如下图所示。</p> <p></p> <img src='stimuli/faces/NFM2.jpg', style='max-width: 30%;'> </img> <p><strong>你是否选择发射武器？</strong></p>","1",""
"","","","","","html-keyboard-response","96","153964","0.0-4.0-0.46","214","1","2022-10-10 12:57:48","ebf9627b049f568eb4bf28942cb89901","119.120.212.145","Mozilla/5.0 (iPhone; CPU iPhone OS 15_1 like Mac OS X) AppleWebKit/605.1.15 (KHTML, like Gecko) Mobile/15E148 MicroMessenger/8.0.23(0x1800172f) NetType/WIFI Language/zh_CN","iPhone","Mozilla","","iOS","15_1","null","<div style=""font-size:60px;"">+</div>","null",""
"","","","","","html-button-response","97","155701","0.0-4.0-1.46","214","1","2022-10-10 12:57:48","ebf9627b049f568eb4bf28942cb89901","119.120.212.145","Mozilla/5.0 (iPhone; CPU iPhone OS 15_1 like Mac OS X) AppleWebKit/605.1.15 (KHTML, like Gecko) Mobile/15E148 MicroMessenger/8.0.23(0x1800172f) NetType/WIFI Language/zh_CN","iPhone","Mozilla","","iOS","15_1","1724","<p>作为军队的指挥官，你可以选择发射导弹杀死 <strong>2名</strong> 敌国士兵，但会误杀附近的 <strong>1名</strong> 敌国平民。</p> <p>平民照片如下图所示。</p> <p></p> <img src='stimuli/faces/NFF8.jpg', style='max-width: 30%;'> </img> <p><strong>你是否选择发射武器？</strong></p>","1",""
"","","","","","html-keyboard-response","98","156710","0.0-4.0-0.47","214","1","2022-10-10 12:57:48","ebf9627b049f568eb4bf28942cb89901","119.120.212.145","Mozilla/5.0 (iPhone; CPU iPhone OS 15_1 like Mac OS X) AppleWebKit/605.1.15 (KHTML, like Gecko) Mobile/15E148 MicroMessenger/8.0.23(0x1800172f) NetType/WIFI Language/zh_CN","iPhone","Mozilla","","iOS","15_1","null","<div style=""font-size:60px;"">+</div>","null",""
"","","","","","html-button-response","99","157739","0.0-4.0-1.47","214","1","2022-10-10 12:57:48","ebf9627b049f568eb4bf28942cb89901","119.120.212.145","Mozilla/5.0 (iPhone; CPU iPhone OS 15_1 like Mac OS X) AppleWebKit/605.1.15 (KHTML, like Gecko) Mobile/15E148 MicroMessenger/8.0.23(0x1800172f) NetType/WIFI Language/zh_CN","iPhone","Mozilla","","iOS","15_1","1013","<p>作为军队的指挥官，你可以选择发射导弹杀死 <strong>8名</strong> 敌国士兵，但会误杀附近的 <strong>1名</strong> 敌国平民。</p> <p>平民照片如下图所示。</p> <p></p> <img src='stimuli/faces/NFM2.jpg', style='max-width: 30%;'> </img> <p><strong>你是否选择发射武器？</strong></p>","0",""
"","","","","","html-keyboard-response","100","158747","0.0-4.0-0.48","214","1","2022-10-10 12:57:48","ebf9627b049f568eb4bf28942cb89901","119.120.212.145","Mozilla/5.0 (iPhone; CPU iPhone OS 15_1 like Mac OS X) AppleWebKit/605.1.15 (KHTML, like Gecko) Mobile/15E148 MicroMessenger/8.0.23(0x1800172f) NetType/WIFI Language/zh_CN","iPhone","Mozilla","","iOS","15_1","null","<div style=""font-size:60px;"">+</div>","null",""
"","","","","","html-button-response","101","159809","0.0-4.0-1.48","214","1","2022-10-10 12:57:48","ebf9627b049f568eb4bf28942cb89901","119.120.212.145","Mozilla/5.0 (iPhone; CPU iPhone OS 15_1 like Mac OS X) AppleWebKit/605.1.15 (KHTML, like Gecko) Mobile/15E148 MicroMessenger/8.0.23(0x1800172f) NetType/WIFI Language/zh_CN","iPhone","Mozilla","","iOS","15_1","1050","<p>作为军队的指挥官，你可以选择发射导弹杀死 <strong>5名</strong> 敌国士兵，但会误杀附近的 <strong>1名</strong> 敌国平民。</p> <p>平民照片如下图所示。</p> <p></p> <img src='stimuli/faces/NFF3.jpg', style='max-width: 30%;'> </img> <p><strong>你是否选择发射武器？</strong></p>","0",""
"","","","","","html-keyboard-response","102","160817","0.0-4.0-0.49","214","1","2022-10-10 12:57:48","ebf9627b049f568eb4bf28942cb89901","119.120.212.145","Mozilla/5.0 (iPhone; CPU iPhone OS 15_1 like Mac OS X) AppleWebKit/605.1.15 (KHTML, like Gecko) Mobile/15E148 MicroMessenger/8.0.23(0x1800172f) NetType/WIFI Language/zh_CN","iPhone","Mozilla","","iOS","15_1","null","<div style=""font-size:60px;"">+</div>","null",""
"","","","","","html-button-response","103","161793","0.0-4.0-1.49","214","1","2022-10-10 12:57:48","ebf9627b049f568eb4bf28942cb89901","119.120.212.145","Mozilla/5.0 (iPhone; CPU iPhone OS 15_1 like Mac OS X) AppleWebKit/605.1.15 (KHTML, like Gecko) Mobile/15E148 MicroMessenger/8.0.23(0x1800172f) NetType/WIFI Language/zh_CN","iPhone","Mozilla","","iOS","15_1","961","<p>作为军队的指挥官，你可以选择发射导弹杀死 <strong>5名</strong> 敌国士兵，但会炸毁附近的 <strong>1棵</strong> 敌国树木。</p> <p>树木的照片如下图所示。</p> <p></p> <img src='stimuli/trees/7.png', style='max-width: 30%;'> </img> <p><strong>你是否选择发射武器？</strong></p>","0",""
"","","","","","html-keyboard-response","104","162801","0.0-4.0-0.50","214","1","2022-10-10 12:57:48","ebf9627b049f568eb4bf28942cb89901","119.120.212.145","Mozilla/5.0 (iPhone; CPU iPhone OS 15_1 like Mac OS X) AppleWebKit/605.1.15 (KHTML, like Gecko) Mobile/15E148 MicroMessenger/8.0.23(0x1800172f) NetType/WIFI Language/zh_CN","iPhone","Mozilla","","iOS","15_1","null","<div style=""font-size:60px;"">+</div>","null",""
"","","","","","html-button-response","105","164166","0.0-4.0-1.50","214","1","2022-10-10 12:57:48","ebf9627b049f568eb4bf28942cb89901","119.120.212.145","Mozilla/5.0 (iPhone; CPU iPhone OS 15_1 like Mac OS X) AppleWebKit/605.1.15 (KHTML, like Gecko) Mobile/15E148 MicroMessenger/8.0.23(0x1800172f) NetType/WIFI Language/zh_CN","iPhone","Mozilla","","iOS","15_1","1352","<p>作为军队的指挥官，你可以选择发射导弹杀死 <strong>9名</strong> 敌国士兵，但会炸毁附近的 <strong>1棵</strong> 敌国树木。</p> <p>树木的照片如下图所示。</p> <p></p> <img src='stimuli/trees/5.png', style='max-width: 30%;'> </img> <p><strong>你是否选择发射武器？</strong></p>","0",""
"","","","","","html-keyboard-response","106","165172","0.0-4.0-0.51","214","1","2022-10-10 12:57:48","ebf9627b049f568eb4bf28942cb89901","119.120.212.145","Mozilla/5.0 (iPhone; CPU iPhone OS 15_1 like Mac OS X) AppleWebKit/605.1.15 (KHTML, like Gecko) Mobile/15E148 MicroMessenger/8.0.23(0x1800172f) NetType/WIFI Language/zh_CN","iPhone","Mozilla","","iOS","15_1","null","<div style=""font-size:60px;"">+</div>","null",""
"","","","","","html-button-response","107","166035","0.0-4.0-1.51","214","1","2022-10-10 12:57:48","ebf9627b049f568eb4bf28942cb89901","119.120.212.145","Mozilla/5.0 (iPhone; CPU iPhone OS 15_1 like Mac OS X) AppleWebKit/605.1.15 (KHTML, like Gecko) Mobile/15E148 MicroMessenger/8.0.23(0x1800172f) NetType/WIFI Language/zh_CN","iPhone","Mozilla","","iOS","15_1","851","<p>作为军队的指挥官，你可以选择发射导弹杀死 <strong>6名</strong> 敌国士兵，但会炸毁附近的 <strong>1棵</strong> 敌国树木。</p> <p>树木的照片如下图所示。</p> <p></p> <img src='stimuli/trees/9.png', style='max-width: 30%;'> </img> <p><strong>你是否选择发射武器？</strong></p>","0",""
"","","","","","html-keyboard-response","108","167041","0.0-4.0-0.52","214","1","2022-10-10 12:57:48","ebf9627b049f568eb4bf28942cb89901","119.120.212.145","Mozilla/5.0 (iPhone; CPU iPhone OS 15_1 like Mac OS X) AppleWebKit/605.1.15 (KHTML, like Gecko) Mobile/15E148 MicroMessenger/8.0.23(0x1800172f) NetType/WIFI Language/zh_CN","iPhone","Mozilla","","iOS","15_1","null","<div style=""font-size:60px;"">+</div>","null",""
"","","","","","html-button-response","109","167853","0.0-4.0-1.52","214","1","2022-10-10 12:57:48","ebf9627b049f568eb4bf28942cb89901","119.120.212.145","Mozilla/5.0 (iPhone; CPU iPhone OS 15_1 like Mac OS X) AppleWebKit/605.1.15 (KHTML, like Gecko) Mobile/15E148 MicroMessenger/8.0.23(0x1800172f) NetType/WIFI Language/zh_CN","iPhone","Mozilla","","iOS","15_1","805","<p>作为军队的指挥官，你可以选择发射导弹杀死 <strong>3名</strong> 敌国士兵，但会炸毁附近的 <strong>1棵</strong> 敌国树木。</p> <p>树木的照片如下图所示。</p> <p></p> <img src='stimuli/trees/10.png', style='max-width: 30%;'> </img> <p><strong>你是否选择发射武器？</strong></p>","0",""
"","","","","","html-keyboard-response","110","168859","0.0-4.0-0.53","214","1","2022-10-10 12:57:48","ebf9627b049f568eb4bf28942cb89901","119.120.212.145","Mozilla/5.0 (iPhone; CPU iPhone OS 15_1 like Mac OS X) AppleWebKit/605.1.15 (KHTML, like Gecko) Mobile/15E148 MicroMessenger/8.0.23(0x1800172f) NetType/WIFI Language/zh_CN","iPhone","Mozilla","","iOS","15_1","null","<div style=""font-size:60px;"">+</div>","null",""
"","","","","","html-button-response","111","169961","0.0-4.0-1.53","214","1","2022-10-10 12:57:48","ebf9627b049f568eb4bf28942cb89901","119.120.212.145","Mozilla/5.0 (iPhone; CPU iPhone OS 15_1 like Mac OS X) AppleWebKit/605.1.15 (KHTML, like Gecko) Mobile/15E148 MicroMessenger/8.0.23(0x1800172f) NetType/WIFI Language/zh_CN","iPhone","Mozilla","","iOS","15_1","1091","<p>作为军队的指挥官，你可以选择发射导弹杀死 <strong>10名</strong> 敌国士兵，但会误杀附近的 <strong>1名</strong> 敌国平民。</p> <p>平民照片如下图所示。</p> <p></p> <img src='stimuli/faces/NFF8.jpg', style='max-width: 30%;'> </img> <p><strong>你是否选择发射武器？</strong></p>","0",""
"","","","","","html-keyboard-response","112","170969","0.0-4.0-0.54","214","1","2022-10-10 12:57:48","ebf9627b049f568eb4bf28942cb89901","119.120.212.145","Mozilla/5.0 (iPhone; CPU iPhone OS 15_1 like Mac OS X) AppleWebKit/605.1.15 (KHTML, like Gecko) Mobile/15E148 MicroMessenger/8.0.23(0x1800172f) NetType/WIFI Language/zh_CN","iPhone","Mozilla","","iOS","15_1","null","<div style=""font-size:60px;"">+</div>","null",""
"","","","","","html-button-response","113","172132","0.0-4.0-1.54","214","1","2022-10-10 12:57:48","ebf9627b049f568eb4bf28942cb89901","119.120.212.145","Mozilla/5.0 (iPhone; CPU iPhone OS 15_1 like Mac OS X) AppleWebKit/605.1.15 (KHTML, like Gecko) Mobile/15E148 MicroMessenger/8.0.23(0x1800172f) NetType/WIFI Language/zh_CN","iPhone","Mozilla","","iOS","15_1","1149","<p>作为军队的指挥官，你可以选择发射导弹杀死 <strong>3名</strong> 敌国士兵，但会炸毁附近的 <strong>1棵</strong> 敌国树木。</p> <p>树木的照片如下图所示。</p> <p></p> <img src='stimuli/trees/15.png', style='max-width: 30%;'> </img> <p><strong>你是否选择发射武器？</strong></p>","0",""
"","","","","","html-keyboard-response","114","173140","0.0-4.0-0.55","214","1","2022-10-10 12:57:48","ebf9627b049f568eb4bf28942cb89901","119.120.212.145","Mozilla/5.0 (iPhone; CPU iPhone OS 15_1 like Mac OS X) AppleWebKit/605.1.15 (KHTML, like Gecko) Mobile/15E148 MicroMessenger/8.0.23(0x1800172f) NetType/WIFI Language/zh_CN","iPhone","Mozilla","","iOS","15_1","null","<div style=""font-size:60px;"">+</div>","null",""
"","","","","","html-button-response","115","174162","0.0-4.0-1.55","214","1","2022-10-10 12:57:48","ebf9627b049f568eb4bf28942cb89901","119.120.212.145","Mozilla/5.0 (iPhone; CPU iPhone OS 15_1 like Mac OS X) AppleWebKit/605.1.15 (KHTML, like Gecko) Mobile/15E148 MicroMessenger/8.0.23(0x1800172f) NetType/WIFI Language/zh_CN","iPhone","Mozilla","","iOS","15_1","1009","<p>作为军队的指挥官，你可以选择发射导弹杀死 <strong>5名</strong> 敌国士兵，但会误杀附近的 <strong>1名</strong> 敌国平民。</p> <p>平民照片如下图所示。</p> <p></p> <img src='stimuli/faces/NFF4.jpg', style='max-width: 30%;'> </img> <p><strong>你是否选择发射武器？</strong></p>","0",""
"","","","","","html-keyboard-response","116","175169","0.0-4.0-0.56","214","1","2022-10-10 12:57:48","ebf9627b049f568eb4bf28942cb89901","119.120.212.145","Mozilla/5.0 (iPhone; CPU iPhone OS 15_1 like Mac OS X) AppleWebKit/605.1.15 (KHTML, like Gecko) Mobile/15E148 MicroMessenger/8.0.23(0x1800172f) NetType/WIFI Language/zh_CN","iPhone","Mozilla","","iOS","15_1","null","<div style=""font-size:60px;"">+</div>","null",""
"","","","","","html-button-response","117","176202","0.0-4.0-1.56","214","1","2022-10-10 12:57:48","ebf9627b049f568eb4bf28942cb89901","119.120.212.145","Mozilla/5.0 (iPhone; CPU iPhone OS 15_1 like Mac OS X) AppleWebKit/605.1.15 (KHTML, like Gecko) Mobile/15E148 MicroMessenger/8.0.23(0x1800172f) NetType/WIFI Language/zh_CN","iPhone","Mozilla","","iOS","15_1","1017","<p>作为军队的指挥官，你可以选择发射导弹杀死 <strong>3名</strong> 敌国士兵，但会误杀附近的 <strong>1名</strong> 敌国平民。</p> <p>平民照片如下图所示。</p> <p></p> <img src='stimuli/faces/NFM7.jpg', style='max-width: 30%;'> </img> <p><strong>你是否选择发射武器？</strong></p>","1",""
"","","","","","html-keyboard-response","118","177210","0.0-4.0-0.57","214","1","2022-10-10 12:57:48","ebf9627b049f568eb4bf28942cb89901","119.120.212.145","Mozilla/5.0 (iPhone; CPU iPhone OS 15_1 like Mac OS X) AppleWebKit/605.1.15 (KHTML, like Gecko) Mobile/15E148 MicroMessenger/8.0.23(0x1800172f) NetType/WIFI Language/zh_CN","iPhone","Mozilla","","iOS","15_1","null","<div style=""font-size:60px;"">+</div>","null",""
"","","","","","html-button-response","119","178780","0.0-4.0-1.57","214","1","2022-10-10 12:57:48","ebf9627b049f568eb4bf28942cb89901","119.120.212.145","Mozilla/5.0 (iPhone; CPU iPhone OS 15_1 like Mac OS X) AppleWebKit/605.1.15 (KHTML, like Gecko) Mobile/15E148 MicroMessenger/8.0.23(0x1800172f) NetType/WIFI Language/zh_CN","iPhone","Mozilla","","iOS","15_1","1557","<p>作为军队的指挥官，你可以选择发射导弹杀死 <strong>4名</strong> 敌国士兵，但会炸毁附近的 <strong>1棵</strong> 敌国树木。</p> <p>树木的照片如下图所示。</p> <p></p> <img src='stimuli/trees/5.png', style='max-width: 30%;'> </img> <p><strong>你是否选择发射武器？</strong></p>","0",""
"","","","","","html-keyboard-response","120","179788","0.0-4.0-0.58","214","1","2022-10-10 12:57:48","ebf9627b049f568eb4bf28942cb89901","119.120.212.145","Mozilla/5.0 (iPhone; CPU iPhone OS 15_1 like Mac OS X) AppleWebKit/605.1.15 (KHTML, like Gecko) Mobile/15E148 MicroMessenger/8.0.23(0x1800172f) NetType/WIFI Language/zh_CN","iPhone","Mozilla","","iOS","15_1","null","<div style=""font-size:60px;"">+</div>","null",""
"","","","","","html-button-response","121","180877","0.0-4.0-1.58","214","1","2022-10-10 12:57:48","ebf9627b049f568eb4bf28942cb89901","119.120.212.145","Mozilla/5.0 (iPhone; CPU iPhone OS 15_1 like Mac OS X) AppleWebKit/605.1.15 (KHTML, like Gecko) Mobile/15E148 MicroMessenger/8.0.23(0x1800172f) NetType/WIFI Language/zh_CN","iPhone","Mozilla","","iOS","15_1","1074","<p>作为军队的指挥官，你可以选择发射导弹杀死 <strong>4名</strong> 敌国士兵，但会误杀附近的 <strong>1名</strong> 敌国平民。</p> <p>平民照片如下图所示。</p> <p></p> <img src='stimuli/faces/NFM1.jpg', style='max-width: 30%;'> </img> <p><strong>你是否选择发射武器？</strong></p>","0",""
"","","","","","html-keyboard-response","122","181884","0.0-4.0-0.59","214","1","2022-10-10 12:57:48","ebf9627b049f568eb4bf28942cb89901","119.120.212.145","Mozilla/5.0 (iPhone; CPU iPhone OS 15_1 like Mac OS X) AppleWebKit/605.1.15 (KHTML, like Gecko) Mobile/15E148 MicroMessenger/8.0.23(0x1800172f) NetType/WIFI Language/zh_CN","iPhone","Mozilla","","iOS","15_1","null","<div style=""font-size:60px;"">+</div>","null",""
"","","","","","html-button-response","123","183204","0.0-4.0-1.59","214","1","2022-10-10 12:57:48","ebf9627b049f568eb4bf28942cb89901","119.120.212.145","Mozilla/5.0 (iPhone; CPU iPhone OS 15_1 like Mac OS X) AppleWebKit/605.1.15 (KHTML, like Gecko) Mobile/15E148 MicroMessenger/8.0.23(0x1800172f) NetType/WIFI Language/zh_CN","iPhone","Mozilla","","iOS","15_1","1306","<p>作为军队的指挥官，你可以选择发射导弹杀死 <strong>8名</strong> 敌国士兵，但会误杀附近的 <strong>1名</strong> 敌国平民。</p> <p>平民照片如下图所示。</p> <p></p> <img src='stimuli/faces/NFF3.jpg', style='max-width: 30%;'> </img> <p><strong>你是否选择发射武器？</strong></p>","0",""
"","","","","","html-keyboard-response","124","184212","0.0-4.0-0.60","214","1","2022-10-10 12:57:48","ebf9627b049f568eb4bf28942cb89901","119.120.212.145","Mozilla/5.0 (iPhone; CPU iPhone OS 15_1 like Mac OS X) AppleWebKit/605.1.15 (KHTML, like Gecko) Mobile/15E148 MicroMessenger/8.0.23(0x1800172f) NetType/WIFI Language/zh_CN","iPhone","Mozilla","","iOS","15_1","null","<div style=""font-size:60px;"">+</div>","null",""
"","","","","","html-button-response","125","185208","0.0-4.0-1.60","214","1","2022-10-10 12:57:48","ebf9627b049f568eb4bf28942cb89901","119.120.212.145","Mozilla/5.0 (iPhone; CPU iPhone OS 15_1 like Mac OS X) AppleWebKit/605.1.15 (KHTML, like Gecko) Mobile/15E148 MicroMessenger/8.0.23(0x1800172f) NetType/WIFI Language/zh_CN","iPhone","Mozilla","","iOS","15_1","981","<p>作为军队的指挥官，你可以选择发射导弹杀死 <strong>5名</strong> 敌国士兵，但会炸毁附近的 <strong>1棵</strong> 敌国树木。</p> <p>树木的照片如下图所示。</p> <p></p> <img src='stimuli/trees/1.png', style='max-width: 30%;'> </img> <p><strong>你是否选择发射武器？</strong></p>","0",""
"","","","","","html-keyboard-response","126","186216","0.0-4.0-0.61","214","1","2022-10-10 12:57:48","ebf9627b049f568eb4bf28942cb89901","119.120.212.145","Mozilla/5.0 (iPhone; CPU iPhone OS 15_1 like Mac OS X) AppleWebKit/605.1.15 (KHTML, like Gecko) Mobile/15E148 MicroMessenger/8.0.23(0x1800172f) NetType/WIFI Language/zh_CN","iPhone","Mozilla","","iOS","15_1","null","<div style=""font-size:60px;"">+</div>","null",""
"","","","","","html-button-response","127","187508","0.0-4.0-1.61","214","1","2022-10-10 12:57:48","ebf9627b049f568eb4bf28942cb89901","119.120.212.145","Mozilla/5.0 (iPhone; CPU iPhone OS 15_1 like Mac OS X) AppleWebKit/605.1.15 (KHTML, like Gecko) Mobile/15E148 MicroMessenger/8.0.23(0x1800172f) NetType/WIFI Language/zh_CN","iPhone","Mozilla","","iOS","15_1","1277","<p>作为军队的指挥官，你可以选择发射导弹杀死 <strong>5名</strong> 敌国士兵，但会误杀附近的 <strong>1名</strong> 敌国平民。</p> <p>平民照片如下图所示。</p> <p></p> <img src='stimuli/faces/NFF5.jpg', style='max-width: 30%;'> </img> <p><strong>你是否选择发射武器？</strong></p>","0",""
"","","","","","html-keyboard-response","128","188522","0.0-4.0-0.62","214","1","2022-10-10 12:57:48","ebf9627b049f568eb4bf28942cb89901","119.120.212.145","Mozilla/5.0 (iPhone; CPU iPhone OS 15_1 like Mac OS X) AppleWebKit/605.1.15 (KHTML, like Gecko) Mobile/15E148 MicroMessenger/8.0.23(0x1800172f) NetType/WIFI Language/zh_CN","iPhone","Mozilla","","iOS","15_1","null","<div style=""font-size:60px;"">+</div>","null",""
"","","","","","html-button-response","129","189331","0.0-4.0-1.62","214","1","2022-10-10 12:57:48","ebf9627b049f568eb4bf28942cb89901","119.120.212.145","Mozilla/5.0 (iPhone; CPU iPhone OS 15_1 like Mac OS X) AppleWebKit/605.1.15 (KHTML, like Gecko) Mobile/15E148 MicroMessenger/8.0.23(0x1800172f) NetType/WIFI Language/zh_CN","iPhone","Mozilla","","iOS","15_1","797","<p>作为军队的指挥官，你可以选择发射导弹杀死 <strong>7名</strong> 敌国士兵，但会炸毁附近的 <strong>1棵</strong> 敌国树木。</p> <p>树木的照片如下图所示。</p> <p></p> <img src='stimuli/trees/10.png', style='max-width: 30%;'> </img> <p><strong>你是否选择发射武器？</strong></p>","0",""
"","","","","","html-keyboard-response","130","190340","0.0-4.0-0.63","214","1","2022-10-10 12:57:48","ebf9627b049f568eb4bf28942cb89901","119.120.212.145","Mozilla/5.0 (iPhone; CPU iPhone OS 15_1 like Mac OS X) AppleWebKit/605.1.15 (KHTML, like Gecko) Mobile/15E148 MicroMessenger/8.0.23(0x1800172f) NetType/WIFI Language/zh_CN","iPhone","Mozilla","","iOS","15_1","null","<div style=""font-size:60px;"">+</div>","null",""
"","","","","","html-button-response","131","191157","0.0-4.0-1.63","214","1","2022-10-10 12:57:48","ebf9627b049f568eb4bf28942cb89901","119.120.212.145","Mozilla/5.0 (iPhone; CPU iPhone OS 15_1 like Mac OS X) AppleWebKit/605.1.15 (KHTML, like Gecko) Mobile/15E148 MicroMessenger/8.0.23(0x1800172f) NetType/WIFI Language/zh_CN","iPhone","Mozilla","","iOS","15_1","802","<p>作为军队的指挥官，你可以选择发射导弹杀死 <strong>5名</strong> 敌国士兵，但会炸毁附近的 <strong>1棵</strong> 敌国树木。</p> <p>树木的照片如下图所示。</p> <p></p> <img src='stimuli/trees/2.png', style='max-width: 30%;'> </img> <p><strong>你是否选择发射武器？</strong></p>","0",""
"","","","","","survey-multi-choice","132","216814","0.0-5.0","214","1","2022-10-10 12:57:48","ebf9627b049f568eb4bf28942cb89901","119.120.212.145","Mozilla/5.0 (iPhone; CPU iPhone OS 15_1 like Mac OS X) AppleWebKit/605.1.15 (KHTML, like Gecko) Mobile/15E148 MicroMessenger/8.0.23(0x1800172f) NetType/WIFI Language/zh_CN","iPhone","Mozilla","","iOS","15_1","25642","","{""Attention1"":""""}","[0]"
"","","","","","html-button-response","133","219330","0.0-6.0","214","1","2022-10-10 12:57:48","ebf9627b049f568eb4bf28942cb89901","119.120.212.145","Mozilla/5.0 (iPhone; CPU iPhone OS 15_1 like Mac OS X) AppleWebKit/605.1.15 (KHTML, like Gecko) Mobile/15E148 MicroMessenger/8.0.23(0x1800172f) NetType/WIFI Language/zh_CN","iPhone","Mozilla","","iOS","15_1","2505","<p style=""font-size:20px;font-weight:bold;"">恭喜！</p><p>你已经完成了实验的第一部分。</p><p>请休息放松一下，然后进入第二部分。</p><p>这部分大约需要10分钟。</p>","0",""
"","","","","","survey-text","134","252791","0.0-7.0","214","1","2022-10-10 12:57:48","ebf9627b049f568eb4bf28942cb89901","119.120.212.145","Mozilla/5.0 (iPhone; CPU iPhone OS 15_1 like Mac OS X) AppleWebKit/605.1.15 (KHTML, like Gecko) Mobile/15E148 MicroMessenger/8.0.23(0x1800172f) NetType/WIFI Language/zh_CN","iPhone","Mozilla","","iOS","15_1","32429","","{""Age"":""22"",""Nation"":""这中国"",""Born"":""广东"",""Live"":""东莞"",""Ethnic"":""汉族"",""Alipay"":""961564551@qq.com""}",""
"","","","","","survey-multi-choice","135","273697","0.0-8.0","214","1","2022-10-10 12:57:48","ebf9627b049f568eb4bf28942cb89901","119.120.212.145","Mozilla/5.0 (iPhone; CPU iPhone OS 15_1 like Mac OS X) AppleWebKit/605.1.15 (KHTML, like Gecko) Mobile/15E148 MicroMessenger/8.0.23(0x1800172f) NetType/WIFI Language/zh_CN","iPhone","Mozilla","","iOS","15_1","20895","","{""Gender"":""男"",""Education"":""本科毕业"",""Income"":""￥270,000-￥489,999"",""Children"":""0"",""Race"":""亚洲人""}","[0,1,2,3,4]"
"","","","","","survey-multi-select","136","281355","0.0-9.0","214","1","2022-10-10 12:57:48","ebf9627b049f568eb4bf28942cb89901","119.120.212.145","Mozilla/5.0 (iPhone; CPU iPhone OS 15_1 like Mac OS X) AppleWebKit/605.1.15 (KHTML, like Gecko) Mobile/15E148 MicroMessenger/8.0.23(0x1800172f) NetType/WIFI Language/zh_CN","iPhone","Mozilla","","iOS","15_1","7638","","{""Marriage"":[""未婚""],""Religion"":[""无宗教信仰""]}","[0,1]"
"","","","","","survey-multi-choice","137","286995","0.0-10.0","214","1","2022-10-10 12:57:48","ebf9627b049f568eb4bf28942cb89901","119.120.212.145","Mozilla/5.0 (iPhone; CPU iPhone OS 15_1 like Mac OS X) AppleWebKit/605.1.15 (KHTML, like Gecko) Mobile/15E148 MicroMessenger/8.0.23(0x1800172f) NetType/WIFI Language/zh_CN","iPhone","Mozilla","","iOS","15_1","5630","","{""SES"":""7""}","[0]"
"","","","","","html-button-response","138","289902","0.0-11.0","214","1","2022-10-10 12:57:48","ebf9627b049f568eb4bf28942cb89901","119.120.212.145","Mozilla/5.0 (iPhone; CPU iPhone OS 15_1 like Mac OS X) AppleWebKit/605.1.15 (KHTML, like Gecko) Mobile/15E148 MicroMessenger/8.0.23(0x1800172f) NetType/WIFI Language/zh_CN","iPhone","Mozilla","","iOS","15_1","2901","<p><strong>请判断下列陈述在多大程度上可以形容你？</p><p> (1 = ""和我一点都不像"" to 5 = ""非常像我"".)</strong></p>","0",""
"","","","","","survey-likert","139","316340","0.0-12.0","214","1","2022-10-10 12:57:48","ebf9627b049f568eb4bf28942cb89901","119.120.212.145","Mozilla/5.0 (iPhone; CPU iPhone OS 15_1 like Mac OS X) AppleWebKit/605.1.15 (KHTML, like Gecko) Mobile/15E148 MicroMessenger/8.0.23(0x1800172f) NetType/WIFI Language/zh_CN","iPhone","Mozilla","","iOS","15_1","26421","","{""Aggression1"":0,""Aggression2"":0,""Aggression3"":4,""Aggression4"":0,""Aggression5"":1,""Aggression6"":0,""Aggression7"":4,""Aggression8"":0,""Aggression9"":1}","[0,1,2,3,4,5,6,7,8]"
"","","","","","html-button-response","140","317832","0.0-13.0","214","1","2022-10-10 12:57:48","ebf9627b049f568eb4bf28942cb89901","119.120.212.145","Mozilla/5.0 (iPhone; CPU iPhone OS 15_1 like Mac OS X) AppleWebKit/605.1.15 (KHTML, like Gecko) Mobile/15E148 MicroMessenger/8.0.23(0x1800172f) NetType/WIFI Language/zh_CN","iPhone","Mozilla","","iOS","15_1","1482","<p><strong>请判断你在多大程度上同意下列陈述。</strong></p>","0",""
"","","","","","survey-likert","141","446719","0.0-14.0","214","1","2022-10-10 12:57:48","ebf9627b049f568eb4bf28942cb89901","119.120.212.145","Mozilla/5.0 (iPhone; CPU iPhone OS 15_1 like Mac OS X) AppleWebKit/605.1.15 (KHTML, like Gecko) Mobile/15E148 MicroMessenger/8.0.23(0x1800172f) NetType/WIFI Language/zh_CN","iPhone","Mozilla","","iOS","15_1","128869","","{""scale17"":3,""scale13"":2,""scale26"":4,""scale10"":3,""scale6"":2,""scale19"":4,""scale27"":3,""scale8"":4,""scale22"":1,""scale16"":3,""scale14"":1,""scale1"":1,""scale7"":3,""scale25"":4,""scale28"":4,""scale4"":1,""scale9"":4,""scale24"":1,""scale21"":4,""scale12"":4,""scale20"":4,""scale18"":1,""scale3"":2,""scale15"":3,""scale5"":2,""scale11"":4,""scale23"":4,""scale2"":3}","[16,12,25,9,5,18,26,7,21,15,13,0,6,24,27,3,8,23,20,11,19,17,2,14,4,10,22,1]"
"","","","","","html-button-response","142","449071","0.0-15.0","214","1","2022-10-10 12:57:48","ebf9627b049f568eb4bf28942cb89901","119.120.212.145","Mozilla/5.0 (iPhone; CPU iPhone OS 15_1 like Mac OS X) AppleWebKit/605.1.15 (KHTML, like Gecko) Mobile/15E148 MicroMessenger/8.0.23(0x1800172f) NetType/WIFI Language/zh_CN","iPhone","Mozilla","","iOS","15_1","2343","<p><strong>请判断你在多大程度上同意下列陈述。</strong></p>","0",""
"","","","","","survey-likert","143","517789","0.0-16.0","214","1","2022-10-10 12:57:48","ebf9627b049f568eb4bf28942cb89901","119.120.212.145","Mozilla/5.0 (iPhone; CPU iPhone OS 15_1 like Mac OS X) AppleWebKit/605.1.15 (KHTML, like Gecko) Mobile/15E148 MicroMessenger/8.0.23(0x1800172f) NetType/WIFI Language/zh_CN","iPhone","Mozilla","","iOS","15_1","68704","","{""sdo5"":4,""sdo8"":4,""sdo6"":6,""sdo14"":6,""sdo4"":1,""sdo2"":1,""sdo15"":6,""sdo3"":4,""sdo11"":5,""sdo9"":6,""sdo16"":5,""sdo7"":1,""sdo10"":6,""sdo13"":6,""sdo12"":6,""sdo1"":3}","[4,7,5,13,3,1,14,2,10,8,15,6,9,12,11,0]"
"","","","","","html-button-response","144","519994","0.0-17.0","214","1","2022-10-10 12:57:48","ebf9627b049f568eb4bf28942cb89901","119.120.212.145","Mozilla/5.0 (iPhone; CPU iPhone OS 15_1 like Mac OS X) AppleWebKit/605.1.15 (KHTML, like Gecko) Mobile/15E148 MicroMessenger/8.0.23(0x1800172f) NetType/WIFI Language/zh_CN","iPhone","Mozilla","","iOS","15_1","2197","<p><strong>请判断你在多大程度上同意下列陈述。</strong></p>","0",""
"","","","","","survey-likert","145","553274","0.0-18.0","214","1","2022-10-10 12:57:48","ebf9627b049f568eb4bf28942cb89901","119.120.212.145","Mozilla/5.0 (iPhone; CPU iPhone OS 15_1 like Mac OS X) AppleWebKit/605.1.15 (KHTML, like Gecko) Mobile/15E148 MicroMessenger/8.0.23(0x1800172f) NetType/WIFI Language/zh_CN","iPhone","Mozilla","","iOS","15_1","33270","","{""caring1"":4,""liking1"":1,""caring2"":4,""protection1"":3,""liking2"":0,""caring3"":4,""protection2"":3,""liking3"":1,""protection3"":3,""caring4"":4,""liking4"":0,""protection4"":3,""caring5"":4,""liking5"":3,""protection5"":3}","[0,1,2,3,4,5,6,7,8,9,10,11,12,13,14]"
"","","","","","html-button-response","146","554184","0.0-19.0","214","1","2022-10-10 12:57:48","ebf9627b049f568eb4bf28942cb89901","119.120.212.145","Mozilla/5.0 (iPhone; CPU iPhone OS 15_1 like Mac OS X) AppleWebKit/605.1.15 (KHTML, like Gecko) Mobile/15E148 MicroMessenger/8.0.23(0x1800172f) NetType/WIFI Language/zh_CN","iPhone","Mozilla","","iOS","15_1","901","<p><strong>请判断下列场景中你的内心感受有多柔软。</strong></p>","0",""
"","","","","","survey-likert","147","592878","0.0-20.0","214","1","2022-10-10 12:57:48","ebf9627b049f568eb4bf28942cb89901","119.120.212.145","Mozilla/5.0 (iPhone; CPU iPhone OS 15_1 like Mac OS X) AppleWebKit/605.1.15 (KHTML, like Gecko) Mobile/15E148 MicroMessenger/8.0.23(0x1800172f) NetType/WIFI Language/zh_CN","iPhone","Mozilla","","iOS","15_1","38683","","{""tenderness-positive1"":4,""tenderness-negative1"":4,""tenderness-negative2"":1,""tenderness-positive2"":4,""tenderness-positive3"":4,""tenderness-negative3"":1,""tenderness-positive4"":4,""tendereness-negative4"":1,""tendernness-negative5"":3,""tenderness-positive5"":4}","[0,1,2,3,4,5,6,7,8,9]"
"","","","","","survey-multi-choice","148","599579","0.0-21.0","214","1","2022-10-10 12:57:48","ebf9627b049f568eb4bf28942cb89901","119.120.212.145","Mozilla/5.0 (iPhone; CPU iPhone OS 15_1 like Mac OS X) AppleWebKit/605.1.15 (KHTML, like Gecko) Mobile/15E148 MicroMessenger/8.0.23(0x1800172f) NetType/WIFI Language/zh_CN","iPhone","Mozilla","","iOS","15_1","6696","","{""Attention2"":""其他""}","[0]"
"","","","","","html-button-response","149","600597","0.0-22.0","214","1","2022-10-10 12:57:48","ebf9627b049f568eb4bf28942cb89901","119.120.212.145","Mozilla/5.0 (iPhone; CPU iPhone OS 15_1 like Mac OS X) AppleWebKit/605.1.15 (KHTML, like Gecko) Mobile/15E148 MicroMessenger/8.0.23(0x1800172f) NetType/WIFI Language/zh_CN","iPhone","Mozilla","","iOS","15_1","1013","<p><strong>请判断你在多大程度上同意下列陈述。</strong></p>","0",""
"","","","","","survey-likert","150","725605","0.0-23.0","214","1","2022-10-10 12:57:48","ebf9627b049f568eb4bf28942cb89901","119.120.212.145","Mozilla/5.0 (iPhone; CPU iPhone OS 15_1 like Mac OS X) AppleWebKit/605.1.15 (KHTML, like Gecko) Mobile/15E148 MicroMessenger/8.0.23(0x1800172f) NetType/WIFI Language/zh_CN","iPhone","Mozilla","","iOS","15_1","125000","","{""Patri8"":4,""Patri11"":0,""Patri10"":0,""Nation2"":4,""Nation1"":4,""Patri5"":4,""Nation3"":0,""Patri1"":4,""Nation7"":4,""Nation5"":4,""Nation4"":4,""Patri2"":4,""Patri12"":1,""Patri7"":4,""Nation8"":0,""Patri3"":4,""Patri4"":4,""Patri9"":0,""Patri6"":0,""Nation6"":4}","[7,10,9,13,12,4,14,0,18,16,15,1,11,6,19,2,3,8,5,17]"
"","","","","","html-button-response","151","726578","0.0-24.0","214","1","2022-10-10 12:57:48","ebf9627b049f568eb4bf28942cb89901","119.120.212.145","Mozilla/5.0 (iPhone; CPU iPhone OS 15_1 like Mac OS X) AppleWebKit/605.1.15 (KHTML, like Gecko) Mobile/15E148 MicroMessenger/8.0.23(0x1800172f) NetType/WIFI Language/zh_CN","iPhone","Mozilla","","iOS","15_1","960","<p><strong>请判断你在多大程度上同意下列陈述。</strong></p>","0",""
"","","","","","survey-likert","152","797736","0.0-25.0","214","1","2022-10-10 12:57:48","ebf9627b049f568eb4bf28942cb89901","119.120.212.145","Mozilla/5.0 (iPhone; CPU iPhone OS 15_1 like Mac OS X) AppleWebKit/605.1.15 (KHTML, like Gecko) Mobile/15E148 MicroMessenger/8.0.23(0x1800172f) NetType/WIFI Language/zh_CN","iPhone","Mozilla","","iOS","15_1","71139","","{""hc2"":8,""vc4"":8,""vi2"":8,""hi4"":8,""Robot"":6,""hi2"":6,""vi1"":7,""hc4"":7,""hi1"":7,""hc3"":8,""vc2"":8,""vc1"":8,""hi3"":2,""vi4"":1,""hc1"":8,""vc3"":6,""vi3"":6}","[10,16,5,3,7,1,4,12,0,11,14,13,2,8,9,15,6]"
"","","","","","survey-text","153","854783","0.0-26.0","214","1","2022-10-10 12:57:48","ebf9627b049f568eb4bf28942cb89901","119.120.212.145","Mozilla/5.0 (iPhone; CPU iPhone OS 15_1 like Mac OS X) AppleWebKit/605.1.15 (KHTML, like Gecko) Mobile/15E148 MicroMessenger/8.0.23(0x1800172f) NetType/WIFI Language/zh_CN","iPhone","Mozilla","","iOS","15_1","57017","","{""Comments"":""建议前面可以加上一发导弹能让多少人无家可归""}",""
"","","","","","html-button-response","154","856590","0.0-27.0","214","1","2022-10-10 12:57:48","ebf9627b049f568eb4bf28942cb89901","119.120.212.145","Mozilla/5.0 (iPhone; CPU iPhone OS 15_1 like Mac OS X) AppleWebKit/605.1.15 (KHTML, like Gecko) Mobile/15E148 MicroMessenger/8.0.23(0x1800172f) NetType/WIFI Language/zh_CN","iPhone","Mozilla","","iOS","15_1","1798","<strong><p>恭喜你完成了实验！</p><p>感谢您的参与。</p></strong>","0",""
