"success","timeout","failed_images","failed_audio","failed_video","trial_type","trial_index","time_elapsed","internal_node_id","run_id","condition","recorded_at","source_code_version","ip","user_agent","device","browser","browser_version","platform","platform_version","rt","stimulus","response","question_order"
"true","false","[]","[]","[]","preload","0","2396","0.0-0.0","210","1","2022-10-10 12:42:35","ebf9627b049f568eb4bf28942cb89901","112.4.211.106","Mozilla/5.0 (Windows NT 10.0; Win64; x64) AppleWebKit/537.36 (KHTML, like Gecko) Chrome/106.0.0.0 Safari/537.36 Edg/106.0.1370.37","WebKit","Edge","106.0.1370.37","Windows","10.0","","","",""
"true","","","","","fullscreen","1","4957","0.0-1.0","210","1","2022-10-10 12:42:35","ebf9627b049f568eb4bf28942cb89901","112.4.211.106","Mozilla/5.0 (Windows NT 10.0; Win64; x64) AppleWebKit/537.36 (KHTML, like Gecko) Chrome/106.0.0.0 Safari/537.36 Edg/106.0.1370.37","WebKit","Edge","106.0.1370.37","Windows","10.0","","","",""
"","","","","","html-button-response","2","6237","0.0-2.0","210","1","2022-10-10 12:42:35","ebf9627b049f568eb4bf28942cb89901","112.4.211.106","Mozilla/5.0 (Windows NT 10.0; Win64; x64) AppleWebKit/537.36 (KHTML, like Gecko) Chrome/106.0.0.0 Safari/537.36 Edg/106.0.1370.37","WebKit","Edge","106.0.1370.37","Windows","10.0","1280","<p style=""font-size:20px;font-weight:bold;"">实验知情同意书</p><p style=""text-align:left;""><strong>实验名称：</strong>社会冲突研究</p><p style=""text-align:left;""><strong>主要研究者：</strong>韩晓春副教授（北京师范大学心理学部）</p><p style=""text-align:left;""><strong>联系方式：</strong>发送邮件至xiaochun.han@bnu.edu.cn</p><p style=""text-align:left;""><strong>研究目的：</strong>研究旨在了解人类面对群体冲突时的决策方式，以及相关的心理学特质。实验调查大约需要20分钟。</p><p style=""text-align:left;""><strong>实验流程：</strong>实验包含两部分。第一部分呈现一系列群体冲突场景，请你决定如何对这些冲突进行反应，大约需要10分钟完成。第二部分包含一系列人口统计学信息收集和心理学问卷，大约需要10分钟完成。</p><p style=""text-align:left;""><strong>参加及退出规则：</strong>参加本实验完全取决于您的个人意愿。在参与过程中，您可以随时退出，并且不用承担任何后果。</p><p style=""text-align:left;""><strong>隐私：</strong>本实验完全匿名进行，不会收集您的姓名或其他能够识别您身份的信息。实验中收集的作答仅用作科学研究使用，可能会在学术期刊/书籍上发表，或者用于教学，您的数据未来可能会和其他研究者或实验室分享，但您的个人身份不会被识别。</p><p style=""text-align:left;""><strong>实验报酬：</strong>实验完成后，您将获得15元人民币报酬，以感谢您的时间和努力。调查问卷中包含几道题目用以测验您作答时的认真度。只有完成全部实验，并且正确回答认真度测验的被试才能获得实验报酬。实验报酬将通过支付宝转账发放。</p><p style=""text-align:left;font-size:20px;""><strong>如果您同意以上实验知情同意书的内容，请点击'同意并且开始实验'按钮；否则请关闭浏览器界面，退出实验。</strong></p>","0",""
"","","","","","html-button-response","3","13494","0.0-3.0","210","1","2022-10-10 12:42:35","ebf9627b049f568eb4bf28942cb89901","112.4.211.106","Mozilla/5.0 (Windows NT 10.0; Win64; x64) AppleWebKit/537.36 (KHTML, like Gecko) Chrome/106.0.0.0 Safari/537.36 Edg/106.0.1370.37","WebKit","Edge","106.0.1370.37","Windows","10.0","7255","<p ><strong>实验任务一：</strong></p><p>请想象你的国家与另一个国家发生了军事冲突。</p><p>你是国家军队的指挥官，你将如何在冲突中进行决策。</p><p>具体来说，作为军队指挥官，请你决定是否发射导弹进行打击。</p><p>接下来，你会面对一系列场景，请仔细阅读每个场景，然后进行决策。</p><p>这部分实验任务大约需要10分钟。</p><p><strong>实验过程中，请集中注意力。</strong></p>","0",""
"","","","","","html-keyboard-response","4","14496","0.0-4.0-0.0","210","1","2022-10-10 12:42:35","ebf9627b049f568eb4bf28942cb89901","112.4.211.106","Mozilla/5.0 (Windows NT 10.0; Win64; x64) AppleWebKit/537.36 (KHTML, like Gecko) Chrome/106.0.0.0 Safari/537.36 Edg/106.0.1370.37","WebKit","Edge","106.0.1370.37","Windows","10.0","null","<div style=""font-size:60px;"">+</div>","null",""
"","","","","","html-button-response","5","21605","0.0-4.0-1.0","210","1","2022-10-10 12:42:35","ebf9627b049f568eb4bf28942cb89901","112.4.211.106","Mozilla/5.0 (Windows NT 10.0; Win64; x64) AppleWebKit/537.36 (KHTML, like Gecko) Chrome/106.0.0.0 Safari/537.36 Edg/106.0.1370.37","WebKit","Edge","106.0.1370.37","Windows","10.0","7107","<p>作为军队的指挥官，你可以选择发射导弹杀死 <strong>1名</strong> 敌国士兵，但会误杀附近的 <strong>1名</strong> 敌国平民。</p> <p>平民照片如下图所示。</p> <p></p> <img src='stimuli/faces/NFM8.jpg', style='max-width: 30%;'> </img> <p><strong>你是否选择发射武器？</strong></p>","1",""
"","","","","","html-keyboard-response","6","22608","0.0-4.0-0.1","210","1","2022-10-10 12:42:35","ebf9627b049f568eb4bf28942cb89901","112.4.211.106","Mozilla/5.0 (Windows NT 10.0; Win64; x64) AppleWebKit/537.36 (KHTML, like Gecko) Chrome/106.0.0.0 Safari/537.36 Edg/106.0.1370.37","WebKit","Edge","106.0.1370.37","Windows","10.0","null","<div style=""font-size:60px;"">+</div>","null",""
"","","","","","html-button-response","7","25862","0.0-4.0-1.1","210","1","2022-10-10 12:42:35","ebf9627b049f568eb4bf28942cb89901","112.4.211.106","Mozilla/5.0 (Windows NT 10.0; Win64; x64) AppleWebKit/537.36 (KHTML, like Gecko) Chrome/106.0.0.0 Safari/537.36 Edg/106.0.1370.37","WebKit","Edge","106.0.1370.37","Windows","10.0","3252","<p>作为军队的指挥官，你可以选择发射导弹杀死 <strong>4名</strong> 敌国士兵，但会误杀附近的 <strong>1名</strong> 敌国平民。</p> <p>平民照片如下图所示。</p> <p></p> <img src='stimuli/faces/NFF4.jpg', style='max-width: 30%;'> </img> <p><strong>你是否选择发射武器？</strong></p>","1",""
"","","","","","html-keyboard-response","8","26870","0.0-4.0-0.2","210","1","2022-10-10 12:42:35","ebf9627b049f568eb4bf28942cb89901","112.4.211.106","Mozilla/5.0 (Windows NT 10.0; Win64; x64) AppleWebKit/537.36 (KHTML, like Gecko) Chrome/106.0.0.0 Safari/537.36 Edg/106.0.1370.37","WebKit","Edge","106.0.1370.37","Windows","10.0","null","<div style=""font-size:60px;"">+</div>","null",""
"","","","","","html-button-response","9","29182","0.0-4.0-1.2","210","1","2022-10-10 12:42:35","ebf9627b049f568eb4bf28942cb89901","112.4.211.106","Mozilla/5.0 (Windows NT 10.0; Win64; x64) AppleWebKit/537.36 (KHTML, like Gecko) Chrome/106.0.0.0 Safari/537.36 Edg/106.0.1370.37","WebKit","Edge","106.0.1370.37","Windows","10.0","2308","<p>作为军队的指挥官，你可以选择发射导弹杀死 <strong>5名</strong> 敌国士兵，但会误杀附近的 <strong>1名</strong> 敌国平民。</p> <p>平民照片如下图所示。</p> <p></p> <img src='stimuli/faces/NFM7.jpg', style='max-width: 30%;'> </img> <p><strong>你是否选择发射武器？</strong></p>","1",""
"","","","","","html-keyboard-response","10","30183","0.0-4.0-0.3","210","1","2022-10-10 12:42:35","ebf9627b049f568eb4bf28942cb89901","112.4.211.106","Mozilla/5.0 (Windows NT 10.0; Win64; x64) AppleWebKit/537.36 (KHTML, like Gecko) Chrome/106.0.0.0 Safari/537.36 Edg/106.0.1370.37","WebKit","Edge","106.0.1370.37","Windows","10.0","null","<div style=""font-size:60px;"">+</div>","null",""
"","","","","","html-button-response","11","33366","0.0-4.0-1.3","210","1","2022-10-10 12:42:35","ebf9627b049f568eb4bf28942cb89901","112.4.211.106","Mozilla/5.0 (Windows NT 10.0; Win64; x64) AppleWebKit/537.36 (KHTML, like Gecko) Chrome/106.0.0.0 Safari/537.36 Edg/106.0.1370.37","WebKit","Edge","106.0.1370.37","Windows","10.0","3181","<p>作为军队的指挥官，你可以选择发射导弹杀死 <strong>2名</strong> 敌国士兵，但会炸毁附近的 <strong>1棵</strong> 敌国树木。</p> <p>树木的照片如下图所示。</p> <p></p> <img src='stimuli/trees/2.png', style='max-width: 30%;'> </img> <p><strong>你是否选择发射武器？</strong></p>","0",""
"","","","","","html-keyboard-response","12","34380","0.0-4.0-0.4","210","1","2022-10-10 12:42:35","ebf9627b049f568eb4bf28942cb89901","112.4.211.106","Mozilla/5.0 (Windows NT 10.0; Win64; x64) AppleWebKit/537.36 (KHTML, like Gecko) Chrome/106.0.0.0 Safari/537.36 Edg/106.0.1370.37","WebKit","Edge","106.0.1370.37","Windows","10.0","null","<div style=""font-size:60px;"">+</div>","null",""
"","","","","","html-button-response","13","40222","0.0-4.0-1.4","210","1","2022-10-10 12:42:35","ebf9627b049f568eb4bf28942cb89901","112.4.211.106","Mozilla/5.0 (Windows NT 10.0; Win64; x64) AppleWebKit/537.36 (KHTML, like Gecko) Chrome/106.0.0.0 Safari/537.36 Edg/106.0.1370.37","WebKit","Edge","106.0.1370.37","Windows","10.0","5840","<p>作为军队的指挥官，你可以选择发射导弹杀死 <strong>6名</strong> 敌国士兵，但会误杀附近的 <strong>1名</strong> 敌国平民。</p> <p>平民照片如下图所示。</p> <p></p> <img src='stimuli/faces/NFM7.jpg', style='max-width: 30%;'> </img> <p><strong>你是否选择发射武器？</strong></p>","1",""
"","","","","","html-keyboard-response","14","41224","0.0-4.0-0.5","210","1","2022-10-10 12:42:35","ebf9627b049f568eb4bf28942cb89901","112.4.211.106","Mozilla/5.0 (Windows NT 10.0; Win64; x64) AppleWebKit/537.36 (KHTML, like Gecko) Chrome/106.0.0.0 Safari/537.36 Edg/106.0.1370.37","WebKit","Edge","106.0.1370.37","Windows","10.0","null","<div style=""font-size:60px;"">+</div>","null",""
"","","","","","html-button-response","15","43133","0.0-4.0-1.5","210","1","2022-10-10 12:42:35","ebf9627b049f568eb4bf28942cb89901","112.4.211.106","Mozilla/5.0 (Windows NT 10.0; Win64; x64) AppleWebKit/537.36 (KHTML, like Gecko) Chrome/106.0.0.0 Safari/537.36 Edg/106.0.1370.37","WebKit","Edge","106.0.1370.37","Windows","10.0","1908","<p>作为军队的指挥官，你可以选择发射导弹杀死 <strong>2名</strong> 敌国士兵，但会炸毁附近的 <strong>1棵</strong> 敌国树木。</p> <p>树木的照片如下图所示。</p> <p></p> <img src='stimuli/trees/11.png', style='max-width: 30%;'> </img> <p><strong>你是否选择发射武器？</strong></p>","0",""
"","","","","","html-keyboard-response","16","44136","0.0-4.0-0.6","210","1","2022-10-10 12:42:35","ebf9627b049f568eb4bf28942cb89901","112.4.211.106","Mozilla/5.0 (Windows NT 10.0; Win64; x64) AppleWebKit/537.36 (KHTML, like Gecko) Chrome/106.0.0.0 Safari/537.36 Edg/106.0.1370.37","WebKit","Edge","106.0.1370.37","Windows","10.0","null","<div style=""font-size:60px;"">+</div>","null",""
"","","","","","html-button-response","17","46229","0.0-4.0-1.6","210","1","2022-10-10 12:42:35","ebf9627b049f568eb4bf28942cb89901","112.4.211.106","Mozilla/5.0 (Windows NT 10.0; Win64; x64) AppleWebKit/537.36 (KHTML, like Gecko) Chrome/106.0.0.0 Safari/537.36 Edg/106.0.1370.37","WebKit","Edge","106.0.1370.37","Windows","10.0","2091","<p>作为军队的指挥官，你可以选择发射导弹杀死 <strong>1名</strong> 敌国士兵，但会误杀附近的 <strong>1名</strong> 敌国平民。</p> <p>平民照片如下图所示。</p> <p></p> <img src='stimuli/faces/NFF5.jpg', style='max-width: 30%;'> </img> <p><strong>你是否选择发射武器？</strong></p>","1",""
"","","","","","html-keyboard-response","18","47232","0.0-4.0-0.7","210","1","2022-10-10 12:42:35","ebf9627b049f568eb4bf28942cb89901","112.4.211.106","Mozilla/5.0 (Windows NT 10.0; Win64; x64) AppleWebKit/537.36 (KHTML, like Gecko) Chrome/106.0.0.0 Safari/537.36 Edg/106.0.1370.37","WebKit","Edge","106.0.1370.37","Windows","10.0","null","<div style=""font-size:60px;"">+</div>","null",""
"","","","","","html-button-response","19","49006","0.0-4.0-1.7","210","1","2022-10-10 12:42:35","ebf9627b049f568eb4bf28942cb89901","112.4.211.106","Mozilla/5.0 (Windows NT 10.0; Win64; x64) AppleWebKit/537.36 (KHTML, like Gecko) Chrome/106.0.0.0 Safari/537.36 Edg/106.0.1370.37","WebKit","Edge","106.0.1370.37","Windows","10.0","1772","<p>作为军队的指挥官，你可以选择发射导弹杀死 <strong>8名</strong> 敌国士兵，但会炸毁附近的 <strong>1棵</strong> 敌国树木。</p> <p>树木的照片如下图所示。</p> <p></p> <img src='stimuli/trees/7.png', style='max-width: 30%;'> </img> <p><strong>你是否选择发射武器？</strong></p>","0",""
"","","","","","html-keyboard-response","20","50018","0.0-4.0-0.8","210","1","2022-10-10 12:42:35","ebf9627b049f568eb4bf28942cb89901","112.4.211.106","Mozilla/5.0 (Windows NT 10.0; Win64; x64) AppleWebKit/537.36 (KHTML, like Gecko) Chrome/106.0.0.0 Safari/537.36 Edg/106.0.1370.37","WebKit","Edge","106.0.1370.37","Windows","10.0","null","<div style=""font-size:60px;"">+</div>","null",""
"","","","","","html-button-response","21","51197","0.0-4.0-1.8","210","1","2022-10-10 12:42:35","ebf9627b049f568eb4bf28942cb89901","112.4.211.106","Mozilla/5.0 (Windows NT 10.0; Win64; x64) AppleWebKit/537.36 (KHTML, like Gecko) Chrome/106.0.0.0 Safari/537.36 Edg/106.0.1370.37","WebKit","Edge","106.0.1370.37","Windows","10.0","1178","<p>作为军队的指挥官，你可以选择发射导弹杀死 <strong>3名</strong> 敌国士兵，但会炸毁附近的 <strong>1棵</strong> 敌国树木。</p> <p>树木的照片如下图所示。</p> <p></p> <img src='stimuli/trees/7.png', style='max-width: 30%;'> </img> <p><strong>你是否选择发射武器？</strong></p>","0",""
"","","","","","html-keyboard-response","22","52199","0.0-4.0-0.9","210","1","2022-10-10 12:42:35","ebf9627b049f568eb4bf28942cb89901","112.4.211.106","Mozilla/5.0 (Windows NT 10.0; Win64; x64) AppleWebKit/537.36 (KHTML, like Gecko) Chrome/106.0.0.0 Safari/537.36 Edg/106.0.1370.37","WebKit","Edge","106.0.1370.37","Windows","10.0","null","<div style=""font-size:60px;"">+</div>","null",""
"","","","","","html-button-response","23","53294","0.0-4.0-1.9","210","1","2022-10-10 12:42:35","ebf9627b049f568eb4bf28942cb89901","112.4.211.106","Mozilla/5.0 (Windows NT 10.0; Win64; x64) AppleWebKit/537.36 (KHTML, like Gecko) Chrome/106.0.0.0 Safari/537.36 Edg/106.0.1370.37","WebKit","Edge","106.0.1370.37","Windows","10.0","1092","<p>作为军队的指挥官，你可以选择发射导弹杀死 <strong>9名</strong> 敌国士兵，但会炸毁附近的 <strong>1棵</strong> 敌国树木。</p> <p>树木的照片如下图所示。</p> <p></p> <img src='stimuli/trees/1.png', style='max-width: 30%;'> </img> <p><strong>你是否选择发射武器？</strong></p>","0",""
"","","","","","html-keyboard-response","24","54308","0.0-4.0-0.10","210","1","2022-10-10 12:42:35","ebf9627b049f568eb4bf28942cb89901","112.4.211.106","Mozilla/5.0 (Windows NT 10.0; Win64; x64) AppleWebKit/537.36 (KHTML, like Gecko) Chrome/106.0.0.0 Safari/537.36 Edg/106.0.1370.37","WebKit","Edge","106.0.1370.37","Windows","10.0","null","<div style=""font-size:60px;"">+</div>","null",""
"","","","","","html-button-response","25","56046","0.0-4.0-1.10","210","1","2022-10-10 12:42:35","ebf9627b049f568eb4bf28942cb89901","112.4.211.106","Mozilla/5.0 (Windows NT 10.0; Win64; x64) AppleWebKit/537.36 (KHTML, like Gecko) Chrome/106.0.0.0 Safari/537.36 Edg/106.0.1370.37","WebKit","Edge","106.0.1370.37","Windows","10.0","1735","<p>作为军队的指挥官，你可以选择发射导弹杀死 <strong>2名</strong> 敌国士兵，但会误杀附近的 <strong>1名</strong> 敌国平民。</p> <p>平民照片如下图所示。</p> <p></p> <img src='stimuli/faces/NFM3.jpg', style='max-width: 30%;'> </img> <p><strong>你是否选择发射武器？</strong></p>","1",""
"","","","","","html-keyboard-response","26","57049","0.0-4.0-0.11","210","1","2022-10-10 12:42:35","ebf9627b049f568eb4bf28942cb89901","112.4.211.106","Mozilla/5.0 (Windows NT 10.0; Win64; x64) AppleWebKit/537.36 (KHTML, like Gecko) Chrome/106.0.0.0 Safari/537.36 Edg/106.0.1370.37","WebKit","Edge","106.0.1370.37","Windows","10.0","null","<div style=""font-size:60px;"">+</div>","null",""
"","","","","","html-button-response","27","69526","0.0-4.0-1.11","210","1","2022-10-10 12:42:35","ebf9627b049f568eb4bf28942cb89901","112.4.211.106","Mozilla/5.0 (Windows NT 10.0; Win64; x64) AppleWebKit/537.36 (KHTML, like Gecko) Chrome/106.0.0.0 Safari/537.36 Edg/106.0.1370.37","WebKit","Edge","106.0.1370.37","Windows","10.0","12475","<p>作为军队的指挥官，你可以选择发射导弹杀死 <strong>8名</strong> 敌国士兵，但会误杀附近的 <strong>1名</strong> 敌国平民。</p> <p>平民照片如下图所示。</p> <p></p> <img src='stimuli/faces/NFF4.jpg', style='max-width: 30%;'> </img> <p><strong>你是否选择发射武器？</strong></p>","1",""
"","","","","","html-keyboard-response","28","70530","0.0-4.0-0.12","210","1","2022-10-10 12:42:35","ebf9627b049f568eb4bf28942cb89901","112.4.211.106","Mozilla/5.0 (Windows NT 10.0; Win64; x64) AppleWebKit/537.36 (KHTML, like Gecko) Chrome/106.0.0.0 Safari/537.36 Edg/106.0.1370.37","WebKit","Edge","106.0.1370.37","Windows","10.0","null","<div style=""font-size:60px;"">+</div>","null",""
"","","","","","html-button-response","29","72381","0.0-4.0-1.12","210","1","2022-10-10 12:42:35","ebf9627b049f568eb4bf28942cb89901","112.4.211.106","Mozilla/5.0 (Windows NT 10.0; Win64; x64) AppleWebKit/537.36 (KHTML, like Gecko) Chrome/106.0.0.0 Safari/537.36 Edg/106.0.1370.37","WebKit","Edge","106.0.1370.37","Windows","10.0","1848","<p>作为军队的指挥官，你可以选择发射导弹杀死 <strong>3名</strong> 敌国士兵，但会误杀附近的 <strong>1名</strong> 敌国平民。</p> <p>平民照片如下图所示。</p> <p></p> <img src='stimuli/faces/NFF2.jpg', style='max-width: 30%;'> </img> <p><strong>你是否选择发射武器？</strong></p>","1",""
"","","","","","html-keyboard-response","30","73397","0.0-4.0-0.13","210","1","2022-10-10 12:42:35","ebf9627b049f568eb4bf28942cb89901","112.4.211.106","Mozilla/5.0 (Windows NT 10.0; Win64; x64) AppleWebKit/537.36 (KHTML, like Gecko) Chrome/106.0.0.0 Safari/537.36 Edg/106.0.1370.37","WebKit","Edge","106.0.1370.37","Windows","10.0","null","<div style=""font-size:60px;"">+</div>","null",""
"","","","","","html-button-response","31","74709","0.0-4.0-1.13","210","1","2022-10-10 12:42:35","ebf9627b049f568eb4bf28942cb89901","112.4.211.106","Mozilla/5.0 (Windows NT 10.0; Win64; x64) AppleWebKit/537.36 (KHTML, like Gecko) Chrome/106.0.0.0 Safari/537.36 Edg/106.0.1370.37","WebKit","Edge","106.0.1370.37","Windows","10.0","1309","<p>作为军队的指挥官，你可以选择发射导弹杀死 <strong>9名</strong> 敌国士兵，但会炸毁附近的 <strong>1棵</strong> 敌国树木。</p> <p>树木的照片如下图所示。</p> <p></p> <img src='stimuli/trees/6.png', style='max-width: 30%;'> </img> <p><strong>你是否选择发射武器？</strong></p>","0",""
"","","","","","html-keyboard-response","32","75710","0.0-4.0-0.14","210","1","2022-10-10 12:42:35","ebf9627b049f568eb4bf28942cb89901","112.4.211.106","Mozilla/5.0 (Windows NT 10.0; Win64; x64) AppleWebKit/537.36 (KHTML, like Gecko) Chrome/106.0.0.0 Safari/537.36 Edg/106.0.1370.37","WebKit","Edge","106.0.1370.37","Windows","10.0","null","<div style=""font-size:60px;"">+</div>","null",""
"","","","","","html-button-response","33","77142","0.0-4.0-1.14","210","1","2022-10-10 12:42:35","ebf9627b049f568eb4bf28942cb89901","112.4.211.106","Mozilla/5.0 (Windows NT 10.0; Win64; x64) AppleWebKit/537.36 (KHTML, like Gecko) Chrome/106.0.0.0 Safari/537.36 Edg/106.0.1370.37","WebKit","Edge","106.0.1370.37","Windows","10.0","1430","<p>作为军队的指挥官，你可以选择发射导弹杀死 <strong>9名</strong> 敌国士兵，但会炸毁附近的 <strong>1棵</strong> 敌国树木。</p> <p>树木的照片如下图所示。</p> <p></p> <img src='stimuli/trees/5.png', style='max-width: 30%;'> </img> <p><strong>你是否选择发射武器？</strong></p>","0",""
"","","","","","html-keyboard-response","34","78158","0.0-4.0-0.15","210","1","2022-10-10 12:42:35","ebf9627b049f568eb4bf28942cb89901","112.4.211.106","Mozilla/5.0 (Windows NT 10.0; Win64; x64) AppleWebKit/537.36 (KHTML, like Gecko) Chrome/106.0.0.0 Safari/537.36 Edg/106.0.1370.37","WebKit","Edge","106.0.1370.37","Windows","10.0","null","<div style=""font-size:60px;"">+</div>","null",""
"","","","","","html-button-response","35","80509","0.0-4.0-1.15","210","1","2022-10-10 12:42:35","ebf9627b049f568eb4bf28942cb89901","112.4.211.106","Mozilla/5.0 (Windows NT 10.0; Win64; x64) AppleWebKit/537.36 (KHTML, like Gecko) Chrome/106.0.0.0 Safari/537.36 Edg/106.0.1370.37","WebKit","Edge","106.0.1370.37","Windows","10.0","2348","<p>作为军队的指挥官，你可以选择发射导弹杀死 <strong>8名</strong> 敌国士兵，但会炸毁附近的 <strong>1棵</strong> 敌国树木。</p> <p>树木的照片如下图所示。</p> <p></p> <img src='stimuli/trees/12.png', style='max-width: 30%;'> </img> <p><strong>你是否选择发射武器？</strong></p>","0",""
"","","","","","html-keyboard-response","36","81518","0.0-4.0-0.16","210","1","2022-10-10 12:42:35","ebf9627b049f568eb4bf28942cb89901","112.4.211.106","Mozilla/5.0 (Windows NT 10.0; Win64; x64) AppleWebKit/537.36 (KHTML, like Gecko) Chrome/106.0.0.0 Safari/537.36 Edg/106.0.1370.37","WebKit","Edge","106.0.1370.37","Windows","10.0","null","<div style=""font-size:60px;"">+</div>","null",""
"","","","","","html-button-response","37","83021","0.0-4.0-1.16","210","1","2022-10-10 12:42:35","ebf9627b049f568eb4bf28942cb89901","112.4.211.106","Mozilla/5.0 (Windows NT 10.0; Win64; x64) AppleWebKit/537.36 (KHTML, like Gecko) Chrome/106.0.0.0 Safari/537.36 Edg/106.0.1370.37","WebKit","Edge","106.0.1370.37","Windows","10.0","1501","<p>作为军队的指挥官，你可以选择发射导弹杀死 <strong>6名</strong> 敌国士兵，但会误杀附近的 <strong>1名</strong> 敌国平民。</p> <p>平民照片如下图所示。</p> <p></p> <img src='stimuli/faces/NFM1.jpg', style='max-width: 30%;'> </img> <p><strong>你是否选择发射武器？</strong></p>","1",""
"","","","","","html-keyboard-response","38","84023","0.0-4.0-0.17","210","1","2022-10-10 12:42:35","ebf9627b049f568eb4bf28942cb89901","112.4.211.106","Mozilla/5.0 (Windows NT 10.0; Win64; x64) AppleWebKit/537.36 (KHTML, like Gecko) Chrome/106.0.0.0 Safari/537.36 Edg/106.0.1370.37","WebKit","Edge","106.0.1370.37","Windows","10.0","null","<div style=""font-size:60px;"">+</div>","null",""
"","","","","","html-button-response","39","84821","0.0-4.0-1.17","210","1","2022-10-10 12:42:35","ebf9627b049f568eb4bf28942cb89901","112.4.211.106","Mozilla/5.0 (Windows NT 10.0; Win64; x64) AppleWebKit/537.36 (KHTML, like Gecko) Chrome/106.0.0.0 Safari/537.36 Edg/106.0.1370.37","WebKit","Edge","106.0.1370.37","Windows","10.0","795","<p>作为军队的指挥官，你可以选择发射导弹杀死 <strong>2名</strong> 敌国士兵，但会炸毁附近的 <strong>1棵</strong> 敌国树木。</p> <p>树木的照片如下图所示。</p> <p></p> <img src='stimuli/trees/10.png', style='max-width: 30%;'> </img> <p><strong>你是否选择发射武器？</strong></p>","0",""
"","","","","","html-keyboard-response","40","85838","0.0-4.0-0.18","210","1","2022-10-10 12:42:35","ebf9627b049f568eb4bf28942cb89901","112.4.211.106","Mozilla/5.0 (Windows NT 10.0; Win64; x64) AppleWebKit/537.36 (KHTML, like Gecko) Chrome/106.0.0.0 Safari/537.36 Edg/106.0.1370.37","WebKit","Edge","106.0.1370.37","Windows","10.0","null","<div style=""font-size:60px;"">+</div>","null",""
"","","","","","html-button-response","41","86949","0.0-4.0-1.18","210","1","2022-10-10 12:42:35","ebf9627b049f568eb4bf28942cb89901","112.4.211.106","Mozilla/5.0 (Windows NT 10.0; Win64; x64) AppleWebKit/537.36 (KHTML, like Gecko) Chrome/106.0.0.0 Safari/537.36 Edg/106.0.1370.37","WebKit","Edge","106.0.1370.37","Windows","10.0","1109","<p>作为军队的指挥官，你可以选择发射导弹杀死 <strong>3名</strong> 敌国士兵，但会炸毁附近的 <strong>1棵</strong> 敌国树木。</p> <p>树木的照片如下图所示。</p> <p></p> <img src='stimuli/trees/15.png', style='max-width: 30%;'> </img> <p><strong>你是否选择发射武器？</strong></p>","0",""
"","","","","","html-keyboard-response","42","87959","0.0-4.0-0.19","210","1","2022-10-10 12:42:35","ebf9627b049f568eb4bf28942cb89901","112.4.211.106","Mozilla/5.0 (Windows NT 10.0; Win64; x64) AppleWebKit/537.36 (KHTML, like Gecko) Chrome/106.0.0.0 Safari/537.36 Edg/106.0.1370.37","WebKit","Edge","106.0.1370.37","Windows","10.0","null","<div style=""font-size:60px;"">+</div>","null",""
"","","","","","html-button-response","43","88716","0.0-4.0-1.19","210","1","2022-10-10 12:42:35","ebf9627b049f568eb4bf28942cb89901","112.4.211.106","Mozilla/5.0 (Windows NT 10.0; Win64; x64) AppleWebKit/537.36 (KHTML, like Gecko) Chrome/106.0.0.0 Safari/537.36 Edg/106.0.1370.37","WebKit","Edge","106.0.1370.37","Windows","10.0","755","<p>作为军队的指挥官，你可以选择发射导弹杀死 <strong>4名</strong> 敌国士兵，但会炸毁附近的 <strong>1棵</strong> 敌国树木。</p> <p>树木的照片如下图所示。</p> <p></p> <img src='stimuli/trees/1.png', style='max-width: 30%;'> </img> <p><strong>你是否选择发射武器？</strong></p>","0",""
"","","","","","html-keyboard-response","44","89723","0.0-4.0-0.20","210","1","2022-10-10 12:42:35","ebf9627b049f568eb4bf28942cb89901","112.4.211.106","Mozilla/5.0 (Windows NT 10.0; Win64; x64) AppleWebKit/537.36 (KHTML, like Gecko) Chrome/106.0.0.0 Safari/537.36 Edg/106.0.1370.37","WebKit","Edge","106.0.1370.37","Windows","10.0","null","<div style=""font-size:60px;"">+</div>","null",""
"","","","","","html-button-response","45","90965","0.0-4.0-1.20","210","1","2022-10-10 12:42:35","ebf9627b049f568eb4bf28942cb89901","112.4.211.106","Mozilla/5.0 (Windows NT 10.0; Win64; x64) AppleWebKit/537.36 (KHTML, like Gecko) Chrome/106.0.0.0 Safari/537.36 Edg/106.0.1370.37","WebKit","Edge","106.0.1370.37","Windows","10.0","1240","<p>作为军队的指挥官，你可以选择发射导弹杀死 <strong>3名</strong> 敌国士兵，但会误杀附近的 <strong>1名</strong> 敌国平民。</p> <p>平民照片如下图所示。</p> <p></p> <img src='stimuli/faces/NFF6.jpg', style='max-width: 30%;'> </img> <p><strong>你是否选择发射武器？</strong></p>","1",""
"","","","","","html-keyboard-response","46","91972","0.0-4.0-0.21","210","1","2022-10-10 12:42:35","ebf9627b049f568eb4bf28942cb89901","112.4.211.106","Mozilla/5.0 (Windows NT 10.0; Win64; x64) AppleWebKit/537.36 (KHTML, like Gecko) Chrome/106.0.0.0 Safari/537.36 Edg/106.0.1370.37","WebKit","Edge","106.0.1370.37","Windows","10.0","null","<div style=""font-size:60px;"">+</div>","null",""
"","","","","","html-button-response","47","93069","0.0-4.0-1.21","210","1","2022-10-10 12:42:35","ebf9627b049f568eb4bf28942cb89901","112.4.211.106","Mozilla/5.0 (Windows NT 10.0; Win64; x64) AppleWebKit/537.36 (KHTML, like Gecko) Chrome/106.0.0.0 Safari/537.36 Edg/106.0.1370.37","WebKit","Edge","106.0.1370.37","Windows","10.0","1094","<p>作为军队的指挥官，你可以选择发射导弹杀死 <strong>7名</strong> 敌国士兵，但会炸毁附近的 <strong>1棵</strong> 敌国树木。</p> <p>树木的照片如下图所示。</p> <p></p> <img src='stimuli/trees/13.png', style='max-width: 30%;'> </img> <p><strong>你是否选择发射武器？</strong></p>","0",""
"","","","","","html-keyboard-response","48","94072","0.0-4.0-0.22","210","1","2022-10-10 12:42:35","ebf9627b049f568eb4bf28942cb89901","112.4.211.106","Mozilla/5.0 (Windows NT 10.0; Win64; x64) AppleWebKit/537.36 (KHTML, like Gecko) Chrome/106.0.0.0 Safari/537.36 Edg/106.0.1370.37","WebKit","Edge","106.0.1370.37","Windows","10.0","null","<div style=""font-size:60px;"">+</div>","null",""
"","","","","","html-button-response","49","95605","0.0-4.0-1.22","210","1","2022-10-10 12:42:35","ebf9627b049f568eb4bf28942cb89901","112.4.211.106","Mozilla/5.0 (Windows NT 10.0; Win64; x64) AppleWebKit/537.36 (KHTML, like Gecko) Chrome/106.0.0.0 Safari/537.36 Edg/106.0.1370.37","WebKit","Edge","106.0.1370.37","Windows","10.0","1531","<p>作为军队的指挥官，你可以选择发射导弹杀死 <strong>10名</strong> 敌国士兵，但会误杀附近的 <strong>1名</strong> 敌国平民。</p> <p>平民照片如下图所示。</p> <p></p> <img src='stimuli/faces/NFM4.jpg', style='max-width: 30%;'> </img> <p><strong>你是否选择发射武器？</strong></p>","1",""
"","","","","","html-keyboard-response","50","96607","0.0-4.0-0.23","210","1","2022-10-10 12:42:35","ebf9627b049f568eb4bf28942cb89901","112.4.211.106","Mozilla/5.0 (Windows NT 10.0; Win64; x64) AppleWebKit/537.36 (KHTML, like Gecko) Chrome/106.0.0.0 Safari/537.36 Edg/106.0.1370.37","WebKit","Edge","106.0.1370.37","Windows","10.0","null","<div style=""font-size:60px;"">+</div>","null",""
"","","","","","html-button-response","51","97973","0.0-4.0-1.23","210","1","2022-10-10 12:42:35","ebf9627b049f568eb4bf28942cb89901","112.4.211.106","Mozilla/5.0 (Windows NT 10.0; Win64; x64) AppleWebKit/537.36 (KHTML, like Gecko) Chrome/106.0.0.0 Safari/537.36 Edg/106.0.1370.37","WebKit","Edge","106.0.1370.37","Windows","10.0","1364","<p>作为军队的指挥官，你可以选择发射导弹杀死 <strong>10名</strong> 敌国士兵，但会炸毁附近的 <strong>1棵</strong> 敌国树木。</p> <p>树木的照片如下图所示。</p> <p></p> <img src='stimuli/trees/10.png', style='max-width: 30%;'> </img> <p><strong>你是否选择发射武器？</strong></p>","0",""
"","","","","","html-keyboard-response","52","98990","0.0-4.0-0.24","210","1","2022-10-10 12:42:35","ebf9627b049f568eb4bf28942cb89901","112.4.211.106","Mozilla/5.0 (Windows NT 10.0; Win64; x64) AppleWebKit/537.36 (KHTML, like Gecko) Chrome/106.0.0.0 Safari/537.36 Edg/106.0.1370.37","WebKit","Edge","106.0.1370.37","Windows","10.0","null","<div style=""font-size:60px;"">+</div>","null",""
"","","","","","html-button-response","53","100685","0.0-4.0-1.24","210","1","2022-10-10 12:42:35","ebf9627b049f568eb4bf28942cb89901","112.4.211.106","Mozilla/5.0 (Windows NT 10.0; Win64; x64) AppleWebKit/537.36 (KHTML, like Gecko) Chrome/106.0.0.0 Safari/537.36 Edg/106.0.1370.37","WebKit","Edge","106.0.1370.37","Windows","10.0","1692","<p>作为军队的指挥官，你可以选择发射导弹杀死 <strong>5名</strong> 敌国士兵，但会误杀附近的 <strong>1名</strong> 敌国平民。</p> <p>平民照片如下图所示。</p> <p></p> <img src='stimuli/faces/NFM5.jpg', style='max-width: 30%;'> </img> <p><strong>你是否选择发射武器？</strong></p>","1",""
"","","","","","html-keyboard-response","54","101688","0.0-4.0-0.25","210","1","2022-10-10 12:42:35","ebf9627b049f568eb4bf28942cb89901","112.4.211.106","Mozilla/5.0 (Windows NT 10.0; Win64; x64) AppleWebKit/537.36 (KHTML, like Gecko) Chrome/106.0.0.0 Safari/537.36 Edg/106.0.1370.37","WebKit","Edge","106.0.1370.37","Windows","10.0","null","<div style=""font-size:60px;"">+</div>","null",""
"","","","","","html-button-response","55","104349","0.0-4.0-1.25","210","1","2022-10-10 12:42:35","ebf9627b049f568eb4bf28942cb89901","112.4.211.106","Mozilla/5.0 (Windows NT 10.0; Win64; x64) AppleWebKit/537.36 (KHTML, like Gecko) Chrome/106.0.0.0 Safari/537.36 Edg/106.0.1370.37","WebKit","Edge","106.0.1370.37","Windows","10.0","2659","<p>作为军队的指挥官，你可以选择发射导弹杀死 <strong>8名</strong> 敌国士兵，但会误杀附近的 <strong>1名</strong> 敌国平民。</p> <p>平民照片如下图所示。</p> <p></p> <img src='stimuli/faces/NFF6.jpg', style='max-width: 30%;'> </img> <p><strong>你是否选择发射武器？</strong></p>","1",""
"","","","","","html-keyboard-response","56","105352","0.0-4.0-0.26","210","1","2022-10-10 12:42:35","ebf9627b049f568eb4bf28942cb89901","112.4.211.106","Mozilla/5.0 (Windows NT 10.0; Win64; x64) AppleWebKit/537.36 (KHTML, like Gecko) Chrome/106.0.0.0 Safari/537.36 Edg/106.0.1370.37","WebKit","Edge","106.0.1370.37","Windows","10.0","null","<div style=""font-size:60px;"">+</div>","null",""
"","","","","","html-button-response","57","106653","0.0-4.0-1.26","210","1","2022-10-10 12:42:35","ebf9627b049f568eb4bf28942cb89901","112.4.211.106","Mozilla/5.0 (Windows NT 10.0; Win64; x64) AppleWebKit/537.36 (KHTML, like Gecko) Chrome/106.0.0.0 Safari/537.36 Edg/106.0.1370.37","WebKit","Edge","106.0.1370.37","Windows","10.0","1299","<p>作为军队的指挥官，你可以选择发射导弹杀死 <strong>4名</strong> 敌国士兵，但会误杀附近的 <strong>1名</strong> 敌国平民。</p> <p>平民照片如下图所示。</p> <p></p> <img src='stimuli/faces/NFF8.jpg', style='max-width: 30%;'> </img> <p><strong>你是否选择发射武器？</strong></p>","1",""
"","","","","","html-keyboard-response","58","107668","0.0-4.0-0.27","210","1","2022-10-10 12:42:35","ebf9627b049f568eb4bf28942cb89901","112.4.211.106","Mozilla/5.0 (Windows NT 10.0; Win64; x64) AppleWebKit/537.36 (KHTML, like Gecko) Chrome/106.0.0.0 Safari/537.36 Edg/106.0.1370.37","WebKit","Edge","106.0.1370.37","Windows","10.0","null","<div style=""font-size:60px;"">+</div>","null",""
"","","","","","html-button-response","59","109685","0.0-4.0-1.27","210","1","2022-10-10 12:42:35","ebf9627b049f568eb4bf28942cb89901","112.4.211.106","Mozilla/5.0 (Windows NT 10.0; Win64; x64) AppleWebKit/537.36 (KHTML, like Gecko) Chrome/106.0.0.0 Safari/537.36 Edg/106.0.1370.37","WebKit","Edge","106.0.1370.37","Windows","10.0","2014","<p>作为军队的指挥官，你可以选择发射导弹杀死 <strong>1名</strong> 敌国士兵，但会炸毁附近的 <strong>1棵</strong> 敌国树木。</p> <p>树木的照片如下图所示。</p> <p></p> <img src='stimuli/trees/13.png', style='max-width: 30%;'> </img> <p><strong>你是否选择发射武器？</strong></p>","0",""
"","","","","","html-keyboard-response","60","110696","0.0-4.0-0.28","210","1","2022-10-10 12:42:35","ebf9627b049f568eb4bf28942cb89901","112.4.211.106","Mozilla/5.0 (Windows NT 10.0; Win64; x64) AppleWebKit/537.36 (KHTML, like Gecko) Chrome/106.0.0.0 Safari/537.36 Edg/106.0.1370.37","WebKit","Edge","106.0.1370.37","Windows","10.0","null","<div style=""font-size:60px;"">+</div>","null",""
"","","","","","html-button-response","61","112149","0.0-4.0-1.28","210","1","2022-10-10 12:42:35","ebf9627b049f568eb4bf28942cb89901","112.4.211.106","Mozilla/5.0 (Windows NT 10.0; Win64; x64) AppleWebKit/537.36 (KHTML, like Gecko) Chrome/106.0.0.0 Safari/537.36 Edg/106.0.1370.37","WebKit","Edge","106.0.1370.37","Windows","10.0","1450","<p>作为军队的指挥官，你可以选择发射导弹杀死 <strong>9名</strong> 敌国士兵，但会误杀附近的 <strong>1名</strong> 敌国平民。</p> <p>平民照片如下图所示。</p> <p></p> <img src='stimuli/faces/NFF8.jpg', style='max-width: 30%;'> </img> <p><strong>你是否选择发射武器？</strong></p>","1",""
"","","","","","html-keyboard-response","62","113152","0.0-4.0-0.29","210","1","2022-10-10 12:42:35","ebf9627b049f568eb4bf28942cb89901","112.4.211.106","Mozilla/5.0 (Windows NT 10.0; Win64; x64) AppleWebKit/537.36 (KHTML, like Gecko) Chrome/106.0.0.0 Safari/537.36 Edg/106.0.1370.37","WebKit","Edge","106.0.1370.37","Windows","10.0","null","<div style=""font-size:60px;"">+</div>","null",""
"","","","","","html-button-response","63","114524","0.0-4.0-1.29","210","1","2022-10-10 12:42:35","ebf9627b049f568eb4bf28942cb89901","112.4.211.106","Mozilla/5.0 (Windows NT 10.0; Win64; x64) AppleWebKit/537.36 (KHTML, like Gecko) Chrome/106.0.0.0 Safari/537.36 Edg/106.0.1370.37","WebKit","Edge","106.0.1370.37","Windows","10.0","1370","<p>作为军队的指挥官，你可以选择发射导弹杀死 <strong>6名</strong> 敌国士兵，但会误杀附近的 <strong>1名</strong> 敌国平民。</p> <p>平民照片如下图所示。</p> <p></p> <img src='stimuli/faces/NFM3.jpg', style='max-width: 30%;'> </img> <p><strong>你是否选择发射武器？</strong></p>","1",""
"","","","","","html-keyboard-response","64","115528","0.0-4.0-0.30","210","1","2022-10-10 12:42:35","ebf9627b049f568eb4bf28942cb89901","112.4.211.106","Mozilla/5.0 (Windows NT 10.0; Win64; x64) AppleWebKit/537.36 (KHTML, like Gecko) Chrome/106.0.0.0 Safari/537.36 Edg/106.0.1370.37","WebKit","Edge","106.0.1370.37","Windows","10.0","null","<div style=""font-size:60px;"">+</div>","null",""
"","","","","","html-button-response","65","116885","0.0-4.0-1.30","210","1","2022-10-10 12:42:35","ebf9627b049f568eb4bf28942cb89901","112.4.211.106","Mozilla/5.0 (Windows NT 10.0; Win64; x64) AppleWebKit/537.36 (KHTML, like Gecko) Chrome/106.0.0.0 Safari/537.36 Edg/106.0.1370.37","WebKit","Edge","106.0.1370.37","Windows","10.0","1354","<p>作为军队的指挥官，你可以选择发射导弹杀死 <strong>8名</strong> 敌国士兵，但会误杀附近的 <strong>1名</strong> 敌国平民。</p> <p>平民照片如下图所示。</p> <p></p> <img src='stimuli/faces/NFF7.jpg', style='max-width: 30%;'> </img> <p><strong>你是否选择发射武器？</strong></p>","1",""
"","","","","","html-keyboard-response","66","117887","0.0-4.0-0.31","210","1","2022-10-10 12:42:35","ebf9627b049f568eb4bf28942cb89901","112.4.211.106","Mozilla/5.0 (Windows NT 10.0; Win64; x64) AppleWebKit/537.36 (KHTML, like Gecko) Chrome/106.0.0.0 Safari/537.36 Edg/106.0.1370.37","WebKit","Edge","106.0.1370.37","Windows","10.0","null","<div style=""font-size:60px;"">+</div>","null",""
"","","","","","html-button-response","67","119045","0.0-4.0-1.31","210","1","2022-10-10 12:42:35","ebf9627b049f568eb4bf28942cb89901","112.4.211.106","Mozilla/5.0 (Windows NT 10.0; Win64; x64) AppleWebKit/537.36 (KHTML, like Gecko) Chrome/106.0.0.0 Safari/537.36 Edg/106.0.1370.37","WebKit","Edge","106.0.1370.37","Windows","10.0","1155","<p>作为军队的指挥官，你可以选择发射导弹杀死 <strong>9名</strong> 敌国士兵，但会炸毁附近的 <strong>1棵</strong> 敌国树木。</p> <p>树木的照片如下图所示。</p> <p></p> <img src='stimuli/trees/15.png', style='max-width: 30%;'> </img> <p><strong>你是否选择发射武器？</strong></p>","0",""
"","","","","","html-keyboard-response","68","120047","0.0-4.0-0.32","210","1","2022-10-10 12:42:35","ebf9627b049f568eb4bf28942cb89901","112.4.211.106","Mozilla/5.0 (Windows NT 10.0; Win64; x64) AppleWebKit/537.36 (KHTML, like Gecko) Chrome/106.0.0.0 Safari/537.36 Edg/106.0.1370.37","WebKit","Edge","106.0.1370.37","Windows","10.0","null","<div style=""font-size:60px;"">+</div>","null",""
"","","","","","html-button-response","69","122653","0.0-4.0-1.32","210","1","2022-10-10 12:42:35","ebf9627b049f568eb4bf28942cb89901","112.4.211.106","Mozilla/5.0 (Windows NT 10.0; Win64; x64) AppleWebKit/537.36 (KHTML, like Gecko) Chrome/106.0.0.0 Safari/537.36 Edg/106.0.1370.37","WebKit","Edge","106.0.1370.37","Windows","10.0","2604","<p>作为军队的指挥官，你可以选择发射导弹杀死 <strong>6名</strong> 敌国士兵，但会误杀附近的 <strong>1名</strong> 敌国平民。</p> <p>平民照片如下图所示。</p> <p></p> <img src='stimuli/faces/NFM6.jpg', style='max-width: 30%;'> </img> <p><strong>你是否选择发射武器？</strong></p>","1",""
"","","","","","html-keyboard-response","70","123656","0.0-4.0-0.33","210","1","2022-10-10 12:42:35","ebf9627b049f568eb4bf28942cb89901","112.4.211.106","Mozilla/5.0 (Windows NT 10.0; Win64; x64) AppleWebKit/537.36 (KHTML, like Gecko) Chrome/106.0.0.0 Safari/537.36 Edg/106.0.1370.37","WebKit","Edge","106.0.1370.37","Windows","10.0","null","<div style=""font-size:60px;"">+</div>","null",""
"","","","","","html-button-response","71","124613","0.0-4.0-1.33","210","1","2022-10-10 12:42:35","ebf9627b049f568eb4bf28942cb89901","112.4.211.106","Mozilla/5.0 (Windows NT 10.0; Win64; x64) AppleWebKit/537.36 (KHTML, like Gecko) Chrome/106.0.0.0 Safari/537.36 Edg/106.0.1370.37","WebKit","Edge","106.0.1370.37","Windows","10.0","953","<p>作为军队的指挥官，你可以选择发射导弹杀死 <strong>5名</strong> 敌国士兵，但会误杀附近的 <strong>1名</strong> 敌国平民。</p> <p>平民照片如下图所示。</p> <p></p> <img src='stimuli/faces/NFM1.jpg', style='max-width: 30%;'> </img> <p><strong>你是否选择发射武器？</strong></p>","1",""
"","","","","","html-keyboard-response","72","125615","0.0-4.0-0.34","210","1","2022-10-10 12:42:35","ebf9627b049f568eb4bf28942cb89901","112.4.211.106","Mozilla/5.0 (Windows NT 10.0; Win64; x64) AppleWebKit/537.36 (KHTML, like Gecko) Chrome/106.0.0.0 Safari/537.36 Edg/106.0.1370.37","WebKit","Edge","106.0.1370.37","Windows","10.0","null","<div style=""font-size:60px;"">+</div>","null",""
"","","","","","html-button-response","73","126692","0.0-4.0-1.34","210","1","2022-10-10 12:42:35","ebf9627b049f568eb4bf28942cb89901","112.4.211.106","Mozilla/5.0 (Windows NT 10.0; Win64; x64) AppleWebKit/537.36 (KHTML, like Gecko) Chrome/106.0.0.0 Safari/537.36 Edg/106.0.1370.37","WebKit","Edge","106.0.1370.37","Windows","10.0","1074","<p>作为军队的指挥官，你可以选择发射导弹杀死 <strong>2名</strong> 敌国士兵，但会炸毁附近的 <strong>1棵</strong> 敌国树木。</p> <p>树木的照片如下图所示。</p> <p></p> <img src='stimuli/trees/9.png', style='max-width: 30%;'> </img> <p><strong>你是否选择发射武器？</strong></p>","0",""
"","","","","","html-keyboard-response","74","127695","0.0-4.0-0.35","210","1","2022-10-10 12:42:35","ebf9627b049f568eb4bf28942cb89901","112.4.211.106","Mozilla/5.0 (Windows NT 10.0; Win64; x64) AppleWebKit/537.36 (KHTML, like Gecko) Chrome/106.0.0.0 Safari/537.36 Edg/106.0.1370.37","WebKit","Edge","106.0.1370.37","Windows","10.0","null","<div style=""font-size:60px;"">+</div>","null",""
"","","","","","html-button-response","75","129613","0.0-4.0-1.35","210","1","2022-10-10 12:42:35","ebf9627b049f568eb4bf28942cb89901","112.4.211.106","Mozilla/5.0 (Windows NT 10.0; Win64; x64) AppleWebKit/537.36 (KHTML, like Gecko) Chrome/106.0.0.0 Safari/537.36 Edg/106.0.1370.37","WebKit","Edge","106.0.1370.37","Windows","10.0","1913","<p>作为军队的指挥官，你可以选择发射导弹杀死 <strong>8名</strong> 敌国士兵，但会误杀附近的 <strong>1名</strong> 敌国平民。</p> <p>平民照片如下图所示。</p> <p></p> <img src='stimuli/faces/NFF1.jpg', style='max-width: 30%;'> </img> <p><strong>你是否选择发射武器？</strong></p>","1",""
"","","","","","html-keyboard-response","76","130615","0.0-4.0-0.36","210","1","2022-10-10 12:42:35","ebf9627b049f568eb4bf28942cb89901","112.4.211.106","Mozilla/5.0 (Windows NT 10.0; Win64; x64) AppleWebKit/537.36 (KHTML, like Gecko) Chrome/106.0.0.0 Safari/537.36 Edg/106.0.1370.37","WebKit","Edge","106.0.1370.37","Windows","10.0","null","<div style=""font-size:60px;"">+</div>","null",""
"","","","","","html-button-response","77","131661","0.0-4.0-1.36","210","1","2022-10-10 12:42:35","ebf9627b049f568eb4bf28942cb89901","112.4.211.106","Mozilla/5.0 (Windows NT 10.0; Win64; x64) AppleWebKit/537.36 (KHTML, like Gecko) Chrome/106.0.0.0 Safari/537.36 Edg/106.0.1370.37","WebKit","Edge","106.0.1370.37","Windows","10.0","1042","<p>作为军队的指挥官，你可以选择发射导弹杀死 <strong>2名</strong> 敌国士兵，但会误杀附近的 <strong>1名</strong> 敌国平民。</p> <p>平民照片如下图所示。</p> <p></p> <img src='stimuli/faces/NFM2.jpg', style='max-width: 30%;'> </img> <p><strong>你是否选择发射武器？</strong></p>","1",""
"","","","","","html-keyboard-response","78","132663","0.0-4.0-0.37","210","1","2022-10-10 12:42:35","ebf9627b049f568eb4bf28942cb89901","112.4.211.106","Mozilla/5.0 (Windows NT 10.0; Win64; x64) AppleWebKit/537.36 (KHTML, like Gecko) Chrome/106.0.0.0 Safari/537.36 Edg/106.0.1370.37","WebKit","Edge","106.0.1370.37","Windows","10.0","null","<div style=""font-size:60px;"">+</div>","null",""
"","","","","","html-button-response","79","133653","0.0-4.0-1.37","210","1","2022-10-10 12:42:35","ebf9627b049f568eb4bf28942cb89901","112.4.211.106","Mozilla/5.0 (Windows NT 10.0; Win64; x64) AppleWebKit/537.36 (KHTML, like Gecko) Chrome/106.0.0.0 Safari/537.36 Edg/106.0.1370.37","WebKit","Edge","106.0.1370.37","Windows","10.0","986","<p>作为军队的指挥官，你可以选择发射导弹杀死 <strong>5名</strong> 敌国士兵，但会炸毁附近的 <strong>1棵</strong> 敌国树木。</p> <p>树木的照片如下图所示。</p> <p></p> <img src='stimuli/trees/16.png', style='max-width: 30%;'> </img> <p><strong>你是否选择发射武器？</strong></p>","0",""
"","","","","","html-keyboard-response","80","134657","0.0-4.0-0.38","210","1","2022-10-10 12:42:35","ebf9627b049f568eb4bf28942cb89901","112.4.211.106","Mozilla/5.0 (Windows NT 10.0; Win64; x64) AppleWebKit/537.36 (KHTML, like Gecko) Chrome/106.0.0.0 Safari/537.36 Edg/106.0.1370.37","WebKit","Edge","106.0.1370.37","Windows","10.0","null","<div style=""font-size:60px;"">+</div>","null",""
"","","","","","html-button-response","81","135590","0.0-4.0-1.38","210","1","2022-10-10 12:42:35","ebf9627b049f568eb4bf28942cb89901","112.4.211.106","Mozilla/5.0 (Windows NT 10.0; Win64; x64) AppleWebKit/537.36 (KHTML, like Gecko) Chrome/106.0.0.0 Safari/537.36 Edg/106.0.1370.37","WebKit","Edge","106.0.1370.37","Windows","10.0","930","<p>作为军队的指挥官，你可以选择发射导弹杀死 <strong>9名</strong> 敌国士兵，但会炸毁附近的 <strong>1棵</strong> 敌国树木。</p> <p>树木的照片如下图所示。</p> <p></p> <img src='stimuli/trees/14.png', style='max-width: 30%;'> </img> <p><strong>你是否选择发射武器？</strong></p>","0",""
"","","","","","html-keyboard-response","82","136592","0.0-4.0-0.39","210","1","2022-10-10 12:42:35","ebf9627b049f568eb4bf28942cb89901","112.4.211.106","Mozilla/5.0 (Windows NT 10.0; Win64; x64) AppleWebKit/537.36 (KHTML, like Gecko) Chrome/106.0.0.0 Safari/537.36 Edg/106.0.1370.37","WebKit","Edge","106.0.1370.37","Windows","10.0","null","<div style=""font-size:60px;"">+</div>","null",""
"","","","","","html-button-response","83","137677","0.0-4.0-1.39","210","1","2022-10-10 12:42:35","ebf9627b049f568eb4bf28942cb89901","112.4.211.106","Mozilla/5.0 (Windows NT 10.0; Win64; x64) AppleWebKit/537.36 (KHTML, like Gecko) Chrome/106.0.0.0 Safari/537.36 Edg/106.0.1370.37","WebKit","Edge","106.0.1370.37","Windows","10.0","1082","<p>作为军队的指挥官，你可以选择发射导弹杀死 <strong>3名</strong> 敌国士兵，但会炸毁附近的 <strong>1棵</strong> 敌国树木。</p> <p>树木的照片如下图所示。</p> <p></p> <img src='stimuli/trees/6.png', style='max-width: 30%;'> </img> <p><strong>你是否选择发射武器？</strong></p>","0",""
"","","","","","html-keyboard-response","84","138679","0.0-4.0-0.40","210","1","2022-10-10 12:42:35","ebf9627b049f568eb4bf28942cb89901","112.4.211.106","Mozilla/5.0 (Windows NT 10.0; Win64; x64) AppleWebKit/537.36 (KHTML, like Gecko) Chrome/106.0.0.0 Safari/537.36 Edg/106.0.1370.37","WebKit","Edge","106.0.1370.37","Windows","10.0","null","<div style=""font-size:60px;"">+</div>","null",""
"","","","","","html-button-response","85","139509","0.0-4.0-1.40","210","1","2022-10-10 12:42:35","ebf9627b049f568eb4bf28942cb89901","112.4.211.106","Mozilla/5.0 (Windows NT 10.0; Win64; x64) AppleWebKit/537.36 (KHTML, like Gecko) Chrome/106.0.0.0 Safari/537.36 Edg/106.0.1370.37","WebKit","Edge","106.0.1370.37","Windows","10.0","825","<p>作为军队的指挥官，你可以选择发射导弹杀死 <strong>6名</strong> 敌国士兵，但会炸毁附近的 <strong>1棵</strong> 敌国树木。</p> <p>树木的照片如下图所示。</p> <p></p> <img src='stimuli/trees/2.png', style='max-width: 30%;'> </img> <p><strong>你是否选择发射武器？</strong></p>","0",""
"","","","","","html-keyboard-response","86","140512","0.0-4.0-0.41","210","1","2022-10-10 12:42:35","ebf9627b049f568eb4bf28942cb89901","112.4.211.106","Mozilla/5.0 (Windows NT 10.0; Win64; x64) AppleWebKit/537.36 (KHTML, like Gecko) Chrome/106.0.0.0 Safari/537.36 Edg/106.0.1370.37","WebKit","Edge","106.0.1370.37","Windows","10.0","null","<div style=""font-size:60px;"">+</div>","null",""
"","","","","","html-button-response","87","141581","0.0-4.0-1.41","210","1","2022-10-10 12:42:35","ebf9627b049f568eb4bf28942cb89901","112.4.211.106","Mozilla/5.0 (Windows NT 10.0; Win64; x64) AppleWebKit/537.36 (KHTML, like Gecko) Chrome/106.0.0.0 Safari/537.36 Edg/106.0.1370.37","WebKit","Edge","106.0.1370.37","Windows","10.0","1066","<p>作为军队的指挥官，你可以选择发射导弹杀死 <strong>4名</strong> 敌国士兵，但会误杀附近的 <strong>1名</strong> 敌国平民。</p> <p>平民照片如下图所示。</p> <p></p> <img src='stimuli/faces/NFF1.jpg', style='max-width: 30%;'> </img> <p><strong>你是否选择发射武器？</strong></p>","1",""
"","","","","","html-keyboard-response","88","142584","0.0-4.0-0.42","210","1","2022-10-10 12:42:35","ebf9627b049f568eb4bf28942cb89901","112.4.211.106","Mozilla/5.0 (Windows NT 10.0; Win64; x64) AppleWebKit/537.36 (KHTML, like Gecko) Chrome/106.0.0.0 Safari/537.36 Edg/106.0.1370.37","WebKit","Edge","106.0.1370.37","Windows","10.0","null","<div style=""font-size:60px;"">+</div>","null",""
"","","","","","html-button-response","89","143557","0.0-4.0-1.42","210","1","2022-10-10 12:42:35","ebf9627b049f568eb4bf28942cb89901","112.4.211.106","Mozilla/5.0 (Windows NT 10.0; Win64; x64) AppleWebKit/537.36 (KHTML, like Gecko) Chrome/106.0.0.0 Safari/537.36 Edg/106.0.1370.37","WebKit","Edge","106.0.1370.37","Windows","10.0","970","<p>作为军队的指挥官，你可以选择发射导弹杀死 <strong>5名</strong> 敌国士兵，但会误杀附近的 <strong>1名</strong> 敌国平民。</p> <p>平民照片如下图所示。</p> <p></p> <img src='stimuli/faces/NFF7.jpg', style='max-width: 30%;'> </img> <p><strong>你是否选择发射武器？</strong></p>","1",""
"","","","","","html-keyboard-response","90","144560","0.0-4.0-0.43","210","1","2022-10-10 12:42:35","ebf9627b049f568eb4bf28942cb89901","112.4.211.106","Mozilla/5.0 (Windows NT 10.0; Win64; x64) AppleWebKit/537.36 (KHTML, like Gecko) Chrome/106.0.0.0 Safari/537.36 Edg/106.0.1370.37","WebKit","Edge","106.0.1370.37","Windows","10.0","null","<div style=""font-size:60px;"">+</div>","null",""
"","","","","","html-button-response","91","145589","0.0-4.0-1.43","210","1","2022-10-10 12:42:35","ebf9627b049f568eb4bf28942cb89901","112.4.211.106","Mozilla/5.0 (Windows NT 10.0; Win64; x64) AppleWebKit/537.36 (KHTML, like Gecko) Chrome/106.0.0.0 Safari/537.36 Edg/106.0.1370.37","WebKit","Edge","106.0.1370.37","Windows","10.0","1025","<p>作为军队的指挥官，你可以选择发射导弹杀死 <strong>6名</strong> 敌国士兵，但会误杀附近的 <strong>1名</strong> 敌国平民。</p> <p>平民照片如下图所示。</p> <p></p> <img src='stimuli/faces/NFM5.jpg', style='max-width: 30%;'> </img> <p><strong>你是否选择发射武器？</strong></p>","1",""
"","","","","","html-keyboard-response","92","146593","0.0-4.0-0.44","210","1","2022-10-10 12:42:35","ebf9627b049f568eb4bf28942cb89901","112.4.211.106","Mozilla/5.0 (Windows NT 10.0; Win64; x64) AppleWebKit/537.36 (KHTML, like Gecko) Chrome/106.0.0.0 Safari/537.36 Edg/106.0.1370.37","WebKit","Edge","106.0.1370.37","Windows","10.0","null","<div style=""font-size:60px;"">+</div>","null",""
"","","","","","html-button-response","93","148157","0.0-4.0-1.44","210","1","2022-10-10 12:42:35","ebf9627b049f568eb4bf28942cb89901","112.4.211.106","Mozilla/5.0 (Windows NT 10.0; Win64; x64) AppleWebKit/537.36 (KHTML, like Gecko) Chrome/106.0.0.0 Safari/537.36 Edg/106.0.1370.37","WebKit","Edge","106.0.1370.37","Windows","10.0","1561","<p>作为军队的指挥官，你可以选择发射导弹杀死 <strong>7名</strong> 敌国士兵，但会误杀附近的 <strong>1名</strong> 敌国平民。</p> <p>平民照片如下图所示。</p> <p></p> <img src='stimuli/faces/NFM8.jpg', style='max-width: 30%;'> </img> <p><strong>你是否选择发射武器？</strong></p>","1",""
"","","","","","html-keyboard-response","94","149159","0.0-4.0-0.45","210","1","2022-10-10 12:42:35","ebf9627b049f568eb4bf28942cb89901","112.4.211.106","Mozilla/5.0 (Windows NT 10.0; Win64; x64) AppleWebKit/537.36 (KHTML, like Gecko) Chrome/106.0.0.0 Safari/537.36 Edg/106.0.1370.37","WebKit","Edge","106.0.1370.37","Windows","10.0","null","<div style=""font-size:60px;"">+</div>","null",""
"","","","","","html-button-response","95","150110","0.0-4.0-1.45","210","1","2022-10-10 12:42:35","ebf9627b049f568eb4bf28942cb89901","112.4.211.106","Mozilla/5.0 (Windows NT 10.0; Win64; x64) AppleWebKit/537.36 (KHTML, like Gecko) Chrome/106.0.0.0 Safari/537.36 Edg/106.0.1370.37","WebKit","Edge","106.0.1370.37","Windows","10.0","947","<p>作为军队的指挥官，你可以选择发射导弹杀死 <strong>8名</strong> 敌国士兵，但会炸毁附近的 <strong>1棵</strong> 敌国树木。</p> <p>树木的照片如下图所示。</p> <p></p> <img src='stimuli/trees/3.png', style='max-width: 30%;'> </img> <p><strong>你是否选择发射武器？</strong></p>","0",""
"","","","","","html-keyboard-response","96","151113","0.0-4.0-0.46","210","1","2022-10-10 12:42:35","ebf9627b049f568eb4bf28942cb89901","112.4.211.106","Mozilla/5.0 (Windows NT 10.0; Win64; x64) AppleWebKit/537.36 (KHTML, like Gecko) Chrome/106.0.0.0 Safari/537.36 Edg/106.0.1370.37","WebKit","Edge","106.0.1370.37","Windows","10.0","null","<div style=""font-size:60px;"">+</div>","null",""
"","","","","","html-button-response","97","156341","0.0-4.0-1.46","210","1","2022-10-10 12:42:35","ebf9627b049f568eb4bf28942cb89901","112.4.211.106","Mozilla/5.0 (Windows NT 10.0; Win64; x64) AppleWebKit/537.36 (KHTML, like Gecko) Chrome/106.0.0.0 Safari/537.36 Edg/106.0.1370.37","WebKit","Edge","106.0.1370.37","Windows","10.0","5223","<p>作为军队的指挥官，你可以选择发射导弹杀死 <strong>5名</strong> 敌国士兵，但会误杀附近的 <strong>1名</strong> 敌国平民。</p> <p>平民照片如下图所示。</p> <p></p> <img src='stimuli/faces/NFF3.jpg', style='max-width: 30%;'> </img> <p><strong>你是否选择发射武器？</strong></p>","1",""
"","","","","","html-keyboard-response","98","157344","0.0-4.0-0.47","210","1","2022-10-10 12:42:35","ebf9627b049f568eb4bf28942cb89901","112.4.211.106","Mozilla/5.0 (Windows NT 10.0; Win64; x64) AppleWebKit/537.36 (KHTML, like Gecko) Chrome/106.0.0.0 Safari/537.36 Edg/106.0.1370.37","WebKit","Edge","106.0.1370.37","Windows","10.0","null","<div style=""font-size:60px;"">+</div>","null",""
"","","","","","html-button-response","99","157973","0.0-4.0-1.47","210","1","2022-10-10 12:42:35","ebf9627b049f568eb4bf28942cb89901","112.4.211.106","Mozilla/5.0 (Windows NT 10.0; Win64; x64) AppleWebKit/537.36 (KHTML, like Gecko) Chrome/106.0.0.0 Safari/537.36 Edg/106.0.1370.37","WebKit","Edge","106.0.1370.37","Windows","10.0","626","<p>作为军队的指挥官，你可以选择发射导弹杀死 <strong>5名</strong> 敌国士兵，但会炸毁附近的 <strong>1棵</strong> 敌国树木。</p> <p>树木的照片如下图所示。</p> <p></p> <img src='stimuli/trees/4.png', style='max-width: 30%;'> </img> <p><strong>你是否选择发射武器？</strong></p>","0",""
"","","","","","html-keyboard-response","100","158976","0.0-4.0-0.48","210","1","2022-10-10 12:42:35","ebf9627b049f568eb4bf28942cb89901","112.4.211.106","Mozilla/5.0 (Windows NT 10.0; Win64; x64) AppleWebKit/537.36 (KHTML, like Gecko) Chrome/106.0.0.0 Safari/537.36 Edg/106.0.1370.37","WebKit","Edge","106.0.1370.37","Windows","10.0","null","<div style=""font-size:60px;"">+</div>","null",""
"","","","","","html-button-response","101","159741","0.0-4.0-1.48","210","1","2022-10-10 12:42:35","ebf9627b049f568eb4bf28942cb89901","112.4.211.106","Mozilla/5.0 (Windows NT 10.0; Win64; x64) AppleWebKit/537.36 (KHTML, like Gecko) Chrome/106.0.0.0 Safari/537.36 Edg/106.0.1370.37","WebKit","Edge","106.0.1370.37","Windows","10.0","762","<p>作为军队的指挥官，你可以选择发射导弹杀死 <strong>5名</strong> 敌国士兵，但会炸毁附近的 <strong>1棵</strong> 敌国树木。</p> <p>树木的照片如下图所示。</p> <p></p> <img src='stimuli/trees/14.png', style='max-width: 30%;'> </img> <p><strong>你是否选择发射武器？</strong></p>","0",""
"","","","","","html-keyboard-response","102","160757","0.0-4.0-0.49","210","1","2022-10-10 12:42:35","ebf9627b049f568eb4bf28942cb89901","112.4.211.106","Mozilla/5.0 (Windows NT 10.0; Win64; x64) AppleWebKit/537.36 (KHTML, like Gecko) Chrome/106.0.0.0 Safari/537.36 Edg/106.0.1370.37","WebKit","Edge","106.0.1370.37","Windows","10.0","null","<div style=""font-size:60px;"">+</div>","null",""
"","","","","","html-button-response","103","162333","0.0-4.0-1.49","210","1","2022-10-10 12:42:35","ebf9627b049f568eb4bf28942cb89901","112.4.211.106","Mozilla/5.0 (Windows NT 10.0; Win64; x64) AppleWebKit/537.36 (KHTML, like Gecko) Chrome/106.0.0.0 Safari/537.36 Edg/106.0.1370.37","WebKit","Edge","106.0.1370.37","Windows","10.0","1571","<p>作为军队的指挥官，你可以选择发射导弹杀死 <strong>5名</strong> 敌国士兵，但会误杀附近的 <strong>1名</strong> 敌国平民。</p> <p>平民照片如下图所示。</p> <p></p> <img src='stimuli/faces/NFM6.jpg', style='max-width: 30%;'> </img> <p><strong>你是否选择发射武器？</strong></p>","1",""
"","","","","","html-keyboard-response","104","163336","0.0-4.0-0.50","210","1","2022-10-10 12:42:35","ebf9627b049f568eb4bf28942cb89901","112.4.211.106","Mozilla/5.0 (Windows NT 10.0; Win64; x64) AppleWebKit/537.36 (KHTML, like Gecko) Chrome/106.0.0.0 Safari/537.36 Edg/106.0.1370.37","WebKit","Edge","106.0.1370.37","Windows","10.0","null","<div style=""font-size:60px;"">+</div>","null",""
"","","","","","html-button-response","105","164636","0.0-4.0-1.50","210","1","2022-10-10 12:42:35","ebf9627b049f568eb4bf28942cb89901","112.4.211.106","Mozilla/5.0 (Windows NT 10.0; Win64; x64) AppleWebKit/537.36 (KHTML, like Gecko) Chrome/106.0.0.0 Safari/537.36 Edg/106.0.1370.37","WebKit","Edge","106.0.1370.37","Windows","10.0","1298","<p>作为军队的指挥官，你可以选择发射导弹杀死 <strong>10名</strong> 敌国士兵，但会炸毁附近的 <strong>1棵</strong> 敌国树木。</p> <p>树木的照片如下图所示。</p> <p></p> <img src='stimuli/trees/4.png', style='max-width: 30%;'> </img> <p><strong>你是否选择发射武器？</strong></p>","0",""
"","","","","","html-keyboard-response","106","165650","0.0-4.0-0.51","210","1","2022-10-10 12:42:35","ebf9627b049f568eb4bf28942cb89901","112.4.211.106","Mozilla/5.0 (Windows NT 10.0; Win64; x64) AppleWebKit/537.36 (KHTML, like Gecko) Chrome/106.0.0.0 Safari/537.36 Edg/106.0.1370.37","WebKit","Edge","106.0.1370.37","Windows","10.0","null","<div style=""font-size:60px;"">+</div>","null",""
"","","","","","html-button-response","107","166509","0.0-4.0-1.51","210","1","2022-10-10 12:42:35","ebf9627b049f568eb4bf28942cb89901","112.4.211.106","Mozilla/5.0 (Windows NT 10.0; Win64; x64) AppleWebKit/537.36 (KHTML, like Gecko) Chrome/106.0.0.0 Safari/537.36 Edg/106.0.1370.37","WebKit","Edge","106.0.1370.37","Windows","10.0","855","<p>作为军队的指挥官，你可以选择发射导弹杀死 <strong>6名</strong> 敌国士兵，但会炸毁附近的 <strong>1棵</strong> 敌国树木。</p> <p>树木的照片如下图所示。</p> <p></p> <img src='stimuli/trees/11.png', style='max-width: 30%;'> </img> <p><strong>你是否选择发射武器？</strong></p>","0",""
"","","","","","html-keyboard-response","108","167512","0.0-4.0-0.52","210","1","2022-10-10 12:42:35","ebf9627b049f568eb4bf28942cb89901","112.4.211.106","Mozilla/5.0 (Windows NT 10.0; Win64; x64) AppleWebKit/537.36 (KHTML, like Gecko) Chrome/106.0.0.0 Safari/537.36 Edg/106.0.1370.37","WebKit","Edge","106.0.1370.37","Windows","10.0","null","<div style=""font-size:60px;"">+</div>","null",""
"","","","","","html-button-response","109","168989","0.0-4.0-1.52","210","1","2022-10-10 12:42:35","ebf9627b049f568eb4bf28942cb89901","112.4.211.106","Mozilla/5.0 (Windows NT 10.0; Win64; x64) AppleWebKit/537.36 (KHTML, like Gecko) Chrome/106.0.0.0 Safari/537.36 Edg/106.0.1370.37","WebKit","Edge","106.0.1370.37","Windows","10.0","1474","<p>作为军队的指挥官，你可以选择发射导弹杀死 <strong>3名</strong> 敌国士兵，但会误杀附近的 <strong>1名</strong> 敌国平民。</p> <p>平民照片如下图所示。</p> <p></p> <img src='stimuli/faces/NFM4.jpg', style='max-width: 30%;'> </img> <p><strong>你是否选择发射武器？</strong></p>","1",""
"","","","","","html-keyboard-response","110","169991","0.0-4.0-0.53","210","1","2022-10-10 12:42:35","ebf9627b049f568eb4bf28942cb89901","112.4.211.106","Mozilla/5.0 (Windows NT 10.0; Win64; x64) AppleWebKit/537.36 (KHTML, like Gecko) Chrome/106.0.0.0 Safari/537.36 Edg/106.0.1370.37","WebKit","Edge","106.0.1370.37","Windows","10.0","null","<div style=""font-size:60px;"">+</div>","null",""
"","","","","","html-button-response","111","171173","0.0-4.0-1.53","210","1","2022-10-10 12:42:35","ebf9627b049f568eb4bf28942cb89901","112.4.211.106","Mozilla/5.0 (Windows NT 10.0; Win64; x64) AppleWebKit/537.36 (KHTML, like Gecko) Chrome/106.0.0.0 Safari/537.36 Edg/106.0.1370.37","WebKit","Edge","106.0.1370.37","Windows","10.0","1178","<p>作为军队的指挥官，你可以选择发射导弹杀死 <strong>5名</strong> 敌国士兵，但会炸毁附近的 <strong>1棵</strong> 敌国树木。</p> <p>树木的照片如下图所示。</p> <p></p> <img src='stimuli/trees/8.png', style='max-width: 30%;'> </img> <p><strong>你是否选择发射武器？</strong></p>","0",""
"","","","","","html-keyboard-response","112","172191","0.0-4.0-0.54","210","1","2022-10-10 12:42:35","ebf9627b049f568eb4bf28942cb89901","112.4.211.106","Mozilla/5.0 (Windows NT 10.0; Win64; x64) AppleWebKit/537.36 (KHTML, like Gecko) Chrome/106.0.0.0 Safari/537.36 Edg/106.0.1370.37","WebKit","Edge","106.0.1370.37","Windows","10.0","null","<div style=""font-size:60px;"">+</div>","null",""
"","","","","","html-button-response","113","173717","0.0-4.0-1.54","210","1","2022-10-10 12:42:35","ebf9627b049f568eb4bf28942cb89901","112.4.211.106","Mozilla/5.0 (Windows NT 10.0; Win64; x64) AppleWebKit/537.36 (KHTML, like Gecko) Chrome/106.0.0.0 Safari/537.36 Edg/106.0.1370.37","WebKit","Edge","106.0.1370.37","Windows","10.0","1523","<p>作为军队的指挥官，你可以选择发射导弹杀死 <strong>7名</strong> 敌国士兵，但会误杀附近的 <strong>1名</strong> 敌国平民。</p> <p>平民照片如下图所示。</p> <p></p> <img src='stimuli/faces/NFF2.jpg', style='max-width: 30%;'> </img> <p><strong>你是否选择发射武器？</strong></p>","1",""
"","","","","","html-keyboard-response","114","174722","0.0-4.0-0.55","210","1","2022-10-10 12:42:35","ebf9627b049f568eb4bf28942cb89901","112.4.211.106","Mozilla/5.0 (Windows NT 10.0; Win64; x64) AppleWebKit/537.36 (KHTML, like Gecko) Chrome/106.0.0.0 Safari/537.36 Edg/106.0.1370.37","WebKit","Edge","106.0.1370.37","Windows","10.0","null","<div style=""font-size:60px;"">+</div>","null",""
"","","","","","html-button-response","115","175525","0.0-4.0-1.55","210","1","2022-10-10 12:42:35","ebf9627b049f568eb4bf28942cb89901","112.4.211.106","Mozilla/5.0 (Windows NT 10.0; Win64; x64) AppleWebKit/537.36 (KHTML, like Gecko) Chrome/106.0.0.0 Safari/537.36 Edg/106.0.1370.37","WebKit","Edge","106.0.1370.37","Windows","10.0","800","<p>作为军队的指挥官，你可以选择发射导弹杀死 <strong>8名</strong> 敌国士兵，但会炸毁附近的 <strong>1棵</strong> 敌国树木。</p> <p>树木的照片如下图所示。</p> <p></p> <img src='stimuli/trees/9.png', style='max-width: 30%;'> </img> <p><strong>你是否选择发射武器？</strong></p>","0",""
"","","","","","html-keyboard-response","116","176541","0.0-4.0-0.56","210","1","2022-10-10 12:42:35","ebf9627b049f568eb4bf28942cb89901","112.4.211.106","Mozilla/5.0 (Windows NT 10.0; Win64; x64) AppleWebKit/537.36 (KHTML, like Gecko) Chrome/106.0.0.0 Safari/537.36 Edg/106.0.1370.37","WebKit","Edge","106.0.1370.37","Windows","10.0","null","<div style=""font-size:60px;"">+</div>","null",""
"","","","","","html-button-response","117","178286","0.0-4.0-1.56","210","1","2022-10-10 12:42:35","ebf9627b049f568eb4bf28942cb89901","112.4.211.106","Mozilla/5.0 (Windows NT 10.0; Win64; x64) AppleWebKit/537.36 (KHTML, like Gecko) Chrome/106.0.0.0 Safari/537.36 Edg/106.0.1370.37","WebKit","Edge","106.0.1370.37","Windows","10.0","1739","<p>作为军队的指挥官，你可以选择发射导弹杀死 <strong>5名</strong> 敌国士兵，但会炸毁附近的 <strong>1棵</strong> 敌国树木。</p> <p>树木的照片如下图所示。</p> <p></p> <img src='stimuli/trees/3.png', style='max-width: 30%;'> </img> <p><strong>你是否选择发射武器？</strong></p>","0",""
"","","","","","html-keyboard-response","118","179293","0.0-4.0-0.57","210","1","2022-10-10 12:42:35","ebf9627b049f568eb4bf28942cb89901","112.4.211.106","Mozilla/5.0 (Windows NT 10.0; Win64; x64) AppleWebKit/537.36 (KHTML, like Gecko) Chrome/106.0.0.0 Safari/537.36 Edg/106.0.1370.37","WebKit","Edge","106.0.1370.37","Windows","10.0","null","<div style=""font-size:60px;"">+</div>","null",""
"","","","","","html-button-response","119","180614","0.0-4.0-1.57","210","1","2022-10-10 12:42:35","ebf9627b049f568eb4bf28942cb89901","112.4.211.106","Mozilla/5.0 (Windows NT 10.0; Win64; x64) AppleWebKit/537.36 (KHTML, like Gecko) Chrome/106.0.0.0 Safari/537.36 Edg/106.0.1370.37","WebKit","Edge","106.0.1370.37","Windows","10.0","1316","<p>作为军队的指挥官，你可以选择发射导弹杀死 <strong>6名</strong> 敌国士兵，但会误杀附近的 <strong>1名</strong> 敌国平民。</p> <p>平民照片如下图所示。</p> <p></p> <img src='stimuli/faces/NFF5.jpg', style='max-width: 30%;'> </img> <p><strong>你是否选择发射武器？</strong></p>","1",""
"","","","","","html-keyboard-response","120","181629","0.0-4.0-0.58","210","1","2022-10-10 12:42:35","ebf9627b049f568eb4bf28942cb89901","112.4.211.106","Mozilla/5.0 (Windows NT 10.0; Win64; x64) AppleWebKit/537.36 (KHTML, like Gecko) Chrome/106.0.0.0 Safari/537.36 Edg/106.0.1370.37","WebKit","Edge","106.0.1370.37","Windows","10.0","null","<div style=""font-size:60px;"">+</div>","null",""
"","","","","","html-button-response","121","195381","0.0-4.0-1.58","210","1","2022-10-10 12:42:35","ebf9627b049f568eb4bf28942cb89901","112.4.211.106","Mozilla/5.0 (Windows NT 10.0; Win64; x64) AppleWebKit/537.36 (KHTML, like Gecko) Chrome/106.0.0.0 Safari/537.36 Edg/106.0.1370.37","WebKit","Edge","106.0.1370.37","Windows","10.0","13747","<p>作为军队的指挥官，你可以选择发射导弹杀死 <strong>10名</strong> 敌国士兵，但会误杀附近的 <strong>1名</strong> 敌国平民。</p> <p>平民照片如下图所示。</p> <p></p> <img src='stimuli/faces/NFF3.jpg', style='max-width: 30%;'> </img> <p><strong>你是否选择发射武器？</strong></p>","0",""
"","","","","","html-keyboard-response","122","196384","0.0-4.0-0.59","210","1","2022-10-10 12:42:35","ebf9627b049f568eb4bf28942cb89901","112.4.211.106","Mozilla/5.0 (Windows NT 10.0; Win64; x64) AppleWebKit/537.36 (KHTML, like Gecko) Chrome/106.0.0.0 Safari/537.36 Edg/106.0.1370.37","WebKit","Edge","106.0.1370.37","Windows","10.0","null","<div style=""font-size:60px;"">+</div>","null",""
"","","","","","html-button-response","123","197462","0.0-4.0-1.59","210","1","2022-10-10 12:42:35","ebf9627b049f568eb4bf28942cb89901","112.4.211.106","Mozilla/5.0 (Windows NT 10.0; Win64; x64) AppleWebKit/537.36 (KHTML, like Gecko) Chrome/106.0.0.0 Safari/537.36 Edg/106.0.1370.37","WebKit","Edge","106.0.1370.37","Windows","10.0","1074","<p>作为军队的指挥官，你可以选择发射导弹杀死 <strong>10名</strong> 敌国士兵，但会炸毁附近的 <strong>1棵</strong> 敌国树木。</p> <p>树木的照片如下图所示。</p> <p></p> <img src='stimuli/trees/16.png', style='max-width: 30%;'> </img> <p><strong>你是否选择发射武器？</strong></p>","0",""
"","","","","","html-keyboard-response","124","198471","0.0-4.0-0.60","210","1","2022-10-10 12:42:35","ebf9627b049f568eb4bf28942cb89901","112.4.211.106","Mozilla/5.0 (Windows NT 10.0; Win64; x64) AppleWebKit/537.36 (KHTML, like Gecko) Chrome/106.0.0.0 Safari/537.36 Edg/106.0.1370.37","WebKit","Edge","106.0.1370.37","Windows","10.0","null","<div style=""font-size:60px;"">+</div>","null",""
"","","","","","html-button-response","125","199533","0.0-4.0-1.60","210","1","2022-10-10 12:42:35","ebf9627b049f568eb4bf28942cb89901","112.4.211.106","Mozilla/5.0 (Windows NT 10.0; Win64; x64) AppleWebKit/537.36 (KHTML, like Gecko) Chrome/106.0.0.0 Safari/537.36 Edg/106.0.1370.37","WebKit","Edge","106.0.1370.37","Windows","10.0","1057","<p>作为军队的指挥官，你可以选择发射导弹杀死 <strong>4名</strong> 敌国士兵，但会炸毁附近的 <strong>1棵</strong> 敌国树木。</p> <p>树木的照片如下图所示。</p> <p></p> <img src='stimuli/trees/5.png', style='max-width: 30%;'> </img> <p><strong>你是否选择发射武器？</strong></p>","0",""
"","","","","","html-keyboard-response","126","200545","0.0-4.0-0.61","210","1","2022-10-10 12:42:35","ebf9627b049f568eb4bf28942cb89901","112.4.211.106","Mozilla/5.0 (Windows NT 10.0; Win64; x64) AppleWebKit/537.36 (KHTML, like Gecko) Chrome/106.0.0.0 Safari/537.36 Edg/106.0.1370.37","WebKit","Edge","106.0.1370.37","Windows","10.0","null","<div style=""font-size:60px;"">+</div>","null",""
"","","","","","html-button-response","127","201310","0.0-4.0-1.61","210","1","2022-10-10 12:42:35","ebf9627b049f568eb4bf28942cb89901","112.4.211.106","Mozilla/5.0 (Windows NT 10.0; Win64; x64) AppleWebKit/537.36 (KHTML, like Gecko) Chrome/106.0.0.0 Safari/537.36 Edg/106.0.1370.37","WebKit","Edge","106.0.1370.37","Windows","10.0","761","<p>作为军队的指挥官，你可以选择发射导弹杀死 <strong>2名</strong> 敌国士兵，但会炸毁附近的 <strong>1棵</strong> 敌国树木。</p> <p>树木的照片如下图所示。</p> <p></p> <img src='stimuli/trees/12.png', style='max-width: 30%;'> </img> <p><strong>你是否选择发射武器？</strong></p>","0",""
"","","","","","html-keyboard-response","128","202314","0.0-4.0-0.62","210","1","2022-10-10 12:42:35","ebf9627b049f568eb4bf28942cb89901","112.4.211.106","Mozilla/5.0 (Windows NT 10.0; Win64; x64) AppleWebKit/537.36 (KHTML, like Gecko) Chrome/106.0.0.0 Safari/537.36 Edg/106.0.1370.37","WebKit","Edge","106.0.1370.37","Windows","10.0","null","<div style=""font-size:60px;"">+</div>","null",""
"","","","","","html-button-response","129","203438","0.0-4.0-1.62","210","1","2022-10-10 12:42:35","ebf9627b049f568eb4bf28942cb89901","112.4.211.106","Mozilla/5.0 (Windows NT 10.0; Win64; x64) AppleWebKit/537.36 (KHTML, like Gecko) Chrome/106.0.0.0 Safari/537.36 Edg/106.0.1370.37","WebKit","Edge","106.0.1370.37","Windows","10.0","1119","<p>作为军队的指挥官，你可以选择发射导弹杀死 <strong>6名</strong> 敌国士兵，但会误杀附近的 <strong>1名</strong> 敌国平民。</p> <p>平民照片如下图所示。</p> <p></p> <img src='stimuli/faces/NFM2.jpg', style='max-width: 30%;'> </img> <p><strong>你是否选择发射武器？</strong></p>","1",""
"","","","","","html-keyboard-response","130","204454","0.0-4.0-0.63","210","1","2022-10-10 12:42:35","ebf9627b049f568eb4bf28942cb89901","112.4.211.106","Mozilla/5.0 (Windows NT 10.0; Win64; x64) AppleWebKit/537.36 (KHTML, like Gecko) Chrome/106.0.0.0 Safari/537.36 Edg/106.0.1370.37","WebKit","Edge","106.0.1370.37","Windows","10.0","null","<div style=""font-size:60px;"">+</div>","null",""
"","","","","","html-button-response","131","205213","0.0-4.0-1.63","210","1","2022-10-10 12:42:35","ebf9627b049f568eb4bf28942cb89901","112.4.211.106","Mozilla/5.0 (Windows NT 10.0; Win64; x64) AppleWebKit/537.36 (KHTML, like Gecko) Chrome/106.0.0.0 Safari/537.36 Edg/106.0.1370.37","WebKit","Edge","106.0.1370.37","Windows","10.0","753","<p>作为军队的指挥官，你可以选择发射导弹杀死 <strong>6名</strong> 敌国士兵，但会炸毁附近的 <strong>1棵</strong> 敌国树木。</p> <p>树木的照片如下图所示。</p> <p></p> <img src='stimuli/trees/8.png', style='max-width: 30%;'> </img> <p><strong>你是否选择发射武器？</strong></p>","0",""
"","","","","","survey-multi-choice","132","222110","0.0-5.0","210","1","2022-10-10 12:42:35","ebf9627b049f568eb4bf28942cb89901","112.4.211.106","Mozilla/5.0 (Windows NT 10.0; Win64; x64) AppleWebKit/537.36 (KHTML, like Gecko) Chrome/106.0.0.0 Safari/537.36 Edg/106.0.1370.37","WebKit","Edge","106.0.1370.37","Windows","10.0","16893","","{""Attention1"":""""}","[0]"
"","","","","","html-button-response","133","223694","0.0-6.0","210","1","2022-10-10 12:42:35","ebf9627b049f568eb4bf28942cb89901","112.4.211.106","Mozilla/5.0 (Windows NT 10.0; Win64; x64) AppleWebKit/537.36 (KHTML, like Gecko) Chrome/106.0.0.0 Safari/537.36 Edg/106.0.1370.37","WebKit","Edge","106.0.1370.37","Windows","10.0","1579","<p style=""font-size:20px;font-weight:bold;"">恭喜！</p><p>你已经完成了实验的第一部分。</p><p>请休息放松一下，然后进入第二部分。</p><p>这部分大约需要10分钟。</p>","0",""
"","","","","","survey-text","134","256199","0.0-7.0","210","1","2022-10-10 12:42:35","ebf9627b049f568eb4bf28942cb89901","112.4.211.106","Mozilla/5.0 (Windows NT 10.0; Win64; x64) AppleWebKit/537.36 (KHTML, like Gecko) Chrome/106.0.0.0 Safari/537.36 Edg/106.0.1370.37","WebKit","Edge","106.0.1370.37","Windows","10.0","31493","","{""Age"":""20"",""Nation"":""这个"",""Born"":""海南省"",""Live"":""扬州市"",""Ethnic"":""汉"",""Alipay"":""18762311372""}",""
"","","","","","survey-multi-choice","135","271558","0.0-8.0","210","1","2022-10-10 12:42:35","ebf9627b049f568eb4bf28942cb89901","112.4.211.106","Mozilla/5.0 (Windows NT 10.0; Win64; x64) AppleWebKit/537.36 (KHTML, like Gecko) Chrome/106.0.0.0 Safari/537.36 Edg/106.0.1370.37","WebKit","Edge","106.0.1370.37","Windows","10.0","15355","","{""Gender"":""男"",""Education"":""本科毕业"",""Income"":""￥70,000-￥139,999"",""Children"":""0"",""Race"":""亚洲人""}","[0,1,2,3,4]"
"","","","","","survey-multi-select","136","277414","0.0-9.0","210","1","2022-10-10 12:42:35","ebf9627b049f568eb4bf28942cb89901","112.4.211.106","Mozilla/5.0 (Windows NT 10.0; Win64; x64) AppleWebKit/537.36 (KHTML, like Gecko) Chrome/106.0.0.0 Safari/537.36 Edg/106.0.1370.37","WebKit","Edge","106.0.1370.37","Windows","10.0","5844","","{""Marriage"":[""未婚""],""Religion"":[""无宗教信仰""]}","[0,1]"
"","","","","","survey-multi-choice","137","280494","0.0-10.0","210","1","2022-10-10 12:42:35","ebf9627b049f568eb4bf28942cb89901","112.4.211.106","Mozilla/5.0 (Windows NT 10.0; Win64; x64) AppleWebKit/537.36 (KHTML, like Gecko) Chrome/106.0.0.0 Safari/537.36 Edg/106.0.1370.37","WebKit","Edge","106.0.1370.37","Windows","10.0","3075","","{""SES"":""5""}","[0]"
"","","","","","html-button-response","138","281989","0.0-11.0","210","1","2022-10-10 12:42:35","ebf9627b049f568eb4bf28942cb89901","112.4.211.106","Mozilla/5.0 (Windows NT 10.0; Win64; x64) AppleWebKit/537.36 (KHTML, like Gecko) Chrome/106.0.0.0 Safari/537.36 Edg/106.0.1370.37","WebKit","Edge","106.0.1370.37","Windows","10.0","1491","<p><strong>请判断下列陈述在多大程度上可以形容你？</p><p> (1 = ""和我一点都不像"" to 5 = ""非常像我"".)</strong></p>","0",""
"","","","","","survey-likert","139","301766","0.0-12.0","210","1","2022-10-10 12:42:35","ebf9627b049f568eb4bf28942cb89901","112.4.211.106","Mozilla/5.0 (Windows NT 10.0; Win64; x64) AppleWebKit/537.36 (KHTML, like Gecko) Chrome/106.0.0.0 Safari/537.36 Edg/106.0.1370.37","WebKit","Edge","106.0.1370.37","Windows","10.0","19774","","{""Aggression1"":0,""Aggression2"":0,""Aggression3"":3,""Aggression4"":0,""Aggression5"":3,""Aggression6"":2,""Aggression7"":3,""Aggression8"":0,""Aggression9"":0}","[0,1,2,3,4,5,6,7,8]"
"","","","","","html-button-response","140","303733","0.0-13.0","210","1","2022-10-10 12:42:35","ebf9627b049f568eb4bf28942cb89901","112.4.211.106","Mozilla/5.0 (Windows NT 10.0; Win64; x64) AppleWebKit/537.36 (KHTML, like Gecko) Chrome/106.0.0.0 Safari/537.36 Edg/106.0.1370.37","WebKit","Edge","106.0.1370.37","Windows","10.0","1963","<p><strong>请判断你在多大程度上同意下列陈述。</strong></p>","0",""
"","","","","","survey-likert","141","393526","0.0-14.0","210","1","2022-10-10 12:42:35","ebf9627b049f568eb4bf28942cb89901","112.4.211.106","Mozilla/5.0 (Windows NT 10.0; Win64; x64) AppleWebKit/537.36 (KHTML, like Gecko) Chrome/106.0.0.0 Safari/537.36 Edg/106.0.1370.37","WebKit","Edge","106.0.1370.37","Windows","10.0","89788","","{""scale5"":3,""scale14"":1,""scale27"":1,""scale21"":3,""scale28"":4,""scale19"":3,""scale7"":3,""scale22"":3,""scale25"":4,""scale24"":1,""scale16"":3,""scale6"":1,""scale9"":3,""scale13"":1,""scale17"":2,""scale23"":3,""scale12"":1,""scale20"":3,""scale26"":3,""scale15"":0,""scale3"":1,""scale10"":2,""scale11"":4,""scale2"":1,""scale18"":1,""scale8"":3,""scale1"":1,""scale4"":1}","[4,13,26,20,27,18,6,21,24,23,15,5,8,12,16,22,11,19,25,14,2,9,10,1,17,7,0,3]"
"","","","","","html-button-response","142","395085","0.0-15.0","210","1","2022-10-10 12:42:35","ebf9627b049f568eb4bf28942cb89901","112.4.211.106","Mozilla/5.0 (Windows NT 10.0; Win64; x64) AppleWebKit/537.36 (KHTML, like Gecko) Chrome/106.0.0.0 Safari/537.36 Edg/106.0.1370.37","WebKit","Edge","106.0.1370.37","Windows","10.0","1554","<p><strong>请判断你在多大程度上同意下列陈述。</strong></p>","0",""
"","","","","","survey-likert","143","485558","0.0-16.0","210","1","2022-10-10 12:42:35","ebf9627b049f568eb4bf28942cb89901","112.4.211.106","Mozilla/5.0 (Windows NT 10.0; Win64; x64) AppleWebKit/537.36 (KHTML, like Gecko) Chrome/106.0.0.0 Safari/537.36 Edg/106.0.1370.37","WebKit","Edge","106.0.1370.37","Windows","10.0","90469","","{""sdo6"":2,""sdo5"":4,""sdo1"":4,""sdo7"":1,""sdo9"":5,""sdo13"":5,""sdo14"":4,""sdo3"":4,""sdo8"":2,""sdo2"":1,""sdo4"":1,""sdo12"":2,""sdo15"":5,""sdo16"":4,""sdo11"":5,""sdo10"":5}","[5,4,0,6,8,12,13,2,7,1,3,11,14,15,10,9]"
"","","","","","html-button-response","144","486557","0.0-17.0","210","1","2022-10-10 12:42:35","ebf9627b049f568eb4bf28942cb89901","112.4.211.106","Mozilla/5.0 (Windows NT 10.0; Win64; x64) AppleWebKit/537.36 (KHTML, like Gecko) Chrome/106.0.0.0 Safari/537.36 Edg/106.0.1370.37","WebKit","Edge","106.0.1370.37","Windows","10.0","994","<p><strong>请判断你在多大程度上同意下列陈述。</strong></p>","0",""
"","","","","","survey-likert","145","521967","0.0-18.0","210","1","2022-10-10 12:42:35","ebf9627b049f568eb4bf28942cb89901","112.4.211.106","Mozilla/5.0 (Windows NT 10.0; Win64; x64) AppleWebKit/537.36 (KHTML, like Gecko) Chrome/106.0.0.0 Safari/537.36 Edg/106.0.1370.37","WebKit","Edge","106.0.1370.37","Windows","10.0","35406","","{""caring1"":3,""liking1"":1,""caring2"":3,""protection1"":0,""liking2"":0,""caring3"":3,""protection2"":1,""liking3"":1,""protection3"":3,""caring4"":4,""liking4"":1,""protection4"":3,""caring5"":3,""liking5"":1,""protection5"":2}","[0,1,2,3,4,5,6,7,8,9,10,11,12,13,14]"
"","","","","","html-button-response","146","533222","0.0-19.0","210","1","2022-10-10 12:42:35","ebf9627b049f568eb4bf28942cb89901","112.4.211.106","Mozilla/5.0 (Windows NT 10.0; Win64; x64) AppleWebKit/537.36 (KHTML, like Gecko) Chrome/106.0.0.0 Safari/537.36 Edg/106.0.1370.37","WebKit","Edge","106.0.1370.37","Windows","10.0","11250","<p><strong>请判断下列场景中你的内心感受有多柔软。</strong></p>","0",""
"","","","","","survey-likert","147","553783","0.0-20.0","210","1","2022-10-10 12:42:35","ebf9627b049f568eb4bf28942cb89901","112.4.211.106","Mozilla/5.0 (Windows NT 10.0; Win64; x64) AppleWebKit/537.36 (KHTML, like Gecko) Chrome/106.0.0.0 Safari/537.36 Edg/106.0.1370.37","WebKit","Edge","106.0.1370.37","Windows","10.0","20557","","{""tenderness-positive1"":3,""tenderness-negative1"":3,""tenderness-negative2"":1,""tenderness-positive2"":4,""tenderness-positive3"":3,""tenderness-negative3"":1,""tenderness-positive4"":4,""tendereness-negative4"":3,""tendernness-negative5"":3,""tenderness-positive5"":3}","[0,1,2,3,4,5,6,7,8,9]"
"","","","","","survey-multi-choice","148","560062","0.0-21.0","210","1","2022-10-10 12:42:35","ebf9627b049f568eb4bf28942cb89901","112.4.211.106","Mozilla/5.0 (Windows NT 10.0; Win64; x64) AppleWebKit/537.36 (KHTML, like Gecko) Chrome/106.0.0.0 Safari/537.36 Edg/106.0.1370.37","WebKit","Edge","106.0.1370.37","Windows","10.0","6274","","{""Attention2"":""其他""}","[0]"
"","","","","","html-button-response","149","561374","0.0-22.0","210","1","2022-10-10 12:42:35","ebf9627b049f568eb4bf28942cb89901","112.4.211.106","Mozilla/5.0 (Windows NT 10.0; Win64; x64) AppleWebKit/537.36 (KHTML, like Gecko) Chrome/106.0.0.0 Safari/537.36 Edg/106.0.1370.37","WebKit","Edge","106.0.1370.37","Windows","10.0","1308","<p><strong>请判断你在多大程度上同意下列陈述。</strong></p>","0",""
"","","","","","survey-likert","150","628031","0.0-23.0","210","1","2022-10-10 12:42:35","ebf9627b049f568eb4bf28942cb89901","112.4.211.106","Mozilla/5.0 (Windows NT 10.0; Win64; x64) AppleWebKit/537.36 (KHTML, like Gecko) Chrome/106.0.0.0 Safari/537.36 Edg/106.0.1370.37","WebKit","Edge","106.0.1370.37","Windows","10.0","66653","","{""Patri8"":4,""Nation5"":3,""Patri4"":4,""Patri10"":0,""Patri2"":4,""Patri5"":4,""Patri3"":4,""Patri9"":0,""Nation2"":4,""Patri11"":0,""Patri1"":4,""Nation4"":1,""Nation7"":4,""Patri12"":2,""Nation1"":3,""Nation8"":1,""Nation3"":3,""Nation6"":4,""Patri7"":4,""Patri6"":0}","[7,16,3,9,1,4,2,8,13,10,0,15,18,11,12,19,14,17,6,5]"
"","","","","","html-button-response","151","629310","0.0-24.0","210","1","2022-10-10 12:42:35","ebf9627b049f568eb4bf28942cb89901","112.4.211.106","Mozilla/5.0 (Windows NT 10.0; Win64; x64) AppleWebKit/537.36 (KHTML, like Gecko) Chrome/106.0.0.0 Safari/537.36 Edg/106.0.1370.37","WebKit","Edge","106.0.1370.37","Windows","10.0","1274","<p><strong>请判断你在多大程度上同意下列陈述。</strong></p>","0",""
"","","","","","survey-likert","152","666168","0.0-25.0","210","1","2022-10-10 12:42:35","ebf9627b049f568eb4bf28942cb89901","112.4.211.106","Mozilla/5.0 (Windows NT 10.0; Win64; x64) AppleWebKit/537.36 (KHTML, like Gecko) Chrome/106.0.0.0 Safari/537.36 Edg/106.0.1370.37","WebKit","Edge","106.0.1370.37","Windows","10.0","36853","","{""vc1"":7,""vi2"":7,""hi2"":7,""hc3"":8,""vi1"":8,""hc2"":6,""vc3"":7,""vi4"":4,""hc4"":8,""vi3"":7,""hi1"":3,""vc4"":7,""hi3"":3,""Robot"":6,""hi4"":7,""hc1"":7,""vc2"":7}","[13,5,1,11,4,10,15,8,12,6,0,16,2,7,3,9,14]"
"","","","","","survey-text","153","705566","0.0-26.0","210","1","2022-10-10 12:42:35","ebf9627b049f568eb4bf28942cb89901","112.4.211.106","Mozilla/5.0 (Windows NT 10.0; Win64; x64) AppleWebKit/537.36 (KHTML, like Gecko) Chrome/106.0.0.0 Safari/537.36 Edg/106.0.1370.37","WebKit","Edge","106.0.1370.37","Windows","10.0","39388","","{""Comments"":""好像没有hhh""}",""
"","","","","","html-button-response","154","706797","0.0-27.0","210","1","2022-10-10 12:42:35","ebf9627b049f568eb4bf28942cb89901","112.4.211.106","Mozilla/5.0 (Windows NT 10.0; Win64; x64) AppleWebKit/537.36 (KHTML, like Gecko) Chrome/106.0.0.0 Safari/537.36 Edg/106.0.1370.37","WebKit","Edge","106.0.1370.37","Windows","10.0","1228","<strong><p>恭喜你完成了实验！</p><p>感谢您的参与。</p></strong>","0",""
