"success","timeout","failed_images","failed_audio","failed_video","trial_type","trial_index","time_elapsed","internal_node_id","run_id","condition","recorded_at","source_code_version","ip","user_agent","device","browser","browser_version","platform","platform_version","rt","stimulus","response","question_order"
"true","false","[]","[]","[]","preload","0","10248","0.0-0.0","233","1","2022-10-11 03:39:56","ebf9627b049f568eb4bf28942cb89901","153.119.59.201","Mozilla/5.0 (Linux; Android 12; LE2110 Build/RKQ1.211119.001;) AppleWebKit/537.36 (KHTML, like Gecko) Version/4.0 Chrome/97.0.4692.98 Mobile Safari/537.36","WebKit","Chrome","97.0.4692.98","AndroidOS","12","","","",""
"true","","","","","fullscreen","1","14205","0.0-1.0","233","1","2022-10-11 03:39:56","ebf9627b049f568eb4bf28942cb89901","153.119.59.201","Mozilla/5.0 (Linux; Android 12; LE2110 Build/RKQ1.211119.001;) AppleWebKit/537.36 (KHTML, like Gecko) Version/4.0 Chrome/97.0.4692.98 Mobile Safari/537.36","WebKit","Chrome","97.0.4692.98","AndroidOS","12","","","",""
"","","","","","html-button-response","2","27990","0.0-2.0","233","1","2022-10-11 03:39:56","ebf9627b049f568eb4bf28942cb89901","153.119.59.201","Mozilla/5.0 (Linux; Android 12; LE2110 Build/RKQ1.211119.001;) AppleWebKit/537.36 (KHTML, like Gecko) Version/4.0 Chrome/97.0.4692.98 Mobile Safari/537.36","WebKit","Chrome","97.0.4692.98","AndroidOS","12","13781","<p style=""font-size:20px;font-weight:bold;"">实验知情同意书</p><p style=""text-align:left;""><strong>实验名称：</strong>社会冲突研究</p><p style=""text-align:left;""><strong>主要研究者：</strong>韩晓春副教授（北京师范大学心理学部）</p><p style=""text-align:left;""><strong>联系方式：</strong>发送邮件至xiaochun.han@bnu.edu.cn</p><p style=""text-align:left;""><strong>研究目的：</strong>研究旨在了解人类面对群体冲突时的决策方式，以及相关的心理学特质。实验调查大约需要20分钟。</p><p style=""text-align:left;""><strong>实验流程：</strong>实验包含两部分。第一部分呈现一系列群体冲突场景，请你决定如何对这些冲突进行反应，大约需要10分钟完成。第二部分包含一系列人口统计学信息收集和心理学问卷，大约需要10分钟完成。</p><p style=""text-align:left;""><strong>参加及退出规则：</strong>参加本实验完全取决于您的个人意愿。在参与过程中，您可以随时退出，并且不用承担任何后果。</p><p style=""text-align:left;""><strong>隐私：</strong>本实验完全匿名进行，不会收集您的姓名或其他能够识别您身份的信息。实验中收集的作答仅用作科学研究使用，可能会在学术期刊/书籍上发表，或者用于教学，您的数据未来可能会和其他研究者或实验室分享，但您的个人身份不会被识别。</p><p style=""text-align:left;""><strong>实验报酬：</strong>实验完成后，您将获得15元人民币报酬，以感谢您的时间和努力。调查问卷中包含几道题目用以测验您作答时的认真度。只有完成全部实验，并且正确回答认真度测验的被试才能获得实验报酬。实验报酬将通过支付宝转账发放。</p><p style=""text-align:left;font-size:20px;""><strong>如果您同意以上实验知情同意书的内容，请点击'同意并且开始实验'按钮；否则请关闭浏览器界面，退出实验。</strong></p>","0",""
"","","","","","html-button-response","3","35620","0.0-3.0","233","1","2022-10-11 03:39:56","ebf9627b049f568eb4bf28942cb89901","153.119.59.201","Mozilla/5.0 (Linux; Android 12; LE2110 Build/RKQ1.211119.001;) AppleWebKit/537.36 (KHTML, like Gecko) Version/4.0 Chrome/97.0.4692.98 Mobile Safari/537.36","WebKit","Chrome","97.0.4692.98","AndroidOS","12","7623","<p ><strong>实验任务一：</strong></p><p>请想象你的国家与另一个国家发生了军事冲突。</p><p>你是国家军队的指挥官，你将如何在冲突中进行决策。</p><p>具体来说，作为军队指挥官，请你决定是否发射导弹进行打击。</p><p>接下来，你会面对一系列场景，请仔细阅读每个场景，然后进行决策。</p><p>这部分实验任务大约需要10分钟。</p><p><strong>实验过程中，请集中注意力。</strong></p>","0",""
"","","","","","html-keyboard-response","4","36628","0.0-4.0-0.0","233","1","2022-10-11 03:39:56","ebf9627b049f568eb4bf28942cb89901","153.119.59.201","Mozilla/5.0 (Linux; Android 12; LE2110 Build/RKQ1.211119.001;) AppleWebKit/537.36 (KHTML, like Gecko) Version/4.0 Chrome/97.0.4692.98 Mobile Safari/537.36","WebKit","Chrome","97.0.4692.98","AndroidOS","12","null","<div style=""font-size:60px;"">+</div>","null",""
"","","","","","html-button-response","5","51040","0.0-4.0-1.0","233","1","2022-10-11 03:39:56","ebf9627b049f568eb4bf28942cb89901","153.119.59.201","Mozilla/5.0 (Linux; Android 12; LE2110 Build/RKQ1.211119.001;) AppleWebKit/537.36 (KHTML, like Gecko) Version/4.0 Chrome/97.0.4692.98 Mobile Safari/537.36","WebKit","Chrome","97.0.4692.98","AndroidOS","12","14394","<p>作为军队的指挥官，你可以选择发射导弹杀死 <strong>6名</strong> 敌国士兵，但会误杀附近的 <strong>1名</strong> 敌国平民。</p> <p>平民照片如下图所示。</p> <p></p> <img src='stimuli/faces/NFM6.jpg', style='max-width: 30%;'> </img> <p><strong>你是否选择发射武器？</strong></p>","0",""
"","","","","","html-keyboard-response","6","52047","0.0-4.0-0.1","233","1","2022-10-11 03:39:56","ebf9627b049f568eb4bf28942cb89901","153.119.59.201","Mozilla/5.0 (Linux; Android 12; LE2110 Build/RKQ1.211119.001;) AppleWebKit/537.36 (KHTML, like Gecko) Version/4.0 Chrome/97.0.4692.98 Mobile Safari/537.36","WebKit","Chrome","97.0.4692.98","AndroidOS","12","null","<div style=""font-size:60px;"">+</div>","null",""
"","","","","","html-button-response","7","59907","0.0-4.0-1.1","233","1","2022-10-11 03:39:56","ebf9627b049f568eb4bf28942cb89901","153.119.59.201","Mozilla/5.0 (Linux; Android 12; LE2110 Build/RKQ1.211119.001;) AppleWebKit/537.36 (KHTML, like Gecko) Version/4.0 Chrome/97.0.4692.98 Mobile Safari/537.36","WebKit","Chrome","97.0.4692.98","AndroidOS","12","7852","<p>作为军队的指挥官，你可以选择发射导弹杀死 <strong>4名</strong> 敌国士兵，但会炸毁附近的 <strong>1棵</strong> 敌国树木。</p> <p>树木的照片如下图所示。</p> <p></p> <img src='stimuli/trees/11.png', style='max-width: 30%;'> </img> <p><strong>你是否选择发射武器？</strong></p>","0",""
"","","","","","html-keyboard-response","8","60998","0.0-4.0-0.2","233","1","2022-10-11 03:39:56","ebf9627b049f568eb4bf28942cb89901","153.119.59.201","Mozilla/5.0 (Linux; Android 12; LE2110 Build/RKQ1.211119.001;) AppleWebKit/537.36 (KHTML, like Gecko) Version/4.0 Chrome/97.0.4692.98 Mobile Safari/537.36","WebKit","Chrome","97.0.4692.98","AndroidOS","12","null","<div style=""font-size:60px;"">+</div>","null",""
"","","","","","html-button-response","9","67601","0.0-4.0-1.2","233","1","2022-10-11 03:39:56","ebf9627b049f568eb4bf28942cb89901","153.119.59.201","Mozilla/5.0 (Linux; Android 12; LE2110 Build/RKQ1.211119.001;) AppleWebKit/537.36 (KHTML, like Gecko) Version/4.0 Chrome/97.0.4692.98 Mobile Safari/537.36","WebKit","Chrome","97.0.4692.98","AndroidOS","12","6591","<p>作为军队的指挥官，你可以选择发射导弹杀死 <strong>5名</strong> 敌国士兵，但会误杀附近的 <strong>1名</strong> 敌国平民。</p> <p>平民照片如下图所示。</p> <p></p> <img src='stimuli/faces/NFF2.jpg', style='max-width: 30%;'> </img> <p><strong>你是否选择发射武器？</strong></p>","1",""
"","","","","","html-keyboard-response","10","68612","0.0-4.0-0.3","233","1","2022-10-11 03:39:56","ebf9627b049f568eb4bf28942cb89901","153.119.59.201","Mozilla/5.0 (Linux; Android 12; LE2110 Build/RKQ1.211119.001;) AppleWebKit/537.36 (KHTML, like Gecko) Version/4.0 Chrome/97.0.4692.98 Mobile Safari/537.36","WebKit","Chrome","97.0.4692.98","AndroidOS","12","null","<div style=""font-size:60px;"">+</div>","null",""
"","","","","","html-button-response","11","85039","0.0-4.0-1.3","233","1","2022-10-11 03:39:56","ebf9627b049f568eb4bf28942cb89901","153.119.59.201","Mozilla/5.0 (Linux; Android 12; LE2110 Build/RKQ1.211119.001;) AppleWebKit/537.36 (KHTML, like Gecko) Version/4.0 Chrome/97.0.4692.98 Mobile Safari/537.36","WebKit","Chrome","97.0.4692.98","AndroidOS","12","16417","<p>作为军队的指挥官，你可以选择发射导弹杀死 <strong>1名</strong> 敌国士兵，但会炸毁附近的 <strong>1棵</strong> 敌国树木。</p> <p>树木的照片如下图所示。</p> <p></p> <img src='stimuli/trees/12.png', style='max-width: 30%;'> </img> <p><strong>你是否选择发射武器？</strong></p>","0",""
"","","","","","html-keyboard-response","12","86045","0.0-4.0-0.4","233","1","2022-10-11 03:39:56","ebf9627b049f568eb4bf28942cb89901","153.119.59.201","Mozilla/5.0 (Linux; Android 12; LE2110 Build/RKQ1.211119.001;) AppleWebKit/537.36 (KHTML, like Gecko) Version/4.0 Chrome/97.0.4692.98 Mobile Safari/537.36","WebKit","Chrome","97.0.4692.98","AndroidOS","12","null","<div style=""font-size:60px;"">+</div>","null",""
"","","","","","html-button-response","13","89854","0.0-4.0-1.4","233","1","2022-10-11 03:39:56","ebf9627b049f568eb4bf28942cb89901","153.119.59.201","Mozilla/5.0 (Linux; Android 12; LE2110 Build/RKQ1.211119.001;) AppleWebKit/537.36 (KHTML, like Gecko) Version/4.0 Chrome/97.0.4692.98 Mobile Safari/537.36","WebKit","Chrome","97.0.4692.98","AndroidOS","12","3798","<p>作为军队的指挥官，你可以选择发射导弹杀死 <strong>3名</strong> 敌国士兵，但会误杀附近的 <strong>1名</strong> 敌国平民。</p> <p>平民照片如下图所示。</p> <p></p> <img src='stimuli/faces/NFM1.jpg', style='max-width: 30%;'> </img> <p><strong>你是否选择发射武器？</strong></p>","0",""
"","","","","","html-keyboard-response","14","90861","0.0-4.0-0.5","233","1","2022-10-11 03:39:56","ebf9627b049f568eb4bf28942cb89901","153.119.59.201","Mozilla/5.0 (Linux; Android 12; LE2110 Build/RKQ1.211119.001;) AppleWebKit/537.36 (KHTML, like Gecko) Version/4.0 Chrome/97.0.4692.98 Mobile Safari/537.36","WebKit","Chrome","97.0.4692.98","AndroidOS","12","null","<div style=""font-size:60px;"">+</div>","null",""
"","","","","","html-button-response","15","100849","0.0-4.0-1.5","233","1","2022-10-11 03:39:56","ebf9627b049f568eb4bf28942cb89901","153.119.59.201","Mozilla/5.0 (Linux; Android 12; LE2110 Build/RKQ1.211119.001;) AppleWebKit/537.36 (KHTML, like Gecko) Version/4.0 Chrome/97.0.4692.98 Mobile Safari/537.36","WebKit","Chrome","97.0.4692.98","AndroidOS","12","9968","<p>作为军队的指挥官，你可以选择发射导弹杀死 <strong>5名</strong> 敌国士兵，但会误杀附近的 <strong>1名</strong> 敌国平民。</p> <p>平民照片如下图所示。</p> <p></p> <img src='stimuli/faces/NFF6.jpg', style='max-width: 30%;'> </img> <p><strong>你是否选择发射武器？</strong></p>","1",""
"","","","","","html-keyboard-response","16","101853","0.0-4.0-0.6","233","1","2022-10-11 03:39:56","ebf9627b049f568eb4bf28942cb89901","153.119.59.201","Mozilla/5.0 (Linux; Android 12; LE2110 Build/RKQ1.211119.001;) AppleWebKit/537.36 (KHTML, like Gecko) Version/4.0 Chrome/97.0.4692.98 Mobile Safari/537.36","WebKit","Chrome","97.0.4692.98","AndroidOS","12","null","<div style=""font-size:60px;"">+</div>","null",""
"","","","","","html-button-response","17","105112","0.0-4.0-1.6","233","1","2022-10-11 03:39:56","ebf9627b049f568eb4bf28942cb89901","153.119.59.201","Mozilla/5.0 (Linux; Android 12; LE2110 Build/RKQ1.211119.001;) AppleWebKit/537.36 (KHTML, like Gecko) Version/4.0 Chrome/97.0.4692.98 Mobile Safari/537.36","WebKit","Chrome","97.0.4692.98","AndroidOS","12","3249","<p>作为军队的指挥官，你可以选择发射导弹杀死 <strong>2名</strong> 敌国士兵，但会误杀附近的 <strong>1名</strong> 敌国平民。</p> <p>平民照片如下图所示。</p> <p></p> <img src='stimuli/faces/NFF8.jpg', style='max-width: 30%;'> </img> <p><strong>你是否选择发射武器？</strong></p>","1",""
"","","","","","html-keyboard-response","18","106118","0.0-4.0-0.7","233","1","2022-10-11 03:39:56","ebf9627b049f568eb4bf28942cb89901","153.119.59.201","Mozilla/5.0 (Linux; Android 12; LE2110 Build/RKQ1.211119.001;) AppleWebKit/537.36 (KHTML, like Gecko) Version/4.0 Chrome/97.0.4692.98 Mobile Safari/537.36","WebKit","Chrome","97.0.4692.98","AndroidOS","12","null","<div style=""font-size:60px;"">+</div>","null",""
"","","","","","html-button-response","19","110217","0.0-4.0-1.7","233","1","2022-10-11 03:39:56","ebf9627b049f568eb4bf28942cb89901","153.119.59.201","Mozilla/5.0 (Linux; Android 12; LE2110 Build/RKQ1.211119.001;) AppleWebKit/537.36 (KHTML, like Gecko) Version/4.0 Chrome/97.0.4692.98 Mobile Safari/537.36","WebKit","Chrome","97.0.4692.98","AndroidOS","12","4080","<p>作为军队的指挥官，你可以选择发射导弹杀死 <strong>3名</strong> 敌国士兵，但会误杀附近的 <strong>1名</strong> 敌国平民。</p> <p>平民照片如下图所示。</p> <p></p> <img src='stimuli/faces/NFF7.jpg', style='max-width: 30%;'> </img> <p><strong>你是否选择发射武器？</strong></p>","1",""
"","","","","","html-keyboard-response","20","111223","0.0-4.0-0.8","233","1","2022-10-11 03:39:56","ebf9627b049f568eb4bf28942cb89901","153.119.59.201","Mozilla/5.0 (Linux; Android 12; LE2110 Build/RKQ1.211119.001;) AppleWebKit/537.36 (KHTML, like Gecko) Version/4.0 Chrome/97.0.4692.98 Mobile Safari/537.36","WebKit","Chrome","97.0.4692.98","AndroidOS","12","null","<div style=""font-size:60px;"">+</div>","null",""
"","","","","","html-button-response","21","114218","0.0-4.0-1.8","233","1","2022-10-11 03:39:56","ebf9627b049f568eb4bf28942cb89901","153.119.59.201","Mozilla/5.0 (Linux; Android 12; LE2110 Build/RKQ1.211119.001;) AppleWebKit/537.36 (KHTML, like Gecko) Version/4.0 Chrome/97.0.4692.98 Mobile Safari/537.36","WebKit","Chrome","97.0.4692.98","AndroidOS","12","2974","<p>作为军队的指挥官，你可以选择发射导弹杀死 <strong>9名</strong> 敌国士兵，但会炸毁附近的 <strong>1棵</strong> 敌国树木。</p> <p>树木的照片如下图所示。</p> <p></p> <img src='stimuli/trees/14.png', style='max-width: 30%;'> </img> <p><strong>你是否选择发射武器？</strong></p>","0",""
"","","","","","html-keyboard-response","22","115225","0.0-4.0-0.9","233","1","2022-10-11 03:39:56","ebf9627b049f568eb4bf28942cb89901","153.119.59.201","Mozilla/5.0 (Linux; Android 12; LE2110 Build/RKQ1.211119.001;) AppleWebKit/537.36 (KHTML, like Gecko) Version/4.0 Chrome/97.0.4692.98 Mobile Safari/537.36","WebKit","Chrome","97.0.4692.98","AndroidOS","12","null","<div style=""font-size:60px;"">+</div>","null",""
"","","","","","html-button-response","23","157797","0.0-4.0-1.9","233","1","2022-10-11 03:39:56","ebf9627b049f568eb4bf28942cb89901","153.119.59.201","Mozilla/5.0 (Linux; Android 12; LE2110 Build/RKQ1.211119.001;) AppleWebKit/537.36 (KHTML, like Gecko) Version/4.0 Chrome/97.0.4692.98 Mobile Safari/537.36","WebKit","Chrome","97.0.4692.98","AndroidOS","12","42553","<p>作为军队的指挥官，你可以选择发射导弹杀死 <strong>8名</strong> 敌国士兵，但会炸毁附近的 <strong>1棵</strong> 敌国树木。</p> <p>树木的照片如下图所示。</p> <p></p> <img src='stimuli/trees/1.png', style='max-width: 30%;'> </img> <p><strong>你是否选择发射武器？</strong></p>","0",""
"","","","","","html-keyboard-response","24","158806","0.0-4.0-0.10","233","1","2022-10-11 03:39:56","ebf9627b049f568eb4bf28942cb89901","153.119.59.201","Mozilla/5.0 (Linux; Android 12; LE2110 Build/RKQ1.211119.001;) AppleWebKit/537.36 (KHTML, like Gecko) Version/4.0 Chrome/97.0.4692.98 Mobile Safari/537.36","WebKit","Chrome","97.0.4692.98","AndroidOS","12","null","<div style=""font-size:60px;"">+</div>","null",""
"","","","","","html-button-response","25","160821","0.0-4.0-1.10","233","1","2022-10-11 03:39:56","ebf9627b049f568eb4bf28942cb89901","153.119.59.201","Mozilla/5.0 (Linux; Android 12; LE2110 Build/RKQ1.211119.001;) AppleWebKit/537.36 (KHTML, like Gecko) Version/4.0 Chrome/97.0.4692.98 Mobile Safari/537.36","WebKit","Chrome","97.0.4692.98","AndroidOS","12","1995","<p>作为军队的指挥官，你可以选择发射导弹杀死 <strong>6名</strong> 敌国士兵，但会炸毁附近的 <strong>1棵</strong> 敌国树木。</p> <p>树木的照片如下图所示。</p> <p></p> <img src='stimuli/trees/4.png', style='max-width: 30%;'> </img> <p><strong>你是否选择发射武器？</strong></p>","0",""
"","","","","","html-keyboard-response","26","161828","0.0-4.0-0.11","233","1","2022-10-11 03:39:56","ebf9627b049f568eb4bf28942cb89901","153.119.59.201","Mozilla/5.0 (Linux; Android 12; LE2110 Build/RKQ1.211119.001;) AppleWebKit/537.36 (KHTML, like Gecko) Version/4.0 Chrome/97.0.4692.98 Mobile Safari/537.36","WebKit","Chrome","97.0.4692.98","AndroidOS","12","null","<div style=""font-size:60px;"">+</div>","null",""
"","","","","","html-button-response","27","166176","0.0-4.0-1.11","233","1","2022-10-11 03:39:56","ebf9627b049f568eb4bf28942cb89901","153.119.59.201","Mozilla/5.0 (Linux; Android 12; LE2110 Build/RKQ1.211119.001;) AppleWebKit/537.36 (KHTML, like Gecko) Version/4.0 Chrome/97.0.4692.98 Mobile Safari/537.36","WebKit","Chrome","97.0.4692.98","AndroidOS","12","4333","<p>作为军队的指挥官，你可以选择发射导弹杀死 <strong>6名</strong> 敌国士兵，但会误杀附近的 <strong>1名</strong> 敌国平民。</p> <p>平民照片如下图所示。</p> <p></p> <img src='stimuli/faces/NFF6.jpg', style='max-width: 30%;'> </img> <p><strong>你是否选择发射武器？</strong></p>","1",""
"","","","","","html-keyboard-response","28","167186","0.0-4.0-0.12","233","1","2022-10-11 03:39:56","ebf9627b049f568eb4bf28942cb89901","153.119.59.201","Mozilla/5.0 (Linux; Android 12; LE2110 Build/RKQ1.211119.001;) AppleWebKit/537.36 (KHTML, like Gecko) Version/4.0 Chrome/97.0.4692.98 Mobile Safari/537.36","WebKit","Chrome","97.0.4692.98","AndroidOS","12","null","<div style=""font-size:60px;"">+</div>","null",""
"","","","","","html-button-response","29","169675","0.0-4.0-1.12","233","1","2022-10-11 03:39:56","ebf9627b049f568eb4bf28942cb89901","153.119.59.201","Mozilla/5.0 (Linux; Android 12; LE2110 Build/RKQ1.211119.001;) AppleWebKit/537.36 (KHTML, like Gecko) Version/4.0 Chrome/97.0.4692.98 Mobile Safari/537.36","WebKit","Chrome","97.0.4692.98","AndroidOS","12","2472","<p>作为军队的指挥官，你可以选择发射导弹杀死 <strong>8名</strong> 敌国士兵，但会误杀附近的 <strong>1名</strong> 敌国平民。</p> <p>平民照片如下图所示。</p> <p></p> <img src='stimuli/faces/NFM7.jpg', style='max-width: 30%;'> </img> <p><strong>你是否选择发射武器？</strong></p>","0",""
"","","","","","html-keyboard-response","30","170686","0.0-4.0-0.13","233","1","2022-10-11 03:39:56","ebf9627b049f568eb4bf28942cb89901","153.119.59.201","Mozilla/5.0 (Linux; Android 12; LE2110 Build/RKQ1.211119.001;) AppleWebKit/537.36 (KHTML, like Gecko) Version/4.0 Chrome/97.0.4692.98 Mobile Safari/537.36","WebKit","Chrome","97.0.4692.98","AndroidOS","12","null","<div style=""font-size:60px;"">+</div>","null",""
"","","","","","html-button-response","31","175298","0.0-4.0-1.13","233","1","2022-10-11 03:39:56","ebf9627b049f568eb4bf28942cb89901","153.119.59.201","Mozilla/5.0 (Linux; Android 12; LE2110 Build/RKQ1.211119.001;) AppleWebKit/537.36 (KHTML, like Gecko) Version/4.0 Chrome/97.0.4692.98 Mobile Safari/537.36","WebKit","Chrome","97.0.4692.98","AndroidOS","12","4596","<p>作为军队的指挥官，你可以选择发射导弹杀死 <strong>7名</strong> 敌国士兵，但会炸毁附近的 <strong>1棵</strong> 敌国树木。</p> <p>树木的照片如下图所示。</p> <p></p> <img src='stimuli/trees/16.png', style='max-width: 30%;'> </img> <p><strong>你是否选择发射武器？</strong></p>","0",""
"","","","","","html-keyboard-response","32","176306","0.0-4.0-0.14","233","1","2022-10-11 03:39:56","ebf9627b049f568eb4bf28942cb89901","153.119.59.201","Mozilla/5.0 (Linux; Android 12; LE2110 Build/RKQ1.211119.001;) AppleWebKit/537.36 (KHTML, like Gecko) Version/4.0 Chrome/97.0.4692.98 Mobile Safari/537.36","WebKit","Chrome","97.0.4692.98","AndroidOS","12","null","<div style=""font-size:60px;"">+</div>","null",""
"","","","","","html-button-response","33","179922","0.0-4.0-1.14","233","1","2022-10-11 03:39:56","ebf9627b049f568eb4bf28942cb89901","153.119.59.201","Mozilla/5.0 (Linux; Android 12; LE2110 Build/RKQ1.211119.001;) AppleWebKit/537.36 (KHTML, like Gecko) Version/4.0 Chrome/97.0.4692.98 Mobile Safari/537.36","WebKit","Chrome","97.0.4692.98","AndroidOS","12","3605","<p>作为军队的指挥官，你可以选择发射导弹杀死 <strong>9名</strong> 敌国士兵，但会误杀附近的 <strong>1名</strong> 敌国平民。</p> <p>平民照片如下图所示。</p> <p></p> <img src='stimuli/faces/NFF3.jpg', style='max-width: 30%;'> </img> <p><strong>你是否选择发射武器？</strong></p>","0",""
"","","","","","html-keyboard-response","34","180933","0.0-4.0-0.15","233","1","2022-10-11 03:39:56","ebf9627b049f568eb4bf28942cb89901","153.119.59.201","Mozilla/5.0 (Linux; Android 12; LE2110 Build/RKQ1.211119.001;) AppleWebKit/537.36 (KHTML, like Gecko) Version/4.0 Chrome/97.0.4692.98 Mobile Safari/537.36","WebKit","Chrome","97.0.4692.98","AndroidOS","12","null","<div style=""font-size:60px;"">+</div>","null",""
"","","","","","html-button-response","35","183845","0.0-4.0-1.15","233","1","2022-10-11 03:39:56","ebf9627b049f568eb4bf28942cb89901","153.119.59.201","Mozilla/5.0 (Linux; Android 12; LE2110 Build/RKQ1.211119.001;) AppleWebKit/537.36 (KHTML, like Gecko) Version/4.0 Chrome/97.0.4692.98 Mobile Safari/537.36","WebKit","Chrome","97.0.4692.98","AndroidOS","12","2892","<p>作为军队的指挥官，你可以选择发射导弹杀死 <strong>3名</strong> 敌国士兵，但会炸毁附近的 <strong>1棵</strong> 敌国树木。</p> <p>树木的照片如下图所示。</p> <p></p> <img src='stimuli/trees/10.png', style='max-width: 30%;'> </img> <p><strong>你是否选择发射武器？</strong></p>","0",""
"","","","","","html-keyboard-response","36","184903","0.0-4.0-0.16","233","1","2022-10-11 03:39:56","ebf9627b049f568eb4bf28942cb89901","153.119.59.201","Mozilla/5.0 (Linux; Android 12; LE2110 Build/RKQ1.211119.001;) AppleWebKit/537.36 (KHTML, like Gecko) Version/4.0 Chrome/97.0.4692.98 Mobile Safari/537.36","WebKit","Chrome","97.0.4692.98","AndroidOS","12","null","<div style=""font-size:60px;"">+</div>","null",""
"","","","","","html-button-response","37","186967","0.0-4.0-1.16","233","1","2022-10-11 03:39:56","ebf9627b049f568eb4bf28942cb89901","153.119.59.201","Mozilla/5.0 (Linux; Android 12; LE2110 Build/RKQ1.211119.001;) AppleWebKit/537.36 (KHTML, like Gecko) Version/4.0 Chrome/97.0.4692.98 Mobile Safari/537.36","WebKit","Chrome","97.0.4692.98","AndroidOS","12","2050","<p>作为军队的指挥官，你可以选择发射导弹杀死 <strong>2名</strong> 敌国士兵，但会炸毁附近的 <strong>1棵</strong> 敌国树木。</p> <p>树木的照片如下图所示。</p> <p></p> <img src='stimuli/trees/8.png', style='max-width: 30%;'> </img> <p><strong>你是否选择发射武器？</strong></p>","1",""
"","","","","","html-keyboard-response","38","187974","0.0-4.0-0.17","233","1","2022-10-11 03:39:56","ebf9627b049f568eb4bf28942cb89901","153.119.59.201","Mozilla/5.0 (Linux; Android 12; LE2110 Build/RKQ1.211119.001;) AppleWebKit/537.36 (KHTML, like Gecko) Version/4.0 Chrome/97.0.4692.98 Mobile Safari/537.36","WebKit","Chrome","97.0.4692.98","AndroidOS","12","null","<div style=""font-size:60px;"">+</div>","null",""
"","","","","","html-button-response","39","190073","0.0-4.0-1.17","233","1","2022-10-11 03:39:56","ebf9627b049f568eb4bf28942cb89901","153.119.59.201","Mozilla/5.0 (Linux; Android 12; LE2110 Build/RKQ1.211119.001;) AppleWebKit/537.36 (KHTML, like Gecko) Version/4.0 Chrome/97.0.4692.98 Mobile Safari/537.36","WebKit","Chrome","97.0.4692.98","AndroidOS","12","2087","<p>作为军队的指挥官，你可以选择发射导弹杀死 <strong>10名</strong> 敌国士兵，但会炸毁附近的 <strong>1棵</strong> 敌国树木。</p> <p>树木的照片如下图所示。</p> <p></p> <img src='stimuli/trees/12.png', style='max-width: 30%;'> </img> <p><strong>你是否选择发射武器？</strong></p>","0",""
"","","","","","html-keyboard-response","40","191084","0.0-4.0-0.18","233","1","2022-10-11 03:39:56","ebf9627b049f568eb4bf28942cb89901","153.119.59.201","Mozilla/5.0 (Linux; Android 12; LE2110 Build/RKQ1.211119.001;) AppleWebKit/537.36 (KHTML, like Gecko) Version/4.0 Chrome/97.0.4692.98 Mobile Safari/537.36","WebKit","Chrome","97.0.4692.98","AndroidOS","12","null","<div style=""font-size:60px;"">+</div>","null",""
"","","","","","html-button-response","41","192855","0.0-4.0-1.18","233","1","2022-10-11 03:39:56","ebf9627b049f568eb4bf28942cb89901","153.119.59.201","Mozilla/5.0 (Linux; Android 12; LE2110 Build/RKQ1.211119.001;) AppleWebKit/537.36 (KHTML, like Gecko) Version/4.0 Chrome/97.0.4692.98 Mobile Safari/537.36","WebKit","Chrome","97.0.4692.98","AndroidOS","12","1751","<p>作为军队的指挥官，你可以选择发射导弹杀死 <strong>10名</strong> 敌国士兵，但会误杀附近的 <strong>1名</strong> 敌国平民。</p> <p>平民照片如下图所示。</p> <p></p> <img src='stimuli/faces/NFM1.jpg', style='max-width: 30%;'> </img> <p><strong>你是否选择发射武器？</strong></p>","0",""
"","","","","","html-keyboard-response","42","193863","0.0-4.0-0.19","233","1","2022-10-11 03:39:56","ebf9627b049f568eb4bf28942cb89901","153.119.59.201","Mozilla/5.0 (Linux; Android 12; LE2110 Build/RKQ1.211119.001;) AppleWebKit/537.36 (KHTML, like Gecko) Version/4.0 Chrome/97.0.4692.98 Mobile Safari/537.36","WebKit","Chrome","97.0.4692.98","AndroidOS","12","null","<div style=""font-size:60px;"">+</div>","null",""
"","","","","","html-button-response","43","196940","0.0-4.0-1.19","233","1","2022-10-11 03:39:56","ebf9627b049f568eb4bf28942cb89901","153.119.59.201","Mozilla/5.0 (Linux; Android 12; LE2110 Build/RKQ1.211119.001;) AppleWebKit/537.36 (KHTML, like Gecko) Version/4.0 Chrome/97.0.4692.98 Mobile Safari/537.36","WebKit","Chrome","97.0.4692.98","AndroidOS","12","3056","<p>作为军队的指挥官，你可以选择发射导弹杀死 <strong>5名</strong> 敌国士兵，但会炸毁附近的 <strong>1棵</strong> 敌国树木。</p> <p>树木的照片如下图所示。</p> <p></p> <img src='stimuli/trees/3.png', style='max-width: 30%;'> </img> <p><strong>你是否选择发射武器？</strong></p>","0",""
"","","","","","html-keyboard-response","44","197947","0.0-4.0-0.20","233","1","2022-10-11 03:39:56","ebf9627b049f568eb4bf28942cb89901","153.119.59.201","Mozilla/5.0 (Linux; Android 12; LE2110 Build/RKQ1.211119.001;) AppleWebKit/537.36 (KHTML, like Gecko) Version/4.0 Chrome/97.0.4692.98 Mobile Safari/537.36","WebKit","Chrome","97.0.4692.98","AndroidOS","12","null","<div style=""font-size:60px;"">+</div>","null",""
"","","","","","html-button-response","45","203556","0.0-4.0-1.20","233","1","2022-10-11 03:39:56","ebf9627b049f568eb4bf28942cb89901","153.119.59.201","Mozilla/5.0 (Linux; Android 12; LE2110 Build/RKQ1.211119.001;) AppleWebKit/537.36 (KHTML, like Gecko) Version/4.0 Chrome/97.0.4692.98 Mobile Safari/537.36","WebKit","Chrome","97.0.4692.98","AndroidOS","12","5585","<p>作为军队的指挥官，你可以选择发射导弹杀死 <strong>6名</strong> 敌国士兵，但会误杀附近的 <strong>1名</strong> 敌国平民。</p> <p>平民照片如下图所示。</p> <p></p> <img src='stimuli/faces/NFM3.jpg', style='max-width: 30%;'> </img> <p><strong>你是否选择发射武器？</strong></p>","0",""
"","","","","","html-keyboard-response","46","204565","0.0-4.0-0.21","233","1","2022-10-11 03:39:56","ebf9627b049f568eb4bf28942cb89901","153.119.59.201","Mozilla/5.0 (Linux; Android 12; LE2110 Build/RKQ1.211119.001;) AppleWebKit/537.36 (KHTML, like Gecko) Version/4.0 Chrome/97.0.4692.98 Mobile Safari/537.36","WebKit","Chrome","97.0.4692.98","AndroidOS","12","null","<div style=""font-size:60px;"">+</div>","null",""
"","","","","","html-button-response","47","209405","0.0-4.0-1.21","233","1","2022-10-11 03:39:56","ebf9627b049f568eb4bf28942cb89901","153.119.59.201","Mozilla/5.0 (Linux; Android 12; LE2110 Build/RKQ1.211119.001;) AppleWebKit/537.36 (KHTML, like Gecko) Version/4.0 Chrome/97.0.4692.98 Mobile Safari/537.36","WebKit","Chrome","97.0.4692.98","AndroidOS","12","4822","<p>作为军队的指挥官，你可以选择发射导弹杀死 <strong>10名</strong> 敌国士兵，但会误杀附近的 <strong>1名</strong> 敌国平民。</p> <p>平民照片如下图所示。</p> <p></p> <img src='stimuli/faces/NFF2.jpg', style='max-width: 30%;'> </img> <p><strong>你是否选择发射武器？</strong></p>","0",""
"","","","","","html-keyboard-response","48","210416","0.0-4.0-0.22","233","1","2022-10-11 03:39:56","ebf9627b049f568eb4bf28942cb89901","153.119.59.201","Mozilla/5.0 (Linux; Android 12; LE2110 Build/RKQ1.211119.001;) AppleWebKit/537.36 (KHTML, like Gecko) Version/4.0 Chrome/97.0.4692.98 Mobile Safari/537.36","WebKit","Chrome","97.0.4692.98","AndroidOS","12","null","<div style=""font-size:60px;"">+</div>","null",""
"","","","","","html-button-response","49","214964","0.0-4.0-1.22","233","1","2022-10-11 03:39:56","ebf9627b049f568eb4bf28942cb89901","153.119.59.201","Mozilla/5.0 (Linux; Android 12; LE2110 Build/RKQ1.211119.001;) AppleWebKit/537.36 (KHTML, like Gecko) Version/4.0 Chrome/97.0.4692.98 Mobile Safari/537.36","WebKit","Chrome","97.0.4692.98","AndroidOS","12","4526","<p>作为军队的指挥官，你可以选择发射导弹杀死 <strong>9名</strong> 敌国士兵，但会误杀附近的 <strong>1名</strong> 敌国平民。</p> <p>平民照片如下图所示。</p> <p></p> <img src='stimuli/faces/NFM8.jpg', style='max-width: 30%;'> </img> <p><strong>你是否选择发射武器？</strong></p>","0",""
"","","","","","html-keyboard-response","50","215980","0.0-4.0-0.23","233","1","2022-10-11 03:39:56","ebf9627b049f568eb4bf28942cb89901","153.119.59.201","Mozilla/5.0 (Linux; Android 12; LE2110 Build/RKQ1.211119.001;) AppleWebKit/537.36 (KHTML, like Gecko) Version/4.0 Chrome/97.0.4692.98 Mobile Safari/537.36","WebKit","Chrome","97.0.4692.98","AndroidOS","12","null","<div style=""font-size:60px;"">+</div>","null",""
"","","","","","html-button-response","51","219575","0.0-4.0-1.23","233","1","2022-10-11 03:39:56","ebf9627b049f568eb4bf28942cb89901","153.119.59.201","Mozilla/5.0 (Linux; Android 12; LE2110 Build/RKQ1.211119.001;) AppleWebKit/537.36 (KHTML, like Gecko) Version/4.0 Chrome/97.0.4692.98 Mobile Safari/537.36","WebKit","Chrome","97.0.4692.98","AndroidOS","12","3582","<p>作为军队的指挥官，你可以选择发射导弹杀死 <strong>1名</strong> 敌国士兵，但会炸毁附近的 <strong>1棵</strong> 敌国树木。</p> <p>树木的照片如下图所示。</p> <p></p> <img src='stimuli/trees/4.png', style='max-width: 30%;'> </img> <p><strong>你是否选择发射武器？</strong></p>","0",""
"","","","","","html-keyboard-response","52","220582","0.0-4.0-0.24","233","1","2022-10-11 03:39:56","ebf9627b049f568eb4bf28942cb89901","153.119.59.201","Mozilla/5.0 (Linux; Android 12; LE2110 Build/RKQ1.211119.001;) AppleWebKit/537.36 (KHTML, like Gecko) Version/4.0 Chrome/97.0.4692.98 Mobile Safari/537.36","WebKit","Chrome","97.0.4692.98","AndroidOS","12","null","<div style=""font-size:60px;"">+</div>","null",""
"","","","","","html-button-response","53","223220","0.0-4.0-1.24","233","1","2022-10-11 03:39:56","ebf9627b049f568eb4bf28942cb89901","153.119.59.201","Mozilla/5.0 (Linux; Android 12; LE2110 Build/RKQ1.211119.001;) AppleWebKit/537.36 (KHTML, like Gecko) Version/4.0 Chrome/97.0.4692.98 Mobile Safari/537.36","WebKit","Chrome","97.0.4692.98","AndroidOS","12","2608","<p>作为军队的指挥官，你可以选择发射导弹杀死 <strong>8名</strong> 敌国士兵，但会误杀附近的 <strong>1名</strong> 敌国平民。</p> <p>平民照片如下图所示。</p> <p></p> <img src='stimuli/faces/NFM2.jpg', style='max-width: 30%;'> </img> <p><strong>你是否选择发射武器？</strong></p>","0",""
"","","","","","html-keyboard-response","54","224232","0.0-4.0-0.25","233","1","2022-10-11 03:39:56","ebf9627b049f568eb4bf28942cb89901","153.119.59.201","Mozilla/5.0 (Linux; Android 12; LE2110 Build/RKQ1.211119.001;) AppleWebKit/537.36 (KHTML, like Gecko) Version/4.0 Chrome/97.0.4692.98 Mobile Safari/537.36","WebKit","Chrome","97.0.4692.98","AndroidOS","12","null","<div style=""font-size:60px;"">+</div>","null",""
"","","","","","html-button-response","55","226203","0.0-4.0-1.25","233","1","2022-10-11 03:39:56","ebf9627b049f568eb4bf28942cb89901","153.119.59.201","Mozilla/5.0 (Linux; Android 12; LE2110 Build/RKQ1.211119.001;) AppleWebKit/537.36 (KHTML, like Gecko) Version/4.0 Chrome/97.0.4692.98 Mobile Safari/537.36","WebKit","Chrome","97.0.4692.98","AndroidOS","12","1948","<p>作为军队的指挥官，你可以选择发射导弹杀死 <strong>2名</strong> 敌国士兵，但会炸毁附近的 <strong>1棵</strong> 敌国树木。</p> <p>树木的照片如下图所示。</p> <p></p> <img src='stimuli/trees/15.png', style='max-width: 30%;'> </img> <p><strong>你是否选择发射武器？</strong></p>","0",""
"","","","","","html-keyboard-response","56","227213","0.0-4.0-0.26","233","1","2022-10-11 03:39:56","ebf9627b049f568eb4bf28942cb89901","153.119.59.201","Mozilla/5.0 (Linux; Android 12; LE2110 Build/RKQ1.211119.001;) AppleWebKit/537.36 (KHTML, like Gecko) Version/4.0 Chrome/97.0.4692.98 Mobile Safari/537.36","WebKit","Chrome","97.0.4692.98","AndroidOS","12","null","<div style=""font-size:60px;"">+</div>","null",""
"","","","","","html-button-response","57","229106","0.0-4.0-1.26","233","1","2022-10-11 03:39:56","ebf9627b049f568eb4bf28942cb89901","153.119.59.201","Mozilla/5.0 (Linux; Android 12; LE2110 Build/RKQ1.211119.001;) AppleWebKit/537.36 (KHTML, like Gecko) Version/4.0 Chrome/97.0.4692.98 Mobile Safari/537.36","WebKit","Chrome","97.0.4692.98","AndroidOS","12","1868","<p>作为军队的指挥官，你可以选择发射导弹杀死 <strong>3名</strong> 敌国士兵，但会误杀附近的 <strong>1名</strong> 敌国平民。</p> <p>平民照片如下图所示。</p> <p></p> <img src='stimuli/faces/NFM8.jpg', style='max-width: 30%;'> </img> <p><strong>你是否选择发射武器？</strong></p>","0",""
"","","","","","html-keyboard-response","58","230118","0.0-4.0-0.27","233","1","2022-10-11 03:39:56","ebf9627b049f568eb4bf28942cb89901","153.119.59.201","Mozilla/5.0 (Linux; Android 12; LE2110 Build/RKQ1.211119.001;) AppleWebKit/537.36 (KHTML, like Gecko) Version/4.0 Chrome/97.0.4692.98 Mobile Safari/537.36","WebKit","Chrome","97.0.4692.98","AndroidOS","12","null","<div style=""font-size:60px;"">+</div>","null",""
"","","","","","html-button-response","59","232245","0.0-4.0-1.27","233","1","2022-10-11 03:39:56","ebf9627b049f568eb4bf28942cb89901","153.119.59.201","Mozilla/5.0 (Linux; Android 12; LE2110 Build/RKQ1.211119.001;) AppleWebKit/537.36 (KHTML, like Gecko) Version/4.0 Chrome/97.0.4692.98 Mobile Safari/537.36","WebKit","Chrome","97.0.4692.98","AndroidOS","12","2105","<p>作为军队的指挥官，你可以选择发射导弹杀死 <strong>4名</strong> 敌国士兵，但会炸毁附近的 <strong>1棵</strong> 敌国树木。</p> <p>树木的照片如下图所示。</p> <p></p> <img src='stimuli/trees/16.png', style='max-width: 30%;'> </img> <p><strong>你是否选择发射武器？</strong></p>","0",""
"","","","","","html-keyboard-response","60","233256","0.0-4.0-0.28","233","1","2022-10-11 03:39:56","ebf9627b049f568eb4bf28942cb89901","153.119.59.201","Mozilla/5.0 (Linux; Android 12; LE2110 Build/RKQ1.211119.001;) AppleWebKit/537.36 (KHTML, like Gecko) Version/4.0 Chrome/97.0.4692.98 Mobile Safari/537.36","WebKit","Chrome","97.0.4692.98","AndroidOS","12","null","<div style=""font-size:60px;"">+</div>","null",""
"","","","","","html-button-response","61","236761","0.0-4.0-1.28","233","1","2022-10-11 03:39:56","ebf9627b049f568eb4bf28942cb89901","153.119.59.201","Mozilla/5.0 (Linux; Android 12; LE2110 Build/RKQ1.211119.001;) AppleWebKit/537.36 (KHTML, like Gecko) Version/4.0 Chrome/97.0.4692.98 Mobile Safari/537.36","WebKit","Chrome","97.0.4692.98","AndroidOS","12","3481","<p>作为军队的指挥官，你可以选择发射导弹杀死 <strong>8名</strong> 敌国士兵，但会误杀附近的 <strong>1名</strong> 敌国平民。</p> <p>平民照片如下图所示。</p> <p></p> <img src='stimuli/faces/NFF7.jpg', style='max-width: 30%;'> </img> <p><strong>你是否选择发射武器？</strong></p>","0",""
"","","","","","html-keyboard-response","62","237776","0.0-4.0-0.29","233","1","2022-10-11 03:39:56","ebf9627b049f568eb4bf28942cb89901","153.119.59.201","Mozilla/5.0 (Linux; Android 12; LE2110 Build/RKQ1.211119.001;) AppleWebKit/537.36 (KHTML, like Gecko) Version/4.0 Chrome/97.0.4692.98 Mobile Safari/537.36","WebKit","Chrome","97.0.4692.98","AndroidOS","12","null","<div style=""font-size:60px;"">+</div>","null",""
"","","","","","html-button-response","63","241219","0.0-4.0-1.29","233","1","2022-10-11 03:39:56","ebf9627b049f568eb4bf28942cb89901","153.119.59.201","Mozilla/5.0 (Linux; Android 12; LE2110 Build/RKQ1.211119.001;) AppleWebKit/537.36 (KHTML, like Gecko) Version/4.0 Chrome/97.0.4692.98 Mobile Safari/537.36","WebKit","Chrome","97.0.4692.98","AndroidOS","12","3424","<p>作为军队的指挥官，你可以选择发射导弹杀死 <strong>6名</strong> 敌国士兵，但会炸毁附近的 <strong>1棵</strong> 敌国树木。</p> <p>树木的照片如下图所示。</p> <p></p> <img src='stimuli/trees/10.png', style='max-width: 30%;'> </img> <p><strong>你是否选择发射武器？</strong></p>","0",""
"","","","","","html-keyboard-response","64","242229","0.0-4.0-0.30","233","1","2022-10-11 03:39:56","ebf9627b049f568eb4bf28942cb89901","153.119.59.201","Mozilla/5.0 (Linux; Android 12; LE2110 Build/RKQ1.211119.001;) AppleWebKit/537.36 (KHTML, like Gecko) Version/4.0 Chrome/97.0.4692.98 Mobile Safari/537.36","WebKit","Chrome","97.0.4692.98","AndroidOS","12","null","<div style=""font-size:60px;"">+</div>","null",""
"","","","","","html-button-response","65","245588","0.0-4.0-1.30","233","1","2022-10-11 03:39:56","ebf9627b049f568eb4bf28942cb89901","153.119.59.201","Mozilla/5.0 (Linux; Android 12; LE2110 Build/RKQ1.211119.001;) AppleWebKit/537.36 (KHTML, like Gecko) Version/4.0 Chrome/97.0.4692.98 Mobile Safari/537.36","WebKit","Chrome","97.0.4692.98","AndroidOS","12","3336","<p>作为军队的指挥官，你可以选择发射导弹杀死 <strong>1名</strong> 敌国士兵，但会炸毁附近的 <strong>1棵</strong> 敌国树木。</p> <p>树木的照片如下图所示。</p> <p></p> <img src='stimuli/trees/9.png', style='max-width: 30%;'> </img> <p><strong>你是否选择发射武器？</strong></p>","0",""
"","","","","","html-keyboard-response","66","246599","0.0-4.0-0.31","233","1","2022-10-11 03:39:56","ebf9627b049f568eb4bf28942cb89901","153.119.59.201","Mozilla/5.0 (Linux; Android 12; LE2110 Build/RKQ1.211119.001;) AppleWebKit/537.36 (KHTML, like Gecko) Version/4.0 Chrome/97.0.4692.98 Mobile Safari/537.36","WebKit","Chrome","97.0.4692.98","AndroidOS","12","null","<div style=""font-size:60px;"">+</div>","null",""
"","","","","","html-button-response","67","248362","0.0-4.0-1.31","233","1","2022-10-11 03:39:56","ebf9627b049f568eb4bf28942cb89901","153.119.59.201","Mozilla/5.0 (Linux; Android 12; LE2110 Build/RKQ1.211119.001;) AppleWebKit/537.36 (KHTML, like Gecko) Version/4.0 Chrome/97.0.4692.98 Mobile Safari/537.36","WebKit","Chrome","97.0.4692.98","AndroidOS","12","1736","<p>作为军队的指挥官，你可以选择发射导弹杀死 <strong>10名</strong> 敌国士兵，但会炸毁附近的 <strong>1棵</strong> 敌国树木。</p> <p>树木的照片如下图所示。</p> <p></p> <img src='stimuli/trees/2.png', style='max-width: 30%;'> </img> <p><strong>你是否选择发射武器？</strong></p>","0",""
"","","","","","html-keyboard-response","68","249375","0.0-4.0-0.32","233","1","2022-10-11 03:39:56","ebf9627b049f568eb4bf28942cb89901","153.119.59.201","Mozilla/5.0 (Linux; Android 12; LE2110 Build/RKQ1.211119.001;) AppleWebKit/537.36 (KHTML, like Gecko) Version/4.0 Chrome/97.0.4692.98 Mobile Safari/537.36","WebKit","Chrome","97.0.4692.98","AndroidOS","12","null","<div style=""font-size:60px;"">+</div>","null",""
"","","","","","html-button-response","69","251396","0.0-4.0-1.32","233","1","2022-10-11 03:39:56","ebf9627b049f568eb4bf28942cb89901","153.119.59.201","Mozilla/5.0 (Linux; Android 12; LE2110 Build/RKQ1.211119.001;) AppleWebKit/537.36 (KHTML, like Gecko) Version/4.0 Chrome/97.0.4692.98 Mobile Safari/537.36","WebKit","Chrome","97.0.4692.98","AndroidOS","12","1996","<p>作为军队的指挥官，你可以选择发射导弹杀死 <strong>10名</strong> 敌国士兵，但会误杀附近的 <strong>1名</strong> 敌国平民。</p> <p>平民照片如下图所示。</p> <p></p> <img src='stimuli/faces/NFM4.jpg', style='max-width: 30%;'> </img> <p><strong>你是否选择发射武器？</strong></p>","0",""
"","","","","","html-keyboard-response","70","252402","0.0-4.0-0.33","233","1","2022-10-11 03:39:56","ebf9627b049f568eb4bf28942cb89901","153.119.59.201","Mozilla/5.0 (Linux; Android 12; LE2110 Build/RKQ1.211119.001;) AppleWebKit/537.36 (KHTML, like Gecko) Version/4.0 Chrome/97.0.4692.98 Mobile Safari/537.36","WebKit","Chrome","97.0.4692.98","AndroidOS","12","null","<div style=""font-size:60px;"">+</div>","null",""
"","","","","","html-button-response","71","263612","0.0-4.0-1.33","233","1","2022-10-11 03:39:56","ebf9627b049f568eb4bf28942cb89901","153.119.59.201","Mozilla/5.0 (Linux; Android 12; LE2110 Build/RKQ1.211119.001;) AppleWebKit/537.36 (KHTML, like Gecko) Version/4.0 Chrome/97.0.4692.98 Mobile Safari/537.36","WebKit","Chrome","97.0.4692.98","AndroidOS","12","11199","<p>作为军队的指挥官，你可以选择发射导弹杀死 <strong>2名</strong> 敌国士兵，但会误杀附近的 <strong>1名</strong> 敌国平民。</p> <p>平民照片如下图所示。</p> <p></p> <img src='stimuli/faces/NFM2.jpg', style='max-width: 30%;'> </img> <p><strong>你是否选择发射武器？</strong></p>","0",""
"","","","","","html-keyboard-response","72","264622","0.0-4.0-0.34","233","1","2022-10-11 03:39:56","ebf9627b049f568eb4bf28942cb89901","153.119.59.201","Mozilla/5.0 (Linux; Android 12; LE2110 Build/RKQ1.211119.001;) AppleWebKit/537.36 (KHTML, like Gecko) Version/4.0 Chrome/97.0.4692.98 Mobile Safari/537.36","WebKit","Chrome","97.0.4692.98","AndroidOS","12","null","<div style=""font-size:60px;"">+</div>","null",""
"","","","","","html-button-response","73","294411","0.0-4.0-1.34","233","1","2022-10-11 03:39:56","ebf9627b049f568eb4bf28942cb89901","153.119.59.201","Mozilla/5.0 (Linux; Android 12; LE2110 Build/RKQ1.211119.001;) AppleWebKit/537.36 (KHTML, like Gecko) Version/4.0 Chrome/97.0.4692.98 Mobile Safari/537.36","WebKit","Chrome","97.0.4692.98","AndroidOS","12","29773","<p>作为军队的指挥官，你可以选择发射导弹杀死 <strong>4名</strong> 敌国士兵，但会误杀附近的 <strong>1名</strong> 敌国平民。</p> <p>平民照片如下图所示。</p> <p></p> <img src='stimuli/faces/NFF4.jpg', style='max-width: 30%;'> </img> <p><strong>你是否选择发射武器？</strong></p>","1",""
"","","","","","html-keyboard-response","74","295422","0.0-4.0-0.35","233","1","2022-10-11 03:39:56","ebf9627b049f568eb4bf28942cb89901","153.119.59.201","Mozilla/5.0 (Linux; Android 12; LE2110 Build/RKQ1.211119.001;) AppleWebKit/537.36 (KHTML, like Gecko) Version/4.0 Chrome/97.0.4692.98 Mobile Safari/537.36","WebKit","Chrome","97.0.4692.98","AndroidOS","12","null","<div style=""font-size:60px;"">+</div>","null",""
"","","","","","html-button-response","75","298584","0.0-4.0-1.35","233","1","2022-10-11 03:39:56","ebf9627b049f568eb4bf28942cb89901","153.119.59.201","Mozilla/5.0 (Linux; Android 12; LE2110 Build/RKQ1.211119.001;) AppleWebKit/537.36 (KHTML, like Gecko) Version/4.0 Chrome/97.0.4692.98 Mobile Safari/537.36","WebKit","Chrome","97.0.4692.98","AndroidOS","12","3141","<p>作为军队的指挥官，你可以选择发射导弹杀死 <strong>10名</strong> 敌国士兵，但会炸毁附近的 <strong>1棵</strong> 敌国树木。</p> <p>树木的照片如下图所示。</p> <p></p> <img src='stimuli/trees/5.png', style='max-width: 30%;'> </img> <p><strong>你是否选择发射武器？</strong></p>","0",""
"","","","","","html-keyboard-response","76","299592","0.0-4.0-0.36","233","1","2022-10-11 03:39:56","ebf9627b049f568eb4bf28942cb89901","153.119.59.201","Mozilla/5.0 (Linux; Android 12; LE2110 Build/RKQ1.211119.001;) AppleWebKit/537.36 (KHTML, like Gecko) Version/4.0 Chrome/97.0.4692.98 Mobile Safari/537.36","WebKit","Chrome","97.0.4692.98","AndroidOS","12","null","<div style=""font-size:60px;"">+</div>","null",""
"","","","","","html-button-response","77","303195","0.0-4.0-1.36","233","1","2022-10-11 03:39:56","ebf9627b049f568eb4bf28942cb89901","153.119.59.201","Mozilla/5.0 (Linux; Android 12; LE2110 Build/RKQ1.211119.001;) AppleWebKit/537.36 (KHTML, like Gecko) Version/4.0 Chrome/97.0.4692.98 Mobile Safari/537.36","WebKit","Chrome","97.0.4692.98","AndroidOS","12","3578","<p>作为军队的指挥官，你可以选择发射导弹杀死 <strong>2名</strong> 敌国士兵，但会误杀附近的 <strong>1名</strong> 敌国平民。</p> <p>平民照片如下图所示。</p> <p></p> <img src='stimuli/faces/NFF1.jpg', style='max-width: 30%;'> </img> <p><strong>你是否选择发射武器？</strong></p>","1",""
"","","","","","html-keyboard-response","78","304203","0.0-4.0-0.37","233","1","2022-10-11 03:39:56","ebf9627b049f568eb4bf28942cb89901","153.119.59.201","Mozilla/5.0 (Linux; Android 12; LE2110 Build/RKQ1.211119.001;) AppleWebKit/537.36 (KHTML, like Gecko) Version/4.0 Chrome/97.0.4692.98 Mobile Safari/537.36","WebKit","Chrome","97.0.4692.98","AndroidOS","12","null","<div style=""font-size:60px;"">+</div>","null",""
"","","","","","html-button-response","79","306082","0.0-4.0-1.37","233","1","2022-10-11 03:39:56","ebf9627b049f568eb4bf28942cb89901","153.119.59.201","Mozilla/5.0 (Linux; Android 12; LE2110 Build/RKQ1.211119.001;) AppleWebKit/537.36 (KHTML, like Gecko) Version/4.0 Chrome/97.0.4692.98 Mobile Safari/537.36","WebKit","Chrome","97.0.4692.98","AndroidOS","12","1853","<p>作为军队的指挥官，你可以选择发射导弹杀死 <strong>5名</strong> 敌国士兵，但会误杀附近的 <strong>1名</strong> 敌国平民。</p> <p>平民照片如下图所示。</p> <p></p> <img src='stimuli/faces/NFF5.jpg', style='max-width: 30%;'> </img> <p><strong>你是否选择发射武器？</strong></p>","0",""
"","","","","","html-keyboard-response","80","307089","0.0-4.0-0.38","233","1","2022-10-11 03:39:56","ebf9627b049f568eb4bf28942cb89901","153.119.59.201","Mozilla/5.0 (Linux; Android 12; LE2110 Build/RKQ1.211119.001;) AppleWebKit/537.36 (KHTML, like Gecko) Version/4.0 Chrome/97.0.4692.98 Mobile Safari/537.36","WebKit","Chrome","97.0.4692.98","AndroidOS","12","null","<div style=""font-size:60px;"">+</div>","null",""
"","","","","","html-button-response","81","308495","0.0-4.0-1.38","233","1","2022-10-11 03:39:56","ebf9627b049f568eb4bf28942cb89901","153.119.59.201","Mozilla/5.0 (Linux; Android 12; LE2110 Build/RKQ1.211119.001;) AppleWebKit/537.36 (KHTML, like Gecko) Version/4.0 Chrome/97.0.4692.98 Mobile Safari/537.36","WebKit","Chrome","97.0.4692.98","AndroidOS","12","1382","<p>作为军队的指挥官，你可以选择发射导弹杀死 <strong>4名</strong> 敌国士兵，但会炸毁附近的 <strong>1棵</strong> 敌国树木。</p> <p>树木的照片如下图所示。</p> <p></p> <img src='stimuli/trees/2.png', style='max-width: 30%;'> </img> <p><strong>你是否选择发射武器？</strong></p>","0",""
"","","","","","html-keyboard-response","82","309503","0.0-4.0-0.39","233","1","2022-10-11 03:39:56","ebf9627b049f568eb4bf28942cb89901","153.119.59.201","Mozilla/5.0 (Linux; Android 12; LE2110 Build/RKQ1.211119.001;) AppleWebKit/537.36 (KHTML, like Gecko) Version/4.0 Chrome/97.0.4692.98 Mobile Safari/537.36","WebKit","Chrome","97.0.4692.98","AndroidOS","12","null","<div style=""font-size:60px;"">+</div>","null",""
"","","","","","html-button-response","83","313674","0.0-4.0-1.39","233","1","2022-10-11 03:39:56","ebf9627b049f568eb4bf28942cb89901","153.119.59.201","Mozilla/5.0 (Linux; Android 12; LE2110 Build/RKQ1.211119.001;) AppleWebKit/537.36 (KHTML, like Gecko) Version/4.0 Chrome/97.0.4692.98 Mobile Safari/537.36","WebKit","Chrome","97.0.4692.98","AndroidOS","12","4146","<p>作为军队的指挥官，你可以选择发射导弹杀死 <strong>9名</strong> 敌国士兵，但会炸毁附近的 <strong>1棵</strong> 敌国树木。</p> <p>树木的照片如下图所示。</p> <p></p> <img src='stimuli/trees/7.png', style='max-width: 30%;'> </img> <p><strong>你是否选择发射武器？</strong></p>","0",""
"","","","","","html-keyboard-response","84","314688","0.0-4.0-0.40","233","1","2022-10-11 03:39:56","ebf9627b049f568eb4bf28942cb89901","153.119.59.201","Mozilla/5.0 (Linux; Android 12; LE2110 Build/RKQ1.211119.001;) AppleWebKit/537.36 (KHTML, like Gecko) Version/4.0 Chrome/97.0.4692.98 Mobile Safari/537.36","WebKit","Chrome","97.0.4692.98","AndroidOS","12","null","<div style=""font-size:60px;"">+</div>","null",""
"","","","","","html-button-response","85","316345","0.0-4.0-1.40","233","1","2022-10-11 03:39:56","ebf9627b049f568eb4bf28942cb89901","153.119.59.201","Mozilla/5.0 (Linux; Android 12; LE2110 Build/RKQ1.211119.001;) AppleWebKit/537.36 (KHTML, like Gecko) Version/4.0 Chrome/97.0.4692.98 Mobile Safari/537.36","WebKit","Chrome","97.0.4692.98","AndroidOS","12","1637","<p>作为军队的指挥官，你可以选择发射导弹杀死 <strong>1名</strong> 敌国士兵，但会炸毁附近的 <strong>1棵</strong> 敌国树木。</p> <p>树木的照片如下图所示。</p> <p></p> <img src='stimuli/trees/5.png', style='max-width: 30%;'> </img> <p><strong>你是否选择发射武器？</strong></p>","0",""
"","","","","","html-keyboard-response","86","317359","0.0-4.0-0.41","233","1","2022-10-11 03:39:56","ebf9627b049f568eb4bf28942cb89901","153.119.59.201","Mozilla/5.0 (Linux; Android 12; LE2110 Build/RKQ1.211119.001;) AppleWebKit/537.36 (KHTML, like Gecko) Version/4.0 Chrome/97.0.4692.98 Mobile Safari/537.36","WebKit","Chrome","97.0.4692.98","AndroidOS","12","null","<div style=""font-size:60px;"">+</div>","null",""
"","","","","","html-button-response","87","319471","0.0-4.0-1.41","233","1","2022-10-11 03:39:56","ebf9627b049f568eb4bf28942cb89901","153.119.59.201","Mozilla/5.0 (Linux; Android 12; LE2110 Build/RKQ1.211119.001;) AppleWebKit/537.36 (KHTML, like Gecko) Version/4.0 Chrome/97.0.4692.98 Mobile Safari/537.36","WebKit","Chrome","97.0.4692.98","AndroidOS","12","2092","<p>作为军队的指挥官，你可以选择发射导弹杀死 <strong>4名</strong> 敌国士兵，但会误杀附近的 <strong>1名</strong> 敌国平民。</p> <p>平民照片如下图所示。</p> <p></p> <img src='stimuli/faces/NFM4.jpg', style='max-width: 30%;'> </img> <p><strong>你是否选择发射武器？</strong></p>","0",""
"","","","","","html-keyboard-response","88","320481","0.0-4.0-0.42","233","1","2022-10-11 03:39:56","ebf9627b049f568eb4bf28942cb89901","153.119.59.201","Mozilla/5.0 (Linux; Android 12; LE2110 Build/RKQ1.211119.001;) AppleWebKit/537.36 (KHTML, like Gecko) Version/4.0 Chrome/97.0.4692.98 Mobile Safari/537.36","WebKit","Chrome","97.0.4692.98","AndroidOS","12","null","<div style=""font-size:60px;"">+</div>","null",""
"","","","","","html-button-response","89","321911","0.0-4.0-1.42","233","1","2022-10-11 03:39:56","ebf9627b049f568eb4bf28942cb89901","153.119.59.201","Mozilla/5.0 (Linux; Android 12; LE2110 Build/RKQ1.211119.001;) AppleWebKit/537.36 (KHTML, like Gecko) Version/4.0 Chrome/97.0.4692.98 Mobile Safari/537.36","WebKit","Chrome","97.0.4692.98","AndroidOS","12","1404","<p>作为军队的指挥官，你可以选择发射导弹杀死 <strong>9名</strong> 敌国士兵，但会炸毁附近的 <strong>1棵</strong> 敌国树木。</p> <p>树木的照片如下图所示。</p> <p></p> <img src='stimuli/trees/9.png', style='max-width: 30%;'> </img> <p><strong>你是否选择发射武器？</strong></p>","0",""
"","","","","","html-keyboard-response","90","322922","0.0-4.0-0.43","233","1","2022-10-11 03:39:56","ebf9627b049f568eb4bf28942cb89901","153.119.59.201","Mozilla/5.0 (Linux; Android 12; LE2110 Build/RKQ1.211119.001;) AppleWebKit/537.36 (KHTML, like Gecko) Version/4.0 Chrome/97.0.4692.98 Mobile Safari/537.36","WebKit","Chrome","97.0.4692.98","AndroidOS","12","null","<div style=""font-size:60px;"">+</div>","null",""
"","","","","","html-button-response","91","326071","0.0-4.0-1.43","233","1","2022-10-11 03:39:56","ebf9627b049f568eb4bf28942cb89901","153.119.59.201","Mozilla/5.0 (Linux; Android 12; LE2110 Build/RKQ1.211119.001;) AppleWebKit/537.36 (KHTML, like Gecko) Version/4.0 Chrome/97.0.4692.98 Mobile Safari/537.36","WebKit","Chrome","97.0.4692.98","AndroidOS","12","3120","<p>作为军队的指挥官，你可以选择发射导弹杀死 <strong>1名</strong> 敌国士兵，但会炸毁附近的 <strong>1棵</strong> 敌国树木。</p> <p>树木的照片如下图所示。</p> <p></p> <img src='stimuli/trees/14.png', style='max-width: 30%;'> </img> <p><strong>你是否选择发射武器？</strong></p>","0",""
"","","","","","html-keyboard-response","92","327079","0.0-4.0-0.44","233","1","2022-10-11 03:39:56","ebf9627b049f568eb4bf28942cb89901","153.119.59.201","Mozilla/5.0 (Linux; Android 12; LE2110 Build/RKQ1.211119.001;) AppleWebKit/537.36 (KHTML, like Gecko) Version/4.0 Chrome/97.0.4692.98 Mobile Safari/537.36","WebKit","Chrome","97.0.4692.98","AndroidOS","12","null","<div style=""font-size:60px;"">+</div>","null",""
"","","","","","html-button-response","93","328251","0.0-4.0-1.44","233","1","2022-10-11 03:39:56","ebf9627b049f568eb4bf28942cb89901","153.119.59.201","Mozilla/5.0 (Linux; Android 12; LE2110 Build/RKQ1.211119.001;) AppleWebKit/537.36 (KHTML, like Gecko) Version/4.0 Chrome/97.0.4692.98 Mobile Safari/537.36","WebKit","Chrome","97.0.4692.98","AndroidOS","12","1146","<p>作为军队的指挥官，你可以选择发射导弹杀死 <strong>9名</strong> 敌国士兵，但会误杀附近的 <strong>1名</strong> 敌国平民。</p> <p>平民照片如下图所示。</p> <p></p> <img src='stimuli/faces/NFF1.jpg', style='max-width: 30%;'> </img> <p><strong>你是否选择发射武器？</strong></p>","0",""
"","","","","","html-keyboard-response","94","329259","0.0-4.0-0.45","233","1","2022-10-11 03:39:56","ebf9627b049f568eb4bf28942cb89901","153.119.59.201","Mozilla/5.0 (Linux; Android 12; LE2110 Build/RKQ1.211119.001;) AppleWebKit/537.36 (KHTML, like Gecko) Version/4.0 Chrome/97.0.4692.98 Mobile Safari/537.36","WebKit","Chrome","97.0.4692.98","AndroidOS","12","null","<div style=""font-size:60px;"">+</div>","null",""
"","","","","","html-button-response","95","330266","0.0-4.0-1.45","233","1","2022-10-11 03:39:56","ebf9627b049f568eb4bf28942cb89901","153.119.59.201","Mozilla/5.0 (Linux; Android 12; LE2110 Build/RKQ1.211119.001;) AppleWebKit/537.36 (KHTML, like Gecko) Version/4.0 Chrome/97.0.4692.98 Mobile Safari/537.36","WebKit","Chrome","97.0.4692.98","AndroidOS","12","983","<p>作为军队的指挥官，你可以选择发射导弹杀死 <strong>1名</strong> 敌国士兵，但会误杀附近的 <strong>1名</strong> 敌国平民。</p> <p>平民照片如下图所示。</p> <p></p> <img src='stimuli/faces/NFM3.jpg', style='max-width: 30%;'> </img> <p><strong>你是否选择发射武器？</strong></p>","0",""
"","","","","","html-keyboard-response","96","331279","0.0-4.0-0.46","233","1","2022-10-11 03:39:56","ebf9627b049f568eb4bf28942cb89901","153.119.59.201","Mozilla/5.0 (Linux; Android 12; LE2110 Build/RKQ1.211119.001;) AppleWebKit/537.36 (KHTML, like Gecko) Version/4.0 Chrome/97.0.4692.98 Mobile Safari/537.36","WebKit","Chrome","97.0.4692.98","AndroidOS","12","null","<div style=""font-size:60px;"">+</div>","null",""
"","","","","","html-button-response","97","333109","0.0-4.0-1.46","233","1","2022-10-11 03:39:56","ebf9627b049f568eb4bf28942cb89901","153.119.59.201","Mozilla/5.0 (Linux; Android 12; LE2110 Build/RKQ1.211119.001;) AppleWebKit/537.36 (KHTML, like Gecko) Version/4.0 Chrome/97.0.4692.98 Mobile Safari/537.36","WebKit","Chrome","97.0.4692.98","AndroidOS","12","1814","<p>作为军队的指挥官，你可以选择发射导弹杀死 <strong>3名</strong> 敌国士兵，但会误杀附近的 <strong>1名</strong> 敌国平民。</p> <p>平民照片如下图所示。</p> <p></p> <img src='stimuli/faces/NFM7.jpg', style='max-width: 30%;'> </img> <p><strong>你是否选择发射武器？</strong></p>","0",""
"","","","","","html-keyboard-response","98","334125","0.0-4.0-0.47","233","1","2022-10-11 03:39:56","ebf9627b049f568eb4bf28942cb89901","153.119.59.201","Mozilla/5.0 (Linux; Android 12; LE2110 Build/RKQ1.211119.001;) AppleWebKit/537.36 (KHTML, like Gecko) Version/4.0 Chrome/97.0.4692.98 Mobile Safari/537.36","WebKit","Chrome","97.0.4692.98","AndroidOS","12","null","<div style=""font-size:60px;"">+</div>","null",""
"","","","","","html-button-response","99","335406","0.0-4.0-1.47","233","1","2022-10-11 03:39:56","ebf9627b049f568eb4bf28942cb89901","153.119.59.201","Mozilla/5.0 (Linux; Android 12; LE2110 Build/RKQ1.211119.001;) AppleWebKit/537.36 (KHTML, like Gecko) Version/4.0 Chrome/97.0.4692.98 Mobile Safari/537.36","WebKit","Chrome","97.0.4692.98","AndroidOS","12","1251","<p>作为军队的指挥官，你可以选择发射导弹杀死 <strong>6名</strong> 敌国士兵，但会炸毁附近的 <strong>1棵</strong> 敌国树木。</p> <p>树木的照片如下图所示。</p> <p></p> <img src='stimuli/trees/6.png', style='max-width: 30%;'> </img> <p><strong>你是否选择发射武器？</strong></p>","0",""
"","","","","","html-keyboard-response","100","336422","0.0-4.0-0.48","233","1","2022-10-11 03:39:56","ebf9627b049f568eb4bf28942cb89901","153.119.59.201","Mozilla/5.0 (Linux; Android 12; LE2110 Build/RKQ1.211119.001;) AppleWebKit/537.36 (KHTML, like Gecko) Version/4.0 Chrome/97.0.4692.98 Mobile Safari/537.36","WebKit","Chrome","97.0.4692.98","AndroidOS","12","null","<div style=""font-size:60px;"">+</div>","null",""
"","","","","","html-button-response","101","338482","0.0-4.0-1.48","233","1","2022-10-11 03:39:56","ebf9627b049f568eb4bf28942cb89901","153.119.59.201","Mozilla/5.0 (Linux; Android 12; LE2110 Build/RKQ1.211119.001;) AppleWebKit/537.36 (KHTML, like Gecko) Version/4.0 Chrome/97.0.4692.98 Mobile Safari/537.36","WebKit","Chrome","97.0.4692.98","AndroidOS","12","2031","<p>作为军队的指挥官，你可以选择发射导弹杀死 <strong>7名</strong> 敌国士兵，但会误杀附近的 <strong>1名</strong> 敌国平民。</p> <p>平民照片如下图所示。</p> <p></p> <img src='stimuli/faces/NFF8.jpg', style='max-width: 30%;'> </img> <p><strong>你是否选择发射武器？</strong></p>","0",""
"","","","","","html-keyboard-response","102","339496","0.0-4.0-0.49","233","1","2022-10-11 03:39:56","ebf9627b049f568eb4bf28942cb89901","153.119.59.201","Mozilla/5.0 (Linux; Android 12; LE2110 Build/RKQ1.211119.001;) AppleWebKit/537.36 (KHTML, like Gecko) Version/4.0 Chrome/97.0.4692.98 Mobile Safari/537.36","WebKit","Chrome","97.0.4692.98","AndroidOS","12","null","<div style=""font-size:60px;"">+</div>","null",""
"","","","","","html-button-response","103","341133","0.0-4.0-1.49","233","1","2022-10-11 03:39:56","ebf9627b049f568eb4bf28942cb89901","153.119.59.201","Mozilla/5.0 (Linux; Android 12; LE2110 Build/RKQ1.211119.001;) AppleWebKit/537.36 (KHTML, like Gecko) Version/4.0 Chrome/97.0.4692.98 Mobile Safari/537.36","WebKit","Chrome","97.0.4692.98","AndroidOS","12","1596","<p>作为军队的指挥官，你可以选择发射导弹杀死 <strong>7名</strong> 敌国士兵，但会炸毁附近的 <strong>1棵</strong> 敌国树木。</p> <p>树木的照片如下图所示。</p> <p></p> <img src='stimuli/trees/8.png', style='max-width: 30%;'> </img> <p><strong>你是否选择发射武器？</strong></p>","0",""
"","","","","","html-keyboard-response","104","342146","0.0-4.0-0.50","233","1","2022-10-11 03:39:56","ebf9627b049f568eb4bf28942cb89901","153.119.59.201","Mozilla/5.0 (Linux; Android 12; LE2110 Build/RKQ1.211119.001;) AppleWebKit/537.36 (KHTML, like Gecko) Version/4.0 Chrome/97.0.4692.98 Mobile Safari/537.36","WebKit","Chrome","97.0.4692.98","AndroidOS","12","null","<div style=""font-size:60px;"">+</div>","null",""
"","","","","","html-button-response","105","343365","0.0-4.0-1.50","233","1","2022-10-11 03:39:56","ebf9627b049f568eb4bf28942cb89901","153.119.59.201","Mozilla/5.0 (Linux; Android 12; LE2110 Build/RKQ1.211119.001;) AppleWebKit/537.36 (KHTML, like Gecko) Version/4.0 Chrome/97.0.4692.98 Mobile Safari/537.36","WebKit","Chrome","97.0.4692.98","AndroidOS","12","1184","<p>作为军队的指挥官，你可以选择发射导弹杀死 <strong>10名</strong> 敌国士兵，但会炸毁附近的 <strong>1棵</strong> 敌国树木。</p> <p>树木的照片如下图所示。</p> <p></p> <img src='stimuli/trees/3.png', style='max-width: 30%;'> </img> <p><strong>你是否选择发射武器？</strong></p>","0",""
"","","","","","html-keyboard-response","106","344384","0.0-4.0-0.51","233","1","2022-10-11 03:39:56","ebf9627b049f568eb4bf28942cb89901","153.119.59.201","Mozilla/5.0 (Linux; Android 12; LE2110 Build/RKQ1.211119.001;) AppleWebKit/537.36 (KHTML, like Gecko) Version/4.0 Chrome/97.0.4692.98 Mobile Safari/537.36","WebKit","Chrome","97.0.4692.98","AndroidOS","12","null","<div style=""font-size:60px;"">+</div>","null",""
"","","","","","html-button-response","107","345604","0.0-4.0-1.51","233","1","2022-10-11 03:39:56","ebf9627b049f568eb4bf28942cb89901","153.119.59.201","Mozilla/5.0 (Linux; Android 12; LE2110 Build/RKQ1.211119.001;) AppleWebKit/537.36 (KHTML, like Gecko) Version/4.0 Chrome/97.0.4692.98 Mobile Safari/537.36","WebKit","Chrome","97.0.4692.98","AndroidOS","12","1183","<p>作为军队的指挥官，你可以选择发射导弹杀死 <strong>6名</strong> 敌国士兵，但会炸毁附近的 <strong>1棵</strong> 敌国树木。</p> <p>树木的照片如下图所示。</p> <p></p> <img src='stimuli/trees/15.png', style='max-width: 30%;'> </img> <p><strong>你是否选择发射武器？</strong></p>","0",""
"","","","","","html-keyboard-response","108","346619","0.0-4.0-0.52","233","1","2022-10-11 03:39:56","ebf9627b049f568eb4bf28942cb89901","153.119.59.201","Mozilla/5.0 (Linux; Android 12; LE2110 Build/RKQ1.211119.001;) AppleWebKit/537.36 (KHTML, like Gecko) Version/4.0 Chrome/97.0.4692.98 Mobile Safari/537.36","WebKit","Chrome","97.0.4692.98","AndroidOS","12","null","<div style=""font-size:60px;"">+</div>","null",""
"","","","","","html-button-response","109","349349","0.0-4.0-1.52","233","1","2022-10-11 03:39:56","ebf9627b049f568eb4bf28942cb89901","153.119.59.201","Mozilla/5.0 (Linux; Android 12; LE2110 Build/RKQ1.211119.001;) AppleWebKit/537.36 (KHTML, like Gecko) Version/4.0 Chrome/97.0.4692.98 Mobile Safari/537.36","WebKit","Chrome","97.0.4692.98","AndroidOS","12","2697","<p>作为军队的指挥官，你可以选择发射导弹杀死 <strong>5名</strong> 敌国士兵，但会炸毁附近的 <strong>1棵</strong> 敌国树木。</p> <p>树木的照片如下图所示。</p> <p></p> <img src='stimuli/trees/13.png', style='max-width: 30%;'> </img> <p><strong>你是否选择发射武器？</strong></p>","0",""
"","","","","","html-keyboard-response","110","350360","0.0-4.0-0.53","233","1","2022-10-11 03:39:56","ebf9627b049f568eb4bf28942cb89901","153.119.59.201","Mozilla/5.0 (Linux; Android 12; LE2110 Build/RKQ1.211119.001;) AppleWebKit/537.36 (KHTML, like Gecko) Version/4.0 Chrome/97.0.4692.98 Mobile Safari/537.36","WebKit","Chrome","97.0.4692.98","AndroidOS","12","null","<div style=""font-size:60px;"">+</div>","null",""
"","","","","","html-button-response","111","351365","0.0-4.0-1.53","233","1","2022-10-11 03:39:56","ebf9627b049f568eb4bf28942cb89901","153.119.59.201","Mozilla/5.0 (Linux; Android 12; LE2110 Build/RKQ1.211119.001;) AppleWebKit/537.36 (KHTML, like Gecko) Version/4.0 Chrome/97.0.4692.98 Mobile Safari/537.36","WebKit","Chrome","97.0.4692.98","AndroidOS","12","977","<p>作为军队的指挥官，你可以选择发射导弹杀死 <strong>7名</strong> 敌国士兵，但会炸毁附近的 <strong>1棵</strong> 敌国树木。</p> <p>树木的照片如下图所示。</p> <p></p> <img src='stimuli/trees/13.png', style='max-width: 30%;'> </img> <p><strong>你是否选择发射武器？</strong></p>","0",""
"","","","","","html-keyboard-response","112","352382","0.0-4.0-0.54","233","1","2022-10-11 03:39:56","ebf9627b049f568eb4bf28942cb89901","153.119.59.201","Mozilla/5.0 (Linux; Android 12; LE2110 Build/RKQ1.211119.001;) AppleWebKit/537.36 (KHTML, like Gecko) Version/4.0 Chrome/97.0.4692.98 Mobile Safari/537.36","WebKit","Chrome","97.0.4692.98","AndroidOS","12","null","<div style=""font-size:60px;"">+</div>","null",""
"","","","","","html-button-response","113","353207","0.0-4.0-1.54","233","1","2022-10-11 03:39:56","ebf9627b049f568eb4bf28942cb89901","153.119.59.201","Mozilla/5.0 (Linux; Android 12; LE2110 Build/RKQ1.211119.001;) AppleWebKit/537.36 (KHTML, like Gecko) Version/4.0 Chrome/97.0.4692.98 Mobile Safari/537.36","WebKit","Chrome","97.0.4692.98","AndroidOS","12","797","<p>作为军队的指挥官，你可以选择发射导弹杀死 <strong>1名</strong> 敌国士兵，但会误杀附近的 <strong>1名</strong> 敌国平民。</p> <p>平民照片如下图所示。</p> <p></p> <img src='stimuli/faces/NFM6.jpg', style='max-width: 30%;'> </img> <p><strong>你是否选择发射武器？</strong></p>","0",""
"","","","","","html-keyboard-response","114","354226","0.0-4.0-0.55","233","1","2022-10-11 03:39:56","ebf9627b049f568eb4bf28942cb89901","153.119.59.201","Mozilla/5.0 (Linux; Android 12; LE2110 Build/RKQ1.211119.001;) AppleWebKit/537.36 (KHTML, like Gecko) Version/4.0 Chrome/97.0.4692.98 Mobile Safari/537.36","WebKit","Chrome","97.0.4692.98","AndroidOS","12","null","<div style=""font-size:60px;"">+</div>","null",""
"","","","","","html-button-response","115","354976","0.0-4.0-1.55","233","1","2022-10-11 03:39:56","ebf9627b049f568eb4bf28942cb89901","153.119.59.201","Mozilla/5.0 (Linux; Android 12; LE2110 Build/RKQ1.211119.001;) AppleWebKit/537.36 (KHTML, like Gecko) Version/4.0 Chrome/97.0.4692.98 Mobile Safari/537.36","WebKit","Chrome","97.0.4692.98","AndroidOS","12","724","<p>作为军队的指挥官，你可以选择发射导弹杀死 <strong>3名</strong> 敌国士兵，但会炸毁附近的 <strong>1棵</strong> 敌国树木。</p> <p>树木的照片如下图所示。</p> <p></p> <img src='stimuli/trees/7.png', style='max-width: 30%;'> </img> <p><strong>你是否选择发射武器？</strong></p>","0",""
"","","","","","html-keyboard-response","116","355994","0.0-4.0-0.56","233","1","2022-10-11 03:39:56","ebf9627b049f568eb4bf28942cb89901","153.119.59.201","Mozilla/5.0 (Linux; Android 12; LE2110 Build/RKQ1.211119.001;) AppleWebKit/537.36 (KHTML, like Gecko) Version/4.0 Chrome/97.0.4692.98 Mobile Safari/537.36","WebKit","Chrome","97.0.4692.98","AndroidOS","12","null","<div style=""font-size:60px;"">+</div>","null",""
"","","","","","html-button-response","117","356955","0.0-4.0-1.56","233","1","2022-10-11 03:39:56","ebf9627b049f568eb4bf28942cb89901","153.119.59.201","Mozilla/5.0 (Linux; Android 12; LE2110 Build/RKQ1.211119.001;) AppleWebKit/537.36 (KHTML, like Gecko) Version/4.0 Chrome/97.0.4692.98 Mobile Safari/537.36","WebKit","Chrome","97.0.4692.98","AndroidOS","12","936","<p>作为军队的指挥官，你可以选择发射导弹杀死 <strong>6名</strong> 敌国士兵，但会误杀附近的 <strong>1名</strong> 敌国平民。</p> <p>平民照片如下图所示。</p> <p></p> <img src='stimuli/faces/NFF5.jpg', style='max-width: 30%;'> </img> <p><strong>你是否选择发射武器？</strong></p>","0",""
"","","","","","html-keyboard-response","118","357971","0.0-4.0-0.57","233","1","2022-10-11 03:39:56","ebf9627b049f568eb4bf28942cb89901","153.119.59.201","Mozilla/5.0 (Linux; Android 12; LE2110 Build/RKQ1.211119.001;) AppleWebKit/537.36 (KHTML, like Gecko) Version/4.0 Chrome/97.0.4692.98 Mobile Safari/537.36","WebKit","Chrome","97.0.4692.98","AndroidOS","12","null","<div style=""font-size:60px;"">+</div>","null",""
"","","","","","html-button-response","119","358696","0.0-4.0-1.57","233","1","2022-10-11 03:39:56","ebf9627b049f568eb4bf28942cb89901","153.119.59.201","Mozilla/5.0 (Linux; Android 12; LE2110 Build/RKQ1.211119.001;) AppleWebKit/537.36 (KHTML, like Gecko) Version/4.0 Chrome/97.0.4692.98 Mobile Safari/537.36","WebKit","Chrome","97.0.4692.98","AndroidOS","12","698","<p>作为军队的指挥官，你可以选择发射导弹杀死 <strong>8名</strong> 敌国士兵，但会误杀附近的 <strong>1名</strong> 敌国平民。</p> <p>平民照片如下图所示。</p> <p></p> <img src='stimuli/faces/NFM5.jpg', style='max-width: 30%;'> </img> <p><strong>你是否选择发射武器？</strong></p>","0",""
"","","","","","html-keyboard-response","120","359712","0.0-4.0-0.58","233","1","2022-10-11 03:39:56","ebf9627b049f568eb4bf28942cb89901","153.119.59.201","Mozilla/5.0 (Linux; Android 12; LE2110 Build/RKQ1.211119.001;) AppleWebKit/537.36 (KHTML, like Gecko) Version/4.0 Chrome/97.0.4692.98 Mobile Safari/537.36","WebKit","Chrome","97.0.4692.98","AndroidOS","12","null","<div style=""font-size:60px;"">+</div>","null",""
"","","","","","html-button-response","121","360488","0.0-4.0-1.58","233","1","2022-10-11 03:39:56","ebf9627b049f568eb4bf28942cb89901","153.119.59.201","Mozilla/5.0 (Linux; Android 12; LE2110 Build/RKQ1.211119.001;) AppleWebKit/537.36 (KHTML, like Gecko) Version/4.0 Chrome/97.0.4692.98 Mobile Safari/537.36","WebKit","Chrome","97.0.4692.98","AndroidOS","12","750","<p>作为军队的指挥官，你可以选择发射导弹杀死 <strong>6名</strong> 敌国士兵，但会误杀附近的 <strong>1名</strong> 敌国平民。</p> <p>平民照片如下图所示。</p> <p></p> <img src='stimuli/faces/NFF4.jpg', style='max-width: 30%;'> </img> <p><strong>你是否选择发射武器？</strong></p>","0",""
"","","","","","html-keyboard-response","122","361503","0.0-4.0-0.59","233","1","2022-10-11 03:39:56","ebf9627b049f568eb4bf28942cb89901","153.119.59.201","Mozilla/5.0 (Linux; Android 12; LE2110 Build/RKQ1.211119.001;) AppleWebKit/537.36 (KHTML, like Gecko) Version/4.0 Chrome/97.0.4692.98 Mobile Safari/537.36","WebKit","Chrome","97.0.4692.98","AndroidOS","12","null","<div style=""font-size:60px;"">+</div>","null",""
"","","","","","html-button-response","123","362141","0.0-4.0-1.59","233","1","2022-10-11 03:39:56","ebf9627b049f568eb4bf28942cb89901","153.119.59.201","Mozilla/5.0 (Linux; Android 12; LE2110 Build/RKQ1.211119.001;) AppleWebKit/537.36 (KHTML, like Gecko) Version/4.0 Chrome/97.0.4692.98 Mobile Safari/537.36","WebKit","Chrome","97.0.4692.98","AndroidOS","12","616","<p>作为军队的指挥官，你可以选择发射导弹杀死 <strong>2名</strong> 敌国士兵，但会炸毁附近的 <strong>1棵</strong> 敌国树木。</p> <p>树木的照片如下图所示。</p> <p></p> <img src='stimuli/trees/6.png', style='max-width: 30%;'> </img> <p><strong>你是否选择发射武器？</strong></p>","0",""
"","","","","","html-keyboard-response","124","363155","0.0-4.0-0.60","233","1","2022-10-11 03:39:56","ebf9627b049f568eb4bf28942cb89901","153.119.59.201","Mozilla/5.0 (Linux; Android 12; LE2110 Build/RKQ1.211119.001;) AppleWebKit/537.36 (KHTML, like Gecko) Version/4.0 Chrome/97.0.4692.98 Mobile Safari/537.36","WebKit","Chrome","97.0.4692.98","AndroidOS","12","null","<div style=""font-size:60px;"">+</div>","null",""
"","","","","","html-button-response","125","363927","0.0-4.0-1.60","233","1","2022-10-11 03:39:56","ebf9627b049f568eb4bf28942cb89901","153.119.59.201","Mozilla/5.0 (Linux; Android 12; LE2110 Build/RKQ1.211119.001;) AppleWebKit/537.36 (KHTML, like Gecko) Version/4.0 Chrome/97.0.4692.98 Mobile Safari/537.36","WebKit","Chrome","97.0.4692.98","AndroidOS","12","735","<p>作为军队的指挥官，你可以选择发射导弹杀死 <strong>6名</strong> 敌国士兵，但会炸毁附近的 <strong>1棵</strong> 敌国树木。</p> <p>树木的照片如下图所示。</p> <p></p> <img src='stimuli/trees/11.png', style='max-width: 30%;'> </img> <p><strong>你是否选择发射武器？</strong></p>","0",""
"","","","","","html-keyboard-response","126","364944","0.0-4.0-0.61","233","1","2022-10-11 03:39:56","ebf9627b049f568eb4bf28942cb89901","153.119.59.201","Mozilla/5.0 (Linux; Android 12; LE2110 Build/RKQ1.211119.001;) AppleWebKit/537.36 (KHTML, like Gecko) Version/4.0 Chrome/97.0.4692.98 Mobile Safari/537.36","WebKit","Chrome","97.0.4692.98","AndroidOS","12","null","<div style=""font-size:60px;"">+</div>","null",""
"","","","","","html-button-response","127","365716","0.0-4.0-1.61","233","1","2022-10-11 03:39:56","ebf9627b049f568eb4bf28942cb89901","153.119.59.201","Mozilla/5.0 (Linux; Android 12; LE2110 Build/RKQ1.211119.001;) AppleWebKit/537.36 (KHTML, like Gecko) Version/4.0 Chrome/97.0.4692.98 Mobile Safari/537.36","WebKit","Chrome","97.0.4692.98","AndroidOS","12","734","<p>作为军队的指挥官，你可以选择发射导弹杀死 <strong>3名</strong> 敌国士兵，但会炸毁附近的 <strong>1棵</strong> 敌国树木。</p> <p>树木的照片如下图所示。</p> <p></p> <img src='stimuli/trees/1.png', style='max-width: 30%;'> </img> <p><strong>你是否选择发射武器？</strong></p>","0",""
"","","","","","html-keyboard-response","128","366725","0.0-4.0-0.62","233","1","2022-10-11 03:39:56","ebf9627b049f568eb4bf28942cb89901","153.119.59.201","Mozilla/5.0 (Linux; Android 12; LE2110 Build/RKQ1.211119.001;) AppleWebKit/537.36 (KHTML, like Gecko) Version/4.0 Chrome/97.0.4692.98 Mobile Safari/537.36","WebKit","Chrome","97.0.4692.98","AndroidOS","12","null","<div style=""font-size:60px;"">+</div>","null",""
"","","","","","html-button-response","129","367422","0.0-4.0-1.62","233","1","2022-10-11 03:39:56","ebf9627b049f568eb4bf28942cb89901","153.119.59.201","Mozilla/5.0 (Linux; Android 12; LE2110 Build/RKQ1.211119.001;) AppleWebKit/537.36 (KHTML, like Gecko) Version/4.0 Chrome/97.0.4692.98 Mobile Safari/537.36","WebKit","Chrome","97.0.4692.98","AndroidOS","12","675","<p>作为军队的指挥官，你可以选择发射导弹杀死 <strong>5名</strong> 敌国士兵，但会误杀附近的 <strong>1名</strong> 敌国平民。</p> <p>平民照片如下图所示。</p> <p></p> <img src='stimuli/faces/NFF3.jpg', style='max-width: 30%;'> </img> <p><strong>你是否选择发射武器？</strong></p>","0",""
"","","","","","html-keyboard-response","130","368439","0.0-4.0-0.63","233","1","2022-10-11 03:39:56","ebf9627b049f568eb4bf28942cb89901","153.119.59.201","Mozilla/5.0 (Linux; Android 12; LE2110 Build/RKQ1.211119.001;) AppleWebKit/537.36 (KHTML, like Gecko) Version/4.0 Chrome/97.0.4692.98 Mobile Safari/537.36","WebKit","Chrome","97.0.4692.98","AndroidOS","12","null","<div style=""font-size:60px;"">+</div>","null",""
"","","","","","html-button-response","131","369614","0.0-4.0-1.63","233","1","2022-10-11 03:39:56","ebf9627b049f568eb4bf28942cb89901","153.119.59.201","Mozilla/5.0 (Linux; Android 12; LE2110 Build/RKQ1.211119.001;) AppleWebKit/537.36 (KHTML, like Gecko) Version/4.0 Chrome/97.0.4692.98 Mobile Safari/537.36","WebKit","Chrome","97.0.4692.98","AndroidOS","12","1144","<p>作为军队的指挥官，你可以选择发射导弹杀死 <strong>3名</strong> 敌国士兵，但会误杀附近的 <strong>1名</strong> 敌国平民。</p> <p>平民照片如下图所示。</p> <p></p> <img src='stimuli/faces/NFM5.jpg', style='max-width: 30%;'> </img> <p><strong>你是否选择发射武器？</strong></p>","0",""
"","","","","","survey-multi-choice","132","396808","0.0-5.0","233","1","2022-10-11 03:39:56","ebf9627b049f568eb4bf28942cb89901","153.119.59.201","Mozilla/5.0 (Linux; Android 12; LE2110 Build/RKQ1.211119.001;) AppleWebKit/537.36 (KHTML, like Gecko) Version/4.0 Chrome/97.0.4692.98 Mobile Safari/537.36","WebKit","Chrome","97.0.4692.98","AndroidOS","12","27179","","{""Attention1"":""""}","[0]"
"","","","","","html-button-response","133","401975","0.0-6.0","233","1","2022-10-11 03:39:56","ebf9627b049f568eb4bf28942cb89901","153.119.59.201","Mozilla/5.0 (Linux; Android 12; LE2110 Build/RKQ1.211119.001;) AppleWebKit/537.36 (KHTML, like Gecko) Version/4.0 Chrome/97.0.4692.98 Mobile Safari/537.36","WebKit","Chrome","97.0.4692.98","AndroidOS","12","5153","<p style=""font-size:20px;font-weight:bold;"">恭喜！</p><p>你已经完成了实验的第一部分。</p><p>请休息放松一下，然后进入第二部分。</p><p>这部分大约需要10分钟。</p>","0",""
"","","","","","survey-text","134","438771","0.0-7.0","233","1","2022-10-11 03:39:56","ebf9627b049f568eb4bf28942cb89901","153.119.59.201","Mozilla/5.0 (Linux; Android 12; LE2110 Build/RKQ1.211119.001;) AppleWebKit/537.36 (KHTML, like Gecko) Version/4.0 Chrome/97.0.4692.98 Mobile Safari/537.36","WebKit","Chrome","97.0.4692.98","AndroidOS","12","35743","","{""Age"":""20"",""Nation"":""中国"",""Born"":""河南"",""Live"":""山东"",""Ethnic"":""汉族"",""Alipay"":""17746854104""}",""
"","","","","","survey-multi-choice","135","468095","0.0-8.0","233","1","2022-10-11 03:39:56","ebf9627b049f568eb4bf28942cb89901","153.119.59.201","Mozilla/5.0 (Linux; Android 12; LE2110 Build/RKQ1.211119.001;) AppleWebKit/537.36 (KHTML, like Gecko) Version/4.0 Chrome/97.0.4692.98 Mobile Safari/537.36","WebKit","Chrome","97.0.4692.98","AndroidOS","12","29309","","{""Gender"":""男"",""Education"":""本科毕业"",""Income"":""￥35,000-￥69,999"",""Children"":""2"",""Race"":""亚洲人""}","[0,1,2,3,4]"
"","","","","","survey-multi-select","136","475500","0.0-9.0","233","1","2022-10-11 03:39:56","ebf9627b049f568eb4bf28942cb89901","153.119.59.201","Mozilla/5.0 (Linux; Android 12; LE2110 Build/RKQ1.211119.001;) AppleWebKit/537.36 (KHTML, like Gecko) Version/4.0 Chrome/97.0.4692.98 Mobile Safari/537.36","WebKit","Chrome","97.0.4692.98","AndroidOS","12","7353","","{""Marriage"":[""未婚""],""Religion"":[""无宗教信仰""]}","[0,1]"
"","","","","","survey-multi-choice","137","508767","0.0-10.0","233","1","2022-10-11 03:39:56","ebf9627b049f568eb4bf28942cb89901","153.119.59.201","Mozilla/5.0 (Linux; Android 12; LE2110 Build/RKQ1.211119.001;) AppleWebKit/537.36 (KHTML, like Gecko) Version/4.0 Chrome/97.0.4692.98 Mobile Safari/537.36","WebKit","Chrome","97.0.4692.98","AndroidOS","12","33237","","{""SES"":""4""}","[0]"
"","","","","","html-button-response","138","516034","0.0-11.0","233","1","2022-10-11 03:39:56","ebf9627b049f568eb4bf28942cb89901","153.119.59.201","Mozilla/5.0 (Linux; Android 12; LE2110 Build/RKQ1.211119.001;) AppleWebKit/537.36 (KHTML, like Gecko) Version/4.0 Chrome/97.0.4692.98 Mobile Safari/537.36","WebKit","Chrome","97.0.4692.98","AndroidOS","12","7250","<p><strong>请判断下列陈述在多大程度上可以形容你？</p><p> (1 = ""和我一点都不像"" to 5 = ""非常像我"".)</strong></p>","0",""
"","","","","","survey-likert","139","552175","0.0-12.0","233","1","2022-10-11 03:39:56","ebf9627b049f568eb4bf28942cb89901","153.119.59.201","Mozilla/5.0 (Linux; Android 12; LE2110 Build/RKQ1.211119.001;) AppleWebKit/537.36 (KHTML, like Gecko) Version/4.0 Chrome/97.0.4692.98 Mobile Safari/537.36","WebKit","Chrome","97.0.4692.98","AndroidOS","12","36111","","{""Aggression1"":1,""Aggression2"":2,""Aggression3"":3,""Aggression4"":0,""Aggression5"":3,""Aggression6"":2,""Aggression7"":1,""Aggression8"":0,""Aggression9"":0}","[0,1,2,3,4,5,6,7,8]"
"","","","","","html-button-response","140","556489","0.0-13.0","233","1","2022-10-11 03:39:56","ebf9627b049f568eb4bf28942cb89901","153.119.59.201","Mozilla/5.0 (Linux; Android 12; LE2110 Build/RKQ1.211119.001;) AppleWebKit/537.36 (KHTML, like Gecko) Version/4.0 Chrome/97.0.4692.98 Mobile Safari/537.36","WebKit","Chrome","97.0.4692.98","AndroidOS","12","4291","<p><strong>请判断你在多大程度上同意下列陈述。</strong></p>","0",""
"","","","","","survey-likert","141","698067","0.0-14.0","233","1","2022-10-11 03:39:56","ebf9627b049f568eb4bf28942cb89901","153.119.59.201","Mozilla/5.0 (Linux; Android 12; LE2110 Build/RKQ1.211119.001;) AppleWebKit/537.36 (KHTML, like Gecko) Version/4.0 Chrome/97.0.4692.98 Mobile Safari/537.36","WebKit","Chrome","97.0.4692.98","AndroidOS","12","141538","","{""scale23"":2,""scale24"":1,""scale12"":1,""scale2"":4,""scale18"":0,""scale8"":2,""scale3"":2,""scale20"":1,""scale15"":1,""scale13"":2,""scale11"":2,""scale6"":3,""scale9"":4,""scale4"":1,""scale16"":1,""scale17"":1,""scale27"":1,""scale10"":3,""scale28"":2,""scale7"":2,""scale25"":3,""scale1"":1,""scale19"":2,""scale26"":3,""scale14"":2,""scale22"":1,""scale5"":2,""scale21"":2}","[22,23,11,1,17,7,2,19,14,12,10,5,8,3,15,16,26,9,27,6,24,0,18,25,13,21,4,20]"
"","","","","","html-button-response","142","701323","0.0-15.0","233","1","2022-10-11 03:39:56","ebf9627b049f568eb4bf28942cb89901","153.119.59.201","Mozilla/5.0 (Linux; Android 12; LE2110 Build/RKQ1.211119.001;) AppleWebKit/537.36 (KHTML, like Gecko) Version/4.0 Chrome/97.0.4692.98 Mobile Safari/537.36","WebKit","Chrome","97.0.4692.98","AndroidOS","12","3241","<p><strong>请判断你在多大程度上同意下列陈述。</strong></p>","0",""
"","","","","","survey-likert","143","811989","0.0-16.0","233","1","2022-10-11 03:39:56","ebf9627b049f568eb4bf28942cb89901","153.119.59.201","Mozilla/5.0 (Linux; Android 12; LE2110 Build/RKQ1.211119.001;) AppleWebKit/537.36 (KHTML, like Gecko) Version/4.0 Chrome/97.0.4692.98 Mobile Safari/537.36","WebKit","Chrome","97.0.4692.98","AndroidOS","12","110633","","{""sdo4"":3,""sdo7"":1,""sdo10"":4,""sdo13"":4,""sdo6"":5,""sdo15"":3,""sdo2"":0,""sdo16"":6,""sdo1"":2,""sdo9"":3,""sdo11"":3,""sdo14"":2,""sdo5"":3,""sdo3"":4,""sdo8"":0,""sdo12"":5}","[3,6,9,12,5,14,1,15,0,8,10,13,4,2,7,11]"
"","","","","","html-button-response","144","813838","0.0-17.0","233","1","2022-10-11 03:39:56","ebf9627b049f568eb4bf28942cb89901","153.119.59.201","Mozilla/5.0 (Linux; Android 12; LE2110 Build/RKQ1.211119.001;) AppleWebKit/537.36 (KHTML, like Gecko) Version/4.0 Chrome/97.0.4692.98 Mobile Safari/537.36","WebKit","Chrome","97.0.4692.98","AndroidOS","12","1834","<p><strong>请判断你在多大程度上同意下列陈述。</strong></p>","0",""
"","","","","","survey-likert","145","881494","0.0-18.0","233","1","2022-10-11 03:39:56","ebf9627b049f568eb4bf28942cb89901","153.119.59.201","Mozilla/5.0 (Linux; Android 12; LE2110 Build/RKQ1.211119.001;) AppleWebKit/537.36 (KHTML, like Gecko) Version/4.0 Chrome/97.0.4692.98 Mobile Safari/537.36","WebKit","Chrome","97.0.4692.98","AndroidOS","12","67627","","{""caring1"":3,""liking1"":2,""caring2"":3,""protection1"":4,""liking2"":1,""caring3"":2,""protection2"":1,""liking3"":2,""protection3"":3,""caring4"":4,""liking4"":2,""protection4"":1,""caring5"":2,""liking5"":1,""protection5"":0}","[0,1,2,3,4,5,6,7,8,9,10,11,12,13,14]"
"","","","","","html-button-response","146","883927","0.0-19.0","233","1","2022-10-11 03:39:56","ebf9627b049f568eb4bf28942cb89901","153.119.59.201","Mozilla/5.0 (Linux; Android 12; LE2110 Build/RKQ1.211119.001;) AppleWebKit/537.36 (KHTML, like Gecko) Version/4.0 Chrome/97.0.4692.98 Mobile Safari/537.36","WebKit","Chrome","97.0.4692.98","AndroidOS","12","2416","<p><strong>请判断下列场景中你的内心感受有多柔软。</strong></p>","0",""
"","","","","","survey-likert","147","929335","0.0-20.0","233","1","2022-10-11 03:39:56","ebf9627b049f568eb4bf28942cb89901","153.119.59.201","Mozilla/5.0 (Linux; Android 12; LE2110 Build/RKQ1.211119.001;) AppleWebKit/537.36 (KHTML, like Gecko) Version/4.0 Chrome/97.0.4692.98 Mobile Safari/537.36","WebKit","Chrome","97.0.4692.98","AndroidOS","12","45387","","{""tenderness-positive1"":3,""tenderness-negative1"":2,""tenderness-negative2"":1,""tenderness-positive2"":3,""tenderness-positive3"":2,""tenderness-negative3"":1,""tenderness-positive4"":4,""tendereness-negative4"":2,""tendernness-negative5"":2,""tenderness-positive5"":1}","[0,1,2,3,4,5,6,7,8,9]"
"","","","","","survey-multi-choice","148","944443","0.0-21.0","233","1","2022-10-11 03:39:56","ebf9627b049f568eb4bf28942cb89901","153.119.59.201","Mozilla/5.0 (Linux; Android 12; LE2110 Build/RKQ1.211119.001;) AppleWebKit/537.36 (KHTML, like Gecko) Version/4.0 Chrome/97.0.4692.98 Mobile Safari/537.36","WebKit","Chrome","97.0.4692.98","AndroidOS","12","15091","","{""Attention2"":""其他""}","[0]"
"","","","","","html-button-response","149","945804","0.0-22.0","233","1","2022-10-11 03:39:56","ebf9627b049f568eb4bf28942cb89901","153.119.59.201","Mozilla/5.0 (Linux; Android 12; LE2110 Build/RKQ1.211119.001;) AppleWebKit/537.36 (KHTML, like Gecko) Version/4.0 Chrome/97.0.4692.98 Mobile Safari/537.36","WebKit","Chrome","97.0.4692.98","AndroidOS","12","1332","<p><strong>请判断你在多大程度上同意下列陈述。</strong></p>","0",""
"","","","","","survey-likert","150","1062161","0.0-23.0","233","1","2022-10-11 03:39:56","ebf9627b049f568eb4bf28942cb89901","153.119.59.201","Mozilla/5.0 (Linux; Android 12; LE2110 Build/RKQ1.211119.001;) AppleWebKit/537.36 (KHTML, like Gecko) Version/4.0 Chrome/97.0.4692.98 Mobile Safari/537.36","WebKit","Chrome","97.0.4692.98","AndroidOS","12","116319","","{""Nation1"":2,""Patri8"":4,""Patri12"":2,""Patri6"":1,""Nation4"":2,""Nation8"":1,""Patri10"":0,""Patri2"":4,""Patri3"":2,""Patri5"":4,""Patri7"":4,""Nation7"":3,""Nation6"":2,""Patri4"":4,""Patri9"":2,""Nation2"":3,""Nation5"":1,""Nation3"":1,""Patri11"":0,""Patri1"":4}","[12,7,11,5,15,19,9,1,2,4,6,18,17,3,8,13,16,14,10,0]"
"","","","","","html-button-response","151","1063839","0.0-24.0","233","1","2022-10-11 03:39:56","ebf9627b049f568eb4bf28942cb89901","153.119.59.201","Mozilla/5.0 (Linux; Android 12; LE2110 Build/RKQ1.211119.001;) AppleWebKit/537.36 (KHTML, like Gecko) Version/4.0 Chrome/97.0.4692.98 Mobile Safari/537.36","WebKit","Chrome","97.0.4692.98","AndroidOS","12","1664","<p><strong>请判断你在多大程度上同意下列陈述。</strong></p>","0",""
"","","","","","survey-likert","152","1142314","0.0-25.0","233","1","2022-10-11 03:39:56","ebf9627b049f568eb4bf28942cb89901","153.119.59.201","Mozilla/5.0 (Linux; Android 12; LE2110 Build/RKQ1.211119.001;) AppleWebKit/537.36 (KHTML, like Gecko) Version/4.0 Chrome/97.0.4692.98 Mobile Safari/537.36","WebKit","Chrome","97.0.4692.98","AndroidOS","12","78432","","{""vc1"":5,""hc4"":4,""hc3"":3,""Robot"":6,""vi3"":8,""vc2"":5,""vi1"":6,""hi3"":3,""vc3"":4,""hc1"":5,""hi1"":8,""vi4"":5,""hi2"":8,""vc4"":5,""hc2"":6,""vi2"":6,""hi4"":8}","[13,12,11,7,6,14,4,2,15,9,0,8,1,16,10,5,3]"
"","","","","","survey-text","153","1164108","0.0-26.0","233","1","2022-10-11 03:39:56","ebf9627b049f568eb4bf28942cb89901","153.119.59.201","Mozilla/5.0 (Linux; Android 12; LE2110 Build/RKQ1.211119.001;) AppleWebKit/537.36 (KHTML, like Gecko) Version/4.0 Chrome/97.0.4692.98 Mobile Safari/537.36","WebKit","Chrome","97.0.4692.98","AndroidOS","12","21770","","{""Comments"":""增加更多的选项""}",""
"","","","","","html-button-response","154","1165280","0.0-27.0","233","1","2022-10-11 03:39:56","ebf9627b049f568eb4bf28942cb89901","153.119.59.201","Mozilla/5.0 (Linux; Android 12; LE2110 Build/RKQ1.211119.001;) AppleWebKit/537.36 (KHTML, like Gecko) Version/4.0 Chrome/97.0.4692.98 Mobile Safari/537.36","WebKit","Chrome","97.0.4692.98","AndroidOS","12","1150","<strong><p>恭喜你完成了实验！</p><p>感谢您的参与。</p></strong>","0",""
