"success","timeout","failed_images","failed_audio","failed_video","trial_type","trial_index","time_elapsed","internal_node_id","run_id","condition","recorded_at","source_code_version","ip","user_agent","device","browser","browser_version","platform","platform_version","rt","stimulus","response","question_order"
"true","false","[]","[]","[]","preload","0","1762","0.0-0.0","256","1","2022-10-13 06:16:00","ebf9627b049f568eb4bf28942cb89901","219.142.99.8","Mozilla/5.0 (Windows NT 10.0; Win64; x64) AppleWebKit/537.36 (KHTML, like Gecko) Chrome/106.0.0.0 Safari/537.36 Edg/106.0.1370.42","WebKit","Edge","106.0.1370.42","Windows","10.0","","","",""
"true","","","","","fullscreen","1","35048","0.0-1.0","256","1","2022-10-13 06:16:00","ebf9627b049f568eb4bf28942cb89901","219.142.99.8","Mozilla/5.0 (Windows NT 10.0; Win64; x64) AppleWebKit/537.36 (KHTML, like Gecko) Chrome/106.0.0.0 Safari/537.36 Edg/106.0.1370.42","WebKit","Edge","106.0.1370.42","Windows","10.0","","","",""
"","","","","","html-button-response","2","62423","0.0-2.0","256","1","2022-10-13 06:16:00","ebf9627b049f568eb4bf28942cb89901","219.142.99.8","Mozilla/5.0 (Windows NT 10.0; Win64; x64) AppleWebKit/537.36 (KHTML, like Gecko) Chrome/106.0.0.0 Safari/537.36 Edg/106.0.1370.42","WebKit","Edge","106.0.1370.42","Windows","10.0","27368","<p style=""font-size:20px;font-weight:bold;"">实验知情同意书</p><p style=""text-align:left;""><strong>实验名称：</strong>社会冲突研究</p><p style=""text-align:left;""><strong>主要研究者：</strong>韩晓春副教授（北京师范大学心理学部）</p><p style=""text-align:left;""><strong>联系方式：</strong>发送邮件至xiaochun.han@bnu.edu.cn</p><p style=""text-align:left;""><strong>研究目的：</strong>研究旨在了解人类面对群体冲突时的决策方式，以及相关的心理学特质。实验调查大约需要20分钟。</p><p style=""text-align:left;""><strong>实验流程：</strong>实验包含两部分。第一部分呈现一系列群体冲突场景，请你决定如何对这些冲突进行反应，大约需要10分钟完成。第二部分包含一系列人口统计学信息收集和心理学问卷，大约需要10分钟完成。</p><p style=""text-align:left;""><strong>参加及退出规则：</strong>参加本实验完全取决于您的个人意愿。在参与过程中，您可以随时退出，并且不用承担任何后果。</p><p style=""text-align:left;""><strong>隐私：</strong>本实验完全匿名进行，不会收集您的姓名或其他能够识别您身份的信息。实验中收集的作答仅用作科学研究使用，可能会在学术期刊/书籍上发表，或者用于教学，您的数据未来可能会和其他研究者或实验室分享，但您的个人身份不会被识别。</p><p style=""text-align:left;""><strong>实验报酬：</strong>实验完成后，您将获得15元人民币报酬，以感谢您的时间和努力。调查问卷中包含几道题目用以测验您作答时的认真度。只有完成全部实验，并且正确回答认真度测验的被试才能获得实验报酬。实验报酬将通过支付宝转账发放。</p><p style=""text-align:left;font-size:20px;""><strong>如果您同意以上实验知情同意书的内容，请点击'同意并且开始实验'按钮；否则请关闭浏览器界面，退出实验。</strong></p>","0",""
"","","","","","html-button-response","3","71604","0.0-3.0","256","1","2022-10-13 06:16:00","ebf9627b049f568eb4bf28942cb89901","219.142.99.8","Mozilla/5.0 (Windows NT 10.0; Win64; x64) AppleWebKit/537.36 (KHTML, like Gecko) Chrome/106.0.0.0 Safari/537.36 Edg/106.0.1370.42","WebKit","Edge","106.0.1370.42","Windows","10.0","9179","<p ><strong>实验任务一：</strong></p><p>请想象你的国家与另一个国家发生了军事冲突。</p><p>你是国家军队的指挥官，你将如何在冲突中进行决策。</p><p>具体来说，作为军队指挥官，请你决定是否发射导弹进行打击。</p><p>接下来，你会面对一系列场景，请仔细阅读每个场景，然后进行决策。</p><p>这部分实验任务大约需要10分钟。</p><p><strong>实验过程中，请集中注意力。</strong></p>","0",""
"","","","","","html-keyboard-response","4","72614","0.0-4.0-0.0","256","1","2022-10-13 06:16:00","ebf9627b049f568eb4bf28942cb89901","219.142.99.8","Mozilla/5.0 (Windows NT 10.0; Win64; x64) AppleWebKit/537.36 (KHTML, like Gecko) Chrome/106.0.0.0 Safari/537.36 Edg/106.0.1370.42","WebKit","Edge","106.0.1370.42","Windows","10.0","null","<div style=""font-size:60px;"">+</div>","null",""
"","","","","","html-button-response","5","83764","0.0-4.0-1.0","256","1","2022-10-13 06:16:00","ebf9627b049f568eb4bf28942cb89901","219.142.99.8","Mozilla/5.0 (Windows NT 10.0; Win64; x64) AppleWebKit/537.36 (KHTML, like Gecko) Chrome/106.0.0.0 Safari/537.36 Edg/106.0.1370.42","WebKit","Edge","106.0.1370.42","Windows","10.0","11140","<p>作为军队的指挥官，你可以选择发射导弹杀死 <strong>4名</strong> 敌国士兵，但会误杀附近的 <strong>1名</strong> 敌国平民。</p> <p>平民照片如下图所示。</p> <p></p> <img src='stimuli/faces/NFF8.jpg', style='max-width: 30%;'> </img> <p><strong>你是否选择发射武器？</strong></p>","1",""
"","","","","","html-keyboard-response","6","84779","0.0-4.0-0.1","256","1","2022-10-13 06:16:00","ebf9627b049f568eb4bf28942cb89901","219.142.99.8","Mozilla/5.0 (Windows NT 10.0; Win64; x64) AppleWebKit/537.36 (KHTML, like Gecko) Chrome/106.0.0.0 Safari/537.36 Edg/106.0.1370.42","WebKit","Edge","106.0.1370.42","Windows","10.0","null","<div style=""font-size:60px;"">+</div>","null",""
"","","","","","html-button-response","7","88527","0.0-4.0-1.1","256","1","2022-10-13 06:16:00","ebf9627b049f568eb4bf28942cb89901","219.142.99.8","Mozilla/5.0 (Windows NT 10.0; Win64; x64) AppleWebKit/537.36 (KHTML, like Gecko) Chrome/106.0.0.0 Safari/537.36 Edg/106.0.1370.42","WebKit","Edge","106.0.1370.42","Windows","10.0","3742","<p>作为军队的指挥官，你可以选择发射导弹杀死 <strong>4名</strong> 敌国士兵，但会炸毁附近的 <strong>1棵</strong> 敌国树木。</p> <p>树木的照片如下图所示。</p> <p></p> <img src='stimuli/trees/12.png', style='max-width: 30%;'> </img> <p><strong>你是否选择发射武器？</strong></p>","0",""
"","","","","","html-keyboard-response","8","89532","0.0-4.0-0.2","256","1","2022-10-13 06:16:00","ebf9627b049f568eb4bf28942cb89901","219.142.99.8","Mozilla/5.0 (Windows NT 10.0; Win64; x64) AppleWebKit/537.36 (KHTML, like Gecko) Chrome/106.0.0.0 Safari/537.36 Edg/106.0.1370.42","WebKit","Edge","106.0.1370.42","Windows","10.0","null","<div style=""font-size:60px;"">+</div>","null",""
"","","","","","html-button-response","9","94356","0.0-4.0-1.2","256","1","2022-10-13 06:16:00","ebf9627b049f568eb4bf28942cb89901","219.142.99.8","Mozilla/5.0 (Windows NT 10.0; Win64; x64) AppleWebKit/537.36 (KHTML, like Gecko) Chrome/106.0.0.0 Safari/537.36 Edg/106.0.1370.42","WebKit","Edge","106.0.1370.42","Windows","10.0","4819","<p>作为军队的指挥官，你可以选择发射导弹杀死 <strong>2名</strong> 敌国士兵，但会误杀附近的 <strong>1名</strong> 敌国平民。</p> <p>平民照片如下图所示。</p> <p></p> <img src='stimuli/faces/NFM3.jpg', style='max-width: 30%;'> </img> <p><strong>你是否选择发射武器？</strong></p>","1",""
"","","","","","html-keyboard-response","10","95370","0.0-4.0-0.3","256","1","2022-10-13 06:16:00","ebf9627b049f568eb4bf28942cb89901","219.142.99.8","Mozilla/5.0 (Windows NT 10.0; Win64; x64) AppleWebKit/537.36 (KHTML, like Gecko) Chrome/106.0.0.0 Safari/537.36 Edg/106.0.1370.42","WebKit","Edge","106.0.1370.42","Windows","10.0","null","<div style=""font-size:60px;"">+</div>","null",""
"","","","","","html-button-response","11","100798","0.0-4.0-1.3","256","1","2022-10-13 06:16:00","ebf9627b049f568eb4bf28942cb89901","219.142.99.8","Mozilla/5.0 (Windows NT 10.0; Win64; x64) AppleWebKit/537.36 (KHTML, like Gecko) Chrome/106.0.0.0 Safari/537.36 Edg/106.0.1370.42","WebKit","Edge","106.0.1370.42","Windows","10.0","5420","<p>作为军队的指挥官，你可以选择发射导弹杀死 <strong>3名</strong> 敌国士兵，但会误杀附近的 <strong>1名</strong> 敌国平民。</p> <p>平民照片如下图所示。</p> <p></p> <img src='stimuli/faces/NFF7.jpg', style='max-width: 30%;'> </img> <p><strong>你是否选择发射武器？</strong></p>","1",""
"","","","","","html-keyboard-response","12","101809","0.0-4.0-0.4","256","1","2022-10-13 06:16:00","ebf9627b049f568eb4bf28942cb89901","219.142.99.8","Mozilla/5.0 (Windows NT 10.0; Win64; x64) AppleWebKit/537.36 (KHTML, like Gecko) Chrome/106.0.0.0 Safari/537.36 Edg/106.0.1370.42","WebKit","Edge","106.0.1370.42","Windows","10.0","null","<div style=""font-size:60px;"">+</div>","null",""
"","","","","","html-button-response","13","105204","0.0-4.0-1.4","256","1","2022-10-13 06:16:00","ebf9627b049f568eb4bf28942cb89901","219.142.99.8","Mozilla/5.0 (Windows NT 10.0; Win64; x64) AppleWebKit/537.36 (KHTML, like Gecko) Chrome/106.0.0.0 Safari/537.36 Edg/106.0.1370.42","WebKit","Edge","106.0.1370.42","Windows","10.0","3392","<p>作为军队的指挥官，你可以选择发射导弹杀死 <strong>10名</strong> 敌国士兵，但会炸毁附近的 <strong>1棵</strong> 敌国树木。</p> <p>树木的照片如下图所示。</p> <p></p> <img src='stimuli/trees/16.png', style='max-width: 30%;'> </img> <p><strong>你是否选择发射武器？</strong></p>","0",""
"","","","","","html-keyboard-response","14","106215","0.0-4.0-0.5","256","1","2022-10-13 06:16:00","ebf9627b049f568eb4bf28942cb89901","219.142.99.8","Mozilla/5.0 (Windows NT 10.0; Win64; x64) AppleWebKit/537.36 (KHTML, like Gecko) Chrome/106.0.0.0 Safari/537.36 Edg/106.0.1370.42","WebKit","Edge","106.0.1370.42","Windows","10.0","null","<div style=""font-size:60px;"">+</div>","null",""
"","","","","","html-button-response","15","110182","0.0-4.0-1.5","256","1","2022-10-13 06:16:00","ebf9627b049f568eb4bf28942cb89901","219.142.99.8","Mozilla/5.0 (Windows NT 10.0; Win64; x64) AppleWebKit/537.36 (KHTML, like Gecko) Chrome/106.0.0.0 Safari/537.36 Edg/106.0.1370.42","WebKit","Edge","106.0.1370.42","Windows","10.0","3965","<p>作为军队的指挥官，你可以选择发射导弹杀死 <strong>3名</strong> 敌国士兵，但会炸毁附近的 <strong>1棵</strong> 敌国树木。</p> <p>树木的照片如下图所示。</p> <p></p> <img src='stimuli/trees/14.png', style='max-width: 30%;'> </img> <p><strong>你是否选择发射武器？</strong></p>","0",""
"","","","","","html-keyboard-response","16","111189","0.0-4.0-0.6","256","1","2022-10-13 06:16:00","ebf9627b049f568eb4bf28942cb89901","219.142.99.8","Mozilla/5.0 (Windows NT 10.0; Win64; x64) AppleWebKit/537.36 (KHTML, like Gecko) Chrome/106.0.0.0 Safari/537.36 Edg/106.0.1370.42","WebKit","Edge","106.0.1370.42","Windows","10.0","null","<div style=""font-size:60px;"">+</div>","null",""
"","","","","","html-button-response","17","116360","0.0-4.0-1.6","256","1","2022-10-13 06:16:00","ebf9627b049f568eb4bf28942cb89901","219.142.99.8","Mozilla/5.0 (Windows NT 10.0; Win64; x64) AppleWebKit/537.36 (KHTML, like Gecko) Chrome/106.0.0.0 Safari/537.36 Edg/106.0.1370.42","WebKit","Edge","106.0.1370.42","Windows","10.0","5165","<p>作为军队的指挥官，你可以选择发射导弹杀死 <strong>10名</strong> 敌国士兵，但会误杀附近的 <strong>1名</strong> 敌国平民。</p> <p>平民照片如下图所示。</p> <p></p> <img src='stimuli/faces/NFF6.jpg', style='max-width: 30%;'> </img> <p><strong>你是否选择发射武器？</strong></p>","1",""
"","","","","","html-keyboard-response","18","117368","0.0-4.0-0.7","256","1","2022-10-13 06:16:00","ebf9627b049f568eb4bf28942cb89901","219.142.99.8","Mozilla/5.0 (Windows NT 10.0; Win64; x64) AppleWebKit/537.36 (KHTML, like Gecko) Chrome/106.0.0.0 Safari/537.36 Edg/106.0.1370.42","WebKit","Edge","106.0.1370.42","Windows","10.0","null","<div style=""font-size:60px;"">+</div>","null",""
"","","","","","html-button-response","19","124648","0.0-4.0-1.7","256","1","2022-10-13 06:16:00","ebf9627b049f568eb4bf28942cb89901","219.142.99.8","Mozilla/5.0 (Windows NT 10.0; Win64; x64) AppleWebKit/537.36 (KHTML, like Gecko) Chrome/106.0.0.0 Safari/537.36 Edg/106.0.1370.42","WebKit","Edge","106.0.1370.42","Windows","10.0","7274","<p>作为军队的指挥官，你可以选择发射导弹杀死 <strong>9名</strong> 敌国士兵，但会误杀附近的 <strong>1名</strong> 敌国平民。</p> <p>平民照片如下图所示。</p> <p></p> <img src='stimuli/faces/NFF3.jpg', style='max-width: 30%;'> </img> <p><strong>你是否选择发射武器？</strong></p>","1",""
"","","","","","html-keyboard-response","20","125662","0.0-4.0-0.8","256","1","2022-10-13 06:16:00","ebf9627b049f568eb4bf28942cb89901","219.142.99.8","Mozilla/5.0 (Windows NT 10.0; Win64; x64) AppleWebKit/537.36 (KHTML, like Gecko) Chrome/106.0.0.0 Safari/537.36 Edg/106.0.1370.42","WebKit","Edge","106.0.1370.42","Windows","10.0","null","<div style=""font-size:60px;"">+</div>","null",""
"","","","","","html-button-response","21","129436","0.0-4.0-1.8","256","1","2022-10-13 06:16:00","ebf9627b049f568eb4bf28942cb89901","219.142.99.8","Mozilla/5.0 (Windows NT 10.0; Win64; x64) AppleWebKit/537.36 (KHTML, like Gecko) Chrome/106.0.0.0 Safari/537.36 Edg/106.0.1370.42","WebKit","Edge","106.0.1370.42","Windows","10.0","3767","<p>作为军队的指挥官，你可以选择发射导弹杀死 <strong>1名</strong> 敌国士兵，但会误杀附近的 <strong>1名</strong> 敌国平民。</p> <p>平民照片如下图所示。</p> <p></p> <img src='stimuli/faces/NFF6.jpg', style='max-width: 30%;'> </img> <p><strong>你是否选择发射武器？</strong></p>","1",""
"","","","","","html-keyboard-response","22","130441","0.0-4.0-0.9","256","1","2022-10-13 06:16:00","ebf9627b049f568eb4bf28942cb89901","219.142.99.8","Mozilla/5.0 (Windows NT 10.0; Win64; x64) AppleWebKit/537.36 (KHTML, like Gecko) Chrome/106.0.0.0 Safari/537.36 Edg/106.0.1370.42","WebKit","Edge","106.0.1370.42","Windows","10.0","null","<div style=""font-size:60px;"">+</div>","null",""
"","","","","","html-button-response","23","133516","0.0-4.0-1.9","256","1","2022-10-13 06:16:00","ebf9627b049f568eb4bf28942cb89901","219.142.99.8","Mozilla/5.0 (Windows NT 10.0; Win64; x64) AppleWebKit/537.36 (KHTML, like Gecko) Chrome/106.0.0.0 Safari/537.36 Edg/106.0.1370.42","WebKit","Edge","106.0.1370.42","Windows","10.0","3068","<p>作为军队的指挥官，你可以选择发射导弹杀死 <strong>8名</strong> 敌国士兵，但会炸毁附近的 <strong>1棵</strong> 敌国树木。</p> <p>树木的照片如下图所示。</p> <p></p> <img src='stimuli/trees/14.png', style='max-width: 30%;'> </img> <p><strong>你是否选择发射武器？</strong></p>","0",""
"","","","","","html-keyboard-response","24","134529","0.0-4.0-0.10","256","1","2022-10-13 06:16:00","ebf9627b049f568eb4bf28942cb89901","219.142.99.8","Mozilla/5.0 (Windows NT 10.0; Win64; x64) AppleWebKit/537.36 (KHTML, like Gecko) Chrome/106.0.0.0 Safari/537.36 Edg/106.0.1370.42","WebKit","Edge","106.0.1370.42","Windows","10.0","null","<div style=""font-size:60px;"">+</div>","null",""
"","","","","","html-button-response","25","137592","0.0-4.0-1.10","256","1","2022-10-13 06:16:00","ebf9627b049f568eb4bf28942cb89901","219.142.99.8","Mozilla/5.0 (Windows NT 10.0; Win64; x64) AppleWebKit/537.36 (KHTML, like Gecko) Chrome/106.0.0.0 Safari/537.36 Edg/106.0.1370.42","WebKit","Edge","106.0.1370.42","Windows","10.0","3054","<p>作为军队的指挥官，你可以选择发射导弹杀死 <strong>9名</strong> 敌国士兵，但会炸毁附近的 <strong>1棵</strong> 敌国树木。</p> <p>树木的照片如下图所示。</p> <p></p> <img src='stimuli/trees/3.png', style='max-width: 30%;'> </img> <p><strong>你是否选择发射武器？</strong></p>","0",""
"","","","","","html-keyboard-response","26","138598","0.0-4.0-0.11","256","1","2022-10-13 06:16:00","ebf9627b049f568eb4bf28942cb89901","219.142.99.8","Mozilla/5.0 (Windows NT 10.0; Win64; x64) AppleWebKit/537.36 (KHTML, like Gecko) Chrome/106.0.0.0 Safari/537.36 Edg/106.0.1370.42","WebKit","Edge","106.0.1370.42","Windows","10.0","null","<div style=""font-size:60px;"">+</div>","null",""
"","","","","","html-button-response","27","141320","0.0-4.0-1.11","256","1","2022-10-13 06:16:00","ebf9627b049f568eb4bf28942cb89901","219.142.99.8","Mozilla/5.0 (Windows NT 10.0; Win64; x64) AppleWebKit/537.36 (KHTML, like Gecko) Chrome/106.0.0.0 Safari/537.36 Edg/106.0.1370.42","WebKit","Edge","106.0.1370.42","Windows","10.0","2716","<p>作为军队的指挥官，你可以选择发射导弹杀死 <strong>3名</strong> 敌国士兵，但会误杀附近的 <strong>1名</strong> 敌国平民。</p> <p>平民照片如下图所示。</p> <p></p> <img src='stimuli/faces/NFF3.jpg', style='max-width: 30%;'> </img> <p><strong>你是否选择发射武器？</strong></p>","1",""
"","","","","","html-keyboard-response","28","142337","0.0-4.0-0.12","256","1","2022-10-13 06:16:00","ebf9627b049f568eb4bf28942cb89901","219.142.99.8","Mozilla/5.0 (Windows NT 10.0; Win64; x64) AppleWebKit/537.36 (KHTML, like Gecko) Chrome/106.0.0.0 Safari/537.36 Edg/106.0.1370.42","WebKit","Edge","106.0.1370.42","Windows","10.0","null","<div style=""font-size:60px;"">+</div>","null",""
"","","","","","html-button-response","29","146992","0.0-4.0-1.12","256","1","2022-10-13 06:16:00","ebf9627b049f568eb4bf28942cb89901","219.142.99.8","Mozilla/5.0 (Windows NT 10.0; Win64; x64) AppleWebKit/537.36 (KHTML, like Gecko) Chrome/106.0.0.0 Safari/537.36 Edg/106.0.1370.42","WebKit","Edge","106.0.1370.42","Windows","10.0","4648","<p>作为军队的指挥官，你可以选择发射导弹杀死 <strong>4名</strong> 敌国士兵，但会炸毁附近的 <strong>1棵</strong> 敌国树木。</p> <p>树木的照片如下图所示。</p> <p></p> <img src='stimuli/trees/8.png', style='max-width: 30%;'> </img> <p><strong>你是否选择发射武器？</strong></p>","0",""
"","","","","","html-keyboard-response","30","148008","0.0-4.0-0.13","256","1","2022-10-13 06:16:00","ebf9627b049f568eb4bf28942cb89901","219.142.99.8","Mozilla/5.0 (Windows NT 10.0; Win64; x64) AppleWebKit/537.36 (KHTML, like Gecko) Chrome/106.0.0.0 Safari/537.36 Edg/106.0.1370.42","WebKit","Edge","106.0.1370.42","Windows","10.0","null","<div style=""font-size:60px;"">+</div>","null",""
"","","","","","html-button-response","31","151992","0.0-4.0-1.13","256","1","2022-10-13 06:16:00","ebf9627b049f568eb4bf28942cb89901","219.142.99.8","Mozilla/5.0 (Windows NT 10.0; Win64; x64) AppleWebKit/537.36 (KHTML, like Gecko) Chrome/106.0.0.0 Safari/537.36 Edg/106.0.1370.42","WebKit","Edge","106.0.1370.42","Windows","10.0","3977","<p>作为军队的指挥官，你可以选择发射导弹杀死 <strong>10名</strong> 敌国士兵，但会误杀附近的 <strong>1名</strong> 敌国平民。</p> <p>平民照片如下图所示。</p> <p></p> <img src='stimuli/faces/NFF8.jpg', style='max-width: 30%;'> </img> <p><strong>你是否选择发射武器？</strong></p>","1",""
"","","","","","html-keyboard-response","32","153007","0.0-4.0-0.14","256","1","2022-10-13 06:16:00","ebf9627b049f568eb4bf28942cb89901","219.142.99.8","Mozilla/5.0 (Windows NT 10.0; Win64; x64) AppleWebKit/537.36 (KHTML, like Gecko) Chrome/106.0.0.0 Safari/537.36 Edg/106.0.1370.42","WebKit","Edge","106.0.1370.42","Windows","10.0","null","<div style=""font-size:60px;"">+</div>","null",""
"","","","","","html-button-response","33","170454","0.0-4.0-1.14","256","1","2022-10-13 06:16:00","ebf9627b049f568eb4bf28942cb89901","219.142.99.8","Mozilla/5.0 (Windows NT 10.0; Win64; x64) AppleWebKit/537.36 (KHTML, like Gecko) Chrome/106.0.0.0 Safari/537.36 Edg/106.0.1370.42","WebKit","Edge","106.0.1370.42","Windows","10.0","17436","<p>作为军队的指挥官，你可以选择发射导弹杀死 <strong>10名</strong> 敌国士兵，但会误杀附近的 <strong>1名</strong> 敌国平民。</p> <p>平民照片如下图所示。</p> <p></p> <img src='stimuli/faces/NFM5.jpg', style='max-width: 30%;'> </img> <p><strong>你是否选择发射武器？</strong></p>","1",""
"","","","","","html-keyboard-response","34","171477","0.0-4.0-0.15","256","1","2022-10-13 06:16:00","ebf9627b049f568eb4bf28942cb89901","219.142.99.8","Mozilla/5.0 (Windows NT 10.0; Win64; x64) AppleWebKit/537.36 (KHTML, like Gecko) Chrome/106.0.0.0 Safari/537.36 Edg/106.0.1370.42","WebKit","Edge","106.0.1370.42","Windows","10.0","null","<div style=""font-size:60px;"">+</div>","null",""
"","","","","","html-button-response","35","174483","0.0-4.0-1.15","256","1","2022-10-13 06:16:00","ebf9627b049f568eb4bf28942cb89901","219.142.99.8","Mozilla/5.0 (Windows NT 10.0; Win64; x64) AppleWebKit/537.36 (KHTML, like Gecko) Chrome/106.0.0.0 Safari/537.36 Edg/106.0.1370.42","WebKit","Edge","106.0.1370.42","Windows","10.0","2998","<p>作为军队的指挥官，你可以选择发射导弹杀死 <strong>9名</strong> 敌国士兵，但会误杀附近的 <strong>1名</strong> 敌国平民。</p> <p>平民照片如下图所示。</p> <p></p> <img src='stimuli/faces/NFM7.jpg', style='max-width: 30%;'> </img> <p><strong>你是否选择发射武器？</strong></p>","1",""
"","","","","","html-keyboard-response","36","175500","0.0-4.0-0.16","256","1","2022-10-13 06:16:00","ebf9627b049f568eb4bf28942cb89901","219.142.99.8","Mozilla/5.0 (Windows NT 10.0; Win64; x64) AppleWebKit/537.36 (KHTML, like Gecko) Chrome/106.0.0.0 Safari/537.36 Edg/106.0.1370.42","WebKit","Edge","106.0.1370.42","Windows","10.0","null","<div style=""font-size:60px;"">+</div>","null",""
"","","","","","html-button-response","37","180971","0.0-4.0-1.16","256","1","2022-10-13 06:16:00","ebf9627b049f568eb4bf28942cb89901","219.142.99.8","Mozilla/5.0 (Windows NT 10.0; Win64; x64) AppleWebKit/537.36 (KHTML, like Gecko) Chrome/106.0.0.0 Safari/537.36 Edg/106.0.1370.42","WebKit","Edge","106.0.1370.42","Windows","10.0","5458","<p>作为军队的指挥官，你可以选择发射导弹杀死 <strong>7名</strong> 敌国士兵，但会误杀附近的 <strong>1名</strong> 敌国平民。</p> <p>平民照片如下图所示。</p> <p></p> <img src='stimuli/faces/NFF4.jpg', style='max-width: 30%;'> </img> <p><strong>你是否选择发射武器？</strong></p>","1",""
"","","","","","html-keyboard-response","38","181987","0.0-4.0-0.17","256","1","2022-10-13 06:16:00","ebf9627b049f568eb4bf28942cb89901","219.142.99.8","Mozilla/5.0 (Windows NT 10.0; Win64; x64) AppleWebKit/537.36 (KHTML, like Gecko) Chrome/106.0.0.0 Safari/537.36 Edg/106.0.1370.42","WebKit","Edge","106.0.1370.42","Windows","10.0","null","<div style=""font-size:60px;"">+</div>","null",""
"","","","","","html-button-response","39","184225","0.0-4.0-1.17","256","1","2022-10-13 06:16:00","ebf9627b049f568eb4bf28942cb89901","219.142.99.8","Mozilla/5.0 (Windows NT 10.0; Win64; x64) AppleWebKit/537.36 (KHTML, like Gecko) Chrome/106.0.0.0 Safari/537.36 Edg/106.0.1370.42","WebKit","Edge","106.0.1370.42","Windows","10.0","2229","<p>作为军队的指挥官，你可以选择发射导弹杀死 <strong>6名</strong> 敌国士兵，但会炸毁附近的 <strong>1棵</strong> 敌国树木。</p> <p>树木的照片如下图所示。</p> <p></p> <img src='stimuli/trees/15.png', style='max-width: 30%;'> </img> <p><strong>你是否选择发射武器？</strong></p>","0",""
"","","","","","html-keyboard-response","40","185235","0.0-4.0-0.18","256","1","2022-10-13 06:16:00","ebf9627b049f568eb4bf28942cb89901","219.142.99.8","Mozilla/5.0 (Windows NT 10.0; Win64; x64) AppleWebKit/537.36 (KHTML, like Gecko) Chrome/106.0.0.0 Safari/537.36 Edg/106.0.1370.42","WebKit","Edge","106.0.1370.42","Windows","10.0","null","<div style=""font-size:60px;"">+</div>","null",""
"","","","","","html-button-response","41","188067","0.0-4.0-1.18","256","1","2022-10-13 06:16:00","ebf9627b049f568eb4bf28942cb89901","219.142.99.8","Mozilla/5.0 (Windows NT 10.0; Win64; x64) AppleWebKit/537.36 (KHTML, like Gecko) Chrome/106.0.0.0 Safari/537.36 Edg/106.0.1370.42","WebKit","Edge","106.0.1370.42","Windows","10.0","2826","<p>作为军队的指挥官，你可以选择发射导弹杀死 <strong>7名</strong> 敌国士兵，但会炸毁附近的 <strong>1棵</strong> 敌国树木。</p> <p>树木的照片如下图所示。</p> <p></p> <img src='stimuli/trees/12.png', style='max-width: 30%;'> </img> <p><strong>你是否选择发射武器？</strong></p>","0",""
"","","","","","html-keyboard-response","42","189070","0.0-4.0-0.19","256","1","2022-10-13 06:16:00","ebf9627b049f568eb4bf28942cb89901","219.142.99.8","Mozilla/5.0 (Windows NT 10.0; Win64; x64) AppleWebKit/537.36 (KHTML, like Gecko) Chrome/106.0.0.0 Safari/537.36 Edg/106.0.1370.42","WebKit","Edge","106.0.1370.42","Windows","10.0","null","<div style=""font-size:60px;"">+</div>","null",""
"","","","","","html-button-response","43","191035","0.0-4.0-1.19","256","1","2022-10-13 06:16:00","ebf9627b049f568eb4bf28942cb89901","219.142.99.8","Mozilla/5.0 (Windows NT 10.0; Win64; x64) AppleWebKit/537.36 (KHTML, like Gecko) Chrome/106.0.0.0 Safari/537.36 Edg/106.0.1370.42","WebKit","Edge","106.0.1370.42","Windows","10.0","1958","<p>作为军队的指挥官，你可以选择发射导弹杀死 <strong>10名</strong> 敌国士兵，但会炸毁附近的 <strong>1棵</strong> 敌国树木。</p> <p>树木的照片如下图所示。</p> <p></p> <img src='stimuli/trees/10.png', style='max-width: 30%;'> </img> <p><strong>你是否选择发射武器？</strong></p>","0",""
"","","","","","html-keyboard-response","44","192040","0.0-4.0-0.20","256","1","2022-10-13 06:16:00","ebf9627b049f568eb4bf28942cb89901","219.142.99.8","Mozilla/5.0 (Windows NT 10.0; Win64; x64) AppleWebKit/537.36 (KHTML, like Gecko) Chrome/106.0.0.0 Safari/537.36 Edg/106.0.1370.42","WebKit","Edge","106.0.1370.42","Windows","10.0","null","<div style=""font-size:60px;"">+</div>","null",""
"","","","","","html-button-response","45","197446","0.0-4.0-1.20","256","1","2022-10-13 06:16:00","ebf9627b049f568eb4bf28942cb89901","219.142.99.8","Mozilla/5.0 (Windows NT 10.0; Win64; x64) AppleWebKit/537.36 (KHTML, like Gecko) Chrome/106.0.0.0 Safari/537.36 Edg/106.0.1370.42","WebKit","Edge","106.0.1370.42","Windows","10.0","5397","<p>作为军队的指挥官，你可以选择发射导弹杀死 <strong>9名</strong> 敌国士兵，但会误杀附近的 <strong>1名</strong> 敌国平民。</p> <p>平民照片如下图所示。</p> <p></p> <img src='stimuli/faces/NFF5.jpg', style='max-width: 30%;'> </img> <p><strong>你是否选择发射武器？</strong></p>","1",""
"","","","","","html-keyboard-response","46","198450","0.0-4.0-0.21","256","1","2022-10-13 06:16:00","ebf9627b049f568eb4bf28942cb89901","219.142.99.8","Mozilla/5.0 (Windows NT 10.0; Win64; x64) AppleWebKit/537.36 (KHTML, like Gecko) Chrome/106.0.0.0 Safari/537.36 Edg/106.0.1370.42","WebKit","Edge","106.0.1370.42","Windows","10.0","null","<div style=""font-size:60px;"">+</div>","null",""
"","","","","","html-button-response","47","200688","0.0-4.0-1.21","256","1","2022-10-13 06:16:00","ebf9627b049f568eb4bf28942cb89901","219.142.99.8","Mozilla/5.0 (Windows NT 10.0; Win64; x64) AppleWebKit/537.36 (KHTML, like Gecko) Chrome/106.0.0.0 Safari/537.36 Edg/106.0.1370.42","WebKit","Edge","106.0.1370.42","Windows","10.0","2228","<p>作为军队的指挥官，你可以选择发射导弹杀死 <strong>5名</strong> 敌国士兵，但会炸毁附近的 <strong>1棵</strong> 敌国树木。</p> <p>树木的照片如下图所示。</p> <p></p> <img src='stimuli/trees/13.png', style='max-width: 30%;'> </img> <p><strong>你是否选择发射武器？</strong></p>","0",""
"","","","","","html-keyboard-response","48","201703","0.0-4.0-0.22","256","1","2022-10-13 06:16:00","ebf9627b049f568eb4bf28942cb89901","219.142.99.8","Mozilla/5.0 (Windows NT 10.0; Win64; x64) AppleWebKit/537.36 (KHTML, like Gecko) Chrome/106.0.0.0 Safari/537.36 Edg/106.0.1370.42","WebKit","Edge","106.0.1370.42","Windows","10.0","null","<div style=""font-size:60px;"">+</div>","null",""
"","","","","","html-button-response","49","204418","0.0-4.0-1.22","256","1","2022-10-13 06:16:00","ebf9627b049f568eb4bf28942cb89901","219.142.99.8","Mozilla/5.0 (Windows NT 10.0; Win64; x64) AppleWebKit/537.36 (KHTML, like Gecko) Chrome/106.0.0.0 Safari/537.36 Edg/106.0.1370.42","WebKit","Edge","106.0.1370.42","Windows","10.0","2705","<p>作为军队的指挥官，你可以选择发射导弹杀死 <strong>7名</strong> 敌国士兵，但会误杀附近的 <strong>1名</strong> 敌国平民。</p> <p>平民照片如下图所示。</p> <p></p> <img src='stimuli/faces/NFM4.jpg', style='max-width: 30%;'> </img> <p><strong>你是否选择发射武器？</strong></p>","1",""
"","","","","","html-keyboard-response","50","205430","0.0-4.0-0.23","256","1","2022-10-13 06:16:00","ebf9627b049f568eb4bf28942cb89901","219.142.99.8","Mozilla/5.0 (Windows NT 10.0; Win64; x64) AppleWebKit/537.36 (KHTML, like Gecko) Chrome/106.0.0.0 Safari/537.36 Edg/106.0.1370.42","WebKit","Edge","106.0.1370.42","Windows","10.0","null","<div style=""font-size:60px;"">+</div>","null",""
"","","","","","html-button-response","51","208053","0.0-4.0-1.23","256","1","2022-10-13 06:16:00","ebf9627b049f568eb4bf28942cb89901","219.142.99.8","Mozilla/5.0 (Windows NT 10.0; Win64; x64) AppleWebKit/537.36 (KHTML, like Gecko) Chrome/106.0.0.0 Safari/537.36 Edg/106.0.1370.42","WebKit","Edge","106.0.1370.42","Windows","10.0","2615","<p>作为军队的指挥官，你可以选择发射导弹杀死 <strong>5名</strong> 敌国士兵，但会炸毁附近的 <strong>1棵</strong> 敌国树木。</p> <p>树木的照片如下图所示。</p> <p></p> <img src='stimuli/trees/10.png', style='max-width: 30%;'> </img> <p><strong>你是否选择发射武器？</strong></p>","0",""
"","","","","","html-keyboard-response","52","209064","0.0-4.0-0.24","256","1","2022-10-13 06:16:00","ebf9627b049f568eb4bf28942cb89901","219.142.99.8","Mozilla/5.0 (Windows NT 10.0; Win64; x64) AppleWebKit/537.36 (KHTML, like Gecko) Chrome/106.0.0.0 Safari/537.36 Edg/106.0.1370.42","WebKit","Edge","106.0.1370.42","Windows","10.0","null","<div style=""font-size:60px;"">+</div>","null",""
"","","","","","html-button-response","53","211366","0.0-4.0-1.24","256","1","2022-10-13 06:16:00","ebf9627b049f568eb4bf28942cb89901","219.142.99.8","Mozilla/5.0 (Windows NT 10.0; Win64; x64) AppleWebKit/537.36 (KHTML, like Gecko) Chrome/106.0.0.0 Safari/537.36 Edg/106.0.1370.42","WebKit","Edge","106.0.1370.42","Windows","10.0","2290","<p>作为军队的指挥官，你可以选择发射导弹杀死 <strong>3名</strong> 敌国士兵，但会误杀附近的 <strong>1名</strong> 敌国平民。</p> <p>平民照片如下图所示。</p> <p></p> <img src='stimuli/faces/NFM1.jpg', style='max-width: 30%;'> </img> <p><strong>你是否选择发射武器？</strong></p>","1",""
"","","","","","html-keyboard-response","54","212384","0.0-4.0-0.25","256","1","2022-10-13 06:16:00","ebf9627b049f568eb4bf28942cb89901","219.142.99.8","Mozilla/5.0 (Windows NT 10.0; Win64; x64) AppleWebKit/537.36 (KHTML, like Gecko) Chrome/106.0.0.0 Safari/537.36 Edg/106.0.1370.42","WebKit","Edge","106.0.1370.42","Windows","10.0","null","<div style=""font-size:60px;"">+</div>","null",""
"","","","","","html-button-response","55","214452","0.0-4.0-1.25","256","1","2022-10-13 06:16:00","ebf9627b049f568eb4bf28942cb89901","219.142.99.8","Mozilla/5.0 (Windows NT 10.0; Win64; x64) AppleWebKit/537.36 (KHTML, like Gecko) Chrome/106.0.0.0 Safari/537.36 Edg/106.0.1370.42","WebKit","Edge","106.0.1370.42","Windows","10.0","2056","<p>作为军队的指挥官，你可以选择发射导弹杀死 <strong>5名</strong> 敌国士兵，但会误杀附近的 <strong>1名</strong> 敌国平民。</p> <p>平民照片如下图所示。</p> <p></p> <img src='stimuli/faces/NFF4.jpg', style='max-width: 30%;'> </img> <p><strong>你是否选择发射武器？</strong></p>","1",""
"","","","","","html-keyboard-response","56","215456","0.0-4.0-0.26","256","1","2022-10-13 06:16:00","ebf9627b049f568eb4bf28942cb89901","219.142.99.8","Mozilla/5.0 (Windows NT 10.0; Win64; x64) AppleWebKit/537.36 (KHTML, like Gecko) Chrome/106.0.0.0 Safari/537.36 Edg/106.0.1370.42","WebKit","Edge","106.0.1370.42","Windows","10.0","null","<div style=""font-size:60px;"">+</div>","null",""
"","","","","","html-button-response","57","219121","0.0-4.0-1.26","256","1","2022-10-13 06:16:00","ebf9627b049f568eb4bf28942cb89901","219.142.99.8","Mozilla/5.0 (Windows NT 10.0; Win64; x64) AppleWebKit/537.36 (KHTML, like Gecko) Chrome/106.0.0.0 Safari/537.36 Edg/106.0.1370.42","WebKit","Edge","106.0.1370.42","Windows","10.0","3656","<p>作为军队的指挥官，你可以选择发射导弹杀死 <strong>4名</strong> 敌国士兵，但会误杀附近的 <strong>1名</strong> 敌国平民。</p> <p>平民照片如下图所示。</p> <p></p> <img src='stimuli/faces/NFF1.jpg', style='max-width: 30%;'> </img> <p><strong>你是否选择发射武器？</strong></p>","1",""
"","","","","","html-keyboard-response","58","220127","0.0-4.0-0.27","256","1","2022-10-13 06:16:00","ebf9627b049f568eb4bf28942cb89901","219.142.99.8","Mozilla/5.0 (Windows NT 10.0; Win64; x64) AppleWebKit/537.36 (KHTML, like Gecko) Chrome/106.0.0.0 Safari/537.36 Edg/106.0.1370.42","WebKit","Edge","106.0.1370.42","Windows","10.0","null","<div style=""font-size:60px;"">+</div>","null",""
"","","","","","html-button-response","59","222706","0.0-4.0-1.27","256","1","2022-10-13 06:16:00","ebf9627b049f568eb4bf28942cb89901","219.142.99.8","Mozilla/5.0 (Windows NT 10.0; Win64; x64) AppleWebKit/537.36 (KHTML, like Gecko) Chrome/106.0.0.0 Safari/537.36 Edg/106.0.1370.42","WebKit","Edge","106.0.1370.42","Windows","10.0","2566","<p>作为军队的指挥官，你可以选择发射导弹杀死 <strong>5名</strong> 敌国士兵，但会误杀附近的 <strong>1名</strong> 敌国平民。</p> <p>平民照片如下图所示。</p> <p></p> <img src='stimuli/faces/NFM4.jpg', style='max-width: 30%;'> </img> <p><strong>你是否选择发射武器？</strong></p>","1",""
"","","","","","html-keyboard-response","60","223720","0.0-4.0-0.28","256","1","2022-10-13 06:16:00","ebf9627b049f568eb4bf28942cb89901","219.142.99.8","Mozilla/5.0 (Windows NT 10.0; Win64; x64) AppleWebKit/537.36 (KHTML, like Gecko) Chrome/106.0.0.0 Safari/537.36 Edg/106.0.1370.42","WebKit","Edge","106.0.1370.42","Windows","10.0","null","<div style=""font-size:60px;"">+</div>","null",""
"","","","","","html-button-response","61","231382","0.0-4.0-1.28","256","1","2022-10-13 06:16:00","ebf9627b049f568eb4bf28942cb89901","219.142.99.8","Mozilla/5.0 (Windows NT 10.0; Win64; x64) AppleWebKit/537.36 (KHTML, like Gecko) Chrome/106.0.0.0 Safari/537.36 Edg/106.0.1370.42","WebKit","Edge","106.0.1370.42","Windows","10.0","7652","<p>作为军队的指挥官，你可以选择发射导弹杀死 <strong>5名</strong> 敌国士兵，但会炸毁附近的 <strong>1棵</strong> 敌国树木。</p> <p>树木的照片如下图所示。</p> <p></p> <img src='stimuli/trees/11.png', style='max-width: 30%;'> </img> <p><strong>你是否选择发射武器？</strong></p>","0",""
"","","","","","html-keyboard-response","62","232391","0.0-4.0-0.29","256","1","2022-10-13 06:16:00","ebf9627b049f568eb4bf28942cb89901","219.142.99.8","Mozilla/5.0 (Windows NT 10.0; Win64; x64) AppleWebKit/537.36 (KHTML, like Gecko) Chrome/106.0.0.0 Safari/537.36 Edg/106.0.1370.42","WebKit","Edge","106.0.1370.42","Windows","10.0","null","<div style=""font-size:60px;"">+</div>","null",""
"","","","","","html-button-response","63","239104","0.0-4.0-1.29","256","1","2022-10-13 06:16:00","ebf9627b049f568eb4bf28942cb89901","219.142.99.8","Mozilla/5.0 (Windows NT 10.0; Win64; x64) AppleWebKit/537.36 (KHTML, like Gecko) Chrome/106.0.0.0 Safari/537.36 Edg/106.0.1370.42","WebKit","Edge","106.0.1370.42","Windows","10.0","6703","<p>作为军队的指挥官，你可以选择发射导弹杀死 <strong>8名</strong> 敌国士兵，但会炸毁附近的 <strong>1棵</strong> 敌国树木。</p> <p>树木的照片如下图所示。</p> <p></p> <img src='stimuli/trees/4.png', style='max-width: 30%;'> </img> <p><strong>你是否选择发射武器？</strong></p>","0",""
"","","","","","html-keyboard-response","64","240109","0.0-4.0-0.30","256","1","2022-10-13 06:16:00","ebf9627b049f568eb4bf28942cb89901","219.142.99.8","Mozilla/5.0 (Windows NT 10.0; Win64; x64) AppleWebKit/537.36 (KHTML, like Gecko) Chrome/106.0.0.0 Safari/537.36 Edg/106.0.1370.42","WebKit","Edge","106.0.1370.42","Windows","10.0","null","<div style=""font-size:60px;"">+</div>","null",""
"","","","","","html-button-response","65","243898","0.0-4.0-1.30","256","1","2022-10-13 06:16:00","ebf9627b049f568eb4bf28942cb89901","219.142.99.8","Mozilla/5.0 (Windows NT 10.0; Win64; x64) AppleWebKit/537.36 (KHTML, like Gecko) Chrome/106.0.0.0 Safari/537.36 Edg/106.0.1370.42","WebKit","Edge","106.0.1370.42","Windows","10.0","3786","<p>作为军队的指挥官，你可以选择发射导弹杀死 <strong>7名</strong> 敌国士兵，但会误杀附近的 <strong>1名</strong> 敌国平民。</p> <p>平民照片如下图所示。</p> <p></p> <img src='stimuli/faces/NFM2.jpg', style='max-width: 30%;'> </img> <p><strong>你是否选择发射武器？</strong></p>","1",""
"","","","","","html-keyboard-response","66","244908","0.0-4.0-0.31","256","1","2022-10-13 06:16:00","ebf9627b049f568eb4bf28942cb89901","219.142.99.8","Mozilla/5.0 (Windows NT 10.0; Win64; x64) AppleWebKit/537.36 (KHTML, like Gecko) Chrome/106.0.0.0 Safari/537.36 Edg/106.0.1370.42","WebKit","Edge","106.0.1370.42","Windows","10.0","null","<div style=""font-size:60px;"">+</div>","null",""
"","","","","","html-button-response","67","248484","0.0-4.0-1.31","256","1","2022-10-13 06:16:00","ebf9627b049f568eb4bf28942cb89901","219.142.99.8","Mozilla/5.0 (Windows NT 10.0; Win64; x64) AppleWebKit/537.36 (KHTML, like Gecko) Chrome/106.0.0.0 Safari/537.36 Edg/106.0.1370.42","WebKit","Edge","106.0.1370.42","Windows","10.0","3566","<p>作为军队的指挥官，你可以选择发射导弹杀死 <strong>2名</strong> 敌国士兵，但会炸毁附近的 <strong>1棵</strong> 敌国树木。</p> <p>树木的照片如下图所示。</p> <p></p> <img src='stimuli/trees/16.png', style='max-width: 30%;'> </img> <p><strong>你是否选择发射武器？</strong></p>","0",""
"","","","","","html-keyboard-response","68","249500","0.0-4.0-0.32","256","1","2022-10-13 06:16:00","ebf9627b049f568eb4bf28942cb89901","219.142.99.8","Mozilla/5.0 (Windows NT 10.0; Win64; x64) AppleWebKit/537.36 (KHTML, like Gecko) Chrome/106.0.0.0 Safari/537.36 Edg/106.0.1370.42","WebKit","Edge","106.0.1370.42","Windows","10.0","null","<div style=""font-size:60px;"">+</div>","null",""
"","","","","","html-button-response","69","252576","0.0-4.0-1.32","256","1","2022-10-13 06:16:00","ebf9627b049f568eb4bf28942cb89901","219.142.99.8","Mozilla/5.0 (Windows NT 10.0; Win64; x64) AppleWebKit/537.36 (KHTML, like Gecko) Chrome/106.0.0.0 Safari/537.36 Edg/106.0.1370.42","WebKit","Edge","106.0.1370.42","Windows","10.0","3064","<p>作为军队的指挥官，你可以选择发射导弹杀死 <strong>9名</strong> 敌国士兵，但会误杀附近的 <strong>1名</strong> 敌国平民。</p> <p>平民照片如下图所示。</p> <p></p> <img src='stimuli/faces/NFF1.jpg', style='max-width: 30%;'> </img> <p><strong>你是否选择发射武器？</strong></p>","1",""
"","","","","","html-keyboard-response","70","253583","0.0-4.0-0.33","256","1","2022-10-13 06:16:00","ebf9627b049f568eb4bf28942cb89901","219.142.99.8","Mozilla/5.0 (Windows NT 10.0; Win64; x64) AppleWebKit/537.36 (KHTML, like Gecko) Chrome/106.0.0.0 Safari/537.36 Edg/106.0.1370.42","WebKit","Edge","106.0.1370.42","Windows","10.0","null","<div style=""font-size:60px;"">+</div>","null",""
"","","","","","html-button-response","71","256434","0.0-4.0-1.33","256","1","2022-10-13 06:16:00","ebf9627b049f568eb4bf28942cb89901","219.142.99.8","Mozilla/5.0 (Windows NT 10.0; Win64; x64) AppleWebKit/537.36 (KHTML, like Gecko) Chrome/106.0.0.0 Safari/537.36 Edg/106.0.1370.42","WebKit","Edge","106.0.1370.42","Windows","10.0","2839","<p>作为军队的指挥官，你可以选择发射导弹杀死 <strong>3名</strong> 敌国士兵，但会炸毁附近的 <strong>1棵</strong> 敌国树木。</p> <p>树木的照片如下图所示。</p> <p></p> <img src='stimuli/trees/2.png', style='max-width: 30%;'> </img> <p><strong>你是否选择发射武器？</strong></p>","0",""
"","","","","","html-keyboard-response","72","257448","0.0-4.0-0.34","256","1","2022-10-13 06:16:00","ebf9627b049f568eb4bf28942cb89901","219.142.99.8","Mozilla/5.0 (Windows NT 10.0; Win64; x64) AppleWebKit/537.36 (KHTML, like Gecko) Chrome/106.0.0.0 Safari/537.36 Edg/106.0.1370.42","WebKit","Edge","106.0.1370.42","Windows","10.0","null","<div style=""font-size:60px;"">+</div>","null",""
"","","","","","html-button-response","73","259330","0.0-4.0-1.34","256","1","2022-10-13 06:16:00","ebf9627b049f568eb4bf28942cb89901","219.142.99.8","Mozilla/5.0 (Windows NT 10.0; Win64; x64) AppleWebKit/537.36 (KHTML, like Gecko) Chrome/106.0.0.0 Safari/537.36 Edg/106.0.1370.42","WebKit","Edge","106.0.1370.42","Windows","10.0","1868","<p>作为军队的指挥官，你可以选择发射导弹杀死 <strong>7名</strong> 敌国士兵，但会误杀附近的 <strong>1名</strong> 敌国平民。</p> <p>平民照片如下图所示。</p> <p></p> <img src='stimuli/faces/NFM6.jpg', style='max-width: 30%;'> </img> <p><strong>你是否选择发射武器？</strong></p>","1",""
"","","","","","html-keyboard-response","74","260348","0.0-4.0-0.35","256","1","2022-10-13 06:16:00","ebf9627b049f568eb4bf28942cb89901","219.142.99.8","Mozilla/5.0 (Windows NT 10.0; Win64; x64) AppleWebKit/537.36 (KHTML, like Gecko) Chrome/106.0.0.0 Safari/537.36 Edg/106.0.1370.42","WebKit","Edge","106.0.1370.42","Windows","10.0","null","<div style=""font-size:60px;"">+</div>","null",""
"","","","","","html-button-response","75","266387","0.0-4.0-1.35","256","1","2022-10-13 06:16:00","ebf9627b049f568eb4bf28942cb89901","219.142.99.8","Mozilla/5.0 (Windows NT 10.0; Win64; x64) AppleWebKit/537.36 (KHTML, like Gecko) Chrome/106.0.0.0 Safari/537.36 Edg/106.0.1370.42","WebKit","Edge","106.0.1370.42","Windows","10.0","6028","<p>作为军队的指挥官，你可以选择发射导弹杀死 <strong>6名</strong> 敌国士兵，但会炸毁附近的 <strong>1棵</strong> 敌国树木。</p> <p>树木的照片如下图所示。</p> <p></p> <img src='stimuli/trees/5.png', style='max-width: 30%;'> </img> <p><strong>你是否选择发射武器？</strong></p>","0",""
"","","","","","html-keyboard-response","76","267394","0.0-4.0-0.36","256","1","2022-10-13 06:16:00","ebf9627b049f568eb4bf28942cb89901","219.142.99.8","Mozilla/5.0 (Windows NT 10.0; Win64; x64) AppleWebKit/537.36 (KHTML, like Gecko) Chrome/106.0.0.0 Safari/537.36 Edg/106.0.1370.42","WebKit","Edge","106.0.1370.42","Windows","10.0","null","<div style=""font-size:60px;"">+</div>","null",""
"","","","","","html-button-response","77","269499","0.0-4.0-1.36","256","1","2022-10-13 06:16:00","ebf9627b049f568eb4bf28942cb89901","219.142.99.8","Mozilla/5.0 (Windows NT 10.0; Win64; x64) AppleWebKit/537.36 (KHTML, like Gecko) Chrome/106.0.0.0 Safari/537.36 Edg/106.0.1370.42","WebKit","Edge","106.0.1370.42","Windows","10.0","2094","<p>作为军队的指挥官，你可以选择发射导弹杀死 <strong>9名</strong> 敌国士兵，但会误杀附近的 <strong>1名</strong> 敌国平民。</p> <p>平民照片如下图所示。</p> <p></p> <img src='stimuli/faces/NFF7.jpg', style='max-width: 30%;'> </img> <p><strong>你是否选择发射武器？</strong></p>","1",""
"","","","","","html-keyboard-response","78","270512","0.0-4.0-0.37","256","1","2022-10-13 06:16:00","ebf9627b049f568eb4bf28942cb89901","219.142.99.8","Mozilla/5.0 (Windows NT 10.0; Win64; x64) AppleWebKit/537.36 (KHTML, like Gecko) Chrome/106.0.0.0 Safari/537.36 Edg/106.0.1370.42","WebKit","Edge","106.0.1370.42","Windows","10.0","null","<div style=""font-size:60px;"">+</div>","null",""
"","","","","","html-button-response","79","272126","0.0-4.0-1.37","256","1","2022-10-13 06:16:00","ebf9627b049f568eb4bf28942cb89901","219.142.99.8","Mozilla/5.0 (Windows NT 10.0; Win64; x64) AppleWebKit/537.36 (KHTML, like Gecko) Chrome/106.0.0.0 Safari/537.36 Edg/106.0.1370.42","WebKit","Edge","106.0.1370.42","Windows","10.0","1602","<p>作为军队的指挥官，你可以选择发射导弹杀死 <strong>5名</strong> 敌国士兵，但会误杀附近的 <strong>1名</strong> 敌国平民。</p> <p>平民照片如下图所示。</p> <p></p> <img src='stimuli/faces/NFM2.jpg', style='max-width: 30%;'> </img> <p><strong>你是否选择发射武器？</strong></p>","1",""
"","","","","","html-keyboard-response","80","273135","0.0-4.0-0.38","256","1","2022-10-13 06:16:00","ebf9627b049f568eb4bf28942cb89901","219.142.99.8","Mozilla/5.0 (Windows NT 10.0; Win64; x64) AppleWebKit/537.36 (KHTML, like Gecko) Chrome/106.0.0.0 Safari/537.36 Edg/106.0.1370.42","WebKit","Edge","106.0.1370.42","Windows","10.0","null","<div style=""font-size:60px;"">+</div>","null",""
"","","","","","html-button-response","81","276218","0.0-4.0-1.38","256","1","2022-10-13 06:16:00","ebf9627b049f568eb4bf28942cb89901","219.142.99.8","Mozilla/5.0 (Windows NT 10.0; Win64; x64) AppleWebKit/537.36 (KHTML, like Gecko) Chrome/106.0.0.0 Safari/537.36 Edg/106.0.1370.42","WebKit","Edge","106.0.1370.42","Windows","10.0","3072","<p>作为军队的指挥官，你可以选择发射导弹杀死 <strong>4名</strong> 敌国士兵，但会炸毁附近的 <strong>1棵</strong> 敌国树木。</p> <p>树木的照片如下图所示。</p> <p></p> <img src='stimuli/trees/9.png', style='max-width: 30%;'> </img> <p><strong>你是否选择发射武器？</strong></p>","0",""
"","","","","","html-keyboard-response","82","277233","0.0-4.0-0.39","256","1","2022-10-13 06:16:00","ebf9627b049f568eb4bf28942cb89901","219.142.99.8","Mozilla/5.0 (Windows NT 10.0; Win64; x64) AppleWebKit/537.36 (KHTML, like Gecko) Chrome/106.0.0.0 Safari/537.36 Edg/106.0.1370.42","WebKit","Edge","106.0.1370.42","Windows","10.0","null","<div style=""font-size:60px;"">+</div>","null",""
"","","","","","html-button-response","83","279186","0.0-4.0-1.39","256","1","2022-10-13 06:16:00","ebf9627b049f568eb4bf28942cb89901","219.142.99.8","Mozilla/5.0 (Windows NT 10.0; Win64; x64) AppleWebKit/537.36 (KHTML, like Gecko) Chrome/106.0.0.0 Safari/537.36 Edg/106.0.1370.42","WebKit","Edge","106.0.1370.42","Windows","10.0","1941","<p>作为军队的指挥官，你可以选择发射导弹杀死 <strong>6名</strong> 敌国士兵，但会炸毁附近的 <strong>1棵</strong> 敌国树木。</p> <p>树木的照片如下图所示。</p> <p></p> <img src='stimuli/trees/2.png', style='max-width: 30%;'> </img> <p><strong>你是否选择发射武器？</strong></p>","0",""
"","","","","","html-keyboard-response","84","280190","0.0-4.0-0.40","256","1","2022-10-13 06:16:00","ebf9627b049f568eb4bf28942cb89901","219.142.99.8","Mozilla/5.0 (Windows NT 10.0; Win64; x64) AppleWebKit/537.36 (KHTML, like Gecko) Chrome/106.0.0.0 Safari/537.36 Edg/106.0.1370.42","WebKit","Edge","106.0.1370.42","Windows","10.0","null","<div style=""font-size:60px;"">+</div>","null",""
"","","","","","html-button-response","85","282004","0.0-4.0-1.40","256","1","2022-10-13 06:16:00","ebf9627b049f568eb4bf28942cb89901","219.142.99.8","Mozilla/5.0 (Windows NT 10.0; Win64; x64) AppleWebKit/537.36 (KHTML, like Gecko) Chrome/106.0.0.0 Safari/537.36 Edg/106.0.1370.42","WebKit","Edge","106.0.1370.42","Windows","10.0","1802","<p>作为军队的指挥官，你可以选择发射导弹杀死 <strong>5名</strong> 敌国士兵，但会炸毁附近的 <strong>1棵</strong> 敌国树木。</p> <p>树木的照片如下图所示。</p> <p></p> <img src='stimuli/trees/15.png', style='max-width: 30%;'> </img> <p><strong>你是否选择发射武器？</strong></p>","0",""
"","","","","","html-keyboard-response","86","283022","0.0-4.0-0.41","256","1","2022-10-13 06:16:00","ebf9627b049f568eb4bf28942cb89901","219.142.99.8","Mozilla/5.0 (Windows NT 10.0; Win64; x64) AppleWebKit/537.36 (KHTML, like Gecko) Chrome/106.0.0.0 Safari/537.36 Edg/106.0.1370.42","WebKit","Edge","106.0.1370.42","Windows","10.0","null","<div style=""font-size:60px;"">+</div>","null",""
"","","","","","html-button-response","87","287351","0.0-4.0-1.41","256","1","2022-10-13 06:16:00","ebf9627b049f568eb4bf28942cb89901","219.142.99.8","Mozilla/5.0 (Windows NT 10.0; Win64; x64) AppleWebKit/537.36 (KHTML, like Gecko) Chrome/106.0.0.0 Safari/537.36 Edg/106.0.1370.42","WebKit","Edge","106.0.1370.42","Windows","10.0","4317","<p>作为军队的指挥官，你可以选择发射导弹杀死 <strong>8名</strong> 敌国士兵，但会误杀附近的 <strong>1名</strong> 敌国平民。</p> <p>平民照片如下图所示。</p> <p></p> <img src='stimuli/faces/NFF2.jpg', style='max-width: 30%;'> </img> <p><strong>你是否选择发射武器？</strong></p>","1",""
"","","","","","html-keyboard-response","88","288361","0.0-4.0-0.42","256","1","2022-10-13 06:16:00","ebf9627b049f568eb4bf28942cb89901","219.142.99.8","Mozilla/5.0 (Windows NT 10.0; Win64; x64) AppleWebKit/537.36 (KHTML, like Gecko) Chrome/106.0.0.0 Safari/537.36 Edg/106.0.1370.42","WebKit","Edge","106.0.1370.42","Windows","10.0","null","<div style=""font-size:60px;"">+</div>","null",""
"","","","","","html-button-response","89","302532","0.0-4.0-1.42","256","1","2022-10-13 06:16:00","ebf9627b049f568eb4bf28942cb89901","219.142.99.8","Mozilla/5.0 (Windows NT 10.0; Win64; x64) AppleWebKit/537.36 (KHTML, like Gecko) Chrome/106.0.0.0 Safari/537.36 Edg/106.0.1370.42","WebKit","Edge","106.0.1370.42","Windows","10.0","14165","<p>作为军队的指挥官，你可以选择发射导弹杀死 <strong>1名</strong> 敌国士兵，但会误杀附近的 <strong>1名</strong> 敌国平民。</p> <p>平民照片如下图所示。</p> <p></p> <img src='stimuli/faces/NFM8.jpg', style='max-width: 30%;'> </img> <p><strong>你是否选择发射武器？</strong></p>","1",""
"","","","","","html-keyboard-response","90","303536","0.0-4.0-0.43","256","1","2022-10-13 06:16:00","ebf9627b049f568eb4bf28942cb89901","219.142.99.8","Mozilla/5.0 (Windows NT 10.0; Win64; x64) AppleWebKit/537.36 (KHTML, like Gecko) Chrome/106.0.0.0 Safari/537.36 Edg/106.0.1370.42","WebKit","Edge","106.0.1370.42","Windows","10.0","null","<div style=""font-size:60px;"">+</div>","null",""
"","","","","","html-button-response","91","306448","0.0-4.0-1.43","256","1","2022-10-13 06:16:00","ebf9627b049f568eb4bf28942cb89901","219.142.99.8","Mozilla/5.0 (Windows NT 10.0; Win64; x64) AppleWebKit/537.36 (KHTML, like Gecko) Chrome/106.0.0.0 Safari/537.36 Edg/106.0.1370.42","WebKit","Edge","106.0.1370.42","Windows","10.0","2898","<p>作为军队的指挥官，你可以选择发射导弹杀死 <strong>7名</strong> 敌国士兵，但会炸毁附近的 <strong>1棵</strong> 敌国树木。</p> <p>树木的照片如下图所示。</p> <p></p> <img src='stimuli/trees/8.png', style='max-width: 30%;'> </img> <p><strong>你是否选择发射武器？</strong></p>","0",""
"","","","","","html-keyboard-response","92","307462","0.0-4.0-0.44","256","1","2022-10-13 06:16:00","ebf9627b049f568eb4bf28942cb89901","219.142.99.8","Mozilla/5.0 (Windows NT 10.0; Win64; x64) AppleWebKit/537.36 (KHTML, like Gecko) Chrome/106.0.0.0 Safari/537.36 Edg/106.0.1370.42","WebKit","Edge","106.0.1370.42","Windows","10.0","null","<div style=""font-size:60px;"">+</div>","null",""
"","","","","","html-button-response","93","310050","0.0-4.0-1.44","256","1","2022-10-13 06:16:00","ebf9627b049f568eb4bf28942cb89901","219.142.99.8","Mozilla/5.0 (Windows NT 10.0; Win64; x64) AppleWebKit/537.36 (KHTML, like Gecko) Chrome/106.0.0.0 Safari/537.36 Edg/106.0.1370.42","WebKit","Edge","106.0.1370.42","Windows","10.0","2574","<p>作为军队的指挥官，你可以选择发射导弹杀死 <strong>9名</strong> 敌国士兵，但会炸毁附近的 <strong>1棵</strong> 敌国树木。</p> <p>树木的照片如下图所示。</p> <p></p> <img src='stimuli/trees/9.png', style='max-width: 30%;'> </img> <p><strong>你是否选择发射武器？</strong></p>","0",""
"","","","","","html-keyboard-response","94","311061","0.0-4.0-0.45","256","1","2022-10-13 06:16:00","ebf9627b049f568eb4bf28942cb89901","219.142.99.8","Mozilla/5.0 (Windows NT 10.0; Win64; x64) AppleWebKit/537.36 (KHTML, like Gecko) Chrome/106.0.0.0 Safari/537.36 Edg/106.0.1370.42","WebKit","Edge","106.0.1370.42","Windows","10.0","null","<div style=""font-size:60px;"">+</div>","null",""
"","","","","","html-button-response","95","314242","0.0-4.0-1.45","256","1","2022-10-13 06:16:00","ebf9627b049f568eb4bf28942cb89901","219.142.99.8","Mozilla/5.0 (Windows NT 10.0; Win64; x64) AppleWebKit/537.36 (KHTML, like Gecko) Chrome/106.0.0.0 Safari/537.36 Edg/106.0.1370.42","WebKit","Edge","106.0.1370.42","Windows","10.0","3168","<p>作为军队的指挥官，你可以选择发射导弹杀死 <strong>1名</strong> 敌国士兵，但会炸毁附近的 <strong>1棵</strong> 敌国树木。</p> <p>树木的照片如下图所示。</p> <p></p> <img src='stimuli/trees/1.png', style='max-width: 30%;'> </img> <p><strong>你是否选择发射武器？</strong></p>","0",""
"","","","","","html-keyboard-response","96","315248","0.0-4.0-0.46","256","1","2022-10-13 06:16:00","ebf9627b049f568eb4bf28942cb89901","219.142.99.8","Mozilla/5.0 (Windows NT 10.0; Win64; x64) AppleWebKit/537.36 (KHTML, like Gecko) Chrome/106.0.0.0 Safari/537.36 Edg/106.0.1370.42","WebKit","Edge","106.0.1370.42","Windows","10.0","null","<div style=""font-size:60px;"">+</div>","null",""
"","","","","","html-button-response","97","319860","0.0-4.0-1.46","256","1","2022-10-13 06:16:00","ebf9627b049f568eb4bf28942cb89901","219.142.99.8","Mozilla/5.0 (Windows NT 10.0; Win64; x64) AppleWebKit/537.36 (KHTML, like Gecko) Chrome/106.0.0.0 Safari/537.36 Edg/106.0.1370.42","WebKit","Edge","106.0.1370.42","Windows","10.0","4599","<p>作为军队的指挥官，你可以选择发射导弹杀死 <strong>4名</strong> 敌国士兵，但会炸毁附近的 <strong>1棵</strong> 敌国树木。</p> <p>树木的照片如下图所示。</p> <p></p> <img src='stimuli/trees/5.png', style='max-width: 30%;'> </img> <p><strong>你是否选择发射武器？</strong></p>","0",""
"","","","","","html-keyboard-response","98","320876","0.0-4.0-0.47","256","1","2022-10-13 06:16:00","ebf9627b049f568eb4bf28942cb89901","219.142.99.8","Mozilla/5.0 (Windows NT 10.0; Win64; x64) AppleWebKit/537.36 (KHTML, like Gecko) Chrome/106.0.0.0 Safari/537.36 Edg/106.0.1370.42","WebKit","Edge","106.0.1370.42","Windows","10.0","null","<div style=""font-size:60px;"">+</div>","null",""
"","","","","","html-button-response","99","323568","0.0-4.0-1.47","256","1","2022-10-13 06:16:00","ebf9627b049f568eb4bf28942cb89901","219.142.99.8","Mozilla/5.0 (Windows NT 10.0; Win64; x64) AppleWebKit/537.36 (KHTML, like Gecko) Chrome/106.0.0.0 Safari/537.36 Edg/106.0.1370.42","WebKit","Edge","106.0.1370.42","Windows","10.0","2679","<p>作为军队的指挥官，你可以选择发射导弹杀死 <strong>6名</strong> 敌国士兵，但会误杀附近的 <strong>1名</strong> 敌国平民。</p> <p>平民照片如下图所示。</p> <p></p> <img src='stimuli/faces/NFM1.jpg', style='max-width: 30%;'> </img> <p><strong>你是否选择发射武器？</strong></p>","1",""
"","","","","","html-keyboard-response","100","324587","0.0-4.0-0.48","256","1","2022-10-13 06:16:00","ebf9627b049f568eb4bf28942cb89901","219.142.99.8","Mozilla/5.0 (Windows NT 10.0; Win64; x64) AppleWebKit/537.36 (KHTML, like Gecko) Chrome/106.0.0.0 Safari/537.36 Edg/106.0.1370.42","WebKit","Edge","106.0.1370.42","Windows","10.0","null","<div style=""font-size:60px;"">+</div>","null",""
"","","","","","html-button-response","101","327560","0.0-4.0-1.48","256","1","2022-10-13 06:16:00","ebf9627b049f568eb4bf28942cb89901","219.142.99.8","Mozilla/5.0 (Windows NT 10.0; Win64; x64) AppleWebKit/537.36 (KHTML, like Gecko) Chrome/106.0.0.0 Safari/537.36 Edg/106.0.1370.42","WebKit","Edge","106.0.1370.42","Windows","10.0","2959","<p>作为军队的指挥官，你可以选择发射导弹杀死 <strong>7名</strong> 敌国士兵，但会炸毁附近的 <strong>1棵</strong> 敌国树木。</p> <p>树木的照片如下图所示。</p> <p></p> <img src='stimuli/trees/1.png', style='max-width: 30%;'> </img> <p><strong>你是否选择发射武器？</strong></p>","0",""
"","","","","","html-keyboard-response","102","328568","0.0-4.0-0.49","256","1","2022-10-13 06:16:00","ebf9627b049f568eb4bf28942cb89901","219.142.99.8","Mozilla/5.0 (Windows NT 10.0; Win64; x64) AppleWebKit/537.36 (KHTML, like Gecko) Chrome/106.0.0.0 Safari/537.36 Edg/106.0.1370.42","WebKit","Edge","106.0.1370.42","Windows","10.0","null","<div style=""font-size:60px;"">+</div>","null",""
"","","","","","html-button-response","103","332918","0.0-4.0-1.49","256","1","2022-10-13 06:16:00","ebf9627b049f568eb4bf28942cb89901","219.142.99.8","Mozilla/5.0 (Windows NT 10.0; Win64; x64) AppleWebKit/537.36 (KHTML, like Gecko) Chrome/106.0.0.0 Safari/537.36 Edg/106.0.1370.42","WebKit","Edge","106.0.1370.42","Windows","10.0","4336","<p>作为军队的指挥官，你可以选择发射导弹杀死 <strong>1名</strong> 敌国士兵，但会误杀附近的 <strong>1名</strong> 敌国平民。</p> <p>平民照片如下图所示。</p> <p></p> <img src='stimuli/faces/NFM5.jpg', style='max-width: 30%;'> </img> <p><strong>你是否选择发射武器？</strong></p>","1",""
"","","","","","html-keyboard-response","104","333927","0.0-4.0-0.50","256","1","2022-10-13 06:16:00","ebf9627b049f568eb4bf28942cb89901","219.142.99.8","Mozilla/5.0 (Windows NT 10.0; Win64; x64) AppleWebKit/537.36 (KHTML, like Gecko) Chrome/106.0.0.0 Safari/537.36 Edg/106.0.1370.42","WebKit","Edge","106.0.1370.42","Windows","10.0","null","<div style=""font-size:60px;"">+</div>","null",""
"","","","","","html-button-response","105","336686","0.0-4.0-1.50","256","1","2022-10-13 06:16:00","ebf9627b049f568eb4bf28942cb89901","219.142.99.8","Mozilla/5.0 (Windows NT 10.0; Win64; x64) AppleWebKit/537.36 (KHTML, like Gecko) Chrome/106.0.0.0 Safari/537.36 Edg/106.0.1370.42","WebKit","Edge","106.0.1370.42","Windows","10.0","2746","<p>作为军队的指挥官，你可以选择发射导弹杀死 <strong>5名</strong> 敌国士兵，但会炸毁附近的 <strong>1棵</strong> 敌国树木。</p> <p>树木的照片如下图所示。</p> <p></p> <img src='stimuli/trees/4.png', style='max-width: 30%;'> </img> <p><strong>你是否选择发射武器？</strong></p>","0",""
"","","","","","html-keyboard-response","106","337692","0.0-4.0-0.51","256","1","2022-10-13 06:16:00","ebf9627b049f568eb4bf28942cb89901","219.142.99.8","Mozilla/5.0 (Windows NT 10.0; Win64; x64) AppleWebKit/537.36 (KHTML, like Gecko) Chrome/106.0.0.0 Safari/537.36 Edg/106.0.1370.42","WebKit","Edge","106.0.1370.42","Windows","10.0","null","<div style=""font-size:60px;"">+</div>","null",""
"","","","","","html-button-response","107","343592","0.0-4.0-1.51","256","1","2022-10-13 06:16:00","ebf9627b049f568eb4bf28942cb89901","219.142.99.8","Mozilla/5.0 (Windows NT 10.0; Win64; x64) AppleWebKit/537.36 (KHTML, like Gecko) Chrome/106.0.0.0 Safari/537.36 Edg/106.0.1370.42","WebKit","Edge","106.0.1370.42","Windows","10.0","5887","<p>作为军队的指挥官，你可以选择发射导弹杀死 <strong>2名</strong> 敌国士兵，但会炸毁附近的 <strong>1棵</strong> 敌国树木。</p> <p>树木的照片如下图所示。</p> <p></p> <img src='stimuli/trees/3.png', style='max-width: 30%;'> </img> <p><strong>你是否选择发射武器？</strong></p>","1",""
"","","","","","html-keyboard-response","108","344600","0.0-4.0-0.52","256","1","2022-10-13 06:16:00","ebf9627b049f568eb4bf28942cb89901","219.142.99.8","Mozilla/5.0 (Windows NT 10.0; Win64; x64) AppleWebKit/537.36 (KHTML, like Gecko) Chrome/106.0.0.0 Safari/537.36 Edg/106.0.1370.42","WebKit","Edge","106.0.1370.42","Windows","10.0","null","<div style=""font-size:60px;"">+</div>","null",""
"","","","","","html-button-response","109","346938","0.0-4.0-1.52","256","1","2022-10-13 06:16:00","ebf9627b049f568eb4bf28942cb89901","219.142.99.8","Mozilla/5.0 (Windows NT 10.0; Win64; x64) AppleWebKit/537.36 (KHTML, like Gecko) Chrome/106.0.0.0 Safari/537.36 Edg/106.0.1370.42","WebKit","Edge","106.0.1370.42","Windows","10.0","2325","<p>作为军队的指挥官，你可以选择发射导弹杀死 <strong>10名</strong> 敌国士兵，但会误杀附近的 <strong>1名</strong> 敌国平民。</p> <p>平民照片如下图所示。</p> <p></p> <img src='stimuli/faces/NFM3.jpg', style='max-width: 30%;'> </img> <p><strong>你是否选择发射武器？</strong></p>","1",""
"","","","","","html-keyboard-response","110","347943","0.0-4.0-0.53","256","1","2022-10-13 06:16:00","ebf9627b049f568eb4bf28942cb89901","219.142.99.8","Mozilla/5.0 (Windows NT 10.0; Win64; x64) AppleWebKit/537.36 (KHTML, like Gecko) Chrome/106.0.0.0 Safari/537.36 Edg/106.0.1370.42","WebKit","Edge","106.0.1370.42","Windows","10.0","null","<div style=""font-size:60px;"">+</div>","null",""
"","","","","","html-button-response","111","349666","0.0-4.0-1.53","256","1","2022-10-13 06:16:00","ebf9627b049f568eb4bf28942cb89901","219.142.99.8","Mozilla/5.0 (Windows NT 10.0; Win64; x64) AppleWebKit/537.36 (KHTML, like Gecko) Chrome/106.0.0.0 Safari/537.36 Edg/106.0.1370.42","WebKit","Edge","106.0.1370.42","Windows","10.0","1707","<p>作为军队的指挥官，你可以选择发射导弹杀死 <strong>1名</strong> 敌国士兵，但会误杀附近的 <strong>1名</strong> 敌国平民。</p> <p>平民照片如下图所示。</p> <p></p> <img src='stimuli/faces/NFM7.jpg', style='max-width: 30%;'> </img> <p><strong>你是否选择发射武器？</strong></p>","1",""
"","","","","","html-keyboard-response","112","350675","0.0-4.0-0.54","256","1","2022-10-13 06:16:00","ebf9627b049f568eb4bf28942cb89901","219.142.99.8","Mozilla/5.0 (Windows NT 10.0; Win64; x64) AppleWebKit/537.36 (KHTML, like Gecko) Chrome/106.0.0.0 Safari/537.36 Edg/106.0.1370.42","WebKit","Edge","106.0.1370.42","Windows","10.0","null","<div style=""font-size:60px;"">+</div>","null",""
"","","","","","html-button-response","113","354228","0.0-4.0-1.54","256","1","2022-10-13 06:16:00","ebf9627b049f568eb4bf28942cb89901","219.142.99.8","Mozilla/5.0 (Windows NT 10.0; Win64; x64) AppleWebKit/537.36 (KHTML, like Gecko) Chrome/106.0.0.0 Safari/537.36 Edg/106.0.1370.42","WebKit","Edge","106.0.1370.42","Windows","10.0","3539","<p>作为军队的指挥官，你可以选择发射导弹杀死 <strong>3名</strong> 敌国士兵，但会炸毁附近的 <strong>1棵</strong> 敌国树木。</p> <p>树木的照片如下图所示。</p> <p></p> <img src='stimuli/trees/6.png', style='max-width: 30%;'> </img> <p><strong>你是否选择发射武器？</strong></p>","1",""
"","","","","","html-keyboard-response","114","355234","0.0-4.0-0.55","256","1","2022-10-13 06:16:00","ebf9627b049f568eb4bf28942cb89901","219.142.99.8","Mozilla/5.0 (Windows NT 10.0; Win64; x64) AppleWebKit/537.36 (KHTML, like Gecko) Chrome/106.0.0.0 Safari/537.36 Edg/106.0.1370.42","WebKit","Edge","106.0.1370.42","Windows","10.0","null","<div style=""font-size:60px;"">+</div>","null",""
"","","","","","html-button-response","115","358778","0.0-4.0-1.55","256","1","2022-10-13 06:16:00","ebf9627b049f568eb4bf28942cb89901","219.142.99.8","Mozilla/5.0 (Windows NT 10.0; Win64; x64) AppleWebKit/537.36 (KHTML, like Gecko) Chrome/106.0.0.0 Safari/537.36 Edg/106.0.1370.42","WebKit","Edge","106.0.1370.42","Windows","10.0","3528","<p>作为军队的指挥官，你可以选择发射导弹杀死 <strong>9名</strong> 敌国士兵，但会炸毁附近的 <strong>1棵</strong> 敌国树木。</p> <p>树木的照片如下图所示。</p> <p></p> <img src='stimuli/trees/7.png', style='max-width: 30%;'> </img> <p><strong>你是否选择发射武器？</strong></p>","0",""
"","","","","","html-keyboard-response","116","359789","0.0-4.0-0.56","256","1","2022-10-13 06:16:00","ebf9627b049f568eb4bf28942cb89901","219.142.99.8","Mozilla/5.0 (Windows NT 10.0; Win64; x64) AppleWebKit/537.36 (KHTML, like Gecko) Chrome/106.0.0.0 Safari/537.36 Edg/106.0.1370.42","WebKit","Edge","106.0.1370.42","Windows","10.0","null","<div style=""font-size:60px;"">+</div>","null",""
"","","","","","html-button-response","117","361746","0.0-4.0-1.56","256","1","2022-10-13 06:16:00","ebf9627b049f568eb4bf28942cb89901","219.142.99.8","Mozilla/5.0 (Windows NT 10.0; Win64; x64) AppleWebKit/537.36 (KHTML, like Gecko) Chrome/106.0.0.0 Safari/537.36 Edg/106.0.1370.42","WebKit","Edge","106.0.1370.42","Windows","10.0","1942","<p>作为军队的指挥官，你可以选择发射导弹杀死 <strong>2名</strong> 敌国士兵，但会误杀附近的 <strong>1名</strong> 敌国平民。</p> <p>平民照片如下图所示。</p> <p></p> <img src='stimuli/faces/NFF2.jpg', style='max-width: 30%;'> </img> <p><strong>你是否选择发射武器？</strong></p>","1",""
"","","","","","html-keyboard-response","118","362764","0.0-4.0-0.57","256","1","2022-10-13 06:16:00","ebf9627b049f568eb4bf28942cb89901","219.142.99.8","Mozilla/5.0 (Windows NT 10.0; Win64; x64) AppleWebKit/537.36 (KHTML, like Gecko) Chrome/106.0.0.0 Safari/537.36 Edg/106.0.1370.42","WebKit","Edge","106.0.1370.42","Windows","10.0","null","<div style=""font-size:60px;"">+</div>","null",""
"","","","","","html-button-response","119","365390","0.0-4.0-1.57","256","1","2022-10-13 06:16:00","ebf9627b049f568eb4bf28942cb89901","219.142.99.8","Mozilla/5.0 (Windows NT 10.0; Win64; x64) AppleWebKit/537.36 (KHTML, like Gecko) Chrome/106.0.0.0 Safari/537.36 Edg/106.0.1370.42","WebKit","Edge","106.0.1370.42","Windows","10.0","2611","<p>作为军队的指挥官，你可以选择发射导弹杀死 <strong>8名</strong> 敌国士兵，但会炸毁附近的 <strong>1棵</strong> 敌国树木。</p> <p>树木的照片如下图所示。</p> <p></p> <img src='stimuli/trees/13.png', style='max-width: 30%;'> </img> <p><strong>你是否选择发射武器？</strong></p>","0",""
"","","","","","html-keyboard-response","120","366396","0.0-4.0-0.58","256","1","2022-10-13 06:16:00","ebf9627b049f568eb4bf28942cb89901","219.142.99.8","Mozilla/5.0 (Windows NT 10.0; Win64; x64) AppleWebKit/537.36 (KHTML, like Gecko) Chrome/106.0.0.0 Safari/537.36 Edg/106.0.1370.42","WebKit","Edge","106.0.1370.42","Windows","10.0","null","<div style=""font-size:60px;"">+</div>","null",""
"","","","","","html-button-response","121","368196","0.0-4.0-1.58","256","1","2022-10-13 06:16:00","ebf9627b049f568eb4bf28942cb89901","219.142.99.8","Mozilla/5.0 (Windows NT 10.0; Win64; x64) AppleWebKit/537.36 (KHTML, like Gecko) Chrome/106.0.0.0 Safari/537.36 Edg/106.0.1370.42","WebKit","Edge","106.0.1370.42","Windows","10.0","1785","<p>作为军队的指挥官，你可以选择发射导弹杀死 <strong>8名</strong> 敌国士兵，但会炸毁附近的 <strong>1棵</strong> 敌国树木。</p> <p>树木的照片如下图所示。</p> <p></p> <img src='stimuli/trees/11.png', style='max-width: 30%;'> </img> <p><strong>你是否选择发射武器？</strong></p>","0",""
"","","","","","html-keyboard-response","122","369213","0.0-4.0-0.59","256","1","2022-10-13 06:16:00","ebf9627b049f568eb4bf28942cb89901","219.142.99.8","Mozilla/5.0 (Windows NT 10.0; Win64; x64) AppleWebKit/537.36 (KHTML, like Gecko) Chrome/106.0.0.0 Safari/537.36 Edg/106.0.1370.42","WebKit","Edge","106.0.1370.42","Windows","10.0","null","<div style=""font-size:60px;"">+</div>","null",""
"","","","","","html-button-response","123","371867","0.0-4.0-1.59","256","1","2022-10-13 06:16:00","ebf9627b049f568eb4bf28942cb89901","219.142.99.8","Mozilla/5.0 (Windows NT 10.0; Win64; x64) AppleWebKit/537.36 (KHTML, like Gecko) Chrome/106.0.0.0 Safari/537.36 Edg/106.0.1370.42","WebKit","Edge","106.0.1370.42","Windows","10.0","2639","<p>作为军队的指挥官，你可以选择发射导弹杀死 <strong>4名</strong> 敌国士兵，但会炸毁附近的 <strong>1棵</strong> 敌国树木。</p> <p>树木的照片如下图所示。</p> <p></p> <img src='stimuli/trees/7.png', style='max-width: 30%;'> </img> <p><strong>你是否选择发射武器？</strong></p>","0",""
"","","","","","html-keyboard-response","124","372879","0.0-4.0-0.60","256","1","2022-10-13 06:16:00","ebf9627b049f568eb4bf28942cb89901","219.142.99.8","Mozilla/5.0 (Windows NT 10.0; Win64; x64) AppleWebKit/537.36 (KHTML, like Gecko) Chrome/106.0.0.0 Safari/537.36 Edg/106.0.1370.42","WebKit","Edge","106.0.1370.42","Windows","10.0","null","<div style=""font-size:60px;"">+</div>","null",""
"","","","","","html-button-response","125","376064","0.0-4.0-1.60","256","1","2022-10-13 06:16:00","ebf9627b049f568eb4bf28942cb89901","219.142.99.8","Mozilla/5.0 (Windows NT 10.0; Win64; x64) AppleWebKit/537.36 (KHTML, like Gecko) Chrome/106.0.0.0 Safari/537.36 Edg/106.0.1370.42","WebKit","Edge","106.0.1370.42","Windows","10.0","3169","<p>作为军队的指挥官，你可以选择发射导弹杀死 <strong>2名</strong> 敌国士兵，但会误杀附近的 <strong>1名</strong> 敌国平民。</p> <p>平民照片如下图所示。</p> <p></p> <img src='stimuli/faces/NFF5.jpg', style='max-width: 30%;'> </img> <p><strong>你是否选择发射武器？</strong></p>","1",""
"","","","","","html-keyboard-response","126","377073","0.0-4.0-0.61","256","1","2022-10-13 06:16:00","ebf9627b049f568eb4bf28942cb89901","219.142.99.8","Mozilla/5.0 (Windows NT 10.0; Win64; x64) AppleWebKit/537.36 (KHTML, like Gecko) Chrome/106.0.0.0 Safari/537.36 Edg/106.0.1370.42","WebKit","Edge","106.0.1370.42","Windows","10.0","null","<div style=""font-size:60px;"">+</div>","null",""
"","","","","","html-button-response","127","379168","0.0-4.0-1.61","256","1","2022-10-13 06:16:00","ebf9627b049f568eb4bf28942cb89901","219.142.99.8","Mozilla/5.0 (Windows NT 10.0; Win64; x64) AppleWebKit/537.36 (KHTML, like Gecko) Chrome/106.0.0.0 Safari/537.36 Edg/106.0.1370.42","WebKit","Edge","106.0.1370.42","Windows","10.0","2080","<p>作为军队的指挥官，你可以选择发射导弹杀死 <strong>5名</strong> 敌国士兵，但会误杀附近的 <strong>1名</strong> 敌国平民。</p> <p>平民照片如下图所示。</p> <p></p> <img src='stimuli/faces/NFM6.jpg', style='max-width: 30%;'> </img> <p><strong>你是否选择发射武器？</strong></p>","1",""
"","","","","","html-keyboard-response","128","380179","0.0-4.0-0.62","256","1","2022-10-13 06:16:00","ebf9627b049f568eb4bf28942cb89901","219.142.99.8","Mozilla/5.0 (Windows NT 10.0; Win64; x64) AppleWebKit/537.36 (KHTML, like Gecko) Chrome/106.0.0.0 Safari/537.36 Edg/106.0.1370.42","WebKit","Edge","106.0.1370.42","Windows","10.0","null","<div style=""font-size:60px;"">+</div>","null",""
"","","","","","html-button-response","129","382616","0.0-4.0-1.62","256","1","2022-10-13 06:16:00","ebf9627b049f568eb4bf28942cb89901","219.142.99.8","Mozilla/5.0 (Windows NT 10.0; Win64; x64) AppleWebKit/537.36 (KHTML, like Gecko) Chrome/106.0.0.0 Safari/537.36 Edg/106.0.1370.42","WebKit","Edge","106.0.1370.42","Windows","10.0","2422","<p>作为军队的指挥官，你可以选择发射导弹杀死 <strong>6名</strong> 敌国士兵，但会炸毁附近的 <strong>1棵</strong> 敌国树木。</p> <p>树木的照片如下图所示。</p> <p></p> <img src='stimuli/trees/6.png', style='max-width: 30%;'> </img> <p><strong>你是否选择发射武器？</strong></p>","0",""
"","","","","","html-keyboard-response","130","383630","0.0-4.0-0.63","256","1","2022-10-13 06:16:00","ebf9627b049f568eb4bf28942cb89901","219.142.99.8","Mozilla/5.0 (Windows NT 10.0; Win64; x64) AppleWebKit/537.36 (KHTML, like Gecko) Chrome/106.0.0.0 Safari/537.36 Edg/106.0.1370.42","WebKit","Edge","106.0.1370.42","Windows","10.0","null","<div style=""font-size:60px;"">+</div>","null",""
"","","","","","html-button-response","131","385660","0.0-4.0-1.63","256","1","2022-10-13 06:16:00","ebf9627b049f568eb4bf28942cb89901","219.142.99.8","Mozilla/5.0 (Windows NT 10.0; Win64; x64) AppleWebKit/537.36 (KHTML, like Gecko) Chrome/106.0.0.0 Safari/537.36 Edg/106.0.1370.42","WebKit","Edge","106.0.1370.42","Windows","10.0","2014","<p>作为军队的指挥官，你可以选择发射导弹杀死 <strong>7名</strong> 敌国士兵，但会误杀附近的 <strong>1名</strong> 敌国平民。</p> <p>平民照片如下图所示。</p> <p></p> <img src='stimuli/faces/NFM8.jpg', style='max-width: 30%;'> </img> <p><strong>你是否选择发射武器？</strong></p>","1",""
"","","","","","survey-multi-choice","132","405073","0.0-5.0","256","1","2022-10-13 06:16:00","ebf9627b049f568eb4bf28942cb89901","219.142.99.8","Mozilla/5.0 (Windows NT 10.0; Win64; x64) AppleWebKit/537.36 (KHTML, like Gecko) Chrome/106.0.0.0 Safari/537.36 Edg/106.0.1370.42","WebKit","Edge","106.0.1370.42","Windows","10.0","19407","","{""Attention1"":""""}","[0]"
"","","","","","html-button-response","133","410010","0.0-6.0","256","1","2022-10-13 06:16:00","ebf9627b049f568eb4bf28942cb89901","219.142.99.8","Mozilla/5.0 (Windows NT 10.0; Win64; x64) AppleWebKit/537.36 (KHTML, like Gecko) Chrome/106.0.0.0 Safari/537.36 Edg/106.0.1370.42","WebKit","Edge","106.0.1370.42","Windows","10.0","4929","<p style=""font-size:20px;font-weight:bold;"">恭喜！</p><p>你已经完成了实验的第一部分。</p><p>请休息放松一下，然后进入第二部分。</p><p>这部分大约需要10分钟。</p>","0",""
"","","","","","survey-text","134","449821","0.0-7.0","256","1","2022-10-13 06:16:00","ebf9627b049f568eb4bf28942cb89901","219.142.99.8","Mozilla/5.0 (Windows NT 10.0; Win64; x64) AppleWebKit/537.36 (KHTML, like Gecko) Chrome/106.0.0.0 Safari/537.36 Edg/106.0.1370.42","WebKit","Edge","106.0.1370.42","Windows","10.0","38758","","{""Age"":""22"",""Nation"":""中国"",""Born"":""河南省南阳市"",""Live"":""河南省南阳市"",""Ethnic"":""汉族"",""Alipay"":""15526651786""}",""
"","","","","","survey-multi-choice","135","469633","0.0-8.0","256","1","2022-10-13 06:16:00","ebf9627b049f568eb4bf28942cb89901","219.142.99.8","Mozilla/5.0 (Windows NT 10.0; Win64; x64) AppleWebKit/537.36 (KHTML, like Gecko) Chrome/106.0.0.0 Safari/537.36 Edg/106.0.1370.42","WebKit","Edge","106.0.1370.42","Windows","10.0","19805","","{""Gender"":""女"",""Education"":""本科毕业"",""Income"":""￥0-￥34,999"",""Children"":""0"",""Race"":""亚洲人""}","[0,1,2,3,4]"
"","","","","","survey-multi-select","136","482353","0.0-9.0","256","1","2022-10-13 06:16:00","ebf9627b049f568eb4bf28942cb89901","219.142.99.8","Mozilla/5.0 (Windows NT 10.0; Win64; x64) AppleWebKit/537.36 (KHTML, like Gecko) Chrome/106.0.0.0 Safari/537.36 Edg/106.0.1370.42","WebKit","Edge","106.0.1370.42","Windows","10.0","12706","","{""Marriage"":[""未婚""],""Religion"":[""无神论者"",""无宗教信仰""]}","[0,1]"
"","","","","","survey-multi-choice","137","500477","0.0-10.0","256","1","2022-10-13 06:16:00","ebf9627b049f568eb4bf28942cb89901","219.142.99.8","Mozilla/5.0 (Windows NT 10.0; Win64; x64) AppleWebKit/537.36 (KHTML, like Gecko) Chrome/106.0.0.0 Safari/537.36 Edg/106.0.1370.42","WebKit","Edge","106.0.1370.42","Windows","10.0","18116","","{""SES"":""6""}","[0]"
"","","","","","html-button-response","138","504720","0.0-11.0","256","1","2022-10-13 06:16:00","ebf9627b049f568eb4bf28942cb89901","219.142.99.8","Mozilla/5.0 (Windows NT 10.0; Win64; x64) AppleWebKit/537.36 (KHTML, like Gecko) Chrome/106.0.0.0 Safari/537.36 Edg/106.0.1370.42","WebKit","Edge","106.0.1370.42","Windows","10.0","4235","<p><strong>请判断下列陈述在多大程度上可以形容你？</p><p> (1 = ""和我一点都不像"" to 5 = ""非常像我"".)</strong></p>","0",""
"","","","","","survey-likert","139","554292","0.0-12.0","256","1","2022-10-13 06:16:00","ebf9627b049f568eb4bf28942cb89901","219.142.99.8","Mozilla/5.0 (Windows NT 10.0; Win64; x64) AppleWebKit/537.36 (KHTML, like Gecko) Chrome/106.0.0.0 Safari/537.36 Edg/106.0.1370.42","WebKit","Edge","106.0.1370.42","Windows","10.0","49566","","{""Aggression1"":1,""Aggression2"":3,""Aggression3"":4,""Aggression4"":0,""Aggression5"":3,""Aggression6"":1,""Aggression7"":1,""Aggression8"":0,""Aggression9"":3}","[0,1,2,3,4,5,6,7,8]"
"","","","","","html-button-response","140","556364","0.0-13.0","256","1","2022-10-13 06:16:00","ebf9627b049f568eb4bf28942cb89901","219.142.99.8","Mozilla/5.0 (Windows NT 10.0; Win64; x64) AppleWebKit/537.36 (KHTML, like Gecko) Chrome/106.0.0.0 Safari/537.36 Edg/106.0.1370.42","WebKit","Edge","106.0.1370.42","Windows","10.0","2065","<p><strong>请判断你在多大程度上同意下列陈述。</strong></p>","0",""
"","","","","","survey-likert","141","652089","0.0-14.0","256","1","2022-10-13 06:16:00","ebf9627b049f568eb4bf28942cb89901","219.142.99.8","Mozilla/5.0 (Windows NT 10.0; Win64; x64) AppleWebKit/537.36 (KHTML, like Gecko) Chrome/106.0.0.0 Safari/537.36 Edg/106.0.1370.42","WebKit","Edge","106.0.1370.42","Windows","10.0","95717","","{""scale26"":3,""scale12"":0,""scale11"":3,""scale13"":1,""scale25"":3,""scale2"":3,""scale16"":3,""scale15"":3,""scale3"":1,""scale6"":4,""scale21"":4,""scale7"":1,""scale27"":2,""scale10"":3,""scale9"":3,""scale17"":4,""scale19"":1,""scale5"":3,""scale8"":3,""scale1"":2,""scale28"":3,""scale18"":1,""scale24"":3,""scale22"":3,""scale23"":3,""scale4"":1,""scale20"":4,""scale14"":1}","[25,11,10,12,24,1,15,14,2,5,20,6,26,9,8,16,18,4,7,0,27,17,23,21,22,3,19,13]"
"","","","","","html-button-response","142","653577","0.0-15.0","256","1","2022-10-13 06:16:00","ebf9627b049f568eb4bf28942cb89901","219.142.99.8","Mozilla/5.0 (Windows NT 10.0; Win64; x64) AppleWebKit/537.36 (KHTML, like Gecko) Chrome/106.0.0.0 Safari/537.36 Edg/106.0.1370.42","WebKit","Edge","106.0.1370.42","Windows","10.0","1480","<p><strong>请判断你在多大程度上同意下列陈述。</strong></p>","0",""
"","","","","","survey-likert","143","712857","0.0-16.0","256","1","2022-10-13 06:16:00","ebf9627b049f568eb4bf28942cb89901","219.142.99.8","Mozilla/5.0 (Windows NT 10.0; Win64; x64) AppleWebKit/537.36 (KHTML, like Gecko) Chrome/106.0.0.0 Safari/537.36 Edg/106.0.1370.42","WebKit","Edge","106.0.1370.42","Windows","10.0","59272","","{""sdo6"":2,""sdo16"":4,""sdo2"":3,""sdo15"":4,""sdo4"":2,""sdo11"":5,""sdo7"":0,""sdo13"":6,""sdo5"":0,""sdo9"":3,""sdo14"":6,""sdo10"":4,""sdo12"":5,""sdo1"":0,""sdo3"":0,""sdo8"":1}","[5,15,1,14,3,10,6,12,4,8,13,9,11,0,2,7]"
"","","","","","html-button-response","144","714305","0.0-17.0","256","1","2022-10-13 06:16:00","ebf9627b049f568eb4bf28942cb89901","219.142.99.8","Mozilla/5.0 (Windows NT 10.0; Win64; x64) AppleWebKit/537.36 (KHTML, like Gecko) Chrome/106.0.0.0 Safari/537.36 Edg/106.0.1370.42","WebKit","Edge","106.0.1370.42","Windows","10.0","1439","<p><strong>请判断你在多大程度上同意下列陈述。</strong></p>","0",""
"","","","","","survey-likert","145","754887","0.0-18.0","256","1","2022-10-13 06:16:00","ebf9627b049f568eb4bf28942cb89901","219.142.99.8","Mozilla/5.0 (Windows NT 10.0; Win64; x64) AppleWebKit/537.36 (KHTML, like Gecko) Chrome/106.0.0.0 Safari/537.36 Edg/106.0.1370.42","WebKit","Edge","106.0.1370.42","Windows","10.0","40575","","{""caring1"":4,""liking1"":0,""caring2"":3,""protection1"":3,""liking2"":1,""caring3"":3,""protection2"":2,""liking3"":2,""protection3"":3,""caring4"":4,""liking4"":0,""protection4"":3,""caring5"":3,""liking5"":0,""protection5"":2}","[0,1,2,3,4,5,6,7,8,9,10,11,12,13,14]"
"","","","","","html-button-response","146","757449","0.0-19.0","256","1","2022-10-13 06:16:00","ebf9627b049f568eb4bf28942cb89901","219.142.99.8","Mozilla/5.0 (Windows NT 10.0; Win64; x64) AppleWebKit/537.36 (KHTML, like Gecko) Chrome/106.0.0.0 Safari/537.36 Edg/106.0.1370.42","WebKit","Edge","106.0.1370.42","Windows","10.0","2555","<p><strong>请判断下列场景中你的内心感受有多柔软。</strong></p>","0",""
"","","","","","survey-likert","147","785308","0.0-20.0","256","1","2022-10-13 06:16:00","ebf9627b049f568eb4bf28942cb89901","219.142.99.8","Mozilla/5.0 (Windows NT 10.0; Win64; x64) AppleWebKit/537.36 (KHTML, like Gecko) Chrome/106.0.0.0 Safari/537.36 Edg/106.0.1370.42","WebKit","Edge","106.0.1370.42","Windows","10.0","27853","","{""tenderness-positive1"":4,""tenderness-negative1"":3,""tenderness-negative2"":2,""tenderness-positive2"":3,""tenderness-positive3"":3,""tenderness-negative3"":2,""tenderness-positive4"":4,""tendereness-negative4"":3,""tendernness-negative5"":3,""tenderness-positive5"":4}","[0,1,2,3,4,5,6,7,8,9]"
"","","","","","survey-multi-choice","148","797311","0.0-21.0","256","1","2022-10-13 06:16:00","ebf9627b049f568eb4bf28942cb89901","219.142.99.8","Mozilla/5.0 (Windows NT 10.0; Win64; x64) AppleWebKit/537.36 (KHTML, like Gecko) Chrome/106.0.0.0 Safari/537.36 Edg/106.0.1370.42","WebKit","Edge","106.0.1370.42","Windows","10.0","11994","","{""Attention2"":""其他""}","[0]"
"","","","","","html-button-response","149","798864","0.0-22.0","256","1","2022-10-13 06:16:00","ebf9627b049f568eb4bf28942cb89901","219.142.99.8","Mozilla/5.0 (Windows NT 10.0; Win64; x64) AppleWebKit/537.36 (KHTML, like Gecko) Chrome/106.0.0.0 Safari/537.36 Edg/106.0.1370.42","WebKit","Edge","106.0.1370.42","Windows","10.0","1546","<p><strong>请判断你在多大程度上同意下列陈述。</strong></p>","0",""
"","","","","","survey-likert","150","891736","0.0-23.0","256","1","2022-10-13 06:16:00","ebf9627b049f568eb4bf28942cb89901","219.142.99.8","Mozilla/5.0 (Windows NT 10.0; Win64; x64) AppleWebKit/537.36 (KHTML, like Gecko) Chrome/106.0.0.0 Safari/537.36 Edg/106.0.1370.42","WebKit","Edge","106.0.1370.42","Windows","10.0","92865","","{""Nation5"":0,""Patri8"":4,""Patri11"":2,""Patri12"":3,""Nation7"":3,""Patri9"":1,""Patri2"":4,""Nation8"":1,""Patri10"":0,""Nation3"":0,""Patri7"":4,""Nation4"":0,""Patri5"":4,""Nation2"":4,""Patri6"":0,""Patri3"":4,""Patri1"":4,""Nation1"":1,""Nation6"":2,""Patri4"":4}","[16,7,10,11,18,8,1,19,9,14,6,15,4,13,5,2,0,12,17,3]"
"","","","","","html-button-response","151","893150","0.0-24.0","256","1","2022-10-13 06:16:00","ebf9627b049f568eb4bf28942cb89901","219.142.99.8","Mozilla/5.0 (Windows NT 10.0; Win64; x64) AppleWebKit/537.36 (KHTML, like Gecko) Chrome/106.0.0.0 Safari/537.36 Edg/106.0.1370.42","WebKit","Edge","106.0.1370.42","Windows","10.0","1406","<p><strong>请判断你在多大程度上同意下列陈述。</strong></p>","0",""
"","","","","","survey-likert","152","956487","0.0-25.0","256","1","2022-10-13 06:16:00","ebf9627b049f568eb4bf28942cb89901","219.142.99.8","Mozilla/5.0 (Windows NT 10.0; Win64; x64) AppleWebKit/537.36 (KHTML, like Gecko) Chrome/106.0.0.0 Safari/537.36 Edg/106.0.1370.42","WebKit","Edge","106.0.1370.42","Windows","10.0","63329","","{""hc2"":5,""vc1"":8,""hc3"":4,""hc1"":2,""vi3"":7,""Robot"":6,""vi4"":7,""hi3"":4,""hi4"":8,""vc3"":7,""vc4"":7,""hc4"":4,""hi2"":6,""vi2"":5,""hi1"":6,""vc2"":6,""vi1"":6}","[10,13,11,9,6,7,8,2,3,15,16,12,1,5,0,14,4]"
"","","","","","survey-text","153","967990","0.0-26.0","256","1","2022-10-13 06:16:00","ebf9627b049f568eb4bf28942cb89901","219.142.99.8","Mozilla/5.0 (Windows NT 10.0; Win64; x64) AppleWebKit/537.36 (KHTML, like Gecko) Chrome/106.0.0.0 Safari/537.36 Edg/106.0.1370.42","WebKit","Edge","106.0.1370.42","Windows","10.0","11477","","{""Comments"":""无""}",""
"","","","","","html-button-response","154","969314","0.0-27.0","256","1","2022-10-13 06:16:00","ebf9627b049f568eb4bf28942cb89901","219.142.99.8","Mozilla/5.0 (Windows NT 10.0; Win64; x64) AppleWebKit/537.36 (KHTML, like Gecko) Chrome/106.0.0.0 Safari/537.36 Edg/106.0.1370.42","WebKit","Edge","106.0.1370.42","Windows","10.0","1317","<strong><p>恭喜你完成了实验！</p><p>感谢您的参与。</p></strong>","0",""
