"success","timeout","failed_images","failed_audio","failed_video","trial_type","trial_index","time_elapsed","internal_node_id","run_id","condition","recorded_at","source_code_version","ip","user_agent","device","browser","browser_version","platform","platform_version","rt","stimulus","response","question_order"
"true","false","[]","[]","[]","preload","0","2365","0.0-0.0","252","1","2022-10-12 10:47:57","ebf9627b049f568eb4bf28942cb89901","140.250.209.136","Mozilla/5.0 (Macintosh; Intel Mac OS X 10_15_6) AppleWebKit/605.1.15 (KHTML, like Gecko) Version/15.6.1 Safari/605.1.15","Macintosh","Safari","15.6.1","OS X","10_15_6","","","",""
"true","","","","","fullscreen","1","4917","0.0-1.0","252","1","2022-10-12 10:47:57","ebf9627b049f568eb4bf28942cb89901","140.250.209.136","Mozilla/5.0 (Macintosh; Intel Mac OS X 10_15_6) AppleWebKit/605.1.15 (KHTML, like Gecko) Version/15.6.1 Safari/605.1.15","Macintosh","Safari","15.6.1","OS X","10_15_6","","","",""
"","","","","","html-button-response","2","26569","0.0-2.0","252","1","2022-10-12 10:47:57","ebf9627b049f568eb4bf28942cb89901","140.250.209.136","Mozilla/5.0 (Macintosh; Intel Mac OS X 10_15_6) AppleWebKit/605.1.15 (KHTML, like Gecko) Version/15.6.1 Safari/605.1.15","Macintosh","Safari","15.6.1","OS X","10_15_6","21645","<p style=""font-size:20px;font-weight:bold;"">实验知情同意书</p><p style=""text-align:left;""><strong>实验名称：</strong>社会冲突研究</p><p style=""text-align:left;""><strong>主要研究者：</strong>韩晓春副教授（北京师范大学心理学部）</p><p style=""text-align:left;""><strong>联系方式：</strong>发送邮件至xiaochun.han@bnu.edu.cn</p><p style=""text-align:left;""><strong>研究目的：</strong>研究旨在了解人类面对群体冲突时的决策方式，以及相关的心理学特质。实验调查大约需要20分钟。</p><p style=""text-align:left;""><strong>实验流程：</strong>实验包含两部分。第一部分呈现一系列群体冲突场景，请你决定如何对这些冲突进行反应，大约需要10分钟完成。第二部分包含一系列人口统计学信息收集和心理学问卷，大约需要10分钟完成。</p><p style=""text-align:left;""><strong>参加及退出规则：</strong>参加本实验完全取决于您的个人意愿。在参与过程中，您可以随时退出，并且不用承担任何后果。</p><p style=""text-align:left;""><strong>隐私：</strong>本实验完全匿名进行，不会收集您的姓名或其他能够识别您身份的信息。实验中收集的作答仅用作科学研究使用，可能会在学术期刊/书籍上发表，或者用于教学，您的数据未来可能会和其他研究者或实验室分享，但您的个人身份不会被识别。</p><p style=""text-align:left;""><strong>实验报酬：</strong>实验完成后，您将获得15元人民币报酬，以感谢您的时间和努力。调查问卷中包含几道题目用以测验您作答时的认真度。只有完成全部实验，并且正确回答认真度测验的被试才能获得实验报酬。实验报酬将通过支付宝转账发放。</p><p style=""text-align:left;font-size:20px;""><strong>如果您同意以上实验知情同意书的内容，请点击'同意并且开始实验'按钮；否则请关闭浏览器界面，退出实验。</strong></p>","0",""
"","","","","","html-button-response","3","50512","0.0-3.0","252","1","2022-10-12 10:47:57","ebf9627b049f568eb4bf28942cb89901","140.250.209.136","Mozilla/5.0 (Macintosh; Intel Mac OS X 10_15_6) AppleWebKit/605.1.15 (KHTML, like Gecko) Version/15.6.1 Safari/605.1.15","Macintosh","Safari","15.6.1","OS X","10_15_6","23941","<p ><strong>实验任务一：</strong></p><p>请想象你的国家与另一个国家发生了军事冲突。</p><p>你是国家军队的指挥官，你将如何在冲突中进行决策。</p><p>具体来说，作为军队指挥官，请你决定是否发射导弹进行打击。</p><p>接下来，你会面对一系列场景，请仔细阅读每个场景，然后进行决策。</p><p>这部分实验任务大约需要10分钟。</p><p><strong>实验过程中，请集中注意力。</strong></p>","0",""
"","","","","","html-keyboard-response","4","51517","0.0-4.0-0.0","252","1","2022-10-12 10:47:57","ebf9627b049f568eb4bf28942cb89901","140.250.209.136","Mozilla/5.0 (Macintosh; Intel Mac OS X 10_15_6) AppleWebKit/605.1.15 (KHTML, like Gecko) Version/15.6.1 Safari/605.1.15","Macintosh","Safari","15.6.1","OS X","10_15_6","null","<div style=""font-size:60px;"">+</div>","null",""
"","","","","","html-button-response","5","62541","0.0-4.0-1.0","252","1","2022-10-12 10:47:57","ebf9627b049f568eb4bf28942cb89901","140.250.209.136","Mozilla/5.0 (Macintosh; Intel Mac OS X 10_15_6) AppleWebKit/605.1.15 (KHTML, like Gecko) Version/15.6.1 Safari/605.1.15","Macintosh","Safari","15.6.1","OS X","10_15_6","11016","<p>作为军队的指挥官，你可以选择发射导弹杀死 <strong>10名</strong> 敌国士兵，但会误杀附近的 <strong>1名</strong> 敌国平民。</p> <p>平民照片如下图所示。</p> <p></p> <img src='stimuli/faces/NFM2.jpg', style='max-width: 30%;'> </img> <p><strong>你是否选择发射武器？</strong></p>","0",""
"","","","","","html-keyboard-response","6","63547","0.0-4.0-0.1","252","1","2022-10-12 10:47:57","ebf9627b049f568eb4bf28942cb89901","140.250.209.136","Mozilla/5.0 (Macintosh; Intel Mac OS X 10_15_6) AppleWebKit/605.1.15 (KHTML, like Gecko) Version/15.6.1 Safari/605.1.15","Macintosh","Safari","15.6.1","OS X","10_15_6","null","<div style=""font-size:60px;"">+</div>","null",""
"","","","","","html-button-response","7","71052","0.0-4.0-1.1","252","1","2022-10-12 10:47:57","ebf9627b049f568eb4bf28942cb89901","140.250.209.136","Mozilla/5.0 (Macintosh; Intel Mac OS X 10_15_6) AppleWebKit/605.1.15 (KHTML, like Gecko) Version/15.6.1 Safari/605.1.15","Macintosh","Safari","15.6.1","OS X","10_15_6","7498","<p>作为军队的指挥官，你可以选择发射导弹杀死 <strong>5名</strong> 敌国士兵，但会炸毁附近的 <strong>1棵</strong> 敌国树木。</p> <p>树木的照片如下图所示。</p> <p></p> <img src='stimuli/trees/5.png', style='max-width: 30%;'> </img> <p><strong>你是否选择发射武器？</strong></p>","0",""
"","","","","","html-keyboard-response","8","72056","0.0-4.0-0.2","252","1","2022-10-12 10:47:57","ebf9627b049f568eb4bf28942cb89901","140.250.209.136","Mozilla/5.0 (Macintosh; Intel Mac OS X 10_15_6) AppleWebKit/605.1.15 (KHTML, like Gecko) Version/15.6.1 Safari/605.1.15","Macintosh","Safari","15.6.1","OS X","10_15_6","null","<div style=""font-size:60px;"">+</div>","null",""
"","","","","","html-button-response","9","79330","0.0-4.0-1.2","252","1","2022-10-12 10:47:57","ebf9627b049f568eb4bf28942cb89901","140.250.209.136","Mozilla/5.0 (Macintosh; Intel Mac OS X 10_15_6) AppleWebKit/605.1.15 (KHTML, like Gecko) Version/15.6.1 Safari/605.1.15","Macintosh","Safari","15.6.1","OS X","10_15_6","7265","<p>作为军队的指挥官，你可以选择发射导弹杀死 <strong>7名</strong> 敌国士兵，但会误杀附近的 <strong>1名</strong> 敌国平民。</p> <p>平民照片如下图所示。</p> <p></p> <img src='stimuli/faces/NFM6.jpg', style='max-width: 30%;'> </img> <p><strong>你是否选择发射武器？</strong></p>","0",""
"","","","","","html-keyboard-response","10","80335","0.0-4.0-0.3","252","1","2022-10-12 10:47:57","ebf9627b049f568eb4bf28942cb89901","140.250.209.136","Mozilla/5.0 (Macintosh; Intel Mac OS X 10_15_6) AppleWebKit/605.1.15 (KHTML, like Gecko) Version/15.6.1 Safari/605.1.15","Macintosh","Safari","15.6.1","OS X","10_15_6","null","<div style=""font-size:60px;"">+</div>","null",""
"","","","","","html-button-response","11","83190","0.0-4.0-1.3","252","1","2022-10-12 10:47:57","ebf9627b049f568eb4bf28942cb89901","140.250.209.136","Mozilla/5.0 (Macintosh; Intel Mac OS X 10_15_6) AppleWebKit/605.1.15 (KHTML, like Gecko) Version/15.6.1 Safari/605.1.15","Macintosh","Safari","15.6.1","OS X","10_15_6","2847","<p>作为军队的指挥官，你可以选择发射导弹杀死 <strong>7名</strong> 敌国士兵，但会炸毁附近的 <strong>1棵</strong> 敌国树木。</p> <p>树木的照片如下图所示。</p> <p></p> <img src='stimuli/trees/6.png', style='max-width: 30%;'> </img> <p><strong>你是否选择发射武器？</strong></p>","0",""
"","","","","","html-keyboard-response","12","84196","0.0-4.0-0.4","252","1","2022-10-12 10:47:57","ebf9627b049f568eb4bf28942cb89901","140.250.209.136","Mozilla/5.0 (Macintosh; Intel Mac OS X 10_15_6) AppleWebKit/605.1.15 (KHTML, like Gecko) Version/15.6.1 Safari/605.1.15","Macintosh","Safari","15.6.1","OS X","10_15_6","null","<div style=""font-size:60px;"">+</div>","null",""
"","","","","","html-button-response","13","96237","0.0-4.0-1.4","252","1","2022-10-12 10:47:57","ebf9627b049f568eb4bf28942cb89901","140.250.209.136","Mozilla/5.0 (Macintosh; Intel Mac OS X 10_15_6) AppleWebKit/605.1.15 (KHTML, like Gecko) Version/15.6.1 Safari/605.1.15","Macintosh","Safari","15.6.1","OS X","10_15_6","12033","<p>作为军队的指挥官，你可以选择发射导弹杀死 <strong>5名</strong> 敌国士兵，但会炸毁附近的 <strong>1棵</strong> 敌国树木。</p> <p>树木的照片如下图所示。</p> <p></p> <img src='stimuli/trees/11.png', style='max-width: 30%;'> </img> <p><strong>你是否选择发射武器？</strong></p>","0",""
"","","","","","html-keyboard-response","14","97241","0.0-4.0-0.5","252","1","2022-10-12 10:47:57","ebf9627b049f568eb4bf28942cb89901","140.250.209.136","Mozilla/5.0 (Macintosh; Intel Mac OS X 10_15_6) AppleWebKit/605.1.15 (KHTML, like Gecko) Version/15.6.1 Safari/605.1.15","Macintosh","Safari","15.6.1","OS X","10_15_6","null","<div style=""font-size:60px;"">+</div>","null",""
"","","","","","html-button-response","15","98768","0.0-4.0-1.5","252","1","2022-10-12 10:47:57","ebf9627b049f568eb4bf28942cb89901","140.250.209.136","Mozilla/5.0 (Macintosh; Intel Mac OS X 10_15_6) AppleWebKit/605.1.15 (KHTML, like Gecko) Version/15.6.1 Safari/605.1.15","Macintosh","Safari","15.6.1","OS X","10_15_6","1517","<p>作为军队的指挥官，你可以选择发射导弹杀死 <strong>1名</strong> 敌国士兵，但会炸毁附近的 <strong>1棵</strong> 敌国树木。</p> <p>树木的照片如下图所示。</p> <p></p> <img src='stimuli/trees/12.png', style='max-width: 30%;'> </img> <p><strong>你是否选择发射武器？</strong></p>","1",""
"","","","","","html-keyboard-response","16","99772","0.0-4.0-0.6","252","1","2022-10-12 10:47:57","ebf9627b049f568eb4bf28942cb89901","140.250.209.136","Mozilla/5.0 (Macintosh; Intel Mac OS X 10_15_6) AppleWebKit/605.1.15 (KHTML, like Gecko) Version/15.6.1 Safari/605.1.15","Macintosh","Safari","15.6.1","OS X","10_15_6","null","<div style=""font-size:60px;"">+</div>","null",""
"","","","","","html-button-response","17","101847","0.0-4.0-1.6","252","1","2022-10-12 10:47:57","ebf9627b049f568eb4bf28942cb89901","140.250.209.136","Mozilla/5.0 (Macintosh; Intel Mac OS X 10_15_6) AppleWebKit/605.1.15 (KHTML, like Gecko) Version/15.6.1 Safari/605.1.15","Macintosh","Safari","15.6.1","OS X","10_15_6","2066","<p>作为军队的指挥官，你可以选择发射导弹杀死 <strong>5名</strong> 敌国士兵，但会炸毁附近的 <strong>1棵</strong> 敌国树木。</p> <p>树木的照片如下图所示。</p> <p></p> <img src='stimuli/trees/9.png', style='max-width: 30%;'> </img> <p><strong>你是否选择发射武器？</strong></p>","0",""
"","","","","","html-keyboard-response","18","102851","0.0-4.0-0.7","252","1","2022-10-12 10:47:57","ebf9627b049f568eb4bf28942cb89901","140.250.209.136","Mozilla/5.0 (Macintosh; Intel Mac OS X 10_15_6) AppleWebKit/605.1.15 (KHTML, like Gecko) Version/15.6.1 Safari/605.1.15","Macintosh","Safari","15.6.1","OS X","10_15_6","null","<div style=""font-size:60px;"">+</div>","null",""
"","","","","","html-button-response","19","104216","0.0-4.0-1.7","252","1","2022-10-12 10:47:57","ebf9627b049f568eb4bf28942cb89901","140.250.209.136","Mozilla/5.0 (Macintosh; Intel Mac OS X 10_15_6) AppleWebKit/605.1.15 (KHTML, like Gecko) Version/15.6.1 Safari/605.1.15","Macintosh","Safari","15.6.1","OS X","10_15_6","1356","<p>作为军队的指挥官，你可以选择发射导弹杀死 <strong>6名</strong> 敌国士兵，但会误杀附近的 <strong>1名</strong> 敌国平民。</p> <p>平民照片如下图所示。</p> <p></p> <img src='stimuli/faces/NFM3.jpg', style='max-width: 30%;'> </img> <p><strong>你是否选择发射武器？</strong></p>","0",""
"","","","","","html-keyboard-response","20","105221","0.0-4.0-0.8","252","1","2022-10-12 10:47:57","ebf9627b049f568eb4bf28942cb89901","140.250.209.136","Mozilla/5.0 (Macintosh; Intel Mac OS X 10_15_6) AppleWebKit/605.1.15 (KHTML, like Gecko) Version/15.6.1 Safari/605.1.15","Macintosh","Safari","15.6.1","OS X","10_15_6","null","<div style=""font-size:60px;"">+</div>","null",""
"","","","","","html-button-response","21","106709","0.0-4.0-1.8","252","1","2022-10-12 10:47:57","ebf9627b049f568eb4bf28942cb89901","140.250.209.136","Mozilla/5.0 (Macintosh; Intel Mac OS X 10_15_6) AppleWebKit/605.1.15 (KHTML, like Gecko) Version/15.6.1 Safari/605.1.15","Macintosh","Safari","15.6.1","OS X","10_15_6","1479","<p>作为军队的指挥官，你可以选择发射导弹杀死 <strong>7名</strong> 敌国士兵，但会炸毁附近的 <strong>1棵</strong> 敌国树木。</p> <p>树木的照片如下图所示。</p> <p></p> <img src='stimuli/trees/9.png', style='max-width: 30%;'> </img> <p><strong>你是否选择发射武器？</strong></p>","0",""
"","","","","","html-keyboard-response","22","107714","0.0-4.0-0.9","252","1","2022-10-12 10:47:57","ebf9627b049f568eb4bf28942cb89901","140.250.209.136","Mozilla/5.0 (Macintosh; Intel Mac OS X 10_15_6) AppleWebKit/605.1.15 (KHTML, like Gecko) Version/15.6.1 Safari/605.1.15","Macintosh","Safari","15.6.1","OS X","10_15_6","null","<div style=""font-size:60px;"">+</div>","null",""
"","","","","","html-button-response","23","109150","0.0-4.0-1.9","252","1","2022-10-12 10:47:57","ebf9627b049f568eb4bf28942cb89901","140.250.209.136","Mozilla/5.0 (Macintosh; Intel Mac OS X 10_15_6) AppleWebKit/605.1.15 (KHTML, like Gecko) Version/15.6.1 Safari/605.1.15","Macintosh","Safari","15.6.1","OS X","10_15_6","1427","<p>作为军队的指挥官，你可以选择发射导弹杀死 <strong>9名</strong> 敌国士兵，但会误杀附近的 <strong>1名</strong> 敌国平民。</p> <p>平民照片如下图所示。</p> <p></p> <img src='stimuli/faces/NFM7.jpg', style='max-width: 30%;'> </img> <p><strong>你是否选择发射武器？</strong></p>","0",""
"","","","","","html-keyboard-response","24","110154","0.0-4.0-0.10","252","1","2022-10-12 10:47:57","ebf9627b049f568eb4bf28942cb89901","140.250.209.136","Mozilla/5.0 (Macintosh; Intel Mac OS X 10_15_6) AppleWebKit/605.1.15 (KHTML, like Gecko) Version/15.6.1 Safari/605.1.15","Macintosh","Safari","15.6.1","OS X","10_15_6","null","<div style=""font-size:60px;"">+</div>","null",""
"","","","","","html-button-response","25","111443","0.0-4.0-1.10","252","1","2022-10-12 10:47:57","ebf9627b049f568eb4bf28942cb89901","140.250.209.136","Mozilla/5.0 (Macintosh; Intel Mac OS X 10_15_6) AppleWebKit/605.1.15 (KHTML, like Gecko) Version/15.6.1 Safari/605.1.15","Macintosh","Safari","15.6.1","OS X","10_15_6","1279","<p>作为军队的指挥官，你可以选择发射导弹杀死 <strong>5名</strong> 敌国士兵，但会炸毁附近的 <strong>1棵</strong> 敌国树木。</p> <p>树木的照片如下图所示。</p> <p></p> <img src='stimuli/trees/2.png', style='max-width: 30%;'> </img> <p><strong>你是否选择发射武器？</strong></p>","0",""
"","","","","","html-keyboard-response","26","112447","0.0-4.0-0.11","252","1","2022-10-12 10:47:57","ebf9627b049f568eb4bf28942cb89901","140.250.209.136","Mozilla/5.0 (Macintosh; Intel Mac OS X 10_15_6) AppleWebKit/605.1.15 (KHTML, like Gecko) Version/15.6.1 Safari/605.1.15","Macintosh","Safari","15.6.1","OS X","10_15_6","null","<div style=""font-size:60px;"">+</div>","null",""
"","","","","","html-button-response","27","114069","0.0-4.0-1.11","252","1","2022-10-12 10:47:57","ebf9627b049f568eb4bf28942cb89901","140.250.209.136","Mozilla/5.0 (Macintosh; Intel Mac OS X 10_15_6) AppleWebKit/605.1.15 (KHTML, like Gecko) Version/15.6.1 Safari/605.1.15","Macintosh","Safari","15.6.1","OS X","10_15_6","1613","<p>作为军队的指挥官，你可以选择发射导弹杀死 <strong>2名</strong> 敌国士兵，但会误杀附近的 <strong>1名</strong> 敌国平民。</p> <p>平民照片如下图所示。</p> <p></p> <img src='stimuli/faces/NFF2.jpg', style='max-width: 30%;'> </img> <p><strong>你是否选择发射武器？</strong></p>","1",""
"","","","","","html-keyboard-response","28","115075","0.0-4.0-0.12","252","1","2022-10-12 10:47:57","ebf9627b049f568eb4bf28942cb89901","140.250.209.136","Mozilla/5.0 (Macintosh; Intel Mac OS X 10_15_6) AppleWebKit/605.1.15 (KHTML, like Gecko) Version/15.6.1 Safari/605.1.15","Macintosh","Safari","15.6.1","OS X","10_15_6","null","<div style=""font-size:60px;"">+</div>","null",""
"","","","","","html-button-response","29","116562","0.0-4.0-1.12","252","1","2022-10-12 10:47:57","ebf9627b049f568eb4bf28942cb89901","140.250.209.136","Mozilla/5.0 (Macintosh; Intel Mac OS X 10_15_6) AppleWebKit/605.1.15 (KHTML, like Gecko) Version/15.6.1 Safari/605.1.15","Macintosh","Safari","15.6.1","OS X","10_15_6","1479","<p>作为军队的指挥官，你可以选择发射导弹杀死 <strong>6名</strong> 敌国士兵，但会炸毁附近的 <strong>1棵</strong> 敌国树木。</p> <p>树木的照片如下图所示。</p> <p></p> <img src='stimuli/trees/14.png', style='max-width: 30%;'> </img> <p><strong>你是否选择发射武器？</strong></p>","0",""
"","","","","","html-keyboard-response","30","117566","0.0-4.0-0.13","252","1","2022-10-12 10:47:57","ebf9627b049f568eb4bf28942cb89901","140.250.209.136","Mozilla/5.0 (Macintosh; Intel Mac OS X 10_15_6) AppleWebKit/605.1.15 (KHTML, like Gecko) Version/15.6.1 Safari/605.1.15","Macintosh","Safari","15.6.1","OS X","10_15_6","null","<div style=""font-size:60px;"">+</div>","null",""
"","","","","","html-button-response","31","118745","0.0-4.0-1.13","252","1","2022-10-12 10:47:57","ebf9627b049f568eb4bf28942cb89901","140.250.209.136","Mozilla/5.0 (Macintosh; Intel Mac OS X 10_15_6) AppleWebKit/605.1.15 (KHTML, like Gecko) Version/15.6.1 Safari/605.1.15","Macintosh","Safari","15.6.1","OS X","10_15_6","1171","<p>作为军队的指挥官，你可以选择发射导弹杀死 <strong>9名</strong> 敌国士兵，但会炸毁附近的 <strong>1棵</strong> 敌国树木。</p> <p>树木的照片如下图所示。</p> <p></p> <img src='stimuli/trees/11.png', style='max-width: 30%;'> </img> <p><strong>你是否选择发射武器？</strong></p>","0",""
"","","","","","html-keyboard-response","32","119748","0.0-4.0-0.14","252","1","2022-10-12 10:47:57","ebf9627b049f568eb4bf28942cb89901","140.250.209.136","Mozilla/5.0 (Macintosh; Intel Mac OS X 10_15_6) AppleWebKit/605.1.15 (KHTML, like Gecko) Version/15.6.1 Safari/605.1.15","Macintosh","Safari","15.6.1","OS X","10_15_6","null","<div style=""font-size:60px;"">+</div>","null",""
"","","","","","html-button-response","33","120932","0.0-4.0-1.14","252","1","2022-10-12 10:47:57","ebf9627b049f568eb4bf28942cb89901","140.250.209.136","Mozilla/5.0 (Macintosh; Intel Mac OS X 10_15_6) AppleWebKit/605.1.15 (KHTML, like Gecko) Version/15.6.1 Safari/605.1.15","Macintosh","Safari","15.6.1","OS X","10_15_6","1174","<p>作为军队的指挥官，你可以选择发射导弹杀死 <strong>4名</strong> 敌国士兵，但会误杀附近的 <strong>1名</strong> 敌国平民。</p> <p>平民照片如下图所示。</p> <p></p> <img src='stimuli/faces/NFM5.jpg', style='max-width: 30%;'> </img> <p><strong>你是否选择发射武器？</strong></p>","1",""
"","","","","","html-keyboard-response","34","121937","0.0-4.0-0.15","252","1","2022-10-12 10:47:57","ebf9627b049f568eb4bf28942cb89901","140.250.209.136","Mozilla/5.0 (Macintosh; Intel Mac OS X 10_15_6) AppleWebKit/605.1.15 (KHTML, like Gecko) Version/15.6.1 Safari/605.1.15","Macintosh","Safari","15.6.1","OS X","10_15_6","null","<div style=""font-size:60px;"">+</div>","null",""
"","","","","","html-button-response","35","123673","0.0-4.0-1.15","252","1","2022-10-12 10:47:57","ebf9627b049f568eb4bf28942cb89901","140.250.209.136","Mozilla/5.0 (Macintosh; Intel Mac OS X 10_15_6) AppleWebKit/605.1.15 (KHTML, like Gecko) Version/15.6.1 Safari/605.1.15","Macintosh","Safari","15.6.1","OS X","10_15_6","1727","<p>作为军队的指挥官，你可以选择发射导弹杀死 <strong>7名</strong> 敌国士兵，但会误杀附近的 <strong>1名</strong> 敌国平民。</p> <p>平民照片如下图所示。</p> <p></p> <img src='stimuli/faces/NFM5.jpg', style='max-width: 30%;'> </img> <p><strong>你是否选择发射武器？</strong></p>","0",""
"","","","","","html-keyboard-response","36","124677","0.0-4.0-0.16","252","1","2022-10-12 10:47:57","ebf9627b049f568eb4bf28942cb89901","140.250.209.136","Mozilla/5.0 (Macintosh; Intel Mac OS X 10_15_6) AppleWebKit/605.1.15 (KHTML, like Gecko) Version/15.6.1 Safari/605.1.15","Macintosh","Safari","15.6.1","OS X","10_15_6","null","<div style=""font-size:60px;"">+</div>","null",""
"","","","","","html-button-response","37","125906","0.0-4.0-1.16","252","1","2022-10-12 10:47:57","ebf9627b049f568eb4bf28942cb89901","140.250.209.136","Mozilla/5.0 (Macintosh; Intel Mac OS X 10_15_6) AppleWebKit/605.1.15 (KHTML, like Gecko) Version/15.6.1 Safari/605.1.15","Macintosh","Safari","15.6.1","OS X","10_15_6","1219","<p>作为军队的指挥官，你可以选择发射导弹杀死 <strong>1名</strong> 敌国士兵，但会误杀附近的 <strong>1名</strong> 敌国平民。</p> <p>平民照片如下图所示。</p> <p></p> <img src='stimuli/faces/NFM1.jpg', style='max-width: 30%;'> </img> <p><strong>你是否选择发射武器？</strong></p>","1",""
"","","","","","html-keyboard-response","38","126912","0.0-4.0-0.17","252","1","2022-10-12 10:47:57","ebf9627b049f568eb4bf28942cb89901","140.250.209.136","Mozilla/5.0 (Macintosh; Intel Mac OS X 10_15_6) AppleWebKit/605.1.15 (KHTML, like Gecko) Version/15.6.1 Safari/605.1.15","Macintosh","Safari","15.6.1","OS X","10_15_6","null","<div style=""font-size:60px;"">+</div>","null",""
"","","","","","html-button-response","39","128381","0.0-4.0-1.17","252","1","2022-10-12 10:47:57","ebf9627b049f568eb4bf28942cb89901","140.250.209.136","Mozilla/5.0 (Macintosh; Intel Mac OS X 10_15_6) AppleWebKit/605.1.15 (KHTML, like Gecko) Version/15.6.1 Safari/605.1.15","Macintosh","Safari","15.6.1","OS X","10_15_6","1461","<p>作为军队的指挥官，你可以选择发射导弹杀死 <strong>3名</strong> 敌国士兵，但会炸毁附近的 <strong>1棵</strong> 敌国树木。</p> <p>树木的照片如下图所示。</p> <p></p> <img src='stimuli/trees/10.png', style='max-width: 30%;'> </img> <p><strong>你是否选择发射武器？</strong></p>","1",""
"","","","","","html-keyboard-response","40","129385","0.0-4.0-0.18","252","1","2022-10-12 10:47:57","ebf9627b049f568eb4bf28942cb89901","140.250.209.136","Mozilla/5.0 (Macintosh; Intel Mac OS X 10_15_6) AppleWebKit/605.1.15 (KHTML, like Gecko) Version/15.6.1 Safari/605.1.15","Macintosh","Safari","15.6.1","OS X","10_15_6","null","<div style=""font-size:60px;"">+</div>","null",""
"","","","","","html-button-response","41","130225","0.0-4.0-1.18","252","1","2022-10-12 10:47:57","ebf9627b049f568eb4bf28942cb89901","140.250.209.136","Mozilla/5.0 (Macintosh; Intel Mac OS X 10_15_6) AppleWebKit/605.1.15 (KHTML, like Gecko) Version/15.6.1 Safari/605.1.15","Macintosh","Safari","15.6.1","OS X","10_15_6","830","<p>作为军队的指挥官，你可以选择发射导弹杀死 <strong>5名</strong> 敌国士兵，但会误杀附近的 <strong>1名</strong> 敌国平民。</p> <p>平民照片如下图所示。</p> <p></p> <img src='stimuli/faces/NFF5.jpg', style='max-width: 30%;'> </img> <p><strong>你是否选择发射武器？</strong></p>","0",""
"","","","","","html-keyboard-response","42","131230","0.0-4.0-0.19","252","1","2022-10-12 10:47:57","ebf9627b049f568eb4bf28942cb89901","140.250.209.136","Mozilla/5.0 (Macintosh; Intel Mac OS X 10_15_6) AppleWebKit/605.1.15 (KHTML, like Gecko) Version/15.6.1 Safari/605.1.15","Macintosh","Safari","15.6.1","OS X","10_15_6","null","<div style=""font-size:60px;"">+</div>","null",""
"","","","","","html-button-response","43","132234","0.0-4.0-1.19","252","1","2022-10-12 10:47:57","ebf9627b049f568eb4bf28942cb89901","140.250.209.136","Mozilla/5.0 (Macintosh; Intel Mac OS X 10_15_6) AppleWebKit/605.1.15 (KHTML, like Gecko) Version/15.6.1 Safari/605.1.15","Macintosh","Safari","15.6.1","OS X","10_15_6","996","<p>作为军队的指挥官，你可以选择发射导弹杀死 <strong>8名</strong> 敌国士兵，但会炸毁附近的 <strong>1棵</strong> 敌国树木。</p> <p>树木的照片如下图所示。</p> <p></p> <img src='stimuli/trees/2.png', style='max-width: 30%;'> </img> <p><strong>你是否选择发射武器？</strong></p>","0",""
"","","","","","html-keyboard-response","44","133239","0.0-4.0-0.20","252","1","2022-10-12 10:47:57","ebf9627b049f568eb4bf28942cb89901","140.250.209.136","Mozilla/5.0 (Macintosh; Intel Mac OS X 10_15_6) AppleWebKit/605.1.15 (KHTML, like Gecko) Version/15.6.1 Safari/605.1.15","Macintosh","Safari","15.6.1","OS X","10_15_6","null","<div style=""font-size:60px;"">+</div>","null",""
"","","","","","html-button-response","45","134687","0.0-4.0-1.20","252","1","2022-10-12 10:47:57","ebf9627b049f568eb4bf28942cb89901","140.250.209.136","Mozilla/5.0 (Macintosh; Intel Mac OS X 10_15_6) AppleWebKit/605.1.15 (KHTML, like Gecko) Version/15.6.1 Safari/605.1.15","Macintosh","Safari","15.6.1","OS X","10_15_6","1439","<p>作为军队的指挥官，你可以选择发射导弹杀死 <strong>6名</strong> 敌国士兵，但会误杀附近的 <strong>1名</strong> 敌国平民。</p> <p>平民照片如下图所示。</p> <p></p> <img src='stimuli/faces/NFF4.jpg', style='max-width: 30%;'> </img> <p><strong>你是否选择发射武器？</strong></p>","0",""
"","","","","","html-keyboard-response","46","135693","0.0-4.0-0.21","252","1","2022-10-12 10:47:57","ebf9627b049f568eb4bf28942cb89901","140.250.209.136","Mozilla/5.0 (Macintosh; Intel Mac OS X 10_15_6) AppleWebKit/605.1.15 (KHTML, like Gecko) Version/15.6.1 Safari/605.1.15","Macintosh","Safari","15.6.1","OS X","10_15_6","null","<div style=""font-size:60px;"">+</div>","null",""
"","","","","","html-button-response","47","141814","0.0-4.0-1.21","252","1","2022-10-12 10:47:57","ebf9627b049f568eb4bf28942cb89901","140.250.209.136","Mozilla/5.0 (Macintosh; Intel Mac OS X 10_15_6) AppleWebKit/605.1.15 (KHTML, like Gecko) Version/15.6.1 Safari/605.1.15","Macintosh","Safari","15.6.1","OS X","10_15_6","6111","<p>作为军队的指挥官，你可以选择发射导弹杀死 <strong>5名</strong> 敌国士兵，但会炸毁附近的 <strong>1棵</strong> 敌国树木。</p> <p>树木的照片如下图所示。</p> <p></p> <img src='stimuli/trees/1.png', style='max-width: 30%;'> </img> <p><strong>你是否选择发射武器？</strong></p>","0",""
"","","","","","html-keyboard-response","48","142817","0.0-4.0-0.22","252","1","2022-10-12 10:47:57","ebf9627b049f568eb4bf28942cb89901","140.250.209.136","Mozilla/5.0 (Macintosh; Intel Mac OS X 10_15_6) AppleWebKit/605.1.15 (KHTML, like Gecko) Version/15.6.1 Safari/605.1.15","Macintosh","Safari","15.6.1","OS X","10_15_6","null","<div style=""font-size:60px;"">+</div>","null",""
"","","","","","html-button-response","49","144555","0.0-4.0-1.22","252","1","2022-10-12 10:47:57","ebf9627b049f568eb4bf28942cb89901","140.250.209.136","Mozilla/5.0 (Macintosh; Intel Mac OS X 10_15_6) AppleWebKit/605.1.15 (KHTML, like Gecko) Version/15.6.1 Safari/605.1.15","Macintosh","Safari","15.6.1","OS X","10_15_6","1730","<p>作为军队的指挥官，你可以选择发射导弹杀死 <strong>9名</strong> 敌国士兵，但会炸毁附近的 <strong>1棵</strong> 敌国树木。</p> <p>树木的照片如下图所示。</p> <p></p> <img src='stimuli/trees/15.png', style='max-width: 30%;'> </img> <p><strong>你是否选择发射武器？</strong></p>","0",""
"","","","","","html-keyboard-response","50","145559","0.0-4.0-0.23","252","1","2022-10-12 10:47:57","ebf9627b049f568eb4bf28942cb89901","140.250.209.136","Mozilla/5.0 (Macintosh; Intel Mac OS X 10_15_6) AppleWebKit/605.1.15 (KHTML, like Gecko) Version/15.6.1 Safari/605.1.15","Macintosh","Safari","15.6.1","OS X","10_15_6","null","<div style=""font-size:60px;"">+</div>","null",""
"","","","","","html-button-response","51","153077","0.0-4.0-1.23","252","1","2022-10-12 10:47:57","ebf9627b049f568eb4bf28942cb89901","140.250.209.136","Mozilla/5.0 (Macintosh; Intel Mac OS X 10_15_6) AppleWebKit/605.1.15 (KHTML, like Gecko) Version/15.6.1 Safari/605.1.15","Macintosh","Safari","15.6.1","OS X","10_15_6","7509","<p>作为军队的指挥官，你可以选择发射导弹杀死 <strong>4名</strong> 敌国士兵，但会误杀附近的 <strong>1名</strong> 敌国平民。</p> <p>平民照片如下图所示。</p> <p></p> <img src='stimuli/faces/NFF7.jpg', style='max-width: 30%;'> </img> <p><strong>你是否选择发射武器？</strong></p>","1",""
"","","","","","html-keyboard-response","52","154081","0.0-4.0-0.24","252","1","2022-10-12 10:47:57","ebf9627b049f568eb4bf28942cb89901","140.250.209.136","Mozilla/5.0 (Macintosh; Intel Mac OS X 10_15_6) AppleWebKit/605.1.15 (KHTML, like Gecko) Version/15.6.1 Safari/605.1.15","Macintosh","Safari","15.6.1","OS X","10_15_6","null","<div style=""font-size:60px;"">+</div>","null",""
"","","","","","html-button-response","53","157919","0.0-4.0-1.24","252","1","2022-10-12 10:47:57","ebf9627b049f568eb4bf28942cb89901","140.250.209.136","Mozilla/5.0 (Macintosh; Intel Mac OS X 10_15_6) AppleWebKit/605.1.15 (KHTML, like Gecko) Version/15.6.1 Safari/605.1.15","Macintosh","Safari","15.6.1","OS X","10_15_6","3827","<p>作为军队的指挥官，你可以选择发射导弹杀死 <strong>7名</strong> 敌国士兵，但会误杀附近的 <strong>1名</strong> 敌国平民。</p> <p>平民照片如下图所示。</p> <p></p> <img src='stimuli/faces/NFF6.jpg', style='max-width: 30%;'> </img> <p><strong>你是否选择发射武器？</strong></p>","0",""
"","","","","","html-keyboard-response","54","158924","0.0-4.0-0.25","252","1","2022-10-12 10:47:57","ebf9627b049f568eb4bf28942cb89901","140.250.209.136","Mozilla/5.0 (Macintosh; Intel Mac OS X 10_15_6) AppleWebKit/605.1.15 (KHTML, like Gecko) Version/15.6.1 Safari/605.1.15","Macintosh","Safari","15.6.1","OS X","10_15_6","null","<div style=""font-size:60px;"">+</div>","null",""
"","","","","","html-button-response","55","159895","0.0-4.0-1.25","252","1","2022-10-12 10:47:57","ebf9627b049f568eb4bf28942cb89901","140.250.209.136","Mozilla/5.0 (Macintosh; Intel Mac OS X 10_15_6) AppleWebKit/605.1.15 (KHTML, like Gecko) Version/15.6.1 Safari/605.1.15","Macintosh","Safari","15.6.1","OS X","10_15_6","961","<p>作为军队的指挥官，你可以选择发射导弹杀死 <strong>1名</strong> 敌国士兵，但会误杀附近的 <strong>1名</strong> 敌国平民。</p> <p>平民照片如下图所示。</p> <p></p> <img src='stimuli/faces/NFF3.jpg', style='max-width: 30%;'> </img> <p><strong>你是否选择发射武器？</strong></p>","1",""
"","","","","","html-keyboard-response","56","160901","0.0-4.0-0.26","252","1","2022-10-12 10:47:57","ebf9627b049f568eb4bf28942cb89901","140.250.209.136","Mozilla/5.0 (Macintosh; Intel Mac OS X 10_15_6) AppleWebKit/605.1.15 (KHTML, like Gecko) Version/15.6.1 Safari/605.1.15","Macintosh","Safari","15.6.1","OS X","10_15_6","null","<div style=""font-size:60px;"">+</div>","null",""
"","","","","","html-button-response","57","162469","0.0-4.0-1.26","252","1","2022-10-12 10:47:57","ebf9627b049f568eb4bf28942cb89901","140.250.209.136","Mozilla/5.0 (Macintosh; Intel Mac OS X 10_15_6) AppleWebKit/605.1.15 (KHTML, like Gecko) Version/15.6.1 Safari/605.1.15","Macintosh","Safari","15.6.1","OS X","10_15_6","1560","<p>作为军队的指挥官，你可以选择发射导弹杀死 <strong>2名</strong> 敌国士兵，但会误杀附近的 <strong>1名</strong> 敌国平民。</p> <p>平民照片如下图所示。</p> <p></p> <img src='stimuli/faces/NFF8.jpg', style='max-width: 30%;'> </img> <p><strong>你是否选择发射武器？</strong></p>","1",""
"","","","","","html-keyboard-response","58","163474","0.0-4.0-0.27","252","1","2022-10-12 10:47:57","ebf9627b049f568eb4bf28942cb89901","140.250.209.136","Mozilla/5.0 (Macintosh; Intel Mac OS X 10_15_6) AppleWebKit/605.1.15 (KHTML, like Gecko) Version/15.6.1 Safari/605.1.15","Macintosh","Safari","15.6.1","OS X","10_15_6","null","<div style=""font-size:60px;"">+</div>","null",""
"","","","","","html-button-response","59","167331","0.0-4.0-1.27","252","1","2022-10-12 10:47:57","ebf9627b049f568eb4bf28942cb89901","140.250.209.136","Mozilla/5.0 (Macintosh; Intel Mac OS X 10_15_6) AppleWebKit/605.1.15 (KHTML, like Gecko) Version/15.6.1 Safari/605.1.15","Macintosh","Safari","15.6.1","OS X","10_15_6","3848","<p>作为军队的指挥官，你可以选择发射导弹杀死 <strong>6名</strong> 敌国士兵，但会炸毁附近的 <strong>1棵</strong> 敌国树木。</p> <p>树木的照片如下图所示。</p> <p></p> <img src='stimuli/trees/16.png', style='max-width: 30%;'> </img> <p><strong>你是否选择发射武器？</strong></p>","0",""
"","","","","","html-keyboard-response","60","168336","0.0-4.0-0.28","252","1","2022-10-12 10:47:57","ebf9627b049f568eb4bf28942cb89901","140.250.209.136","Mozilla/5.0 (Macintosh; Intel Mac OS X 10_15_6) AppleWebKit/605.1.15 (KHTML, like Gecko) Version/15.6.1 Safari/605.1.15","Macintosh","Safari","15.6.1","OS X","10_15_6","null","<div style=""font-size:60px;"">+</div>","null",""
"","","","","","html-button-response","61","169348","0.0-4.0-1.28","252","1","2022-10-12 10:47:57","ebf9627b049f568eb4bf28942cb89901","140.250.209.136","Mozilla/5.0 (Macintosh; Intel Mac OS X 10_15_6) AppleWebKit/605.1.15 (KHTML, like Gecko) Version/15.6.1 Safari/605.1.15","Macintosh","Safari","15.6.1","OS X","10_15_6","1002","<p>作为军队的指挥官，你可以选择发射导弹杀死 <strong>8名</strong> 敌国士兵，但会误杀附近的 <strong>1名</strong> 敌国平民。</p> <p>平民照片如下图所示。</p> <p></p> <img src='stimuli/faces/NFF8.jpg', style='max-width: 30%;'> </img> <p><strong>你是否选择发射武器？</strong></p>","0",""
"","","","","","html-keyboard-response","62","170353","0.0-4.0-0.29","252","1","2022-10-12 10:47:57","ebf9627b049f568eb4bf28942cb89901","140.250.209.136","Mozilla/5.0 (Macintosh; Intel Mac OS X 10_15_6) AppleWebKit/605.1.15 (KHTML, like Gecko) Version/15.6.1 Safari/605.1.15","Macintosh","Safari","15.6.1","OS X","10_15_6","null","<div style=""font-size:60px;"">+</div>","null",""
"","","","","","html-button-response","63","171725","0.0-4.0-1.29","252","1","2022-10-12 10:47:57","ebf9627b049f568eb4bf28942cb89901","140.250.209.136","Mozilla/5.0 (Macintosh; Intel Mac OS X 10_15_6) AppleWebKit/605.1.15 (KHTML, like Gecko) Version/15.6.1 Safari/605.1.15","Macintosh","Safari","15.6.1","OS X","10_15_6","1362","<p>作为军队的指挥官，你可以选择发射导弹杀死 <strong>9名</strong> 敌国士兵，但会炸毁附近的 <strong>1棵</strong> 敌国树木。</p> <p>树木的照片如下图所示。</p> <p></p> <img src='stimuli/trees/10.png', style='max-width: 30%;'> </img> <p><strong>你是否选择发射武器？</strong></p>","0",""
"","","","","","html-keyboard-response","64","172741","0.0-4.0-0.30","252","1","2022-10-12 10:47:57","ebf9627b049f568eb4bf28942cb89901","140.250.209.136","Mozilla/5.0 (Macintosh; Intel Mac OS X 10_15_6) AppleWebKit/605.1.15 (KHTML, like Gecko) Version/15.6.1 Safari/605.1.15","Macintosh","Safari","15.6.1","OS X","10_15_6","null","<div style=""font-size:60px;"">+</div>","null",""
"","","","","","html-button-response","65","173887","0.0-4.0-1.30","252","1","2022-10-12 10:47:57","ebf9627b049f568eb4bf28942cb89901","140.250.209.136","Mozilla/5.0 (Macintosh; Intel Mac OS X 10_15_6) AppleWebKit/605.1.15 (KHTML, like Gecko) Version/15.6.1 Safari/605.1.15","Macintosh","Safari","15.6.1","OS X","10_15_6","1133","<p>作为军队的指挥官，你可以选择发射导弹杀死 <strong>8名</strong> 敌国士兵，但会误杀附近的 <strong>1名</strong> 敌国平民。</p> <p>平民照片如下图所示。</p> <p></p> <img src='stimuli/faces/NFM4.jpg', style='max-width: 30%;'> </img> <p><strong>你是否选择发射武器？</strong></p>","0",""
"","","","","","html-keyboard-response","66","174892","0.0-4.0-0.31","252","1","2022-10-12 10:47:57","ebf9627b049f568eb4bf28942cb89901","140.250.209.136","Mozilla/5.0 (Macintosh; Intel Mac OS X 10_15_6) AppleWebKit/605.1.15 (KHTML, like Gecko) Version/15.6.1 Safari/605.1.15","Macintosh","Safari","15.6.1","OS X","10_15_6","null","<div style=""font-size:60px;"">+</div>","null",""
"","","","","","html-button-response","67","175835","0.0-4.0-1.31","252","1","2022-10-12 10:47:57","ebf9627b049f568eb4bf28942cb89901","140.250.209.136","Mozilla/5.0 (Macintosh; Intel Mac OS X 10_15_6) AppleWebKit/605.1.15 (KHTML, like Gecko) Version/15.6.1 Safari/605.1.15","Macintosh","Safari","15.6.1","OS X","10_15_6","933","<p>作为军队的指挥官，你可以选择发射导弹杀死 <strong>9名</strong> 敌国士兵，但会炸毁附近的 <strong>1棵</strong> 敌国树木。</p> <p>树木的照片如下图所示。</p> <p></p> <img src='stimuli/trees/12.png', style='max-width: 30%;'> </img> <p><strong>你是否选择发射武器？</strong></p>","0",""
"","","","","","html-keyboard-response","68","176840","0.0-4.0-0.32","252","1","2022-10-12 10:47:57","ebf9627b049f568eb4bf28942cb89901","140.250.209.136","Mozilla/5.0 (Macintosh; Intel Mac OS X 10_15_6) AppleWebKit/605.1.15 (KHTML, like Gecko) Version/15.6.1 Safari/605.1.15","Macintosh","Safari","15.6.1","OS X","10_15_6","null","<div style=""font-size:60px;"">+</div>","null",""
"","","","","","html-button-response","69","177867","0.0-4.0-1.32","252","1","2022-10-12 10:47:57","ebf9627b049f568eb4bf28942cb89901","140.250.209.136","Mozilla/5.0 (Macintosh; Intel Mac OS X 10_15_6) AppleWebKit/605.1.15 (KHTML, like Gecko) Version/15.6.1 Safari/605.1.15","Macintosh","Safari","15.6.1","OS X","10_15_6","1018","<p>作为军队的指挥官，你可以选择发射导弹杀死 <strong>6名</strong> 敌国士兵，但会误杀附近的 <strong>1名</strong> 敌国平民。</p> <p>平民照片如下图所示。</p> <p></p> <img src='stimuli/faces/NFF5.jpg', style='max-width: 30%;'> </img> <p><strong>你是否选择发射武器？</strong></p>","0",""
"","","","","","html-keyboard-response","70","178871","0.0-4.0-0.33","252","1","2022-10-12 10:47:57","ebf9627b049f568eb4bf28942cb89901","140.250.209.136","Mozilla/5.0 (Macintosh; Intel Mac OS X 10_15_6) AppleWebKit/605.1.15 (KHTML, like Gecko) Version/15.6.1 Safari/605.1.15","Macintosh","Safari","15.6.1","OS X","10_15_6","null","<div style=""font-size:60px;"">+</div>","null",""
"","","","","","html-button-response","71","179994","0.0-4.0-1.33","252","1","2022-10-12 10:47:57","ebf9627b049f568eb4bf28942cb89901","140.250.209.136","Mozilla/5.0 (Macintosh; Intel Mac OS X 10_15_6) AppleWebKit/605.1.15 (KHTML, like Gecko) Version/15.6.1 Safari/605.1.15","Macintosh","Safari","15.6.1","OS X","10_15_6","1112","<p>作为军队的指挥官，你可以选择发射导弹杀死 <strong>5名</strong> 敌国士兵，但会炸毁附近的 <strong>1棵</strong> 敌国树木。</p> <p>树木的照片如下图所示。</p> <p></p> <img src='stimuli/trees/4.png', style='max-width: 30%;'> </img> <p><strong>你是否选择发射武器？</strong></p>","0",""
"","","","","","html-keyboard-response","72","180999","0.0-4.0-0.34","252","1","2022-10-12 10:47:57","ebf9627b049f568eb4bf28942cb89901","140.250.209.136","Mozilla/5.0 (Macintosh; Intel Mac OS X 10_15_6) AppleWebKit/605.1.15 (KHTML, like Gecko) Version/15.6.1 Safari/605.1.15","Macintosh","Safari","15.6.1","OS X","10_15_6","null","<div style=""font-size:60px;"">+</div>","null",""
"","","","","","html-button-response","73","182013","0.0-4.0-1.34","252","1","2022-10-12 10:47:57","ebf9627b049f568eb4bf28942cb89901","140.250.209.136","Mozilla/5.0 (Macintosh; Intel Mac OS X 10_15_6) AppleWebKit/605.1.15 (KHTML, like Gecko) Version/15.6.1 Safari/605.1.15","Macintosh","Safari","15.6.1","OS X","10_15_6","1001","<p>作为军队的指挥官，你可以选择发射导弹杀死 <strong>3名</strong> 敌国士兵，但会误杀附近的 <strong>1名</strong> 敌国平民。</p> <p>平民照片如下图所示。</p> <p></p> <img src='stimuli/faces/NFF6.jpg', style='max-width: 30%;'> </img> <p><strong>你是否选择发射武器？</strong></p>","1",""
"","","","","","html-keyboard-response","74","183020","0.0-4.0-0.35","252","1","2022-10-12 10:47:57","ebf9627b049f568eb4bf28942cb89901","140.250.209.136","Mozilla/5.0 (Macintosh; Intel Mac OS X 10_15_6) AppleWebKit/605.1.15 (KHTML, like Gecko) Version/15.6.1 Safari/605.1.15","Macintosh","Safari","15.6.1","OS X","10_15_6","null","<div style=""font-size:60px;"">+</div>","null",""
"","","","","","html-button-response","75","184478","0.0-4.0-1.35","252","1","2022-10-12 10:47:57","ebf9627b049f568eb4bf28942cb89901","140.250.209.136","Mozilla/5.0 (Macintosh; Intel Mac OS X 10_15_6) AppleWebKit/605.1.15 (KHTML, like Gecko) Version/15.6.1 Safari/605.1.15","Macintosh","Safari","15.6.1","OS X","10_15_6","1447","<p>作为军队的指挥官，你可以选择发射导弹杀死 <strong>10名</strong> 敌国士兵，但会误杀附近的 <strong>1名</strong> 敌国平民。</p> <p>平民照片如下图所示。</p> <p></p> <img src='stimuli/faces/NFM1.jpg', style='max-width: 30%;'> </img> <p><strong>你是否选择发射武器？</strong></p>","0",""
"","","","","","html-keyboard-response","76","185483","0.0-4.0-0.36","252","1","2022-10-12 10:47:57","ebf9627b049f568eb4bf28942cb89901","140.250.209.136","Mozilla/5.0 (Macintosh; Intel Mac OS X 10_15_6) AppleWebKit/605.1.15 (KHTML, like Gecko) Version/15.6.1 Safari/605.1.15","Macintosh","Safari","15.6.1","OS X","10_15_6","null","<div style=""font-size:60px;"">+</div>","null",""
"","","","","","html-button-response","77","186504","0.0-4.0-1.36","252","1","2022-10-12 10:47:57","ebf9627b049f568eb4bf28942cb89901","140.250.209.136","Mozilla/5.0 (Macintosh; Intel Mac OS X 10_15_6) AppleWebKit/605.1.15 (KHTML, like Gecko) Version/15.6.1 Safari/605.1.15","Macintosh","Safari","15.6.1","OS X","10_15_6","1010","<p>作为军队的指挥官，你可以选择发射导弹杀死 <strong>8名</strong> 敌国士兵，但会误杀附近的 <strong>1名</strong> 敌国平民。</p> <p>平民照片如下图所示。</p> <p></p> <img src='stimuli/faces/NFF1.jpg', style='max-width: 30%;'> </img> <p><strong>你是否选择发射武器？</strong></p>","0",""
"","","","","","html-keyboard-response","78","187508","0.0-4.0-0.37","252","1","2022-10-12 10:47:57","ebf9627b049f568eb4bf28942cb89901","140.250.209.136","Mozilla/5.0 (Macintosh; Intel Mac OS X 10_15_6) AppleWebKit/605.1.15 (KHTML, like Gecko) Version/15.6.1 Safari/605.1.15","Macintosh","Safari","15.6.1","OS X","10_15_6","null","<div style=""font-size:60px;"">+</div>","null",""
"","","","","","html-button-response","79","190481","0.0-4.0-1.37","252","1","2022-10-12 10:47:57","ebf9627b049f568eb4bf28942cb89901","140.250.209.136","Mozilla/5.0 (Macintosh; Intel Mac OS X 10_15_6) AppleWebKit/605.1.15 (KHTML, like Gecko) Version/15.6.1 Safari/605.1.15","Macintosh","Safari","15.6.1","OS X","10_15_6","2962","<p>作为军队的指挥官，你可以选择发射导弹杀死 <strong>7名</strong> 敌国士兵，但会炸毁附近的 <strong>1棵</strong> 敌国树木。</p> <p>树木的照片如下图所示。</p> <p></p> <img src='stimuli/trees/5.png', style='max-width: 30%;'> </img> <p><strong>你是否选择发射武器？</strong></p>","0",""
"","","","","","html-keyboard-response","80","191485","0.0-4.0-0.38","252","1","2022-10-12 10:47:57","ebf9627b049f568eb4bf28942cb89901","140.250.209.136","Mozilla/5.0 (Macintosh; Intel Mac OS X 10_15_6) AppleWebKit/605.1.15 (KHTML, like Gecko) Version/15.6.1 Safari/605.1.15","Macintosh","Safari","15.6.1","OS X","10_15_6","null","<div style=""font-size:60px;"">+</div>","null",""
"","","","","","html-button-response","81","192241","0.0-4.0-1.38","252","1","2022-10-12 10:47:57","ebf9627b049f568eb4bf28942cb89901","140.250.209.136","Mozilla/5.0 (Macintosh; Intel Mac OS X 10_15_6) AppleWebKit/605.1.15 (KHTML, like Gecko) Version/15.6.1 Safari/605.1.15","Macintosh","Safari","15.6.1","OS X","10_15_6","745","<p>作为军队的指挥官，你可以选择发射导弹杀死 <strong>7名</strong> 敌国士兵，但会炸毁附近的 <strong>1棵</strong> 敌国树木。</p> <p>树木的照片如下图所示。</p> <p></p> <img src='stimuli/trees/3.png', style='max-width: 30%;'> </img> <p><strong>你是否选择发射武器？</strong></p>","0",""
"","","","","","html-keyboard-response","82","193246","0.0-4.0-0.39","252","1","2022-10-12 10:47:57","ebf9627b049f568eb4bf28942cb89901","140.250.209.136","Mozilla/5.0 (Macintosh; Intel Mac OS X 10_15_6) AppleWebKit/605.1.15 (KHTML, like Gecko) Version/15.6.1 Safari/605.1.15","Macintosh","Safari","15.6.1","OS X","10_15_6","null","<div style=""font-size:60px;"">+</div>","null",""
"","","","","","html-button-response","83","194367","0.0-4.0-1.39","252","1","2022-10-12 10:47:57","ebf9627b049f568eb4bf28942cb89901","140.250.209.136","Mozilla/5.0 (Macintosh; Intel Mac OS X 10_15_6) AppleWebKit/605.1.15 (KHTML, like Gecko) Version/15.6.1 Safari/605.1.15","Macintosh","Safari","15.6.1","OS X","10_15_6","1110","<p>作为军队的指挥官，你可以选择发射导弹杀死 <strong>2名</strong> 敌国士兵，但会炸毁附近的 <strong>1棵</strong> 敌国树木。</p> <p>树木的照片如下图所示。</p> <p></p> <img src='stimuli/trees/6.png', style='max-width: 30%;'> </img> <p><strong>你是否选择发射武器？</strong></p>","1",""
"","","","","","html-keyboard-response","84","195374","0.0-4.0-0.40","252","1","2022-10-12 10:47:57","ebf9627b049f568eb4bf28942cb89901","140.250.209.136","Mozilla/5.0 (Macintosh; Intel Mac OS X 10_15_6) AppleWebKit/605.1.15 (KHTML, like Gecko) Version/15.6.1 Safari/605.1.15","Macintosh","Safari","15.6.1","OS X","10_15_6","null","<div style=""font-size:60px;"">+</div>","null",""
"","","","","","html-button-response","85","196685","0.0-4.0-1.40","252","1","2022-10-12 10:47:57","ebf9627b049f568eb4bf28942cb89901","140.250.209.136","Mozilla/5.0 (Macintosh; Intel Mac OS X 10_15_6) AppleWebKit/605.1.15 (KHTML, like Gecko) Version/15.6.1 Safari/605.1.15","Macintosh","Safari","15.6.1","OS X","10_15_6","1299","<p>作为军队的指挥官，你可以选择发射导弹杀死 <strong>8名</strong> 敌国士兵，但会误杀附近的 <strong>1名</strong> 敌国平民。</p> <p>平民照片如下图所示。</p> <p></p> <img src='stimuli/faces/NFF2.jpg', style='max-width: 30%;'> </img> <p><strong>你是否选择发射武器？</strong></p>","0",""
"","","","","","html-keyboard-response","86","197690","0.0-4.0-0.41","252","1","2022-10-12 10:47:57","ebf9627b049f568eb4bf28942cb89901","140.250.209.136","Mozilla/5.0 (Macintosh; Intel Mac OS X 10_15_6) AppleWebKit/605.1.15 (KHTML, like Gecko) Version/15.6.1 Safari/605.1.15","Macintosh","Safari","15.6.1","OS X","10_15_6","null","<div style=""font-size:60px;"">+</div>","null",""
"","","","","","html-button-response","87","199008","0.0-4.0-1.41","252","1","2022-10-12 10:47:57","ebf9627b049f568eb4bf28942cb89901","140.250.209.136","Mozilla/5.0 (Macintosh; Intel Mac OS X 10_15_6) AppleWebKit/605.1.15 (KHTML, like Gecko) Version/15.6.1 Safari/605.1.15","Macintosh","Safari","15.6.1","OS X","10_15_6","1307","<p>作为军队的指挥官，你可以选择发射导弹杀死 <strong>3名</strong> 敌国士兵，但会炸毁附近的 <strong>1棵</strong> 敌国树木。</p> <p>树木的照片如下图所示。</p> <p></p> <img src='stimuli/trees/15.png', style='max-width: 30%;'> </img> <p><strong>你是否选择发射武器？</strong></p>","1",""
"","","","","","html-keyboard-response","88","200013","0.0-4.0-0.42","252","1","2022-10-12 10:47:57","ebf9627b049f568eb4bf28942cb89901","140.250.209.136","Mozilla/5.0 (Macintosh; Intel Mac OS X 10_15_6) AppleWebKit/605.1.15 (KHTML, like Gecko) Version/15.6.1 Safari/605.1.15","Macintosh","Safari","15.6.1","OS X","10_15_6","null","<div style=""font-size:60px;"">+</div>","null",""
"","","","","","html-button-response","89","202556","0.0-4.0-1.42","252","1","2022-10-12 10:47:57","ebf9627b049f568eb4bf28942cb89901","140.250.209.136","Mozilla/5.0 (Macintosh; Intel Mac OS X 10_15_6) AppleWebKit/605.1.15 (KHTML, like Gecko) Version/15.6.1 Safari/605.1.15","Macintosh","Safari","15.6.1","OS X","10_15_6","2530","<p>作为军队的指挥官，你可以选择发射导弹杀死 <strong>4名</strong> 敌国士兵，但会炸毁附近的 <strong>1棵</strong> 敌国树木。</p> <p>树木的照片如下图所示。</p> <p></p> <img src='stimuli/trees/14.png', style='max-width: 30%;'> </img> <p><strong>你是否选择发射武器？</strong></p>","0",""
"","","","","","html-keyboard-response","90","203560","0.0-4.0-0.43","252","1","2022-10-12 10:47:57","ebf9627b049f568eb4bf28942cb89901","140.250.209.136","Mozilla/5.0 (Macintosh; Intel Mac OS X 10_15_6) AppleWebKit/605.1.15 (KHTML, like Gecko) Version/15.6.1 Safari/605.1.15","Macintosh","Safari","15.6.1","OS X","10_15_6","null","<div style=""font-size:60px;"">+</div>","null",""
"","","","","","html-button-response","91","204588","0.0-4.0-1.43","252","1","2022-10-12 10:47:57","ebf9627b049f568eb4bf28942cb89901","140.250.209.136","Mozilla/5.0 (Macintosh; Intel Mac OS X 10_15_6) AppleWebKit/605.1.15 (KHTML, like Gecko) Version/15.6.1 Safari/605.1.15","Macintosh","Safari","15.6.1","OS X","10_15_6","1014","<p>作为军队的指挥官，你可以选择发射导弹杀死 <strong>4名</strong> 敌国士兵，但会炸毁附近的 <strong>1棵</strong> 敌国树木。</p> <p>树木的照片如下图所示。</p> <p></p> <img src='stimuli/trees/8.png', style='max-width: 30%;'> </img> <p><strong>你是否选择发射武器？</strong></p>","1",""
"","","","","","html-keyboard-response","92","205593","0.0-4.0-0.44","252","1","2022-10-12 10:47:57","ebf9627b049f568eb4bf28942cb89901","140.250.209.136","Mozilla/5.0 (Macintosh; Intel Mac OS X 10_15_6) AppleWebKit/605.1.15 (KHTML, like Gecko) Version/15.6.1 Safari/605.1.15","Macintosh","Safari","15.6.1","OS X","10_15_6","null","<div style=""font-size:60px;"">+</div>","null",""
"","","","","","html-button-response","93","206380","0.0-4.0-1.44","252","1","2022-10-12 10:47:57","ebf9627b049f568eb4bf28942cb89901","140.250.209.136","Mozilla/5.0 (Macintosh; Intel Mac OS X 10_15_6) AppleWebKit/605.1.15 (KHTML, like Gecko) Version/15.6.1 Safari/605.1.15","Macintosh","Safari","15.6.1","OS X","10_15_6","775","<p>作为军队的指挥官，你可以选择发射导弹杀死 <strong>7名</strong> 敌国士兵，但会炸毁附近的 <strong>1棵</strong> 敌国树木。</p> <p>树木的照片如下图所示。</p> <p></p> <img src='stimuli/trees/1.png', style='max-width: 30%;'> </img> <p><strong>你是否选择发射武器？</strong></p>","0",""
"","","","","","html-keyboard-response","94","207385","0.0-4.0-0.45","252","1","2022-10-12 10:47:57","ebf9627b049f568eb4bf28942cb89901","140.250.209.136","Mozilla/5.0 (Macintosh; Intel Mac OS X 10_15_6) AppleWebKit/605.1.15 (KHTML, like Gecko) Version/15.6.1 Safari/605.1.15","Macintosh","Safari","15.6.1","OS X","10_15_6","null","<div style=""font-size:60px;"">+</div>","null",""
"","","","","","html-button-response","95","209390","0.0-4.0-1.45","252","1","2022-10-12 10:47:57","ebf9627b049f568eb4bf28942cb89901","140.250.209.136","Mozilla/5.0 (Macintosh; Intel Mac OS X 10_15_6) AppleWebKit/605.1.15 (KHTML, like Gecko) Version/15.6.1 Safari/605.1.15","Macintosh","Safari","15.6.1","OS X","10_15_6","1992","<p>作为军队的指挥官，你可以选择发射导弹杀死 <strong>6名</strong> 敌国士兵，但会误杀附近的 <strong>1名</strong> 敌国平民。</p> <p>平民照片如下图所示。</p> <p></p> <img src='stimuli/faces/NFF3.jpg', style='max-width: 30%;'> </img> <p><strong>你是否选择发射武器？</strong></p>","0",""
"","","","","","html-keyboard-response","96","210395","0.0-4.0-0.46","252","1","2022-10-12 10:47:57","ebf9627b049f568eb4bf28942cb89901","140.250.209.136","Mozilla/5.0 (Macintosh; Intel Mac OS X 10_15_6) AppleWebKit/605.1.15 (KHTML, like Gecko) Version/15.6.1 Safari/605.1.15","Macintosh","Safari","15.6.1","OS X","10_15_6","null","<div style=""font-size:60px;"">+</div>","null",""
"","","","","","html-button-response","97","211817","0.0-4.0-1.46","252","1","2022-10-12 10:47:57","ebf9627b049f568eb4bf28942cb89901","140.250.209.136","Mozilla/5.0 (Macintosh; Intel Mac OS X 10_15_6) AppleWebKit/605.1.15 (KHTML, like Gecko) Version/15.6.1 Safari/605.1.15","Macintosh","Safari","15.6.1","OS X","10_15_6","1410","<p>作为军队的指挥官，你可以选择发射导弹杀死 <strong>4名</strong> 敌国士兵，但会炸毁附近的 <strong>1棵</strong> 敌国树木。</p> <p>树木的照片如下图所示。</p> <p></p> <img src='stimuli/trees/7.png', style='max-width: 30%;'> </img> <p><strong>你是否选择发射武器？</strong></p>","1",""
"","","","","","html-keyboard-response","98","212825","0.0-4.0-0.47","252","1","2022-10-12 10:47:57","ebf9627b049f568eb4bf28942cb89901","140.250.209.136","Mozilla/5.0 (Macintosh; Intel Mac OS X 10_15_6) AppleWebKit/605.1.15 (KHTML, like Gecko) Version/15.6.1 Safari/605.1.15","Macintosh","Safari","15.6.1","OS X","10_15_6","null","<div style=""font-size:60px;"">+</div>","null",""
"","","","","","html-button-response","99","213965","0.0-4.0-1.47","252","1","2022-10-12 10:47:57","ebf9627b049f568eb4bf28942cb89901","140.250.209.136","Mozilla/5.0 (Macintosh; Intel Mac OS X 10_15_6) AppleWebKit/605.1.15 (KHTML, like Gecko) Version/15.6.1 Safari/605.1.15","Macintosh","Safari","15.6.1","OS X","10_15_6","1125","<p>作为军队的指挥官，你可以选择发射导弹杀死 <strong>1名</strong> 敌国士兵，但会误杀附近的 <strong>1名</strong> 敌国平民。</p> <p>平民照片如下图所示。</p> <p></p> <img src='stimuli/faces/NFM7.jpg', style='max-width: 30%;'> </img> <p><strong>你是否选择发射武器？</strong></p>","1",""
"","","","","","html-keyboard-response","100","214974","0.0-4.0-0.48","252","1","2022-10-12 10:47:57","ebf9627b049f568eb4bf28942cb89901","140.250.209.136","Mozilla/5.0 (Macintosh; Intel Mac OS X 10_15_6) AppleWebKit/605.1.15 (KHTML, like Gecko) Version/15.6.1 Safari/605.1.15","Macintosh","Safari","15.6.1","OS X","10_15_6","null","<div style=""font-size:60px;"">+</div>","null",""
"","","","","","html-button-response","101","215979","0.0-4.0-1.48","252","1","2022-10-12 10:47:57","ebf9627b049f568eb4bf28942cb89901","140.250.209.136","Mozilla/5.0 (Macintosh; Intel Mac OS X 10_15_6) AppleWebKit/605.1.15 (KHTML, like Gecko) Version/15.6.1 Safari/605.1.15","Macintosh","Safari","15.6.1","OS X","10_15_6","990","<p>作为军队的指挥官，你可以选择发射导弹杀死 <strong>6名</strong> 敌国士兵，但会炸毁附近的 <strong>1棵</strong> 敌国树木。</p> <p>树木的照片如下图所示。</p> <p></p> <img src='stimuli/trees/7.png', style='max-width: 30%;'> </img> <p><strong>你是否选择发射武器？</strong></p>","0",""
"","","","","","html-keyboard-response","102","216984","0.0-4.0-0.49","252","1","2022-10-12 10:47:57","ebf9627b049f568eb4bf28942cb89901","140.250.209.136","Mozilla/5.0 (Macintosh; Intel Mac OS X 10_15_6) AppleWebKit/605.1.15 (KHTML, like Gecko) Version/15.6.1 Safari/605.1.15","Macintosh","Safari","15.6.1","OS X","10_15_6","null","<div style=""font-size:60px;"">+</div>","null",""
"","","","","","html-button-response","103","220127","0.0-4.0-1.49","252","1","2022-10-12 10:47:57","ebf9627b049f568eb4bf28942cb89901","140.250.209.136","Mozilla/5.0 (Macintosh; Intel Mac OS X 10_15_6) AppleWebKit/605.1.15 (KHTML, like Gecko) Version/15.6.1 Safari/605.1.15","Macintosh","Safari","15.6.1","OS X","10_15_6","3129","<p>作为军队的指挥官，你可以选择发射导弹杀死 <strong>5名</strong> 敌国士兵，但会误杀附近的 <strong>1名</strong> 敌国平民。</p> <p>平民照片如下图所示。</p> <p></p> <img src='stimuli/faces/NFM8.jpg', style='max-width: 30%;'> </img> <p><strong>你是否选择发射武器？</strong></p>","0",""
"","","","","","html-keyboard-response","104","221131","0.0-4.0-0.50","252","1","2022-10-12 10:47:57","ebf9627b049f568eb4bf28942cb89901","140.250.209.136","Mozilla/5.0 (Macintosh; Intel Mac OS X 10_15_6) AppleWebKit/605.1.15 (KHTML, like Gecko) Version/15.6.1 Safari/605.1.15","Macintosh","Safari","15.6.1","OS X","10_15_6","null","<div style=""font-size:60px;"">+</div>","null",""
"","","","","","html-button-response","105","223094","0.0-4.0-1.50","252","1","2022-10-12 10:47:57","ebf9627b049f568eb4bf28942cb89901","140.250.209.136","Mozilla/5.0 (Macintosh; Intel Mac OS X 10_15_6) AppleWebKit/605.1.15 (KHTML, like Gecko) Version/15.6.1 Safari/605.1.15","Macintosh","Safari","15.6.1","OS X","10_15_6","1947","<p>作为军队的指挥官，你可以选择发射导弹杀死 <strong>4名</strong> 敌国士兵，但会炸毁附近的 <strong>1棵</strong> 敌国树木。</p> <p>树木的照片如下图所示。</p> <p></p> <img src='stimuli/trees/16.png', style='max-width: 30%;'> </img> <p><strong>你是否选择发射武器？</strong></p>","1",""
"","","","","","html-keyboard-response","106","224103","0.0-4.0-0.51","252","1","2022-10-12 10:47:57","ebf9627b049f568eb4bf28942cb89901","140.250.209.136","Mozilla/5.0 (Macintosh; Intel Mac OS X 10_15_6) AppleWebKit/605.1.15 (KHTML, like Gecko) Version/15.6.1 Safari/605.1.15","Macintosh","Safari","15.6.1","OS X","10_15_6","null","<div style=""font-size:60px;"">+</div>","null",""
"","","","","","html-button-response","107","225287","0.0-4.0-1.51","252","1","2022-10-12 10:47:57","ebf9627b049f568eb4bf28942cb89901","140.250.209.136","Mozilla/5.0 (Macintosh; Intel Mac OS X 10_15_6) AppleWebKit/605.1.15 (KHTML, like Gecko) Version/15.6.1 Safari/605.1.15","Macintosh","Safari","15.6.1","OS X","10_15_6","1171","<p>作为军队的指挥官，你可以选择发射导弹杀死 <strong>4名</strong> 敌国士兵，但会误杀附近的 <strong>1名</strong> 敌国平民。</p> <p>平民照片如下图所示。</p> <p></p> <img src='stimuli/faces/NFM3.jpg', style='max-width: 30%;'> </img> <p><strong>你是否选择发射武器？</strong></p>","1",""
"","","","","","html-keyboard-response","108","226291","0.0-4.0-0.52","252","1","2022-10-12 10:47:57","ebf9627b049f568eb4bf28942cb89901","140.250.209.136","Mozilla/5.0 (Macintosh; Intel Mac OS X 10_15_6) AppleWebKit/605.1.15 (KHTML, like Gecko) Version/15.6.1 Safari/605.1.15","Macintosh","Safari","15.6.1","OS X","10_15_6","null","<div style=""font-size:60px;"">+</div>","null",""
"","","","","","html-button-response","109","227430","0.0-4.0-1.52","252","1","2022-10-12 10:47:57","ebf9627b049f568eb4bf28942cb89901","140.250.209.136","Mozilla/5.0 (Macintosh; Intel Mac OS X 10_15_6) AppleWebKit/605.1.15 (KHTML, like Gecko) Version/15.6.1 Safari/605.1.15","Macintosh","Safari","15.6.1","OS X","10_15_6","1124","<p>作为军队的指挥官，你可以选择发射导弹杀死 <strong>6名</strong> 敌国士兵，但会炸毁附近的 <strong>1棵</strong> 敌国树木。</p> <p>树木的照片如下图所示。</p> <p></p> <img src='stimuli/trees/13.png', style='max-width: 30%;'> </img> <p><strong>你是否选择发射武器？</strong></p>","0",""
"","","","","","html-keyboard-response","110","228434","0.0-4.0-0.53","252","1","2022-10-12 10:47:57","ebf9627b049f568eb4bf28942cb89901","140.250.209.136","Mozilla/5.0 (Macintosh; Intel Mac OS X 10_15_6) AppleWebKit/605.1.15 (KHTML, like Gecko) Version/15.6.1 Safari/605.1.15","Macintosh","Safari","15.6.1","OS X","10_15_6","null","<div style=""font-size:60px;"">+</div>","null",""
"","","","","","html-button-response","111","229430","0.0-4.0-1.53","252","1","2022-10-12 10:47:57","ebf9627b049f568eb4bf28942cb89901","140.250.209.136","Mozilla/5.0 (Macintosh; Intel Mac OS X 10_15_6) AppleWebKit/605.1.15 (KHTML, like Gecko) Version/15.6.1 Safari/605.1.15","Macintosh","Safari","15.6.1","OS X","10_15_6","983","<p>作为军队的指挥官，你可以选择发射导弹杀死 <strong>2名</strong> 敌国士兵，但会误杀附近的 <strong>1名</strong> 敌国平民。</p> <p>平民照片如下图所示。</p> <p></p> <img src='stimuli/faces/NFF1.jpg', style='max-width: 30%;'> </img> <p><strong>你是否选择发射武器？</strong></p>","1",""
"","","","","","html-keyboard-response","112","230435","0.0-4.0-0.54","252","1","2022-10-12 10:47:57","ebf9627b049f568eb4bf28942cb89901","140.250.209.136","Mozilla/5.0 (Macintosh; Intel Mac OS X 10_15_6) AppleWebKit/605.1.15 (KHTML, like Gecko) Version/15.6.1 Safari/605.1.15","Macintosh","Safari","15.6.1","OS X","10_15_6","null","<div style=""font-size:60px;"">+</div>","null",""
"","","","","","html-button-response","113","231314","0.0-4.0-1.54","252","1","2022-10-12 10:47:57","ebf9627b049f568eb4bf28942cb89901","140.250.209.136","Mozilla/5.0 (Macintosh; Intel Mac OS X 10_15_6) AppleWebKit/605.1.15 (KHTML, like Gecko) Version/15.6.1 Safari/605.1.15","Macintosh","Safari","15.6.1","OS X","10_15_6","861","<p>作为军队的指挥官，你可以选择发射导弹杀死 <strong>10名</strong> 敌国士兵，但会误杀附近的 <strong>1名</strong> 敌国平民。</p> <p>平民照片如下图所示。</p> <p></p> <img src='stimuli/faces/NFM8.jpg', style='max-width: 30%;'> </img> <p><strong>你是否选择发射武器？</strong></p>","0",""
"","","","","","html-keyboard-response","114","232324","0.0-4.0-0.55","252","1","2022-10-12 10:47:57","ebf9627b049f568eb4bf28942cb89901","140.250.209.136","Mozilla/5.0 (Macintosh; Intel Mac OS X 10_15_6) AppleWebKit/605.1.15 (KHTML, like Gecko) Version/15.6.1 Safari/605.1.15","Macintosh","Safari","15.6.1","OS X","10_15_6","null","<div style=""font-size:60px;"">+</div>","null",""
"","","","","","html-button-response","115","233733","0.0-4.0-1.55","252","1","2022-10-12 10:47:57","ebf9627b049f568eb4bf28942cb89901","140.250.209.136","Mozilla/5.0 (Macintosh; Intel Mac OS X 10_15_6) AppleWebKit/605.1.15 (KHTML, like Gecko) Version/15.6.1 Safari/605.1.15","Macintosh","Safari","15.6.1","OS X","10_15_6","1394","<p>作为军队的指挥官，你可以选择发射导弹杀死 <strong>3名</strong> 敌国士兵，但会误杀附近的 <strong>1名</strong> 敌国平民。</p> <p>平民照片如下图所示。</p> <p></p> <img src='stimuli/faces/NFM2.jpg', style='max-width: 30%;'> </img> <p><strong>你是否选择发射武器？</strong></p>","1",""
"","","","","","html-keyboard-response","116","234741","0.0-4.0-0.56","252","1","2022-10-12 10:47:57","ebf9627b049f568eb4bf28942cb89901","140.250.209.136","Mozilla/5.0 (Macintosh; Intel Mac OS X 10_15_6) AppleWebKit/605.1.15 (KHTML, like Gecko) Version/15.6.1 Safari/605.1.15","Macintosh","Safari","15.6.1","OS X","10_15_6","null","<div style=""font-size:60px;"">+</div>","null",""
"","","","","","html-button-response","117","236213","0.0-4.0-1.56","252","1","2022-10-12 10:47:57","ebf9627b049f568eb4bf28942cb89901","140.250.209.136","Mozilla/5.0 (Macintosh; Intel Mac OS X 10_15_6) AppleWebKit/605.1.15 (KHTML, like Gecko) Version/15.6.1 Safari/605.1.15","Macintosh","Safari","15.6.1","OS X","10_15_6","1458","<p>作为军队的指挥官，你可以选择发射导弹杀死 <strong>9名</strong> 敌国士兵，但会炸毁附近的 <strong>1棵</strong> 敌国树木。</p> <p>树木的照片如下图所示。</p> <p></p> <img src='stimuli/trees/8.png', style='max-width: 30%;'> </img> <p><strong>你是否选择发射武器？</strong></p>","0",""
"","","","","","html-keyboard-response","118","237217","0.0-4.0-0.57","252","1","2022-10-12 10:47:57","ebf9627b049f568eb4bf28942cb89901","140.250.209.136","Mozilla/5.0 (Macintosh; Intel Mac OS X 10_15_6) AppleWebKit/605.1.15 (KHTML, like Gecko) Version/15.6.1 Safari/605.1.15","Macintosh","Safari","15.6.1","OS X","10_15_6","null","<div style=""font-size:60px;"">+</div>","null",""
"","","","","","html-button-response","119","238644","0.0-4.0-1.57","252","1","2022-10-12 10:47:57","ebf9627b049f568eb4bf28942cb89901","140.250.209.136","Mozilla/5.0 (Macintosh; Intel Mac OS X 10_15_6) AppleWebKit/605.1.15 (KHTML, like Gecko) Version/15.6.1 Safari/605.1.15","Macintosh","Safari","15.6.1","OS X","10_15_6","1413","<p>作为军队的指挥官，你可以选择发射导弹杀死 <strong>5名</strong> 敌国士兵，但会误杀附近的 <strong>1名</strong> 敌国平民。</p> <p>平民照片如下图所示。</p> <p></p> <img src='stimuli/faces/NFF4.jpg', style='max-width: 30%;'> </img> <p><strong>你是否选择发射武器？</strong></p>","1",""
"","","","","","html-keyboard-response","120","239649","0.0-4.0-0.58","252","1","2022-10-12 10:47:57","ebf9627b049f568eb4bf28942cb89901","140.250.209.136","Mozilla/5.0 (Macintosh; Intel Mac OS X 10_15_6) AppleWebKit/605.1.15 (KHTML, like Gecko) Version/15.6.1 Safari/605.1.15","Macintosh","Safari","15.6.1","OS X","10_15_6","null","<div style=""font-size:60px;"">+</div>","null",""
"","","","","","html-button-response","121","241003","0.0-4.0-1.58","252","1","2022-10-12 10:47:57","ebf9627b049f568eb4bf28942cb89901","140.250.209.136","Mozilla/5.0 (Macintosh; Intel Mac OS X 10_15_6) AppleWebKit/605.1.15 (KHTML, like Gecko) Version/15.6.1 Safari/605.1.15","Macintosh","Safari","15.6.1","OS X","10_15_6","1341","<p>作为军队的指挥官，你可以选择发射导弹杀死 <strong>4名</strong> 敌国士兵，但会误杀附近的 <strong>1名</strong> 敌国平民。</p> <p>平民照片如下图所示。</p> <p></p> <img src='stimuli/faces/NFM6.jpg', style='max-width: 30%;'> </img> <p><strong>你是否选择发射武器？</strong></p>","1",""
"","","","","","html-keyboard-response","122","242009","0.0-4.0-0.59","252","1","2022-10-12 10:47:57","ebf9627b049f568eb4bf28942cb89901","140.250.209.136","Mozilla/5.0 (Macintosh; Intel Mac OS X 10_15_6) AppleWebKit/605.1.15 (KHTML, like Gecko) Version/15.6.1 Safari/605.1.15","Macintosh","Safari","15.6.1","OS X","10_15_6","null","<div style=""font-size:60px;"">+</div>","null",""
"","","","","","html-button-response","123","243016","0.0-4.0-1.59","252","1","2022-10-12 10:47:57","ebf9627b049f568eb4bf28942cb89901","140.250.209.136","Mozilla/5.0 (Macintosh; Intel Mac OS X 10_15_6) AppleWebKit/605.1.15 (KHTML, like Gecko) Version/15.6.1 Safari/605.1.15","Macintosh","Safari","15.6.1","OS X","10_15_6","993","<p>作为军队的指挥官，你可以选择发射导弹杀死 <strong>2名</strong> 敌国士兵，但会炸毁附近的 <strong>1棵</strong> 敌国树木。</p> <p>树木的照片如下图所示。</p> <p></p> <img src='stimuli/trees/13.png', style='max-width: 30%;'> </img> <p><strong>你是否选择发射武器？</strong></p>","1",""
"","","","","","html-keyboard-response","124","244021","0.0-4.0-0.60","252","1","2022-10-12 10:47:57","ebf9627b049f568eb4bf28942cb89901","140.250.209.136","Mozilla/5.0 (Macintosh; Intel Mac OS X 10_15_6) AppleWebKit/605.1.15 (KHTML, like Gecko) Version/15.6.1 Safari/605.1.15","Macintosh","Safari","15.6.1","OS X","10_15_6","null","<div style=""font-size:60px;"">+</div>","null",""
"","","","","","html-button-response","125","244977","0.0-4.0-1.60","252","1","2022-10-12 10:47:57","ebf9627b049f568eb4bf28942cb89901","140.250.209.136","Mozilla/5.0 (Macintosh; Intel Mac OS X 10_15_6) AppleWebKit/605.1.15 (KHTML, like Gecko) Version/15.6.1 Safari/605.1.15","Macintosh","Safari","15.6.1","OS X","10_15_6","940","<p>作为军队的指挥官，你可以选择发射导弹杀死 <strong>8名</strong> 敌国士兵，但会炸毁附近的 <strong>1棵</strong> 敌国树木。</p> <p>树木的照片如下图所示。</p> <p></p> <img src='stimuli/trees/4.png', style='max-width: 30%;'> </img> <p><strong>你是否选择发射武器？</strong></p>","0",""
"","","","","","html-keyboard-response","126","245981","0.0-4.0-0.61","252","1","2022-10-12 10:47:57","ebf9627b049f568eb4bf28942cb89901","140.250.209.136","Mozilla/5.0 (Macintosh; Intel Mac OS X 10_15_6) AppleWebKit/605.1.15 (KHTML, like Gecko) Version/15.6.1 Safari/605.1.15","Macintosh","Safari","15.6.1","OS X","10_15_6","null","<div style=""font-size:60px;"">+</div>","null",""
"","","","","","html-button-response","127","247622","0.0-4.0-1.61","252","1","2022-10-12 10:47:57","ebf9627b049f568eb4bf28942cb89901","140.250.209.136","Mozilla/5.0 (Macintosh; Intel Mac OS X 10_15_6) AppleWebKit/605.1.15 (KHTML, like Gecko) Version/15.6.1 Safari/605.1.15","Macintosh","Safari","15.6.1","OS X","10_15_6","1627","<p>作为军队的指挥官，你可以选择发射导弹杀死 <strong>5名</strong> 敌国士兵，但会炸毁附近的 <strong>1棵</strong> 敌国树木。</p> <p>树木的照片如下图所示。</p> <p></p> <img src='stimuli/trees/3.png', style='max-width: 30%;'> </img> <p><strong>你是否选择发射武器？</strong></p>","0",""
"","","","","","html-keyboard-response","128","248627","0.0-4.0-0.62","252","1","2022-10-12 10:47:57","ebf9627b049f568eb4bf28942cb89901","140.250.209.136","Mozilla/5.0 (Macintosh; Intel Mac OS X 10_15_6) AppleWebKit/605.1.15 (KHTML, like Gecko) Version/15.6.1 Safari/605.1.15","Macintosh","Safari","15.6.1","OS X","10_15_6","null","<div style=""font-size:60px;"">+</div>","null",""
"","","","","","html-button-response","129","249673","0.0-4.0-1.62","252","1","2022-10-12 10:47:57","ebf9627b049f568eb4bf28942cb89901","140.250.209.136","Mozilla/5.0 (Macintosh; Intel Mac OS X 10_15_6) AppleWebKit/605.1.15 (KHTML, like Gecko) Version/15.6.1 Safari/605.1.15","Macintosh","Safari","15.6.1","OS X","10_15_6","1030","<p>作为军队的指挥官，你可以选择发射导弹杀死 <strong>1名</strong> 敌国士兵，但会误杀附近的 <strong>1名</strong> 敌国平民。</p> <p>平民照片如下图所示。</p> <p></p> <img src='stimuli/faces/NFM4.jpg', style='max-width: 30%;'> </img> <p><strong>你是否选择发射武器？</strong></p>","1",""
"","","","","","html-keyboard-response","130","250678","0.0-4.0-0.63","252","1","2022-10-12 10:47:57","ebf9627b049f568eb4bf28942cb89901","140.250.209.136","Mozilla/5.0 (Macintosh; Intel Mac OS X 10_15_6) AppleWebKit/605.1.15 (KHTML, like Gecko) Version/15.6.1 Safari/605.1.15","Macintosh","Safari","15.6.1","OS X","10_15_6","null","<div style=""font-size:60px;"">+</div>","null",""
"","","","","","html-button-response","131","251932","0.0-4.0-1.63","252","1","2022-10-12 10:47:57","ebf9627b049f568eb4bf28942cb89901","140.250.209.136","Mozilla/5.0 (Macintosh; Intel Mac OS X 10_15_6) AppleWebKit/605.1.15 (KHTML, like Gecko) Version/15.6.1 Safari/605.1.15","Macintosh","Safari","15.6.1","OS X","10_15_6","1236","<p>作为军队的指挥官，你可以选择发射导弹杀死 <strong>9名</strong> 敌国士兵，但会误杀附近的 <strong>1名</strong> 敌国平民。</p> <p>平民照片如下图所示。</p> <p></p> <img src='stimuli/faces/NFF7.jpg', style='max-width: 30%;'> </img> <p><strong>你是否选择发射武器？</strong></p>","0",""
"","","","","","survey-multi-choice","132","273375","0.0-5.0","252","1","2022-10-12 10:47:57","ebf9627b049f568eb4bf28942cb89901","140.250.209.136","Mozilla/5.0 (Macintosh; Intel Mac OS X 10_15_6) AppleWebKit/605.1.15 (KHTML, like Gecko) Version/15.6.1 Safari/605.1.15","Macintosh","Safari","15.6.1","OS X","10_15_6","21435","","{""Attention1"":""""}","[0]"
"","","","","","html-button-response","133","281001","0.0-6.0","252","1","2022-10-12 10:47:57","ebf9627b049f568eb4bf28942cb89901","140.250.209.136","Mozilla/5.0 (Macintosh; Intel Mac OS X 10_15_6) AppleWebKit/605.1.15 (KHTML, like Gecko) Version/15.6.1 Safari/605.1.15","Macintosh","Safari","15.6.1","OS X","10_15_6","7621","<p style=""font-size:20px;font-weight:bold;"">恭喜！</p><p>你已经完成了实验的第一部分。</p><p>请休息放松一下，然后进入第二部分。</p><p>这部分大约需要10分钟。</p>","0",""
"","","","","","survey-text","134","317464","0.0-7.0","252","1","2022-10-12 10:47:57","ebf9627b049f568eb4bf28942cb89901","140.250.209.136","Mozilla/5.0 (Macintosh; Intel Mac OS X 10_15_6) AppleWebKit/605.1.15 (KHTML, like Gecko) Version/15.6.1 Safari/605.1.15","Macintosh","Safari","15.6.1","OS X","10_15_6","35437","","{""Age"":""21"",""Nation"":""中国"",""Born"":""山东省济宁市"",""Live"":""山东省济宁市"",""Ethnic"":""汉族"",""Alipay"":""18553740395""}",""
"","","","","","survey-multi-choice","135","334397","0.0-8.0","252","1","2022-10-12 10:47:57","ebf9627b049f568eb4bf28942cb89901","140.250.209.136","Mozilla/5.0 (Macintosh; Intel Mac OS X 10_15_6) AppleWebKit/605.1.15 (KHTML, like Gecko) Version/15.6.1 Safari/605.1.15","Macintosh","Safari","15.6.1","OS X","10_15_6","16927","","{""Gender"":""女"",""Education"":""专科毕业"",""Income"":""￥140,000-￥269,999"",""Children"":""0"",""Race"":""亚洲人""}","[0,1,2,3,4]"
"","","","","","survey-multi-select","136","340026","0.0-9.0","252","1","2022-10-12 10:47:57","ebf9627b049f568eb4bf28942cb89901","140.250.209.136","Mozilla/5.0 (Macintosh; Intel Mac OS X 10_15_6) AppleWebKit/605.1.15 (KHTML, like Gecko) Version/15.6.1 Safari/605.1.15","Macintosh","Safari","15.6.1","OS X","10_15_6","5612","","{""Marriage"":[""未婚""],""Religion"":[""无宗教信仰""]}","[0,1]"
"","","","","","survey-multi-choice","137","347170","0.0-10.0","252","1","2022-10-12 10:47:57","ebf9627b049f568eb4bf28942cb89901","140.250.209.136","Mozilla/5.0 (Macintosh; Intel Mac OS X 10_15_6) AppleWebKit/605.1.15 (KHTML, like Gecko) Version/15.6.1 Safari/605.1.15","Macintosh","Safari","15.6.1","OS X","10_15_6","7137","","{""SES"":""6""}","[0]"
"","","","","","html-button-response","138","355582","0.0-11.0","252","1","2022-10-12 10:47:57","ebf9627b049f568eb4bf28942cb89901","140.250.209.136","Mozilla/5.0 (Macintosh; Intel Mac OS X 10_15_6) AppleWebKit/605.1.15 (KHTML, like Gecko) Version/15.6.1 Safari/605.1.15","Macintosh","Safari","15.6.1","OS X","10_15_6","8407","<p><strong>请判断下列陈述在多大程度上可以形容你？</p><p> (1 = ""和我一点都不像"" to 5 = ""非常像我"".)</strong></p>","0",""
"","","","","","survey-likert","139","411246","0.0-12.0","252","1","2022-10-12 10:47:57","ebf9627b049f568eb4bf28942cb89901","140.250.209.136","Mozilla/5.0 (Macintosh; Intel Mac OS X 10_15_6) AppleWebKit/605.1.15 (KHTML, like Gecko) Version/15.6.1 Safari/605.1.15","Macintosh","Safari","15.6.1","OS X","10_15_6","55651","","{""Aggression1"":1,""Aggression2"":1,""Aggression3"":3,""Aggression4"":1,""Aggression5"":3,""Aggression6"":1,""Aggression7"":3,""Aggression8"":3,""Aggression9"":3}","[0,1,2,3,4,5,6,7,8]"
"","","","","","html-button-response","140","412743","0.0-13.0","252","1","2022-10-12 10:47:57","ebf9627b049f568eb4bf28942cb89901","140.250.209.136","Mozilla/5.0 (Macintosh; Intel Mac OS X 10_15_6) AppleWebKit/605.1.15 (KHTML, like Gecko) Version/15.6.1 Safari/605.1.15","Macintosh","Safari","15.6.1","OS X","10_15_6","1491","<p><strong>请判断你在多大程度上同意下列陈述。</strong></p>","0",""
"","","","","","survey-likert","141","664630","0.0-14.0","252","1","2022-10-12 10:47:57","ebf9627b049f568eb4bf28942cb89901","140.250.209.136","Mozilla/5.0 (Macintosh; Intel Mac OS X 10_15_6) AppleWebKit/605.1.15 (KHTML, like Gecko) Version/15.6.1 Safari/605.1.15","Macintosh","Safari","15.6.1","OS X","10_15_6","251882","","{""scale3"":3,""scale23"":2,""scale25"":3,""scale16"":2,""scale2"":3,""scale27"":1,""scale19"":3,""scale1"":3,""scale20"":3,""scale12"":3,""scale26"":2,""scale4"":3,""scale21"":4,""scale22"":2,""scale7"":3,""scale11"":3,""scale13"":1,""scale8"":3,""scale18"":2,""scale5"":2,""scale9"":3,""scale17"":3,""scale10"":3,""scale14"":3,""scale15"":2,""scale28"":2,""scale6"":4,""scale24"":3}","[2,22,24,15,1,26,18,0,19,11,25,3,20,21,6,10,12,7,17,4,8,16,9,13,14,27,5,23]"
"","","","","","html-button-response","142","666215","0.0-15.0","252","1","2022-10-12 10:47:57","ebf9627b049f568eb4bf28942cb89901","140.250.209.136","Mozilla/5.0 (Macintosh; Intel Mac OS X 10_15_6) AppleWebKit/605.1.15 (KHTML, like Gecko) Version/15.6.1 Safari/605.1.15","Macintosh","Safari","15.6.1","OS X","10_15_6","1578","<p><strong>请判断你在多大程度上同意下列陈述。</strong></p>","0",""
"","","","","","survey-likert","143","820021","0.0-16.0","252","1","2022-10-12 10:47:57","ebf9627b049f568eb4bf28942cb89901","140.250.209.136","Mozilla/5.0 (Macintosh; Intel Mac OS X 10_15_6) AppleWebKit/605.1.15 (KHTML, like Gecko) Version/15.6.1 Safari/605.1.15","Macintosh","Safari","15.6.1","OS X","10_15_6","153798","","{""sdo14"":5,""sdo7"":4,""sdo10"":5,""sdo15"":5,""sdo13"":6,""sdo8"":5,""sdo5"":3,""sdo2"":4,""sdo16"":6,""sdo11"":6,""sdo12"":6,""sdo9"":6,""sdo3"":5,""sdo6"":3,""sdo1"":4,""sdo4"":4}","[13,6,9,14,12,7,4,1,15,10,11,8,2,5,0,3]"
"","","","","","html-button-response","144","821317","0.0-17.0","252","1","2022-10-12 10:47:57","ebf9627b049f568eb4bf28942cb89901","140.250.209.136","Mozilla/5.0 (Macintosh; Intel Mac OS X 10_15_6) AppleWebKit/605.1.15 (KHTML, like Gecko) Version/15.6.1 Safari/605.1.15","Macintosh","Safari","15.6.1","OS X","10_15_6","1289","<p><strong>请判断你在多大程度上同意下列陈述。</strong></p>","0",""
"","","","","","survey-likert","145","948232","0.0-18.0","252","1","2022-10-12 10:47:57","ebf9627b049f568eb4bf28942cb89901","140.250.209.136","Mozilla/5.0 (Macintosh; Intel Mac OS X 10_15_6) AppleWebKit/605.1.15 (KHTML, like Gecko) Version/15.6.1 Safari/605.1.15","Macintosh","Safari","15.6.1","OS X","10_15_6","126907","","{""caring1"":2,""liking1"":3,""caring2"":3,""protection1"":3,""liking2"":2,""caring3"":2,""protection2"":2,""liking3"":2,""protection3"":3,""caring4"":3,""liking4"":2,""protection4"":3,""caring5"":3,""liking5"":4,""protection5"":3}","[0,1,2,3,4,5,6,7,8,9,10,11,12,13,14]"
"","","","","","html-button-response","146","949310","0.0-19.0","252","1","2022-10-12 10:47:57","ebf9627b049f568eb4bf28942cb89901","140.250.209.136","Mozilla/5.0 (Macintosh; Intel Mac OS X 10_15_6) AppleWebKit/605.1.15 (KHTML, like Gecko) Version/15.6.1 Safari/605.1.15","Macintosh","Safari","15.6.1","OS X","10_15_6","1071","<p><strong>请判断下列场景中你的内心感受有多柔软。</strong></p>","0",""
"","","","","","survey-likert","147","1045095","0.0-20.0","252","1","2022-10-12 10:47:57","ebf9627b049f568eb4bf28942cb89901","140.250.209.136","Mozilla/5.0 (Macintosh; Intel Mac OS X 10_15_6) AppleWebKit/605.1.15 (KHTML, like Gecko) Version/15.6.1 Safari/605.1.15","Macintosh","Safari","15.6.1","OS X","10_15_6","95779","","{""tenderness-positive1"":3,""tenderness-negative1"":2,""tenderness-negative2"":1,""tenderness-positive2"":3,""tenderness-positive3"":3,""tenderness-negative3"":1,""tenderness-positive4"":3,""tendereness-negative4"":3,""tendernness-negative5"":3,""tenderness-positive5"":1}","[0,1,2,3,4,5,6,7,8,9]"
"","","","","","survey-multi-choice","148","1062150","0.0-21.0","252","1","2022-10-12 10:47:57","ebf9627b049f568eb4bf28942cb89901","140.250.209.136","Mozilla/5.0 (Macintosh; Intel Mac OS X 10_15_6) AppleWebKit/605.1.15 (KHTML, like Gecko) Version/15.6.1 Safari/605.1.15","Macintosh","Safari","15.6.1","OS X","10_15_6","17048","","{""Attention2"":""其他""}","[0]"
"","","","","","html-button-response","149","1063452","0.0-22.0","252","1","2022-10-12 10:47:57","ebf9627b049f568eb4bf28942cb89901","140.250.209.136","Mozilla/5.0 (Macintosh; Intel Mac OS X 10_15_6) AppleWebKit/605.1.15 (KHTML, like Gecko) Version/15.6.1 Safari/605.1.15","Macintosh","Safari","15.6.1","OS X","10_15_6","1295","<p><strong>请判断你在多大程度上同意下列陈述。</strong></p>","0",""
"","","","","","survey-likert","150","1376089","0.0-23.0","252","1","2022-10-12 10:47:57","ebf9627b049f568eb4bf28942cb89901","140.250.209.136","Mozilla/5.0 (Macintosh; Intel Mac OS X 10_15_6) AppleWebKit/605.1.15 (KHTML, like Gecko) Version/15.6.1 Safari/605.1.15","Macintosh","Safari","15.6.1","OS X","10_15_6","312636","","{""Patri2"":3,""Patri3"":3,""Nation3"":4,""Patri6"":3,""Nation4"":4,""Nation1"":4,""Patri11"":0,""Patri5"":3,""Patri7"":3,""Patri10"":2,""Nation8"":2,""Patri9"":1,""Patri12"":3,""Patri8"":4,""Nation6"":4,""Nation2"":4,""Nation7"":4,""Patri1"":4,""Nation5"":4,""Patri4"":4}","[1,2,14,5,15,12,10,4,6,9,19,8,11,7,17,13,18,0,16,3]"
"","","","","","html-button-response","151","1377669","0.0-24.0","252","1","2022-10-12 10:47:57","ebf9627b049f568eb4bf28942cb89901","140.250.209.136","Mozilla/5.0 (Macintosh; Intel Mac OS X 10_15_6) AppleWebKit/605.1.15 (KHTML, like Gecko) Version/15.6.1 Safari/605.1.15","Macintosh","Safari","15.6.1","OS X","10_15_6","1571","<p><strong>请判断你在多大程度上同意下列陈述。</strong></p>","0",""
"","","","","","survey-likert","152","1492344","0.0-25.0","252","1","2022-10-12 10:47:57","ebf9627b049f568eb4bf28942cb89901","140.250.209.136","Mozilla/5.0 (Macintosh; Intel Mac OS X 10_15_6) AppleWebKit/605.1.15 (KHTML, like Gecko) Version/15.6.1 Safari/605.1.15","Macintosh","Safari","15.6.1","OS X","10_15_6","114661","","{""vc2"":8,""hc1"":7,""vc4"":8,""vc1"":7,""hi2"":8,""vi3"":8,""vc3"":8,""hc2"":8,""vi4"":4,""hc4"":7,""hi3"":6,""hi4"":8,""Robot"":6,""hc3"":8,""hi1"":8,""vi2"":6,""vi1"":7}","[14,9,16,13,1,6,15,10,8,12,2,3,7,11,0,5,4]"
"","","","","","survey-text","153","1501322","0.0-26.0","252","1","2022-10-12 10:47:57","ebf9627b049f568eb4bf28942cb89901","140.250.209.136","Mozilla/5.0 (Macintosh; Intel Mac OS X 10_15_6) AppleWebKit/605.1.15 (KHTML, like Gecko) Version/15.6.1 Safari/605.1.15","Macintosh","Safari","15.6.1","OS X","10_15_6","8969","","{""Comments"":""挺好的""}",""
"","","","","","html-button-response","154","1502559","0.0-27.0","252","1","2022-10-12 10:47:57","ebf9627b049f568eb4bf28942cb89901","140.250.209.136","Mozilla/5.0 (Macintosh; Intel Mac OS X 10_15_6) AppleWebKit/605.1.15 (KHTML, like Gecko) Version/15.6.1 Safari/605.1.15","Macintosh","Safari","15.6.1","OS X","10_15_6","1233","<strong><p>恭喜你完成了实验！</p><p>感谢您的参与。</p></strong>","0",""
