"success","timeout","failed_images","failed_audio","failed_video","trial_type","trial_index","time_elapsed","internal_node_id","run_id","condition","recorded_at","source_code_version","ip","user_agent","device","browser","browser_version","platform","platform_version","rt","stimulus","response","question_order"
"true","false","[]","[]","[]","preload","0","995","0.0-0.0","26","1","2022-10-07 07:13:58","ebf9627b049f568eb4bf28942cb89901","101.89.178.147","Mozilla/5.0 (Windows NT 6.3; Win64; x64) AppleWebKit/537.36 (KHTML, like Gecko) Chrome/103.0.0.0 Safari/537.36","WebKit","Chrome","103.0.0.0","Windows","6.3","","","",""
"true","","","","","fullscreen","1","3384","0.0-1.0","26","1","2022-10-07 07:13:58","ebf9627b049f568eb4bf28942cb89901","101.89.178.147","Mozilla/5.0 (Windows NT 6.3; Win64; x64) AppleWebKit/537.36 (KHTML, like Gecko) Chrome/103.0.0.0 Safari/537.36","WebKit","Chrome","103.0.0.0","Windows","6.3","","","",""
"","","","","","html-button-response","2","18135","0.0-2.0","26","1","2022-10-07 07:13:58","ebf9627b049f568eb4bf28942cb89901","101.89.178.147","Mozilla/5.0 (Windows NT 6.3; Win64; x64) AppleWebKit/537.36 (KHTML, like Gecko) Chrome/103.0.0.0 Safari/537.36","WebKit","Chrome","103.0.0.0","Windows","6.3","14746","<p style=""font-size:20px;font-weight:bold;"">实验知情同意书</p><p style=""text-align:left;""><strong>实验名称：</strong>社会冲突研究</p><p style=""text-align:left;""><strong>主要研究者：</strong>韩晓春副教授（北京师范大学心理学部）</p><p style=""text-align:left;""><strong>联系方式：</strong>发送邮件至xiaochun.han@bnu.edu.cn</p><p style=""text-align:left;""><strong>研究目的：</strong>研究旨在了解人类面对群体冲突时的决策方式，以及相关的心理学特质。实验调查大约需要20分钟。</p><p style=""text-align:left;""><strong>实验流程：</strong>实验包含两部分。第一部分呈现一系列群体冲突场景，请你决定如何对这些冲突进行反应，大约需要10分钟完成。第二部分包含一系列人口统计学信息收集和心理学问卷，大约需要10分钟完成。</p><p style=""text-align:left;""><strong>参加及退出规则：</strong>参加本实验完全取决于您的个人意愿。在参与过程中，您可以随时退出，并且不用承担任何后果。</p><p style=""text-align:left;""><strong>隐私：</strong>本实验完全匿名进行，不会收集您的姓名或其他能够识别您身份的信息。实验中收集的作答仅用作科学研究使用，可能会在学术期刊/书籍上发表，或者用于教学，您的数据未来可能会和其他研究者或实验室分享，但您的个人身份不会被识别。</p><p style=""text-align:left;""><strong>实验报酬：</strong>实验完成后，您将获得15元人民币报酬，以感谢您的时间和努力。调查问卷中包含几道题目用以测验您作答时的认真度。只有完成全部实验，并且正确回答认真度测验的被试才能获得实验报酬。实验报酬将通过支付宝转账发放。</p><p style=""text-align:left;font-size:20px;""><strong>如果您同意以上实验知情同意书的内容，请点击'同意并且开始实验'按钮；否则请关闭浏览器界面，退出实验。</strong></p>","0",""
"","","","","","html-button-response","3","19614","0.0-3.0","26","1","2022-10-07 07:13:58","ebf9627b049f568eb4bf28942cb89901","101.89.178.147","Mozilla/5.0 (Windows NT 6.3; Win64; x64) AppleWebKit/537.36 (KHTML, like Gecko) Chrome/103.0.0.0 Safari/537.36","WebKit","Chrome","103.0.0.0","Windows","6.3","1476","<p ><strong>实验任务一：</strong></p><p>请想象你的国家与另一个国家发生了军事冲突。</p><p>你是国家军队的指挥官，你将如何在冲突中进行决策。</p><p>具体来说，作为军队指挥官，请你决定是否发射导弹进行打击。</p><p>接下来，你会面对一系列场景，请仔细阅读每个场景，然后进行决策。</p><p>这部分实验任务大约需要10分钟。</p><p><strong>实验过程中，请集中注意力。</strong></p>","0",""
"","","","","","html-keyboard-response","4","20617","0.0-4.0-0.0","26","1","2022-10-07 07:13:58","ebf9627b049f568eb4bf28942cb89901","101.89.178.147","Mozilla/5.0 (Windows NT 6.3; Win64; x64) AppleWebKit/537.36 (KHTML, like Gecko) Chrome/103.0.0.0 Safari/537.36","WebKit","Chrome","103.0.0.0","Windows","6.3","null","<div style=""font-size:60px;"">+</div>","null",""
"","","","","","html-button-response","5","27159","0.0-4.0-1.0","26","1","2022-10-07 07:13:58","ebf9627b049f568eb4bf28942cb89901","101.89.178.147","Mozilla/5.0 (Windows NT 6.3; Win64; x64) AppleWebKit/537.36 (KHTML, like Gecko) Chrome/103.0.0.0 Safari/537.36","WebKit","Chrome","103.0.0.0","Windows","6.3","6534","<p>作为军队的指挥官，你可以选择发射导弹杀死 <strong>4名</strong> 敌国士兵，但会误杀附近的 <strong>1名</strong> 敌国平民。</p> <p>平民照片如下图所示。</p> <p></p> <img src='stimuli/faces/NFM7.jpg', style='max-width: 30%;'> </img> <p><strong>你是否选择发射武器？</strong></p>","0",""
"","","","","","html-keyboard-response","6","28162","0.0-4.0-0.1","26","1","2022-10-07 07:13:58","ebf9627b049f568eb4bf28942cb89901","101.89.178.147","Mozilla/5.0 (Windows NT 6.3; Win64; x64) AppleWebKit/537.36 (KHTML, like Gecko) Chrome/103.0.0.0 Safari/537.36","WebKit","Chrome","103.0.0.0","Windows","6.3","null","<div style=""font-size:60px;"">+</div>","null",""
"","","","","","html-button-response","7","29855","0.0-4.0-1.1","26","1","2022-10-07 07:13:58","ebf9627b049f568eb4bf28942cb89901","101.89.178.147","Mozilla/5.0 (Windows NT 6.3; Win64; x64) AppleWebKit/537.36 (KHTML, like Gecko) Chrome/103.0.0.0 Safari/537.36","WebKit","Chrome","103.0.0.0","Windows","6.3","1691","<p>作为军队的指挥官，你可以选择发射导弹杀死 <strong>3名</strong> 敌国士兵，但会误杀附近的 <strong>1名</strong> 敌国平民。</p> <p>平民照片如下图所示。</p> <p></p> <img src='stimuli/faces/NFF2.jpg', style='max-width: 30%;'> </img> <p><strong>你是否选择发射武器？</strong></p>","0",""
"","","","","","html-keyboard-response","8","30857","0.0-4.0-0.2","26","1","2022-10-07 07:13:58","ebf9627b049f568eb4bf28942cb89901","101.89.178.147","Mozilla/5.0 (Windows NT 6.3; Win64; x64) AppleWebKit/537.36 (KHTML, like Gecko) Chrome/103.0.0.0 Safari/537.36","WebKit","Chrome","103.0.0.0","Windows","6.3","null","<div style=""font-size:60px;"">+</div>","null",""
"","","","","","html-button-response","9","32014","0.0-4.0-1.2","26","1","2022-10-07 07:13:58","ebf9627b049f568eb4bf28942cb89901","101.89.178.147","Mozilla/5.0 (Windows NT 6.3; Win64; x64) AppleWebKit/537.36 (KHTML, like Gecko) Chrome/103.0.0.0 Safari/537.36","WebKit","Chrome","103.0.0.0","Windows","6.3","1149","<p>作为军队的指挥官，你可以选择发射导弹杀死 <strong>6名</strong> 敌国士兵，但会误杀附近的 <strong>1名</strong> 敌国平民。</p> <p>平民照片如下图所示。</p> <p></p> <img src='stimuli/faces/NFM3.jpg', style='max-width: 30%;'> </img> <p><strong>你是否选择发射武器？</strong></p>","0",""
"","","","","","html-keyboard-response","10","33016","0.0-4.0-0.3","26","1","2022-10-07 07:13:58","ebf9627b049f568eb4bf28942cb89901","101.89.178.147","Mozilla/5.0 (Windows NT 6.3; Win64; x64) AppleWebKit/537.36 (KHTML, like Gecko) Chrome/103.0.0.0 Safari/537.36","WebKit","Chrome","103.0.0.0","Windows","6.3","null","<div style=""font-size:60px;"">+</div>","null",""
"","","","","","html-button-response","11","34145","0.0-4.0-1.3","26","1","2022-10-07 07:13:58","ebf9627b049f568eb4bf28942cb89901","101.89.178.147","Mozilla/5.0 (Windows NT 6.3; Win64; x64) AppleWebKit/537.36 (KHTML, like Gecko) Chrome/103.0.0.0 Safari/537.36","WebKit","Chrome","103.0.0.0","Windows","6.3","1126","<p>作为军队的指挥官，你可以选择发射导弹杀死 <strong>10名</strong> 敌国士兵，但会炸毁附近的 <strong>1棵</strong> 敌国树木。</p> <p>树木的照片如下图所示。</p> <p></p> <img src='stimuli/trees/15.png', style='max-width: 30%;'> </img> <p><strong>你是否选择发射武器？</strong></p>","0",""
"","","","","","html-keyboard-response","12","35152","0.0-4.0-0.4","26","1","2022-10-07 07:13:58","ebf9627b049f568eb4bf28942cb89901","101.89.178.147","Mozilla/5.0 (Windows NT 6.3; Win64; x64) AppleWebKit/537.36 (KHTML, like Gecko) Chrome/103.0.0.0 Safari/537.36","WebKit","Chrome","103.0.0.0","Windows","6.3","null","<div style=""font-size:60px;"">+</div>","null",""
"","","","","","html-button-response","13","37102","0.0-4.0-1.4","26","1","2022-10-07 07:13:58","ebf9627b049f568eb4bf28942cb89901","101.89.178.147","Mozilla/5.0 (Windows NT 6.3; Win64; x64) AppleWebKit/537.36 (KHTML, like Gecko) Chrome/103.0.0.0 Safari/537.36","WebKit","Chrome","103.0.0.0","Windows","6.3","1947","<p>作为军队的指挥官，你可以选择发射导弹杀死 <strong>4名</strong> 敌国士兵，但会误杀附近的 <strong>1名</strong> 敌国平民。</p> <p>平民照片如下图所示。</p> <p></p> <img src='stimuli/faces/NFF3.jpg', style='max-width: 30%;'> </img> <p><strong>你是否选择发射武器？</strong></p>","0",""
"","","","","","html-keyboard-response","14","38104","0.0-4.0-0.5","26","1","2022-10-07 07:13:58","ebf9627b049f568eb4bf28942cb89901","101.89.178.147","Mozilla/5.0 (Windows NT 6.3; Win64; x64) AppleWebKit/537.36 (KHTML, like Gecko) Chrome/103.0.0.0 Safari/537.36","WebKit","Chrome","103.0.0.0","Windows","6.3","null","<div style=""font-size:60px;"">+</div>","null",""
"","","","","","html-button-response","15","41318","0.0-4.0-1.5","26","1","2022-10-07 07:13:58","ebf9627b049f568eb4bf28942cb89901","101.89.178.147","Mozilla/5.0 (Windows NT 6.3; Win64; x64) AppleWebKit/537.36 (KHTML, like Gecko) Chrome/103.0.0.0 Safari/537.36","WebKit","Chrome","103.0.0.0","Windows","6.3","3212","<p>作为军队的指挥官，你可以选择发射导弹杀死 <strong>10名</strong> 敌国士兵，但会炸毁附近的 <strong>1棵</strong> 敌国树木。</p> <p>树木的照片如下图所示。</p> <p></p> <img src='stimuli/trees/5.png', style='max-width: 30%;'> </img> <p><strong>你是否选择发射武器？</strong></p>","0",""
"","","","","","html-keyboard-response","16","42320","0.0-4.0-0.6","26","1","2022-10-07 07:13:58","ebf9627b049f568eb4bf28942cb89901","101.89.178.147","Mozilla/5.0 (Windows NT 6.3; Win64; x64) AppleWebKit/537.36 (KHTML, like Gecko) Chrome/103.0.0.0 Safari/537.36","WebKit","Chrome","103.0.0.0","Windows","6.3","null","<div style=""font-size:60px;"">+</div>","null",""
"","","","","","html-button-response","17","44551","0.0-4.0-1.6","26","1","2022-10-07 07:13:58","ebf9627b049f568eb4bf28942cb89901","101.89.178.147","Mozilla/5.0 (Windows NT 6.3; Win64; x64) AppleWebKit/537.36 (KHTML, like Gecko) Chrome/103.0.0.0 Safari/537.36","WebKit","Chrome","103.0.0.0","Windows","6.3","2228","<p>作为军队的指挥官，你可以选择发射导弹杀死 <strong>2名</strong> 敌国士兵，但会炸毁附近的 <strong>1棵</strong> 敌国树木。</p> <p>树木的照片如下图所示。</p> <p></p> <img src='stimuli/trees/12.png', style='max-width: 30%;'> </img> <p><strong>你是否选择发射武器？</strong></p>","1",""
"","","","","","html-keyboard-response","18","45553","0.0-4.0-0.7","26","1","2022-10-07 07:13:58","ebf9627b049f568eb4bf28942cb89901","101.89.178.147","Mozilla/5.0 (Windows NT 6.3; Win64; x64) AppleWebKit/537.36 (KHTML, like Gecko) Chrome/103.0.0.0 Safari/537.36","WebKit","Chrome","103.0.0.0","Windows","6.3","null","<div style=""font-size:60px;"">+</div>","null",""
"","","","","","html-button-response","19","46767","0.0-4.0-1.7","26","1","2022-10-07 07:13:58","ebf9627b049f568eb4bf28942cb89901","101.89.178.147","Mozilla/5.0 (Windows NT 6.3; Win64; x64) AppleWebKit/537.36 (KHTML, like Gecko) Chrome/103.0.0.0 Safari/537.36","WebKit","Chrome","103.0.0.0","Windows","6.3","1211","<p>作为军队的指挥官，你可以选择发射导弹杀死 <strong>4名</strong> 敌国士兵，但会炸毁附近的 <strong>1棵</strong> 敌国树木。</p> <p>树木的照片如下图所示。</p> <p></p> <img src='stimuli/trees/8.png', style='max-width: 30%;'> </img> <p><strong>你是否选择发射武器？</strong></p>","0",""
"","","","","","html-keyboard-response","20","47774","0.0-4.0-0.8","26","1","2022-10-07 07:13:58","ebf9627b049f568eb4bf28942cb89901","101.89.178.147","Mozilla/5.0 (Windows NT 6.3; Win64; x64) AppleWebKit/537.36 (KHTML, like Gecko) Chrome/103.0.0.0 Safari/537.36","WebKit","Chrome","103.0.0.0","Windows","6.3","null","<div style=""font-size:60px;"">+</div>","null",""
"","","","","","html-button-response","21","48670","0.0-4.0-1.8","26","1","2022-10-07 07:13:58","ebf9627b049f568eb4bf28942cb89901","101.89.178.147","Mozilla/5.0 (Windows NT 6.3; Win64; x64) AppleWebKit/537.36 (KHTML, like Gecko) Chrome/103.0.0.0 Safari/537.36","WebKit","Chrome","103.0.0.0","Windows","6.3","891","<p>作为军队的指挥官，你可以选择发射导弹杀死 <strong>10名</strong> 敌国士兵，但会误杀附近的 <strong>1名</strong> 敌国平民。</p> <p>平民照片如下图所示。</p> <p></p> <img src='stimuli/faces/NFF7.jpg', style='max-width: 30%;'> </img> <p><strong>你是否选择发射武器？</strong></p>","0",""
"","","","","","html-keyboard-response","22","49674","0.0-4.0-0.9","26","1","2022-10-07 07:13:58","ebf9627b049f568eb4bf28942cb89901","101.89.178.147","Mozilla/5.0 (Windows NT 6.3; Win64; x64) AppleWebKit/537.36 (KHTML, like Gecko) Chrome/103.0.0.0 Safari/537.36","WebKit","Chrome","103.0.0.0","Windows","6.3","null","<div style=""font-size:60px;"">+</div>","null",""
"","","","","","html-button-response","23","50758","0.0-4.0-1.9","26","1","2022-10-07 07:13:58","ebf9627b049f568eb4bf28942cb89901","101.89.178.147","Mozilla/5.0 (Windows NT 6.3; Win64; x64) AppleWebKit/537.36 (KHTML, like Gecko) Chrome/103.0.0.0 Safari/537.36","WebKit","Chrome","103.0.0.0","Windows","6.3","1078","<p>作为军队的指挥官，你可以选择发射导弹杀死 <strong>4名</strong> 敌国士兵，但会误杀附近的 <strong>1名</strong> 敌国平民。</p> <p>平民照片如下图所示。</p> <p></p> <img src='stimuli/faces/NFF8.jpg', style='max-width: 30%;'> </img> <p><strong>你是否选择发射武器？</strong></p>","0",""
"","","","","","html-keyboard-response","24","51761","0.0-4.0-0.10","26","1","2022-10-07 07:13:58","ebf9627b049f568eb4bf28942cb89901","101.89.178.147","Mozilla/5.0 (Windows NT 6.3; Win64; x64) AppleWebKit/537.36 (KHTML, like Gecko) Chrome/103.0.0.0 Safari/537.36","WebKit","Chrome","103.0.0.0","Windows","6.3","null","<div style=""font-size:60px;"">+</div>","null",""
"","","","","","html-button-response","25","52654","0.0-4.0-1.10","26","1","2022-10-07 07:13:58","ebf9627b049f568eb4bf28942cb89901","101.89.178.147","Mozilla/5.0 (Windows NT 6.3; Win64; x64) AppleWebKit/537.36 (KHTML, like Gecko) Chrome/103.0.0.0 Safari/537.36","WebKit","Chrome","103.0.0.0","Windows","6.3","891","<p>作为军队的指挥官，你可以选择发射导弹杀死 <strong>7名</strong> 敌国士兵，但会误杀附近的 <strong>1名</strong> 敌国平民。</p> <p>平民照片如下图所示。</p> <p></p> <img src='stimuli/faces/NFM6.jpg', style='max-width: 30%;'> </img> <p><strong>你是否选择发射武器？</strong></p>","0",""
"","","","","","html-keyboard-response","26","53657","0.0-4.0-0.11","26","1","2022-10-07 07:13:58","ebf9627b049f568eb4bf28942cb89901","101.89.178.147","Mozilla/5.0 (Windows NT 6.3; Win64; x64) AppleWebKit/537.36 (KHTML, like Gecko) Chrome/103.0.0.0 Safari/537.36","WebKit","Chrome","103.0.0.0","Windows","6.3","null","<div style=""font-size:60px;"">+</div>","null",""
"","","","","","html-button-response","27","55502","0.0-4.0-1.11","26","1","2022-10-07 07:13:58","ebf9627b049f568eb4bf28942cb89901","101.89.178.147","Mozilla/5.0 (Windows NT 6.3; Win64; x64) AppleWebKit/537.36 (KHTML, like Gecko) Chrome/103.0.0.0 Safari/537.36","WebKit","Chrome","103.0.0.0","Windows","6.3","1843","<p>作为军队的指挥官，你可以选择发射导弹杀死 <strong>3名</strong> 敌国士兵，但会炸毁附近的 <strong>1棵</strong> 敌国树木。</p> <p>树木的照片如下图所示。</p> <p></p> <img src='stimuli/trees/3.png', style='max-width: 30%;'> </img> <p><strong>你是否选择发射武器？</strong></p>","0",""
"","","","","","html-keyboard-response","28","56504","0.0-4.0-0.12","26","1","2022-10-07 07:13:58","ebf9627b049f568eb4bf28942cb89901","101.89.178.147","Mozilla/5.0 (Windows NT 6.3; Win64; x64) AppleWebKit/537.36 (KHTML, like Gecko) Chrome/103.0.0.0 Safari/537.36","WebKit","Chrome","103.0.0.0","Windows","6.3","null","<div style=""font-size:60px;"">+</div>","null",""
"","","","","","html-button-response","29","58100","0.0-4.0-1.12","26","1","2022-10-07 07:13:58","ebf9627b049f568eb4bf28942cb89901","101.89.178.147","Mozilla/5.0 (Windows NT 6.3; Win64; x64) AppleWebKit/537.36 (KHTML, like Gecko) Chrome/103.0.0.0 Safari/537.36","WebKit","Chrome","103.0.0.0","Windows","6.3","1589","<p>作为军队的指挥官，你可以选择发射导弹杀死 <strong>1名</strong> 敌国士兵，但会误杀附近的 <strong>1名</strong> 敌国平民。</p> <p>平民照片如下图所示。</p> <p></p> <img src='stimuli/faces/NFM4.jpg', style='max-width: 30%;'> </img> <p><strong>你是否选择发射武器？</strong></p>","1",""
"","","","","","html-keyboard-response","30","59108","0.0-4.0-0.13","26","1","2022-10-07 07:13:58","ebf9627b049f568eb4bf28942cb89901","101.89.178.147","Mozilla/5.0 (Windows NT 6.3; Win64; x64) AppleWebKit/537.36 (KHTML, like Gecko) Chrome/103.0.0.0 Safari/537.36","WebKit","Chrome","103.0.0.0","Windows","6.3","null","<div style=""font-size:60px;"">+</div>","null",""
"","","","","","html-button-response","31","60863","0.0-4.0-1.13","26","1","2022-10-07 07:13:58","ebf9627b049f568eb4bf28942cb89901","101.89.178.147","Mozilla/5.0 (Windows NT 6.3; Win64; x64) AppleWebKit/537.36 (KHTML, like Gecko) Chrome/103.0.0.0 Safari/537.36","WebKit","Chrome","103.0.0.0","Windows","6.3","1751","<p>作为军队的指挥官，你可以选择发射导弹杀死 <strong>1名</strong> 敌国士兵，但会误杀附近的 <strong>1名</strong> 敌国平民。</p> <p>平民照片如下图所示。</p> <p></p> <img src='stimuli/faces/NFF4.jpg', style='max-width: 30%;'> </img> <p><strong>你是否选择发射武器？</strong></p>","1",""
"","","","","","html-keyboard-response","32","61866","0.0-4.0-0.14","26","1","2022-10-07 07:13:58","ebf9627b049f568eb4bf28942cb89901","101.89.178.147","Mozilla/5.0 (Windows NT 6.3; Win64; x64) AppleWebKit/537.36 (KHTML, like Gecko) Chrome/103.0.0.0 Safari/537.36","WebKit","Chrome","103.0.0.0","Windows","6.3","null","<div style=""font-size:60px;"">+</div>","null",""
"","","","","","html-button-response","33","63417","0.0-4.0-1.14","26","1","2022-10-07 07:13:58","ebf9627b049f568eb4bf28942cb89901","101.89.178.147","Mozilla/5.0 (Windows NT 6.3; Win64; x64) AppleWebKit/537.36 (KHTML, like Gecko) Chrome/103.0.0.0 Safari/537.36","WebKit","Chrome","103.0.0.0","Windows","6.3","1547","<p>作为军队的指挥官，你可以选择发射导弹杀死 <strong>3名</strong> 敌国士兵，但会炸毁附近的 <strong>1棵</strong> 敌国树木。</p> <p>树木的照片如下图所示。</p> <p></p> <img src='stimuli/trees/11.png', style='max-width: 30%;'> </img> <p><strong>你是否选择发射武器？</strong></p>","0",""
"","","","","","html-keyboard-response","34","64422","0.0-4.0-0.15","26","1","2022-10-07 07:13:58","ebf9627b049f568eb4bf28942cb89901","101.89.178.147","Mozilla/5.0 (Windows NT 6.3; Win64; x64) AppleWebKit/537.36 (KHTML, like Gecko) Chrome/103.0.0.0 Safari/537.36","WebKit","Chrome","103.0.0.0","Windows","6.3","null","<div style=""font-size:60px;"">+</div>","null",""
"","","","","","html-button-response","35","65558","0.0-4.0-1.15","26","1","2022-10-07 07:13:58","ebf9627b049f568eb4bf28942cb89901","101.89.178.147","Mozilla/5.0 (Windows NT 6.3; Win64; x64) AppleWebKit/537.36 (KHTML, like Gecko) Chrome/103.0.0.0 Safari/537.36","WebKit","Chrome","103.0.0.0","Windows","6.3","1127","<p>作为军队的指挥官，你可以选择发射导弹杀死 <strong>8名</strong> 敌国士兵，但会炸毁附近的 <strong>1棵</strong> 敌国树木。</p> <p>树木的照片如下图所示。</p> <p></p> <img src='stimuli/trees/14.png', style='max-width: 30%;'> </img> <p><strong>你是否选择发射武器？</strong></p>","0",""
"","","","","","html-keyboard-response","36","66560","0.0-4.0-0.16","26","1","2022-10-07 07:13:58","ebf9627b049f568eb4bf28942cb89901","101.89.178.147","Mozilla/5.0 (Windows NT 6.3; Win64; x64) AppleWebKit/537.36 (KHTML, like Gecko) Chrome/103.0.0.0 Safari/537.36","WebKit","Chrome","103.0.0.0","Windows","6.3","null","<div style=""font-size:60px;"">+</div>","null",""
"","","","","","html-button-response","37","67574","0.0-4.0-1.16","26","1","2022-10-07 07:13:58","ebf9627b049f568eb4bf28942cb89901","101.89.178.147","Mozilla/5.0 (Windows NT 6.3; Win64; x64) AppleWebKit/537.36 (KHTML, like Gecko) Chrome/103.0.0.0 Safari/537.36","WebKit","Chrome","103.0.0.0","Windows","6.3","1008","<p>作为军队的指挥官，你可以选择发射导弹杀死 <strong>4名</strong> 敌国士兵，但会炸毁附近的 <strong>1棵</strong> 敌国树木。</p> <p>树木的照片如下图所示。</p> <p></p> <img src='stimuli/trees/16.png', style='max-width: 30%;'> </img> <p><strong>你是否选择发射武器？</strong></p>","0",""
"","","","","","html-keyboard-response","38","68577","0.0-4.0-0.17","26","1","2022-10-07 07:13:58","ebf9627b049f568eb4bf28942cb89901","101.89.178.147","Mozilla/5.0 (Windows NT 6.3; Win64; x64) AppleWebKit/537.36 (KHTML, like Gecko) Chrome/103.0.0.0 Safari/537.36","WebKit","Chrome","103.0.0.0","Windows","6.3","null","<div style=""font-size:60px;"">+</div>","null",""
"","","","","","html-button-response","39","70575","0.0-4.0-1.17","26","1","2022-10-07 07:13:58","ebf9627b049f568eb4bf28942cb89901","101.89.178.147","Mozilla/5.0 (Windows NT 6.3; Win64; x64) AppleWebKit/537.36 (KHTML, like Gecko) Chrome/103.0.0.0 Safari/537.36","WebKit","Chrome","103.0.0.0","Windows","6.3","1987","<p>作为军队的指挥官，你可以选择发射导弹杀死 <strong>3名</strong> 敌国士兵，但会炸毁附近的 <strong>1棵</strong> 敌国树木。</p> <p>树木的照片如下图所示。</p> <p></p> <img src='stimuli/trees/10.png', style='max-width: 30%;'> </img> <p><strong>你是否选择发射武器？</strong></p>","0",""
"","","","","","html-keyboard-response","40","71581","0.0-4.0-0.18","26","1","2022-10-07 07:13:58","ebf9627b049f568eb4bf28942cb89901","101.89.178.147","Mozilla/5.0 (Windows NT 6.3; Win64; x64) AppleWebKit/537.36 (KHTML, like Gecko) Chrome/103.0.0.0 Safari/537.36","WebKit","Chrome","103.0.0.0","Windows","6.3","null","<div style=""font-size:60px;"">+</div>","null",""
"","","","","","html-button-response","41","72295","0.0-4.0-1.18","26","1","2022-10-07 07:13:58","ebf9627b049f568eb4bf28942cb89901","101.89.178.147","Mozilla/5.0 (Windows NT 6.3; Win64; x64) AppleWebKit/537.36 (KHTML, like Gecko) Chrome/103.0.0.0 Safari/537.36","WebKit","Chrome","103.0.0.0","Windows","6.3","711","<p>作为军队的指挥官，你可以选择发射导弹杀死 <strong>3名</strong> 敌国士兵，但会炸毁附近的 <strong>1棵</strong> 敌国树木。</p> <p>树木的照片如下图所示。</p> <p></p> <img src='stimuli/trees/15.png', style='max-width: 30%;'> </img> <p><strong>你是否选择发射武器？</strong></p>","0",""
"","","","","","html-keyboard-response","42","73303","0.0-4.0-0.19","26","1","2022-10-07 07:13:58","ebf9627b049f568eb4bf28942cb89901","101.89.178.147","Mozilla/5.0 (Windows NT 6.3; Win64; x64) AppleWebKit/537.36 (KHTML, like Gecko) Chrome/103.0.0.0 Safari/537.36","WebKit","Chrome","103.0.0.0","Windows","6.3","null","<div style=""font-size:60px;"">+</div>","null",""
"","","","","","html-button-response","43","74246","0.0-4.0-1.19","26","1","2022-10-07 07:13:58","ebf9627b049f568eb4bf28942cb89901","101.89.178.147","Mozilla/5.0 (Windows NT 6.3; Win64; x64) AppleWebKit/537.36 (KHTML, like Gecko) Chrome/103.0.0.0 Safari/537.36","WebKit","Chrome","103.0.0.0","Windows","6.3","934","<p>作为军队的指挥官，你可以选择发射导弹杀死 <strong>8名</strong> 敌国士兵，但会炸毁附近的 <strong>1棵</strong> 敌国树木。</p> <p>树木的照片如下图所示。</p> <p></p> <img src='stimuli/trees/16.png', style='max-width: 30%;'> </img> <p><strong>你是否选择发射武器？</strong></p>","0",""
"","","","","","html-keyboard-response","44","75249","0.0-4.0-0.20","26","1","2022-10-07 07:13:58","ebf9627b049f568eb4bf28942cb89901","101.89.178.147","Mozilla/5.0 (Windows NT 6.3; Win64; x64) AppleWebKit/537.36 (KHTML, like Gecko) Chrome/103.0.0.0 Safari/537.36","WebKit","Chrome","103.0.0.0","Windows","6.3","null","<div style=""font-size:60px;"">+</div>","null",""
"","","","","","html-button-response","45","76071","0.0-4.0-1.20","26","1","2022-10-07 07:13:58","ebf9627b049f568eb4bf28942cb89901","101.89.178.147","Mozilla/5.0 (Windows NT 6.3; Win64; x64) AppleWebKit/537.36 (KHTML, like Gecko) Chrome/103.0.0.0 Safari/537.36","WebKit","Chrome","103.0.0.0","Windows","6.3","820","<p>作为军队的指挥官，你可以选择发射导弹杀死 <strong>10名</strong> 敌国士兵，但会误杀附近的 <strong>1名</strong> 敌国平民。</p> <p>平民照片如下图所示。</p> <p></p> <img src='stimuli/faces/NFM8.jpg', style='max-width: 30%;'> </img> <p><strong>你是否选择发射武器？</strong></p>","0",""
"","","","","","html-keyboard-response","46","77076","0.0-4.0-0.21","26","1","2022-10-07 07:13:58","ebf9627b049f568eb4bf28942cb89901","101.89.178.147","Mozilla/5.0 (Windows NT 6.3; Win64; x64) AppleWebKit/537.36 (KHTML, like Gecko) Chrome/103.0.0.0 Safari/537.36","WebKit","Chrome","103.0.0.0","Windows","6.3","null","<div style=""font-size:60px;"">+</div>","null",""
"","","","","","html-button-response","47","78015","0.0-4.0-1.21","26","1","2022-10-07 07:13:58","ebf9627b049f568eb4bf28942cb89901","101.89.178.147","Mozilla/5.0 (Windows NT 6.3; Win64; x64) AppleWebKit/537.36 (KHTML, like Gecko) Chrome/103.0.0.0 Safari/537.36","WebKit","Chrome","103.0.0.0","Windows","6.3","933","<p>作为军队的指挥官，你可以选择发射导弹杀死 <strong>6名</strong> 敌国士兵，但会误杀附近的 <strong>1名</strong> 敌国平民。</p> <p>平民照片如下图所示。</p> <p></p> <img src='stimuli/faces/NFM1.jpg', style='max-width: 30%;'> </img> <p><strong>你是否选择发射武器？</strong></p>","0",""
"","","","","","html-keyboard-response","48","79022","0.0-4.0-0.22","26","1","2022-10-07 07:13:58","ebf9627b049f568eb4bf28942cb89901","101.89.178.147","Mozilla/5.0 (Windows NT 6.3; Win64; x64) AppleWebKit/537.36 (KHTML, like Gecko) Chrome/103.0.0.0 Safari/537.36","WebKit","Chrome","103.0.0.0","Windows","6.3","null","<div style=""font-size:60px;"">+</div>","null",""
"","","","","","html-button-response","49","81814","0.0-4.0-1.22","26","1","2022-10-07 07:13:58","ebf9627b049f568eb4bf28942cb89901","101.89.178.147","Mozilla/5.0 (Windows NT 6.3; Win64; x64) AppleWebKit/537.36 (KHTML, like Gecko) Chrome/103.0.0.0 Safari/537.36","WebKit","Chrome","103.0.0.0","Windows","6.3","2782","<p>作为军队的指挥官，你可以选择发射导弹杀死 <strong>1名</strong> 敌国士兵，但会炸毁附近的 <strong>1棵</strong> 敌国树木。</p> <p>树木的照片如下图所示。</p> <p></p> <img src='stimuli/trees/1.png', style='max-width: 30%;'> </img> <p><strong>你是否选择发射武器？</strong></p>","0",""
"","","","","","html-keyboard-response","50","82818","0.0-4.0-0.23","26","1","2022-10-07 07:13:58","ebf9627b049f568eb4bf28942cb89901","101.89.178.147","Mozilla/5.0 (Windows NT 6.3; Win64; x64) AppleWebKit/537.36 (KHTML, like Gecko) Chrome/103.0.0.0 Safari/537.36","WebKit","Chrome","103.0.0.0","Windows","6.3","null","<div style=""font-size:60px;"">+</div>","null",""
"","","","","","html-button-response","51","83678","0.0-4.0-1.23","26","1","2022-10-07 07:13:58","ebf9627b049f568eb4bf28942cb89901","101.89.178.147","Mozilla/5.0 (Windows NT 6.3; Win64; x64) AppleWebKit/537.36 (KHTML, like Gecko) Chrome/103.0.0.0 Safari/537.36","WebKit","Chrome","103.0.0.0","Windows","6.3","853","<p>作为军队的指挥官，你可以选择发射导弹杀死 <strong>8名</strong> 敌国士兵，但会炸毁附近的 <strong>1棵</strong> 敌国树木。</p> <p>树木的照片如下图所示。</p> <p></p> <img src='stimuli/trees/3.png', style='max-width: 30%;'> </img> <p><strong>你是否选择发射武器？</strong></p>","0",""
"","","","","","html-keyboard-response","52","84681","0.0-4.0-0.24","26","1","2022-10-07 07:13:58","ebf9627b049f568eb4bf28942cb89901","101.89.178.147","Mozilla/5.0 (Windows NT 6.3; Win64; x64) AppleWebKit/537.36 (KHTML, like Gecko) Chrome/103.0.0.0 Safari/537.36","WebKit","Chrome","103.0.0.0","Windows","6.3","null","<div style=""font-size:60px;"">+</div>","null",""
"","","","","","html-button-response","53","85463","0.0-4.0-1.24","26","1","2022-10-07 07:13:58","ebf9627b049f568eb4bf28942cb89901","101.89.178.147","Mozilla/5.0 (Windows NT 6.3; Win64; x64) AppleWebKit/537.36 (KHTML, like Gecko) Chrome/103.0.0.0 Safari/537.36","WebKit","Chrome","103.0.0.0","Windows","6.3","776","<p>作为军队的指挥官，你可以选择发射导弹杀死 <strong>8名</strong> 敌国士兵，但会炸毁附近的 <strong>1棵</strong> 敌国树木。</p> <p>树木的照片如下图所示。</p> <p></p> <img src='stimuli/trees/7.png', style='max-width: 30%;'> </img> <p><strong>你是否选择发射武器？</strong></p>","0",""
"","","","","","html-keyboard-response","54","86469","0.0-4.0-0.25","26","1","2022-10-07 07:13:58","ebf9627b049f568eb4bf28942cb89901","101.89.178.147","Mozilla/5.0 (Windows NT 6.3; Win64; x64) AppleWebKit/537.36 (KHTML, like Gecko) Chrome/103.0.0.0 Safari/537.36","WebKit","Chrome","103.0.0.0","Windows","6.3","null","<div style=""font-size:60px;"">+</div>","null",""
"","","","","","html-button-response","55","87192","0.0-4.0-1.25","26","1","2022-10-07 07:13:58","ebf9627b049f568eb4bf28942cb89901","101.89.178.147","Mozilla/5.0 (Windows NT 6.3; Win64; x64) AppleWebKit/537.36 (KHTML, like Gecko) Chrome/103.0.0.0 Safari/537.36","WebKit","Chrome","103.0.0.0","Windows","6.3","718","<p>作为军队的指挥官，你可以选择发射导弹杀死 <strong>8名</strong> 敌国士兵，但会炸毁附近的 <strong>1棵</strong> 敌国树木。</p> <p>树木的照片如下图所示。</p> <p></p> <img src='stimuli/trees/13.png', style='max-width: 30%;'> </img> <p><strong>你是否选择发射武器？</strong></p>","0",""
"","","","","","html-keyboard-response","56","88194","0.0-4.0-0.26","26","1","2022-10-07 07:13:58","ebf9627b049f568eb4bf28942cb89901","101.89.178.147","Mozilla/5.0 (Windows NT 6.3; Win64; x64) AppleWebKit/537.36 (KHTML, like Gecko) Chrome/103.0.0.0 Safari/537.36","WebKit","Chrome","103.0.0.0","Windows","6.3","null","<div style=""font-size:60px;"">+</div>","null",""
"","","","","","html-button-response","57","88990","0.0-4.0-1.26","26","1","2022-10-07 07:13:58","ebf9627b049f568eb4bf28942cb89901","101.89.178.147","Mozilla/5.0 (Windows NT 6.3; Win64; x64) AppleWebKit/537.36 (KHTML, like Gecko) Chrome/103.0.0.0 Safari/537.36","WebKit","Chrome","103.0.0.0","Windows","6.3","792","<p>作为军队的指挥官，你可以选择发射导弹杀死 <strong>10名</strong> 敌国士兵，但会误杀附近的 <strong>1名</strong> 敌国平民。</p> <p>平民照片如下图所示。</p> <p></p> <img src='stimuli/faces/NFM5.jpg', style='max-width: 30%;'> </img> <p><strong>你是否选择发射武器？</strong></p>","0",""
"","","","","","html-keyboard-response","58","89994","0.0-4.0-0.27","26","1","2022-10-07 07:13:58","ebf9627b049f568eb4bf28942cb89901","101.89.178.147","Mozilla/5.0 (Windows NT 6.3; Win64; x64) AppleWebKit/537.36 (KHTML, like Gecko) Chrome/103.0.0.0 Safari/537.36","WebKit","Chrome","103.0.0.0","Windows","6.3","null","<div style=""font-size:60px;"">+</div>","null",""
"","","","","","html-button-response","59","90903","0.0-4.0-1.27","26","1","2022-10-07 07:13:58","ebf9627b049f568eb4bf28942cb89901","101.89.178.147","Mozilla/5.0 (Windows NT 6.3; Win64; x64) AppleWebKit/537.36 (KHTML, like Gecko) Chrome/103.0.0.0 Safari/537.36","WebKit","Chrome","103.0.0.0","Windows","6.3","904","<p>作为军队的指挥官，你可以选择发射导弹杀死 <strong>4名</strong> 敌国士兵，但会炸毁附近的 <strong>1棵</strong> 敌国树木。</p> <p>树木的照片如下图所示。</p> <p></p> <img src='stimuli/trees/5.png', style='max-width: 30%;'> </img> <p><strong>你是否选择发射武器？</strong></p>","0",""
"","","","","","html-keyboard-response","60","91907","0.0-4.0-0.28","26","1","2022-10-07 07:13:58","ebf9627b049f568eb4bf28942cb89901","101.89.178.147","Mozilla/5.0 (Windows NT 6.3; Win64; x64) AppleWebKit/537.36 (KHTML, like Gecko) Chrome/103.0.0.0 Safari/537.36","WebKit","Chrome","103.0.0.0","Windows","6.3","null","<div style=""font-size:60px;"">+</div>","null",""
"","","","","","html-button-response","61","94160","0.0-4.0-1.28","26","1","2022-10-07 07:13:58","ebf9627b049f568eb4bf28942cb89901","101.89.178.147","Mozilla/5.0 (Windows NT 6.3; Win64; x64) AppleWebKit/537.36 (KHTML, like Gecko) Chrome/103.0.0.0 Safari/537.36","WebKit","Chrome","103.0.0.0","Windows","6.3","2249","<p>作为军队的指挥官，你可以选择发射导弹杀死 <strong>8名</strong> 敌国士兵，但会误杀附近的 <strong>1名</strong> 敌国平民。</p> <p>平民照片如下图所示。</p> <p></p> <img src='stimuli/faces/NFM7.jpg', style='max-width: 30%;'> </img> <p><strong>你是否选择发射武器？</strong></p>","0",""
"","","","","","html-keyboard-response","62","95164","0.0-4.0-0.29","26","1","2022-10-07 07:13:58","ebf9627b049f568eb4bf28942cb89901","101.89.178.147","Mozilla/5.0 (Windows NT 6.3; Win64; x64) AppleWebKit/537.36 (KHTML, like Gecko) Chrome/103.0.0.0 Safari/537.36","WebKit","Chrome","103.0.0.0","Windows","6.3","null","<div style=""font-size:60px;"">+</div>","null",""
"","","","","","html-button-response","63","96142","0.0-4.0-1.29","26","1","2022-10-07 07:13:58","ebf9627b049f568eb4bf28942cb89901","101.89.178.147","Mozilla/5.0 (Windows NT 6.3; Win64; x64) AppleWebKit/537.36 (KHTML, like Gecko) Chrome/103.0.0.0 Safari/537.36","WebKit","Chrome","103.0.0.0","Windows","6.3","974","<p>作为军队的指挥官，你可以选择发射导弹杀死 <strong>8名</strong> 敌国士兵，但会炸毁附近的 <strong>1棵</strong> 敌国树木。</p> <p>树木的照片如下图所示。</p> <p></p> <img src='stimuli/trees/1.png', style='max-width: 30%;'> </img> <p><strong>你是否选择发射武器？</strong></p>","0",""
"","","","","","html-keyboard-response","64","97147","0.0-4.0-0.30","26","1","2022-10-07 07:13:58","ebf9627b049f568eb4bf28942cb89901","101.89.178.147","Mozilla/5.0 (Windows NT 6.3; Win64; x64) AppleWebKit/537.36 (KHTML, like Gecko) Chrome/103.0.0.0 Safari/537.36","WebKit","Chrome","103.0.0.0","Windows","6.3","null","<div style=""font-size:60px;"">+</div>","null",""
"","","","","","html-button-response","65","98560","0.0-4.0-1.30","26","1","2022-10-07 07:13:58","ebf9627b049f568eb4bf28942cb89901","101.89.178.147","Mozilla/5.0 (Windows NT 6.3; Win64; x64) AppleWebKit/537.36 (KHTML, like Gecko) Chrome/103.0.0.0 Safari/537.36","WebKit","Chrome","103.0.0.0","Windows","6.3","1408","<p>作为军队的指挥官，你可以选择发射导弹杀死 <strong>9名</strong> 敌国士兵，但会炸毁附近的 <strong>1棵</strong> 敌国树木。</p> <p>树木的照片如下图所示。</p> <p></p> <img src='stimuli/trees/9.png', style='max-width: 30%;'> </img> <p><strong>你是否选择发射武器？</strong></p>","0",""
"","","","","","html-keyboard-response","66","99567","0.0-4.0-0.31","26","1","2022-10-07 07:13:58","ebf9627b049f568eb4bf28942cb89901","101.89.178.147","Mozilla/5.0 (Windows NT 6.3; Win64; x64) AppleWebKit/537.36 (KHTML, like Gecko) Chrome/103.0.0.0 Safari/537.36","WebKit","Chrome","103.0.0.0","Windows","6.3","null","<div style=""font-size:60px;"">+</div>","null",""
"","","","","","html-button-response","67","100366","0.0-4.0-1.31","26","1","2022-10-07 07:13:58","ebf9627b049f568eb4bf28942cb89901","101.89.178.147","Mozilla/5.0 (Windows NT 6.3; Win64; x64) AppleWebKit/537.36 (KHTML, like Gecko) Chrome/103.0.0.0 Safari/537.36","WebKit","Chrome","103.0.0.0","Windows","6.3","795","<p>作为军队的指挥官，你可以选择发射导弹杀死 <strong>6名</strong> 敌国士兵，但会炸毁附近的 <strong>1棵</strong> 敌国树木。</p> <p>树木的照片如下图所示。</p> <p></p> <img src='stimuli/trees/2.png', style='max-width: 30%;'> </img> <p><strong>你是否选择发射武器？</strong></p>","0",""
"","","","","","html-keyboard-response","68","101370","0.0-4.0-0.32","26","1","2022-10-07 07:13:58","ebf9627b049f568eb4bf28942cb89901","101.89.178.147","Mozilla/5.0 (Windows NT 6.3; Win64; x64) AppleWebKit/537.36 (KHTML, like Gecko) Chrome/103.0.0.0 Safari/537.36","WebKit","Chrome","103.0.0.0","Windows","6.3","null","<div style=""font-size:60px;"">+</div>","null",""
"","","","","","html-button-response","69","102966","0.0-4.0-1.32","26","1","2022-10-07 07:13:58","ebf9627b049f568eb4bf28942cb89901","101.89.178.147","Mozilla/5.0 (Windows NT 6.3; Win64; x64) AppleWebKit/537.36 (KHTML, like Gecko) Chrome/103.0.0.0 Safari/537.36","WebKit","Chrome","103.0.0.0","Windows","6.3","1591","<p>作为军队的指挥官，你可以选择发射导弹杀死 <strong>2名</strong> 敌国士兵，但会误杀附近的 <strong>1名</strong> 敌国平民。</p> <p>平民照片如下图所示。</p> <p></p> <img src='stimuli/faces/NFM1.jpg', style='max-width: 30%;'> </img> <p><strong>你是否选择发射武器？</strong></p>","1",""
"","","","","","html-keyboard-response","70","103972","0.0-4.0-0.33","26","1","2022-10-07 07:13:58","ebf9627b049f568eb4bf28942cb89901","101.89.178.147","Mozilla/5.0 (Windows NT 6.3; Win64; x64) AppleWebKit/537.36 (KHTML, like Gecko) Chrome/103.0.0.0 Safari/537.36","WebKit","Chrome","103.0.0.0","Windows","6.3","null","<div style=""font-size:60px;"">+</div>","null",""
"","","","","","html-button-response","71","105143","0.0-4.0-1.33","26","1","2022-10-07 07:13:58","ebf9627b049f568eb4bf28942cb89901","101.89.178.147","Mozilla/5.0 (Windows NT 6.3; Win64; x64) AppleWebKit/537.36 (KHTML, like Gecko) Chrome/103.0.0.0 Safari/537.36","WebKit","Chrome","103.0.0.0","Windows","6.3","1166","<p>作为军队的指挥官，你可以选择发射导弹杀死 <strong>7名</strong> 敌国士兵，但会误杀附近的 <strong>1名</strong> 敌国平民。</p> <p>平民照片如下图所示。</p> <p></p> <img src='stimuli/faces/NFF3.jpg', style='max-width: 30%;'> </img> <p><strong>你是否选择发射武器？</strong></p>","0",""
"","","","","","html-keyboard-response","72","106150","0.0-4.0-0.34","26","1","2022-10-07 07:13:58","ebf9627b049f568eb4bf28942cb89901","101.89.178.147","Mozilla/5.0 (Windows NT 6.3; Win64; x64) AppleWebKit/537.36 (KHTML, like Gecko) Chrome/103.0.0.0 Safari/537.36","WebKit","Chrome","103.0.0.0","Windows","6.3","null","<div style=""font-size:60px;"">+</div>","null",""
"","","","","","html-button-response","73","107014","0.0-4.0-1.34","26","1","2022-10-07 07:13:58","ebf9627b049f568eb4bf28942cb89901","101.89.178.147","Mozilla/5.0 (Windows NT 6.3; Win64; x64) AppleWebKit/537.36 (KHTML, like Gecko) Chrome/103.0.0.0 Safari/537.36","WebKit","Chrome","103.0.0.0","Windows","6.3","860","<p>作为军队的指挥官，你可以选择发射导弹杀死 <strong>5名</strong> 敌国士兵，但会误杀附近的 <strong>1名</strong> 敌国平民。</p> <p>平民照片如下图所示。</p> <p></p> <img src='stimuli/faces/NFM8.jpg', style='max-width: 30%;'> </img> <p><strong>你是否选择发射武器？</strong></p>","0",""
"","","","","","html-keyboard-response","74","108017","0.0-4.0-0.35","26","1","2022-10-07 07:13:58","ebf9627b049f568eb4bf28942cb89901","101.89.178.147","Mozilla/5.0 (Windows NT 6.3; Win64; x64) AppleWebKit/537.36 (KHTML, like Gecko) Chrome/103.0.0.0 Safari/537.36","WebKit","Chrome","103.0.0.0","Windows","6.3","null","<div style=""font-size:60px;"">+</div>","null",""
"","","","","","html-button-response","75","108726","0.0-4.0-1.35","26","1","2022-10-07 07:13:58","ebf9627b049f568eb4bf28942cb89901","101.89.178.147","Mozilla/5.0 (Windows NT 6.3; Win64; x64) AppleWebKit/537.36 (KHTML, like Gecko) Chrome/103.0.0.0 Safari/537.36","WebKit","Chrome","103.0.0.0","Windows","6.3","705","<p>作为军队的指挥官，你可以选择发射导弹杀死 <strong>7名</strong> 敌国士兵，但会误杀附近的 <strong>1名</strong> 敌国平民。</p> <p>平民照片如下图所示。</p> <p></p> <img src='stimuli/faces/NFM2.jpg', style='max-width: 30%;'> </img> <p><strong>你是否选择发射武器？</strong></p>","0",""
"","","","","","html-keyboard-response","76","109731","0.0-4.0-0.36","26","1","2022-10-07 07:13:58","ebf9627b049f568eb4bf28942cb89901","101.89.178.147","Mozilla/5.0 (Windows NT 6.3; Win64; x64) AppleWebKit/537.36 (KHTML, like Gecko) Chrome/103.0.0.0 Safari/537.36","WebKit","Chrome","103.0.0.0","Windows","6.3","null","<div style=""font-size:60px;"">+</div>","null",""
"","","","","","html-button-response","77","110894","0.0-4.0-1.36","26","1","2022-10-07 07:13:58","ebf9627b049f568eb4bf28942cb89901","101.89.178.147","Mozilla/5.0 (Windows NT 6.3; Win64; x64) AppleWebKit/537.36 (KHTML, like Gecko) Chrome/103.0.0.0 Safari/537.36","WebKit","Chrome","103.0.0.0","Windows","6.3","1160","<p>作为军队的指挥官，你可以选择发射导弹杀死 <strong>5名</strong> 敌国士兵，但会误杀附近的 <strong>1名</strong> 敌国平民。</p> <p>平民照片如下图所示。</p> <p></p> <img src='stimuli/faces/NFM5.jpg', style='max-width: 30%;'> </img> <p><strong>你是否选择发射武器？</strong></p>","0",""
"","","","","","html-keyboard-response","78","111898","0.0-4.0-0.37","26","1","2022-10-07 07:13:58","ebf9627b049f568eb4bf28942cb89901","101.89.178.147","Mozilla/5.0 (Windows NT 6.3; Win64; x64) AppleWebKit/537.36 (KHTML, like Gecko) Chrome/103.0.0.0 Safari/537.36","WebKit","Chrome","103.0.0.0","Windows","6.3","null","<div style=""font-size:60px;"">+</div>","null",""
"","","","","","html-button-response","79","112631","0.0-4.0-1.37","26","1","2022-10-07 07:13:58","ebf9627b049f568eb4bf28942cb89901","101.89.178.147","Mozilla/5.0 (Windows NT 6.3; Win64; x64) AppleWebKit/537.36 (KHTML, like Gecko) Chrome/103.0.0.0 Safari/537.36","WebKit","Chrome","103.0.0.0","Windows","6.3","726","<p>作为军队的指挥官，你可以选择发射导弹杀死 <strong>5名</strong> 敌国士兵，但会炸毁附近的 <strong>1棵</strong> 敌国树木。</p> <p>树木的照片如下图所示。</p> <p></p> <img src='stimuli/trees/13.png', style='max-width: 30%;'> </img> <p><strong>你是否选择发射武器？</strong></p>","0",""
"","","","","","html-keyboard-response","80","113639","0.0-4.0-0.38","26","1","2022-10-07 07:13:58","ebf9627b049f568eb4bf28942cb89901","101.89.178.147","Mozilla/5.0 (Windows NT 6.3; Win64; x64) AppleWebKit/537.36 (KHTML, like Gecko) Chrome/103.0.0.0 Safari/537.36","WebKit","Chrome","103.0.0.0","Windows","6.3","null","<div style=""font-size:60px;"">+</div>","null",""
"","","","","","html-button-response","81","114398","0.0-4.0-1.38","26","1","2022-10-07 07:13:58","ebf9627b049f568eb4bf28942cb89901","101.89.178.147","Mozilla/5.0 (Windows NT 6.3; Win64; x64) AppleWebKit/537.36 (KHTML, like Gecko) Chrome/103.0.0.0 Safari/537.36","WebKit","Chrome","103.0.0.0","Windows","6.3","742","<p>作为军队的指挥官，你可以选择发射导弹杀死 <strong>9名</strong> 敌国士兵，但会误杀附近的 <strong>1名</strong> 敌国平民。</p> <p>平民照片如下图所示。</p> <p></p> <img src='stimuli/faces/NFF5.jpg', style='max-width: 30%;'> </img> <p><strong>你是否选择发射武器？</strong></p>","0",""
"","","","","","html-keyboard-response","82","115403","0.0-4.0-0.39","26","1","2022-10-07 07:13:58","ebf9627b049f568eb4bf28942cb89901","101.89.178.147","Mozilla/5.0 (Windows NT 6.3; Win64; x64) AppleWebKit/537.36 (KHTML, like Gecko) Chrome/103.0.0.0 Safari/537.36","WebKit","Chrome","103.0.0.0","Windows","6.3","null","<div style=""font-size:60px;"">+</div>","null",""
"","","","","","html-button-response","83","116071","0.0-4.0-1.39","26","1","2022-10-07 07:13:58","ebf9627b049f568eb4bf28942cb89901","101.89.178.147","Mozilla/5.0 (Windows NT 6.3; Win64; x64) AppleWebKit/537.36 (KHTML, like Gecko) Chrome/103.0.0.0 Safari/537.36","WebKit","Chrome","103.0.0.0","Windows","6.3","659","<p>作为军队的指挥官，你可以选择发射导弹杀死 <strong>5名</strong> 敌国士兵，但会炸毁附近的 <strong>1棵</strong> 敌国树木。</p> <p>树木的照片如下图所示。</p> <p></p> <img src='stimuli/trees/7.png', style='max-width: 30%;'> </img> <p><strong>你是否选择发射武器？</strong></p>","0",""
"","","","","","html-keyboard-response","84","117083","0.0-4.0-0.40","26","1","2022-10-07 07:13:58","ebf9627b049f568eb4bf28942cb89901","101.89.178.147","Mozilla/5.0 (Windows NT 6.3; Win64; x64) AppleWebKit/537.36 (KHTML, like Gecko) Chrome/103.0.0.0 Safari/537.36","WebKit","Chrome","103.0.0.0","Windows","6.3","null","<div style=""font-size:60px;"">+</div>","null",""
"","","","","","html-button-response","85","119190","0.0-4.0-1.40","26","1","2022-10-07 07:13:58","ebf9627b049f568eb4bf28942cb89901","101.89.178.147","Mozilla/5.0 (Windows NT 6.3; Win64; x64) AppleWebKit/537.36 (KHTML, like Gecko) Chrome/103.0.0.0 Safari/537.36","WebKit","Chrome","103.0.0.0","Windows","6.3","2102","<p>作为军队的指挥官，你可以选择发射导弹杀死 <strong>2名</strong> 敌国士兵，但会炸毁附近的 <strong>1棵</strong> 敌国树木。</p> <p>树木的照片如下图所示。</p> <p></p> <img src='stimuli/trees/4.png', style='max-width: 30%;'> </img> <p><strong>你是否选择发射武器？</strong></p>","0",""
"","","","","","html-keyboard-response","86","120194","0.0-4.0-0.41","26","1","2022-10-07 07:13:58","ebf9627b049f568eb4bf28942cb89901","101.89.178.147","Mozilla/5.0 (Windows NT 6.3; Win64; x64) AppleWebKit/537.36 (KHTML, like Gecko) Chrome/103.0.0.0 Safari/537.36","WebKit","Chrome","103.0.0.0","Windows","6.3","null","<div style=""font-size:60px;"">+</div>","null",""
"","","","","","html-button-response","87","121094","0.0-4.0-1.41","26","1","2022-10-07 07:13:58","ebf9627b049f568eb4bf28942cb89901","101.89.178.147","Mozilla/5.0 (Windows NT 6.3; Win64; x64) AppleWebKit/537.36 (KHTML, like Gecko) Chrome/103.0.0.0 Safari/537.36","WebKit","Chrome","103.0.0.0","Windows","6.3","893","<p>作为军队的指挥官，你可以选择发射导弹杀死 <strong>8名</strong> 敌国士兵，但会炸毁附近的 <strong>1棵</strong> 敌国树木。</p> <p>树木的照片如下图所示。</p> <p></p> <img src='stimuli/trees/8.png', style='max-width: 30%;'> </img> <p><strong>你是否选择发射武器？</strong></p>","0",""
"","","","","","html-keyboard-response","88","122098","0.0-4.0-0.42","26","1","2022-10-07 07:13:58","ebf9627b049f568eb4bf28942cb89901","101.89.178.147","Mozilla/5.0 (Windows NT 6.3; Win64; x64) AppleWebKit/537.36 (KHTML, like Gecko) Chrome/103.0.0.0 Safari/537.36","WebKit","Chrome","103.0.0.0","Windows","6.3","null","<div style=""font-size:60px;"">+</div>","null",""
"","","","","","html-button-response","89","122822","0.0-4.0-1.42","26","1","2022-10-07 07:13:58","ebf9627b049f568eb4bf28942cb89901","101.89.178.147","Mozilla/5.0 (Windows NT 6.3; Win64; x64) AppleWebKit/537.36 (KHTML, like Gecko) Chrome/103.0.0.0 Safari/537.36","WebKit","Chrome","103.0.0.0","Windows","6.3","717","<p>作为军队的指挥官，你可以选择发射导弹杀死 <strong>8名</strong> 敌国士兵，但会误杀附近的 <strong>1名</strong> 敌国平民。</p> <p>平民照片如下图所示。</p> <p></p> <img src='stimuli/faces/NFM4.jpg', style='max-width: 30%;'> </img> <p><strong>你是否选择发射武器？</strong></p>","0",""
"","","","","","html-keyboard-response","90","123827","0.0-4.0-0.43","26","1","2022-10-07 07:13:58","ebf9627b049f568eb4bf28942cb89901","101.89.178.147","Mozilla/5.0 (Windows NT 6.3; Win64; x64) AppleWebKit/537.36 (KHTML, like Gecko) Chrome/103.0.0.0 Safari/537.36","WebKit","Chrome","103.0.0.0","Windows","6.3","null","<div style=""font-size:60px;"">+</div>","null",""
"","","","","","html-button-response","91","124647","0.0-4.0-1.43","26","1","2022-10-07 07:13:58","ebf9627b049f568eb4bf28942cb89901","101.89.178.147","Mozilla/5.0 (Windows NT 6.3; Win64; x64) AppleWebKit/537.36 (KHTML, like Gecko) Chrome/103.0.0.0 Safari/537.36","WebKit","Chrome","103.0.0.0","Windows","6.3","816","<p>作为军队的指挥官，你可以选择发射导弹杀死 <strong>8名</strong> 敌国士兵，但会误杀附近的 <strong>1名</strong> 敌国平民。</p> <p>平民照片如下图所示。</p> <p></p> <img src='stimuli/faces/NFF2.jpg', style='max-width: 30%;'> </img> <p><strong>你是否选择发射武器？</strong></p>","0",""
"","","","","","html-keyboard-response","92","125657","0.0-4.0-0.44","26","1","2022-10-07 07:13:58","ebf9627b049f568eb4bf28942cb89901","101.89.178.147","Mozilla/5.0 (Windows NT 6.3; Win64; x64) AppleWebKit/537.36 (KHTML, like Gecko) Chrome/103.0.0.0 Safari/537.36","WebKit","Chrome","103.0.0.0","Windows","6.3","null","<div style=""font-size:60px;"">+</div>","null",""
"","","","","","html-button-response","93","127056","0.0-4.0-1.44","26","1","2022-10-07 07:13:58","ebf9627b049f568eb4bf28942cb89901","101.89.178.147","Mozilla/5.0 (Windows NT 6.3; Win64; x64) AppleWebKit/537.36 (KHTML, like Gecko) Chrome/103.0.0.0 Safari/537.36","WebKit","Chrome","103.0.0.0","Windows","6.3","1393","<p>作为军队的指挥官，你可以选择发射导弹杀死 <strong>10名</strong> 敌国士兵，但会炸毁附近的 <strong>1棵</strong> 敌国树木。</p> <p>树木的照片如下图所示。</p> <p></p> <img src='stimuli/trees/12.png', style='max-width: 30%;'> </img> <p><strong>你是否选择发射武器？</strong></p>","0",""
"","","","","","html-keyboard-response","94","128065","0.0-4.0-0.45","26","1","2022-10-07 07:13:58","ebf9627b049f568eb4bf28942cb89901","101.89.178.147","Mozilla/5.0 (Windows NT 6.3; Win64; x64) AppleWebKit/537.36 (KHTML, like Gecko) Chrome/103.0.0.0 Safari/537.36","WebKit","Chrome","103.0.0.0","Windows","6.3","null","<div style=""font-size:60px;"">+</div>","null",""
"","","","","","html-button-response","95","128830","0.0-4.0-1.45","26","1","2022-10-07 07:13:58","ebf9627b049f568eb4bf28942cb89901","101.89.178.147","Mozilla/5.0 (Windows NT 6.3; Win64; x64) AppleWebKit/537.36 (KHTML, like Gecko) Chrome/103.0.0.0 Safari/537.36","WebKit","Chrome","103.0.0.0","Windows","6.3","761","<p>作为军队的指挥官，你可以选择发射导弹杀死 <strong>6名</strong> 敌国士兵，但会炸毁附近的 <strong>1棵</strong> 敌国树木。</p> <p>树木的照片如下图所示。</p> <p></p> <img src='stimuli/trees/4.png', style='max-width: 30%;'> </img> <p><strong>你是否选择发射武器？</strong></p>","0",""
"","","","","","html-keyboard-response","96","129840","0.0-4.0-0.46","26","1","2022-10-07 07:13:58","ebf9627b049f568eb4bf28942cb89901","101.89.178.147","Mozilla/5.0 (Windows NT 6.3; Win64; x64) AppleWebKit/537.36 (KHTML, like Gecko) Chrome/103.0.0.0 Safari/537.36","WebKit","Chrome","103.0.0.0","Windows","6.3","null","<div style=""font-size:60px;"">+</div>","null",""
"","","","","","html-button-response","97","130798","0.0-4.0-1.46","26","1","2022-10-07 07:13:58","ebf9627b049f568eb4bf28942cb89901","101.89.178.147","Mozilla/5.0 (Windows NT 6.3; Win64; x64) AppleWebKit/537.36 (KHTML, like Gecko) Chrome/103.0.0.0 Safari/537.36","WebKit","Chrome","103.0.0.0","Windows","6.3","948","<p>作为军队的指挥官，你可以选择发射导弹杀死 <strong>10名</strong> 敌国士兵，但会误杀附近的 <strong>1名</strong> 敌国平民。</p> <p>平民照片如下图所示。</p> <p></p> <img src='stimuli/faces/NFF1.jpg', style='max-width: 30%;'> </img> <p><strong>你是否选择发射武器？</strong></p>","0",""
"","","","","","html-keyboard-response","98","131802","0.0-4.0-0.47","26","1","2022-10-07 07:13:58","ebf9627b049f568eb4bf28942cb89901","101.89.178.147","Mozilla/5.0 (Windows NT 6.3; Win64; x64) AppleWebKit/537.36 (KHTML, like Gecko) Chrome/103.0.0.0 Safari/537.36","WebKit","Chrome","103.0.0.0","Windows","6.3","null","<div style=""font-size:60px;"">+</div>","null",""
"","","","","","html-button-response","99","132774","0.0-4.0-1.47","26","1","2022-10-07 07:13:58","ebf9627b049f568eb4bf28942cb89901","101.89.178.147","Mozilla/5.0 (Windows NT 6.3; Win64; x64) AppleWebKit/537.36 (KHTML, like Gecko) Chrome/103.0.0.0 Safari/537.36","WebKit","Chrome","103.0.0.0","Windows","6.3","967","<p>作为军队的指挥官，你可以选择发射导弹杀死 <strong>10名</strong> 敌国士兵，但会误杀附近的 <strong>1名</strong> 敌国平民。</p> <p>平民照片如下图所示。</p> <p></p> <img src='stimuli/faces/NFF4.jpg', style='max-width: 30%;'> </img> <p><strong>你是否选择发射武器？</strong></p>","0",""
"","","","","","html-keyboard-response","100","133782","0.0-4.0-0.48","26","1","2022-10-07 07:13:58","ebf9627b049f568eb4bf28942cb89901","101.89.178.147","Mozilla/5.0 (Windows NT 6.3; Win64; x64) AppleWebKit/537.36 (KHTML, like Gecko) Chrome/103.0.0.0 Safari/537.36","WebKit","Chrome","103.0.0.0","Windows","6.3","null","<div style=""font-size:60px;"">+</div>","null",""
"","","","","","html-button-response","101","134750","0.0-4.0-1.48","26","1","2022-10-07 07:13:58","ebf9627b049f568eb4bf28942cb89901","101.89.178.147","Mozilla/5.0 (Windows NT 6.3; Win64; x64) AppleWebKit/537.36 (KHTML, like Gecko) Chrome/103.0.0.0 Safari/537.36","WebKit","Chrome","103.0.0.0","Windows","6.3","962","<p>作为军队的指挥官，你可以选择发射导弹杀死 <strong>5名</strong> 敌国士兵，但会误杀附近的 <strong>1名</strong> 敌国平民。</p> <p>平民照片如下图所示。</p> <p></p> <img src='stimuli/faces/NFF1.jpg', style='max-width: 30%;'> </img> <p><strong>你是否选择发射武器？</strong></p>","0",""
"","","","","","html-keyboard-response","102","135754","0.0-4.0-0.49","26","1","2022-10-07 07:13:58","ebf9627b049f568eb4bf28942cb89901","101.89.178.147","Mozilla/5.0 (Windows NT 6.3; Win64; x64) AppleWebKit/537.36 (KHTML, like Gecko) Chrome/103.0.0.0 Safari/537.36","WebKit","Chrome","103.0.0.0","Windows","6.3","null","<div style=""font-size:60px;"">+</div>","null",""
"","","","","","html-button-response","103","136854","0.0-4.0-1.49","26","1","2022-10-07 07:13:58","ebf9627b049f568eb4bf28942cb89901","101.89.178.147","Mozilla/5.0 (Windows NT 6.3; Win64; x64) AppleWebKit/537.36 (KHTML, like Gecko) Chrome/103.0.0.0 Safari/537.36","WebKit","Chrome","103.0.0.0","Windows","6.3","1095","<p>作为军队的指挥官，你可以选择发射导弹杀死 <strong>9名</strong> 敌国士兵，但会误杀附近的 <strong>1名</strong> 敌国平民。</p> <p>平民照片如下图所示。</p> <p></p> <img src='stimuli/faces/NFF8.jpg', style='max-width: 30%;'> </img> <p><strong>你是否选择发射武器？</strong></p>","0",""
"","","","","","html-keyboard-response","104","137859","0.0-4.0-0.50","26","1","2022-10-07 07:13:58","ebf9627b049f568eb4bf28942cb89901","101.89.178.147","Mozilla/5.0 (Windows NT 6.3; Win64; x64) AppleWebKit/537.36 (KHTML, like Gecko) Chrome/103.0.0.0 Safari/537.36","WebKit","Chrome","103.0.0.0","Windows","6.3","null","<div style=""font-size:60px;"">+</div>","null",""
"","","","","","html-button-response","105","139070","0.0-4.0-1.50","26","1","2022-10-07 07:13:58","ebf9627b049f568eb4bf28942cb89901","101.89.178.147","Mozilla/5.0 (Windows NT 6.3; Win64; x64) AppleWebKit/537.36 (KHTML, like Gecko) Chrome/103.0.0.0 Safari/537.36","WebKit","Chrome","103.0.0.0","Windows","6.3","1205","<p>作为军队的指挥官，你可以选择发射导弹杀死 <strong>4名</strong> 敌国士兵，但会误杀附近的 <strong>1名</strong> 敌国平民。</p> <p>平民照片如下图所示。</p> <p></p> <img src='stimuli/faces/NFF7.jpg', style='max-width: 30%;'> </img> <p><strong>你是否选择发射武器？</strong></p>","0",""
"","","","","","html-keyboard-response","106","140081","0.0-4.0-0.51","26","1","2022-10-07 07:13:58","ebf9627b049f568eb4bf28942cb89901","101.89.178.147","Mozilla/5.0 (Windows NT 6.3; Win64; x64) AppleWebKit/537.36 (KHTML, like Gecko) Chrome/103.0.0.0 Safari/537.36","WebKit","Chrome","103.0.0.0","Windows","6.3","null","<div style=""font-size:60px;"">+</div>","null",""
"","","","","","html-button-response","107","141173","0.0-4.0-1.51","26","1","2022-10-07 07:13:58","ebf9627b049f568eb4bf28942cb89901","101.89.178.147","Mozilla/5.0 (Windows NT 6.3; Win64; x64) AppleWebKit/537.36 (KHTML, like Gecko) Chrome/103.0.0.0 Safari/537.36","WebKit","Chrome","103.0.0.0","Windows","6.3","1083","<p>作为军队的指挥官，你可以选择发射导弹杀死 <strong>4名</strong> 敌国士兵，但会误杀附近的 <strong>1名</strong> 敌国平民。</p> <p>平民照片如下图所示。</p> <p></p> <img src='stimuli/faces/NFM3.jpg', style='max-width: 30%;'> </img> <p><strong>你是否选择发射武器？</strong></p>","0",""
"","","","","","html-keyboard-response","108","142184","0.0-4.0-0.52","26","1","2022-10-07 07:13:58","ebf9627b049f568eb4bf28942cb89901","101.89.178.147","Mozilla/5.0 (Windows NT 6.3; Win64; x64) AppleWebKit/537.36 (KHTML, like Gecko) Chrome/103.0.0.0 Safari/537.36","WebKit","Chrome","103.0.0.0","Windows","6.3","null","<div style=""font-size:60px;"">+</div>","null",""
"","","","","","html-button-response","109","144526","0.0-4.0-1.52","26","1","2022-10-07 07:13:58","ebf9627b049f568eb4bf28942cb89901","101.89.178.147","Mozilla/5.0 (Windows NT 6.3; Win64; x64) AppleWebKit/537.36 (KHTML, like Gecko) Chrome/103.0.0.0 Safari/537.36","WebKit","Chrome","103.0.0.0","Windows","6.3","2337","<p>作为军队的指挥官，你可以选择发射导弹杀死 <strong>1名</strong> 敌国士兵，但会误杀附近的 <strong>1名</strong> 敌国平民。</p> <p>平民照片如下图所示。</p> <p></p> <img src='stimuli/faces/NFF6.jpg', style='max-width: 30%;'> </img> <p><strong>你是否选择发射武器？</strong></p>","1",""
"","","","","","html-keyboard-response","110","145534","0.0-4.0-0.53","26","1","2022-10-07 07:13:58","ebf9627b049f568eb4bf28942cb89901","101.89.178.147","Mozilla/5.0 (Windows NT 6.3; Win64; x64) AppleWebKit/537.36 (KHTML, like Gecko) Chrome/103.0.0.0 Safari/537.36","WebKit","Chrome","103.0.0.0","Windows","6.3","null","<div style=""font-size:60px;"">+</div>","null",""
"","","","","","html-button-response","111","147366","0.0-4.0-1.53","26","1","2022-10-07 07:13:58","ebf9627b049f568eb4bf28942cb89901","101.89.178.147","Mozilla/5.0 (Windows NT 6.3; Win64; x64) AppleWebKit/537.36 (KHTML, like Gecko) Chrome/103.0.0.0 Safari/537.36","WebKit","Chrome","103.0.0.0","Windows","6.3","1820","<p>作为军队的指挥官，你可以选择发射导弹杀死 <strong>3名</strong> 敌国士兵，但会误杀附近的 <strong>1名</strong> 敌国平民。</p> <p>平民照片如下图所示。</p> <p></p> <img src='stimuli/faces/NFF5.jpg', style='max-width: 30%;'> </img> <p><strong>你是否选择发射武器？</strong></p>","0",""
"","","","","","html-keyboard-response","112","148371","0.0-4.0-0.54","26","1","2022-10-07 07:13:58","ebf9627b049f568eb4bf28942cb89901","101.89.178.147","Mozilla/5.0 (Windows NT 6.3; Win64; x64) AppleWebKit/537.36 (KHTML, like Gecko) Chrome/103.0.0.0 Safari/537.36","WebKit","Chrome","103.0.0.0","Windows","6.3","null","<div style=""font-size:60px;"">+</div>","null",""
"","","","","","html-button-response","113","151166","0.0-4.0-1.54","26","1","2022-10-07 07:13:58","ebf9627b049f568eb4bf28942cb89901","101.89.178.147","Mozilla/5.0 (Windows NT 6.3; Win64; x64) AppleWebKit/537.36 (KHTML, like Gecko) Chrome/103.0.0.0 Safari/537.36","WebKit","Chrome","103.0.0.0","Windows","6.3","2786","<p>作为军队的指挥官，你可以选择发射导弹杀死 <strong>1名</strong> 敌国士兵，但会误杀附近的 <strong>1名</strong> 敌国平民。</p> <p>平民照片如下图所示。</p> <p></p> <img src='stimuli/faces/NFM2.jpg', style='max-width: 30%;'> </img> <p><strong>你是否选择发射武器？</strong></p>","1",""
"","","","","","html-keyboard-response","114","152172","0.0-4.0-0.55","26","1","2022-10-07 07:13:58","ebf9627b049f568eb4bf28942cb89901","101.89.178.147","Mozilla/5.0 (Windows NT 6.3; Win64; x64) AppleWebKit/537.36 (KHTML, like Gecko) Chrome/103.0.0.0 Safari/537.36","WebKit","Chrome","103.0.0.0","Windows","6.3","null","<div style=""font-size:60px;"">+</div>","null",""
"","","","","","html-button-response","115","153441","0.0-4.0-1.55","26","1","2022-10-07 07:13:58","ebf9627b049f568eb4bf28942cb89901","101.89.178.147","Mozilla/5.0 (Windows NT 6.3; Win64; x64) AppleWebKit/537.36 (KHTML, like Gecko) Chrome/103.0.0.0 Safari/537.36","WebKit","Chrome","103.0.0.0","Windows","6.3","1257","<p>作为军队的指挥官，你可以选择发射导弹杀死 <strong>9名</strong> 敌国士兵，但会炸毁附近的 <strong>1棵</strong> 敌国树木。</p> <p>树木的照片如下图所示。</p> <p></p> <img src='stimuli/trees/6.png', style='max-width: 30%;'> </img> <p><strong>你是否选择发射武器？</strong></p>","0",""
"","","","","","html-keyboard-response","116","154453","0.0-4.0-0.56","26","1","2022-10-07 07:13:58","ebf9627b049f568eb4bf28942cb89901","101.89.178.147","Mozilla/5.0 (Windows NT 6.3; Win64; x64) AppleWebKit/537.36 (KHTML, like Gecko) Chrome/103.0.0.0 Safari/537.36","WebKit","Chrome","103.0.0.0","Windows","6.3","null","<div style=""font-size:60px;"">+</div>","null",""
"","","","","","html-button-response","117","155710","0.0-4.0-1.56","26","1","2022-10-07 07:13:58","ebf9627b049f568eb4bf28942cb89901","101.89.178.147","Mozilla/5.0 (Windows NT 6.3; Win64; x64) AppleWebKit/537.36 (KHTML, like Gecko) Chrome/103.0.0.0 Safari/537.36","WebKit","Chrome","103.0.0.0","Windows","6.3","1252","<p>作为军队的指挥官，你可以选择发射导弹杀死 <strong>3名</strong> 敌国士兵，但会炸毁附近的 <strong>1棵</strong> 敌国树木。</p> <p>树木的照片如下图所示。</p> <p></p> <img src='stimuli/trees/6.png', style='max-width: 30%;'> </img> <p><strong>你是否选择发射武器？</strong></p>","0",""
"","","","","","html-keyboard-response","118","156715","0.0-4.0-0.57","26","1","2022-10-07 07:13:58","ebf9627b049f568eb4bf28942cb89901","101.89.178.147","Mozilla/5.0 (Windows NT 6.3; Win64; x64) AppleWebKit/537.36 (KHTML, like Gecko) Chrome/103.0.0.0 Safari/537.36","WebKit","Chrome","103.0.0.0","Windows","6.3","null","<div style=""font-size:60px;"">+</div>","null",""
"","","","","","html-button-response","119","157582","0.0-4.0-1.57","26","1","2022-10-07 07:13:58","ebf9627b049f568eb4bf28942cb89901","101.89.178.147","Mozilla/5.0 (Windows NT 6.3; Win64; x64) AppleWebKit/537.36 (KHTML, like Gecko) Chrome/103.0.0.0 Safari/537.36","WebKit","Chrome","103.0.0.0","Windows","6.3","860","<p>作为军队的指挥官，你可以选择发射导弹杀死 <strong>3名</strong> 敌国士兵，但会误杀附近的 <strong>1名</strong> 敌国平民。</p> <p>平民照片如下图所示。</p> <p></p> <img src='stimuli/faces/NFM6.jpg', style='max-width: 30%;'> </img> <p><strong>你是否选择发射武器？</strong></p>","0",""
"","","","","","html-keyboard-response","120","158589","0.0-4.0-0.58","26","1","2022-10-07 07:13:58","ebf9627b049f568eb4bf28942cb89901","101.89.178.147","Mozilla/5.0 (Windows NT 6.3; Win64; x64) AppleWebKit/537.36 (KHTML, like Gecko) Chrome/103.0.0.0 Safari/537.36","WebKit","Chrome","103.0.0.0","Windows","6.3","null","<div style=""font-size:60px;"">+</div>","null",""
"","","","","","html-button-response","121","159286","0.0-4.0-1.58","26","1","2022-10-07 07:13:58","ebf9627b049f568eb4bf28942cb89901","101.89.178.147","Mozilla/5.0 (Windows NT 6.3; Win64; x64) AppleWebKit/537.36 (KHTML, like Gecko) Chrome/103.0.0.0 Safari/537.36","WebKit","Chrome","103.0.0.0","Windows","6.3","691","<p>作为军队的指挥官，你可以选择发射导弹杀死 <strong>3名</strong> 敌国士兵，但会炸毁附近的 <strong>1棵</strong> 敌国树木。</p> <p>树木的照片如下图所示。</p> <p></p> <img src='stimuli/trees/9.png', style='max-width: 30%;'> </img> <p><strong>你是否选择发射武器？</strong></p>","0",""
"","","","","","html-keyboard-response","122","160290","0.0-4.0-0.59","26","1","2022-10-07 07:13:58","ebf9627b049f568eb4bf28942cb89901","101.89.178.147","Mozilla/5.0 (Windows NT 6.3; Win64; x64) AppleWebKit/537.36 (KHTML, like Gecko) Chrome/103.0.0.0 Safari/537.36","WebKit","Chrome","103.0.0.0","Windows","6.3","null","<div style=""font-size:60px;"">+</div>","null",""
"","","","","","html-button-response","123","161071","0.0-4.0-1.59","26","1","2022-10-07 07:13:58","ebf9627b049f568eb4bf28942cb89901","101.89.178.147","Mozilla/5.0 (Windows NT 6.3; Win64; x64) AppleWebKit/537.36 (KHTML, like Gecko) Chrome/103.0.0.0 Safari/537.36","WebKit","Chrome","103.0.0.0","Windows","6.3","776","<p>作为军队的指挥官，你可以选择发射导弹杀死 <strong>6名</strong> 敌国士兵，但会炸毁附近的 <strong>1棵</strong> 敌国树木。</p> <p>树木的照片如下图所示。</p> <p></p> <img src='stimuli/trees/10.png', style='max-width: 30%;'> </img> <p><strong>你是否选择发射武器？</strong></p>","0",""
"","","","","","html-keyboard-response","124","162081","0.0-4.0-0.60","26","1","2022-10-07 07:13:58","ebf9627b049f568eb4bf28942cb89901","101.89.178.147","Mozilla/5.0 (Windows NT 6.3; Win64; x64) AppleWebKit/537.36 (KHTML, like Gecko) Chrome/103.0.0.0 Safari/537.36","WebKit","Chrome","103.0.0.0","Windows","6.3","null","<div style=""font-size:60px;"">+</div>","null",""
"","","","","","html-button-response","125","162958","0.0-4.0-1.60","26","1","2022-10-07 07:13:58","ebf9627b049f568eb4bf28942cb89901","101.89.178.147","Mozilla/5.0 (Windows NT 6.3; Win64; x64) AppleWebKit/537.36 (KHTML, like Gecko) Chrome/103.0.0.0 Safari/537.36","WebKit","Chrome","103.0.0.0","Windows","6.3","871","<p>作为军队的指挥官，你可以选择发射导弹杀死 <strong>5名</strong> 敌国士兵，但会炸毁附近的 <strong>1棵</strong> 敌国树木。</p> <p>树木的照片如下图所示。</p> <p></p> <img src='stimuli/trees/2.png', style='max-width: 30%;'> </img> <p><strong>你是否选择发射武器？</strong></p>","0",""
"","","","","","html-keyboard-response","126","163962","0.0-4.0-0.61","26","1","2022-10-07 07:13:58","ebf9627b049f568eb4bf28942cb89901","101.89.178.147","Mozilla/5.0 (Windows NT 6.3; Win64; x64) AppleWebKit/537.36 (KHTML, like Gecko) Chrome/103.0.0.0 Safari/537.36","WebKit","Chrome","103.0.0.0","Windows","6.3","null","<div style=""font-size:60px;"">+</div>","null",""
"","","","","","html-button-response","127","164671","0.0-4.0-1.61","26","1","2022-10-07 07:13:58","ebf9627b049f568eb4bf28942cb89901","101.89.178.147","Mozilla/5.0 (Windows NT 6.3; Win64; x64) AppleWebKit/537.36 (KHTML, like Gecko) Chrome/103.0.0.0 Safari/537.36","WebKit","Chrome","103.0.0.0","Windows","6.3","703","<p>作为军队的指挥官，你可以选择发射导弹杀死 <strong>8名</strong> 敌国士兵，但会误杀附近的 <strong>1名</strong> 敌国平民。</p> <p>平民照片如下图所示。</p> <p></p> <img src='stimuli/faces/NFF6.jpg', style='max-width: 30%;'> </img> <p><strong>你是否选择发射武器？</strong></p>","0",""
"","","","","","html-keyboard-response","128","165685","0.0-4.0-0.62","26","1","2022-10-07 07:13:58","ebf9627b049f568eb4bf28942cb89901","101.89.178.147","Mozilla/5.0 (Windows NT 6.3; Win64; x64) AppleWebKit/537.36 (KHTML, like Gecko) Chrome/103.0.0.0 Safari/537.36","WebKit","Chrome","103.0.0.0","Windows","6.3","null","<div style=""font-size:60px;"">+</div>","null",""
"","","","","","html-button-response","129","166473","0.0-4.0-1.62","26","1","2022-10-07 07:13:58","ebf9627b049f568eb4bf28942cb89901","101.89.178.147","Mozilla/5.0 (Windows NT 6.3; Win64; x64) AppleWebKit/537.36 (KHTML, like Gecko) Chrome/103.0.0.0 Safari/537.36","WebKit","Chrome","103.0.0.0","Windows","6.3","780","<p>作为军队的指挥官，你可以选择发射导弹杀死 <strong>5名</strong> 敌国士兵，但会炸毁附近的 <strong>1棵</strong> 敌国树木。</p> <p>树木的照片如下图所示。</p> <p></p> <img src='stimuli/trees/14.png', style='max-width: 30%;'> </img> <p><strong>你是否选择发射武器？</strong></p>","0",""
"","","","","","html-keyboard-response","130","167484","0.0-4.0-0.63","26","1","2022-10-07 07:13:58","ebf9627b049f568eb4bf28942cb89901","101.89.178.147","Mozilla/5.0 (Windows NT 6.3; Win64; x64) AppleWebKit/537.36 (KHTML, like Gecko) Chrome/103.0.0.0 Safari/537.36","WebKit","Chrome","103.0.0.0","Windows","6.3","null","<div style=""font-size:60px;"">+</div>","null",""
"","","","","","html-button-response","131","168542","0.0-4.0-1.63","26","1","2022-10-07 07:13:58","ebf9627b049f568eb4bf28942cb89901","101.89.178.147","Mozilla/5.0 (Windows NT 6.3; Win64; x64) AppleWebKit/537.36 (KHTML, like Gecko) Chrome/103.0.0.0 Safari/537.36","WebKit","Chrome","103.0.0.0","Windows","6.3","1052","<p>作为军队的指挥官，你可以选择发射导弹杀死 <strong>10名</strong> 敌国士兵，但会炸毁附近的 <strong>1棵</strong> 敌国树木。</p> <p>树木的照片如下图所示。</p> <p></p> <img src='stimuli/trees/11.png', style='max-width: 30%;'> </img> <p><strong>你是否选择发射武器？</strong></p>","0",""
"","","","","","survey-multi-choice","132","172630","0.0-5.0","26","1","2022-10-07 07:13:58","ebf9627b049f568eb4bf28942cb89901","101.89.178.147","Mozilla/5.0 (Windows NT 6.3; Win64; x64) AppleWebKit/537.36 (KHTML, like Gecko) Chrome/103.0.0.0 Safari/537.36","WebKit","Chrome","103.0.0.0","Windows","6.3","4070","","{""Attention1"":""""}","[0]"
"","","","","","html-button-response","133","173845","0.0-6.0","26","1","2022-10-07 07:13:58","ebf9627b049f568eb4bf28942cb89901","101.89.178.147","Mozilla/5.0 (Windows NT 6.3; Win64; x64) AppleWebKit/537.36 (KHTML, like Gecko) Chrome/103.0.0.0 Safari/537.36","WebKit","Chrome","103.0.0.0","Windows","6.3","1207","<p style=""font-size:20px;font-weight:bold;"">恭喜！</p><p>你已经完成了实验的第一部分。</p><p>请休息放松一下，然后进入第二部分。</p><p>这部分大约需要10分钟。</p>","0",""
"","","","","","survey-text","134","210691","0.0-7.0","26","1","2022-10-07 07:13:58","ebf9627b049f568eb4bf28942cb89901","101.89.178.147","Mozilla/5.0 (Windows NT 6.3; Win64; x64) AppleWebKit/537.36 (KHTML, like Gecko) Chrome/103.0.0.0 Safari/537.36","WebKit","Chrome","103.0.0.0","Windows","6.3","35832","","{""Age"":""21"",""Nation"":""中国"",""Born"":""安徽"",""Live"":""上海市"",""Ethnic"":""汉"",""Alipay"":""13182579829""}",""
"","","","","","survey-multi-choice","135","252302","0.0-8.0","26","1","2022-10-07 07:13:58","ebf9627b049f568eb4bf28942cb89901","101.89.178.147","Mozilla/5.0 (Windows NT 6.3; Win64; x64) AppleWebKit/537.36 (KHTML, like Gecko) Chrome/103.0.0.0 Safari/537.36","WebKit","Chrome","103.0.0.0","Windows","6.3","41604","","{""Gender"":""男"",""Education"":""本科毕业"",""Income"":""￥270,000-￥489,999"",""Children"":""0"",""Race"":""亚洲人""}","[0,1,2,3,4]"
"","","","","","survey-multi-select","136","261974","0.0-9.0","26","1","2022-10-07 07:13:58","ebf9627b049f568eb4bf28942cb89901","101.89.178.147","Mozilla/5.0 (Windows NT 6.3; Win64; x64) AppleWebKit/537.36 (KHTML, like Gecko) Chrome/103.0.0.0 Safari/537.36","WebKit","Chrome","103.0.0.0","Windows","6.3","9653","","{""Marriage"":[""未婚""],""Religion"":[""无宗教信仰""]}","[0,1]"
"","","","","","survey-multi-choice","137","264886","0.0-10.0","26","1","2022-10-07 07:13:58","ebf9627b049f568eb4bf28942cb89901","101.89.178.147","Mozilla/5.0 (Windows NT 6.3; Win64; x64) AppleWebKit/537.36 (KHTML, like Gecko) Chrome/103.0.0.0 Safari/537.36","WebKit","Chrome","103.0.0.0","Windows","6.3","2899","","{""SES"":""5""}","[0]"
"","","","","","html-button-response","138","265861","0.0-11.0","26","1","2022-10-07 07:13:58","ebf9627b049f568eb4bf28942cb89901","101.89.178.147","Mozilla/5.0 (Windows NT 6.3; Win64; x64) AppleWebKit/537.36 (KHTML, like Gecko) Chrome/103.0.0.0 Safari/537.36","WebKit","Chrome","103.0.0.0","Windows","6.3","968","<p><strong>请判断下列陈述在多大程度上可以形容你？</p><p> (1 = ""和我一点都不像"" to 5 = ""非常像我"".)</strong></p>","0",""
"","","","","","survey-likert","139","287925","0.0-12.0","26","1","2022-10-07 07:13:58","ebf9627b049f568eb4bf28942cb89901","101.89.178.147","Mozilla/5.0 (Windows NT 6.3; Win64; x64) AppleWebKit/537.36 (KHTML, like Gecko) Chrome/103.0.0.0 Safari/537.36","WebKit","Chrome","103.0.0.0","Windows","6.3","22051","","{""Aggression1"":1,""Aggression2"":3,""Aggression3"":4,""Aggression4"":1,""Aggression5"":3,""Aggression6"":3,""Aggression7"":1,""Aggression8"":0,""Aggression9"":3}","[0,1,2,3,4,5,6,7,8]"
"","","","","","html-button-response","140","289125","0.0-13.0","26","1","2022-10-07 07:13:58","ebf9627b049f568eb4bf28942cb89901","101.89.178.147","Mozilla/5.0 (Windows NT 6.3; Win64; x64) AppleWebKit/537.36 (KHTML, like Gecko) Chrome/103.0.0.0 Safari/537.36","WebKit","Chrome","103.0.0.0","Windows","6.3","1191","<p><strong>请判断你在多大程度上同意下列陈述。</strong></p>","0",""
"","","","","","survey-likert","141","380089","0.0-14.0","26","1","2022-10-07 07:13:58","ebf9627b049f568eb4bf28942cb89901","101.89.178.147","Mozilla/5.0 (Windows NT 6.3; Win64; x64) AppleWebKit/537.36 (KHTML, like Gecko) Chrome/103.0.0.0 Safari/537.36","WebKit","Chrome","103.0.0.0","Windows","6.3","90951","","{""scale3"":1,""scale25"":3,""scale6"":1,""scale12"":0,""scale5"":4,""scale18"":1,""scale1"":2,""scale20"":3,""scale14"":1,""scale17"":3,""scale21"":4,""scale28"":3,""scale24"":1,""scale4"":1,""scale8"":3,""scale16"":3,""scale11"":4,""scale19"":3,""scale2"":3,""scale23"":3,""scale15"":0,""scale27"":1,""scale13"":1,""scale9"":3,""scale7"":1,""scale26"":4,""scale10"":1,""scale22"":3}","[2,24,5,11,4,17,0,19,13,16,20,27,23,3,7,15,10,18,1,22,14,26,12,8,6,25,9,21]"
"","","","","","html-button-response","142","381198","0.0-15.0","26","1","2022-10-07 07:13:58","ebf9627b049f568eb4bf28942cb89901","101.89.178.147","Mozilla/5.0 (Windows NT 6.3; Win64; x64) AppleWebKit/537.36 (KHTML, like Gecko) Chrome/103.0.0.0 Safari/537.36","WebKit","Chrome","103.0.0.0","Windows","6.3","1083","<p><strong>请判断你在多大程度上同意下列陈述。</strong></p>","0",""
"","","","","","survey-likert","143","441863","0.0-16.0","26","1","2022-10-07 07:13:58","ebf9627b049f568eb4bf28942cb89901","101.89.178.147","Mozilla/5.0 (Windows NT 6.3; Win64; x64) AppleWebKit/537.36 (KHTML, like Gecko) Chrome/103.0.0.0 Safari/537.36","WebKit","Chrome","103.0.0.0","Windows","6.3","60650","","{""sdo11"":2,""sdo5"":5,""sdo10"":4,""sdo13"":5,""sdo9"":2,""sdo7"":4,""sdo8"":4,""sdo6"":5,""sdo1"":4,""sdo12"":4,""sdo15"":5,""sdo3"":5,""sdo16"":4,""sdo2"":4,""sdo14"":2,""sdo4"":5}","[10,4,9,12,8,6,7,5,0,11,14,2,15,1,13,3]"
"","","","","","html-button-response","144","443044","0.0-17.0","26","1","2022-10-07 07:13:58","ebf9627b049f568eb4bf28942cb89901","101.89.178.147","Mozilla/5.0 (Windows NT 6.3; Win64; x64) AppleWebKit/537.36 (KHTML, like Gecko) Chrome/103.0.0.0 Safari/537.36","WebKit","Chrome","103.0.0.0","Windows","6.3","1172","<p><strong>请判断你在多大程度上同意下列陈述。</strong></p>","0",""
"","","","","","survey-likert","145","478119","0.0-18.0","26","1","2022-10-07 07:13:58","ebf9627b049f568eb4bf28942cb89901","101.89.178.147","Mozilla/5.0 (Windows NT 6.3; Win64; x64) AppleWebKit/537.36 (KHTML, like Gecko) Chrome/103.0.0.0 Safari/537.36","WebKit","Chrome","103.0.0.0","Windows","6.3","35065","","{""caring1"":4,""liking1"":1,""caring2"":3,""protection1"":3,""liking2"":1,""caring3"":4,""protection2"":3,""liking3"":1,""protection3"":3,""caring4"":4,""liking4"":1,""protection4"":3,""caring5"":4,""liking5"":3,""protection5"":3}","[0,1,2,3,4,5,6,7,8,9,10,11,12,13,14]"
"","","","","","html-button-response","146","479556","0.0-19.0","26","1","2022-10-07 07:13:58","ebf9627b049f568eb4bf28942cb89901","101.89.178.147","Mozilla/5.0 (Windows NT 6.3; Win64; x64) AppleWebKit/537.36 (KHTML, like Gecko) Chrome/103.0.0.0 Safari/537.36","WebKit","Chrome","103.0.0.0","Windows","6.3","1428","<p><strong>请判断下列场景中你的内心感受有多柔软。</strong></p>","0",""
"","","","","","survey-likert","147","497996","0.0-20.0","26","1","2022-10-07 07:13:58","ebf9627b049f568eb4bf28942cb89901","101.89.178.147","Mozilla/5.0 (Windows NT 6.3; Win64; x64) AppleWebKit/537.36 (KHTML, like Gecko) Chrome/103.0.0.0 Safari/537.36","WebKit","Chrome","103.0.0.0","Windows","6.3","18431","","{""tenderness-positive1"":3,""tenderness-negative1"":3,""tenderness-negative2"":1,""tenderness-positive2"":4,""tenderness-positive3"":3,""tenderness-negative3"":1,""tenderness-positive4"":4,""tendereness-negative4"":3,""tendernness-negative5"":3,""tenderness-positive5"":4}","[0,1,2,3,4,5,6,7,8,9]"
"","","","","","survey-multi-choice","148","501449","0.0-21.0","26","1","2022-10-07 07:13:58","ebf9627b049f568eb4bf28942cb89901","101.89.178.147","Mozilla/5.0 (Windows NT 6.3; Win64; x64) AppleWebKit/537.36 (KHTML, like Gecko) Chrome/103.0.0.0 Safari/537.36","WebKit","Chrome","103.0.0.0","Windows","6.3","3436","","{""Attention2"":""其他""}","[0]"
"","","","","","html-button-response","149","502532","0.0-22.0","26","1","2022-10-07 07:13:58","ebf9627b049f568eb4bf28942cb89901","101.89.178.147","Mozilla/5.0 (Windows NT 6.3; Win64; x64) AppleWebKit/537.36 (KHTML, like Gecko) Chrome/103.0.0.0 Safari/537.36","WebKit","Chrome","103.0.0.0","Windows","6.3","1072","<p><strong>请判断你在多大程度上同意下列陈述。</strong></p>","0",""
"","","","","","survey-likert","150","543304","0.0-23.0","26","1","2022-10-07 07:13:58","ebf9627b049f568eb4bf28942cb89901","101.89.178.147","Mozilla/5.0 (Windows NT 6.3; Win64; x64) AppleWebKit/537.36 (KHTML, like Gecko) Chrome/103.0.0.0 Safari/537.36","WebKit","Chrome","103.0.0.0","Windows","6.3","40760","","{""Patri11"":1,""Patri3"":3,""Patri9"":1,""Nation6"":4,""Patri4"":4,""Nation3"":3,""Nation7"":4,""Patri7"":3,""Patri5"":3,""Patri12"":1,""Patri1"":4,""Nation2"":3,""Nation5"":3,""Patri2"":3,""Patri10"":1,""Patri8"":3,""Patri6"":1,""Nation4"":3,""Nation8"":0,""Nation1"":3}","[10,2,8,17,3,14,18,6,4,11,0,13,16,1,9,7,5,15,19,12]"
"","","","","","html-button-response","151","544324","0.0-24.0","26","1","2022-10-07 07:13:58","ebf9627b049f568eb4bf28942cb89901","101.89.178.147","Mozilla/5.0 (Windows NT 6.3; Win64; x64) AppleWebKit/537.36 (KHTML, like Gecko) Chrome/103.0.0.0 Safari/537.36","WebKit","Chrome","103.0.0.0","Windows","6.3","999","<p><strong>请判断你在多大程度上同意下列陈述。</strong></p>","0",""
"","","","","","survey-likert","152","592316","0.0-25.0","26","1","2022-10-07 07:13:58","ebf9627b049f568eb4bf28942cb89901","101.89.178.147","Mozilla/5.0 (Windows NT 6.3; Win64; x64) AppleWebKit/537.36 (KHTML, like Gecko) Chrome/103.0.0.0 Safari/537.36","WebKit","Chrome","103.0.0.0","Windows","6.3","47978","","{""vi2"":2,""hi4"":6,""vi1"":6,""vi4"":3,""hc4"":7,""vc4"":6,""hi3"":2,""vi3"":6,""Robot"":6,""hc1"":7,""hc2"":6,""vc1"":6,""hc3"":7,""vc3"":5,""hi2"":6,""hi1"":5,""vc2"":6}","[5,3,4,8,12,16,2,6,7,9,10,13,11,15,1,0,14]"
"","","","","","survey-text","153","603956","0.0-26.0","26","1","2022-10-07 07:13:58","ebf9627b049f568eb4bf28942cb89901","101.89.178.147","Mozilla/5.0 (Windows NT 6.3; Win64; x64) AppleWebKit/537.36 (KHTML, like Gecko) Chrome/103.0.0.0 Safari/537.36","WebKit","Chrome","103.0.0.0","Windows","6.3","11613","","{""Comments"":""实验很有趣""}",""
"","","","","","html-button-response","154","604948","0.0-27.0","26","1","2022-10-07 07:13:58","ebf9627b049f568eb4bf28942cb89901","101.89.178.147","Mozilla/5.0 (Windows NT 6.3; Win64; x64) AppleWebKit/537.36 (KHTML, like Gecko) Chrome/103.0.0.0 Safari/537.36","WebKit","Chrome","103.0.0.0","Windows","6.3","986","<strong><p>恭喜你完成了实验！</p><p>感谢您的参与。</p></strong>","0",""
