"success","timeout","failed_images","failed_audio","failed_video","trial_type","trial_index","time_elapsed","internal_node_id","run_id","condition","recorded_at","source_code_version","ip","user_agent","device","browser","browser_version","platform","platform_version","rt","stimulus","response","question_order"
"true","false","[]","[]","[]","preload","0","3488","0.0-0.0","273","1","2022-10-14 03:20:58","ebf9627b049f568eb4bf28942cb89901","27.17.106.168","Mozilla/5.0 (Windows NT 10.0; Win64; x64) AppleWebKit/537.36 (KHTML, like Gecko) Chrome/106.0.0.0 Safari/537.36 Edg/106.0.1370.42","WebKit","Edge","106.0.1370.42","Windows","10.0","","","",""
"true","","","","","fullscreen","1","5726","0.0-1.0","273","1","2022-10-14 03:20:58","ebf9627b049f568eb4bf28942cb89901","27.17.106.168","Mozilla/5.0 (Windows NT 10.0; Win64; x64) AppleWebKit/537.36 (KHTML, like Gecko) Chrome/106.0.0.0 Safari/537.36 Edg/106.0.1370.42","WebKit","Edge","106.0.1370.42","Windows","10.0","","","",""
"","","","","","html-button-response","2","21358","0.0-2.0","273","1","2022-10-14 03:20:58","ebf9627b049f568eb4bf28942cb89901","27.17.106.168","Mozilla/5.0 (Windows NT 10.0; Win64; x64) AppleWebKit/537.36 (KHTML, like Gecko) Chrome/106.0.0.0 Safari/537.36 Edg/106.0.1370.42","WebKit","Edge","106.0.1370.42","Windows","10.0","15630","<p style=""font-size:20px;font-weight:bold;"">实验知情同意书</p><p style=""text-align:left;""><strong>实验名称：</strong>社会冲突研究</p><p style=""text-align:left;""><strong>主要研究者：</strong>韩晓春副教授（北京师范大学心理学部）</p><p style=""text-align:left;""><strong>联系方式：</strong>发送邮件至xiaochun.han@bnu.edu.cn</p><p style=""text-align:left;""><strong>研究目的：</strong>研究旨在了解人类面对群体冲突时的决策方式，以及相关的心理学特质。实验调查大约需要20分钟。</p><p style=""text-align:left;""><strong>实验流程：</strong>实验包含两部分。第一部分呈现一系列群体冲突场景，请你决定如何对这些冲突进行反应，大约需要10分钟完成。第二部分包含一系列人口统计学信息收集和心理学问卷，大约需要10分钟完成。</p><p style=""text-align:left;""><strong>参加及退出规则：</strong>参加本实验完全取决于您的个人意愿。在参与过程中，您可以随时退出，并且不用承担任何后果。</p><p style=""text-align:left;""><strong>隐私：</strong>本实验完全匿名进行，不会收集您的姓名或其他能够识别您身份的信息。实验中收集的作答仅用作科学研究使用，可能会在学术期刊/书籍上发表，或者用于教学，您的数据未来可能会和其他研究者或实验室分享，但您的个人身份不会被识别。</p><p style=""text-align:left;""><strong>实验报酬：</strong>实验完成后，您将获得15元人民币报酬，以感谢您的时间和努力。调查问卷中包含几道题目用以测验您作答时的认真度。只有完成全部实验，并且正确回答认真度测验的被试才能获得实验报酬。实验报酬将通过支付宝转账发放。</p><p style=""text-align:left;font-size:20px;""><strong>如果您同意以上实验知情同意书的内容，请点击'同意并且开始实验'按钮；否则请关闭浏览器界面，退出实验。</strong></p>","0",""
"","","","","","html-button-response","3","27574","0.0-3.0","273","1","2022-10-14 03:20:58","ebf9627b049f568eb4bf28942cb89901","27.17.106.168","Mozilla/5.0 (Windows NT 10.0; Win64; x64) AppleWebKit/537.36 (KHTML, like Gecko) Chrome/106.0.0.0 Safari/537.36 Edg/106.0.1370.42","WebKit","Edge","106.0.1370.42","Windows","10.0","6213","<p ><strong>实验任务一：</strong></p><p>请想象你的国家与另一个国家发生了军事冲突。</p><p>你是国家军队的指挥官，你将如何在冲突中进行决策。</p><p>具体来说，作为军队指挥官，请你决定是否发射导弹进行打击。</p><p>接下来，你会面对一系列场景，请仔细阅读每个场景，然后进行决策。</p><p>这部分实验任务大约需要10分钟。</p><p><strong>实验过程中，请集中注意力。</strong></p>","0",""
"","","","","","html-keyboard-response","4","28577","0.0-4.0-0.0","273","1","2022-10-14 03:20:58","ebf9627b049f568eb4bf28942cb89901","27.17.106.168","Mozilla/5.0 (Windows NT 10.0; Win64; x64) AppleWebKit/537.36 (KHTML, like Gecko) Chrome/106.0.0.0 Safari/537.36 Edg/106.0.1370.42","WebKit","Edge","106.0.1370.42","Windows","10.0","null","<div style=""font-size:60px;"">+</div>","null",""
"","","","","","html-button-response","5","32462","0.0-4.0-1.0","273","1","2022-10-14 03:20:58","ebf9627b049f568eb4bf28942cb89901","27.17.106.168","Mozilla/5.0 (Windows NT 10.0; Win64; x64) AppleWebKit/537.36 (KHTML, like Gecko) Chrome/106.0.0.0 Safari/537.36 Edg/106.0.1370.42","WebKit","Edge","106.0.1370.42","Windows","10.0","3878","<p>作为军队的指挥官，你可以选择发射导弹杀死 <strong>5名</strong> 敌国士兵，但会误杀附近的 <strong>1名</strong> 敌国平民。</p> <p>平民照片如下图所示。</p> <p></p> <img src='stimuli/faces/NFF2.jpg', style='max-width: 30%;'> </img> <p><strong>你是否选择发射武器？</strong></p>","1",""
"","","","","","html-keyboard-response","6","33473","0.0-4.0-0.1","273","1","2022-10-14 03:20:58","ebf9627b049f568eb4bf28942cb89901","27.17.106.168","Mozilla/5.0 (Windows NT 10.0; Win64; x64) AppleWebKit/537.36 (KHTML, like Gecko) Chrome/106.0.0.0 Safari/537.36 Edg/106.0.1370.42","WebKit","Edge","106.0.1370.42","Windows","10.0","null","<div style=""font-size:60px;"">+</div>","null",""
"","","","","","html-button-response","7","37661","0.0-4.0-1.1","273","1","2022-10-14 03:20:58","ebf9627b049f568eb4bf28942cb89901","27.17.106.168","Mozilla/5.0 (Windows NT 10.0; Win64; x64) AppleWebKit/537.36 (KHTML, like Gecko) Chrome/106.0.0.0 Safari/537.36 Edg/106.0.1370.42","WebKit","Edge","106.0.1370.42","Windows","10.0","4185","<p>作为军队的指挥官，你可以选择发射导弹杀死 <strong>5名</strong> 敌国士兵，但会炸毁附近的 <strong>1棵</strong> 敌国树木。</p> <p>树木的照片如下图所示。</p> <p></p> <img src='stimuli/trees/9.png', style='max-width: 30%;'> </img> <p><strong>你是否选择发射武器？</strong></p>","1",""
"","","","","","html-keyboard-response","8","38674","0.0-4.0-0.2","273","1","2022-10-14 03:20:58","ebf9627b049f568eb4bf28942cb89901","27.17.106.168","Mozilla/5.0 (Windows NT 10.0; Win64; x64) AppleWebKit/537.36 (KHTML, like Gecko) Chrome/106.0.0.0 Safari/537.36 Edg/106.0.1370.42","WebKit","Edge","106.0.1370.42","Windows","10.0","null","<div style=""font-size:60px;"">+</div>","null",""
"","","","","","html-button-response","9","41998","0.0-4.0-1.2","273","1","2022-10-14 03:20:58","ebf9627b049f568eb4bf28942cb89901","27.17.106.168","Mozilla/5.0 (Windows NT 10.0; Win64; x64) AppleWebKit/537.36 (KHTML, like Gecko) Chrome/106.0.0.0 Safari/537.36 Edg/106.0.1370.42","WebKit","Edge","106.0.1370.42","Windows","10.0","3319","<p>作为军队的指挥官，你可以选择发射导弹杀死 <strong>4名</strong> 敌国士兵，但会误杀附近的 <strong>1名</strong> 敌国平民。</p> <p>平民照片如下图所示。</p> <p></p> <img src='stimuli/faces/NFM8.jpg', style='max-width: 30%;'> </img> <p><strong>你是否选择发射武器？</strong></p>","0",""
"","","","","","html-keyboard-response","10","43011","0.0-4.0-0.3","273","1","2022-10-14 03:20:58","ebf9627b049f568eb4bf28942cb89901","27.17.106.168","Mozilla/5.0 (Windows NT 10.0; Win64; x64) AppleWebKit/537.36 (KHTML, like Gecko) Chrome/106.0.0.0 Safari/537.36 Edg/106.0.1370.42","WebKit","Edge","106.0.1370.42","Windows","10.0","null","<div style=""font-size:60px;"">+</div>","null",""
"","","","","","html-button-response","11","44766","0.0-4.0-1.3","273","1","2022-10-14 03:20:58","ebf9627b049f568eb4bf28942cb89901","27.17.106.168","Mozilla/5.0 (Windows NT 10.0; Win64; x64) AppleWebKit/537.36 (KHTML, like Gecko) Chrome/106.0.0.0 Safari/537.36 Edg/106.0.1370.42","WebKit","Edge","106.0.1370.42","Windows","10.0","1752","<p>作为军队的指挥官，你可以选择发射导弹杀死 <strong>7名</strong> 敌国士兵，但会炸毁附近的 <strong>1棵</strong> 敌国树木。</p> <p>树木的照片如下图所示。</p> <p></p> <img src='stimuli/trees/4.png', style='max-width: 30%;'> </img> <p><strong>你是否选择发射武器？</strong></p>","1",""
"","","","","","html-keyboard-response","12","45775","0.0-4.0-0.4","273","1","2022-10-14 03:20:58","ebf9627b049f568eb4bf28942cb89901","27.17.106.168","Mozilla/5.0 (Windows NT 10.0; Win64; x64) AppleWebKit/537.36 (KHTML, like Gecko) Chrome/106.0.0.0 Safari/537.36 Edg/106.0.1370.42","WebKit","Edge","106.0.1370.42","Windows","10.0","null","<div style=""font-size:60px;"">+</div>","null",""
"","","","","","html-button-response","13","50757","0.0-4.0-1.4","273","1","2022-10-14 03:20:58","ebf9627b049f568eb4bf28942cb89901","27.17.106.168","Mozilla/5.0 (Windows NT 10.0; Win64; x64) AppleWebKit/537.36 (KHTML, like Gecko) Chrome/106.0.0.0 Safari/537.36 Edg/106.0.1370.42","WebKit","Edge","106.0.1370.42","Windows","10.0","4979","<p>作为军队的指挥官，你可以选择发射导弹杀死 <strong>8名</strong> 敌国士兵，但会误杀附近的 <strong>1名</strong> 敌国平民。</p> <p>平民照片如下图所示。</p> <p></p> <img src='stimuli/faces/NFM6.jpg', style='max-width: 30%;'> </img> <p><strong>你是否选择发射武器？</strong></p>","1",""
"","","","","","html-keyboard-response","14","51776","0.0-4.0-0.5","273","1","2022-10-14 03:20:58","ebf9627b049f568eb4bf28942cb89901","27.17.106.168","Mozilla/5.0 (Windows NT 10.0; Win64; x64) AppleWebKit/537.36 (KHTML, like Gecko) Chrome/106.0.0.0 Safari/537.36 Edg/106.0.1370.42","WebKit","Edge","106.0.1370.42","Windows","10.0","null","<div style=""font-size:60px;"">+</div>","null",""
"","","","","","html-button-response","15","55990","0.0-4.0-1.5","273","1","2022-10-14 03:20:58","ebf9627b049f568eb4bf28942cb89901","27.17.106.168","Mozilla/5.0 (Windows NT 10.0; Win64; x64) AppleWebKit/537.36 (KHTML, like Gecko) Chrome/106.0.0.0 Safari/537.36 Edg/106.0.1370.42","WebKit","Edge","106.0.1370.42","Windows","10.0","4210","<p>作为军队的指挥官，你可以选择发射导弹杀死 <strong>7名</strong> 敌国士兵，但会炸毁附近的 <strong>1棵</strong> 敌国树木。</p> <p>树木的照片如下图所示。</p> <p></p> <img src='stimuli/trees/3.png', style='max-width: 30%;'> </img> <p><strong>你是否选择发射武器？</strong></p>","1",""
"","","","","","html-keyboard-response","16","57000","0.0-4.0-0.6","273","1","2022-10-14 03:20:58","ebf9627b049f568eb4bf28942cb89901","27.17.106.168","Mozilla/5.0 (Windows NT 10.0; Win64; x64) AppleWebKit/537.36 (KHTML, like Gecko) Chrome/106.0.0.0 Safari/537.36 Edg/106.0.1370.42","WebKit","Edge","106.0.1370.42","Windows","10.0","null","<div style=""font-size:60px;"">+</div>","null",""
"","","","","","html-button-response","17","60862","0.0-4.0-1.6","273","1","2022-10-14 03:20:58","ebf9627b049f568eb4bf28942cb89901","27.17.106.168","Mozilla/5.0 (Windows NT 10.0; Win64; x64) AppleWebKit/537.36 (KHTML, like Gecko) Chrome/106.0.0.0 Safari/537.36 Edg/106.0.1370.42","WebKit","Edge","106.0.1370.42","Windows","10.0","3831","<p>作为军队的指挥官，你可以选择发射导弹杀死 <strong>10名</strong> 敌国士兵，但会炸毁附近的 <strong>1棵</strong> 敌国树木。</p> <p>树木的照片如下图所示。</p> <p></p> <img src='stimuli/trees/1.png', style='max-width: 30%;'> </img> <p><strong>你是否选择发射武器？</strong></p>","1",""
"","","","","","html-keyboard-response","18","61874","0.0-4.0-0.7","273","1","2022-10-14 03:20:58","ebf9627b049f568eb4bf28942cb89901","27.17.106.168","Mozilla/5.0 (Windows NT 10.0; Win64; x64) AppleWebKit/537.36 (KHTML, like Gecko) Chrome/106.0.0.0 Safari/537.36 Edg/106.0.1370.42","WebKit","Edge","106.0.1370.42","Windows","10.0","null","<div style=""font-size:60px;"">+</div>","null",""
"","","","","","html-button-response","19","68910","0.0-4.0-1.7","273","1","2022-10-14 03:20:58","ebf9627b049f568eb4bf28942cb89901","27.17.106.168","Mozilla/5.0 (Windows NT 10.0; Win64; x64) AppleWebKit/537.36 (KHTML, like Gecko) Chrome/106.0.0.0 Safari/537.36 Edg/106.0.1370.42","WebKit","Edge","106.0.1370.42","Windows","10.0","7032","<p>作为军队的指挥官，你可以选择发射导弹杀死 <strong>4名</strong> 敌国士兵，但会误杀附近的 <strong>1名</strong> 敌国平民。</p> <p>平民照片如下图所示。</p> <p></p> <img src='stimuli/faces/NFF1.jpg', style='max-width: 30%;'> </img> <p><strong>你是否选择发射武器？</strong></p>","1",""
"","","","","","html-keyboard-response","20","69923","0.0-4.0-0.8","273","1","2022-10-14 03:20:58","ebf9627b049f568eb4bf28942cb89901","27.17.106.168","Mozilla/5.0 (Windows NT 10.0; Win64; x64) AppleWebKit/537.36 (KHTML, like Gecko) Chrome/106.0.0.0 Safari/537.36 Edg/106.0.1370.42","WebKit","Edge","106.0.1370.42","Windows","10.0","null","<div style=""font-size:60px;"">+</div>","null",""
"","","","","","html-button-response","21","72590","0.0-4.0-1.8","273","1","2022-10-14 03:20:58","ebf9627b049f568eb4bf28942cb89901","27.17.106.168","Mozilla/5.0 (Windows NT 10.0; Win64; x64) AppleWebKit/537.36 (KHTML, like Gecko) Chrome/106.0.0.0 Safari/537.36 Edg/106.0.1370.42","WebKit","Edge","106.0.1370.42","Windows","10.0","2664","<p>作为军队的指挥官，你可以选择发射导弹杀死 <strong>4名</strong> 敌国士兵，但会炸毁附近的 <strong>1棵</strong> 敌国树木。</p> <p>树木的照片如下图所示。</p> <p></p> <img src='stimuli/trees/7.png', style='max-width: 30%;'> </img> <p><strong>你是否选择发射武器？</strong></p>","0",""
"","","","","","html-keyboard-response","22","73592","0.0-4.0-0.9","273","1","2022-10-14 03:20:58","ebf9627b049f568eb4bf28942cb89901","27.17.106.168","Mozilla/5.0 (Windows NT 10.0; Win64; x64) AppleWebKit/537.36 (KHTML, like Gecko) Chrome/106.0.0.0 Safari/537.36 Edg/106.0.1370.42","WebKit","Edge","106.0.1370.42","Windows","10.0","null","<div style=""font-size:60px;"">+</div>","null",""
"","","","","","html-button-response","23","76166","0.0-4.0-1.9","273","1","2022-10-14 03:20:58","ebf9627b049f568eb4bf28942cb89901","27.17.106.168","Mozilla/5.0 (Windows NT 10.0; Win64; x64) AppleWebKit/537.36 (KHTML, like Gecko) Chrome/106.0.0.0 Safari/537.36 Edg/106.0.1370.42","WebKit","Edge","106.0.1370.42","Windows","10.0","2571","<p>作为军队的指挥官，你可以选择发射导弹杀死 <strong>5名</strong> 敌国士兵，但会炸毁附近的 <strong>1棵</strong> 敌国树木。</p> <p>树木的照片如下图所示。</p> <p></p> <img src='stimuli/trees/12.png', style='max-width: 30%;'> </img> <p><strong>你是否选择发射武器？</strong></p>","0",""
"","","","","","html-keyboard-response","24","77184","0.0-4.0-0.10","273","1","2022-10-14 03:20:58","ebf9627b049f568eb4bf28942cb89901","27.17.106.168","Mozilla/5.0 (Windows NT 10.0; Win64; x64) AppleWebKit/537.36 (KHTML, like Gecko) Chrome/106.0.0.0 Safari/537.36 Edg/106.0.1370.42","WebKit","Edge","106.0.1370.42","Windows","10.0","null","<div style=""font-size:60px;"">+</div>","null",""
"","","","","","html-button-response","25","79334","0.0-4.0-1.10","273","1","2022-10-14 03:20:58","ebf9627b049f568eb4bf28942cb89901","27.17.106.168","Mozilla/5.0 (Windows NT 10.0; Win64; x64) AppleWebKit/537.36 (KHTML, like Gecko) Chrome/106.0.0.0 Safari/537.36 Edg/106.0.1370.42","WebKit","Edge","106.0.1370.42","Windows","10.0","2147","<p>作为军队的指挥官，你可以选择发射导弹杀死 <strong>1名</strong> 敌国士兵，但会炸毁附近的 <strong>1棵</strong> 敌国树木。</p> <p>树木的照片如下图所示。</p> <p></p> <img src='stimuli/trees/6.png', style='max-width: 30%;'> </img> <p><strong>你是否选择发射武器？</strong></p>","0",""
"","","","","","html-keyboard-response","26","80341","0.0-4.0-0.11","273","1","2022-10-14 03:20:58","ebf9627b049f568eb4bf28942cb89901","27.17.106.168","Mozilla/5.0 (Windows NT 10.0; Win64; x64) AppleWebKit/537.36 (KHTML, like Gecko) Chrome/106.0.0.0 Safari/537.36 Edg/106.0.1370.42","WebKit","Edge","106.0.1370.42","Windows","10.0","null","<div style=""font-size:60px;"">+</div>","null",""
"","","","","","html-button-response","27","82254","0.0-4.0-1.11","273","1","2022-10-14 03:20:58","ebf9627b049f568eb4bf28942cb89901","27.17.106.168","Mozilla/5.0 (Windows NT 10.0; Win64; x64) AppleWebKit/537.36 (KHTML, like Gecko) Chrome/106.0.0.0 Safari/537.36 Edg/106.0.1370.42","WebKit","Edge","106.0.1370.42","Windows","10.0","1908","<p>作为军队的指挥官，你可以选择发射导弹杀死 <strong>6名</strong> 敌国士兵，但会炸毁附近的 <strong>1棵</strong> 敌国树木。</p> <p>树木的照片如下图所示。</p> <p></p> <img src='stimuli/trees/12.png', style='max-width: 30%;'> </img> <p><strong>你是否选择发射武器？</strong></p>","0",""
"","","","","","html-keyboard-response","28","83261","0.0-4.0-0.12","273","1","2022-10-14 03:20:58","ebf9627b049f568eb4bf28942cb89901","27.17.106.168","Mozilla/5.0 (Windows NT 10.0; Win64; x64) AppleWebKit/537.36 (KHTML, like Gecko) Chrome/106.0.0.0 Safari/537.36 Edg/106.0.1370.42","WebKit","Edge","106.0.1370.42","Windows","10.0","null","<div style=""font-size:60px;"">+</div>","null",""
"","","","","","html-button-response","29","85486","0.0-4.0-1.12","273","1","2022-10-14 03:20:58","ebf9627b049f568eb4bf28942cb89901","27.17.106.168","Mozilla/5.0 (Windows NT 10.0; Win64; x64) AppleWebKit/537.36 (KHTML, like Gecko) Chrome/106.0.0.0 Safari/537.36 Edg/106.0.1370.42","WebKit","Edge","106.0.1370.42","Windows","10.0","2220","<p>作为军队的指挥官，你可以选择发射导弹杀死 <strong>8名</strong> 敌国士兵，但会炸毁附近的 <strong>1棵</strong> 敌国树木。</p> <p>树木的照片如下图所示。</p> <p></p> <img src='stimuli/trees/13.png', style='max-width: 30%;'> </img> <p><strong>你是否选择发射武器？</strong></p>","0",""
"","","","","","html-keyboard-response","30","86490","0.0-4.0-0.13","273","1","2022-10-14 03:20:58","ebf9627b049f568eb4bf28942cb89901","27.17.106.168","Mozilla/5.0 (Windows NT 10.0; Win64; x64) AppleWebKit/537.36 (KHTML, like Gecko) Chrome/106.0.0.0 Safari/537.36 Edg/106.0.1370.42","WebKit","Edge","106.0.1370.42","Windows","10.0","null","<div style=""font-size:60px;"">+</div>","null",""
"","","","","","html-button-response","31","88510","0.0-4.0-1.13","273","1","2022-10-14 03:20:58","ebf9627b049f568eb4bf28942cb89901","27.17.106.168","Mozilla/5.0 (Windows NT 10.0; Win64; x64) AppleWebKit/537.36 (KHTML, like Gecko) Chrome/106.0.0.0 Safari/537.36 Edg/106.0.1370.42","WebKit","Edge","106.0.1370.42","Windows","10.0","2016","<p>作为军队的指挥官，你可以选择发射导弹杀死 <strong>6名</strong> 敌国士兵，但会误杀附近的 <strong>1名</strong> 敌国平民。</p> <p>平民照片如下图所示。</p> <p></p> <img src='stimuli/faces/NFF8.jpg', style='max-width: 30%;'> </img> <p><strong>你是否选择发射武器？</strong></p>","1",""
"","","","","","html-keyboard-response","32","89524","0.0-4.0-0.14","273","1","2022-10-14 03:20:58","ebf9627b049f568eb4bf28942cb89901","27.17.106.168","Mozilla/5.0 (Windows NT 10.0; Win64; x64) AppleWebKit/537.36 (KHTML, like Gecko) Chrome/106.0.0.0 Safari/537.36 Edg/106.0.1370.42","WebKit","Edge","106.0.1370.42","Windows","10.0","null","<div style=""font-size:60px;"">+</div>","null",""
"","","","","","html-button-response","33","90550","0.0-4.0-1.14","273","1","2022-10-14 03:20:58","ebf9627b049f568eb4bf28942cb89901","27.17.106.168","Mozilla/5.0 (Windows NT 10.0; Win64; x64) AppleWebKit/537.36 (KHTML, like Gecko) Chrome/106.0.0.0 Safari/537.36 Edg/106.0.1370.42","WebKit","Edge","106.0.1370.42","Windows","10.0","1022","<p>作为军队的指挥官，你可以选择发射导弹杀死 <strong>1名</strong> 敌国士兵，但会炸毁附近的 <strong>1棵</strong> 敌国树木。</p> <p>树木的照片如下图所示。</p> <p></p> <img src='stimuli/trees/14.png', style='max-width: 30%;'> </img> <p><strong>你是否选择发射武器？</strong></p>","1",""
"","","","","","html-keyboard-response","34","91566","0.0-4.0-0.15","273","1","2022-10-14 03:20:58","ebf9627b049f568eb4bf28942cb89901","27.17.106.168","Mozilla/5.0 (Windows NT 10.0; Win64; x64) AppleWebKit/537.36 (KHTML, like Gecko) Chrome/106.0.0.0 Safari/537.36 Edg/106.0.1370.42","WebKit","Edge","106.0.1370.42","Windows","10.0","null","<div style=""font-size:60px;"">+</div>","null",""
"","","","","","html-button-response","35","92573","0.0-4.0-1.15","273","1","2022-10-14 03:20:58","ebf9627b049f568eb4bf28942cb89901","27.17.106.168","Mozilla/5.0 (Windows NT 10.0; Win64; x64) AppleWebKit/537.36 (KHTML, like Gecko) Chrome/106.0.0.0 Safari/537.36 Edg/106.0.1370.42","WebKit","Edge","106.0.1370.42","Windows","10.0","1003","<p>作为军队的指挥官，你可以选择发射导弹杀死 <strong>4名</strong> 敌国士兵，但会炸毁附近的 <strong>1棵</strong> 敌国树木。</p> <p>树木的照片如下图所示。</p> <p></p> <img src='stimuli/trees/1.png', style='max-width: 30%;'> </img> <p><strong>你是否选择发射武器？</strong></p>","1",""
"","","","","","html-keyboard-response","36","93591","0.0-4.0-0.16","273","1","2022-10-14 03:20:58","ebf9627b049f568eb4bf28942cb89901","27.17.106.168","Mozilla/5.0 (Windows NT 10.0; Win64; x64) AppleWebKit/537.36 (KHTML, like Gecko) Chrome/106.0.0.0 Safari/537.36 Edg/106.0.1370.42","WebKit","Edge","106.0.1370.42","Windows","10.0","null","<div style=""font-size:60px;"">+</div>","null",""
"","","","","","html-button-response","37","95734","0.0-4.0-1.16","273","1","2022-10-14 03:20:58","ebf9627b049f568eb4bf28942cb89901","27.17.106.168","Mozilla/5.0 (Windows NT 10.0; Win64; x64) AppleWebKit/537.36 (KHTML, like Gecko) Chrome/106.0.0.0 Safari/537.36 Edg/106.0.1370.42","WebKit","Edge","106.0.1370.42","Windows","10.0","2139","<p>作为军队的指挥官，你可以选择发射导弹杀死 <strong>3名</strong> 敌国士兵，但会误杀附近的 <strong>1名</strong> 敌国平民。</p> <p>平民照片如下图所示。</p> <p></p> <img src='stimuli/faces/NFF4.jpg', style='max-width: 30%;'> </img> <p><strong>你是否选择发射武器？</strong></p>","1",""
"","","","","","html-keyboard-response","38","96749","0.0-4.0-0.17","273","1","2022-10-14 03:20:58","ebf9627b049f568eb4bf28942cb89901","27.17.106.168","Mozilla/5.0 (Windows NT 10.0; Win64; x64) AppleWebKit/537.36 (KHTML, like Gecko) Chrome/106.0.0.0 Safari/537.36 Edg/106.0.1370.42","WebKit","Edge","106.0.1370.42","Windows","10.0","null","<div style=""font-size:60px;"">+</div>","null",""
"","","","","","html-button-response","39","102918","0.0-4.0-1.17","273","1","2022-10-14 03:20:58","ebf9627b049f568eb4bf28942cb89901","27.17.106.168","Mozilla/5.0 (Windows NT 10.0; Win64; x64) AppleWebKit/537.36 (KHTML, like Gecko) Chrome/106.0.0.0 Safari/537.36 Edg/106.0.1370.42","WebKit","Edge","106.0.1370.42","Windows","10.0","6164","<p>作为军队的指挥官，你可以选择发射导弹杀死 <strong>5名</strong> 敌国士兵，但会炸毁附近的 <strong>1棵</strong> 敌国树木。</p> <p>树木的照片如下图所示。</p> <p></p> <img src='stimuli/trees/13.png', style='max-width: 30%;'> </img> <p><strong>你是否选择发射武器？</strong></p>","0",""
"","","","","","html-keyboard-response","40","103930","0.0-4.0-0.18","273","1","2022-10-14 03:20:58","ebf9627b049f568eb4bf28942cb89901","27.17.106.168","Mozilla/5.0 (Windows NT 10.0; Win64; x64) AppleWebKit/537.36 (KHTML, like Gecko) Chrome/106.0.0.0 Safari/537.36 Edg/106.0.1370.42","WebKit","Edge","106.0.1370.42","Windows","10.0","null","<div style=""font-size:60px;"">+</div>","null",""
"","","","","","html-button-response","41","104757","0.0-4.0-1.18","273","1","2022-10-14 03:20:58","ebf9627b049f568eb4bf28942cb89901","27.17.106.168","Mozilla/5.0 (Windows NT 10.0; Win64; x64) AppleWebKit/537.36 (KHTML, like Gecko) Chrome/106.0.0.0 Safari/537.36 Edg/106.0.1370.42","WebKit","Edge","106.0.1370.42","Windows","10.0","823","<p>作为军队的指挥官，你可以选择发射导弹杀死 <strong>1名</strong> 敌国士兵，但会炸毁附近的 <strong>1棵</strong> 敌国树木。</p> <p>树木的照片如下图所示。</p> <p></p> <img src='stimuli/trees/11.png', style='max-width: 30%;'> </img> <p><strong>你是否选择发射武器？</strong></p>","1",""
"","","","","","html-keyboard-response","42","105761","0.0-4.0-0.19","273","1","2022-10-14 03:20:58","ebf9627b049f568eb4bf28942cb89901","27.17.106.168","Mozilla/5.0 (Windows NT 10.0; Win64; x64) AppleWebKit/537.36 (KHTML, like Gecko) Chrome/106.0.0.0 Safari/537.36 Edg/106.0.1370.42","WebKit","Edge","106.0.1370.42","Windows","10.0","null","<div style=""font-size:60px;"">+</div>","null",""
"","","","","","html-button-response","43","108166","0.0-4.0-1.19","273","1","2022-10-14 03:20:58","ebf9627b049f568eb4bf28942cb89901","27.17.106.168","Mozilla/5.0 (Windows NT 10.0; Win64; x64) AppleWebKit/537.36 (KHTML, like Gecko) Chrome/106.0.0.0 Safari/537.36 Edg/106.0.1370.42","WebKit","Edge","106.0.1370.42","Windows","10.0","2400","<p>作为军队的指挥官，你可以选择发射导弹杀死 <strong>10名</strong> 敌国士兵，但会误杀附近的 <strong>1名</strong> 敌国平民。</p> <p>平民照片如下图所示。</p> <p></p> <img src='stimuli/faces/NFM2.jpg', style='max-width: 30%;'> </img> <p><strong>你是否选择发射武器？</strong></p>","1",""
"","","","","","html-keyboard-response","44","109171","0.0-4.0-0.20","273","1","2022-10-14 03:20:58","ebf9627b049f568eb4bf28942cb89901","27.17.106.168","Mozilla/5.0 (Windows NT 10.0; Win64; x64) AppleWebKit/537.36 (KHTML, like Gecko) Chrome/106.0.0.0 Safari/537.36 Edg/106.0.1370.42","WebKit","Edge","106.0.1370.42","Windows","10.0","null","<div style=""font-size:60px;"">+</div>","null",""
"","","","","","html-button-response","45","118717","0.0-4.0-1.20","273","1","2022-10-14 03:20:58","ebf9627b049f568eb4bf28942cb89901","27.17.106.168","Mozilla/5.0 (Windows NT 10.0; Win64; x64) AppleWebKit/537.36 (KHTML, like Gecko) Chrome/106.0.0.0 Safari/537.36 Edg/106.0.1370.42","WebKit","Edge","106.0.1370.42","Windows","10.0","9543","<p>作为军队的指挥官，你可以选择发射导弹杀死 <strong>7名</strong> 敌国士兵，但会误杀附近的 <strong>1名</strong> 敌国平民。</p> <p>平民照片如下图所示。</p> <p></p> <img src='stimuli/faces/NFF6.jpg', style='max-width: 30%;'> </img> <p><strong>你是否选择发射武器？</strong></p>","0",""
"","","","","","html-keyboard-response","46","119726","0.0-4.0-0.21","273","1","2022-10-14 03:20:58","ebf9627b049f568eb4bf28942cb89901","27.17.106.168","Mozilla/5.0 (Windows NT 10.0; Win64; x64) AppleWebKit/537.36 (KHTML, like Gecko) Chrome/106.0.0.0 Safari/537.36 Edg/106.0.1370.42","WebKit","Edge","106.0.1370.42","Windows","10.0","null","<div style=""font-size:60px;"">+</div>","null",""
"","","","","","html-button-response","47","124285","0.0-4.0-1.21","273","1","2022-10-14 03:20:58","ebf9627b049f568eb4bf28942cb89901","27.17.106.168","Mozilla/5.0 (Windows NT 10.0; Win64; x64) AppleWebKit/537.36 (KHTML, like Gecko) Chrome/106.0.0.0 Safari/537.36 Edg/106.0.1370.42","WebKit","Edge","106.0.1370.42","Windows","10.0","4555","<p>作为军队的指挥官，你可以选择发射导弹杀死 <strong>7名</strong> 敌国士兵，但会炸毁附近的 <strong>1棵</strong> 敌国树木。</p> <p>树木的照片如下图所示。</p> <p></p> <img src='stimuli/trees/15.png', style='max-width: 30%;'> </img> <p><strong>你是否选择发射武器？</strong></p>","1",""
"","","","","","html-keyboard-response","48","125297","0.0-4.0-0.22","273","1","2022-10-14 03:20:58","ebf9627b049f568eb4bf28942cb89901","27.17.106.168","Mozilla/5.0 (Windows NT 10.0; Win64; x64) AppleWebKit/537.36 (KHTML, like Gecko) Chrome/106.0.0.0 Safari/537.36 Edg/106.0.1370.42","WebKit","Edge","106.0.1370.42","Windows","10.0","null","<div style=""font-size:60px;"">+</div>","null",""
"","","","","","html-button-response","49","126341","0.0-4.0-1.22","273","1","2022-10-14 03:20:58","ebf9627b049f568eb4bf28942cb89901","27.17.106.168","Mozilla/5.0 (Windows NT 10.0; Win64; x64) AppleWebKit/537.36 (KHTML, like Gecko) Chrome/106.0.0.0 Safari/537.36 Edg/106.0.1370.42","WebKit","Edge","106.0.1370.42","Windows","10.0","1038","<p>作为军队的指挥官，你可以选择发射导弹杀死 <strong>8名</strong> 敌国士兵，但会炸毁附近的 <strong>1棵</strong> 敌国树木。</p> <p>树木的照片如下图所示。</p> <p></p> <img src='stimuli/trees/8.png', style='max-width: 30%;'> </img> <p><strong>你是否选择发射武器？</strong></p>","1",""
"","","","","","html-keyboard-response","50","127347","0.0-4.0-0.23","273","1","2022-10-14 03:20:58","ebf9627b049f568eb4bf28942cb89901","27.17.106.168","Mozilla/5.0 (Windows NT 10.0; Win64; x64) AppleWebKit/537.36 (KHTML, like Gecko) Chrome/106.0.0.0 Safari/537.36 Edg/106.0.1370.42","WebKit","Edge","106.0.1370.42","Windows","10.0","null","<div style=""font-size:60px;"">+</div>","null",""
"","","","","","html-button-response","51","130949","0.0-4.0-1.23","273","1","2022-10-14 03:20:58","ebf9627b049f568eb4bf28942cb89901","27.17.106.168","Mozilla/5.0 (Windows NT 10.0; Win64; x64) AppleWebKit/537.36 (KHTML, like Gecko) Chrome/106.0.0.0 Safari/537.36 Edg/106.0.1370.42","WebKit","Edge","106.0.1370.42","Windows","10.0","3598","<p>作为军队的指挥官，你可以选择发射导弹杀死 <strong>5名</strong> 敌国士兵，但会误杀附近的 <strong>1名</strong> 敌国平民。</p> <p>平民照片如下图所示。</p> <p></p> <img src='stimuli/faces/NFM1.jpg', style='max-width: 30%;'> </img> <p><strong>你是否选择发射武器？</strong></p>","1",""
"","","","","","html-keyboard-response","52","131955","0.0-4.0-0.24","273","1","2022-10-14 03:20:58","ebf9627b049f568eb4bf28942cb89901","27.17.106.168","Mozilla/5.0 (Windows NT 10.0; Win64; x64) AppleWebKit/537.36 (KHTML, like Gecko) Chrome/106.0.0.0 Safari/537.36 Edg/106.0.1370.42","WebKit","Edge","106.0.1370.42","Windows","10.0","null","<div style=""font-size:60px;"">+</div>","null",""
"","","","","","html-button-response","53","135774","0.0-4.0-1.24","273","1","2022-10-14 03:20:58","ebf9627b049f568eb4bf28942cb89901","27.17.106.168","Mozilla/5.0 (Windows NT 10.0; Win64; x64) AppleWebKit/537.36 (KHTML, like Gecko) Chrome/106.0.0.0 Safari/537.36 Edg/106.0.1370.42","WebKit","Edge","106.0.1370.42","Windows","10.0","3813","<p>作为军队的指挥官，你可以选择发射导弹杀死 <strong>4名</strong> 敌国士兵，但会误杀附近的 <strong>1名</strong> 敌国平民。</p> <p>平民照片如下图所示。</p> <p></p> <img src='stimuli/faces/NFF7.jpg', style='max-width: 30%;'> </img> <p><strong>你是否选择发射武器？</strong></p>","1",""
"","","","","","html-keyboard-response","54","136785","0.0-4.0-0.25","273","1","2022-10-14 03:20:58","ebf9627b049f568eb4bf28942cb89901","27.17.106.168","Mozilla/5.0 (Windows NT 10.0; Win64; x64) AppleWebKit/537.36 (KHTML, like Gecko) Chrome/106.0.0.0 Safari/537.36 Edg/106.0.1370.42","WebKit","Edge","106.0.1370.42","Windows","10.0","null","<div style=""font-size:60px;"">+</div>","null",""
"","","","","","html-button-response","55","137830","0.0-4.0-1.25","273","1","2022-10-14 03:20:58","ebf9627b049f568eb4bf28942cb89901","27.17.106.168","Mozilla/5.0 (Windows NT 10.0; Win64; x64) AppleWebKit/537.36 (KHTML, like Gecko) Chrome/106.0.0.0 Safari/537.36 Edg/106.0.1370.42","WebKit","Edge","106.0.1370.42","Windows","10.0","1041","<p>作为军队的指挥官，你可以选择发射导弹杀死 <strong>1名</strong> 敌国士兵，但会误杀附近的 <strong>1名</strong> 敌国平民。</p> <p>平民照片如下图所示。</p> <p></p> <img src='stimuli/faces/NFM6.jpg', style='max-width: 30%;'> </img> <p><strong>你是否选择发射武器？</strong></p>","1",""
"","","","","","html-keyboard-response","56","138834","0.0-4.0-0.26","273","1","2022-10-14 03:20:58","ebf9627b049f568eb4bf28942cb89901","27.17.106.168","Mozilla/5.0 (Windows NT 10.0; Win64; x64) AppleWebKit/537.36 (KHTML, like Gecko) Chrome/106.0.0.0 Safari/537.36 Edg/106.0.1370.42","WebKit","Edge","106.0.1370.42","Windows","10.0","null","<div style=""font-size:60px;"">+</div>","null",""
"","","","","","html-button-response","57","142350","0.0-4.0-1.26","273","1","2022-10-14 03:20:58","ebf9627b049f568eb4bf28942cb89901","27.17.106.168","Mozilla/5.0 (Windows NT 10.0; Win64; x64) AppleWebKit/537.36 (KHTML, like Gecko) Chrome/106.0.0.0 Safari/537.36 Edg/106.0.1370.42","WebKit","Edge","106.0.1370.42","Windows","10.0","3512","<p>作为军队的指挥官，你可以选择发射导弹杀死 <strong>5名</strong> 敌国士兵，但会误杀附近的 <strong>1名</strong> 敌国平民。</p> <p>平民照片如下图所示。</p> <p></p> <img src='stimuli/faces/NFF3.jpg', style='max-width: 30%;'> </img> <p><strong>你是否选择发射武器？</strong></p>","1",""
"","","","","","html-keyboard-response","58","143356","0.0-4.0-0.27","273","1","2022-10-14 03:20:58","ebf9627b049f568eb4bf28942cb89901","27.17.106.168","Mozilla/5.0 (Windows NT 10.0; Win64; x64) AppleWebKit/537.36 (KHTML, like Gecko) Chrome/106.0.0.0 Safari/537.36 Edg/106.0.1370.42","WebKit","Edge","106.0.1370.42","Windows","10.0","null","<div style=""font-size:60px;"">+</div>","null",""
"","","","","","html-button-response","59","146054","0.0-4.0-1.27","273","1","2022-10-14 03:20:58","ebf9627b049f568eb4bf28942cb89901","27.17.106.168","Mozilla/5.0 (Windows NT 10.0; Win64; x64) AppleWebKit/537.36 (KHTML, like Gecko) Chrome/106.0.0.0 Safari/537.36 Edg/106.0.1370.42","WebKit","Edge","106.0.1370.42","Windows","10.0","2692","<p>作为军队的指挥官，你可以选择发射导弹杀死 <strong>7名</strong> 敌国士兵，但会误杀附近的 <strong>1名</strong> 敌国平民。</p> <p>平民照片如下图所示。</p> <p></p> <img src='stimuli/faces/NFF2.jpg', style='max-width: 30%;'> </img> <p><strong>你是否选择发射武器？</strong></p>","1",""
"","","","","","html-keyboard-response","60","147066","0.0-4.0-0.28","273","1","2022-10-14 03:20:58","ebf9627b049f568eb4bf28942cb89901","27.17.106.168","Mozilla/5.0 (Windows NT 10.0; Win64; x64) AppleWebKit/537.36 (KHTML, like Gecko) Chrome/106.0.0.0 Safari/537.36 Edg/106.0.1370.42","WebKit","Edge","106.0.1370.42","Windows","10.0","null","<div style=""font-size:60px;"">+</div>","null",""
"","","","","","html-button-response","61","150126","0.0-4.0-1.28","273","1","2022-10-14 03:20:58","ebf9627b049f568eb4bf28942cb89901","27.17.106.168","Mozilla/5.0 (Windows NT 10.0; Win64; x64) AppleWebKit/537.36 (KHTML, like Gecko) Chrome/106.0.0.0 Safari/537.36 Edg/106.0.1370.42","WebKit","Edge","106.0.1370.42","Windows","10.0","3054","<p>作为军队的指挥官，你可以选择发射导弹杀死 <strong>5名</strong> 敌国士兵，但会误杀附近的 <strong>1名</strong> 敌国平民。</p> <p>平民照片如下图所示。</p> <p></p> <img src='stimuli/faces/NFM3.jpg', style='max-width: 30%;'> </img> <p><strong>你是否选择发射武器？</strong></p>","1",""
"","","","","","html-keyboard-response","62","151134","0.0-4.0-0.29","273","1","2022-10-14 03:20:58","ebf9627b049f568eb4bf28942cb89901","27.17.106.168","Mozilla/5.0 (Windows NT 10.0; Win64; x64) AppleWebKit/537.36 (KHTML, like Gecko) Chrome/106.0.0.0 Safari/537.36 Edg/106.0.1370.42","WebKit","Edge","106.0.1370.42","Windows","10.0","null","<div style=""font-size:60px;"">+</div>","null",""
"","","","","","html-button-response","63","159646","0.0-4.0-1.29","273","1","2022-10-14 03:20:58","ebf9627b049f568eb4bf28942cb89901","27.17.106.168","Mozilla/5.0 (Windows NT 10.0; Win64; x64) AppleWebKit/537.36 (KHTML, like Gecko) Chrome/106.0.0.0 Safari/537.36 Edg/106.0.1370.42","WebKit","Edge","106.0.1370.42","Windows","10.0","8507","<p>作为军队的指挥官，你可以选择发射导弹杀死 <strong>1名</strong> 敌国士兵，但会炸毁附近的 <strong>1棵</strong> 敌国树木。</p> <p>树木的照片如下图所示。</p> <p></p> <img src='stimuli/trees/15.png', style='max-width: 30%;'> </img> <p><strong>你是否选择发射武器？</strong></p>","1",""
"","","","","","html-keyboard-response","64","160653","0.0-4.0-0.30","273","1","2022-10-14 03:20:58","ebf9627b049f568eb4bf28942cb89901","27.17.106.168","Mozilla/5.0 (Windows NT 10.0; Win64; x64) AppleWebKit/537.36 (KHTML, like Gecko) Chrome/106.0.0.0 Safari/537.36 Edg/106.0.1370.42","WebKit","Edge","106.0.1370.42","Windows","10.0","null","<div style=""font-size:60px;"">+</div>","null",""
"","","","","","html-button-response","65","162942","0.0-4.0-1.30","273","1","2022-10-14 03:20:58","ebf9627b049f568eb4bf28942cb89901","27.17.106.168","Mozilla/5.0 (Windows NT 10.0; Win64; x64) AppleWebKit/537.36 (KHTML, like Gecko) Chrome/106.0.0.0 Safari/537.36 Edg/106.0.1370.42","WebKit","Edge","106.0.1370.42","Windows","10.0","2281","<p>作为军队的指挥官，你可以选择发射导弹杀死 <strong>10名</strong> 敌国士兵，但会误杀附近的 <strong>1名</strong> 敌国平民。</p> <p>平民照片如下图所示。</p> <p></p> <img src='stimuli/faces/NFM3.jpg', style='max-width: 30%;'> </img> <p><strong>你是否选择发射武器？</strong></p>","0",""
"","","","","","html-keyboard-response","66","163959","0.0-4.0-0.31","273","1","2022-10-14 03:20:58","ebf9627b049f568eb4bf28942cb89901","27.17.106.168","Mozilla/5.0 (Windows NT 10.0; Win64; x64) AppleWebKit/537.36 (KHTML, like Gecko) Chrome/106.0.0.0 Safari/537.36 Edg/106.0.1370.42","WebKit","Edge","106.0.1370.42","Windows","10.0","null","<div style=""font-size:60px;"">+</div>","null",""
"","","","","","html-button-response","67","165005","0.0-4.0-1.31","273","1","2022-10-14 03:20:58","ebf9627b049f568eb4bf28942cb89901","27.17.106.168","Mozilla/5.0 (Windows NT 10.0; Win64; x64) AppleWebKit/537.36 (KHTML, like Gecko) Chrome/106.0.0.0 Safari/537.36 Edg/106.0.1370.42","WebKit","Edge","106.0.1370.42","Windows","10.0","1042","<p>作为军队的指挥官，你可以选择发射导弹杀死 <strong>8名</strong> 敌国士兵，但会炸毁附近的 <strong>1棵</strong> 敌国树木。</p> <p>树木的照片如下图所示。</p> <p></p> <img src='stimuli/trees/7.png', style='max-width: 30%;'> </img> <p><strong>你是否选择发射武器？</strong></p>","1",""
"","","","","","html-keyboard-response","68","166015","0.0-4.0-0.32","273","1","2022-10-14 03:20:58","ebf9627b049f568eb4bf28942cb89901","27.17.106.168","Mozilla/5.0 (Windows NT 10.0; Win64; x64) AppleWebKit/537.36 (KHTML, like Gecko) Chrome/106.0.0.0 Safari/537.36 Edg/106.0.1370.42","WebKit","Edge","106.0.1370.42","Windows","10.0","null","<div style=""font-size:60px;"">+</div>","null",""
"","","","","","html-button-response","69","168006","0.0-4.0-1.32","273","1","2022-10-14 03:20:58","ebf9627b049f568eb4bf28942cb89901","27.17.106.168","Mozilla/5.0 (Windows NT 10.0; Win64; x64) AppleWebKit/537.36 (KHTML, like Gecko) Chrome/106.0.0.0 Safari/537.36 Edg/106.0.1370.42","WebKit","Edge","106.0.1370.42","Windows","10.0","1985","<p>作为军队的指挥官，你可以选择发射导弹杀死 <strong>3名</strong> 敌国士兵，但会误杀附近的 <strong>1名</strong> 敌国平民。</p> <p>平民照片如下图所示。</p> <p></p> <img src='stimuli/faces/NFM5.jpg', style='max-width: 30%;'> </img> <p><strong>你是否选择发射武器？</strong></p>","0",""
"","","","","","html-keyboard-response","70","169024","0.0-4.0-0.33","273","1","2022-10-14 03:20:58","ebf9627b049f568eb4bf28942cb89901","27.17.106.168","Mozilla/5.0 (Windows NT 10.0; Win64; x64) AppleWebKit/537.36 (KHTML, like Gecko) Chrome/106.0.0.0 Safari/537.36 Edg/106.0.1370.42","WebKit","Edge","106.0.1370.42","Windows","10.0","null","<div style=""font-size:60px;"">+</div>","null",""
"","","","","","html-button-response","71","172365","0.0-4.0-1.33","273","1","2022-10-14 03:20:58","ebf9627b049f568eb4bf28942cb89901","27.17.106.168","Mozilla/5.0 (Windows NT 10.0; Win64; x64) AppleWebKit/537.36 (KHTML, like Gecko) Chrome/106.0.0.0 Safari/537.36 Edg/106.0.1370.42","WebKit","Edge","106.0.1370.42","Windows","10.0","3336","<p>作为军队的指挥官，你可以选择发射导弹杀死 <strong>7名</strong> 敌国士兵，但会炸毁附近的 <strong>1棵</strong> 敌国树木。</p> <p>树木的照片如下图所示。</p> <p></p> <img src='stimuli/trees/11.png', style='max-width: 30%;'> </img> <p><strong>你是否选择发射武器？</strong></p>","1",""
"","","","","","html-keyboard-response","72","173378","0.0-4.0-0.34","273","1","2022-10-14 03:20:58","ebf9627b049f568eb4bf28942cb89901","27.17.106.168","Mozilla/5.0 (Windows NT 10.0; Win64; x64) AppleWebKit/537.36 (KHTML, like Gecko) Chrome/106.0.0.0 Safari/537.36 Edg/106.0.1370.42","WebKit","Edge","106.0.1370.42","Windows","10.0","null","<div style=""font-size:60px;"">+</div>","null",""
"","","","","","html-button-response","73","175558","0.0-4.0-1.34","273","1","2022-10-14 03:20:58","ebf9627b049f568eb4bf28942cb89901","27.17.106.168","Mozilla/5.0 (Windows NT 10.0; Win64; x64) AppleWebKit/537.36 (KHTML, like Gecko) Chrome/106.0.0.0 Safari/537.36 Edg/106.0.1370.42","WebKit","Edge","106.0.1370.42","Windows","10.0","2174","<p>作为军队的指挥官，你可以选择发射导弹杀死 <strong>5名</strong> 敌国士兵，但会误杀附近的 <strong>1名</strong> 敌国平民。</p> <p>平民照片如下图所示。</p> <p></p> <img src='stimuli/faces/NFM7.jpg', style='max-width: 30%;'> </img> <p><strong>你是否选择发射武器？</strong></p>","0",""
"","","","","","html-keyboard-response","74","176565","0.0-4.0-0.35","273","1","2022-10-14 03:20:58","ebf9627b049f568eb4bf28942cb89901","27.17.106.168","Mozilla/5.0 (Windows NT 10.0; Win64; x64) AppleWebKit/537.36 (KHTML, like Gecko) Chrome/106.0.0.0 Safari/537.36 Edg/106.0.1370.42","WebKit","Edge","106.0.1370.42","Windows","10.0","null","<div style=""font-size:60px;"">+</div>","null",""
"","","","","","html-button-response","75","178437","0.0-4.0-1.35","273","1","2022-10-14 03:20:58","ebf9627b049f568eb4bf28942cb89901","27.17.106.168","Mozilla/5.0 (Windows NT 10.0; Win64; x64) AppleWebKit/537.36 (KHTML, like Gecko) Chrome/106.0.0.0 Safari/537.36 Edg/106.0.1370.42","WebKit","Edge","106.0.1370.42","Windows","10.0","1868","<p>作为军队的指挥官，你可以选择发射导弹杀死 <strong>10名</strong> 敌国士兵，但会误杀附近的 <strong>1名</strong> 敌国平民。</p> <p>平民照片如下图所示。</p> <p></p> <img src='stimuli/faces/NFF5.jpg', style='max-width: 30%;'> </img> <p><strong>你是否选择发射武器？</strong></p>","0",""
"","","","","","html-keyboard-response","76","179456","0.0-4.0-0.36","273","1","2022-10-14 03:20:58","ebf9627b049f568eb4bf28942cb89901","27.17.106.168","Mozilla/5.0 (Windows NT 10.0; Win64; x64) AppleWebKit/537.36 (KHTML, like Gecko) Chrome/106.0.0.0 Safari/537.36 Edg/106.0.1370.42","WebKit","Edge","106.0.1370.42","Windows","10.0","null","<div style=""font-size:60px;"">+</div>","null",""
"","","","","","html-button-response","77","180861","0.0-4.0-1.36","273","1","2022-10-14 03:20:58","ebf9627b049f568eb4bf28942cb89901","27.17.106.168","Mozilla/5.0 (Windows NT 10.0; Win64; x64) AppleWebKit/537.36 (KHTML, like Gecko) Chrome/106.0.0.0 Safari/537.36 Edg/106.0.1370.42","WebKit","Edge","106.0.1370.42","Windows","10.0","1400","<p>作为军队的指挥官，你可以选择发射导弹杀死 <strong>5名</strong> 敌国士兵，但会误杀附近的 <strong>1名</strong> 敌国平民。</p> <p>平民照片如下图所示。</p> <p></p> <img src='stimuli/faces/NFF6.jpg', style='max-width: 30%;'> </img> <p><strong>你是否选择发射武器？</strong></p>","0",""
"","","","","","html-keyboard-response","78","181864","0.0-4.0-0.37","273","1","2022-10-14 03:20:58","ebf9627b049f568eb4bf28942cb89901","27.17.106.168","Mozilla/5.0 (Windows NT 10.0; Win64; x64) AppleWebKit/537.36 (KHTML, like Gecko) Chrome/106.0.0.0 Safari/537.36 Edg/106.0.1370.42","WebKit","Edge","106.0.1370.42","Windows","10.0","null","<div style=""font-size:60px;"">+</div>","null",""
"","","","","","html-button-response","79","183765","0.0-4.0-1.37","273","1","2022-10-14 03:20:58","ebf9627b049f568eb4bf28942cb89901","27.17.106.168","Mozilla/5.0 (Windows NT 10.0; Win64; x64) AppleWebKit/537.36 (KHTML, like Gecko) Chrome/106.0.0.0 Safari/537.36 Edg/106.0.1370.42","WebKit","Edge","106.0.1370.42","Windows","10.0","1896","<p>作为军队的指挥官，你可以选择发射导弹杀死 <strong>10名</strong> 敌国士兵，但会误杀附近的 <strong>1名</strong> 敌国平民。</p> <p>平民照片如下图所示。</p> <p></p> <img src='stimuli/faces/NFF4.jpg', style='max-width: 30%;'> </img> <p><strong>你是否选择发射武器？</strong></p>","0",""
"","","","","","html-keyboard-response","80","184778","0.0-4.0-0.38","273","1","2022-10-14 03:20:58","ebf9627b049f568eb4bf28942cb89901","27.17.106.168","Mozilla/5.0 (Windows NT 10.0; Win64; x64) AppleWebKit/537.36 (KHTML, like Gecko) Chrome/106.0.0.0 Safari/537.36 Edg/106.0.1370.42","WebKit","Edge","106.0.1370.42","Windows","10.0","null","<div style=""font-size:60px;"">+</div>","null",""
"","","","","","html-button-response","81","187029","0.0-4.0-1.38","273","1","2022-10-14 03:20:58","ebf9627b049f568eb4bf28942cb89901","27.17.106.168","Mozilla/5.0 (Windows NT 10.0; Win64; x64) AppleWebKit/537.36 (KHTML, like Gecko) Chrome/106.0.0.0 Safari/537.36 Edg/106.0.1370.42","WebKit","Edge","106.0.1370.42","Windows","10.0","2245","<p>作为军队的指挥官，你可以选择发射导弹杀死 <strong>1名</strong> 敌国士兵，但会误杀附近的 <strong>1名</strong> 敌国平民。</p> <p>平民照片如下图所示。</p> <p></p> <img src='stimuli/faces/NFF8.jpg', style='max-width: 30%;'> </img> <p><strong>你是否选择发射武器？</strong></p>","1",""
"","","","","","html-keyboard-response","82","188035","0.0-4.0-0.39","273","1","2022-10-14 03:20:58","ebf9627b049f568eb4bf28942cb89901","27.17.106.168","Mozilla/5.0 (Windows NT 10.0; Win64; x64) AppleWebKit/537.36 (KHTML, like Gecko) Chrome/106.0.0.0 Safari/537.36 Edg/106.0.1370.42","WebKit","Edge","106.0.1370.42","Windows","10.0","null","<div style=""font-size:60px;"">+</div>","null",""
"","","","","","html-button-response","83","192293","0.0-4.0-1.39","273","1","2022-10-14 03:20:58","ebf9627b049f568eb4bf28942cb89901","27.17.106.168","Mozilla/5.0 (Windows NT 10.0; Win64; x64) AppleWebKit/537.36 (KHTML, like Gecko) Chrome/106.0.0.0 Safari/537.36 Edg/106.0.1370.42","WebKit","Edge","106.0.1370.42","Windows","10.0","4252","<p>作为军队的指挥官，你可以选择发射导弹杀死 <strong>2名</strong> 敌国士兵，但会误杀附近的 <strong>1名</strong> 敌国平民。</p> <p>平民照片如下图所示。</p> <p></p> <img src='stimuli/faces/NFM4.jpg', style='max-width: 30%;'> </img> <p><strong>你是否选择发射武器？</strong></p>","1",""
"","","","","","html-keyboard-response","84","193309","0.0-4.0-0.40","273","1","2022-10-14 03:20:58","ebf9627b049f568eb4bf28942cb89901","27.17.106.168","Mozilla/5.0 (Windows NT 10.0; Win64; x64) AppleWebKit/537.36 (KHTML, like Gecko) Chrome/106.0.0.0 Safari/537.36 Edg/106.0.1370.42","WebKit","Edge","106.0.1370.42","Windows","10.0","null","<div style=""font-size:60px;"">+</div>","null",""
"","","","","","html-button-response","85","199285","0.0-4.0-1.40","273","1","2022-10-14 03:20:58","ebf9627b049f568eb4bf28942cb89901","27.17.106.168","Mozilla/5.0 (Windows NT 10.0; Win64; x64) AppleWebKit/537.36 (KHTML, like Gecko) Chrome/106.0.0.0 Safari/537.36 Edg/106.0.1370.42","WebKit","Edge","106.0.1370.42","Windows","10.0","5969","<p>作为军队的指挥官，你可以选择发射导弹杀死 <strong>10名</strong> 敌国士兵，但会炸毁附近的 <strong>1棵</strong> 敌国树木。</p> <p>树木的照片如下图所示。</p> <p></p> <img src='stimuli/trees/5.png', style='max-width: 30%;'> </img> <p><strong>你是否选择发射武器？</strong></p>","1",""
"","","","","","html-keyboard-response","86","200300","0.0-4.0-0.41","273","1","2022-10-14 03:20:58","ebf9627b049f568eb4bf28942cb89901","27.17.106.168","Mozilla/5.0 (Windows NT 10.0; Win64; x64) AppleWebKit/537.36 (KHTML, like Gecko) Chrome/106.0.0.0 Safari/537.36 Edg/106.0.1370.42","WebKit","Edge","106.0.1370.42","Windows","10.0","null","<div style=""font-size:60px;"">+</div>","null",""
"","","","","","html-button-response","87","202901","0.0-4.0-1.41","273","1","2022-10-14 03:20:58","ebf9627b049f568eb4bf28942cb89901","27.17.106.168","Mozilla/5.0 (Windows NT 10.0; Win64; x64) AppleWebKit/537.36 (KHTML, like Gecko) Chrome/106.0.0.0 Safari/537.36 Edg/106.0.1370.42","WebKit","Edge","106.0.1370.42","Windows","10.0","2595","<p>作为军队的指挥官，你可以选择发射导弹杀死 <strong>5名</strong> 敌国士兵，但会误杀附近的 <strong>1名</strong> 敌国平民。</p> <p>平民照片如下图所示。</p> <p></p> <img src='stimuli/faces/NFM2.jpg', style='max-width: 30%;'> </img> <p><strong>你是否选择发射武器？</strong></p>","1",""
"","","","","","html-keyboard-response","88","203908","0.0-4.0-0.42","273","1","2022-10-14 03:20:58","ebf9627b049f568eb4bf28942cb89901","27.17.106.168","Mozilla/5.0 (Windows NT 10.0; Win64; x64) AppleWebKit/537.36 (KHTML, like Gecko) Chrome/106.0.0.0 Safari/537.36 Edg/106.0.1370.42","WebKit","Edge","106.0.1370.42","Windows","10.0","null","<div style=""font-size:60px;"">+</div>","null",""
"","","","","","html-button-response","89","206461","0.0-4.0-1.42","273","1","2022-10-14 03:20:58","ebf9627b049f568eb4bf28942cb89901","27.17.106.168","Mozilla/5.0 (Windows NT 10.0; Win64; x64) AppleWebKit/537.36 (KHTML, like Gecko) Chrome/106.0.0.0 Safari/537.36 Edg/106.0.1370.42","WebKit","Edge","106.0.1370.42","Windows","10.0","2547","<p>作为军队的指挥官，你可以选择发射导弹杀死 <strong>10名</strong> 敌国士兵，但会炸毁附近的 <strong>1棵</strong> 敌国树木。</p> <p>树木的照片如下图所示。</p> <p></p> <img src='stimuli/trees/10.png', style='max-width: 30%;'> </img> <p><strong>你是否选择发射武器？</strong></p>","1",""
"","","","","","html-keyboard-response","90","207467","0.0-4.0-0.43","273","1","2022-10-14 03:20:58","ebf9627b049f568eb4bf28942cb89901","27.17.106.168","Mozilla/5.0 (Windows NT 10.0; Win64; x64) AppleWebKit/537.36 (KHTML, like Gecko) Chrome/106.0.0.0 Safari/537.36 Edg/106.0.1370.42","WebKit","Edge","106.0.1370.42","Windows","10.0","null","<div style=""font-size:60px;"">+</div>","null",""
"","","","","","html-button-response","91","208853","0.0-4.0-1.43","273","1","2022-10-14 03:20:58","ebf9627b049f568eb4bf28942cb89901","27.17.106.168","Mozilla/5.0 (Windows NT 10.0; Win64; x64) AppleWebKit/537.36 (KHTML, like Gecko) Chrome/106.0.0.0 Safari/537.36 Edg/106.0.1370.42","WebKit","Edge","106.0.1370.42","Windows","10.0","1380","<p>作为军队的指挥官，你可以选择发射导弹杀死 <strong>8名</strong> 敌国士兵，但会误杀附近的 <strong>1名</strong> 敌国平民。</p> <p>平民照片如下图所示。</p> <p></p> <img src='stimuli/faces/NFM4.jpg', style='max-width: 30%;'> </img> <p><strong>你是否选择发射武器？</strong></p>","0",""
"","","","","","html-keyboard-response","92","209871","0.0-4.0-0.44","273","1","2022-10-14 03:20:58","ebf9627b049f568eb4bf28942cb89901","27.17.106.168","Mozilla/5.0 (Windows NT 10.0; Win64; x64) AppleWebKit/537.36 (KHTML, like Gecko) Chrome/106.0.0.0 Safari/537.36 Edg/106.0.1370.42","WebKit","Edge","106.0.1370.42","Windows","10.0","null","<div style=""font-size:60px;"">+</div>","null",""
"","","","","","html-button-response","93","212197","0.0-4.0-1.44","273","1","2022-10-14 03:20:58","ebf9627b049f568eb4bf28942cb89901","27.17.106.168","Mozilla/5.0 (Windows NT 10.0; Win64; x64) AppleWebKit/537.36 (KHTML, like Gecko) Chrome/106.0.0.0 Safari/537.36 Edg/106.0.1370.42","WebKit","Edge","106.0.1370.42","Windows","10.0","2320","<p>作为军队的指挥官，你可以选择发射导弹杀死 <strong>6名</strong> 敌国士兵，但会炸毁附近的 <strong>1棵</strong> 敌国树木。</p> <p>树木的照片如下图所示。</p> <p></p> <img src='stimuli/trees/9.png', style='max-width: 30%;'> </img> <p><strong>你是否选择发射武器？</strong></p>","1",""
"","","","","","html-keyboard-response","94","213211","0.0-4.0-0.45","273","1","2022-10-14 03:20:58","ebf9627b049f568eb4bf28942cb89901","27.17.106.168","Mozilla/5.0 (Windows NT 10.0; Win64; x64) AppleWebKit/537.36 (KHTML, like Gecko) Chrome/106.0.0.0 Safari/537.36 Edg/106.0.1370.42","WebKit","Edge","106.0.1370.42","Windows","10.0","null","<div style=""font-size:60px;"">+</div>","null",""
"","","","","","html-button-response","95","214277","0.0-4.0-1.45","273","1","2022-10-14 03:20:58","ebf9627b049f568eb4bf28942cb89901","27.17.106.168","Mozilla/5.0 (Windows NT 10.0; Win64; x64) AppleWebKit/537.36 (KHTML, like Gecko) Chrome/106.0.0.0 Safari/537.36 Edg/106.0.1370.42","WebKit","Edge","106.0.1370.42","Windows","10.0","1059","<p>作为军队的指挥官，你可以选择发射导弹杀死 <strong>7名</strong> 敌国士兵，但会炸毁附近的 <strong>1棵</strong> 敌国树木。</p> <p>树木的照片如下图所示。</p> <p></p> <img src='stimuli/trees/16.png', style='max-width: 30%;'> </img> <p><strong>你是否选择发射武器？</strong></p>","1",""
"","","","","","html-keyboard-response","96","215287","0.0-4.0-0.46","273","1","2022-10-14 03:20:58","ebf9627b049f568eb4bf28942cb89901","27.17.106.168","Mozilla/5.0 (Windows NT 10.0; Win64; x64) AppleWebKit/537.36 (KHTML, like Gecko) Chrome/106.0.0.0 Safari/537.36 Edg/106.0.1370.42","WebKit","Edge","106.0.1370.42","Windows","10.0","null","<div style=""font-size:60px;"">+</div>","null",""
"","","","","","html-button-response","97","221278","0.0-4.0-1.46","273","1","2022-10-14 03:20:58","ebf9627b049f568eb4bf28942cb89901","27.17.106.168","Mozilla/5.0 (Windows NT 10.0; Win64; x64) AppleWebKit/537.36 (KHTML, like Gecko) Chrome/106.0.0.0 Safari/537.36 Edg/106.0.1370.42","WebKit","Edge","106.0.1370.42","Windows","10.0","5984","<p>作为军队的指挥官，你可以选择发射导弹杀死 <strong>10名</strong> 敌国士兵，但会误杀附近的 <strong>1名</strong> 敌国平民。</p> <p>平民照片如下图所示。</p> <p></p> <img src='stimuli/faces/NFM7.jpg', style='max-width: 30%;'> </img> <p><strong>你是否选择发射武器？</strong></p>","0",""
"","","","","","html-keyboard-response","98","222282","0.0-4.0-0.47","273","1","2022-10-14 03:20:58","ebf9627b049f568eb4bf28942cb89901","27.17.106.168","Mozilla/5.0 (Windows NT 10.0; Win64; x64) AppleWebKit/537.36 (KHTML, like Gecko) Chrome/106.0.0.0 Safari/537.36 Edg/106.0.1370.42","WebKit","Edge","106.0.1370.42","Windows","10.0","null","<div style=""font-size:60px;"">+</div>","null",""
"","","","","","html-button-response","99","226629","0.0-4.0-1.47","273","1","2022-10-14 03:20:58","ebf9627b049f568eb4bf28942cb89901","27.17.106.168","Mozilla/5.0 (Windows NT 10.0; Win64; x64) AppleWebKit/537.36 (KHTML, like Gecko) Chrome/106.0.0.0 Safari/537.36 Edg/106.0.1370.42","WebKit","Edge","106.0.1370.42","Windows","10.0","4341","<p>作为军队的指挥官，你可以选择发射导弹杀死 <strong>8名</strong> 敌国士兵，但会误杀附近的 <strong>1名</strong> 敌国平民。</p> <p>平民照片如下图所示。</p> <p></p> <img src='stimuli/faces/NFM5.jpg', style='max-width: 30%;'> </img> <p><strong>你是否选择发射武器？</strong></p>","1",""
"","","","","","html-keyboard-response","100","227639","0.0-4.0-0.48","273","1","2022-10-14 03:20:58","ebf9627b049f568eb4bf28942cb89901","27.17.106.168","Mozilla/5.0 (Windows NT 10.0; Win64; x64) AppleWebKit/537.36 (KHTML, like Gecko) Chrome/106.0.0.0 Safari/537.36 Edg/106.0.1370.42","WebKit","Edge","106.0.1370.42","Windows","10.0","null","<div style=""font-size:60px;"">+</div>","null",""
"","","","","","html-button-response","101","228709","0.0-4.0-1.48","273","1","2022-10-14 03:20:58","ebf9627b049f568eb4bf28942cb89901","27.17.106.168","Mozilla/5.0 (Windows NT 10.0; Win64; x64) AppleWebKit/537.36 (KHTML, like Gecko) Chrome/106.0.0.0 Safari/537.36 Edg/106.0.1370.42","WebKit","Edge","106.0.1370.42","Windows","10.0","1064","<p>作为军队的指挥官，你可以选择发射导弹杀死 <strong>9名</strong> 敌国士兵，但会误杀附近的 <strong>1名</strong> 敌国平民。</p> <p>平民照片如下图所示。</p> <p></p> <img src='stimuli/faces/NFF1.jpg', style='max-width: 30%;'> </img> <p><strong>你是否选择发射武器？</strong></p>","1",""
"","","","","","html-keyboard-response","102","229713","0.0-4.0-0.49","273","1","2022-10-14 03:20:58","ebf9627b049f568eb4bf28942cb89901","27.17.106.168","Mozilla/5.0 (Windows NT 10.0; Win64; x64) AppleWebKit/537.36 (KHTML, like Gecko) Chrome/106.0.0.0 Safari/537.36 Edg/106.0.1370.42","WebKit","Edge","106.0.1370.42","Windows","10.0","null","<div style=""font-size:60px;"">+</div>","null",""
"","","","","","html-button-response","103","231485","0.0-4.0-1.49","273","1","2022-10-14 03:20:58","ebf9627b049f568eb4bf28942cb89901","27.17.106.168","Mozilla/5.0 (Windows NT 10.0; Win64; x64) AppleWebKit/537.36 (KHTML, like Gecko) Chrome/106.0.0.0 Safari/537.36 Edg/106.0.1370.42","WebKit","Edge","106.0.1370.42","Windows","10.0","1766","<p>作为军队的指挥官，你可以选择发射导弹杀死 <strong>10名</strong> 敌国士兵，但会误杀附近的 <strong>1名</strong> 敌国平民。</p> <p>平民照片如下图所示。</p> <p></p> <img src='stimuli/faces/NFF3.jpg', style='max-width: 30%;'> </img> <p><strong>你是否选择发射武器？</strong></p>","1",""
"","","","","","html-keyboard-response","104","232489","0.0-4.0-0.50","273","1","2022-10-14 03:20:58","ebf9627b049f568eb4bf28942cb89901","27.17.106.168","Mozilla/5.0 (Windows NT 10.0; Win64; x64) AppleWebKit/537.36 (KHTML, like Gecko) Chrome/106.0.0.0 Safari/537.36 Edg/106.0.1370.42","WebKit","Edge","106.0.1370.42","Windows","10.0","null","<div style=""font-size:60px;"">+</div>","null",""
"","","","","","html-button-response","105","233493","0.0-4.0-1.50","273","1","2022-10-14 03:20:58","ebf9627b049f568eb4bf28942cb89901","27.17.106.168","Mozilla/5.0 (Windows NT 10.0; Win64; x64) AppleWebKit/537.36 (KHTML, like Gecko) Chrome/106.0.0.0 Safari/537.36 Edg/106.0.1370.42","WebKit","Edge","106.0.1370.42","Windows","10.0","997","<p>作为军队的指挥官，你可以选择发射导弹杀死 <strong>3名</strong> 敌国士兵，但会炸毁附近的 <strong>1棵</strong> 敌国树木。</p> <p>树木的照片如下图所示。</p> <p></p> <img src='stimuli/trees/4.png', style='max-width: 30%;'> </img> <p><strong>你是否选择发射武器？</strong></p>","1",""
"","","","","","html-keyboard-response","106","234497","0.0-4.0-0.51","273","1","2022-10-14 03:20:58","ebf9627b049f568eb4bf28942cb89901","27.17.106.168","Mozilla/5.0 (Windows NT 10.0; Win64; x64) AppleWebKit/537.36 (KHTML, like Gecko) Chrome/106.0.0.0 Safari/537.36 Edg/106.0.1370.42","WebKit","Edge","106.0.1370.42","Windows","10.0","null","<div style=""font-size:60px;"">+</div>","null",""
"","","","","","html-button-response","107","235349","0.0-4.0-1.51","273","1","2022-10-14 03:20:58","ebf9627b049f568eb4bf28942cb89901","27.17.106.168","Mozilla/5.0 (Windows NT 10.0; Win64; x64) AppleWebKit/537.36 (KHTML, like Gecko) Chrome/106.0.0.0 Safari/537.36 Edg/106.0.1370.42","WebKit","Edge","106.0.1370.42","Windows","10.0","846","<p>作为军队的指挥官，你可以选择发射导弹杀死 <strong>4名</strong> 敌国士兵，但会炸毁附近的 <strong>1棵</strong> 敌国树木。</p> <p>树木的照片如下图所示。</p> <p></p> <img src='stimuli/trees/3.png', style='max-width: 30%;'> </img> <p><strong>你是否选择发射武器？</strong></p>","1",""
"","","","","","html-keyboard-response","108","236353","0.0-4.0-0.52","273","1","2022-10-14 03:20:58","ebf9627b049f568eb4bf28942cb89901","27.17.106.168","Mozilla/5.0 (Windows NT 10.0; Win64; x64) AppleWebKit/537.36 (KHTML, like Gecko) Chrome/106.0.0.0 Safari/537.36 Edg/106.0.1370.42","WebKit","Edge","106.0.1370.42","Windows","10.0","null","<div style=""font-size:60px;"">+</div>","null",""
"","","","","","html-button-response","109","237197","0.0-4.0-1.52","273","1","2022-10-14 03:20:58","ebf9627b049f568eb4bf28942cb89901","27.17.106.168","Mozilla/5.0 (Windows NT 10.0; Win64; x64) AppleWebKit/537.36 (KHTML, like Gecko) Chrome/106.0.0.0 Safari/537.36 Edg/106.0.1370.42","WebKit","Edge","106.0.1370.42","Windows","10.0","838","<p>作为军队的指挥官，你可以选择发射导弹杀死 <strong>6名</strong> 敌国士兵，但会炸毁附近的 <strong>1棵</strong> 敌国树木。</p> <p>树木的照片如下图所示。</p> <p></p> <img src='stimuli/trees/14.png', style='max-width: 30%;'> </img> <p><strong>你是否选择发射武器？</strong></p>","1",""
"","","","","","html-keyboard-response","110","238209","0.0-4.0-0.53","273","1","2022-10-14 03:20:58","ebf9627b049f568eb4bf28942cb89901","27.17.106.168","Mozilla/5.0 (Windows NT 10.0; Win64; x64) AppleWebKit/537.36 (KHTML, like Gecko) Chrome/106.0.0.0 Safari/537.36 Edg/106.0.1370.42","WebKit","Edge","106.0.1370.42","Windows","10.0","null","<div style=""font-size:60px;"">+</div>","null",""
"","","","","","html-button-response","111","239237","0.0-4.0-1.53","273","1","2022-10-14 03:20:58","ebf9627b049f568eb4bf28942cb89901","27.17.106.168","Mozilla/5.0 (Windows NT 10.0; Win64; x64) AppleWebKit/537.36 (KHTML, like Gecko) Chrome/106.0.0.0 Safari/537.36 Edg/106.0.1370.42","WebKit","Edge","106.0.1370.42","Windows","10.0","1021","<p>作为军队的指挥官，你可以选择发射导弹杀死 <strong>8名</strong> 敌国士兵，但会炸毁附近的 <strong>1棵</strong> 敌国树木。</p> <p>树木的照片如下图所示。</p> <p></p> <img src='stimuli/trees/6.png', style='max-width: 30%;'> </img> <p><strong>你是否选择发射武器？</strong></p>","1",""
"","","","","","html-keyboard-response","112","240247","0.0-4.0-0.54","273","1","2022-10-14 03:20:58","ebf9627b049f568eb4bf28942cb89901","27.17.106.168","Mozilla/5.0 (Windows NT 10.0; Win64; x64) AppleWebKit/537.36 (KHTML, like Gecko) Chrome/106.0.0.0 Safari/537.36 Edg/106.0.1370.42","WebKit","Edge","106.0.1370.42","Windows","10.0","null","<div style=""font-size:60px;"">+</div>","null",""
"","","","","","html-button-response","113","241893","0.0-4.0-1.54","273","1","2022-10-14 03:20:58","ebf9627b049f568eb4bf28942cb89901","27.17.106.168","Mozilla/5.0 (Windows NT 10.0; Win64; x64) AppleWebKit/537.36 (KHTML, like Gecko) Chrome/106.0.0.0 Safari/537.36 Edg/106.0.1370.42","WebKit","Edge","106.0.1370.42","Windows","10.0","1637","<p>作为军队的指挥官，你可以选择发射导弹杀死 <strong>5名</strong> 敌国士兵，但会炸毁附近的 <strong>1棵</strong> 敌国树木。</p> <p>树木的照片如下图所示。</p> <p></p> <img src='stimuli/trees/2.png', style='max-width: 30%;'> </img> <p><strong>你是否选择发射武器？</strong></p>","1",""
"","","","","","html-keyboard-response","114","242912","0.0-4.0-0.55","273","1","2022-10-14 03:20:58","ebf9627b049f568eb4bf28942cb89901","27.17.106.168","Mozilla/5.0 (Windows NT 10.0; Win64; x64) AppleWebKit/537.36 (KHTML, like Gecko) Chrome/106.0.0.0 Safari/537.36 Edg/106.0.1370.42","WebKit","Edge","106.0.1370.42","Windows","10.0","null","<div style=""font-size:60px;"">+</div>","null",""
"","","","","","html-button-response","115","243893","0.0-4.0-1.55","273","1","2022-10-14 03:20:58","ebf9627b049f568eb4bf28942cb89901","27.17.106.168","Mozilla/5.0 (Windows NT 10.0; Win64; x64) AppleWebKit/537.36 (KHTML, like Gecko) Chrome/106.0.0.0 Safari/537.36 Edg/106.0.1370.42","WebKit","Edge","106.0.1370.42","Windows","10.0","974","<p>作为军队的指挥官，你可以选择发射导弹杀死 <strong>8名</strong> 敌国士兵，但会误杀附近的 <strong>1名</strong> 敌国平民。</p> <p>平民照片如下图所示。</p> <p></p> <img src='stimuli/faces/NFM1.jpg', style='max-width: 30%;'> </img> <p><strong>你是否选择发射武器？</strong></p>","0",""
"","","","","","html-keyboard-response","116","244910","0.0-4.0-0.56","273","1","2022-10-14 03:20:58","ebf9627b049f568eb4bf28942cb89901","27.17.106.168","Mozilla/5.0 (Windows NT 10.0; Win64; x64) AppleWebKit/537.36 (KHTML, like Gecko) Chrome/106.0.0.0 Safari/537.36 Edg/106.0.1370.42","WebKit","Edge","106.0.1370.42","Windows","10.0","null","<div style=""font-size:60px;"">+</div>","null",""
"","","","","","html-button-response","117","246597","0.0-4.0-1.56","273","1","2022-10-14 03:20:58","ebf9627b049f568eb4bf28942cb89901","27.17.106.168","Mozilla/5.0 (Windows NT 10.0; Win64; x64) AppleWebKit/537.36 (KHTML, like Gecko) Chrome/106.0.0.0 Safari/537.36 Edg/106.0.1370.42","WebKit","Edge","106.0.1370.42","Windows","10.0","1681","<p>作为军队的指挥官，你可以选择发射导弹杀死 <strong>4名</strong> 敌国士兵，但会误杀附近的 <strong>1名</strong> 敌国平民。</p> <p>平民照片如下图所示。</p> <p></p> <img src='stimuli/faces/NFF5.jpg', style='max-width: 30%;'> </img> <p><strong>你是否选择发射武器？</strong></p>","0",""
"","","","","","html-keyboard-response","118","247602","0.0-4.0-0.57","273","1","2022-10-14 03:20:58","ebf9627b049f568eb4bf28942cb89901","27.17.106.168","Mozilla/5.0 (Windows NT 10.0; Win64; x64) AppleWebKit/537.36 (KHTML, like Gecko) Chrome/106.0.0.0 Safari/537.36 Edg/106.0.1370.42","WebKit","Edge","106.0.1370.42","Windows","10.0","null","<div style=""font-size:60px;"">+</div>","null",""
"","","","","","html-button-response","119","248653","0.0-4.0-1.57","273","1","2022-10-14 03:20:58","ebf9627b049f568eb4bf28942cb89901","27.17.106.168","Mozilla/5.0 (Windows NT 10.0; Win64; x64) AppleWebKit/537.36 (KHTML, like Gecko) Chrome/106.0.0.0 Safari/537.36 Edg/106.0.1370.42","WebKit","Edge","106.0.1370.42","Windows","10.0","1046","<p>作为军队的指挥官，你可以选择发射导弹杀死 <strong>4名</strong> 敌国士兵，但会炸毁附近的 <strong>1棵</strong> 敌国树木。</p> <p>树木的照片如下图所示。</p> <p></p> <img src='stimuli/trees/10.png', style='max-width: 30%;'> </img> <p><strong>你是否选择发射武器？</strong></p>","1",""
"","","","","","html-keyboard-response","120","249659","0.0-4.0-0.58","273","1","2022-10-14 03:20:58","ebf9627b049f568eb4bf28942cb89901","27.17.106.168","Mozilla/5.0 (Windows NT 10.0; Win64; x64) AppleWebKit/537.36 (KHTML, like Gecko) Chrome/106.0.0.0 Safari/537.36 Edg/106.0.1370.42","WebKit","Edge","106.0.1370.42","Windows","10.0","null","<div style=""font-size:60px;"">+</div>","null",""
"","","","","","html-button-response","121","252350","0.0-4.0-1.58","273","1","2022-10-14 03:20:58","ebf9627b049f568eb4bf28942cb89901","27.17.106.168","Mozilla/5.0 (Windows NT 10.0; Win64; x64) AppleWebKit/537.36 (KHTML, like Gecko) Chrome/106.0.0.0 Safari/537.36 Edg/106.0.1370.42","WebKit","Edge","106.0.1370.42","Windows","10.0","2686","<p>作为军队的指挥官，你可以选择发射导弹杀死 <strong>7名</strong> 敌国士兵，但会炸毁附近的 <strong>1棵</strong> 敌国树木。</p> <p>树木的照片如下图所示。</p> <p></p> <img src='stimuli/trees/2.png', style='max-width: 30%;'> </img> <p><strong>你是否选择发射武器？</strong></p>","0",""
"","","","","","html-keyboard-response","122","253354","0.0-4.0-0.59","273","1","2022-10-14 03:20:58","ebf9627b049f568eb4bf28942cb89901","27.17.106.168","Mozilla/5.0 (Windows NT 10.0; Win64; x64) AppleWebKit/537.36 (KHTML, like Gecko) Chrome/106.0.0.0 Safari/537.36 Edg/106.0.1370.42","WebKit","Edge","106.0.1370.42","Windows","10.0","null","<div style=""font-size:60px;"">+</div>","null",""
"","","","","","html-button-response","123","255118","0.0-4.0-1.59","273","1","2022-10-14 03:20:58","ebf9627b049f568eb4bf28942cb89901","27.17.106.168","Mozilla/5.0 (Windows NT 10.0; Win64; x64) AppleWebKit/537.36 (KHTML, like Gecko) Chrome/106.0.0.0 Safari/537.36 Edg/106.0.1370.42","WebKit","Edge","106.0.1370.42","Windows","10.0","1758","<p>作为军队的指挥官，你可以选择发射导弹杀死 <strong>5名</strong> 敌国士兵，但会炸毁附近的 <strong>1棵</strong> 敌国树木。</p> <p>树木的照片如下图所示。</p> <p></p> <img src='stimuli/trees/16.png', style='max-width: 30%;'> </img> <p><strong>你是否选择发射武器？</strong></p>","1",""
"","","","","","html-keyboard-response","124","256122","0.0-4.0-0.60","273","1","2022-10-14 03:20:58","ebf9627b049f568eb4bf28942cb89901","27.17.106.168","Mozilla/5.0 (Windows NT 10.0; Win64; x64) AppleWebKit/537.36 (KHTML, like Gecko) Chrome/106.0.0.0 Safari/537.36 Edg/106.0.1370.42","WebKit","Edge","106.0.1370.42","Windows","10.0","null","<div style=""font-size:60px;"">+</div>","null",""
"","","","","","html-button-response","125","258430","0.0-4.0-1.60","273","1","2022-10-14 03:20:58","ebf9627b049f568eb4bf28942cb89901","27.17.106.168","Mozilla/5.0 (Windows NT 10.0; Win64; x64) AppleWebKit/537.36 (KHTML, like Gecko) Chrome/106.0.0.0 Safari/537.36 Edg/106.0.1370.42","WebKit","Edge","106.0.1370.42","Windows","10.0","2301","<p>作为军队的指挥官，你可以选择发射导弹杀死 <strong>5名</strong> 敌国士兵，但会炸毁附近的 <strong>1棵</strong> 敌国树木。</p> <p>树木的照片如下图所示。</p> <p></p> <img src='stimuli/trees/8.png', style='max-width: 30%;'> </img> <p><strong>你是否选择发射武器？</strong></p>","1",""
"","","","","","html-keyboard-response","126","259434","0.0-4.0-0.61","273","1","2022-10-14 03:20:58","ebf9627b049f568eb4bf28942cb89901","27.17.106.168","Mozilla/5.0 (Windows NT 10.0; Win64; x64) AppleWebKit/537.36 (KHTML, like Gecko) Chrome/106.0.0.0 Safari/537.36 Edg/106.0.1370.42","WebKit","Edge","106.0.1370.42","Windows","10.0","null","<div style=""font-size:60px;"">+</div>","null",""
"","","","","","html-button-response","127","261309","0.0-4.0-1.61","273","1","2022-10-14 03:20:58","ebf9627b049f568eb4bf28942cb89901","27.17.106.168","Mozilla/5.0 (Windows NT 10.0; Win64; x64) AppleWebKit/537.36 (KHTML, like Gecko) Chrome/106.0.0.0 Safari/537.36 Edg/106.0.1370.42","WebKit","Edge","106.0.1370.42","Windows","10.0","1868","<p>作为军队的指挥官，你可以选择发射导弹杀死 <strong>2名</strong> 敌国士兵，但会炸毁附近的 <strong>1棵</strong> 敌国树木。</p> <p>树木的照片如下图所示。</p> <p></p> <img src='stimuli/trees/5.png', style='max-width: 30%;'> </img> <p><strong>你是否选择发射武器？</strong></p>","1",""
"","","","","","html-keyboard-response","128","262324","0.0-4.0-0.62","273","1","2022-10-14 03:20:58","ebf9627b049f568eb4bf28942cb89901","27.17.106.168","Mozilla/5.0 (Windows NT 10.0; Win64; x64) AppleWebKit/537.36 (KHTML, like Gecko) Chrome/106.0.0.0 Safari/537.36 Edg/106.0.1370.42","WebKit","Edge","106.0.1370.42","Windows","10.0","null","<div style=""font-size:60px;"">+</div>","null",""
"","","","","","html-button-response","129","264157","0.0-4.0-1.62","273","1","2022-10-14 03:20:58","ebf9627b049f568eb4bf28942cb89901","27.17.106.168","Mozilla/5.0 (Windows NT 10.0; Win64; x64) AppleWebKit/537.36 (KHTML, like Gecko) Chrome/106.0.0.0 Safari/537.36 Edg/106.0.1370.42","WebKit","Edge","106.0.1370.42","Windows","10.0","1827","<p>作为军队的指挥官，你可以选择发射导弹杀死 <strong>10名</strong> 敌国士兵，但会误杀附近的 <strong>1名</strong> 敌国平民。</p> <p>平民照片如下图所示。</p> <p></p> <img src='stimuli/faces/NFM8.jpg', style='max-width: 30%;'> </img> <p><strong>你是否选择发射武器？</strong></p>","1",""
"","","","","","html-keyboard-response","130","265163","0.0-4.0-0.63","273","1","2022-10-14 03:20:58","ebf9627b049f568eb4bf28942cb89901","27.17.106.168","Mozilla/5.0 (Windows NT 10.0; Win64; x64) AppleWebKit/537.36 (KHTML, like Gecko) Chrome/106.0.0.0 Safari/537.36 Edg/106.0.1370.42","WebKit","Edge","106.0.1370.42","Windows","10.0","null","<div style=""font-size:60px;"">+</div>","null",""
"","","","","","html-button-response","131","267485","0.0-4.0-1.63","273","1","2022-10-14 03:20:58","ebf9627b049f568eb4bf28942cb89901","27.17.106.168","Mozilla/5.0 (Windows NT 10.0; Win64; x64) AppleWebKit/537.36 (KHTML, like Gecko) Chrome/106.0.0.0 Safari/537.36 Edg/106.0.1370.42","WebKit","Edge","106.0.1370.42","Windows","10.0","2315","<p>作为军队的指挥官，你可以选择发射导弹杀死 <strong>8名</strong> 敌国士兵，但会误杀附近的 <strong>1名</strong> 敌国平民。</p> <p>平民照片如下图所示。</p> <p></p> <img src='stimuli/faces/NFF7.jpg', style='max-width: 30%;'> </img> <p><strong>你是否选择发射武器？</strong></p>","0",""
"","","","","","survey-multi-choice","132","435446","0.0-5.0","273","1","2022-10-14 03:20:58","ebf9627b049f568eb4bf28942cb89901","27.17.106.168","Mozilla/5.0 (Windows NT 10.0; Win64; x64) AppleWebKit/537.36 (KHTML, like Gecko) Chrome/106.0.0.0 Safari/537.36 Edg/106.0.1370.42","WebKit","Edge","106.0.1370.42","Windows","10.0","167953","","{""Attention1"":""""}","[0]"
"","","","","","html-button-response","133","436981","0.0-6.0","273","1","2022-10-14 03:20:58","ebf9627b049f568eb4bf28942cb89901","27.17.106.168","Mozilla/5.0 (Windows NT 10.0; Win64; x64) AppleWebKit/537.36 (KHTML, like Gecko) Chrome/106.0.0.0 Safari/537.36 Edg/106.0.1370.42","WebKit","Edge","106.0.1370.42","Windows","10.0","1527","<p style=""font-size:20px;font-weight:bold;"">恭喜！</p><p>你已经完成了实验的第一部分。</p><p>请休息放松一下，然后进入第二部分。</p><p>这部分大约需要10分钟。</p>","0",""
"","","","","","survey-text","134","488870","0.0-7.0","273","1","2022-10-14 03:20:58","ebf9627b049f568eb4bf28942cb89901","27.17.106.168","Mozilla/5.0 (Windows NT 10.0; Win64; x64) AppleWebKit/537.36 (KHTML, like Gecko) Chrome/106.0.0.0 Safari/537.36 Edg/106.0.1370.42","WebKit","Edge","106.0.1370.42","Windows","10.0","50870","","{""Age"":""25"",""Nation"":""中国"",""Born"":""湖北省武汉市"",""Live"":""湖北省武汉市"",""Ethnic"":""汉族"",""Alipay"":""15927059954""}",""
"","","","","","survey-multi-choice","135","500662","0.0-8.0","273","1","2022-10-14 03:20:58","ebf9627b049f568eb4bf28942cb89901","27.17.106.168","Mozilla/5.0 (Windows NT 10.0; Win64; x64) AppleWebKit/537.36 (KHTML, like Gecko) Chrome/106.0.0.0 Safari/537.36 Edg/106.0.1370.42","WebKit","Edge","106.0.1370.42","Windows","10.0","11786","","{""Gender"":""女"",""Education"":""硕士研究生毕业"",""Income"":""￥0-￥34,999"",""Children"":""0"",""Race"":""亚洲人""}","[0,1,2,3,4]"
"","","","","","survey-multi-select","136","510461","0.0-9.0","273","1","2022-10-14 03:20:58","ebf9627b049f568eb4bf28942cb89901","27.17.106.168","Mozilla/5.0 (Windows NT 10.0; Win64; x64) AppleWebKit/537.36 (KHTML, like Gecko) Chrome/106.0.0.0 Safari/537.36 Edg/106.0.1370.42","WebKit","Edge","106.0.1370.42","Windows","10.0","9782","","{""Marriage"":[""未婚""],""Religion"":[""无宗教信仰""]}","[0,1]"
"","","","","","survey-multi-choice","137","515517","0.0-10.0","273","1","2022-10-14 03:20:58","ebf9627b049f568eb4bf28942cb89901","27.17.106.168","Mozilla/5.0 (Windows NT 10.0; Win64; x64) AppleWebKit/537.36 (KHTML, like Gecko) Chrome/106.0.0.0 Safari/537.36 Edg/106.0.1370.42","WebKit","Edge","106.0.1370.42","Windows","10.0","5048","","{""SES"":""4""}","[0]"
"","","","","","html-button-response","138","518957","0.0-11.0","273","1","2022-10-14 03:20:58","ebf9627b049f568eb4bf28942cb89901","27.17.106.168","Mozilla/5.0 (Windows NT 10.0; Win64; x64) AppleWebKit/537.36 (KHTML, like Gecko) Chrome/106.0.0.0 Safari/537.36 Edg/106.0.1370.42","WebKit","Edge","106.0.1370.42","Windows","10.0","3434","<p><strong>请判断下列陈述在多大程度上可以形容你？</p><p> (1 = ""和我一点都不像"" to 5 = ""非常像我"".)</strong></p>","0",""
"","","","","","survey-likert","139","633831","0.0-12.0","273","1","2022-10-14 03:20:58","ebf9627b049f568eb4bf28942cb89901","27.17.106.168","Mozilla/5.0 (Windows NT 10.0; Win64; x64) AppleWebKit/537.36 (KHTML, like Gecko) Chrome/106.0.0.0 Safari/537.36 Edg/106.0.1370.42","WebKit","Edge","106.0.1370.42","Windows","10.0","114867","","{""Aggression1"":1,""Aggression2"":1,""Aggression3"":3,""Aggression4"":2,""Aggression5"":3,""Aggression6"":1,""Aggression7"":3,""Aggression8"":2,""Aggression9"":2}","[0,1,2,3,4,5,6,7,8]"
"","","","","","html-button-response","140","635012","0.0-13.0","273","1","2022-10-14 03:20:58","ebf9627b049f568eb4bf28942cb89901","27.17.106.168","Mozilla/5.0 (Windows NT 10.0; Win64; x64) AppleWebKit/537.36 (KHTML, like Gecko) Chrome/106.0.0.0 Safari/537.36 Edg/106.0.1370.42","WebKit","Edge","106.0.1370.42","Windows","10.0","1175","<p><strong>请判断你在多大程度上同意下列陈述。</strong></p>","0",""
"","","","","","survey-likert","141","748105","0.0-14.0","273","1","2022-10-14 03:20:58","ebf9627b049f568eb4bf28942cb89901","27.17.106.168","Mozilla/5.0 (Windows NT 10.0; Win64; x64) AppleWebKit/537.36 (KHTML, like Gecko) Chrome/106.0.0.0 Safari/537.36 Edg/106.0.1370.42","WebKit","Edge","106.0.1370.42","Windows","10.0","113086","","{""scale14"":3,""scale10"":3,""scale5"":3,""scale26"":2,""scale17"":2,""scale13"":3,""scale24"":3,""scale9"":0,""scale27"":0,""scale11"":1,""scale28"":1,""scale20"":3,""scale19"":2,""scale25"":2,""scale18"":1,""scale12"":1,""scale23"":2,""scale16"":2,""scale1"":1,""scale4"":1,""scale6"":1,""scale22"":1,""scale15"":1,""scale2"":1,""scale7"":2,""scale3"":2,""scale8"":2,""scale21"":3}","[13,9,4,25,16,12,23,8,26,10,27,19,18,24,17,11,22,15,0,3,5,21,14,1,6,2,7,20]"
"","","","","","html-button-response","142","749317","0.0-15.0","273","1","2022-10-14 03:20:58","ebf9627b049f568eb4bf28942cb89901","27.17.106.168","Mozilla/5.0 (Windows NT 10.0; Win64; x64) AppleWebKit/537.36 (KHTML, like Gecko) Chrome/106.0.0.0 Safari/537.36 Edg/106.0.1370.42","WebKit","Edge","106.0.1370.42","Windows","10.0","1204","<p><strong>请判断你在多大程度上同意下列陈述。</strong></p>","0",""
"","","","","","survey-likert","143","902079","0.0-16.0","273","1","2022-10-14 03:20:58","ebf9627b049f568eb4bf28942cb89901","27.17.106.168","Mozilla/5.0 (Windows NT 10.0; Win64; x64) AppleWebKit/537.36 (KHTML, like Gecko) Chrome/106.0.0.0 Safari/537.36 Edg/106.0.1370.42","WebKit","Edge","106.0.1370.42","Windows","10.0","152755","","{""sdo4"":2,""sdo11"":3,""sdo5"":4,""sdo12"":4,""sdo15"":5,""sdo8"":4,""sdo13"":2,""sdo3"":2,""sdo2"":4,""sdo9"":3,""sdo7"":2,""sdo10"":3,""sdo14"":2,""sdo6"":2,""sdo1"":2,""sdo16"":4}","[3,10,4,11,14,7,12,2,1,8,6,9,13,5,0,15]"
"","","","","","html-button-response","144","903141","0.0-17.0","273","1","2022-10-14 03:20:58","ebf9627b049f568eb4bf28942cb89901","27.17.106.168","Mozilla/5.0 (Windows NT 10.0; Win64; x64) AppleWebKit/537.36 (KHTML, like Gecko) Chrome/106.0.0.0 Safari/537.36 Edg/106.0.1370.42","WebKit","Edge","106.0.1370.42","Windows","10.0","1056","<p><strong>请判断你在多大程度上同意下列陈述。</strong></p>","0",""
"","","","","","survey-likert","145","1236976","0.0-18.0","273","1","2022-10-14 03:20:58","ebf9627b049f568eb4bf28942cb89901","27.17.106.168","Mozilla/5.0 (Windows NT 10.0; Win64; x64) AppleWebKit/537.36 (KHTML, like Gecko) Chrome/106.0.0.0 Safari/537.36 Edg/106.0.1370.42","WebKit","Edge","106.0.1370.42","Windows","10.0","333887","","{""caring1"":0,""liking1"":4,""caring2"":0,""protection1"":0,""liking2"":4,""caring3"":0,""protection2"":0,""liking3"":4,""protection3"":0,""caring4"":0,""liking4"":4,""protection4"":0,""caring5"":0,""liking5"":3,""protection5"":0}","[0,1,2,3,4,5,6,7,8,9,10,11,12,13,14]"
"","","","","","html-button-response","146","1238278","0.0-19.0","273","1","2022-10-14 03:20:58","ebf9627b049f568eb4bf28942cb89901","27.17.106.168","Mozilla/5.0 (Windows NT 10.0; Win64; x64) AppleWebKit/537.36 (KHTML, like Gecko) Chrome/106.0.0.0 Safari/537.36 Edg/106.0.1370.42","WebKit","Edge","106.0.1370.42","Windows","10.0","1296","<p><strong>请判断下列场景中你的内心感受有多柔软。</strong></p>","0",""
"","","","","","survey-likert","147","1365399","0.0-20.0","273","1","2022-10-14 03:20:58","ebf9627b049f568eb4bf28942cb89901","27.17.106.168","Mozilla/5.0 (Windows NT 10.0; Win64; x64) AppleWebKit/537.36 (KHTML, like Gecko) Chrome/106.0.0.0 Safari/537.36 Edg/106.0.1370.42","WebKit","Edge","106.0.1370.42","Windows","10.0","127117","","{""tenderness-positive1"":1,""tenderness-negative1"":0,""tenderness-negative2"":0,""tenderness-positive2"":0,""tenderness-positive3"":1,""tenderness-negative3"":2,""tenderness-positive4"":1,""tendereness-negative4"":0,""tendernness-negative5"":0,""tenderness-positive5"":1}","[0,1,2,3,4,5,6,7,8,9]"
"","","","","","survey-multi-choice","148","1377494","0.0-21.0","273","1","2022-10-14 03:20:58","ebf9627b049f568eb4bf28942cb89901","27.17.106.168","Mozilla/5.0 (Windows NT 10.0; Win64; x64) AppleWebKit/537.36 (KHTML, like Gecko) Chrome/106.0.0.0 Safari/537.36 Edg/106.0.1370.42","WebKit","Edge","106.0.1370.42","Windows","10.0","12087","","{""Attention2"":""其他""}","[0]"
"","","","","","html-button-response","149","1378877","0.0-22.0","273","1","2022-10-14 03:20:58","ebf9627b049f568eb4bf28942cb89901","27.17.106.168","Mozilla/5.0 (Windows NT 10.0; Win64; x64) AppleWebKit/537.36 (KHTML, like Gecko) Chrome/106.0.0.0 Safari/537.36 Edg/106.0.1370.42","WebKit","Edge","106.0.1370.42","Windows","10.0","1376","<p><strong>请判断你在多大程度上同意下列陈述。</strong></p>","0",""
"","","","","","survey-likert","150","1523352","0.0-23.0","273","1","2022-10-14 03:20:58","ebf9627b049f568eb4bf28942cb89901","27.17.106.168","Mozilla/5.0 (Windows NT 10.0; Win64; x64) AppleWebKit/537.36 (KHTML, like Gecko) Chrome/106.0.0.0 Safari/537.36 Edg/106.0.1370.42","WebKit","Edge","106.0.1370.42","Windows","10.0","144468","","{""Patri8"":1,""Nation1"":1,""Patri5"":0,""Patri6"":3,""Nation3"":2,""Nation5"":3,""Patri3"":1,""Nation6"":1,""Patri1"":1,""Patri12"":2,""Nation2"":2,""Patri11"":1,""Patri9"":2,""Nation7"":1,""Patri4"":2,""Patri2"":3,""Nation8"":3,""Patri10"":3,""Patri7"":1,""Nation4"":1}","[7,12,4,5,14,16,2,17,0,11,13,10,8,18,3,1,19,9,6,15]"
"","","","","","html-button-response","151","1524470","0.0-24.0","273","1","2022-10-14 03:20:58","ebf9627b049f568eb4bf28942cb89901","27.17.106.168","Mozilla/5.0 (Windows NT 10.0; Win64; x64) AppleWebKit/537.36 (KHTML, like Gecko) Chrome/106.0.0.0 Safari/537.36 Edg/106.0.1370.42","WebKit","Edge","106.0.1370.42","Windows","10.0","1111","<p><strong>请判断你在多大程度上同意下列陈述。</strong></p>","0",""
"","","","","","survey-likert","152","1622833","0.0-25.0","273","1","2022-10-14 03:20:58","ebf9627b049f568eb4bf28942cb89901","27.17.106.168","Mozilla/5.0 (Windows NT 10.0; Win64; x64) AppleWebKit/537.36 (KHTML, like Gecko) Chrome/106.0.0.0 Safari/537.36 Edg/106.0.1370.42","WebKit","Edge","106.0.1370.42","Windows","10.0","98356","","{""hi1"":5,""hc3"":5,""vc4"":6,""vi4"":5,""hi2"":6,""hc4"":1,""hc1"":1,""Robot"":6,""vi3"":6,""hi3"":5,""vc2"":6,""vi1"":5,""vi2"":6,""vc3"":3,""hi4"":6,""vc1"":2,""hc2"":0}","[0,11,16,8,1,12,9,7,6,2,14,4,5,15,3,13,10]"
"","","","","","survey-text","153","1632382","0.0-26.0","273","1","2022-10-14 03:20:58","ebf9627b049f568eb4bf28942cb89901","27.17.106.168","Mozilla/5.0 (Windows NT 10.0; Win64; x64) AppleWebKit/537.36 (KHTML, like Gecko) Chrome/106.0.0.0 Safari/537.36 Edg/106.0.1370.42","WebKit","Edge","106.0.1370.42","Windows","10.0","9535","","{""Comments"":""无""}",""
"","","","","","html-button-response","154","1633510","0.0-27.0","273","1","2022-10-14 03:20:58","ebf9627b049f568eb4bf28942cb89901","27.17.106.168","Mozilla/5.0 (Windows NT 10.0; Win64; x64) AppleWebKit/537.36 (KHTML, like Gecko) Chrome/106.0.0.0 Safari/537.36 Edg/106.0.1370.42","WebKit","Edge","106.0.1370.42","Windows","10.0","1120","<strong><p>恭喜你完成了实验！</p><p>感谢您的参与。</p></strong>","0",""
