"success","timeout","failed_images","failed_audio","failed_video","trial_type","trial_index","time_elapsed","internal_node_id","run_id","condition","recorded_at","source_code_version","ip","user_agent","device","browser","browser_version","platform","platform_version","rt","stimulus","response","question_order"
"true","false","[]","[]","[]","preload","0","155","0.0-0.0","275","1","2022-10-14 03:55:42","ebf9627b049f568eb4bf28942cb89901","111.16.90.59","Mozilla/5.0 (Windows NT 10.0; Win64; x64; rv:105.0) Gecko/20100101 Firefox/105.0","","Firefox","105.0","Windows","10.0","","","",""
"true","","","","","fullscreen","1","2595","0.0-1.0","275","1","2022-10-14 03:55:42","ebf9627b049f568eb4bf28942cb89901","111.16.90.59","Mozilla/5.0 (Windows NT 10.0; Win64; x64; rv:105.0) Gecko/20100101 Firefox/105.0","","Firefox","105.0","Windows","10.0","","","",""
"","","","","","html-button-response","2","9681","0.0-2.0","275","1","2022-10-14 03:55:42","ebf9627b049f568eb4bf28942cb89901","111.16.90.59","Mozilla/5.0 (Windows NT 10.0; Win64; x64; rv:105.0) Gecko/20100101 Firefox/105.0","","Firefox","105.0","Windows","10.0","7085","<p style=""font-size:20px;font-weight:bold;"">实验知情同意书</p><p style=""text-align:left;""><strong>实验名称：</strong>社会冲突研究</p><p style=""text-align:left;""><strong>主要研究者：</strong>韩晓春副教授（北京师范大学心理学部）</p><p style=""text-align:left;""><strong>联系方式：</strong>发送邮件至xiaochun.han@bnu.edu.cn</p><p style=""text-align:left;""><strong>研究目的：</strong>研究旨在了解人类面对群体冲突时的决策方式，以及相关的心理学特质。实验调查大约需要20分钟。</p><p style=""text-align:left;""><strong>实验流程：</strong>实验包含两部分。第一部分呈现一系列群体冲突场景，请你决定如何对这些冲突进行反应，大约需要10分钟完成。第二部分包含一系列人口统计学信息收集和心理学问卷，大约需要10分钟完成。</p><p style=""text-align:left;""><strong>参加及退出规则：</strong>参加本实验完全取决于您的个人意愿。在参与过程中，您可以随时退出，并且不用承担任何后果。</p><p style=""text-align:left;""><strong>隐私：</strong>本实验完全匿名进行，不会收集您的姓名或其他能够识别您身份的信息。实验中收集的作答仅用作科学研究使用，可能会在学术期刊/书籍上发表，或者用于教学，您的数据未来可能会和其他研究者或实验室分享，但您的个人身份不会被识别。</p><p style=""text-align:left;""><strong>实验报酬：</strong>实验完成后，您将获得15元人民币报酬，以感谢您的时间和努力。调查问卷中包含几道题目用以测验您作答时的认真度。只有完成全部实验，并且正确回答认真度测验的被试才能获得实验报酬。实验报酬将通过支付宝转账发放。</p><p style=""text-align:left;font-size:20px;""><strong>如果您同意以上实验知情同意书的内容，请点击'同意并且开始实验'按钮；否则请关闭浏览器界面，退出实验。</strong></p>","0",""
"","","","","","html-button-response","3","48604","0.0-3.0","275","1","2022-10-14 03:55:42","ebf9627b049f568eb4bf28942cb89901","111.16.90.59","Mozilla/5.0 (Windows NT 10.0; Win64; x64; rv:105.0) Gecko/20100101 Firefox/105.0","","Firefox","105.0","Windows","10.0","38920","<p ><strong>实验任务一：</strong></p><p>请想象你的国家与另一个国家发生了军事冲突。</p><p>你是国家军队的指挥官，你将如何在冲突中进行决策。</p><p>具体来说，作为军队指挥官，请你决定是否发射导弹进行打击。</p><p>接下来，你会面对一系列场景，请仔细阅读每个场景，然后进行决策。</p><p>这部分实验任务大约需要10分钟。</p><p><strong>实验过程中，请集中注意力。</strong></p>","0",""
"","","","","","html-keyboard-response","4","49615","0.0-4.0-0.0","275","1","2022-10-14 03:55:42","ebf9627b049f568eb4bf28942cb89901","111.16.90.59","Mozilla/5.0 (Windows NT 10.0; Win64; x64; rv:105.0) Gecko/20100101 Firefox/105.0","","Firefox","105.0","Windows","10.0","null","<div style=""font-size:60px;"">+</div>","null",""
"","","","","","html-button-response","5","59844","0.0-4.0-1.0","275","1","2022-10-14 03:55:42","ebf9627b049f568eb4bf28942cb89901","111.16.90.59","Mozilla/5.0 (Windows NT 10.0; Win64; x64; rv:105.0) Gecko/20100101 Firefox/105.0","","Firefox","105.0","Windows","10.0","10228","<p>作为军队的指挥官，你可以选择发射导弹杀死 <strong>6名</strong> 敌国士兵，但会炸毁附近的 <strong>1棵</strong> 敌国树木。</p> <p>树木的照片如下图所示。</p> <p></p> <img src='stimuli/trees/14.png', style='max-width: 30%;'> </img> <p><strong>你是否选择发射武器？</strong></p>","0",""
"","","","","","html-keyboard-response","6","60857","0.0-4.0-0.1","275","1","2022-10-14 03:55:42","ebf9627b049f568eb4bf28942cb89901","111.16.90.59","Mozilla/5.0 (Windows NT 10.0; Win64; x64; rv:105.0) Gecko/20100101 Firefox/105.0","","Firefox","105.0","Windows","10.0","null","<div style=""font-size:60px;"">+</div>","null",""
"","","","","","html-button-response","7","64350","0.0-4.0-1.1","275","1","2022-10-14 03:55:42","ebf9627b049f568eb4bf28942cb89901","111.16.90.59","Mozilla/5.0 (Windows NT 10.0; Win64; x64; rv:105.0) Gecko/20100101 Firefox/105.0","","Firefox","105.0","Windows","10.0","3491","<p>作为军队的指挥官，你可以选择发射导弹杀死 <strong>5名</strong> 敌国士兵，但会炸毁附近的 <strong>1棵</strong> 敌国树木。</p> <p>树木的照片如下图所示。</p> <p></p> <img src='stimuli/trees/16.png', style='max-width: 30%;'> </img> <p><strong>你是否选择发射武器？</strong></p>","0",""
"","","","","","html-keyboard-response","8","65363","0.0-4.0-0.2","275","1","2022-10-14 03:55:42","ebf9627b049f568eb4bf28942cb89901","111.16.90.59","Mozilla/5.0 (Windows NT 10.0; Win64; x64; rv:105.0) Gecko/20100101 Firefox/105.0","","Firefox","105.0","Windows","10.0","null","<div style=""font-size:60px;"">+</div>","null",""
"","","","","","html-button-response","9","71277","0.0-4.0-1.2","275","1","2022-10-14 03:55:42","ebf9627b049f568eb4bf28942cb89901","111.16.90.59","Mozilla/5.0 (Windows NT 10.0; Win64; x64; rv:105.0) Gecko/20100101 Firefox/105.0","","Firefox","105.0","Windows","10.0","5912","<p>作为军队的指挥官，你可以选择发射导弹杀死 <strong>6名</strong> 敌国士兵，但会误杀附近的 <strong>1名</strong> 敌国平民。</p> <p>平民照片如下图所示。</p> <p></p> <img src='stimuli/faces/NFF4.jpg', style='max-width: 30%;'> </img> <p><strong>你是否选择发射武器？</strong></p>","0",""
"","","","","","html-keyboard-response","10","72290","0.0-4.0-0.3","275","1","2022-10-14 03:55:42","ebf9627b049f568eb4bf28942cb89901","111.16.90.59","Mozilla/5.0 (Windows NT 10.0; Win64; x64; rv:105.0) Gecko/20100101 Firefox/105.0","","Firefox","105.0","Windows","10.0","null","<div style=""font-size:60px;"">+</div>","null",""
"","","","","","html-button-response","11","76485","0.0-4.0-1.3","275","1","2022-10-14 03:55:42","ebf9627b049f568eb4bf28942cb89901","111.16.90.59","Mozilla/5.0 (Windows NT 10.0; Win64; x64; rv:105.0) Gecko/20100101 Firefox/105.0","","Firefox","105.0","Windows","10.0","4195","<p>作为军队的指挥官，你可以选择发射导弹杀死 <strong>2名</strong> 敌国士兵，但会炸毁附近的 <strong>1棵</strong> 敌国树木。</p> <p>树木的照片如下图所示。</p> <p></p> <img src='stimuli/trees/12.png', style='max-width: 30%;'> </img> <p><strong>你是否选择发射武器？</strong></p>","0",""
"","","","","","html-keyboard-response","12","77492","0.0-4.0-0.4","275","1","2022-10-14 03:55:42","ebf9627b049f568eb4bf28942cb89901","111.16.90.59","Mozilla/5.0 (Windows NT 10.0; Win64; x64; rv:105.0) Gecko/20100101 Firefox/105.0","","Firefox","105.0","Windows","10.0","null","<div style=""font-size:60px;"">+</div>","null",""
"","","","","","html-button-response","13","79910","0.0-4.0-1.4","275","1","2022-10-14 03:55:42","ebf9627b049f568eb4bf28942cb89901","111.16.90.59","Mozilla/5.0 (Windows NT 10.0; Win64; x64; rv:105.0) Gecko/20100101 Firefox/105.0","","Firefox","105.0","Windows","10.0","2418","<p>作为军队的指挥官，你可以选择发射导弹杀死 <strong>9名</strong> 敌国士兵，但会炸毁附近的 <strong>1棵</strong> 敌国树木。</p> <p>树木的照片如下图所示。</p> <p></p> <img src='stimuli/trees/8.png', style='max-width: 30%;'> </img> <p><strong>你是否选择发射武器？</strong></p>","0",""
"","","","","","html-keyboard-response","14","80925","0.0-4.0-0.5","275","1","2022-10-14 03:55:42","ebf9627b049f568eb4bf28942cb89901","111.16.90.59","Mozilla/5.0 (Windows NT 10.0; Win64; x64; rv:105.0) Gecko/20100101 Firefox/105.0","","Firefox","105.0","Windows","10.0","null","<div style=""font-size:60px;"">+</div>","null",""
"","","","","","html-button-response","15","85295","0.0-4.0-1.5","275","1","2022-10-14 03:55:42","ebf9627b049f568eb4bf28942cb89901","111.16.90.59","Mozilla/5.0 (Windows NT 10.0; Win64; x64; rv:105.0) Gecko/20100101 Firefox/105.0","","Firefox","105.0","Windows","10.0","4367","<p>作为军队的指挥官，你可以选择发射导弹杀死 <strong>1名</strong> 敌国士兵，但会误杀附近的 <strong>1名</strong> 敌国平民。</p> <p>平民照片如下图所示。</p> <p></p> <img src='stimuli/faces/NFF1.jpg', style='max-width: 30%;'> </img> <p><strong>你是否选择发射武器？</strong></p>","1",""
"","","","","","html-keyboard-response","16","86304","0.0-4.0-0.6","275","1","2022-10-14 03:55:42","ebf9627b049f568eb4bf28942cb89901","111.16.90.59","Mozilla/5.0 (Windows NT 10.0; Win64; x64; rv:105.0) Gecko/20100101 Firefox/105.0","","Firefox","105.0","Windows","10.0","null","<div style=""font-size:60px;"">+</div>","null",""
"","","","","","html-button-response","17","88086","0.0-4.0-1.6","275","1","2022-10-14 03:55:42","ebf9627b049f568eb4bf28942cb89901","111.16.90.59","Mozilla/5.0 (Windows NT 10.0; Win64; x64; rv:105.0) Gecko/20100101 Firefox/105.0","","Firefox","105.0","Windows","10.0","1781","<p>作为军队的指挥官，你可以选择发射导弹杀死 <strong>5名</strong> 敌国士兵，但会误杀附近的 <strong>1名</strong> 敌国平民。</p> <p>平民照片如下图所示。</p> <p></p> <img src='stimuli/faces/NFM3.jpg', style='max-width: 30%;'> </img> <p><strong>你是否选择发射武器？</strong></p>","0",""
"","","","","","html-keyboard-response","18","89094","0.0-4.0-0.7","275","1","2022-10-14 03:55:42","ebf9627b049f568eb4bf28942cb89901","111.16.90.59","Mozilla/5.0 (Windows NT 10.0; Win64; x64; rv:105.0) Gecko/20100101 Firefox/105.0","","Firefox","105.0","Windows","10.0","null","<div style=""font-size:60px;"">+</div>","null",""
"","","","","","html-button-response","19","93055","0.0-4.0-1.7","275","1","2022-10-14 03:55:42","ebf9627b049f568eb4bf28942cb89901","111.16.90.59","Mozilla/5.0 (Windows NT 10.0; Win64; x64; rv:105.0) Gecko/20100101 Firefox/105.0","","Firefox","105.0","Windows","10.0","3959","<p>作为军队的指挥官，你可以选择发射导弹杀死 <strong>7名</strong> 敌国士兵，但会误杀附近的 <strong>1名</strong> 敌国平民。</p> <p>平民照片如下图所示。</p> <p></p> <img src='stimuli/faces/NFF1.jpg', style='max-width: 30%;'> </img> <p><strong>你是否选择发射武器？</strong></p>","0",""
"","","","","","html-keyboard-response","20","94060","0.0-4.0-0.8","275","1","2022-10-14 03:55:42","ebf9627b049f568eb4bf28942cb89901","111.16.90.59","Mozilla/5.0 (Windows NT 10.0; Win64; x64; rv:105.0) Gecko/20100101 Firefox/105.0","","Firefox","105.0","Windows","10.0","null","<div style=""font-size:60px;"">+</div>","null",""
"","","","","","html-button-response","21","96511","0.0-4.0-1.8","275","1","2022-10-14 03:55:42","ebf9627b049f568eb4bf28942cb89901","111.16.90.59","Mozilla/5.0 (Windows NT 10.0; Win64; x64; rv:105.0) Gecko/20100101 Firefox/105.0","","Firefox","105.0","Windows","10.0","2449","<p>作为军队的指挥官，你可以选择发射导弹杀死 <strong>5名</strong> 敌国士兵，但会误杀附近的 <strong>1名</strong> 敌国平民。</p> <p>平民照片如下图所示。</p> <p></p> <img src='stimuli/faces/NFM8.jpg', style='max-width: 30%;'> </img> <p><strong>你是否选择发射武器？</strong></p>","0",""
"","","","","","html-keyboard-response","22","97519","0.0-4.0-0.9","275","1","2022-10-14 03:55:42","ebf9627b049f568eb4bf28942cb89901","111.16.90.59","Mozilla/5.0 (Windows NT 10.0; Win64; x64; rv:105.0) Gecko/20100101 Firefox/105.0","","Firefox","105.0","Windows","10.0","null","<div style=""font-size:60px;"">+</div>","null",""
"","","","","","html-button-response","23","99391","0.0-4.0-1.9","275","1","2022-10-14 03:55:42","ebf9627b049f568eb4bf28942cb89901","111.16.90.59","Mozilla/5.0 (Windows NT 10.0; Win64; x64; rv:105.0) Gecko/20100101 Firefox/105.0","","Firefox","105.0","Windows","10.0","1871","<p>作为军队的指挥官，你可以选择发射导弹杀死 <strong>8名</strong> 敌国士兵，但会误杀附近的 <strong>1名</strong> 敌国平民。</p> <p>平民照片如下图所示。</p> <p></p> <img src='stimuli/faces/NFF2.jpg', style='max-width: 30%;'> </img> <p><strong>你是否选择发射武器？</strong></p>","0",""
"","","","","","html-keyboard-response","24","100393","0.0-4.0-0.10","275","1","2022-10-14 03:55:42","ebf9627b049f568eb4bf28942cb89901","111.16.90.59","Mozilla/5.0 (Windows NT 10.0; Win64; x64; rv:105.0) Gecko/20100101 Firefox/105.0","","Firefox","105.0","Windows","10.0","null","<div style=""font-size:60px;"">+</div>","null",""
"","","","","","html-button-response","25","102280","0.0-4.0-1.10","275","1","2022-10-14 03:55:42","ebf9627b049f568eb4bf28942cb89901","111.16.90.59","Mozilla/5.0 (Windows NT 10.0; Win64; x64; rv:105.0) Gecko/20100101 Firefox/105.0","","Firefox","105.0","Windows","10.0","1886","<p>作为军队的指挥官，你可以选择发射导弹杀死 <strong>4名</strong> 敌国士兵，但会炸毁附近的 <strong>1棵</strong> 敌国树木。</p> <p>树木的照片如下图所示。</p> <p></p> <img src='stimuli/trees/13.png', style='max-width: 30%;'> </img> <p><strong>你是否选择发射武器？</strong></p>","0",""
"","","","","","html-keyboard-response","26","103296","0.0-4.0-0.11","275","1","2022-10-14 03:55:42","ebf9627b049f568eb4bf28942cb89901","111.16.90.59","Mozilla/5.0 (Windows NT 10.0; Win64; x64; rv:105.0) Gecko/20100101 Firefox/105.0","","Firefox","105.0","Windows","10.0","null","<div style=""font-size:60px;"">+</div>","null",""
"","","","","","html-button-response","27","105528","0.0-4.0-1.11","275","1","2022-10-14 03:55:42","ebf9627b049f568eb4bf28942cb89901","111.16.90.59","Mozilla/5.0 (Windows NT 10.0; Win64; x64; rv:105.0) Gecko/20100101 Firefox/105.0","","Firefox","105.0","Windows","10.0","2232","<p>作为军队的指挥官，你可以选择发射导弹杀死 <strong>1名</strong> 敌国士兵，但会误杀附近的 <strong>1名</strong> 敌国平民。</p> <p>平民照片如下图所示。</p> <p></p> <img src='stimuli/faces/NFM5.jpg', style='max-width: 30%;'> </img> <p><strong>你是否选择发射武器？</strong></p>","1",""
"","","","","","html-keyboard-response","28","106532","0.0-4.0-0.12","275","1","2022-10-14 03:55:42","ebf9627b049f568eb4bf28942cb89901","111.16.90.59","Mozilla/5.0 (Windows NT 10.0; Win64; x64; rv:105.0) Gecko/20100101 Firefox/105.0","","Firefox","105.0","Windows","10.0","null","<div style=""font-size:60px;"">+</div>","null",""
"","","","","","html-button-response","29","108775","0.0-4.0-1.12","275","1","2022-10-14 03:55:42","ebf9627b049f568eb4bf28942cb89901","111.16.90.59","Mozilla/5.0 (Windows NT 10.0; Win64; x64; rv:105.0) Gecko/20100101 Firefox/105.0","","Firefox","105.0","Windows","10.0","2243","<p>作为军队的指挥官，你可以选择发射导弹杀死 <strong>8名</strong> 敌国士兵，但会误杀附近的 <strong>1名</strong> 敌国平民。</p> <p>平民照片如下图所示。</p> <p></p> <img src='stimuli/faces/NFM7.jpg', style='max-width: 30%;'> </img> <p><strong>你是否选择发射武器？</strong></p>","0",""
"","","","","","html-keyboard-response","30","109781","0.0-4.0-0.13","275","1","2022-10-14 03:55:42","ebf9627b049f568eb4bf28942cb89901","111.16.90.59","Mozilla/5.0 (Windows NT 10.0; Win64; x64; rv:105.0) Gecko/20100101 Firefox/105.0","","Firefox","105.0","Windows","10.0","null","<div style=""font-size:60px;"">+</div>","null",""
"","","","","","html-button-response","31","111745","0.0-4.0-1.13","275","1","2022-10-14 03:55:42","ebf9627b049f568eb4bf28942cb89901","111.16.90.59","Mozilla/5.0 (Windows NT 10.0; Win64; x64; rv:105.0) Gecko/20100101 Firefox/105.0","","Firefox","105.0","Windows","10.0","1958","<p>作为军队的指挥官，你可以选择发射导弹杀死 <strong>4名</strong> 敌国士兵，但会误杀附近的 <strong>1名</strong> 敌国平民。</p> <p>平民照片如下图所示。</p> <p></p> <img src='stimuli/faces/NFF2.jpg', style='max-width: 30%;'> </img> <p><strong>你是否选择发射武器？</strong></p>","0",""
"","","","","","html-keyboard-response","32","112758","0.0-4.0-0.14","275","1","2022-10-14 03:55:42","ebf9627b049f568eb4bf28942cb89901","111.16.90.59","Mozilla/5.0 (Windows NT 10.0; Win64; x64; rv:105.0) Gecko/20100101 Firefox/105.0","","Firefox","105.0","Windows","10.0","null","<div style=""font-size:60px;"">+</div>","null",""
"","","","","","html-button-response","33","119658","0.0-4.0-1.14","275","1","2022-10-14 03:55:42","ebf9627b049f568eb4bf28942cb89901","111.16.90.59","Mozilla/5.0 (Windows NT 10.0; Win64; x64; rv:105.0) Gecko/20100101 Firefox/105.0","","Firefox","105.0","Windows","10.0","6896","<p>作为军队的指挥官，你可以选择发射导弹杀死 <strong>2名</strong> 敌国士兵，但会误杀附近的 <strong>1名</strong> 敌国平民。</p> <p>平民照片如下图所示。</p> <p></p> <img src='stimuli/faces/NFF4.jpg', style='max-width: 30%;'> </img> <p><strong>你是否选择发射武器？</strong></p>","1",""
"","","","","","html-keyboard-response","34","120669","0.0-4.0-0.15","275","1","2022-10-14 03:55:42","ebf9627b049f568eb4bf28942cb89901","111.16.90.59","Mozilla/5.0 (Windows NT 10.0; Win64; x64; rv:105.0) Gecko/20100101 Firefox/105.0","","Firefox","105.0","Windows","10.0","null","<div style=""font-size:60px;"">+</div>","null",""
"","","","","","html-button-response","35","124137","0.0-4.0-1.15","275","1","2022-10-14 03:55:42","ebf9627b049f568eb4bf28942cb89901","111.16.90.59","Mozilla/5.0 (Windows NT 10.0; Win64; x64; rv:105.0) Gecko/20100101 Firefox/105.0","","Firefox","105.0","Windows","10.0","3465","<p>作为军队的指挥官，你可以选择发射导弹杀死 <strong>1名</strong> 敌国士兵，但会炸毁附近的 <strong>1棵</strong> 敌国树木。</p> <p>树木的照片如下图所示。</p> <p></p> <img src='stimuli/trees/1.png', style='max-width: 30%;'> </img> <p><strong>你是否选择发射武器？</strong></p>","1",""
"","","","","","html-keyboard-response","36","125143","0.0-4.0-0.16","275","1","2022-10-14 03:55:42","ebf9627b049f568eb4bf28942cb89901","111.16.90.59","Mozilla/5.0 (Windows NT 10.0; Win64; x64; rv:105.0) Gecko/20100101 Firefox/105.0","","Firefox","105.0","Windows","10.0","null","<div style=""font-size:60px;"">+</div>","null",""
"","","","","","html-button-response","37","126922","0.0-4.0-1.16","275","1","2022-10-14 03:55:42","ebf9627b049f568eb4bf28942cb89901","111.16.90.59","Mozilla/5.0 (Windows NT 10.0; Win64; x64; rv:105.0) Gecko/20100101 Firefox/105.0","","Firefox","105.0","Windows","10.0","1776","<p>作为军队的指挥官，你可以选择发射导弹杀死 <strong>9名</strong> 敌国士兵，但会误杀附近的 <strong>1名</strong> 敌国平民。</p> <p>平民照片如下图所示。</p> <p></p> <img src='stimuli/faces/NFF5.jpg', style='max-width: 30%;'> </img> <p><strong>你是否选择发射武器？</strong></p>","0",""
"","","","","","html-keyboard-response","38","127926","0.0-4.0-0.17","275","1","2022-10-14 03:55:42","ebf9627b049f568eb4bf28942cb89901","111.16.90.59","Mozilla/5.0 (Windows NT 10.0; Win64; x64; rv:105.0) Gecko/20100101 Firefox/105.0","","Firefox","105.0","Windows","10.0","null","<div style=""font-size:60px;"">+</div>","null",""
"","","","","","html-button-response","39","129514","0.0-4.0-1.17","275","1","2022-10-14 03:55:42","ebf9627b049f568eb4bf28942cb89901","111.16.90.59","Mozilla/5.0 (Windows NT 10.0; Win64; x64; rv:105.0) Gecko/20100101 Firefox/105.0","","Firefox","105.0","Windows","10.0","1585","<p>作为军队的指挥官，你可以选择发射导弹杀死 <strong>6名</strong> 敌国士兵，但会误杀附近的 <strong>1名</strong> 敌国平民。</p> <p>平民照片如下图所示。</p> <p></p> <img src='stimuli/faces/NFF8.jpg', style='max-width: 30%;'> </img> <p><strong>你是否选择发射武器？</strong></p>","0",""
"","","","","","html-keyboard-response","40","130518","0.0-4.0-0.18","275","1","2022-10-14 03:55:42","ebf9627b049f568eb4bf28942cb89901","111.16.90.59","Mozilla/5.0 (Windows NT 10.0; Win64; x64; rv:105.0) Gecko/20100101 Firefox/105.0","","Firefox","105.0","Windows","10.0","null","<div style=""font-size:60px;"">+</div>","null",""
"","","","","","html-button-response","41","132810","0.0-4.0-1.18","275","1","2022-10-14 03:55:42","ebf9627b049f568eb4bf28942cb89901","111.16.90.59","Mozilla/5.0 (Windows NT 10.0; Win64; x64; rv:105.0) Gecko/20100101 Firefox/105.0","","Firefox","105.0","Windows","10.0","2291","<p>作为军队的指挥官，你可以选择发射导弹杀死 <strong>8名</strong> 敌国士兵，但会炸毁附近的 <strong>1棵</strong> 敌国树木。</p> <p>树木的照片如下图所示。</p> <p></p> <img src='stimuli/trees/12.png', style='max-width: 30%;'> </img> <p><strong>你是否选择发射武器？</strong></p>","0",""
"","","","","","html-keyboard-response","42","133824","0.0-4.0-0.19","275","1","2022-10-14 03:55:42","ebf9627b049f568eb4bf28942cb89901","111.16.90.59","Mozilla/5.0 (Windows NT 10.0; Win64; x64; rv:105.0) Gecko/20100101 Firefox/105.0","","Firefox","105.0","Windows","10.0","null","<div style=""font-size:60px;"">+</div>","null",""
"","","","","","html-button-response","43","143315","0.0-4.0-1.19","275","1","2022-10-14 03:55:42","ebf9627b049f568eb4bf28942cb89901","111.16.90.59","Mozilla/5.0 (Windows NT 10.0; Win64; x64; rv:105.0) Gecko/20100101 Firefox/105.0","","Firefox","105.0","Windows","10.0","9488","<p>作为军队的指挥官，你可以选择发射导弹杀死 <strong>2名</strong> 敌国士兵，但会误杀附近的 <strong>1名</strong> 敌国平民。</p> <p>平民照片如下图所示。</p> <p></p> <img src='stimuli/faces/NFF5.jpg', style='max-width: 30%;'> </img> <p><strong>你是否选择发射武器？</strong></p>","1",""
"","","","","","html-keyboard-response","44","144325","0.0-4.0-0.20","275","1","2022-10-14 03:55:42","ebf9627b049f568eb4bf28942cb89901","111.16.90.59","Mozilla/5.0 (Windows NT 10.0; Win64; x64; rv:105.0) Gecko/20100101 Firefox/105.0","","Firefox","105.0","Windows","10.0","null","<div style=""font-size:60px;"">+</div>","null",""
"","","","","","html-button-response","45","148083","0.0-4.0-1.20","275","1","2022-10-14 03:55:42","ebf9627b049f568eb4bf28942cb89901","111.16.90.59","Mozilla/5.0 (Windows NT 10.0; Win64; x64; rv:105.0) Gecko/20100101 Firefox/105.0","","Firefox","105.0","Windows","10.0","3756","<p>作为军队的指挥官，你可以选择发射导弹杀死 <strong>7名</strong> 敌国士兵，但会炸毁附近的 <strong>1棵</strong> 敌国树木。</p> <p>树木的照片如下图所示。</p> <p></p> <img src='stimuli/trees/9.png', style='max-width: 30%;'> </img> <p><strong>你是否选择发射武器？</strong></p>","0",""
"","","","","","html-keyboard-response","46","149092","0.0-4.0-0.21","275","1","2022-10-14 03:55:42","ebf9627b049f568eb4bf28942cb89901","111.16.90.59","Mozilla/5.0 (Windows NT 10.0; Win64; x64; rv:105.0) Gecko/20100101 Firefox/105.0","","Firefox","105.0","Windows","10.0","null","<div style=""font-size:60px;"">+</div>","null",""
"","","","","","html-button-response","47","150827","0.0-4.0-1.21","275","1","2022-10-14 03:55:42","ebf9627b049f568eb4bf28942cb89901","111.16.90.59","Mozilla/5.0 (Windows NT 10.0; Win64; x64; rv:105.0) Gecko/20100101 Firefox/105.0","","Firefox","105.0","Windows","10.0","1733","<p>作为军队的指挥官，你可以选择发射导弹杀死 <strong>6名</strong> 敌国士兵，但会炸毁附近的 <strong>1棵</strong> 敌国树木。</p> <p>树木的照片如下图所示。</p> <p></p> <img src='stimuli/trees/13.png', style='max-width: 30%;'> </img> <p><strong>你是否选择发射武器？</strong></p>","0",""
"","","","","","html-keyboard-response","48","151833","0.0-4.0-0.22","275","1","2022-10-14 03:55:42","ebf9627b049f568eb4bf28942cb89901","111.16.90.59","Mozilla/5.0 (Windows NT 10.0; Win64; x64; rv:105.0) Gecko/20100101 Firefox/105.0","","Firefox","105.0","Windows","10.0","null","<div style=""font-size:60px;"">+</div>","null",""
"","","","","","html-button-response","49","154908","0.0-4.0-1.22","275","1","2022-10-14 03:55:42","ebf9627b049f568eb4bf28942cb89901","111.16.90.59","Mozilla/5.0 (Windows NT 10.0; Win64; x64; rv:105.0) Gecko/20100101 Firefox/105.0","","Firefox","105.0","Windows","10.0","3071","<p>作为军队的指挥官，你可以选择发射导弹杀死 <strong>4名</strong> 敌国士兵，但会误杀附近的 <strong>1名</strong> 敌国平民。</p> <p>平民照片如下图所示。</p> <p></p> <img src='stimuli/faces/NFF6.jpg', style='max-width: 30%;'> </img> <p><strong>你是否选择发射武器？</strong></p>","0",""
"","","","","","html-keyboard-response","50","155921","0.0-4.0-0.23","275","1","2022-10-14 03:55:42","ebf9627b049f568eb4bf28942cb89901","111.16.90.59","Mozilla/5.0 (Windows NT 10.0; Win64; x64; rv:105.0) Gecko/20100101 Firefox/105.0","","Firefox","105.0","Windows","10.0","null","<div style=""font-size:60px;"">+</div>","null",""
"","","","","","html-button-response","51","157637","0.0-4.0-1.23","275","1","2022-10-14 03:55:42","ebf9627b049f568eb4bf28942cb89901","111.16.90.59","Mozilla/5.0 (Windows NT 10.0; Win64; x64; rv:105.0) Gecko/20100101 Firefox/105.0","","Firefox","105.0","Windows","10.0","1713","<p>作为军队的指挥官，你可以选择发射导弹杀死 <strong>10名</strong> 敌国士兵，但会误杀附近的 <strong>1名</strong> 敌国平民。</p> <p>平民照片如下图所示。</p> <p></p> <img src='stimuli/faces/NFF7.jpg', style='max-width: 30%;'> </img> <p><strong>你是否选择发射武器？</strong></p>","0",""
"","","","","","html-keyboard-response","52","158647","0.0-4.0-0.24","275","1","2022-10-14 03:55:42","ebf9627b049f568eb4bf28942cb89901","111.16.90.59","Mozilla/5.0 (Windows NT 10.0; Win64; x64; rv:105.0) Gecko/20100101 Firefox/105.0","","Firefox","105.0","Windows","10.0","null","<div style=""font-size:60px;"">+</div>","null",""
"","","","","","html-button-response","53","159892","0.0-4.0-1.24","275","1","2022-10-14 03:55:42","ebf9627b049f568eb4bf28942cb89901","111.16.90.59","Mozilla/5.0 (Windows NT 10.0; Win64; x64; rv:105.0) Gecko/20100101 Firefox/105.0","","Firefox","105.0","Windows","10.0","1244","<p>作为军队的指挥官，你可以选择发射导弹杀死 <strong>8名</strong> 敌国士兵，但会误杀附近的 <strong>1名</strong> 敌国平民。</p> <p>平民照片如下图所示。</p> <p></p> <img src='stimuli/faces/NFM1.jpg', style='max-width: 30%;'> </img> <p><strong>你是否选择发射武器？</strong></p>","0",""
"","","","","","html-keyboard-response","54","160906","0.0-4.0-0.25","275","1","2022-10-14 03:55:42","ebf9627b049f568eb4bf28942cb89901","111.16.90.59","Mozilla/5.0 (Windows NT 10.0; Win64; x64; rv:105.0) Gecko/20100101 Firefox/105.0","","Firefox","105.0","Windows","10.0","null","<div style=""font-size:60px;"">+</div>","null",""
"","","","","","html-button-response","55","162405","0.0-4.0-1.25","275","1","2022-10-14 03:55:42","ebf9627b049f568eb4bf28942cb89901","111.16.90.59","Mozilla/5.0 (Windows NT 10.0; Win64; x64; rv:105.0) Gecko/20100101 Firefox/105.0","","Firefox","105.0","Windows","10.0","1497","<p>作为军队的指挥官，你可以选择发射导弹杀死 <strong>10名</strong> 敌国士兵，但会炸毁附近的 <strong>1棵</strong> 敌国树木。</p> <p>树木的照片如下图所示。</p> <p></p> <img src='stimuli/trees/10.png', style='max-width: 30%;'> </img> <p><strong>你是否选择发射武器？</strong></p>","0",""
"","","","","","html-keyboard-response","56","163419","0.0-4.0-0.26","275","1","2022-10-14 03:55:42","ebf9627b049f568eb4bf28942cb89901","111.16.90.59","Mozilla/5.0 (Windows NT 10.0; Win64; x64; rv:105.0) Gecko/20100101 Firefox/105.0","","Firefox","105.0","Windows","10.0","null","<div style=""font-size:60px;"">+</div>","null",""
"","","","","","html-button-response","57","166557","0.0-4.0-1.26","275","1","2022-10-14 03:55:42","ebf9627b049f568eb4bf28942cb89901","111.16.90.59","Mozilla/5.0 (Windows NT 10.0; Win64; x64; rv:105.0) Gecko/20100101 Firefox/105.0","","Firefox","105.0","Windows","10.0","3136","<p>作为军队的指挥官，你可以选择发射导弹杀死 <strong>4名</strong> 敌国士兵，但会炸毁附近的 <strong>1棵</strong> 敌国树木。</p> <p>树木的照片如下图所示。</p> <p></p> <img src='stimuli/trees/8.png', style='max-width: 30%;'> </img> <p><strong>你是否选择发射武器？</strong></p>","0",""
"","","","","","html-keyboard-response","58","167566","0.0-4.0-0.27","275","1","2022-10-14 03:55:42","ebf9627b049f568eb4bf28942cb89901","111.16.90.59","Mozilla/5.0 (Windows NT 10.0; Win64; x64; rv:105.0) Gecko/20100101 Firefox/105.0","","Firefox","105.0","Windows","10.0","null","<div style=""font-size:60px;"">+</div>","null",""
"","","","","","html-button-response","59","169037","0.0-4.0-1.27","275","1","2022-10-14 03:55:42","ebf9627b049f568eb4bf28942cb89901","111.16.90.59","Mozilla/5.0 (Windows NT 10.0; Win64; x64; rv:105.0) Gecko/20100101 Firefox/105.0","","Firefox","105.0","Windows","10.0","1469","<p>作为军队的指挥官，你可以选择发射导弹杀死 <strong>8名</strong> 敌国士兵，但会炸毁附近的 <strong>1棵</strong> 敌国树木。</p> <p>树木的照片如下图所示。</p> <p></p> <img src='stimuli/trees/16.png', style='max-width: 30%;'> </img> <p><strong>你是否选择发射武器？</strong></p>","0",""
"","","","","","html-keyboard-response","60","170040","0.0-4.0-0.28","275","1","2022-10-14 03:55:42","ebf9627b049f568eb4bf28942cb89901","111.16.90.59","Mozilla/5.0 (Windows NT 10.0; Win64; x64; rv:105.0) Gecko/20100101 Firefox/105.0","","Firefox","105.0","Windows","10.0","null","<div style=""font-size:60px;"">+</div>","null",""
"","","","","","html-button-response","61","173125","0.0-4.0-1.28","275","1","2022-10-14 03:55:42","ebf9627b049f568eb4bf28942cb89901","111.16.90.59","Mozilla/5.0 (Windows NT 10.0; Win64; x64; rv:105.0) Gecko/20100101 Firefox/105.0","","Firefox","105.0","Windows","10.0","3085","<p>作为军队的指挥官，你可以选择发射导弹杀死 <strong>3名</strong> 敌国士兵，但会误杀附近的 <strong>1名</strong> 敌国平民。</p> <p>平民照片如下图所示。</p> <p></p> <img src='stimuli/faces/NFF3.jpg', style='max-width: 30%;'> </img> <p><strong>你是否选择发射武器？</strong></p>","1",""
"","","","","","html-keyboard-response","62","174129","0.0-4.0-0.29","275","1","2022-10-14 03:55:42","ebf9627b049f568eb4bf28942cb89901","111.16.90.59","Mozilla/5.0 (Windows NT 10.0; Win64; x64; rv:105.0) Gecko/20100101 Firefox/105.0","","Firefox","105.0","Windows","10.0","null","<div style=""font-size:60px;"">+</div>","null",""
"","","","","","html-button-response","63","176005","0.0-4.0-1.29","275","1","2022-10-14 03:55:42","ebf9627b049f568eb4bf28942cb89901","111.16.90.59","Mozilla/5.0 (Windows NT 10.0; Win64; x64; rv:105.0) Gecko/20100101 Firefox/105.0","","Firefox","105.0","Windows","10.0","1869","<p>作为军队的指挥官，你可以选择发射导弹杀死 <strong>1名</strong> 敌国士兵，但会炸毁附近的 <strong>1棵</strong> 敌国树木。</p> <p>树木的照片如下图所示。</p> <p></p> <img src='stimuli/trees/5.png', style='max-width: 30%;'> </img> <p><strong>你是否选择发射武器？</strong></p>","0",""
"","","","","","html-keyboard-response","64","177013","0.0-4.0-0.30","275","1","2022-10-14 03:55:42","ebf9627b049f568eb4bf28942cb89901","111.16.90.59","Mozilla/5.0 (Windows NT 10.0; Win64; x64; rv:105.0) Gecko/20100101 Firefox/105.0","","Firefox","105.0","Windows","10.0","null","<div style=""font-size:60px;"">+</div>","null",""
"","","","","","html-button-response","65","179310","0.0-4.0-1.30","275","1","2022-10-14 03:55:42","ebf9627b049f568eb4bf28942cb89901","111.16.90.59","Mozilla/5.0 (Windows NT 10.0; Win64; x64; rv:105.0) Gecko/20100101 Firefox/105.0","","Firefox","105.0","Windows","10.0","2293","<p>作为军队的指挥官，你可以选择发射导弹杀死 <strong>8名</strong> 敌国士兵，但会炸毁附近的 <strong>1棵</strong> 敌国树木。</p> <p>树木的照片如下图所示。</p> <p></p> <img src='stimuli/trees/1.png', style='max-width: 30%;'> </img> <p><strong>你是否选择发射武器？</strong></p>","0",""
"","","","","","html-keyboard-response","66","180329","0.0-4.0-0.31","275","1","2022-10-14 03:55:42","ebf9627b049f568eb4bf28942cb89901","111.16.90.59","Mozilla/5.0 (Windows NT 10.0; Win64; x64; rv:105.0) Gecko/20100101 Firefox/105.0","","Firefox","105.0","Windows","10.0","null","<div style=""font-size:60px;"">+</div>","null",""
"","","","","","html-button-response","67","182549","0.0-4.0-1.31","275","1","2022-10-14 03:55:42","ebf9627b049f568eb4bf28942cb89901","111.16.90.59","Mozilla/5.0 (Windows NT 10.0; Win64; x64; rv:105.0) Gecko/20100101 Firefox/105.0","","Firefox","105.0","Windows","10.0","2217","<p>作为军队的指挥官，你可以选择发射导弹杀死 <strong>5名</strong> 敌国士兵，但会误杀附近的 <strong>1名</strong> 敌国平民。</p> <p>平民照片如下图所示。</p> <p></p> <img src='stimuli/faces/NFF7.jpg', style='max-width: 30%;'> </img> <p><strong>你是否选择发射武器？</strong></p>","0",""
"","","","","","html-keyboard-response","68","183556","0.0-4.0-0.32","275","1","2022-10-14 03:55:42","ebf9627b049f568eb4bf28942cb89901","111.16.90.59","Mozilla/5.0 (Windows NT 10.0; Win64; x64; rv:105.0) Gecko/20100101 Firefox/105.0","","Firefox","105.0","Windows","10.0","null","<div style=""font-size:60px;"">+</div>","null",""
"","","","","","html-button-response","69","185142","0.0-4.0-1.32","275","1","2022-10-14 03:55:42","ebf9627b049f568eb4bf28942cb89901","111.16.90.59","Mozilla/5.0 (Windows NT 10.0; Win64; x64; rv:105.0) Gecko/20100101 Firefox/105.0","","Firefox","105.0","Windows","10.0","1584","<p>作为军队的指挥官，你可以选择发射导弹杀死 <strong>9名</strong> 敌国士兵，但会误杀附近的 <strong>1名</strong> 敌国平民。</p> <p>平民照片如下图所示。</p> <p></p> <img src='stimuli/faces/NFF6.jpg', style='max-width: 30%;'> </img> <p><strong>你是否选择发射武器？</strong></p>","0",""
"","","","","","html-keyboard-response","70","186153","0.0-4.0-0.33","275","1","2022-10-14 03:55:42","ebf9627b049f568eb4bf28942cb89901","111.16.90.59","Mozilla/5.0 (Windows NT 10.0; Win64; x64; rv:105.0) Gecko/20100101 Firefox/105.0","","Firefox","105.0","Windows","10.0","null","<div style=""font-size:60px;"">+</div>","null",""
"","","","","","html-button-response","71","187663","0.0-4.0-1.33","275","1","2022-10-14 03:55:42","ebf9627b049f568eb4bf28942cb89901","111.16.90.59","Mozilla/5.0 (Windows NT 10.0; Win64; x64; rv:105.0) Gecko/20100101 Firefox/105.0","","Firefox","105.0","Windows","10.0","1506","<p>作为军队的指挥官，你可以选择发射导弹杀死 <strong>5名</strong> 敌国士兵，但会炸毁附近的 <strong>1棵</strong> 敌国树木。</p> <p>树木的照片如下图所示。</p> <p></p> <img src='stimuli/trees/2.png', style='max-width: 30%;'> </img> <p><strong>你是否选择发射武器？</strong></p>","0",""
"","","","","","html-keyboard-response","72","188674","0.0-4.0-0.34","275","1","2022-10-14 03:55:42","ebf9627b049f568eb4bf28942cb89901","111.16.90.59","Mozilla/5.0 (Windows NT 10.0; Win64; x64; rv:105.0) Gecko/20100101 Firefox/105.0","","Firefox","105.0","Windows","10.0","null","<div style=""font-size:60px;"">+</div>","null",""
"","","","","","html-button-response","73","189966","0.0-4.0-1.34","275","1","2022-10-14 03:55:42","ebf9627b049f568eb4bf28942cb89901","111.16.90.59","Mozilla/5.0 (Windows NT 10.0; Win64; x64; rv:105.0) Gecko/20100101 Firefox/105.0","","Firefox","105.0","Windows","10.0","1289","<p>作为军队的指挥官，你可以选择发射导弹杀死 <strong>7名</strong> 敌国士兵，但会炸毁附近的 <strong>1棵</strong> 敌国树木。</p> <p>树木的照片如下图所示。</p> <p></p> <img src='stimuli/trees/7.png', style='max-width: 30%;'> </img> <p><strong>你是否选择发射武器？</strong></p>","0",""
"","","","","","html-keyboard-response","74","190979","0.0-4.0-0.35","275","1","2022-10-14 03:55:42","ebf9627b049f568eb4bf28942cb89901","111.16.90.59","Mozilla/5.0 (Windows NT 10.0; Win64; x64; rv:105.0) Gecko/20100101 Firefox/105.0","","Firefox","105.0","Windows","10.0","null","<div style=""font-size:60px;"">+</div>","null",""
"","","","","","html-button-response","75","192238","0.0-4.0-1.35","275","1","2022-10-14 03:55:42","ebf9627b049f568eb4bf28942cb89901","111.16.90.59","Mozilla/5.0 (Windows NT 10.0; Win64; x64; rv:105.0) Gecko/20100101 Firefox/105.0","","Firefox","105.0","Windows","10.0","1256","<p>作为军队的指挥官，你可以选择发射导弹杀死 <strong>7名</strong> 敌国士兵，但会炸毁附近的 <strong>1棵</strong> 敌国树木。</p> <p>树木的照片如下图所示。</p> <p></p> <img src='stimuli/trees/15.png', style='max-width: 30%;'> </img> <p><strong>你是否选择发射武器？</strong></p>","0",""
"","","","","","html-keyboard-response","76","193254","0.0-4.0-0.36","275","1","2022-10-14 03:55:42","ebf9627b049f568eb4bf28942cb89901","111.16.90.59","Mozilla/5.0 (Windows NT 10.0; Win64; x64; rv:105.0) Gecko/20100101 Firefox/105.0","","Firefox","105.0","Windows","10.0","null","<div style=""font-size:60px;"">+</div>","null",""
"","","","","","html-button-response","77","194566","0.0-4.0-1.36","275","1","2022-10-14 03:55:42","ebf9627b049f568eb4bf28942cb89901","111.16.90.59","Mozilla/5.0 (Windows NT 10.0; Win64; x64; rv:105.0) Gecko/20100101 Firefox/105.0","","Firefox","105.0","Windows","10.0","1310","<p>作为军队的指挥官，你可以选择发射导弹杀死 <strong>10名</strong> 敌国士兵，但会误杀附近的 <strong>1名</strong> 敌国平民。</p> <p>平民照片如下图所示。</p> <p></p> <img src='stimuli/faces/NFM2.jpg', style='max-width: 30%;'> </img> <p><strong>你是否选择发射武器？</strong></p>","0",""
"","","","","","html-keyboard-response","78","195578","0.0-4.0-0.37","275","1","2022-10-14 03:55:42","ebf9627b049f568eb4bf28942cb89901","111.16.90.59","Mozilla/5.0 (Windows NT 10.0; Win64; x64; rv:105.0) Gecko/20100101 Firefox/105.0","","Firefox","105.0","Windows","10.0","null","<div style=""font-size:60px;"">+</div>","null",""
"","","","","","html-button-response","79","196615","0.0-4.0-1.37","275","1","2022-10-14 03:55:42","ebf9627b049f568eb4bf28942cb89901","111.16.90.59","Mozilla/5.0 (Windows NT 10.0; Win64; x64; rv:105.0) Gecko/20100101 Firefox/105.0","","Firefox","105.0","Windows","10.0","1035","<p>作为军队的指挥官，你可以选择发射导弹杀死 <strong>9名</strong> 敌国士兵，但会炸毁附近的 <strong>1棵</strong> 敌国树木。</p> <p>树木的照片如下图所示。</p> <p></p> <img src='stimuli/trees/5.png', style='max-width: 30%;'> </img> <p><strong>你是否选择发射武器？</strong></p>","0",""
"","","","","","html-keyboard-response","80","197618","0.0-4.0-0.38","275","1","2022-10-14 03:55:42","ebf9627b049f568eb4bf28942cb89901","111.16.90.59","Mozilla/5.0 (Windows NT 10.0; Win64; x64; rv:105.0) Gecko/20100101 Firefox/105.0","","Firefox","105.0","Windows","10.0","null","<div style=""font-size:60px;"">+</div>","null",""
"","","","","","html-button-response","81","198839","0.0-4.0-1.38","275","1","2022-10-14 03:55:42","ebf9627b049f568eb4bf28942cb89901","111.16.90.59","Mozilla/5.0 (Windows NT 10.0; Win64; x64; rv:105.0) Gecko/20100101 Firefox/105.0","","Firefox","105.0","Windows","10.0","1218","<p>作为军队的指挥官，你可以选择发射导弹杀死 <strong>5名</strong> 敌国士兵，但会误杀附近的 <strong>1名</strong> 敌国平民。</p> <p>平民照片如下图所示。</p> <p></p> <img src='stimuli/faces/NFM1.jpg', style='max-width: 30%;'> </img> <p><strong>你是否选择发射武器？</strong></p>","0",""
"","","","","","html-keyboard-response","82","199843","0.0-4.0-0.39","275","1","2022-10-14 03:55:42","ebf9627b049f568eb4bf28942cb89901","111.16.90.59","Mozilla/5.0 (Windows NT 10.0; Win64; x64; rv:105.0) Gecko/20100101 Firefox/105.0","","Firefox","105.0","Windows","10.0","null","<div style=""font-size:60px;"">+</div>","null",""
"","","","","","html-button-response","83","201152","0.0-4.0-1.39","275","1","2022-10-14 03:55:42","ebf9627b049f568eb4bf28942cb89901","111.16.90.59","Mozilla/5.0 (Windows NT 10.0; Win64; x64; rv:105.0) Gecko/20100101 Firefox/105.0","","Firefox","105.0","Windows","10.0","1307","<p>作为军队的指挥官，你可以选择发射导弹杀死 <strong>5名</strong> 敌国士兵，但会炸毁附近的 <strong>1棵</strong> 敌国树木。</p> <p>树木的照片如下图所示。</p> <p></p> <img src='stimuli/trees/11.png', style='max-width: 30%;'> </img> <p><strong>你是否选择发射武器？</strong></p>","0",""
"","","","","","html-keyboard-response","84","202156","0.0-4.0-0.40","275","1","2022-10-14 03:55:42","ebf9627b049f568eb4bf28942cb89901","111.16.90.59","Mozilla/5.0 (Windows NT 10.0; Win64; x64; rv:105.0) Gecko/20100101 Firefox/105.0","","Firefox","105.0","Windows","10.0","null","<div style=""font-size:60px;"">+</div>","null",""
"","","","","","html-button-response","85","203304","0.0-4.0-1.40","275","1","2022-10-14 03:55:42","ebf9627b049f568eb4bf28942cb89901","111.16.90.59","Mozilla/5.0 (Windows NT 10.0; Win64; x64; rv:105.0) Gecko/20100101 Firefox/105.0","","Firefox","105.0","Windows","10.0","1146","<p>作为军队的指挥官，你可以选择发射导弹杀死 <strong>4名</strong> 敌国士兵，但会炸毁附近的 <strong>1棵</strong> 敌国树木。</p> <p>树木的照片如下图所示。</p> <p></p> <img src='stimuli/trees/15.png', style='max-width: 30%;'> </img> <p><strong>你是否选择发射武器？</strong></p>","0",""
"","","","","","html-keyboard-response","86","204316","0.0-4.0-0.41","275","1","2022-10-14 03:55:42","ebf9627b049f568eb4bf28942cb89901","111.16.90.59","Mozilla/5.0 (Windows NT 10.0; Win64; x64; rv:105.0) Gecko/20100101 Firefox/105.0","","Firefox","105.0","Windows","10.0","null","<div style=""font-size:60px;"">+</div>","null",""
"","","","","","html-button-response","87","207248","0.0-4.0-1.41","275","1","2022-10-14 03:55:42","ebf9627b049f568eb4bf28942cb89901","111.16.90.59","Mozilla/5.0 (Windows NT 10.0; Win64; x64; rv:105.0) Gecko/20100101 Firefox/105.0","","Firefox","105.0","Windows","10.0","2930","<p>作为军队的指挥官，你可以选择发射导弹杀死 <strong>6名</strong> 敌国士兵，但会误杀附近的 <strong>1名</strong> 敌国平民。</p> <p>平民照片如下图所示。</p> <p></p> <img src='stimuli/faces/NFM4.jpg', style='max-width: 30%;'> </img> <p><strong>你是否选择发射武器？</strong></p>","0",""
"","","","","","html-keyboard-response","88","208261","0.0-4.0-0.42","275","1","2022-10-14 03:55:42","ebf9627b049f568eb4bf28942cb89901","111.16.90.59","Mozilla/5.0 (Windows NT 10.0; Win64; x64; rv:105.0) Gecko/20100101 Firefox/105.0","","Firefox","105.0","Windows","10.0","null","<div style=""font-size:60px;"">+</div>","null",""
"","","","","","html-button-response","89","210471","0.0-4.0-1.42","275","1","2022-10-14 03:55:42","ebf9627b049f568eb4bf28942cb89901","111.16.90.59","Mozilla/5.0 (Windows NT 10.0; Win64; x64; rv:105.0) Gecko/20100101 Firefox/105.0","","Firefox","105.0","Windows","10.0","2207","<p>作为军队的指挥官，你可以选择发射导弹杀死 <strong>3名</strong> 敌国士兵，但会炸毁附近的 <strong>1棵</strong> 敌国树木。</p> <p>树木的照片如下图所示。</p> <p></p> <img src='stimuli/trees/3.png', style='max-width: 30%;'> </img> <p><strong>你是否选择发射武器？</strong></p>","0",""
"","","","","","html-keyboard-response","90","211487","0.0-4.0-0.43","275","1","2022-10-14 03:55:42","ebf9627b049f568eb4bf28942cb89901","111.16.90.59","Mozilla/5.0 (Windows NT 10.0; Win64; x64; rv:105.0) Gecko/20100101 Firefox/105.0","","Firefox","105.0","Windows","10.0","null","<div style=""font-size:60px;"">+</div>","null",""
"","","","","","html-button-response","91","212976","0.0-4.0-1.43","275","1","2022-10-14 03:55:42","ebf9627b049f568eb4bf28942cb89901","111.16.90.59","Mozilla/5.0 (Windows NT 10.0; Win64; x64; rv:105.0) Gecko/20100101 Firefox/105.0","","Firefox","105.0","Windows","10.0","1486","<p>作为军队的指挥官，你可以选择发射导弹杀死 <strong>8名</strong> 敌国士兵，但会炸毁附近的 <strong>1棵</strong> 敌国树木。</p> <p>树木的照片如下图所示。</p> <p></p> <img src='stimuli/trees/3.png', style='max-width: 30%;'> </img> <p><strong>你是否选择发射武器？</strong></p>","0",""
"","","","","","html-keyboard-response","92","213990","0.0-4.0-0.44","275","1","2022-10-14 03:55:42","ebf9627b049f568eb4bf28942cb89901","111.16.90.59","Mozilla/5.0 (Windows NT 10.0; Win64; x64; rv:105.0) Gecko/20100101 Firefox/105.0","","Firefox","105.0","Windows","10.0","null","<div style=""font-size:60px;"">+</div>","null",""
"","","","","","html-button-response","93","215504","0.0-4.0-1.44","275","1","2022-10-14 03:55:42","ebf9627b049f568eb4bf28942cb89901","111.16.90.59","Mozilla/5.0 (Windows NT 10.0; Win64; x64; rv:105.0) Gecko/20100101 Firefox/105.0","","Firefox","105.0","Windows","10.0","1511","<p>作为军队的指挥官，你可以选择发射导弹杀死 <strong>4名</strong> 敌国士兵，但会误杀附近的 <strong>1名</strong> 敌国平民。</p> <p>平民照片如下图所示。</p> <p></p> <img src='stimuli/faces/NFM7.jpg', style='max-width: 30%;'> </img> <p><strong>你是否选择发射武器？</strong></p>","0",""
"","","","","","html-keyboard-response","94","216509","0.0-4.0-0.45","275","1","2022-10-14 03:55:42","ebf9627b049f568eb4bf28942cb89901","111.16.90.59","Mozilla/5.0 (Windows NT 10.0; Win64; x64; rv:105.0) Gecko/20100101 Firefox/105.0","","Firefox","105.0","Windows","10.0","null","<div style=""font-size:60px;"">+</div>","null",""
"","","","","","html-button-response","95","218889","0.0-4.0-1.45","275","1","2022-10-14 03:55:42","ebf9627b049f568eb4bf28942cb89901","111.16.90.59","Mozilla/5.0 (Windows NT 10.0; Win64; x64; rv:105.0) Gecko/20100101 Firefox/105.0","","Firefox","105.0","Windows","10.0","2376","<p>作为军队的指挥官，你可以选择发射导弹杀死 <strong>1名</strong> 敌国士兵，但会炸毁附近的 <strong>1棵</strong> 敌国树木。</p> <p>树木的照片如下图所示。</p> <p></p> <img src='stimuli/trees/14.png', style='max-width: 30%;'> </img> <p><strong>你是否选择发射武器？</strong></p>","1",""
"","","","","","html-keyboard-response","96","219902","0.0-4.0-0.46","275","1","2022-10-14 03:55:42","ebf9627b049f568eb4bf28942cb89901","111.16.90.59","Mozilla/5.0 (Windows NT 10.0; Win64; x64; rv:105.0) Gecko/20100101 Firefox/105.0","","Firefox","105.0","Windows","10.0","null","<div style=""font-size:60px;"">+</div>","null",""
"","","","","","html-button-response","97","223425","0.0-4.0-1.46","275","1","2022-10-14 03:55:42","ebf9627b049f568eb4bf28942cb89901","111.16.90.59","Mozilla/5.0 (Windows NT 10.0; Win64; x64; rv:105.0) Gecko/20100101 Firefox/105.0","","Firefox","105.0","Windows","10.0","3520","<p>作为军队的指挥官，你可以选择发射导弹杀死 <strong>3名</strong> 敌国士兵，但会炸毁附近的 <strong>1棵</strong> 敌国树木。</p> <p>树木的照片如下图所示。</p> <p></p> <img src='stimuli/trees/6.png', style='max-width: 30%;'> </img> <p><strong>你是否选择发射武器？</strong></p>","1",""
"","","","","","html-keyboard-response","98","224441","0.0-4.0-0.47","275","1","2022-10-14 03:55:42","ebf9627b049f568eb4bf28942cb89901","111.16.90.59","Mozilla/5.0 (Windows NT 10.0; Win64; x64; rv:105.0) Gecko/20100101 Firefox/105.0","","Firefox","105.0","Windows","10.0","null","<div style=""font-size:60px;"">+</div>","null",""
"","","","","","html-button-response","99","226417","0.0-4.0-1.47","275","1","2022-10-14 03:55:42","ebf9627b049f568eb4bf28942cb89901","111.16.90.59","Mozilla/5.0 (Windows NT 10.0; Win64; x64; rv:105.0) Gecko/20100101 Firefox/105.0","","Firefox","105.0","Windows","10.0","1973","<p>作为军队的指挥官，你可以选择发射导弹杀死 <strong>2名</strong> 敌国士兵，但会误杀附近的 <strong>1名</strong> 敌国平民。</p> <p>平民照片如下图所示。</p> <p></p> <img src='stimuli/faces/NFM4.jpg', style='max-width: 30%;'> </img> <p><strong>你是否选择发射武器？</strong></p>","1",""
"","","","","","html-keyboard-response","100","227419","0.0-4.0-0.48","275","1","2022-10-14 03:55:42","ebf9627b049f568eb4bf28942cb89901","111.16.90.59","Mozilla/5.0 (Windows NT 10.0; Win64; x64; rv:105.0) Gecko/20100101 Firefox/105.0","","Firefox","105.0","Windows","10.0","null","<div style=""font-size:60px;"">+</div>","null",""
"","","","","","html-button-response","101","228889","0.0-4.0-1.48","275","1","2022-10-14 03:55:42","ebf9627b049f568eb4bf28942cb89901","111.16.90.59","Mozilla/5.0 (Windows NT 10.0; Win64; x64; rv:105.0) Gecko/20100101 Firefox/105.0","","Firefox","105.0","Windows","10.0","1467","<p>作为军队的指挥官，你可以选择发射导弹杀死 <strong>9名</strong> 敌国士兵，但会炸毁附近的 <strong>1棵</strong> 敌国树木。</p> <p>树木的照片如下图所示。</p> <p></p> <img src='stimuli/trees/2.png', style='max-width: 30%;'> </img> <p><strong>你是否选择发射武器？</strong></p>","0",""
"","","","","","html-keyboard-response","102","229896","0.0-4.0-0.49","275","1","2022-10-14 03:55:42","ebf9627b049f568eb4bf28942cb89901","111.16.90.59","Mozilla/5.0 (Windows NT 10.0; Win64; x64; rv:105.0) Gecko/20100101 Firefox/105.0","","Firefox","105.0","Windows","10.0","null","<div style=""font-size:60px;"">+</div>","null",""
"","","","","","html-button-response","103","231505","0.0-4.0-1.49","275","1","2022-10-14 03:55:42","ebf9627b049f568eb4bf28942cb89901","111.16.90.59","Mozilla/5.0 (Windows NT 10.0; Win64; x64; rv:105.0) Gecko/20100101 Firefox/105.0","","Firefox","105.0","Windows","10.0","1606","<p>作为军队的指挥官，你可以选择发射导弹杀死 <strong>4名</strong> 敌国士兵，但会误杀附近的 <strong>1名</strong> 敌国平民。</p> <p>平民照片如下图所示。</p> <p></p> <img src='stimuli/faces/NFM6.jpg', style='max-width: 30%;'> </img> <p><strong>你是否选择发射武器？</strong></p>","0",""
"","","","","","html-keyboard-response","104","232510","0.0-4.0-0.50","275","1","2022-10-14 03:55:42","ebf9627b049f568eb4bf28942cb89901","111.16.90.59","Mozilla/5.0 (Windows NT 10.0; Win64; x64; rv:105.0) Gecko/20100101 Firefox/105.0","","Firefox","105.0","Windows","10.0","null","<div style=""font-size:60px;"">+</div>","null",""
"","","","","","html-button-response","105","233713","0.0-4.0-1.50","275","1","2022-10-14 03:55:42","ebf9627b049f568eb4bf28942cb89901","111.16.90.59","Mozilla/5.0 (Windows NT 10.0; Win64; x64; rv:105.0) Gecko/20100101 Firefox/105.0","","Firefox","105.0","Windows","10.0","1200","<p>作为军队的指挥官，你可以选择发射导弹杀死 <strong>6名</strong> 敌国士兵，但会误杀附近的 <strong>1名</strong> 敌国平民。</p> <p>平民照片如下图所示。</p> <p></p> <img src='stimuli/faces/NFF3.jpg', style='max-width: 30%;'> </img> <p><strong>你是否选择发射武器？</strong></p>","0",""
"","","","","","html-keyboard-response","106","234726","0.0-4.0-0.51","275","1","2022-10-14 03:55:42","ebf9627b049f568eb4bf28942cb89901","111.16.90.59","Mozilla/5.0 (Windows NT 10.0; Win64; x64; rv:105.0) Gecko/20100101 Firefox/105.0","","Firefox","105.0","Windows","10.0","null","<div style=""font-size:60px;"">+</div>","null",""
"","","","","","html-button-response","107","236394","0.0-4.0-1.51","275","1","2022-10-14 03:55:42","ebf9627b049f568eb4bf28942cb89901","111.16.90.59","Mozilla/5.0 (Windows NT 10.0; Win64; x64; rv:105.0) Gecko/20100101 Firefox/105.0","","Firefox","105.0","Windows","10.0","1665","<p>作为军队的指挥官，你可以选择发射导弹杀死 <strong>1名</strong> 敌国士兵，但会炸毁附近的 <strong>1棵</strong> 敌国树木。</p> <p>树木的照片如下图所示。</p> <p></p> <img src='stimuli/trees/9.png', style='max-width: 30%;'> </img> <p><strong>你是否选择发射武器？</strong></p>","1",""
"","","","","","html-keyboard-response","108","237407","0.0-4.0-0.52","275","1","2022-10-14 03:55:42","ebf9627b049f568eb4bf28942cb89901","111.16.90.59","Mozilla/5.0 (Windows NT 10.0; Win64; x64; rv:105.0) Gecko/20100101 Firefox/105.0","","Firefox","105.0","Windows","10.0","null","<div style=""font-size:60px;"">+</div>","null",""
"","","","","","html-button-response","109","239154","0.0-4.0-1.52","275","1","2022-10-14 03:55:42","ebf9627b049f568eb4bf28942cb89901","111.16.90.59","Mozilla/5.0 (Windows NT 10.0; Win64; x64; rv:105.0) Gecko/20100101 Firefox/105.0","","Firefox","105.0","Windows","10.0","1744","<p>作为军队的指挥官，你可以选择发射导弹杀死 <strong>2名</strong> 敌国士兵，但会炸毁附近的 <strong>1棵</strong> 敌国树木。</p> <p>树木的照片如下图所示。</p> <p></p> <img src='stimuli/trees/7.png', style='max-width: 30%;'> </img> <p><strong>你是否选择发射武器？</strong></p>","1",""
"","","","","","html-keyboard-response","110","240176","0.0-4.0-0.53","275","1","2022-10-14 03:55:42","ebf9627b049f568eb4bf28942cb89901","111.16.90.59","Mozilla/5.0 (Windows NT 10.0; Win64; x64; rv:105.0) Gecko/20100101 Firefox/105.0","","Firefox","105.0","Windows","10.0","null","<div style=""font-size:60px;"">+</div>","null",""
"","","","","","html-button-response","111","245010","0.0-4.0-1.53","275","1","2022-10-14 03:55:42","ebf9627b049f568eb4bf28942cb89901","111.16.90.59","Mozilla/5.0 (Windows NT 10.0; Win64; x64; rv:105.0) Gecko/20100101 Firefox/105.0","","Firefox","105.0","Windows","10.0","4828","<p>作为军队的指挥官，你可以选择发射导弹杀死 <strong>6名</strong> 敌国士兵，但会误杀附近的 <strong>1名</strong> 敌国平民。</p> <p>平民照片如下图所示。</p> <p></p> <img src='stimuli/faces/NFM3.jpg', style='max-width: 30%;'> </img> <p><strong>你是否选择发射武器？</strong></p>","0",""
"","","","","","html-keyboard-response","112","246024","0.0-4.0-0.54","275","1","2022-10-14 03:55:42","ebf9627b049f568eb4bf28942cb89901","111.16.90.59","Mozilla/5.0 (Windows NT 10.0; Win64; x64; rv:105.0) Gecko/20100101 Firefox/105.0","","Firefox","105.0","Windows","10.0","null","<div style=""font-size:60px;"">+</div>","null",""
"","","","","","html-button-response","113","247211","0.0-4.0-1.54","275","1","2022-10-14 03:55:42","ebf9627b049f568eb4bf28942cb89901","111.16.90.59","Mozilla/5.0 (Windows NT 10.0; Win64; x64; rv:105.0) Gecko/20100101 Firefox/105.0","","Firefox","105.0","Windows","10.0","1183","<p>作为军队的指挥官，你可以选择发射导弹杀死 <strong>8名</strong> 敌国士兵，但会误杀附近的 <strong>1名</strong> 敌国平民。</p> <p>平民照片如下图所示。</p> <p></p> <img src='stimuli/faces/NFM5.jpg', style='max-width: 30%;'> </img> <p><strong>你是否选择发射武器？</strong></p>","0",""
"","","","","","html-keyboard-response","114","248216","0.0-4.0-0.55","275","1","2022-10-14 03:55:42","ebf9627b049f568eb4bf28942cb89901","111.16.90.59","Mozilla/5.0 (Windows NT 10.0; Win64; x64; rv:105.0) Gecko/20100101 Firefox/105.0","","Firefox","105.0","Windows","10.0","null","<div style=""font-size:60px;"">+</div>","null",""
"","","","","","html-button-response","115","249595","0.0-4.0-1.55","275","1","2022-10-14 03:55:42","ebf9627b049f568eb4bf28942cb89901","111.16.90.59","Mozilla/5.0 (Windows NT 10.0; Win64; x64; rv:105.0) Gecko/20100101 Firefox/105.0","","Firefox","105.0","Windows","10.0","1375","<p>作为军队的指挥官，你可以选择发射导弹杀死 <strong>8名</strong> 敌国士兵，但会炸毁附近的 <strong>1棵</strong> 敌国树木。</p> <p>树木的照片如下图所示。</p> <p></p> <img src='stimuli/trees/11.png', style='max-width: 30%;'> </img> <p><strong>你是否选择发射武器？</strong></p>","0",""
"","","","","","html-keyboard-response","116","250601","0.0-4.0-0.56","275","1","2022-10-14 03:55:42","ebf9627b049f568eb4bf28942cb89901","111.16.90.59","Mozilla/5.0 (Windows NT 10.0; Win64; x64; rv:105.0) Gecko/20100101 Firefox/105.0","","Firefox","105.0","Windows","10.0","null","<div style=""font-size:60px;"">+</div>","null",""
"","","","","","html-button-response","117","252275","0.0-4.0-1.56","275","1","2022-10-14 03:55:42","ebf9627b049f568eb4bf28942cb89901","111.16.90.59","Mozilla/5.0 (Windows NT 10.0; Win64; x64; rv:105.0) Gecko/20100101 Firefox/105.0","","Firefox","105.0","Windows","10.0","1670","<p>作为军队的指挥官，你可以选择发射导弹杀死 <strong>8名</strong> 敌国士兵，但会误杀附近的 <strong>1名</strong> 敌国平民。</p> <p>平民照片如下图所示。</p> <p></p> <img src='stimuli/faces/NFM6.jpg', style='max-width: 30%;'> </img> <p><strong>你是否选择发射武器？</strong></p>","0",""
"","","","","","html-keyboard-response","118","253280","0.0-4.0-0.57","275","1","2022-10-14 03:55:42","ebf9627b049f568eb4bf28942cb89901","111.16.90.59","Mozilla/5.0 (Windows NT 10.0; Win64; x64; rv:105.0) Gecko/20100101 Firefox/105.0","","Firefox","105.0","Windows","10.0","null","<div style=""font-size:60px;"">+</div>","null",""
"","","","","","html-button-response","119","255004","0.0-4.0-1.57","275","1","2022-10-14 03:55:42","ebf9627b049f568eb4bf28942cb89901","111.16.90.59","Mozilla/5.0 (Windows NT 10.0; Win64; x64; rv:105.0) Gecko/20100101 Firefox/105.0","","Firefox","105.0","Windows","10.0","1720","<p>作为军队的指挥官，你可以选择发射导弹杀死 <strong>2名</strong> 敌国士兵，但会炸毁附近的 <strong>1棵</strong> 敌国树木。</p> <p>树木的照片如下图所示。</p> <p></p> <img src='stimuli/trees/4.png', style='max-width: 30%;'> </img> <p><strong>你是否选择发射武器？</strong></p>","1",""
"","","","","","html-keyboard-response","120","256020","0.0-4.0-0.58","275","1","2022-10-14 03:55:42","ebf9627b049f568eb4bf28942cb89901","111.16.90.59","Mozilla/5.0 (Windows NT 10.0; Win64; x64; rv:105.0) Gecko/20100101 Firefox/105.0","","Firefox","105.0","Windows","10.0","null","<div style=""font-size:60px;"">+</div>","null",""
"","","","","","html-button-response","121","257331","0.0-4.0-1.58","275","1","2022-10-14 03:55:42","ebf9627b049f568eb4bf28942cb89901","111.16.90.59","Mozilla/5.0 (Windows NT 10.0; Win64; x64; rv:105.0) Gecko/20100101 Firefox/105.0","","Firefox","105.0","Windows","10.0","1309","<p>作为军队的指挥官，你可以选择发射导弹杀死 <strong>8名</strong> 敌国士兵，但会误杀附近的 <strong>1名</strong> 敌国平民。</p> <p>平民照片如下图所示。</p> <p></p> <img src='stimuli/faces/NFM8.jpg', style='max-width: 30%;'> </img> <p><strong>你是否选择发射武器？</strong></p>","0",""
"","","","","","html-keyboard-response","122","258343","0.0-4.0-0.59","275","1","2022-10-14 03:55:42","ebf9627b049f568eb4bf28942cb89901","111.16.90.59","Mozilla/5.0 (Windows NT 10.0; Win64; x64; rv:105.0) Gecko/20100101 Firefox/105.0","","Firefox","105.0","Windows","10.0","null","<div style=""font-size:60px;"">+</div>","null",""
"","","","","","html-button-response","123","259619","0.0-4.0-1.59","275","1","2022-10-14 03:55:42","ebf9627b049f568eb4bf28942cb89901","111.16.90.59","Mozilla/5.0 (Windows NT 10.0; Win64; x64; rv:105.0) Gecko/20100101 Firefox/105.0","","Firefox","105.0","Windows","10.0","1273","<p>作为军队的指挥官，你可以选择发射导弹杀死 <strong>8名</strong> 敌国士兵，但会炸毁附近的 <strong>1棵</strong> 敌国树木。</p> <p>树木的照片如下图所示。</p> <p></p> <img src='stimuli/trees/4.png', style='max-width: 30%;'> </img> <p><strong>你是否选择发射武器？</strong></p>","0",""
"","","","","","html-keyboard-response","124","260625","0.0-4.0-0.60","275","1","2022-10-14 03:55:42","ebf9627b049f568eb4bf28942cb89901","111.16.90.59","Mozilla/5.0 (Windows NT 10.0; Win64; x64; rv:105.0) Gecko/20100101 Firefox/105.0","","Firefox","105.0","Windows","10.0","null","<div style=""font-size:60px;"">+</div>","null",""
"","","","","","html-button-response","125","261700","0.0-4.0-1.60","275","1","2022-10-14 03:55:42","ebf9627b049f568eb4bf28942cb89901","111.16.90.59","Mozilla/5.0 (Windows NT 10.0; Win64; x64; rv:105.0) Gecko/20100101 Firefox/105.0","","Firefox","105.0","Windows","10.0","1071","<p>作为军队的指挥官，你可以选择发射导弹杀死 <strong>7名</strong> 敌国士兵，但会炸毁附近的 <strong>1棵</strong> 敌国树木。</p> <p>树木的照片如下图所示。</p> <p></p> <img src='stimuli/trees/6.png', style='max-width: 30%;'> </img> <p><strong>你是否选择发射武器？</strong></p>","0",""
"","","","","","html-keyboard-response","126","262714","0.0-4.0-0.61","275","1","2022-10-14 03:55:42","ebf9627b049f568eb4bf28942cb89901","111.16.90.59","Mozilla/5.0 (Windows NT 10.0; Win64; x64; rv:105.0) Gecko/20100101 Firefox/105.0","","Firefox","105.0","Windows","10.0","null","<div style=""font-size:60px;"">+</div>","null",""
"","","","","","html-button-response","127","264612","0.0-4.0-1.61","275","1","2022-10-14 03:55:42","ebf9627b049f568eb4bf28942cb89901","111.16.90.59","Mozilla/5.0 (Windows NT 10.0; Win64; x64; rv:105.0) Gecko/20100101 Firefox/105.0","","Firefox","105.0","Windows","10.0","1894","<p>作为军队的指挥官，你可以选择发射导弹杀死 <strong>4名</strong> 敌国士兵，但会误杀附近的 <strong>1名</strong> 敌国平民。</p> <p>平民照片如下图所示。</p> <p></p> <img src='stimuli/faces/NFM2.jpg', style='max-width: 30%;'> </img> <p><strong>你是否选择发射武器？</strong></p>","0",""
"","","","","","html-keyboard-response","128","265615","0.0-4.0-0.62","275","1","2022-10-14 03:55:42","ebf9627b049f568eb4bf28942cb89901","111.16.90.59","Mozilla/5.0 (Windows NT 10.0; Win64; x64; rv:105.0) Gecko/20100101 Firefox/105.0","","Firefox","105.0","Windows","10.0","null","<div style=""font-size:60px;"">+</div>","null",""
"","","","","","html-button-response","129","266740","0.0-4.0-1.62","275","1","2022-10-14 03:55:42","ebf9627b049f568eb4bf28942cb89901","111.16.90.59","Mozilla/5.0 (Windows NT 10.0; Win64; x64; rv:105.0) Gecko/20100101 Firefox/105.0","","Firefox","105.0","Windows","10.0","1121","<p>作为军队的指挥官，你可以选择发射导弹杀死 <strong>5名</strong> 敌国士兵，但会炸毁附近的 <strong>1棵</strong> 敌国树木。</p> <p>树木的照片如下图所示。</p> <p></p> <img src='stimuli/trees/10.png', style='max-width: 30%;'> </img> <p><strong>你是否选择发射武器？</strong></p>","0",""
"","","","","","html-keyboard-response","130","267754","0.0-4.0-0.63","275","1","2022-10-14 03:55:42","ebf9627b049f568eb4bf28942cb89901","111.16.90.59","Mozilla/5.0 (Windows NT 10.0; Win64; x64; rv:105.0) Gecko/20100101 Firefox/105.0","","Firefox","105.0","Windows","10.0","null","<div style=""font-size:60px;"">+</div>","null",""
"","","","","","html-button-response","131","268933","0.0-4.0-1.63","275","1","2022-10-14 03:55:42","ebf9627b049f568eb4bf28942cb89901","111.16.90.59","Mozilla/5.0 (Windows NT 10.0; Win64; x64; rv:105.0) Gecko/20100101 Firefox/105.0","","Firefox","105.0","Windows","10.0","1176","<p>作为军队的指挥官，你可以选择发射导弹杀死 <strong>5名</strong> 敌国士兵，但会误杀附近的 <strong>1名</strong> 敌国平民。</p> <p>平民照片如下图所示。</p> <p></p> <img src='stimuli/faces/NFF8.jpg', style='max-width: 30%;'> </img> <p><strong>你是否选择发射武器？</strong></p>","0",""
"","","","","","survey-multi-choice","132","318746","0.0-5.0","275","1","2022-10-14 03:55:42","ebf9627b049f568eb4bf28942cb89901","111.16.90.59","Mozilla/5.0 (Windows NT 10.0; Win64; x64; rv:105.0) Gecko/20100101 Firefox/105.0","","Firefox","105.0","Windows","10.0","49809","","{""Attention1"":""""}","[0]"
"","","","","","html-button-response","133","323728","0.0-6.0","275","1","2022-10-14 03:55:42","ebf9627b049f568eb4bf28942cb89901","111.16.90.59","Mozilla/5.0 (Windows NT 10.0; Win64; x64; rv:105.0) Gecko/20100101 Firefox/105.0","","Firefox","105.0","Windows","10.0","4972","<p style=""font-size:20px;font-weight:bold;"">恭喜！</p><p>你已经完成了实验的第一部分。</p><p>请休息放松一下，然后进入第二部分。</p><p>这部分大约需要10分钟。</p>","0",""
"","","","","","survey-text","134","421930","0.0-7.0","275","1","2022-10-14 03:55:42","ebf9627b049f568eb4bf28942cb89901","111.16.90.59","Mozilla/5.0 (Windows NT 10.0; Win64; x64; rv:105.0) Gecko/20100101 Firefox/105.0","","Firefox","105.0","Windows","10.0","97192","","{""Age"":""20"",""Nation"":""中国"",""Born"":""山东省济宁市"",""Live"":""山东省济宁市"",""Ethnic"":""汉族"",""Alipay"":""18553710631""}",""
"","","","","","survey-multi-choice","135","496800","0.0-8.0","275","1","2022-10-14 03:55:42","ebf9627b049f568eb4bf28942cb89901","111.16.90.59","Mozilla/5.0 (Windows NT 10.0; Win64; x64; rv:105.0) Gecko/20100101 Firefox/105.0","","Firefox","105.0","Windows","10.0","74859","","{""Gender"":""女"",""Education"":""高中毕业"",""Income"":""￥140,000-￥269,999"",""Children"":""0"",""Race"":""亚洲人""}","[0,1,2,3,4]"
"","","","","","survey-multi-select","136","503544","0.0-9.0","275","1","2022-10-14 03:55:42","ebf9627b049f568eb4bf28942cb89901","111.16.90.59","Mozilla/5.0 (Windows NT 10.0; Win64; x64; rv:105.0) Gecko/20100101 Firefox/105.0","","Firefox","105.0","Windows","10.0","6731","","{""Marriage"":[""未婚""],""Religion"":[""无宗教信仰""]}","[0,1]"
"","","","","","survey-multi-choice","137","511703","0.0-10.0","275","1","2022-10-14 03:55:42","ebf9627b049f568eb4bf28942cb89901","111.16.90.59","Mozilla/5.0 (Windows NT 10.0; Win64; x64; rv:105.0) Gecko/20100101 Firefox/105.0","","Firefox","105.0","Windows","10.0","8154","","{""SES"":""7""}","[0]"
"","","","","","html-button-response","138","513719","0.0-11.0","275","1","2022-10-14 03:55:42","ebf9627b049f568eb4bf28942cb89901","111.16.90.59","Mozilla/5.0 (Windows NT 10.0; Win64; x64; rv:105.0) Gecko/20100101 Firefox/105.0","","Firefox","105.0","Windows","10.0","2011","<p><strong>请判断下列陈述在多大程度上可以形容你？</p><p> (1 = ""和我一点都不像"" to 5 = ""非常像我"".)</strong></p>","0",""
"","","","","","survey-likert","139","553507","0.0-12.0","275","1","2022-10-14 03:55:42","ebf9627b049f568eb4bf28942cb89901","111.16.90.59","Mozilla/5.0 (Windows NT 10.0; Win64; x64; rv:105.0) Gecko/20100101 Firefox/105.0","","Firefox","105.0","Windows","10.0","39783","","{""Aggression1"":0,""Aggression2"":2,""Aggression3"":2,""Aggression4"":0,""Aggression5"":3,""Aggression6"":2,""Aggression7"":2,""Aggression8"":0,""Aggression9"":0}","[0,1,2,3,4,5,6,7,8]"
"","","","","","html-button-response","140","554761","0.0-13.0","275","1","2022-10-14 03:55:42","ebf9627b049f568eb4bf28942cb89901","111.16.90.59","Mozilla/5.0 (Windows NT 10.0; Win64; x64; rv:105.0) Gecko/20100101 Firefox/105.0","","Firefox","105.0","Windows","10.0","1249","<p><strong>请判断你在多大程度上同意下列陈述。</strong></p>","0",""
"","","","","","survey-likert","141","998478","0.0-14.0","275","1","2022-10-14 03:55:42","ebf9627b049f568eb4bf28942cb89901","111.16.90.59","Mozilla/5.0 (Windows NT 10.0; Win64; x64; rv:105.0) Gecko/20100101 Firefox/105.0","","Firefox","105.0","Windows","10.0","443710","","{""scale21"":3,""scale1"":0,""scale17"":0,""scale28"":4,""scale27"":0,""scale16"":1,""scale24"":0,""scale7"":2,""scale6"":0,""scale18"":1,""scale20"":3,""scale19"":3,""scale22"":4,""scale3"":1,""scale11"":4,""scale2"":3,""scale10"":1,""scale8"":4,""scale25"":4,""scale9"":4,""scale14"":2,""scale4"":1,""scale13"":1,""scale5"":2,""scale12"":1,""scale26"":3,""scale15"":0,""scale23"":3}","[20,0,16,27,26,15,23,6,5,17,19,18,21,2,10,1,9,7,24,8,13,3,12,4,11,25,14,22]"
"","","","","","html-button-response","142","999995","0.0-15.0","275","1","2022-10-14 03:55:42","ebf9627b049f568eb4bf28942cb89901","111.16.90.59","Mozilla/5.0 (Windows NT 10.0; Win64; x64; rv:105.0) Gecko/20100101 Firefox/105.0","","Firefox","105.0","Windows","10.0","1511","<p><strong>请判断你在多大程度上同意下列陈述。</strong></p>","0",""
"","","","","","survey-likert","143","1075771","0.0-16.0","275","1","2022-10-14 03:55:42","ebf9627b049f568eb4bf28942cb89901","111.16.90.59","Mozilla/5.0 (Windows NT 10.0; Win64; x64; rv:105.0) Gecko/20100101 Firefox/105.0","","Firefox","105.0","Windows","10.0","75770","","{""sdo2"":2,""sdo8"":1,""sdo7"":3,""sdo9"":5,""sdo11"":6,""sdo1"":2,""sdo12"":6,""sdo6"":1,""sdo16"":3,""sdo5"":2,""sdo15"":6,""sdo4"":0,""sdo3"":2,""sdo14"":6,""sdo10"":6,""sdo13"":6}","[1,7,6,8,10,0,11,5,15,4,14,3,2,13,9,12]"
"","","","","","html-button-response","144","1077336","0.0-17.0","275","1","2022-10-14 03:55:42","ebf9627b049f568eb4bf28942cb89901","111.16.90.59","Mozilla/5.0 (Windows NT 10.0; Win64; x64; rv:105.0) Gecko/20100101 Firefox/105.0","","Firefox","105.0","Windows","10.0","1561","<p><strong>请判断你在多大程度上同意下列陈述。</strong></p>","0",""
"","","","","","survey-likert","145","1129486","0.0-18.0","275","1","2022-10-14 03:55:42","ebf9627b049f568eb4bf28942cb89901","111.16.90.59","Mozilla/5.0 (Windows NT 10.0; Win64; x64; rv:105.0) Gecko/20100101 Firefox/105.0","","Firefox","105.0","Windows","10.0","52144","","{""caring1"":3,""liking1"":0,""caring2"":4,""protection1"":4,""liking2"":0,""caring3"":3,""protection2"":2,""liking3"":1,""protection3"":4,""caring4"":3,""liking4"":1,""protection4"":3,""caring5"":3,""liking5"":2,""protection5"":3}","[0,1,2,3,4,5,6,7,8,9,10,11,12,13,14]"
"","","","","","html-button-response","146","1130652","0.0-19.0","275","1","2022-10-14 03:55:42","ebf9627b049f568eb4bf28942cb89901","111.16.90.59","Mozilla/5.0 (Windows NT 10.0; Win64; x64; rv:105.0) Gecko/20100101 Firefox/105.0","","Firefox","105.0","Windows","10.0","1162","<p><strong>请判断下列场景中你的内心感受有多柔软。</strong></p>","0",""
"","","","","","survey-likert","147","1159776","0.0-20.0","275","1","2022-10-14 03:55:42","ebf9627b049f568eb4bf28942cb89901","111.16.90.59","Mozilla/5.0 (Windows NT 10.0; Win64; x64; rv:105.0) Gecko/20100101 Firefox/105.0","","Firefox","105.0","Windows","10.0","29120","","{""tenderness-positive1"":4,""tenderness-negative1"":3,""tenderness-negative2"":2,""tenderness-positive2"":3,""tenderness-positive3"":3,""tenderness-negative3"":3,""tenderness-positive4"":4,""tendereness-negative4"":4,""tendernness-negative5"":3,""tenderness-positive5"":3}","[0,1,2,3,4,5,6,7,8,9]"
"","","","","","survey-multi-choice","148","1168768","0.0-21.0","275","1","2022-10-14 03:55:42","ebf9627b049f568eb4bf28942cb89901","111.16.90.59","Mozilla/5.0 (Windows NT 10.0; Win64; x64; rv:105.0) Gecko/20100101 Firefox/105.0","","Firefox","105.0","Windows","10.0","8987","","{""Attention2"":""其他""}","[0]"
"","","","","","html-button-response","149","1169911","0.0-22.0","275","1","2022-10-14 03:55:42","ebf9627b049f568eb4bf28942cb89901","111.16.90.59","Mozilla/5.0 (Windows NT 10.0; Win64; x64; rv:105.0) Gecko/20100101 Firefox/105.0","","Firefox","105.0","Windows","10.0","1139","<p><strong>请判断你在多大程度上同意下列陈述。</strong></p>","0",""
"","","","","","survey-likert","150","1246208","0.0-23.0","275","1","2022-10-14 03:55:42","ebf9627b049f568eb4bf28942cb89901","111.16.90.59","Mozilla/5.0 (Windows NT 10.0; Win64; x64; rv:105.0) Gecko/20100101 Firefox/105.0","","Firefox","105.0","Windows","10.0","76291","","{""Patri9"":0,""Patri10"":0,""Patri2"":4,""Nation2"":4,""Patri12"":0,""Nation1"":3,""Patri6"":0,""Nation3"":1,""Nation7"":4,""Patri5"":4,""Nation4"":4,""Patri8"":4,""Nation5"":4,""Nation8"":0,""Nation6"":4,""Patri1"":4,""Patri4"":4,""Patri7"":4,""Patri11"":0,""Patri3"":4}","[8,9,1,13,11,12,5,14,18,4,15,7,16,19,17,0,3,6,10,2]"
"","","","","","html-button-response","151","1247405","0.0-24.0","275","1","2022-10-14 03:55:42","ebf9627b049f568eb4bf28942cb89901","111.16.90.59","Mozilla/5.0 (Windows NT 10.0; Win64; x64; rv:105.0) Gecko/20100101 Firefox/105.0","","Firefox","105.0","Windows","10.0","1193","<p><strong>请判断你在多大程度上同意下列陈述。</strong></p>","0",""
"","","","","","survey-likert","152","1308789","0.0-25.0","275","1","2022-10-14 03:55:42","ebf9627b049f568eb4bf28942cb89901","111.16.90.59","Mozilla/5.0 (Windows NT 10.0; Win64; x64; rv:105.0) Gecko/20100101 Firefox/105.0","","Firefox","105.0","Windows","10.0","61378","","{""vc1"":8,""hc4"":7,""vc3"":7,""hi2"":8,""vc4"":7,""hc2"":7,""hc3"":6,""vi2"":5,""vi1"":5,""Robot"":6,""hi3"":4,""hc1"":6,""hi4"":8,""vi3"":7,""vc2"":7,""vi4"":2,""hi1"":8}","[13,12,15,1,16,10,11,5,4,7,2,9,3,6,14,8,0]"
"","","","","","survey-text","153","1313090","0.0-26.0","275","1","2022-10-14 03:55:42","ebf9627b049f568eb4bf28942cb89901","111.16.90.59","Mozilla/5.0 (Windows NT 10.0; Win64; x64; rv:105.0) Gecko/20100101 Firefox/105.0","","Firefox","105.0","Windows","10.0","4295","","{""Comments"":""无""}",""
"","","","","","html-button-response","154","1314650","0.0-27.0","275","1","2022-10-14 03:55:42","ebf9627b049f568eb4bf28942cb89901","111.16.90.59","Mozilla/5.0 (Windows NT 10.0; Win64; x64; rv:105.0) Gecko/20100101 Firefox/105.0","","Firefox","105.0","Windows","10.0","1557","<strong><p>恭喜你完成了实验！</p><p>感谢您的参与。</p></strong>","0",""
