"success","timeout","failed_images","failed_audio","failed_video","trial_type","trial_index","time_elapsed","internal_node_id","run_id","condition","recorded_at","source_code_version","ip","user_agent","device","browser","browser_version","platform","platform_version","rt","stimulus","response","question_order"
"true","false","[]","[]","[]","preload","0","3063","0.0-0.0","283","1","2022-10-14 09:15:16","ebf9627b049f568eb4bf28942cb89901","183.6.40.199","Mozilla/5.0 (Windows NT 10.0; Win64; x64) AppleWebKit/537.36 (KHTML, like Gecko) Chrome/106.0.0.0 Safari/537.36 Edg/106.0.1370.42","WebKit","Edge","106.0.1370.42","Windows","10.0","","","",""
"true","","","","","fullscreen","1","13540","0.0-1.0","283","1","2022-10-14 09:15:16","ebf9627b049f568eb4bf28942cb89901","183.6.40.199","Mozilla/5.0 (Windows NT 10.0; Win64; x64) AppleWebKit/537.36 (KHTML, like Gecko) Chrome/106.0.0.0 Safari/537.36 Edg/106.0.1370.42","WebKit","Edge","106.0.1370.42","Windows","10.0","","","",""
"","","","","","html-button-response","2","14911","0.0-2.0","283","1","2022-10-14 09:15:16","ebf9627b049f568eb4bf28942cb89901","183.6.40.199","Mozilla/5.0 (Windows NT 10.0; Win64; x64) AppleWebKit/537.36 (KHTML, like Gecko) Chrome/106.0.0.0 Safari/537.36 Edg/106.0.1370.42","WebKit","Edge","106.0.1370.42","Windows","10.0","1370","<p style=""font-size:20px;font-weight:bold;"">实验知情同意书</p><p style=""text-align:left;""><strong>实验名称：</strong>社会冲突研究</p><p style=""text-align:left;""><strong>主要研究者：</strong>韩晓春副教授（北京师范大学心理学部）</p><p style=""text-align:left;""><strong>联系方式：</strong>发送邮件至xiaochun.han@bnu.edu.cn</p><p style=""text-align:left;""><strong>研究目的：</strong>研究旨在了解人类面对群体冲突时的决策方式，以及相关的心理学特质。实验调查大约需要20分钟。</p><p style=""text-align:left;""><strong>实验流程：</strong>实验包含两部分。第一部分呈现一系列群体冲突场景，请你决定如何对这些冲突进行反应，大约需要10分钟完成。第二部分包含一系列人口统计学信息收集和心理学问卷，大约需要10分钟完成。</p><p style=""text-align:left;""><strong>参加及退出规则：</strong>参加本实验完全取决于您的个人意愿。在参与过程中，您可以随时退出，并且不用承担任何后果。</p><p style=""text-align:left;""><strong>隐私：</strong>本实验完全匿名进行，不会收集您的姓名或其他能够识别您身份的信息。实验中收集的作答仅用作科学研究使用，可能会在学术期刊/书籍上发表，或者用于教学，您的数据未来可能会和其他研究者或实验室分享，但您的个人身份不会被识别。</p><p style=""text-align:left;""><strong>实验报酬：</strong>实验完成后，您将获得15元人民币报酬，以感谢您的时间和努力。调查问卷中包含几道题目用以测验您作答时的认真度。只有完成全部实验，并且正确回答认真度测验的被试才能获得实验报酬。实验报酬将通过支付宝转账发放。</p><p style=""text-align:left;font-size:20px;""><strong>如果您同意以上实验知情同意书的内容，请点击'同意并且开始实验'按钮；否则请关闭浏览器界面，退出实验。</strong></p>","0",""
"","","","","","html-button-response","3","16968","0.0-3.0","283","1","2022-10-14 09:15:16","ebf9627b049f568eb4bf28942cb89901","183.6.40.199","Mozilla/5.0 (Windows NT 10.0; Win64; x64) AppleWebKit/537.36 (KHTML, like Gecko) Chrome/106.0.0.0 Safari/537.36 Edg/106.0.1370.42","WebKit","Edge","106.0.1370.42","Windows","10.0","2056","<p ><strong>实验任务一：</strong></p><p>请想象你的国家与另一个国家发生了军事冲突。</p><p>你是国家军队的指挥官，你将如何在冲突中进行决策。</p><p>具体来说，作为军队指挥官，请你决定是否发射导弹进行打击。</p><p>接下来，你会面对一系列场景，请仔细阅读每个场景，然后进行决策。</p><p>这部分实验任务大约需要10分钟。</p><p><strong>实验过程中，请集中注意力。</strong></p>","0",""
"","","","","","html-keyboard-response","4","17969","0.0-4.0-0.0","283","1","2022-10-14 09:15:16","ebf9627b049f568eb4bf28942cb89901","183.6.40.199","Mozilla/5.0 (Windows NT 10.0; Win64; x64) AppleWebKit/537.36 (KHTML, like Gecko) Chrome/106.0.0.0 Safari/537.36 Edg/106.0.1370.42","WebKit","Edge","106.0.1370.42","Windows","10.0","null","<div style=""font-size:60px;"">+</div>","null",""
"","","","","","html-button-response","5","27290","0.0-4.0-1.0","283","1","2022-10-14 09:15:16","ebf9627b049f568eb4bf28942cb89901","183.6.40.199","Mozilla/5.0 (Windows NT 10.0; Win64; x64) AppleWebKit/537.36 (KHTML, like Gecko) Chrome/106.0.0.0 Safari/537.36 Edg/106.0.1370.42","WebKit","Edge","106.0.1370.42","Windows","10.0","9320","<p>作为军队的指挥官，你可以选择发射导弹杀死 <strong>2名</strong> 敌国士兵，但会误杀附近的 <strong>1名</strong> 敌国平民。</p> <p>平民照片如下图所示。</p> <p></p> <img src='stimuli/faces/NFF4.jpg', style='max-width: 30%;'> </img> <p><strong>你是否选择发射武器？</strong></p>","1",""
"","","","","","html-keyboard-response","6","28295","0.0-4.0-0.1","283","1","2022-10-14 09:15:16","ebf9627b049f568eb4bf28942cb89901","183.6.40.199","Mozilla/5.0 (Windows NT 10.0; Win64; x64) AppleWebKit/537.36 (KHTML, like Gecko) Chrome/106.0.0.0 Safari/537.36 Edg/106.0.1370.42","WebKit","Edge","106.0.1370.42","Windows","10.0","null","<div style=""font-size:60px;"">+</div>","null",""
"","","","","","html-button-response","7","30090","0.0-4.0-1.1","283","1","2022-10-14 09:15:16","ebf9627b049f568eb4bf28942cb89901","183.6.40.199","Mozilla/5.0 (Windows NT 10.0; Win64; x64) AppleWebKit/537.36 (KHTML, like Gecko) Chrome/106.0.0.0 Safari/537.36 Edg/106.0.1370.42","WebKit","Edge","106.0.1370.42","Windows","10.0","1794","<p>作为军队的指挥官，你可以选择发射导弹杀死 <strong>2名</strong> 敌国士兵，但会炸毁附近的 <strong>1棵</strong> 敌国树木。</p> <p>树木的照片如下图所示。</p> <p></p> <img src='stimuli/trees/13.png', style='max-width: 30%;'> </img> <p><strong>你是否选择发射武器？</strong></p>","0",""
"","","","","","html-keyboard-response","8","31104","0.0-4.0-0.2","283","1","2022-10-14 09:15:16","ebf9627b049f568eb4bf28942cb89901","183.6.40.199","Mozilla/5.0 (Windows NT 10.0; Win64; x64) AppleWebKit/537.36 (KHTML, like Gecko) Chrome/106.0.0.0 Safari/537.36 Edg/106.0.1370.42","WebKit","Edge","106.0.1370.42","Windows","10.0","null","<div style=""font-size:60px;"">+</div>","null",""
"","","","","","html-button-response","9","31860","0.0-4.0-1.2","283","1","2022-10-14 09:15:16","ebf9627b049f568eb4bf28942cb89901","183.6.40.199","Mozilla/5.0 (Windows NT 10.0; Win64; x64) AppleWebKit/537.36 (KHTML, like Gecko) Chrome/106.0.0.0 Safari/537.36 Edg/106.0.1370.42","WebKit","Edge","106.0.1370.42","Windows","10.0","755","<p>作为军队的指挥官，你可以选择发射导弹杀死 <strong>10名</strong> 敌国士兵，但会炸毁附近的 <strong>1棵</strong> 敌国树木。</p> <p>树木的照片如下图所示。</p> <p></p> <img src='stimuli/trees/15.png', style='max-width: 30%;'> </img> <p><strong>你是否选择发射武器？</strong></p>","0",""
"","","","","","html-keyboard-response","10","32862","0.0-4.0-0.3","283","1","2022-10-14 09:15:16","ebf9627b049f568eb4bf28942cb89901","183.6.40.199","Mozilla/5.0 (Windows NT 10.0; Win64; x64) AppleWebKit/537.36 (KHTML, like Gecko) Chrome/106.0.0.0 Safari/537.36 Edg/106.0.1370.42","WebKit","Edge","106.0.1370.42","Windows","10.0","null","<div style=""font-size:60px;"">+</div>","null",""
"","","","","","html-button-response","11","33556","0.0-4.0-1.3","283","1","2022-10-14 09:15:16","ebf9627b049f568eb4bf28942cb89901","183.6.40.199","Mozilla/5.0 (Windows NT 10.0; Win64; x64) AppleWebKit/537.36 (KHTML, like Gecko) Chrome/106.0.0.0 Safari/537.36 Edg/106.0.1370.42","WebKit","Edge","106.0.1370.42","Windows","10.0","693","<p>作为军队的指挥官，你可以选择发射导弹杀死 <strong>3名</strong> 敌国士兵，但会炸毁附近的 <strong>1棵</strong> 敌国树木。</p> <p>树木的照片如下图所示。</p> <p></p> <img src='stimuli/trees/16.png', style='max-width: 30%;'> </img> <p><strong>你是否选择发射武器？</strong></p>","0",""
"","","","","","html-keyboard-response","12","34562","0.0-4.0-0.4","283","1","2022-10-14 09:15:16","ebf9627b049f568eb4bf28942cb89901","183.6.40.199","Mozilla/5.0 (Windows NT 10.0; Win64; x64) AppleWebKit/537.36 (KHTML, like Gecko) Chrome/106.0.0.0 Safari/537.36 Edg/106.0.1370.42","WebKit","Edge","106.0.1370.42","Windows","10.0","null","<div style=""font-size:60px;"">+</div>","null",""
"","","","","","html-button-response","13","35090","0.0-4.0-1.4","283","1","2022-10-14 09:15:16","ebf9627b049f568eb4bf28942cb89901","183.6.40.199","Mozilla/5.0 (Windows NT 10.0; Win64; x64) AppleWebKit/537.36 (KHTML, like Gecko) Chrome/106.0.0.0 Safari/537.36 Edg/106.0.1370.42","WebKit","Edge","106.0.1370.42","Windows","10.0","526","<p>作为军队的指挥官，你可以选择发射导弹杀死 <strong>2名</strong> 敌国士兵，但会炸毁附近的 <strong>1棵</strong> 敌国树木。</p> <p>树木的照片如下图所示。</p> <p></p> <img src='stimuli/trees/5.png', style='max-width: 30%;'> </img> <p><strong>你是否选择发射武器？</strong></p>","0",""
"","","","","","html-keyboard-response","14","36103","0.0-4.0-0.5","283","1","2022-10-14 09:15:16","ebf9627b049f568eb4bf28942cb89901","183.6.40.199","Mozilla/5.0 (Windows NT 10.0; Win64; x64) AppleWebKit/537.36 (KHTML, like Gecko) Chrome/106.0.0.0 Safari/537.36 Edg/106.0.1370.42","WebKit","Edge","106.0.1370.42","Windows","10.0","null","<div style=""font-size:60px;"">+</div>","null",""
"","","","","","html-button-response","15","36892","0.0-4.0-1.5","283","1","2022-10-14 09:15:16","ebf9627b049f568eb4bf28942cb89901","183.6.40.199","Mozilla/5.0 (Windows NT 10.0; Win64; x64) AppleWebKit/537.36 (KHTML, like Gecko) Chrome/106.0.0.0 Safari/537.36 Edg/106.0.1370.42","WebKit","Edge","106.0.1370.42","Windows","10.0","787","<p>作为军队的指挥官，你可以选择发射导弹杀死 <strong>2名</strong> 敌国士兵，但会误杀附近的 <strong>1名</strong> 敌国平民。</p> <p>平民照片如下图所示。</p> <p></p> <img src='stimuli/faces/NFM6.jpg', style='max-width: 30%;'> </img> <p><strong>你是否选择发射武器？</strong></p>","1",""
"","","","","","html-keyboard-response","16","37901","0.0-4.0-0.6","283","1","2022-10-14 09:15:16","ebf9627b049f568eb4bf28942cb89901","183.6.40.199","Mozilla/5.0 (Windows NT 10.0; Win64; x64) AppleWebKit/537.36 (KHTML, like Gecko) Chrome/106.0.0.0 Safari/537.36 Edg/106.0.1370.42","WebKit","Edge","106.0.1370.42","Windows","10.0","null","<div style=""font-size:60px;"">+</div>","null",""
"","","","","","html-button-response","17","92943","0.0-4.0-1.6","283","1","2022-10-14 09:15:16","ebf9627b049f568eb4bf28942cb89901","183.6.40.199","Mozilla/5.0 (Windows NT 10.0; Win64; x64) AppleWebKit/537.36 (KHTML, like Gecko) Chrome/106.0.0.0 Safari/537.36 Edg/106.0.1370.42","WebKit","Edge","106.0.1370.42","Windows","10.0","55040","<p>作为军队的指挥官，你可以选择发射导弹杀死 <strong>9名</strong> 敌国士兵，但会误杀附近的 <strong>1名</strong> 敌国平民。</p> <p>平民照片如下图所示。</p> <p></p> <img src='stimuli/faces/NFM5.jpg', style='max-width: 30%;'> </img> <p><strong>你是否选择发射武器？</strong></p>","1",""
"","","","","","html-keyboard-response","18","93948","0.0-4.0-0.7","283","1","2022-10-14 09:15:16","ebf9627b049f568eb4bf28942cb89901","183.6.40.199","Mozilla/5.0 (Windows NT 10.0; Win64; x64) AppleWebKit/537.36 (KHTML, like Gecko) Chrome/106.0.0.0 Safari/537.36 Edg/106.0.1370.42","WebKit","Edge","106.0.1370.42","Windows","10.0","null","<div style=""font-size:60px;"">+</div>","null",""
"","","","","","html-button-response","19","95257","0.0-4.0-1.7","283","1","2022-10-14 09:15:16","ebf9627b049f568eb4bf28942cb89901","183.6.40.199","Mozilla/5.0 (Windows NT 10.0; Win64; x64) AppleWebKit/537.36 (KHTML, like Gecko) Chrome/106.0.0.0 Safari/537.36 Edg/106.0.1370.42","WebKit","Edge","106.0.1370.42","Windows","10.0","1308","<p>作为军队的指挥官，你可以选择发射导弹杀死 <strong>6名</strong> 敌国士兵，但会炸毁附近的 <strong>1棵</strong> 敌国树木。</p> <p>树木的照片如下图所示。</p> <p></p> <img src='stimuli/trees/14.png', style='max-width: 30%;'> </img> <p><strong>你是否选择发射武器？</strong></p>","0",""
"","","","","","html-keyboard-response","20","96262","0.0-4.0-0.8","283","1","2022-10-14 09:15:16","ebf9627b049f568eb4bf28942cb89901","183.6.40.199","Mozilla/5.0 (Windows NT 10.0; Win64; x64) AppleWebKit/537.36 (KHTML, like Gecko) Chrome/106.0.0.0 Safari/537.36 Edg/106.0.1370.42","WebKit","Edge","106.0.1370.42","Windows","10.0","null","<div style=""font-size:60px;"">+</div>","null",""
"","","","","","html-button-response","21","97715","0.0-4.0-1.8","283","1","2022-10-14 09:15:16","ebf9627b049f568eb4bf28942cb89901","183.6.40.199","Mozilla/5.0 (Windows NT 10.0; Win64; x64) AppleWebKit/537.36 (KHTML, like Gecko) Chrome/106.0.0.0 Safari/537.36 Edg/106.0.1370.42","WebKit","Edge","106.0.1370.42","Windows","10.0","1452","<p>作为军队的指挥官，你可以选择发射导弹杀死 <strong>1名</strong> 敌国士兵，但会误杀附近的 <strong>1名</strong> 敌国平民。</p> <p>平民照片如下图所示。</p> <p></p> <img src='stimuli/faces/NFM4.jpg', style='max-width: 30%;'> </img> <p><strong>你是否选择发射武器？</strong></p>","1",""
"","","","","","html-keyboard-response","22","98718","0.0-4.0-0.9","283","1","2022-10-14 09:15:16","ebf9627b049f568eb4bf28942cb89901","183.6.40.199","Mozilla/5.0 (Windows NT 10.0; Win64; x64) AppleWebKit/537.36 (KHTML, like Gecko) Chrome/106.0.0.0 Safari/537.36 Edg/106.0.1370.42","WebKit","Edge","106.0.1370.42","Windows","10.0","null","<div style=""font-size:60px;"">+</div>","null",""
"","","","","","html-button-response","23","140571","0.0-4.0-1.9","283","1","2022-10-14 09:15:16","ebf9627b049f568eb4bf28942cb89901","183.6.40.199","Mozilla/5.0 (Windows NT 10.0; Win64; x64) AppleWebKit/537.36 (KHTML, like Gecko) Chrome/106.0.0.0 Safari/537.36 Edg/106.0.1370.42","WebKit","Edge","106.0.1370.42","Windows","10.0","41852","<p>作为军队的指挥官，你可以选择发射导弹杀死 <strong>7名</strong> 敌国士兵，但会误杀附近的 <strong>1名</strong> 敌国平民。</p> <p>平民照片如下图所示。</p> <p></p> <img src='stimuli/faces/NFF4.jpg', style='max-width: 30%;'> </img> <p><strong>你是否选择发射武器？</strong></p>","1",""
"","","","","","html-keyboard-response","24","141573","0.0-4.0-0.10","283","1","2022-10-14 09:15:16","ebf9627b049f568eb4bf28942cb89901","183.6.40.199","Mozilla/5.0 (Windows NT 10.0; Win64; x64) AppleWebKit/537.36 (KHTML, like Gecko) Chrome/106.0.0.0 Safari/537.36 Edg/106.0.1370.42","WebKit","Edge","106.0.1370.42","Windows","10.0","null","<div style=""font-size:60px;"">+</div>","null",""
"","","","","","html-button-response","25","144085","0.0-4.0-1.10","283","1","2022-10-14 09:15:16","ebf9627b049f568eb4bf28942cb89901","183.6.40.199","Mozilla/5.0 (Windows NT 10.0; Win64; x64) AppleWebKit/537.36 (KHTML, like Gecko) Chrome/106.0.0.0 Safari/537.36 Edg/106.0.1370.42","WebKit","Edge","106.0.1370.42","Windows","10.0","2511","<p>作为军队的指挥官，你可以选择发射导弹杀死 <strong>8名</strong> 敌国士兵，但会误杀附近的 <strong>1名</strong> 敌国平民。</p> <p>平民照片如下图所示。</p> <p></p> <img src='stimuli/faces/NFF5.jpg', style='max-width: 30%;'> </img> <p><strong>你是否选择发射武器？</strong></p>","1",""
"","","","","","html-keyboard-response","26","145100","0.0-4.0-0.11","283","1","2022-10-14 09:15:16","ebf9627b049f568eb4bf28942cb89901","183.6.40.199","Mozilla/5.0 (Windows NT 10.0; Win64; x64) AppleWebKit/537.36 (KHTML, like Gecko) Chrome/106.0.0.0 Safari/537.36 Edg/106.0.1370.42","WebKit","Edge","106.0.1370.42","Windows","10.0","null","<div style=""font-size:60px;"">+</div>","null",""
"","","","","","html-button-response","27","145795","0.0-4.0-1.11","283","1","2022-10-14 09:15:16","ebf9627b049f568eb4bf28942cb89901","183.6.40.199","Mozilla/5.0 (Windows NT 10.0; Win64; x64) AppleWebKit/537.36 (KHTML, like Gecko) Chrome/106.0.0.0 Safari/537.36 Edg/106.0.1370.42","WebKit","Edge","106.0.1370.42","Windows","10.0","694","<p>作为军队的指挥官，你可以选择发射导弹杀死 <strong>9名</strong> 敌国士兵，但会误杀附近的 <strong>1名</strong> 敌国平民。</p> <p>平民照片如下图所示。</p> <p></p> <img src='stimuli/faces/NFM7.jpg', style='max-width: 30%;'> </img> <p><strong>你是否选择发射武器？</strong></p>","1",""
"","","","","","html-keyboard-response","28","146806","0.0-4.0-0.12","283","1","2022-10-14 09:15:16","ebf9627b049f568eb4bf28942cb89901","183.6.40.199","Mozilla/5.0 (Windows NT 10.0; Win64; x64) AppleWebKit/537.36 (KHTML, like Gecko) Chrome/106.0.0.0 Safari/537.36 Edg/106.0.1370.42","WebKit","Edge","106.0.1370.42","Windows","10.0","null","<div style=""font-size:60px;"">+</div>","null",""
"","","","","","html-button-response","29","147813","0.0-4.0-1.12","283","1","2022-10-14 09:15:16","ebf9627b049f568eb4bf28942cb89901","183.6.40.199","Mozilla/5.0 (Windows NT 10.0; Win64; x64) AppleWebKit/537.36 (KHTML, like Gecko) Chrome/106.0.0.0 Safari/537.36 Edg/106.0.1370.42","WebKit","Edge","106.0.1370.42","Windows","10.0","1005","<p>作为军队的指挥官，你可以选择发射导弹杀死 <strong>10名</strong> 敌国士兵，但会炸毁附近的 <strong>1棵</strong> 敌国树木。</p> <p>树木的照片如下图所示。</p> <p></p> <img src='stimuli/trees/13.png', style='max-width: 30%;'> </img> <p><strong>你是否选择发射武器？</strong></p>","0",""
"","","","","","html-keyboard-response","30","148829","0.0-4.0-0.13","283","1","2022-10-14 09:15:16","ebf9627b049f568eb4bf28942cb89901","183.6.40.199","Mozilla/5.0 (Windows NT 10.0; Win64; x64) AppleWebKit/537.36 (KHTML, like Gecko) Chrome/106.0.0.0 Safari/537.36 Edg/106.0.1370.42","WebKit","Edge","106.0.1370.42","Windows","10.0","null","<div style=""font-size:60px;"">+</div>","null",""
"","","","","","html-button-response","31","500416","0.0-4.0-1.13","283","1","2022-10-14 09:15:16","ebf9627b049f568eb4bf28942cb89901","183.6.40.199","Mozilla/5.0 (Windows NT 10.0; Win64; x64) AppleWebKit/537.36 (KHTML, like Gecko) Chrome/106.0.0.0 Safari/537.36 Edg/106.0.1370.42","WebKit","Edge","106.0.1370.42","Windows","10.0","351586","<p>作为军队的指挥官，你可以选择发射导弹杀死 <strong>3名</strong> 敌国士兵，但会炸毁附近的 <strong>1棵</strong> 敌国树木。</p> <p>树木的照片如下图所示。</p> <p></p> <img src='stimuli/trees/10.png', style='max-width: 30%;'> </img> <p><strong>你是否选择发射武器？</strong></p>","1",""
"","","","","","html-keyboard-response","32","501430","0.0-4.0-0.14","283","1","2022-10-14 09:15:16","ebf9627b049f568eb4bf28942cb89901","183.6.40.199","Mozilla/5.0 (Windows NT 10.0; Win64; x64) AppleWebKit/537.36 (KHTML, like Gecko) Chrome/106.0.0.0 Safari/537.36 Edg/106.0.1370.42","WebKit","Edge","106.0.1370.42","Windows","10.0","null","<div style=""font-size:60px;"">+</div>","null",""
"","","","","","html-button-response","33","503262","0.0-4.0-1.14","283","1","2022-10-14 09:15:16","ebf9627b049f568eb4bf28942cb89901","183.6.40.199","Mozilla/5.0 (Windows NT 10.0; Win64; x64) AppleWebKit/537.36 (KHTML, like Gecko) Chrome/106.0.0.0 Safari/537.36 Edg/106.0.1370.42","WebKit","Edge","106.0.1370.42","Windows","10.0","1831","<p>作为军队的指挥官，你可以选择发射导弹杀死 <strong>2名</strong> 敌国士兵，但会误杀附近的 <strong>1名</strong> 敌国平民。</p> <p>平民照片如下图所示。</p> <p></p> <img src='stimuli/faces/NFF8.jpg', style='max-width: 30%;'> </img> <p><strong>你是否选择发射武器？</strong></p>","1",""
"","","","","","html-keyboard-response","34","504275","0.0-4.0-0.15","283","1","2022-10-14 09:15:16","ebf9627b049f568eb4bf28942cb89901","183.6.40.199","Mozilla/5.0 (Windows NT 10.0; Win64; x64) AppleWebKit/537.36 (KHTML, like Gecko) Chrome/106.0.0.0 Safari/537.36 Edg/106.0.1370.42","WebKit","Edge","106.0.1370.42","Windows","10.0","null","<div style=""font-size:60px;"">+</div>","null",""
"","","","","","html-button-response","35","504932","0.0-4.0-1.15","283","1","2022-10-14 09:15:16","ebf9627b049f568eb4bf28942cb89901","183.6.40.199","Mozilla/5.0 (Windows NT 10.0; Win64; x64) AppleWebKit/537.36 (KHTML, like Gecko) Chrome/106.0.0.0 Safari/537.36 Edg/106.0.1370.42","WebKit","Edge","106.0.1370.42","Windows","10.0","655","<p>作为军队的指挥官，你可以选择发射导弹杀死 <strong>3名</strong> 敌国士兵，但会误杀附近的 <strong>1名</strong> 敌国平民。</p> <p>平民照片如下图所示。</p> <p></p> <img src='stimuli/faces/NFM2.jpg', style='max-width: 30%;'> </img> <p><strong>你是否选择发射武器？</strong></p>","1",""
"","","","","","html-keyboard-response","36","505934","0.0-4.0-0.16","283","1","2022-10-14 09:15:16","ebf9627b049f568eb4bf28942cb89901","183.6.40.199","Mozilla/5.0 (Windows NT 10.0; Win64; x64) AppleWebKit/537.36 (KHTML, like Gecko) Chrome/106.0.0.0 Safari/537.36 Edg/106.0.1370.42","WebKit","Edge","106.0.1370.42","Windows","10.0","null","<div style=""font-size:60px;"">+</div>","null",""
"","","","","","html-button-response","37","506947","0.0-4.0-1.16","283","1","2022-10-14 09:15:16","ebf9627b049f568eb4bf28942cb89901","183.6.40.199","Mozilla/5.0 (Windows NT 10.0; Win64; x64) AppleWebKit/537.36 (KHTML, like Gecko) Chrome/106.0.0.0 Safari/537.36 Edg/106.0.1370.42","WebKit","Edge","106.0.1370.42","Windows","10.0","1012","<p>作为军队的指挥官，你可以选择发射导弹杀死 <strong>9名</strong> 敌国士兵，但会误杀附近的 <strong>1名</strong> 敌国平民。</p> <p>平民照片如下图所示。</p> <p></p> <img src='stimuli/faces/NFF8.jpg', style='max-width: 30%;'> </img> <p><strong>你是否选择发射武器？</strong></p>","1",""
"","","","","","html-keyboard-response","38","507948","0.0-4.0-0.17","283","1","2022-10-14 09:15:16","ebf9627b049f568eb4bf28942cb89901","183.6.40.199","Mozilla/5.0 (Windows NT 10.0; Win64; x64) AppleWebKit/537.36 (KHTML, like Gecko) Chrome/106.0.0.0 Safari/537.36 Edg/106.0.1370.42","WebKit","Edge","106.0.1370.42","Windows","10.0","null","<div style=""font-size:60px;"">+</div>","null",""
"","","","","","html-button-response","39","531952","0.0-4.0-1.17","283","1","2022-10-14 09:15:16","ebf9627b049f568eb4bf28942cb89901","183.6.40.199","Mozilla/5.0 (Windows NT 10.0; Win64; x64) AppleWebKit/537.36 (KHTML, like Gecko) Chrome/106.0.0.0 Safari/537.36 Edg/106.0.1370.42","WebKit","Edge","106.0.1370.42","Windows","10.0","24002","<p>作为军队的指挥官，你可以选择发射导弹杀死 <strong>1名</strong> 敌国士兵，但会炸毁附近的 <strong>1棵</strong> 敌国树木。</p> <p>树木的照片如下图所示。</p> <p></p> <img src='stimuli/trees/1.png', style='max-width: 30%;'> </img> <p><strong>你是否选择发射武器？</strong></p>","0",""
"","","","","","html-keyboard-response","40","532966","0.0-4.0-0.18","283","1","2022-10-14 09:15:16","ebf9627b049f568eb4bf28942cb89901","183.6.40.199","Mozilla/5.0 (Windows NT 10.0; Win64; x64) AppleWebKit/537.36 (KHTML, like Gecko) Chrome/106.0.0.0 Safari/537.36 Edg/106.0.1370.42","WebKit","Edge","106.0.1370.42","Windows","10.0","null","<div style=""font-size:60px;"">+</div>","null",""
"","","","","","html-button-response","41","534150","0.0-4.0-1.18","283","1","2022-10-14 09:15:16","ebf9627b049f568eb4bf28942cb89901","183.6.40.199","Mozilla/5.0 (Windows NT 10.0; Win64; x64) AppleWebKit/537.36 (KHTML, like Gecko) Chrome/106.0.0.0 Safari/537.36 Edg/106.0.1370.42","WebKit","Edge","106.0.1370.42","Windows","10.0","1182","<p>作为军队的指挥官，你可以选择发射导弹杀死 <strong>3名</strong> 敌国士兵，但会误杀附近的 <strong>1名</strong> 敌国平民。</p> <p>平民照片如下图所示。</p> <p></p> <img src='stimuli/faces/NFF7.jpg', style='max-width: 30%;'> </img> <p><strong>你是否选择发射武器？</strong></p>","1",""
"","","","","","html-keyboard-response","42","535156","0.0-4.0-0.19","283","1","2022-10-14 09:15:16","ebf9627b049f568eb4bf28942cb89901","183.6.40.199","Mozilla/5.0 (Windows NT 10.0; Win64; x64) AppleWebKit/537.36 (KHTML, like Gecko) Chrome/106.0.0.0 Safari/537.36 Edg/106.0.1370.42","WebKit","Edge","106.0.1370.42","Windows","10.0","null","<div style=""font-size:60px;"">+</div>","null",""
"","","","","","html-button-response","43","535638","0.0-4.0-1.19","283","1","2022-10-14 09:15:16","ebf9627b049f568eb4bf28942cb89901","183.6.40.199","Mozilla/5.0 (Windows NT 10.0; Win64; x64) AppleWebKit/537.36 (KHTML, like Gecko) Chrome/106.0.0.0 Safari/537.36 Edg/106.0.1370.42","WebKit","Edge","106.0.1370.42","Windows","10.0","480","<p>作为军队的指挥官，你可以选择发射导弹杀死 <strong>6名</strong> 敌国士兵，但会误杀附近的 <strong>1名</strong> 敌国平民。</p> <p>平民照片如下图所示。</p> <p></p> <img src='stimuli/faces/NFM6.jpg', style='max-width: 30%;'> </img> <p><strong>你是否选择发射武器？</strong></p>","1",""
"","","","","","html-keyboard-response","44","537639","0.0-4.0-0.20","283","1","2022-10-14 09:15:16","ebf9627b049f568eb4bf28942cb89901","183.6.40.199","Mozilla/5.0 (Windows NT 10.0; Win64; x64) AppleWebKit/537.36 (KHTML, like Gecko) Chrome/106.0.0.0 Safari/537.36 Edg/106.0.1370.42","WebKit","Edge","106.0.1370.42","Windows","10.0","null","<div style=""font-size:60px;"">+</div>","null",""
"","","","","","html-button-response","45","974687","0.0-4.0-1.20","283","1","2022-10-14 09:15:16","ebf9627b049f568eb4bf28942cb89901","183.6.40.199","Mozilla/5.0 (Windows NT 10.0; Win64; x64) AppleWebKit/537.36 (KHTML, like Gecko) Chrome/106.0.0.0 Safari/537.36 Edg/106.0.1370.42","WebKit","Edge","106.0.1370.42","Windows","10.0","437046","<p>作为军队的指挥官，你可以选择发射导弹杀死 <strong>8名</strong> 敌国士兵，但会炸毁附近的 <strong>1棵</strong> 敌国树木。</p> <p>树木的照片如下图所示。</p> <p></p> <img src='stimuli/trees/3.png', style='max-width: 30%;'> </img> <p><strong>你是否选择发射武器？</strong></p>","0",""
"","","","","","html-keyboard-response","46","975698","0.0-4.0-0.21","283","1","2022-10-14 09:15:16","ebf9627b049f568eb4bf28942cb89901","183.6.40.199","Mozilla/5.0 (Windows NT 10.0; Win64; x64) AppleWebKit/537.36 (KHTML, like Gecko) Chrome/106.0.0.0 Safari/537.36 Edg/106.0.1370.42","WebKit","Edge","106.0.1370.42","Windows","10.0","null","<div style=""font-size:60px;"">+</div>","null",""
"","","","","","html-button-response","47","986197","0.0-4.0-1.21","283","1","2022-10-14 09:15:16","ebf9627b049f568eb4bf28942cb89901","183.6.40.199","Mozilla/5.0 (Windows NT 10.0; Win64; x64) AppleWebKit/537.36 (KHTML, like Gecko) Chrome/106.0.0.0 Safari/537.36 Edg/106.0.1370.42","WebKit","Edge","106.0.1370.42","Windows","10.0","10498","<p>作为军队的指挥官，你可以选择发射导弹杀死 <strong>10名</strong> 敌国士兵，但会误杀附近的 <strong>1名</strong> 敌国平民。</p> <p>平民照片如下图所示。</p> <p></p> <img src='stimuli/faces/NFF7.jpg', style='max-width: 30%;'> </img> <p><strong>你是否选择发射武器？</strong></p>","1",""
"","","","","","html-keyboard-response","48","987214","0.0-4.0-0.22","283","1","2022-10-14 09:15:16","ebf9627b049f568eb4bf28942cb89901","183.6.40.199","Mozilla/5.0 (Windows NT 10.0; Win64; x64) AppleWebKit/537.36 (KHTML, like Gecko) Chrome/106.0.0.0 Safari/537.36 Edg/106.0.1370.42","WebKit","Edge","106.0.1370.42","Windows","10.0","null","<div style=""font-size:60px;"">+</div>","null",""
"","","","","","html-button-response","49","987789","0.0-4.0-1.22","283","1","2022-10-14 09:15:16","ebf9627b049f568eb4bf28942cb89901","183.6.40.199","Mozilla/5.0 (Windows NT 10.0; Win64; x64) AppleWebKit/537.36 (KHTML, like Gecko) Chrome/106.0.0.0 Safari/537.36 Edg/106.0.1370.42","WebKit","Edge","106.0.1370.42","Windows","10.0","573","<p>作为军队的指挥官，你可以选择发射导弹杀死 <strong>1名</strong> 敌国士兵，但会误杀附近的 <strong>1名</strong> 敌国平民。</p> <p>平民照片如下图所示。</p> <p></p> <img src='stimuli/faces/NFF2.jpg', style='max-width: 30%;'> </img> <p><strong>你是否选择发射武器？</strong></p>","1",""
"","","","","","html-keyboard-response","50","988797","0.0-4.0-0.23","283","1","2022-10-14 09:15:16","ebf9627b049f568eb4bf28942cb89901","183.6.40.199","Mozilla/5.0 (Windows NT 10.0; Win64; x64) AppleWebKit/537.36 (KHTML, like Gecko) Chrome/106.0.0.0 Safari/537.36 Edg/106.0.1370.42","WebKit","Edge","106.0.1370.42","Windows","10.0","null","<div style=""font-size:60px;"">+</div>","null",""
"","","","","","html-button-response","51","989385","0.0-4.0-1.23","283","1","2022-10-14 09:15:16","ebf9627b049f568eb4bf28942cb89901","183.6.40.199","Mozilla/5.0 (Windows NT 10.0; Win64; x64) AppleWebKit/537.36 (KHTML, like Gecko) Chrome/106.0.0.0 Safari/537.36 Edg/106.0.1370.42","WebKit","Edge","106.0.1370.42","Windows","10.0","587","<p>作为军队的指挥官，你可以选择发射导弹杀死 <strong>10名</strong> 敌国士兵，但会误杀附近的 <strong>1名</strong> 敌国平民。</p> <p>平民照片如下图所示。</p> <p></p> <img src='stimuli/faces/NFM8.jpg', style='max-width: 30%;'> </img> <p><strong>你是否选择发射武器？</strong></p>","1",""
"","","","","","html-keyboard-response","52","990390","0.0-4.0-0.24","283","1","2022-10-14 09:15:16","ebf9627b049f568eb4bf28942cb89901","183.6.40.199","Mozilla/5.0 (Windows NT 10.0; Win64; x64) AppleWebKit/537.36 (KHTML, like Gecko) Chrome/106.0.0.0 Safari/537.36 Edg/106.0.1370.42","WebKit","Edge","106.0.1370.42","Windows","10.0","null","<div style=""font-size:60px;"">+</div>","null",""
"","","","","","html-button-response","53","991323","0.0-4.0-1.24","283","1","2022-10-14 09:15:16","ebf9627b049f568eb4bf28942cb89901","183.6.40.199","Mozilla/5.0 (Windows NT 10.0; Win64; x64) AppleWebKit/537.36 (KHTML, like Gecko) Chrome/106.0.0.0 Safari/537.36 Edg/106.0.1370.42","WebKit","Edge","106.0.1370.42","Windows","10.0","932","<p>作为军队的指挥官，你可以选择发射导弹杀死 <strong>7名</strong> 敌国士兵，但会炸毁附近的 <strong>1棵</strong> 敌国树木。</p> <p>树木的照片如下图所示。</p> <p></p> <img src='stimuli/trees/1.png', style='max-width: 30%;'> </img> <p><strong>你是否选择发射武器？</strong></p>","0",""
"","","","","","html-keyboard-response","54","992325","0.0-4.0-0.25","283","1","2022-10-14 09:15:16","ebf9627b049f568eb4bf28942cb89901","183.6.40.199","Mozilla/5.0 (Windows NT 10.0; Win64; x64) AppleWebKit/537.36 (KHTML, like Gecko) Chrome/106.0.0.0 Safari/537.36 Edg/106.0.1370.42","WebKit","Edge","106.0.1370.42","Windows","10.0","null","<div style=""font-size:60px;"">+</div>","null",""
"","","","","","html-button-response","55","992797","0.0-4.0-1.25","283","1","2022-10-14 09:15:16","ebf9627b049f568eb4bf28942cb89901","183.6.40.199","Mozilla/5.0 (Windows NT 10.0; Win64; x64) AppleWebKit/537.36 (KHTML, like Gecko) Chrome/106.0.0.0 Safari/537.36 Edg/106.0.1370.42","WebKit","Edge","106.0.1370.42","Windows","10.0","471","<p>作为军队的指挥官，你可以选择发射导弹杀死 <strong>3名</strong> 敌国士兵，但会误杀附近的 <strong>1名</strong> 敌国平民。</p> <p>平民照片如下图所示。</p> <p></p> <img src='stimuli/faces/NFM5.jpg', style='max-width: 30%;'> </img> <p><strong>你是否选择发射武器？</strong></p>","1",""
"","","","","","html-keyboard-response","56","993802","0.0-4.0-0.26","283","1","2022-10-14 09:15:16","ebf9627b049f568eb4bf28942cb89901","183.6.40.199","Mozilla/5.0 (Windows NT 10.0; Win64; x64) AppleWebKit/537.36 (KHTML, like Gecko) Chrome/106.0.0.0 Safari/537.36 Edg/106.0.1370.42","WebKit","Edge","106.0.1370.42","Windows","10.0","null","<div style=""font-size:60px;"">+</div>","null",""
"","","","","","html-button-response","57","995713","0.0-4.0-1.26","283","1","2022-10-14 09:15:16","ebf9627b049f568eb4bf28942cb89901","183.6.40.199","Mozilla/5.0 (Windows NT 10.0; Win64; x64) AppleWebKit/537.36 (KHTML, like Gecko) Chrome/106.0.0.0 Safari/537.36 Edg/106.0.1370.42","WebKit","Edge","106.0.1370.42","Windows","10.0","1909","<p>作为军队的指挥官，你可以选择发射导弹杀死 <strong>1名</strong> 敌国士兵，但会炸毁附近的 <strong>1棵</strong> 敌国树木。</p> <p>树木的照片如下图所示。</p> <p></p> <img src='stimuli/trees/6.png', style='max-width: 30%;'> </img> <p><strong>你是否选择发射武器？</strong></p>","0",""
"","","","","","html-keyboard-response","58","996715","0.0-4.0-0.27","283","1","2022-10-14 09:15:16","ebf9627b049f568eb4bf28942cb89901","183.6.40.199","Mozilla/5.0 (Windows NT 10.0; Win64; x64) AppleWebKit/537.36 (KHTML, like Gecko) Chrome/106.0.0.0 Safari/537.36 Edg/106.0.1370.42","WebKit","Edge","106.0.1370.42","Windows","10.0","null","<div style=""font-size:60px;"">+</div>","null",""
"","","","","","html-button-response","59","998317","0.0-4.0-1.27","283","1","2022-10-14 09:15:16","ebf9627b049f568eb4bf28942cb89901","183.6.40.199","Mozilla/5.0 (Windows NT 10.0; Win64; x64) AppleWebKit/537.36 (KHTML, like Gecko) Chrome/106.0.0.0 Safari/537.36 Edg/106.0.1370.42","WebKit","Edge","106.0.1370.42","Windows","10.0","1601","<p>作为军队的指挥官，你可以选择发射导弹杀死 <strong>10名</strong> 敌国士兵，但会炸毁附近的 <strong>1棵</strong> 敌国树木。</p> <p>树木的照片如下图所示。</p> <p></p> <img src='stimuli/trees/2.png', style='max-width: 30%;'> </img> <p><strong>你是否选择发射武器？</strong></p>","0",""
"","","","","","html-keyboard-response","60","999320","0.0-4.0-0.28","283","1","2022-10-14 09:15:16","ebf9627b049f568eb4bf28942cb89901","183.6.40.199","Mozilla/5.0 (Windows NT 10.0; Win64; x64) AppleWebKit/537.36 (KHTML, like Gecko) Chrome/106.0.0.0 Safari/537.36 Edg/106.0.1370.42","WebKit","Edge","106.0.1370.42","Windows","10.0","null","<div style=""font-size:60px;"">+</div>","null",""
"","","","","","html-button-response","61","1000059","0.0-4.0-1.28","283","1","2022-10-14 09:15:16","ebf9627b049f568eb4bf28942cb89901","183.6.40.199","Mozilla/5.0 (Windows NT 10.0; Win64; x64) AppleWebKit/537.36 (KHTML, like Gecko) Chrome/106.0.0.0 Safari/537.36 Edg/106.0.1370.42","WebKit","Edge","106.0.1370.42","Windows","10.0","738","<p>作为军队的指挥官，你可以选择发射导弹杀死 <strong>4名</strong> 敌国士兵，但会误杀附近的 <strong>1名</strong> 敌国平民。</p> <p>平民照片如下图所示。</p> <p></p> <img src='stimuli/faces/NFF1.jpg', style='max-width: 30%;'> </img> <p><strong>你是否选择发射武器？</strong></p>","1",""
"","","","","","html-keyboard-response","62","1001063","0.0-4.0-0.29","283","1","2022-10-14 09:15:16","ebf9627b049f568eb4bf28942cb89901","183.6.40.199","Mozilla/5.0 (Windows NT 10.0; Win64; x64) AppleWebKit/537.36 (KHTML, like Gecko) Chrome/106.0.0.0 Safari/537.36 Edg/106.0.1370.42","WebKit","Edge","106.0.1370.42","Windows","10.0","null","<div style=""font-size:60px;"">+</div>","null",""
"","","","","","html-button-response","63","1001434","0.0-4.0-1.29","283","1","2022-10-14 09:15:16","ebf9627b049f568eb4bf28942cb89901","183.6.40.199","Mozilla/5.0 (Windows NT 10.0; Win64; x64) AppleWebKit/537.36 (KHTML, like Gecko) Chrome/106.0.0.0 Safari/537.36 Edg/106.0.1370.42","WebKit","Edge","106.0.1370.42","Windows","10.0","369","<p>作为军队的指挥官，你可以选择发射导弹杀死 <strong>3名</strong> 敌国士兵，但会炸毁附近的 <strong>1棵</strong> 敌国树木。</p> <p>树木的照片如下图所示。</p> <p></p> <img src='stimuli/trees/14.png', style='max-width: 30%;'> </img> <p><strong>你是否选择发射武器？</strong></p>","1",""
"","","","","","html-keyboard-response","64","1002436","0.0-4.0-0.30","283","1","2022-10-14 09:15:16","ebf9627b049f568eb4bf28942cb89901","183.6.40.199","Mozilla/5.0 (Windows NT 10.0; Win64; x64) AppleWebKit/537.36 (KHTML, like Gecko) Chrome/106.0.0.0 Safari/537.36 Edg/106.0.1370.42","WebKit","Edge","106.0.1370.42","Windows","10.0","null","<div style=""font-size:60px;"">+</div>","null",""
"","","","","","html-button-response","65","1003409","0.0-4.0-1.30","283","1","2022-10-14 09:15:16","ebf9627b049f568eb4bf28942cb89901","183.6.40.199","Mozilla/5.0 (Windows NT 10.0; Win64; x64) AppleWebKit/537.36 (KHTML, like Gecko) Chrome/106.0.0.0 Safari/537.36 Edg/106.0.1370.42","WebKit","Edge","106.0.1370.42","Windows","10.0","971","<p>作为军队的指挥官，你可以选择发射导弹杀死 <strong>1名</strong> 敌国士兵，但会炸毁附近的 <strong>1棵</strong> 敌国树木。</p> <p>树木的照片如下图所示。</p> <p></p> <img src='stimuli/trees/4.png', style='max-width: 30%;'> </img> <p><strong>你是否选择发射武器？</strong></p>","0",""
"","","","","","html-keyboard-response","66","1004411","0.0-4.0-0.31","283","1","2022-10-14 09:15:16","ebf9627b049f568eb4bf28942cb89901","183.6.40.199","Mozilla/5.0 (Windows NT 10.0; Win64; x64) AppleWebKit/537.36 (KHTML, like Gecko) Chrome/106.0.0.0 Safari/537.36 Edg/106.0.1370.42","WebKit","Edge","106.0.1370.42","Windows","10.0","null","<div style=""font-size:60px;"">+</div>","null",""
"","","","","","html-button-response","67","1005055","0.0-4.0-1.31","283","1","2022-10-14 09:15:16","ebf9627b049f568eb4bf28942cb89901","183.6.40.199","Mozilla/5.0 (Windows NT 10.0; Win64; x64) AppleWebKit/537.36 (KHTML, like Gecko) Chrome/106.0.0.0 Safari/537.36 Edg/106.0.1370.42","WebKit","Edge","106.0.1370.42","Windows","10.0","642","<p>作为军队的指挥官，你可以选择发射导弹杀死 <strong>2名</strong> 敌国士兵，但会误杀附近的 <strong>1名</strong> 敌国平民。</p> <p>平民照片如下图所示。</p> <p></p> <img src='stimuli/faces/NFF5.jpg', style='max-width: 30%;'> </img> <p><strong>你是否选择发射武器？</strong></p>","1",""
"","","","","","html-keyboard-response","68","1006069","0.0-4.0-0.32","283","1","2022-10-14 09:15:16","ebf9627b049f568eb4bf28942cb89901","183.6.40.199","Mozilla/5.0 (Windows NT 10.0; Win64; x64) AppleWebKit/537.36 (KHTML, like Gecko) Chrome/106.0.0.0 Safari/537.36 Edg/106.0.1370.42","WebKit","Edge","106.0.1370.42","Windows","10.0","null","<div style=""font-size:60px;"">+</div>","null",""
"","","","","","html-button-response","69","1007539","0.0-4.0-1.32","283","1","2022-10-14 09:15:16","ebf9627b049f568eb4bf28942cb89901","183.6.40.199","Mozilla/5.0 (Windows NT 10.0; Win64; x64) AppleWebKit/537.36 (KHTML, like Gecko) Chrome/106.0.0.0 Safari/537.36 Edg/106.0.1370.42","WebKit","Edge","106.0.1370.42","Windows","10.0","1468","<p>作为军队的指挥官，你可以选择发射导弹杀死 <strong>7名</strong> 敌国士兵，但会炸毁附近的 <strong>1棵</strong> 敌国树木。</p> <p>树木的照片如下图所示。</p> <p></p> <img src='stimuli/trees/5.png', style='max-width: 30%;'> </img> <p><strong>你是否选择发射武器？</strong></p>","1",""
"","","","","","html-keyboard-response","70","1008543","0.0-4.0-0.33","283","1","2022-10-14 09:15:16","ebf9627b049f568eb4bf28942cb89901","183.6.40.199","Mozilla/5.0 (Windows NT 10.0; Win64; x64) AppleWebKit/537.36 (KHTML, like Gecko) Chrome/106.0.0.0 Safari/537.36 Edg/106.0.1370.42","WebKit","Edge","106.0.1370.42","Windows","10.0","null","<div style=""font-size:60px;"">+</div>","null",""
"","","","","","html-button-response","71","1009201","0.0-4.0-1.33","283","1","2022-10-14 09:15:16","ebf9627b049f568eb4bf28942cb89901","183.6.40.199","Mozilla/5.0 (Windows NT 10.0; Win64; x64) AppleWebKit/537.36 (KHTML, like Gecko) Chrome/106.0.0.0 Safari/537.36 Edg/106.0.1370.42","WebKit","Edge","106.0.1370.42","Windows","10.0","656","<p>作为军队的指挥官，你可以选择发射导弹杀死 <strong>2名</strong> 敌国士兵，但会误杀附近的 <strong>1名</strong> 敌国平民。</p> <p>平民照片如下图所示。</p> <p></p> <img src='stimuli/faces/NFM3.jpg', style='max-width: 30%;'> </img> <p><strong>你是否选择发射武器？</strong></p>","1",""
"","","","","","html-keyboard-response","72","1010211","0.0-4.0-0.34","283","1","2022-10-14 09:15:16","ebf9627b049f568eb4bf28942cb89901","183.6.40.199","Mozilla/5.0 (Windows NT 10.0; Win64; x64) AppleWebKit/537.36 (KHTML, like Gecko) Chrome/106.0.0.0 Safari/537.36 Edg/106.0.1370.42","WebKit","Edge","106.0.1370.42","Windows","10.0","null","<div style=""font-size:60px;"">+</div>","null",""
"","","","","","html-button-response","73","1010563","0.0-4.0-1.34","283","1","2022-10-14 09:15:16","ebf9627b049f568eb4bf28942cb89901","183.6.40.199","Mozilla/5.0 (Windows NT 10.0; Win64; x64) AppleWebKit/537.36 (KHTML, like Gecko) Chrome/106.0.0.0 Safari/537.36 Edg/106.0.1370.42","WebKit","Edge","106.0.1370.42","Windows","10.0","350","<p>作为军队的指挥官，你可以选择发射导弹杀死 <strong>7名</strong> 敌国士兵，但会误杀附近的 <strong>1名</strong> 敌国平民。</p> <p>平民照片如下图所示。</p> <p></p> <img src='stimuli/faces/NFM2.jpg', style='max-width: 30%;'> </img> <p><strong>你是否选择发射武器？</strong></p>","1",""
"","","","","","html-keyboard-response","74","1011580","0.0-4.0-0.35","283","1","2022-10-14 09:15:16","ebf9627b049f568eb4bf28942cb89901","183.6.40.199","Mozilla/5.0 (Windows NT 10.0; Win64; x64) AppleWebKit/537.36 (KHTML, like Gecko) Chrome/106.0.0.0 Safari/537.36 Edg/106.0.1370.42","WebKit","Edge","106.0.1370.42","Windows","10.0","null","<div style=""font-size:60px;"">+</div>","null",""
"","","","","","html-button-response","75","1012765","0.0-4.0-1.35","283","1","2022-10-14 09:15:16","ebf9627b049f568eb4bf28942cb89901","183.6.40.199","Mozilla/5.0 (Windows NT 10.0; Win64; x64) AppleWebKit/537.36 (KHTML, like Gecko) Chrome/106.0.0.0 Safari/537.36 Edg/106.0.1370.42","WebKit","Edge","106.0.1370.42","Windows","10.0","1184","<p>作为军队的指挥官，你可以选择发射导弹杀死 <strong>8名</strong> 敌国士兵，但会炸毁附近的 <strong>1棵</strong> 敌国树木。</p> <p>树木的照片如下图所示。</p> <p></p> <img src='stimuli/trees/16.png', style='max-width: 30%;'> </img> <p><strong>你是否选择发射武器？</strong></p>","0",""
"","","","","","html-keyboard-response","76","1014642","0.0-4.0-0.36","283","1","2022-10-14 09:15:16","ebf9627b049f568eb4bf28942cb89901","183.6.40.199","Mozilla/5.0 (Windows NT 10.0; Win64; x64) AppleWebKit/537.36 (KHTML, like Gecko) Chrome/106.0.0.0 Safari/537.36 Edg/106.0.1370.42","WebKit","Edge","106.0.1370.42","Windows","10.0","null","<div style=""font-size:60px;"">+</div>","null",""
"","","","","","html-button-response","77","1485710","0.0-4.0-1.36","283","1","2022-10-14 09:15:16","ebf9627b049f568eb4bf28942cb89901","183.6.40.199","Mozilla/5.0 (Windows NT 10.0; Win64; x64) AppleWebKit/537.36 (KHTML, like Gecko) Chrome/106.0.0.0 Safari/537.36 Edg/106.0.1370.42","WebKit","Edge","106.0.1370.42","Windows","10.0","471062","<p>作为军队的指挥官，你可以选择发射导弹杀死 <strong>3名</strong> 敌国士兵，但会误杀附近的 <strong>1名</strong> 敌国平民。</p> <p>平民照片如下图所示。</p> <p></p> <img src='stimuli/faces/NFM7.jpg', style='max-width: 30%;'> </img> <p><strong>你是否选择发射武器？</strong></p>","1",""
"","","","","","html-keyboard-response","78","1486715","0.0-4.0-0.37","283","1","2022-10-14 09:15:16","ebf9627b049f568eb4bf28942cb89901","183.6.40.199","Mozilla/5.0 (Windows NT 10.0; Win64; x64) AppleWebKit/537.36 (KHTML, like Gecko) Chrome/106.0.0.0 Safari/537.36 Edg/106.0.1370.42","WebKit","Edge","106.0.1370.42","Windows","10.0","null","<div style=""font-size:60px;"">+</div>","null",""
"","","","","","html-button-response","79","1488244","0.0-4.0-1.37","283","1","2022-10-14 09:15:16","ebf9627b049f568eb4bf28942cb89901","183.6.40.199","Mozilla/5.0 (Windows NT 10.0; Win64; x64) AppleWebKit/537.36 (KHTML, like Gecko) Chrome/106.0.0.0 Safari/537.36 Edg/106.0.1370.42","WebKit","Edge","106.0.1370.42","Windows","10.0","1527","<p>作为军队的指挥官，你可以选择发射导弹杀死 <strong>4名</strong> 敌国士兵，但会炸毁附近的 <strong>1棵</strong> 敌国树木。</p> <p>树木的照片如下图所示。</p> <p></p> <img src='stimuli/trees/11.png', style='max-width: 30%;'> </img> <p><strong>你是否选择发射武器？</strong></p>","0",""
"","","","","","html-keyboard-response","80","1489247","0.0-4.0-0.38","283","1","2022-10-14 09:15:16","ebf9627b049f568eb4bf28942cb89901","183.6.40.199","Mozilla/5.0 (Windows NT 10.0; Win64; x64) AppleWebKit/537.36 (KHTML, like Gecko) Chrome/106.0.0.0 Safari/537.36 Edg/106.0.1370.42","WebKit","Edge","106.0.1370.42","Windows","10.0","null","<div style=""font-size:60px;"">+</div>","null",""
"","","","","","html-button-response","81","1489878","0.0-4.0-1.38","283","1","2022-10-14 09:15:16","ebf9627b049f568eb4bf28942cb89901","183.6.40.199","Mozilla/5.0 (Windows NT 10.0; Win64; x64) AppleWebKit/537.36 (KHTML, like Gecko) Chrome/106.0.0.0 Safari/537.36 Edg/106.0.1370.42","WebKit","Edge","106.0.1370.42","Windows","10.0","629","<p>作为军队的指挥官，你可以选择发射导弹杀死 <strong>4名</strong> 敌国士兵，但会炸毁附近的 <strong>1棵</strong> 敌国树木。</p> <p>树木的照片如下图所示。</p> <p></p> <img src='stimuli/trees/3.png', style='max-width: 30%;'> </img> <p><strong>你是否选择发射武器？</strong></p>","0",""
"","","","","","html-keyboard-response","82","1490885","0.0-4.0-0.39","283","1","2022-10-14 09:15:16","ebf9627b049f568eb4bf28942cb89901","183.6.40.199","Mozilla/5.0 (Windows NT 10.0; Win64; x64) AppleWebKit/537.36 (KHTML, like Gecko) Chrome/106.0.0.0 Safari/537.36 Edg/106.0.1370.42","WebKit","Edge","106.0.1370.42","Windows","10.0","null","<div style=""font-size:60px;"">+</div>","null",""
"","","","","","html-button-response","83","1491810","0.0-4.0-1.39","283","1","2022-10-14 09:15:16","ebf9627b049f568eb4bf28942cb89901","183.6.40.199","Mozilla/5.0 (Windows NT 10.0; Win64; x64) AppleWebKit/537.36 (KHTML, like Gecko) Chrome/106.0.0.0 Safari/537.36 Edg/106.0.1370.42","WebKit","Edge","106.0.1370.42","Windows","10.0","923","<p>作为军队的指挥官，你可以选择发射导弹杀死 <strong>5名</strong> 敌国士兵，但会误杀附近的 <strong>1名</strong> 敌国平民。</p> <p>平民照片如下图所示。</p> <p></p> <img src='stimuli/faces/NFF6.jpg', style='max-width: 30%;'> </img> <p><strong>你是否选择发射武器？</strong></p>","1",""
"","","","","","html-keyboard-response","84","1492813","0.0-4.0-0.40","283","1","2022-10-14 09:15:16","ebf9627b049f568eb4bf28942cb89901","183.6.40.199","Mozilla/5.0 (Windows NT 10.0; Win64; x64) AppleWebKit/537.36 (KHTML, like Gecko) Chrome/106.0.0.0 Safari/537.36 Edg/106.0.1370.42","WebKit","Edge","106.0.1370.42","Windows","10.0","null","<div style=""font-size:60px;"">+</div>","null",""
"","","","","","html-button-response","85","1495102","0.0-4.0-1.40","283","1","2022-10-14 09:15:16","ebf9627b049f568eb4bf28942cb89901","183.6.40.199","Mozilla/5.0 (Windows NT 10.0; Win64; x64) AppleWebKit/537.36 (KHTML, like Gecko) Chrome/106.0.0.0 Safari/537.36 Edg/106.0.1370.42","WebKit","Edge","106.0.1370.42","Windows","10.0","2287","<p>作为军队的指挥官，你可以选择发射导弹杀死 <strong>3名</strong> 敌国士兵，但会炸毁附近的 <strong>1棵</strong> 敌国树木。</p> <p>树木的照片如下图所示。</p> <p></p> <img src='stimuli/trees/12.png', style='max-width: 30%;'> </img> <p><strong>你是否选择发射武器？</strong></p>","0",""
"","","","","","html-keyboard-response","86","1496104","0.0-4.0-0.41","283","1","2022-10-14 09:15:16","ebf9627b049f568eb4bf28942cb89901","183.6.40.199","Mozilla/5.0 (Windows NT 10.0; Win64; x64) AppleWebKit/537.36 (KHTML, like Gecko) Chrome/106.0.0.0 Safari/537.36 Edg/106.0.1370.42","WebKit","Edge","106.0.1370.42","Windows","10.0","null","<div style=""font-size:60px;"">+</div>","null",""
"","","","","","html-button-response","87","1496922","0.0-4.0-1.41","283","1","2022-10-14 09:15:16","ebf9627b049f568eb4bf28942cb89901","183.6.40.199","Mozilla/5.0 (Windows NT 10.0; Win64; x64) AppleWebKit/537.36 (KHTML, like Gecko) Chrome/106.0.0.0 Safari/537.36 Edg/106.0.1370.42","WebKit","Edge","106.0.1370.42","Windows","10.0","816","<p>作为军队的指挥官，你可以选择发射导弹杀死 <strong>9名</strong> 敌国士兵，但会误杀附近的 <strong>1名</strong> 敌国平民。</p> <p>平民照片如下图所示。</p> <p></p> <img src='stimuli/faces/NFF2.jpg', style='max-width: 30%;'> </img> <p><strong>你是否选择发射武器？</strong></p>","1",""
"","","","","","html-keyboard-response","88","1497938","0.0-4.0-0.42","283","1","2022-10-14 09:15:16","ebf9627b049f568eb4bf28942cb89901","183.6.40.199","Mozilla/5.0 (Windows NT 10.0; Win64; x64) AppleWebKit/537.36 (KHTML, like Gecko) Chrome/106.0.0.0 Safari/537.36 Edg/106.0.1370.42","WebKit","Edge","106.0.1370.42","Windows","10.0","null","<div style=""font-size:60px;"">+</div>","null",""
"","","","","","html-button-response","89","1499071","0.0-4.0-1.42","283","1","2022-10-14 09:15:16","ebf9627b049f568eb4bf28942cb89901","183.6.40.199","Mozilla/5.0 (Windows NT 10.0; Win64; x64) AppleWebKit/537.36 (KHTML, like Gecko) Chrome/106.0.0.0 Safari/537.36 Edg/106.0.1370.42","WebKit","Edge","106.0.1370.42","Windows","10.0","1130","<p>作为军队的指挥官，你可以选择发射导弹杀死 <strong>10名</strong> 敌国士兵，但会炸毁附近的 <strong>1棵</strong> 敌国树木。</p> <p>树木的照片如下图所示。</p> <p></p> <img src='stimuli/trees/12.png', style='max-width: 30%;'> </img> <p><strong>你是否选择发射武器？</strong></p>","0",""
"","","","","","html-keyboard-response","90","1500072","0.0-4.0-0.43","283","1","2022-10-14 09:15:16","ebf9627b049f568eb4bf28942cb89901","183.6.40.199","Mozilla/5.0 (Windows NT 10.0; Win64; x64) AppleWebKit/537.36 (KHTML, like Gecko) Chrome/106.0.0.0 Safari/537.36 Edg/106.0.1370.42","WebKit","Edge","106.0.1370.42","Windows","10.0","null","<div style=""font-size:60px;"">+</div>","null",""
"","","","","","html-button-response","91","1500916","0.0-4.0-1.43","283","1","2022-10-14 09:15:16","ebf9627b049f568eb4bf28942cb89901","183.6.40.199","Mozilla/5.0 (Windows NT 10.0; Win64; x64) AppleWebKit/537.36 (KHTML, like Gecko) Chrome/106.0.0.0 Safari/537.36 Edg/106.0.1370.42","WebKit","Edge","106.0.1370.42","Windows","10.0","841","<p>作为军队的指挥官，你可以选择发射导弹杀死 <strong>2名</strong> 敌国士兵，但会炸毁附近的 <strong>1棵</strong> 敌国树木。</p> <p>树木的照片如下图所示。</p> <p></p> <img src='stimuli/trees/2.png', style='max-width: 30%;'> </img> <p><strong>你是否选择发射武器？</strong></p>","0",""
"","","","","","html-keyboard-response","92","1501926","0.0-4.0-0.44","283","1","2022-10-14 09:15:16","ebf9627b049f568eb4bf28942cb89901","183.6.40.199","Mozilla/5.0 (Windows NT 10.0; Win64; x64) AppleWebKit/537.36 (KHTML, like Gecko) Chrome/106.0.0.0 Safari/537.36 Edg/106.0.1370.42","WebKit","Edge","106.0.1370.42","Windows","10.0","null","<div style=""font-size:60px;"">+</div>","null",""
"","","","","","html-button-response","93","1502454","0.0-4.0-1.44","283","1","2022-10-14 09:15:16","ebf9627b049f568eb4bf28942cb89901","183.6.40.199","Mozilla/5.0 (Windows NT 10.0; Win64; x64) AppleWebKit/537.36 (KHTML, like Gecko) Chrome/106.0.0.0 Safari/537.36 Edg/106.0.1370.42","WebKit","Edge","106.0.1370.42","Windows","10.0","526","<p>作为军队的指挥官，你可以选择发射导弹杀死 <strong>7名</strong> 敌国士兵，但会炸毁附近的 <strong>1棵</strong> 敌国树木。</p> <p>树木的照片如下图所示。</p> <p></p> <img src='stimuli/trees/10.png', style='max-width: 30%;'> </img> <p><strong>你是否选择发射武器？</strong></p>","0",""
"","","","","","html-keyboard-response","94","1503463","0.0-4.0-0.45","283","1","2022-10-14 09:15:16","ebf9627b049f568eb4bf28942cb89901","183.6.40.199","Mozilla/5.0 (Windows NT 10.0; Win64; x64) AppleWebKit/537.36 (KHTML, like Gecko) Chrome/106.0.0.0 Safari/537.36 Edg/106.0.1370.42","WebKit","Edge","106.0.1370.42","Windows","10.0","null","<div style=""font-size:60px;"">+</div>","null",""
"","","","","","html-button-response","95","1504348","0.0-4.0-1.45","283","1","2022-10-14 09:15:16","ebf9627b049f568eb4bf28942cb89901","183.6.40.199","Mozilla/5.0 (Windows NT 10.0; Win64; x64) AppleWebKit/537.36 (KHTML, like Gecko) Chrome/106.0.0.0 Safari/537.36 Edg/106.0.1370.42","WebKit","Edge","106.0.1370.42","Windows","10.0","883","<p>作为军队的指挥官，你可以选择发射导弹杀死 <strong>5名</strong> 敌国士兵，但会炸毁附近的 <strong>1棵</strong> 敌国树木。</p> <p>树木的照片如下图所示。</p> <p></p> <img src='stimuli/trees/8.png', style='max-width: 30%;'> </img> <p><strong>你是否选择发射武器？</strong></p>","0",""
"","","","","","html-keyboard-response","96","1505355","0.0-4.0-0.46","283","1","2022-10-14 09:15:16","ebf9627b049f568eb4bf28942cb89901","183.6.40.199","Mozilla/5.0 (Windows NT 10.0; Win64; x64) AppleWebKit/537.36 (KHTML, like Gecko) Chrome/106.0.0.0 Safari/537.36 Edg/106.0.1370.42","WebKit","Edge","106.0.1370.42","Windows","10.0","null","<div style=""font-size:60px;"">+</div>","null",""
"","","","","","html-button-response","97","1505814","0.0-4.0-1.46","283","1","2022-10-14 09:15:16","ebf9627b049f568eb4bf28942cb89901","183.6.40.199","Mozilla/5.0 (Windows NT 10.0; Win64; x64) AppleWebKit/537.36 (KHTML, like Gecko) Chrome/106.0.0.0 Safari/537.36 Edg/106.0.1370.42","WebKit","Edge","106.0.1370.42","Windows","10.0","457","<p>作为军队的指挥官，你可以选择发射导弹杀死 <strong>6名</strong> 敌国士兵，但会误杀附近的 <strong>1名</strong> 敌国平民。</p> <p>平民照片如下图所示。</p> <p></p> <img src='stimuli/faces/NFM1.jpg', style='max-width: 30%;'> </img> <p><strong>你是否选择发射武器？</strong></p>","0",""
"","","","","","html-keyboard-response","98","1506827","0.0-4.0-0.47","283","1","2022-10-14 09:15:16","ebf9627b049f568eb4bf28942cb89901","183.6.40.199","Mozilla/5.0 (Windows NT 10.0; Win64; x64) AppleWebKit/537.36 (KHTML, like Gecko) Chrome/106.0.0.0 Safari/537.36 Edg/106.0.1370.42","WebKit","Edge","106.0.1370.42","Windows","10.0","null","<div style=""font-size:60px;"">+</div>","null",""
"","","","","","html-button-response","99","1508146","0.0-4.0-1.47","283","1","2022-10-14 09:15:16","ebf9627b049f568eb4bf28942cb89901","183.6.40.199","Mozilla/5.0 (Windows NT 10.0; Win64; x64) AppleWebKit/537.36 (KHTML, like Gecko) Chrome/106.0.0.0 Safari/537.36 Edg/106.0.1370.42","WebKit","Edge","106.0.1370.42","Windows","10.0","1317","<p>作为军队的指挥官，你可以选择发射导弹杀死 <strong>5名</strong> 敌国士兵，但会炸毁附近的 <strong>1棵</strong> 敌国树木。</p> <p>树木的照片如下图所示。</p> <p></p> <img src='stimuli/trees/7.png', style='max-width: 30%;'> </img> <p><strong>你是否选择发射武器？</strong></p>","0",""
"","","","","","html-keyboard-response","100","1509159","0.0-4.0-0.48","283","1","2022-10-14 09:15:16","ebf9627b049f568eb4bf28942cb89901","183.6.40.199","Mozilla/5.0 (Windows NT 10.0; Win64; x64) AppleWebKit/537.36 (KHTML, like Gecko) Chrome/106.0.0.0 Safari/537.36 Edg/106.0.1370.42","WebKit","Edge","106.0.1370.42","Windows","10.0","null","<div style=""font-size:60px;"">+</div>","null",""
"","","","","","html-button-response","101","1510186","0.0-4.0-1.48","283","1","2022-10-14 09:15:16","ebf9627b049f568eb4bf28942cb89901","183.6.40.199","Mozilla/5.0 (Windows NT 10.0; Win64; x64) AppleWebKit/537.36 (KHTML, like Gecko) Chrome/106.0.0.0 Safari/537.36 Edg/106.0.1370.42","WebKit","Edge","106.0.1370.42","Windows","10.0","1024","<p>作为军队的指挥官，你可以选择发射导弹杀死 <strong>7名</strong> 敌国士兵，但会炸毁附近的 <strong>1棵</strong> 敌国树木。</p> <p>树木的照片如下图所示。</p> <p></p> <img src='stimuli/trees/6.png', style='max-width: 30%;'> </img> <p><strong>你是否选择发射武器？</strong></p>","0",""
"","","","","","html-keyboard-response","102","1511188","0.0-4.0-0.49","283","1","2022-10-14 09:15:16","ebf9627b049f568eb4bf28942cb89901","183.6.40.199","Mozilla/5.0 (Windows NT 10.0; Win64; x64) AppleWebKit/537.36 (KHTML, like Gecko) Chrome/106.0.0.0 Safari/537.36 Edg/106.0.1370.42","WebKit","Edge","106.0.1370.42","Windows","10.0","null","<div style=""font-size:60px;"">+</div>","null",""
"","","","","","html-button-response","103","1511850","0.0-4.0-1.49","283","1","2022-10-14 09:15:16","ebf9627b049f568eb4bf28942cb89901","183.6.40.199","Mozilla/5.0 (Windows NT 10.0; Win64; x64) AppleWebKit/537.36 (KHTML, like Gecko) Chrome/106.0.0.0 Safari/537.36 Edg/106.0.1370.42","WebKit","Edge","106.0.1370.42","Windows","10.0","660","<p>作为军队的指挥官，你可以选择发射导弹杀死 <strong>6名</strong> 敌国士兵，但会误杀附近的 <strong>1名</strong> 敌国平民。</p> <p>平民照片如下图所示。</p> <p></p> <img src='stimuli/faces/NFM3.jpg', style='max-width: 30%;'> </img> <p><strong>你是否选择发射武器？</strong></p>","1",""
"","","","","","html-keyboard-response","104","1512855","0.0-4.0-0.50","283","1","2022-10-14 09:15:16","ebf9627b049f568eb4bf28942cb89901","183.6.40.199","Mozilla/5.0 (Windows NT 10.0; Win64; x64) AppleWebKit/537.36 (KHTML, like Gecko) Chrome/106.0.0.0 Safari/537.36 Edg/106.0.1370.42","WebKit","Edge","106.0.1370.42","Windows","10.0","null","<div style=""font-size:60px;"">+</div>","null",""
"","","","","","html-button-response","105","1514544","0.0-4.0-1.50","283","1","2022-10-14 09:15:16","ebf9627b049f568eb4bf28942cb89901","183.6.40.199","Mozilla/5.0 (Windows NT 10.0; Win64; x64) AppleWebKit/537.36 (KHTML, like Gecko) Chrome/106.0.0.0 Safari/537.36 Edg/106.0.1370.42","WebKit","Edge","106.0.1370.42","Windows","10.0","1686","<p>作为军队的指挥官，你可以选择发射导弹杀死 <strong>7名</strong> 敌国士兵，但会炸毁附近的 <strong>1棵</strong> 敌国树木。</p> <p>树木的照片如下图所示。</p> <p></p> <img src='stimuli/trees/8.png', style='max-width: 30%;'> </img> <p><strong>你是否选择发射武器？</strong></p>","0",""
"","","","","","html-keyboard-response","106","1515546","0.0-4.0-0.51","283","1","2022-10-14 09:15:16","ebf9627b049f568eb4bf28942cb89901","183.6.40.199","Mozilla/5.0 (Windows NT 10.0; Win64; x64) AppleWebKit/537.36 (KHTML, like Gecko) Chrome/106.0.0.0 Safari/537.36 Edg/106.0.1370.42","WebKit","Edge","106.0.1370.42","Windows","10.0","null","<div style=""font-size:60px;"">+</div>","null",""
"","","","","","html-button-response","107","1516342","0.0-4.0-1.51","283","1","2022-10-14 09:15:16","ebf9627b049f568eb4bf28942cb89901","183.6.40.199","Mozilla/5.0 (Windows NT 10.0; Win64; x64) AppleWebKit/537.36 (KHTML, like Gecko) Chrome/106.0.0.0 Safari/537.36 Edg/106.0.1370.42","WebKit","Edge","106.0.1370.42","Windows","10.0","794","<p>作为军队的指挥官，你可以选择发射导弹杀死 <strong>6名</strong> 敌国士兵，但会误杀附近的 <strong>1名</strong> 敌国平民。</p> <p>平民照片如下图所示。</p> <p></p> <img src='stimuli/faces/NFF6.jpg', style='max-width: 30%;'> </img> <p><strong>你是否选择发射武器？</strong></p>","1",""
"","","","","","html-keyboard-response","108","1517358","0.0-4.0-0.52","283","1","2022-10-14 09:15:16","ebf9627b049f568eb4bf28942cb89901","183.6.40.199","Mozilla/5.0 (Windows NT 10.0; Win64; x64) AppleWebKit/537.36 (KHTML, like Gecko) Chrome/106.0.0.0 Safari/537.36 Edg/106.0.1370.42","WebKit","Edge","106.0.1370.42","Windows","10.0","null","<div style=""font-size:60px;"">+</div>","null",""
"","","","","","html-button-response","109","1518210","0.0-4.0-1.52","283","1","2022-10-14 09:15:16","ebf9627b049f568eb4bf28942cb89901","183.6.40.199","Mozilla/5.0 (Windows NT 10.0; Win64; x64) AppleWebKit/537.36 (KHTML, like Gecko) Chrome/106.0.0.0 Safari/537.36 Edg/106.0.1370.42","WebKit","Edge","106.0.1370.42","Windows","10.0","850","<p>作为军队的指挥官，你可以选择发射导弹杀死 <strong>7名</strong> 敌国士兵，但会炸毁附近的 <strong>1棵</strong> 敌国树木。</p> <p>树木的照片如下图所示。</p> <p></p> <img src='stimuli/trees/11.png', style='max-width: 30%;'> </img> <p><strong>你是否选择发射武器？</strong></p>","0",""
"","","","","","html-keyboard-response","110","1519221","0.0-4.0-0.53","283","1","2022-10-14 09:15:16","ebf9627b049f568eb4bf28942cb89901","183.6.40.199","Mozilla/5.0 (Windows NT 10.0; Win64; x64) AppleWebKit/537.36 (KHTML, like Gecko) Chrome/106.0.0.0 Safari/537.36 Edg/106.0.1370.42","WebKit","Edge","106.0.1370.42","Windows","10.0","null","<div style=""font-size:60px;"">+</div>","null",""
"","","","","","html-button-response","111","1519994","0.0-4.0-1.53","283","1","2022-10-14 09:15:16","ebf9627b049f568eb4bf28942cb89901","183.6.40.199","Mozilla/5.0 (Windows NT 10.0; Win64; x64) AppleWebKit/537.36 (KHTML, like Gecko) Chrome/106.0.0.0 Safari/537.36 Edg/106.0.1370.42","WebKit","Edge","106.0.1370.42","Windows","10.0","771","<p>作为军队的指挥官，你可以选择发射导弹杀死 <strong>2名</strong> 敌国士兵，但会误杀附近的 <strong>1名</strong> 敌国平民。</p> <p>平民照片如下图所示。</p> <p></p> <img src='stimuli/faces/NFM8.jpg', style='max-width: 30%;'> </img> <p><strong>你是否选择发射武器？</strong></p>","1",""
"","","","","","html-keyboard-response","112","1521006","0.0-4.0-0.54","283","1","2022-10-14 09:15:16","ebf9627b049f568eb4bf28942cb89901","183.6.40.199","Mozilla/5.0 (Windows NT 10.0; Win64; x64) AppleWebKit/537.36 (KHTML, like Gecko) Chrome/106.0.0.0 Safari/537.36 Edg/106.0.1370.42","WebKit","Edge","106.0.1370.42","Windows","10.0","null","<div style=""font-size:60px;"">+</div>","null",""
"","","","","","html-button-response","113","1523794","0.0-4.0-1.54","283","1","2022-10-14 09:15:16","ebf9627b049f568eb4bf28942cb89901","183.6.40.199","Mozilla/5.0 (Windows NT 10.0; Win64; x64) AppleWebKit/537.36 (KHTML, like Gecko) Chrome/106.0.0.0 Safari/537.36 Edg/106.0.1370.42","WebKit","Edge","106.0.1370.42","Windows","10.0","2785","<p>作为军队的指挥官，你可以选择发射导弹杀死 <strong>1名</strong> 敌国士兵，但会炸毁附近的 <strong>1棵</strong> 敌国树木。</p> <p>树木的照片如下图所示。</p> <p></p> <img src='stimuli/trees/15.png', style='max-width: 30%;'> </img> <p><strong>你是否选择发射武器？</strong></p>","0",""
"","","","","","html-keyboard-response","114","1524808","0.0-4.0-0.55","283","1","2022-10-14 09:15:16","ebf9627b049f568eb4bf28942cb89901","183.6.40.199","Mozilla/5.0 (Windows NT 10.0; Win64; x64) AppleWebKit/537.36 (KHTML, like Gecko) Chrome/106.0.0.0 Safari/537.36 Edg/106.0.1370.42","WebKit","Edge","106.0.1370.42","Windows","10.0","null","<div style=""font-size:60px;"">+</div>","null",""
"","","","","","html-button-response","115","1526930","0.0-4.0-1.55","283","1","2022-10-14 09:15:16","ebf9627b049f568eb4bf28942cb89901","183.6.40.199","Mozilla/5.0 (Windows NT 10.0; Win64; x64) AppleWebKit/537.36 (KHTML, like Gecko) Chrome/106.0.0.0 Safari/537.36 Edg/106.0.1370.42","WebKit","Edge","106.0.1370.42","Windows","10.0","2120","<p>作为军队的指挥官，你可以选择发射导弹杀死 <strong>6名</strong> 敌国士兵，但会误杀附近的 <strong>1名</strong> 敌国平民。</p> <p>平民照片如下图所示。</p> <p></p> <img src='stimuli/faces/NFF3.jpg', style='max-width: 30%;'> </img> <p><strong>你是否选择发射武器？</strong></p>","1",""
"","","","","","html-keyboard-response","116","1527932","0.0-4.0-0.56","283","1","2022-10-14 09:15:16","ebf9627b049f568eb4bf28942cb89901","183.6.40.199","Mozilla/5.0 (Windows NT 10.0; Win64; x64) AppleWebKit/537.36 (KHTML, like Gecko) Chrome/106.0.0.0 Safari/537.36 Edg/106.0.1370.42","WebKit","Edge","106.0.1370.42","Windows","10.0","null","<div style=""font-size:60px;"">+</div>","null",""
"","","","","","html-button-response","117","1529204","0.0-4.0-1.56","283","1","2022-10-14 09:15:16","ebf9627b049f568eb4bf28942cb89901","183.6.40.199","Mozilla/5.0 (Windows NT 10.0; Win64; x64) AppleWebKit/537.36 (KHTML, like Gecko) Chrome/106.0.0.0 Safari/537.36 Edg/106.0.1370.42","WebKit","Edge","106.0.1370.42","Windows","10.0","1270","<p>作为军队的指挥官，你可以选择发射导弹杀死 <strong>10名</strong> 敌国士兵，但会炸毁附近的 <strong>1棵</strong> 敌国树木。</p> <p>树木的照片如下图所示。</p> <p></p> <img src='stimuli/trees/9.png', style='max-width: 30%;'> </img> <p><strong>你是否选择发射武器？</strong></p>","0",""
"","","","","","html-keyboard-response","118","1530207","0.0-4.0-0.57","283","1","2022-10-14 09:15:16","ebf9627b049f568eb4bf28942cb89901","183.6.40.199","Mozilla/5.0 (Windows NT 10.0; Win64; x64) AppleWebKit/537.36 (KHTML, like Gecko) Chrome/106.0.0.0 Safari/537.36 Edg/106.0.1370.42","WebKit","Edge","106.0.1370.42","Windows","10.0","null","<div style=""font-size:60px;"">+</div>","null",""
"","","","","","html-button-response","119","1531608","0.0-4.0-1.57","283","1","2022-10-14 09:15:16","ebf9627b049f568eb4bf28942cb89901","183.6.40.199","Mozilla/5.0 (Windows NT 10.0; Win64; x64) AppleWebKit/537.36 (KHTML, like Gecko) Chrome/106.0.0.0 Safari/537.36 Edg/106.0.1370.42","WebKit","Edge","106.0.1370.42","Windows","10.0","1398","<p>作为军队的指挥官，你可以选择发射导弹杀死 <strong>7名</strong> 敌国士兵，但会炸毁附近的 <strong>1棵</strong> 敌国树木。</p> <p>树木的照片如下图所示。</p> <p></p> <img src='stimuli/trees/7.png', style='max-width: 30%;'> </img> <p><strong>你是否选择发射武器？</strong></p>","0",""
"","","","","","html-keyboard-response","120","1532617","0.0-4.0-0.58","283","1","2022-10-14 09:15:16","ebf9627b049f568eb4bf28942cb89901","183.6.40.199","Mozilla/5.0 (Windows NT 10.0; Win64; x64) AppleWebKit/537.36 (KHTML, like Gecko) Chrome/106.0.0.0 Safari/537.36 Edg/106.0.1370.42","WebKit","Edge","106.0.1370.42","Windows","10.0","null","<div style=""font-size:60px;"">+</div>","null",""
"","","","","","html-button-response","121","1533360","0.0-4.0-1.58","283","1","2022-10-14 09:15:16","ebf9627b049f568eb4bf28942cb89901","183.6.40.199","Mozilla/5.0 (Windows NT 10.0; Win64; x64) AppleWebKit/537.36 (KHTML, like Gecko) Chrome/106.0.0.0 Safari/537.36 Edg/106.0.1370.42","WebKit","Edge","106.0.1370.42","Windows","10.0","741","<p>作为军队的指挥官，你可以选择发射导弹杀死 <strong>4名</strong> 敌国士兵，但会误杀附近的 <strong>1名</strong> 敌国平民。</p> <p>平民照片如下图所示。</p> <p></p> <img src='stimuli/faces/NFF3.jpg', style='max-width: 30%;'> </img> <p><strong>你是否选择发射武器？</strong></p>","0",""
"","","","","","html-keyboard-response","122","1534375","0.0-4.0-0.59","283","1","2022-10-14 09:15:16","ebf9627b049f568eb4bf28942cb89901","183.6.40.199","Mozilla/5.0 (Windows NT 10.0; Win64; x64) AppleWebKit/537.36 (KHTML, like Gecko) Chrome/106.0.0.0 Safari/537.36 Edg/106.0.1370.42","WebKit","Edge","106.0.1370.42","Windows","10.0","null","<div style=""font-size:60px;"">+</div>","null",""
"","","","","","html-button-response","123","1535600","0.0-4.0-1.59","283","1","2022-10-14 09:15:16","ebf9627b049f568eb4bf28942cb89901","183.6.40.199","Mozilla/5.0 (Windows NT 10.0; Win64; x64) AppleWebKit/537.36 (KHTML, like Gecko) Chrome/106.0.0.0 Safari/537.36 Edg/106.0.1370.42","WebKit","Edge","106.0.1370.42","Windows","10.0","1222","<p>作为军队的指挥官，你可以选择发射导弹杀死 <strong>9名</strong> 敌国士兵，但会炸毁附近的 <strong>1棵</strong> 敌国树木。</p> <p>树木的照片如下图所示。</p> <p></p> <img src='stimuli/trees/4.png', style='max-width: 30%;'> </img> <p><strong>你是否选择发射武器？</strong></p>","0",""
"","","","","","html-keyboard-response","124","1536606","0.0-4.0-0.60","283","1","2022-10-14 09:15:16","ebf9627b049f568eb4bf28942cb89901","183.6.40.199","Mozilla/5.0 (Windows NT 10.0; Win64; x64) AppleWebKit/537.36 (KHTML, like Gecko) Chrome/106.0.0.0 Safari/537.36 Edg/106.0.1370.42","WebKit","Edge","106.0.1370.42","Windows","10.0","null","<div style=""font-size:60px;"">+</div>","null",""
"","","","","","html-button-response","125","1538342","0.0-4.0-1.60","283","1","2022-10-14 09:15:16","ebf9627b049f568eb4bf28942cb89901","183.6.40.199","Mozilla/5.0 (Windows NT 10.0; Win64; x64) AppleWebKit/537.36 (KHTML, like Gecko) Chrome/106.0.0.0 Safari/537.36 Edg/106.0.1370.42","WebKit","Edge","106.0.1370.42","Windows","10.0","1733","<p>作为军队的指挥官，你可以选择发射导弹杀死 <strong>2名</strong> 敌国士兵，但会误杀附近的 <strong>1名</strong> 敌国平民。</p> <p>平民照片如下图所示。</p> <p></p> <img src='stimuli/faces/NFM1.jpg', style='max-width: 30%;'> </img> <p><strong>你是否选择发射武器？</strong></p>","0",""
"","","","","","html-keyboard-response","126","1539349","0.0-4.0-0.61","283","1","2022-10-14 09:15:16","ebf9627b049f568eb4bf28942cb89901","183.6.40.199","Mozilla/5.0 (Windows NT 10.0; Win64; x64) AppleWebKit/537.36 (KHTML, like Gecko) Chrome/106.0.0.0 Safari/537.36 Edg/106.0.1370.42","WebKit","Edge","106.0.1370.42","Windows","10.0","null","<div style=""font-size:60px;"">+</div>","null",""
"","","","","","html-button-response","127","1540901","0.0-4.0-1.61","283","1","2022-10-14 09:15:16","ebf9627b049f568eb4bf28942cb89901","183.6.40.199","Mozilla/5.0 (Windows NT 10.0; Win64; x64) AppleWebKit/537.36 (KHTML, like Gecko) Chrome/106.0.0.0 Safari/537.36 Edg/106.0.1370.42","WebKit","Edge","106.0.1370.42","Windows","10.0","1549","<p>作为军队的指挥官，你可以选择发射导弹杀死 <strong>9名</strong> 敌国士兵，但会误杀附近的 <strong>1名</strong> 敌国平民。</p> <p>平民照片如下图所示。</p> <p></p> <img src='stimuli/faces/NFF1.jpg', style='max-width: 30%;'> </img> <p><strong>你是否选择发射武器？</strong></p>","1",""
"","","","","","html-keyboard-response","128","1541909","0.0-4.0-0.62","283","1","2022-10-14 09:15:16","ebf9627b049f568eb4bf28942cb89901","183.6.40.199","Mozilla/5.0 (Windows NT 10.0; Win64; x64) AppleWebKit/537.36 (KHTML, like Gecko) Chrome/106.0.0.0 Safari/537.36 Edg/106.0.1370.42","WebKit","Edge","106.0.1370.42","Windows","10.0","null","<div style=""font-size:60px;"">+</div>","null",""
"","","","","","html-button-response","129","1544784","0.0-4.0-1.62","283","1","2022-10-14 09:15:16","ebf9627b049f568eb4bf28942cb89901","183.6.40.199","Mozilla/5.0 (Windows NT 10.0; Win64; x64) AppleWebKit/537.36 (KHTML, like Gecko) Chrome/106.0.0.0 Safari/537.36 Edg/106.0.1370.42","WebKit","Edge","106.0.1370.42","Windows","10.0","2873","<p>作为军队的指挥官，你可以选择发射导弹杀死 <strong>4名</strong> 敌国士兵，但会炸毁附近的 <strong>1棵</strong> 敌国树木。</p> <p>树木的照片如下图所示。</p> <p></p> <img src='stimuli/trees/9.png', style='max-width: 30%;'> </img> <p><strong>你是否选择发射武器？</strong></p>","0",""
"","","","","","html-keyboard-response","130","1545787","0.0-4.0-0.63","283","1","2022-10-14 09:15:16","ebf9627b049f568eb4bf28942cb89901","183.6.40.199","Mozilla/5.0 (Windows NT 10.0; Win64; x64) AppleWebKit/537.36 (KHTML, like Gecko) Chrome/106.0.0.0 Safari/537.36 Edg/106.0.1370.42","WebKit","Edge","106.0.1370.42","Windows","10.0","null","<div style=""font-size:60px;"">+</div>","null",""
"","","","","","html-button-response","131","1547766","0.0-4.0-1.63","283","1","2022-10-14 09:15:16","ebf9627b049f568eb4bf28942cb89901","183.6.40.199","Mozilla/5.0 (Windows NT 10.0; Win64; x64) AppleWebKit/537.36 (KHTML, like Gecko) Chrome/106.0.0.0 Safari/537.36 Edg/106.0.1370.42","WebKit","Edge","106.0.1370.42","Windows","10.0","1977","<p>作为军队的指挥官，你可以选择发射导弹杀死 <strong>6名</strong> 敌国士兵，但会误杀附近的 <strong>1名</strong> 敌国平民。</p> <p>平民照片如下图所示。</p> <p></p> <img src='stimuli/faces/NFM4.jpg', style='max-width: 30%;'> </img> <p><strong>你是否选择发射武器？</strong></p>","1",""
"","","","","","survey-multi-choice","132","1552597","0.0-5.0","283","1","2022-10-14 09:15:16","ebf9627b049f568eb4bf28942cb89901","183.6.40.199","Mozilla/5.0 (Windows NT 10.0; Win64; x64) AppleWebKit/537.36 (KHTML, like Gecko) Chrome/106.0.0.0 Safari/537.36 Edg/106.0.1370.42","WebKit","Edge","106.0.1370.42","Windows","10.0","4827","","{""Attention1"":""""}","[0]"
"","","","","","html-button-response","133","1554086","0.0-6.0","283","1","2022-10-14 09:15:16","ebf9627b049f568eb4bf28942cb89901","183.6.40.199","Mozilla/5.0 (Windows NT 10.0; Win64; x64) AppleWebKit/537.36 (KHTML, like Gecko) Chrome/106.0.0.0 Safari/537.36 Edg/106.0.1370.42","WebKit","Edge","106.0.1370.42","Windows","10.0","1484","<p style=""font-size:20px;font-weight:bold;"">恭喜！</p><p>你已经完成了实验的第一部分。</p><p>请休息放松一下，然后进入第二部分。</p><p>这部分大约需要10分钟。</p>","0",""
"","","","","","survey-text","134","1611080","0.0-7.0","283","1","2022-10-14 09:15:16","ebf9627b049f568eb4bf28942cb89901","183.6.40.199","Mozilla/5.0 (Windows NT 10.0; Win64; x64) AppleWebKit/537.36 (KHTML, like Gecko) Chrome/106.0.0.0 Safari/537.36 Edg/106.0.1370.42","WebKit","Edge","106.0.1370.42","Windows","10.0","55989","","{""Age"":""28"",""Nation"":""中国"",""Born"":""北京"",""Live"":""北京"",""Ethnic"":""回族"",""Alipay"":""13068868894""}",""
"","","","","","survey-multi-choice","135","1626125","0.0-8.0","283","1","2022-10-14 09:15:16","ebf9627b049f568eb4bf28942cb89901","183.6.40.199","Mozilla/5.0 (Windows NT 10.0; Win64; x64) AppleWebKit/537.36 (KHTML, like Gecko) Chrome/106.0.0.0 Safari/537.36 Edg/106.0.1370.42","WebKit","Edge","106.0.1370.42","Windows","10.0","15043","","{""Gender"":""女"",""Education"":""本科毕业"",""Income"":""￥490,000-￥699,999"",""Children"":""1"",""Race"":""亚洲人""}","[0,1,2,3,4]"
"","","","","","survey-multi-select","136","1630496","0.0-9.0","283","1","2022-10-14 09:15:16","ebf9627b049f568eb4bf28942cb89901","183.6.40.199","Mozilla/5.0 (Windows NT 10.0; Win64; x64) AppleWebKit/537.36 (KHTML, like Gecko) Chrome/106.0.0.0 Safari/537.36 Edg/106.0.1370.42","WebKit","Edge","106.0.1370.42","Windows","10.0","4365","","{""Marriage"":[""已婚""],""Religion"":[""无宗教信仰""]}","[0,1]"
"","","","","","survey-multi-choice","137","1634136","0.0-10.0","283","1","2022-10-14 09:15:16","ebf9627b049f568eb4bf28942cb89901","183.6.40.199","Mozilla/5.0 (Windows NT 10.0; Win64; x64) AppleWebKit/537.36 (KHTML, like Gecko) Chrome/106.0.0.0 Safari/537.36 Edg/106.0.1370.42","WebKit","Edge","106.0.1370.42","Windows","10.0","3636","","{""SES"":""6""}","[0]"
"","","","","","html-button-response","138","1635403","0.0-11.0","283","1","2022-10-14 09:15:16","ebf9627b049f568eb4bf28942cb89901","183.6.40.199","Mozilla/5.0 (Windows NT 10.0; Win64; x64) AppleWebKit/537.36 (KHTML, like Gecko) Chrome/106.0.0.0 Safari/537.36 Edg/106.0.1370.42","WebKit","Edge","106.0.1370.42","Windows","10.0","1264","<p><strong>请判断下列陈述在多大程度上可以形容你？</p><p> (1 = ""和我一点都不像"" to 5 = ""非常像我"".)</strong></p>","0",""
"","","","","","survey-likert","139","1654514","0.0-12.0","283","1","2022-10-14 09:15:16","ebf9627b049f568eb4bf28942cb89901","183.6.40.199","Mozilla/5.0 (Windows NT 10.0; Win64; x64) AppleWebKit/537.36 (KHTML, like Gecko) Chrome/106.0.0.0 Safari/537.36 Edg/106.0.1370.42","WebKit","Edge","106.0.1370.42","Windows","10.0","19108","","{""Aggression1"":0,""Aggression2"":0,""Aggression3"":0,""Aggression4"":1,""Aggression5"":0,""Aggression6"":0,""Aggression7"":4,""Aggression8"":0,""Aggression9"":0}","[0,1,2,3,4,5,6,7,8]"
"","","","","","html-button-response","140","1655575","0.0-13.0","283","1","2022-10-14 09:15:16","ebf9627b049f568eb4bf28942cb89901","183.6.40.199","Mozilla/5.0 (Windows NT 10.0; Win64; x64) AppleWebKit/537.36 (KHTML, like Gecko) Chrome/106.0.0.0 Safari/537.36 Edg/106.0.1370.42","WebKit","Edge","106.0.1370.42","Windows","10.0","1058","<p><strong>请判断你在多大程度上同意下列陈述。</strong></p>","0",""
"","","","","","survey-likert","141","1835286","0.0-14.0","283","1","2022-10-14 09:15:16","ebf9627b049f568eb4bf28942cb89901","183.6.40.199","Mozilla/5.0 (Windows NT 10.0; Win64; x64) AppleWebKit/537.36 (KHTML, like Gecko) Chrome/106.0.0.0 Safari/537.36 Edg/106.0.1370.42","WebKit","Edge","106.0.1370.42","Windows","10.0","179708","","{""scale10"":2,""scale19"":3,""scale14"":2,""scale3"":2,""scale18"":1,""scale13"":2,""scale24"":1,""scale26"":3,""scale21"":2,""scale2"":3,""scale11"":3,""scale9"":2,""scale28"":3,""scale6"":1,""scale20"":3,""scale17"":1,""scale16"":3,""scale23"":3,""scale7"":3,""scale5"":3,""scale25"":3,""scale12"":3,""scale15"":1,""scale1"":1,""scale27"":1,""scale8"":3,""scale4"":1,""scale22"":2}","[9,18,13,2,17,12,23,25,20,1,10,8,27,5,19,16,15,22,6,4,24,11,14,0,26,7,3,21]"
"","","","","","html-button-response","142","1836345","0.0-15.0","283","1","2022-10-14 09:15:16","ebf9627b049f568eb4bf28942cb89901","183.6.40.199","Mozilla/5.0 (Windows NT 10.0; Win64; x64) AppleWebKit/537.36 (KHTML, like Gecko) Chrome/106.0.0.0 Safari/537.36 Edg/106.0.1370.42","WebKit","Edge","106.0.1370.42","Windows","10.0","1055","<p><strong>请判断你在多大程度上同意下列陈述。</strong></p>","0",""
"","","","","","survey-likert","143","1885502","0.0-16.0","283","1","2022-10-14 09:15:16","ebf9627b049f568eb4bf28942cb89901","183.6.40.199","Mozilla/5.0 (Windows NT 10.0; Win64; x64) AppleWebKit/537.36 (KHTML, like Gecko) Chrome/106.0.0.0 Safari/537.36 Edg/106.0.1370.42","WebKit","Edge","106.0.1370.42","Windows","10.0","49154","","{""sdo15"":6,""sdo14"":4,""sdo6"":5,""sdo16"":5,""sdo3"":5,""sdo8"":4,""sdo9"":4,""sdo5"":4,""sdo11"":5,""sdo7"":2,""sdo13"":6,""sdo4"":6,""sdo2"":5,""sdo1"":3,""sdo10"":5,""sdo12"":5}","[14,13,5,15,2,7,8,4,10,6,12,3,1,0,9,11]"
"","","","","","html-button-response","144","1886469","0.0-17.0","283","1","2022-10-14 09:15:16","ebf9627b049f568eb4bf28942cb89901","183.6.40.199","Mozilla/5.0 (Windows NT 10.0; Win64; x64) AppleWebKit/537.36 (KHTML, like Gecko) Chrome/106.0.0.0 Safari/537.36 Edg/106.0.1370.42","WebKit","Edge","106.0.1370.42","Windows","10.0","963","<p><strong>请判断你在多大程度上同意下列陈述。</strong></p>","0",""
"","","","","","survey-likert","145","1953642","0.0-18.0","283","1","2022-10-14 09:15:16","ebf9627b049f568eb4bf28942cb89901","183.6.40.199","Mozilla/5.0 (Windows NT 10.0; Win64; x64) AppleWebKit/537.36 (KHTML, like Gecko) Chrome/106.0.0.0 Safari/537.36 Edg/106.0.1370.42","WebKit","Edge","106.0.1370.42","Windows","10.0","67169","","{""caring1"":3,""liking1"":1,""caring2"":3,""protection1"":1,""liking2"":1,""caring3"":3,""protection2"":1,""liking3"":1,""protection3"":3,""caring4"":3,""liking4"":1,""protection4"":3,""caring5"":3,""liking5"":1,""protection5"":3}","[0,1,2,3,4,5,6,7,8,9,10,11,12,13,14]"
"","","","","","html-button-response","146","1954745","0.0-19.0","283","1","2022-10-14 09:15:16","ebf9627b049f568eb4bf28942cb89901","183.6.40.199","Mozilla/5.0 (Windows NT 10.0; Win64; x64) AppleWebKit/537.36 (KHTML, like Gecko) Chrome/106.0.0.0 Safari/537.36 Edg/106.0.1370.42","WebKit","Edge","106.0.1370.42","Windows","10.0","1100","<p><strong>请判断下列场景中你的内心感受有多柔软。</strong></p>","0",""
"","","","","","survey-likert","147","2003242","0.0-20.0","283","1","2022-10-14 09:15:16","ebf9627b049f568eb4bf28942cb89901","183.6.40.199","Mozilla/5.0 (Windows NT 10.0; Win64; x64) AppleWebKit/537.36 (KHTML, like Gecko) Chrome/106.0.0.0 Safari/537.36 Edg/106.0.1370.42","WebKit","Edge","106.0.1370.42","Windows","10.0","48494","","{""tenderness-positive1"":3,""tenderness-negative1"":3,""tenderness-negative2"":1,""tenderness-positive2"":2,""tenderness-positive3"":3,""tenderness-negative3"":2,""tenderness-positive4"":2,""tendereness-negative4"":4,""tendernness-negative5"":3,""tenderness-positive5"":3}","[0,1,2,3,4,5,6,7,8,9]"
"","","","","","survey-multi-choice","148","2018744","0.0-21.0","283","1","2022-10-14 09:15:16","ebf9627b049f568eb4bf28942cb89901","183.6.40.199","Mozilla/5.0 (Windows NT 10.0; Win64; x64) AppleWebKit/537.36 (KHTML, like Gecko) Chrome/106.0.0.0 Safari/537.36 Edg/106.0.1370.42","WebKit","Edge","106.0.1370.42","Windows","10.0","15498","","{""Attention2"":""其他""}","[0]"
"","","","","","html-button-response","149","2019677","0.0-22.0","283","1","2022-10-14 09:15:16","ebf9627b049f568eb4bf28942cb89901","183.6.40.199","Mozilla/5.0 (Windows NT 10.0; Win64; x64) AppleWebKit/537.36 (KHTML, like Gecko) Chrome/106.0.0.0 Safari/537.36 Edg/106.0.1370.42","WebKit","Edge","106.0.1370.42","Windows","10.0","930","<p><strong>请判断你在多大程度上同意下列陈述。</strong></p>","0",""
"","","","","","survey-likert","150","2180656","0.0-23.0","283","1","2022-10-14 09:15:16","ebf9627b049f568eb4bf28942cb89901","183.6.40.199","Mozilla/5.0 (Windows NT 10.0; Win64; x64) AppleWebKit/537.36 (KHTML, like Gecko) Chrome/106.0.0.0 Safari/537.36 Edg/106.0.1370.42","WebKit","Edge","106.0.1370.42","Windows","10.0","160976","","{""Nation8"":3,""Patri10"":0,""Nation3"":1,""Patri12"":0,""Nation4"":2,""Patri8"":3,""Patri6"":1,""Nation2"":4,""Patri4"":4,""Patri11"":0,""Patri3"":3,""Nation1"":2,""Nation6"":3,""Patri1"":4,""Patri7"":4,""Nation7"":3,""Patri2"":3,""Nation5"":3,""Patri5"":4,""Patri9"":0}","[19,9,14,11,15,7,5,13,3,10,2,12,17,0,6,18,1,16,4,8]"
"","","","","","html-button-response","151","2181661","0.0-24.0","283","1","2022-10-14 09:15:16","ebf9627b049f568eb4bf28942cb89901","183.6.40.199","Mozilla/5.0 (Windows NT 10.0; Win64; x64) AppleWebKit/537.36 (KHTML, like Gecko) Chrome/106.0.0.0 Safari/537.36 Edg/106.0.1370.42","WebKit","Edge","106.0.1370.42","Windows","10.0","1001","<p><strong>请判断你在多大程度上同意下列陈述。</strong></p>","0",""
"","","","","","survey-likert","152","2289564","0.0-25.0","283","1","2022-10-14 09:15:16","ebf9627b049f568eb4bf28942cb89901","183.6.40.199","Mozilla/5.0 (Windows NT 10.0; Win64; x64) AppleWebKit/537.36 (KHTML, like Gecko) Chrome/106.0.0.0 Safari/537.36 Edg/106.0.1370.42","WebKit","Edge","106.0.1370.42","Windows","10.0","107900","","{""hc1"":7,""vi1"":6,""hi4"":7,""hi1"":6,""hc4"":7,""hi2"":6,""vc1"":7,""Robot"":8,""vc4"":8,""hi3"":2,""vi2"":6,""vc3"":8,""vi4"":5,""vc2"":7,""hc3"":5,""hc2"":7,""vi3"":7}","[9,4,3,0,12,1,13,7,16,2,5,15,8,14,11,10,6]"
"","","","","","survey-text","153","2299339","0.0-26.0","283","1","2022-10-14 09:15:16","ebf9627b049f568eb4bf28942cb89901","183.6.40.199","Mozilla/5.0 (Windows NT 10.0; Win64; x64) AppleWebKit/537.36 (KHTML, like Gecko) Chrome/106.0.0.0 Safari/537.36 Edg/106.0.1370.42","WebKit","Edge","106.0.1370.42","Windows","10.0","9767","","{""Comments"":""没有""}",""
"","","","","","html-button-response","154","2300210","0.0-27.0","283","1","2022-10-14 09:15:16","ebf9627b049f568eb4bf28942cb89901","183.6.40.199","Mozilla/5.0 (Windows NT 10.0; Win64; x64) AppleWebKit/537.36 (KHTML, like Gecko) Chrome/106.0.0.0 Safari/537.36 Edg/106.0.1370.42","WebKit","Edge","106.0.1370.42","Windows","10.0","869","<strong><p>恭喜你完成了实验！</p><p>感谢您的参与。</p></strong>","0",""
