"success","timeout","failed_images","failed_audio","failed_video","trial_type","trial_index","time_elapsed","internal_node_id","run_id","condition","recorded_at","source_code_version","ip","user_agent","device","browser","browser_version","platform","platform_version","rt","stimulus","response","question_order"
"true","false","[]","[]","[]","preload","0","5147","0.0-0.0","281","1","2022-10-14 09:05:57","ebf9627b049f568eb4bf28942cb89901","183.6.40.199","Mozilla/5.0 (Windows NT 6.1; WOW64) AppleWebKit/537.36 (KHTML, like Gecko) Chrome/81.0.4044.138 Safari/537.36 NetType/WIFI MicroMessenger/7.0.20.1781(0x6700143B) WindowsWechat(0x63030532)","WebKit","Chrome","81.0.4044.138","Windows","6.1","","","",""
"true","","","","","fullscreen","1","9536","0.0-1.0","281","1","2022-10-14 09:05:57","ebf9627b049f568eb4bf28942cb89901","183.6.40.199","Mozilla/5.0 (Windows NT 6.1; WOW64) AppleWebKit/537.36 (KHTML, like Gecko) Chrome/81.0.4044.138 Safari/537.36 NetType/WIFI MicroMessenger/7.0.20.1781(0x6700143B) WindowsWechat(0x63030532)","WebKit","Chrome","81.0.4044.138","Windows","6.1","","","",""
"","","","","","html-button-response","2","21490","0.0-2.0","281","1","2022-10-14 09:05:57","ebf9627b049f568eb4bf28942cb89901","183.6.40.199","Mozilla/5.0 (Windows NT 6.1; WOW64) AppleWebKit/537.36 (KHTML, like Gecko) Chrome/81.0.4044.138 Safari/537.36 NetType/WIFI MicroMessenger/7.0.20.1781(0x6700143B) WindowsWechat(0x63030532)","WebKit","Chrome","81.0.4044.138","Windows","6.1","11952","<p style=""font-size:20px;font-weight:bold;"">实验知情同意书</p><p style=""text-align:left;""><strong>实验名称：</strong>社会冲突研究</p><p style=""text-align:left;""><strong>主要研究者：</strong>韩晓春副教授（北京师范大学心理学部）</p><p style=""text-align:left;""><strong>联系方式：</strong>发送邮件至xiaochun.han@bnu.edu.cn</p><p style=""text-align:left;""><strong>研究目的：</strong>研究旨在了解人类面对群体冲突时的决策方式，以及相关的心理学特质。实验调查大约需要20分钟。</p><p style=""text-align:left;""><strong>实验流程：</strong>实验包含两部分。第一部分呈现一系列群体冲突场景，请你决定如何对这些冲突进行反应，大约需要10分钟完成。第二部分包含一系列人口统计学信息收集和心理学问卷，大约需要10分钟完成。</p><p style=""text-align:left;""><strong>参加及退出规则：</strong>参加本实验完全取决于您的个人意愿。在参与过程中，您可以随时退出，并且不用承担任何后果。</p><p style=""text-align:left;""><strong>隐私：</strong>本实验完全匿名进行，不会收集您的姓名或其他能够识别您身份的信息。实验中收集的作答仅用作科学研究使用，可能会在学术期刊/书籍上发表，或者用于教学，您的数据未来可能会和其他研究者或实验室分享，但您的个人身份不会被识别。</p><p style=""text-align:left;""><strong>实验报酬：</strong>实验完成后，您将获得15元人民币报酬，以感谢您的时间和努力。调查问卷中包含几道题目用以测验您作答时的认真度。只有完成全部实验，并且正确回答认真度测验的被试才能获得实验报酬。实验报酬将通过支付宝转账发放。</p><p style=""text-align:left;font-size:20px;""><strong>如果您同意以上实验知情同意书的内容，请点击'同意并且开始实验'按钮；否则请关闭浏览器界面，退出实验。</strong></p>","0",""
"","","","","","html-button-response","3","35677","0.0-3.0","281","1","2022-10-14 09:05:57","ebf9627b049f568eb4bf28942cb89901","183.6.40.199","Mozilla/5.0 (Windows NT 6.1; WOW64) AppleWebKit/537.36 (KHTML, like Gecko) Chrome/81.0.4044.138 Safari/537.36 NetType/WIFI MicroMessenger/7.0.20.1781(0x6700143B) WindowsWechat(0x63030532)","WebKit","Chrome","81.0.4044.138","Windows","6.1","14186","<p ><strong>实验任务一：</strong></p><p>请想象你的国家与另一个国家发生了军事冲突。</p><p>你是国家军队的指挥官，你将如何在冲突中进行决策。</p><p>具体来说，作为军队指挥官，请你决定是否发射导弹进行打击。</p><p>接下来，你会面对一系列场景，请仔细阅读每个场景，然后进行决策。</p><p>这部分实验任务大约需要10分钟。</p><p><strong>实验过程中，请集中注意力。</strong></p>","0",""
"","","","","","html-keyboard-response","4","36678","0.0-4.0-0.0","281","1","2022-10-14 09:05:57","ebf9627b049f568eb4bf28942cb89901","183.6.40.199","Mozilla/5.0 (Windows NT 6.1; WOW64) AppleWebKit/537.36 (KHTML, like Gecko) Chrome/81.0.4044.138 Safari/537.36 NetType/WIFI MicroMessenger/7.0.20.1781(0x6700143B) WindowsWechat(0x63030532)","WebKit","Chrome","81.0.4044.138","Windows","6.1","null","<div style=""font-size:60px;"">+</div>","null",""
"","","","","","html-button-response","5","46889","0.0-4.0-1.0","281","1","2022-10-14 09:05:57","ebf9627b049f568eb4bf28942cb89901","183.6.40.199","Mozilla/5.0 (Windows NT 6.1; WOW64) AppleWebKit/537.36 (KHTML, like Gecko) Chrome/81.0.4044.138 Safari/537.36 NetType/WIFI MicroMessenger/7.0.20.1781(0x6700143B) WindowsWechat(0x63030532)","WebKit","Chrome","81.0.4044.138","Windows","6.1","10209","<p>作为军队的指挥官，你可以选择发射导弹杀死 <strong>2名</strong> 敌国士兵，但会误杀附近的 <strong>1名</strong> 敌国平民。</p> <p>平民照片如下图所示。</p> <p></p> <img src='stimuli/faces/NFF1.jpg', style='max-width: 30%;'> </img> <p><strong>你是否选择发射武器？</strong></p>","1",""
"","","","","","html-keyboard-response","6","47891","0.0-4.0-0.1","281","1","2022-10-14 09:05:57","ebf9627b049f568eb4bf28942cb89901","183.6.40.199","Mozilla/5.0 (Windows NT 6.1; WOW64) AppleWebKit/537.36 (KHTML, like Gecko) Chrome/81.0.4044.138 Safari/537.36 NetType/WIFI MicroMessenger/7.0.20.1781(0x6700143B) WindowsWechat(0x63030532)","WebKit","Chrome","81.0.4044.138","Windows","6.1","null","<div style=""font-size:60px;"">+</div>","null",""
"","","","","","html-button-response","7","52189","0.0-4.0-1.1","281","1","2022-10-14 09:05:57","ebf9627b049f568eb4bf28942cb89901","183.6.40.199","Mozilla/5.0 (Windows NT 6.1; WOW64) AppleWebKit/537.36 (KHTML, like Gecko) Chrome/81.0.4044.138 Safari/537.36 NetType/WIFI MicroMessenger/7.0.20.1781(0x6700143B) WindowsWechat(0x63030532)","WebKit","Chrome","81.0.4044.138","Windows","6.1","4297","<p>作为军队的指挥官，你可以选择发射导弹杀死 <strong>2名</strong> 敌国士兵，但会炸毁附近的 <strong>1棵</strong> 敌国树木。</p> <p>树木的照片如下图所示。</p> <p></p> <img src='stimuli/trees/14.png', style='max-width: 30%;'> </img> <p><strong>你是否选择发射武器？</strong></p>","0",""
"","","","","","html-keyboard-response","8","53192","0.0-4.0-0.2","281","1","2022-10-14 09:05:57","ebf9627b049f568eb4bf28942cb89901","183.6.40.199","Mozilla/5.0 (Windows NT 6.1; WOW64) AppleWebKit/537.36 (KHTML, like Gecko) Chrome/81.0.4044.138 Safari/537.36 NetType/WIFI MicroMessenger/7.0.20.1781(0x6700143B) WindowsWechat(0x63030532)","WebKit","Chrome","81.0.4044.138","Windows","6.1","null","<div style=""font-size:60px;"">+</div>","null",""
"","","","","","html-button-response","9","59567","0.0-4.0-1.2","281","1","2022-10-14 09:05:57","ebf9627b049f568eb4bf28942cb89901","183.6.40.199","Mozilla/5.0 (Windows NT 6.1; WOW64) AppleWebKit/537.36 (KHTML, like Gecko) Chrome/81.0.4044.138 Safari/537.36 NetType/WIFI MicroMessenger/7.0.20.1781(0x6700143B) WindowsWechat(0x63030532)","WebKit","Chrome","81.0.4044.138","Windows","6.1","6374","<p>作为军队的指挥官，你可以选择发射导弹杀死 <strong>9名</strong> 敌国士兵，但会误杀附近的 <strong>1名</strong> 敌国平民。</p> <p>平民照片如下图所示。</p> <p></p> <img src='stimuli/faces/NFM7.jpg', style='max-width: 30%;'> </img> <p><strong>你是否选择发射武器？</strong></p>","1",""
"","","","","","html-keyboard-response","10","60569","0.0-4.0-0.3","281","1","2022-10-14 09:05:57","ebf9627b049f568eb4bf28942cb89901","183.6.40.199","Mozilla/5.0 (Windows NT 6.1; WOW64) AppleWebKit/537.36 (KHTML, like Gecko) Chrome/81.0.4044.138 Safari/537.36 NetType/WIFI MicroMessenger/7.0.20.1781(0x6700143B) WindowsWechat(0x63030532)","WebKit","Chrome","81.0.4044.138","Windows","6.1","null","<div style=""font-size:60px;"">+</div>","null",""
"","","","","","html-button-response","11","63367","0.0-4.0-1.3","281","1","2022-10-14 09:05:57","ebf9627b049f568eb4bf28942cb89901","183.6.40.199","Mozilla/5.0 (Windows NT 6.1; WOW64) AppleWebKit/537.36 (KHTML, like Gecko) Chrome/81.0.4044.138 Safari/537.36 NetType/WIFI MicroMessenger/7.0.20.1781(0x6700143B) WindowsWechat(0x63030532)","WebKit","Chrome","81.0.4044.138","Windows","6.1","2797","<p>作为军队的指挥官，你可以选择发射导弹杀死 <strong>3名</strong> 敌国士兵，但会炸毁附近的 <strong>1棵</strong> 敌国树木。</p> <p>树木的照片如下图所示。</p> <p></p> <img src='stimuli/trees/10.png', style='max-width: 30%;'> </img> <p><strong>你是否选择发射武器？</strong></p>","0",""
"","","","","","html-keyboard-response","12","64368","0.0-4.0-0.4","281","1","2022-10-14 09:05:57","ebf9627b049f568eb4bf28942cb89901","183.6.40.199","Mozilla/5.0 (Windows NT 6.1; WOW64) AppleWebKit/537.36 (KHTML, like Gecko) Chrome/81.0.4044.138 Safari/537.36 NetType/WIFI MicroMessenger/7.0.20.1781(0x6700143B) WindowsWechat(0x63030532)","WebKit","Chrome","81.0.4044.138","Windows","6.1","null","<div style=""font-size:60px;"">+</div>","null",""
"","","","","","html-button-response","13","68093","0.0-4.0-1.4","281","1","2022-10-14 09:05:57","ebf9627b049f568eb4bf28942cb89901","183.6.40.199","Mozilla/5.0 (Windows NT 6.1; WOW64) AppleWebKit/537.36 (KHTML, like Gecko) Chrome/81.0.4044.138 Safari/537.36 NetType/WIFI MicroMessenger/7.0.20.1781(0x6700143B) WindowsWechat(0x63030532)","WebKit","Chrome","81.0.4044.138","Windows","6.1","3722","<p>作为军队的指挥官，你可以选择发射导弹杀死 <strong>10名</strong> 敌国士兵，但会炸毁附近的 <strong>1棵</strong> 敌国树木。</p> <p>树木的照片如下图所示。</p> <p></p> <img src='stimuli/trees/5.png', style='max-width: 30%;'> </img> <p><strong>你是否选择发射武器？</strong></p>","0",""
"","","","","","html-keyboard-response","14","69094","0.0-4.0-0.5","281","1","2022-10-14 09:05:57","ebf9627b049f568eb4bf28942cb89901","183.6.40.199","Mozilla/5.0 (Windows NT 6.1; WOW64) AppleWebKit/537.36 (KHTML, like Gecko) Chrome/81.0.4044.138 Safari/537.36 NetType/WIFI MicroMessenger/7.0.20.1781(0x6700143B) WindowsWechat(0x63030532)","WebKit","Chrome","81.0.4044.138","Windows","6.1","null","<div style=""font-size:60px;"">+</div>","null",""
"","","","","","html-button-response","15","73183","0.0-4.0-1.5","281","1","2022-10-14 09:05:57","ebf9627b049f568eb4bf28942cb89901","183.6.40.199","Mozilla/5.0 (Windows NT 6.1; WOW64) AppleWebKit/537.36 (KHTML, like Gecko) Chrome/81.0.4044.138 Safari/537.36 NetType/WIFI MicroMessenger/7.0.20.1781(0x6700143B) WindowsWechat(0x63030532)","WebKit","Chrome","81.0.4044.138","Windows","6.1","4088","<p>作为军队的指挥官，你可以选择发射导弹杀死 <strong>10名</strong> 敌国士兵，但会炸毁附近的 <strong>1棵</strong> 敌国树木。</p> <p>树木的照片如下图所示。</p> <p></p> <img src='stimuli/trees/14.png', style='max-width: 30%;'> </img> <p><strong>你是否选择发射武器？</strong></p>","0",""
"","","","","","html-keyboard-response","16","74185","0.0-4.0-0.6","281","1","2022-10-14 09:05:57","ebf9627b049f568eb4bf28942cb89901","183.6.40.199","Mozilla/5.0 (Windows NT 6.1; WOW64) AppleWebKit/537.36 (KHTML, like Gecko) Chrome/81.0.4044.138 Safari/537.36 NetType/WIFI MicroMessenger/7.0.20.1781(0x6700143B) WindowsWechat(0x63030532)","WebKit","Chrome","81.0.4044.138","Windows","6.1","null","<div style=""font-size:60px;"">+</div>","null",""
"","","","","","html-button-response","17","78460","0.0-4.0-1.6","281","1","2022-10-14 09:05:57","ebf9627b049f568eb4bf28942cb89901","183.6.40.199","Mozilla/5.0 (Windows NT 6.1; WOW64) AppleWebKit/537.36 (KHTML, like Gecko) Chrome/81.0.4044.138 Safari/537.36 NetType/WIFI MicroMessenger/7.0.20.1781(0x6700143B) WindowsWechat(0x63030532)","WebKit","Chrome","81.0.4044.138","Windows","6.1","4273","<p>作为军队的指挥官，你可以选择发射导弹杀死 <strong>7名</strong> 敌国士兵，但会误杀附近的 <strong>1名</strong> 敌国平民。</p> <p>平民照片如下图所示。</p> <p></p> <img src='stimuli/faces/NFM3.jpg', style='max-width: 30%;'> </img> <p><strong>你是否选择发射武器？</strong></p>","1",""
"","","","","","html-keyboard-response","18","79462","0.0-4.0-0.7","281","1","2022-10-14 09:05:57","ebf9627b049f568eb4bf28942cb89901","183.6.40.199","Mozilla/5.0 (Windows NT 6.1; WOW64) AppleWebKit/537.36 (KHTML, like Gecko) Chrome/81.0.4044.138 Safari/537.36 NetType/WIFI MicroMessenger/7.0.20.1781(0x6700143B) WindowsWechat(0x63030532)","WebKit","Chrome","81.0.4044.138","Windows","6.1","null","<div style=""font-size:60px;"">+</div>","null",""
"","","","","","html-button-response","19","91259","0.0-4.0-1.7","281","1","2022-10-14 09:05:57","ebf9627b049f568eb4bf28942cb89901","183.6.40.199","Mozilla/5.0 (Windows NT 6.1; WOW64) AppleWebKit/537.36 (KHTML, like Gecko) Chrome/81.0.4044.138 Safari/537.36 NetType/WIFI MicroMessenger/7.0.20.1781(0x6700143B) WindowsWechat(0x63030532)","WebKit","Chrome","81.0.4044.138","Windows","6.1","11796","<p>作为军队的指挥官，你可以选择发射导弹杀死 <strong>4名</strong> 敌国士兵，但会炸毁附近的 <strong>1棵</strong> 敌国树木。</p> <p>树木的照片如下图所示。</p> <p></p> <img src='stimuli/trees/15.png', style='max-width: 30%;'> </img> <p><strong>你是否选择发射武器？</strong></p>","0",""
"","","","","","html-keyboard-response","20","92261","0.0-4.0-0.8","281","1","2022-10-14 09:05:57","ebf9627b049f568eb4bf28942cb89901","183.6.40.199","Mozilla/5.0 (Windows NT 6.1; WOW64) AppleWebKit/537.36 (KHTML, like Gecko) Chrome/81.0.4044.138 Safari/537.36 NetType/WIFI MicroMessenger/7.0.20.1781(0x6700143B) WindowsWechat(0x63030532)","WebKit","Chrome","81.0.4044.138","Windows","6.1","null","<div style=""font-size:60px;"">+</div>","null",""
"","","","","","html-button-response","21","93905","0.0-4.0-1.8","281","1","2022-10-14 09:05:57","ebf9627b049f568eb4bf28942cb89901","183.6.40.199","Mozilla/5.0 (Windows NT 6.1; WOW64) AppleWebKit/537.36 (KHTML, like Gecko) Chrome/81.0.4044.138 Safari/537.36 NetType/WIFI MicroMessenger/7.0.20.1781(0x6700143B) WindowsWechat(0x63030532)","WebKit","Chrome","81.0.4044.138","Windows","6.1","1643","<p>作为军队的指挥官，你可以选择发射导弹杀死 <strong>2名</strong> 敌国士兵，但会误杀附近的 <strong>1名</strong> 敌国平民。</p> <p>平民照片如下图所示。</p> <p></p> <img src='stimuli/faces/NFF7.jpg', style='max-width: 30%;'> </img> <p><strong>你是否选择发射武器？</strong></p>","1",""
"","","","","","html-keyboard-response","22","94907","0.0-4.0-0.9","281","1","2022-10-14 09:05:57","ebf9627b049f568eb4bf28942cb89901","183.6.40.199","Mozilla/5.0 (Windows NT 6.1; WOW64) AppleWebKit/537.36 (KHTML, like Gecko) Chrome/81.0.4044.138 Safari/537.36 NetType/WIFI MicroMessenger/7.0.20.1781(0x6700143B) WindowsWechat(0x63030532)","WebKit","Chrome","81.0.4044.138","Windows","6.1","null","<div style=""font-size:60px;"">+</div>","null",""
"","","","","","html-button-response","23","97781","0.0-4.0-1.9","281","1","2022-10-14 09:05:57","ebf9627b049f568eb4bf28942cb89901","183.6.40.199","Mozilla/5.0 (Windows NT 6.1; WOW64) AppleWebKit/537.36 (KHTML, like Gecko) Chrome/81.0.4044.138 Safari/537.36 NetType/WIFI MicroMessenger/7.0.20.1781(0x6700143B) WindowsWechat(0x63030532)","WebKit","Chrome","81.0.4044.138","Windows","6.1","2873","<p>作为军队的指挥官，你可以选择发射导弹杀死 <strong>1名</strong> 敌国士兵，但会误杀附近的 <strong>1名</strong> 敌国平民。</p> <p>平民照片如下图所示。</p> <p></p> <img src='stimuli/faces/NFM2.jpg', style='max-width: 30%;'> </img> <p><strong>你是否选择发射武器？</strong></p>","1",""
"","","","","","html-keyboard-response","24","98783","0.0-4.0-0.10","281","1","2022-10-14 09:05:57","ebf9627b049f568eb4bf28942cb89901","183.6.40.199","Mozilla/5.0 (Windows NT 6.1; WOW64) AppleWebKit/537.36 (KHTML, like Gecko) Chrome/81.0.4044.138 Safari/537.36 NetType/WIFI MicroMessenger/7.0.20.1781(0x6700143B) WindowsWechat(0x63030532)","WebKit","Chrome","81.0.4044.138","Windows","6.1","null","<div style=""font-size:60px;"">+</div>","null",""
"","","","","","html-button-response","25","100763","0.0-4.0-1.10","281","1","2022-10-14 09:05:57","ebf9627b049f568eb4bf28942cb89901","183.6.40.199","Mozilla/5.0 (Windows NT 6.1; WOW64) AppleWebKit/537.36 (KHTML, like Gecko) Chrome/81.0.4044.138 Safari/537.36 NetType/WIFI MicroMessenger/7.0.20.1781(0x6700143B) WindowsWechat(0x63030532)","WebKit","Chrome","81.0.4044.138","Windows","6.1","1979","<p>作为军队的指挥官，你可以选择发射导弹杀死 <strong>1名</strong> 敌国士兵，但会炸毁附近的 <strong>1棵</strong> 敌国树木。</p> <p>树木的照片如下图所示。</p> <p></p> <img src='stimuli/trees/9.png', style='max-width: 30%;'> </img> <p><strong>你是否选择发射武器？</strong></p>","0",""
"","","","","","html-keyboard-response","26","101765","0.0-4.0-0.11","281","1","2022-10-14 09:05:57","ebf9627b049f568eb4bf28942cb89901","183.6.40.199","Mozilla/5.0 (Windows NT 6.1; WOW64) AppleWebKit/537.36 (KHTML, like Gecko) Chrome/81.0.4044.138 Safari/537.36 NetType/WIFI MicroMessenger/7.0.20.1781(0x6700143B) WindowsWechat(0x63030532)","WebKit","Chrome","81.0.4044.138","Windows","6.1","null","<div style=""font-size:60px;"">+</div>","null",""
"","","","","","html-button-response","27","103110","0.0-4.0-1.11","281","1","2022-10-14 09:05:57","ebf9627b049f568eb4bf28942cb89901","183.6.40.199","Mozilla/5.0 (Windows NT 6.1; WOW64) AppleWebKit/537.36 (KHTML, like Gecko) Chrome/81.0.4044.138 Safari/537.36 NetType/WIFI MicroMessenger/7.0.20.1781(0x6700143B) WindowsWechat(0x63030532)","WebKit","Chrome","81.0.4044.138","Windows","6.1","1344","<p>作为军队的指挥官，你可以选择发射导弹杀死 <strong>5名</strong> 敌国士兵，但会炸毁附近的 <strong>1棵</strong> 敌国树木。</p> <p>树木的照片如下图所示。</p> <p></p> <img src='stimuli/trees/4.png', style='max-width: 30%;'> </img> <p><strong>你是否选择发射武器？</strong></p>","0",""
"","","","","","html-keyboard-response","28","104112","0.0-4.0-0.12","281","1","2022-10-14 09:05:57","ebf9627b049f568eb4bf28942cb89901","183.6.40.199","Mozilla/5.0 (Windows NT 6.1; WOW64) AppleWebKit/537.36 (KHTML, like Gecko) Chrome/81.0.4044.138 Safari/537.36 NetType/WIFI MicroMessenger/7.0.20.1781(0x6700143B) WindowsWechat(0x63030532)","WebKit","Chrome","81.0.4044.138","Windows","6.1","null","<div style=""font-size:60px;"">+</div>","null",""
"","","","","","html-button-response","29","106137","0.0-4.0-1.12","281","1","2022-10-14 09:05:57","ebf9627b049f568eb4bf28942cb89901","183.6.40.199","Mozilla/5.0 (Windows NT 6.1; WOW64) AppleWebKit/537.36 (KHTML, like Gecko) Chrome/81.0.4044.138 Safari/537.36 NetType/WIFI MicroMessenger/7.0.20.1781(0x6700143B) WindowsWechat(0x63030532)","WebKit","Chrome","81.0.4044.138","Windows","6.1","2024","<p>作为军队的指挥官，你可以选择发射导弹杀死 <strong>2名</strong> 敌国士兵，但会误杀附近的 <strong>1名</strong> 敌国平民。</p> <p>平民照片如下图所示。</p> <p></p> <img src='stimuli/faces/NFF4.jpg', style='max-width: 30%;'> </img> <p><strong>你是否选择发射武器？</strong></p>","1",""
"","","","","","html-keyboard-response","30","107139","0.0-4.0-0.13","281","1","2022-10-14 09:05:57","ebf9627b049f568eb4bf28942cb89901","183.6.40.199","Mozilla/5.0 (Windows NT 6.1; WOW64) AppleWebKit/537.36 (KHTML, like Gecko) Chrome/81.0.4044.138 Safari/537.36 NetType/WIFI MicroMessenger/7.0.20.1781(0x6700143B) WindowsWechat(0x63030532)","WebKit","Chrome","81.0.4044.138","Windows","6.1","null","<div style=""font-size:60px;"">+</div>","null",""
"","","","","","html-button-response","31","108296","0.0-4.0-1.13","281","1","2022-10-14 09:05:57","ebf9627b049f568eb4bf28942cb89901","183.6.40.199","Mozilla/5.0 (Windows NT 6.1; WOW64) AppleWebKit/537.36 (KHTML, like Gecko) Chrome/81.0.4044.138 Safari/537.36 NetType/WIFI MicroMessenger/7.0.20.1781(0x6700143B) WindowsWechat(0x63030532)","WebKit","Chrome","81.0.4044.138","Windows","6.1","1155","<p>作为军队的指挥官，你可以选择发射导弹杀死 <strong>1名</strong> 敌国士兵，但会误杀附近的 <strong>1名</strong> 敌国平民。</p> <p>平民照片如下图所示。</p> <p></p> <img src='stimuli/faces/NFM4.jpg', style='max-width: 30%;'> </img> <p><strong>你是否选择发射武器？</strong></p>","1",""
"","","","","","html-keyboard-response","32","109297","0.0-4.0-0.14","281","1","2022-10-14 09:05:57","ebf9627b049f568eb4bf28942cb89901","183.6.40.199","Mozilla/5.0 (Windows NT 6.1; WOW64) AppleWebKit/537.36 (KHTML, like Gecko) Chrome/81.0.4044.138 Safari/537.36 NetType/WIFI MicroMessenger/7.0.20.1781(0x6700143B) WindowsWechat(0x63030532)","WebKit","Chrome","81.0.4044.138","Windows","6.1","null","<div style=""font-size:60px;"">+</div>","null",""
"","","","","","html-button-response","33","110878","0.0-4.0-1.14","281","1","2022-10-14 09:05:57","ebf9627b049f568eb4bf28942cb89901","183.6.40.199","Mozilla/5.0 (Windows NT 6.1; WOW64) AppleWebKit/537.36 (KHTML, like Gecko) Chrome/81.0.4044.138 Safari/537.36 NetType/WIFI MicroMessenger/7.0.20.1781(0x6700143B) WindowsWechat(0x63030532)","WebKit","Chrome","81.0.4044.138","Windows","6.1","1579","<p>作为军队的指挥官，你可以选择发射导弹杀死 <strong>2名</strong> 敌国士兵，但会炸毁附近的 <strong>1棵</strong> 敌国树木。</p> <p>树木的照片如下图所示。</p> <p></p> <img src='stimuli/trees/11.png', style='max-width: 30%;'> </img> <p><strong>你是否选择发射武器？</strong></p>","0",""
"","","","","","html-keyboard-response","34","111880","0.0-4.0-0.15","281","1","2022-10-14 09:05:57","ebf9627b049f568eb4bf28942cb89901","183.6.40.199","Mozilla/5.0 (Windows NT 6.1; WOW64) AppleWebKit/537.36 (KHTML, like Gecko) Chrome/81.0.4044.138 Safari/537.36 NetType/WIFI MicroMessenger/7.0.20.1781(0x6700143B) WindowsWechat(0x63030532)","WebKit","Chrome","81.0.4044.138","Windows","6.1","null","<div style=""font-size:60px;"">+</div>","null",""
"","","","","","html-button-response","35","114998","0.0-4.0-1.15","281","1","2022-10-14 09:05:57","ebf9627b049f568eb4bf28942cb89901","183.6.40.199","Mozilla/5.0 (Windows NT 6.1; WOW64) AppleWebKit/537.36 (KHTML, like Gecko) Chrome/81.0.4044.138 Safari/537.36 NetType/WIFI MicroMessenger/7.0.20.1781(0x6700143B) WindowsWechat(0x63030532)","WebKit","Chrome","81.0.4044.138","Windows","6.1","3116","<p>作为军队的指挥官，你可以选择发射导弹杀死 <strong>4名</strong> 敌国士兵，但会炸毁附近的 <strong>1棵</strong> 敌国树木。</p> <p>树木的照片如下图所示。</p> <p></p> <img src='stimuli/trees/16.png', style='max-width: 30%;'> </img> <p><strong>你是否选择发射武器？</strong></p>","0",""
"","","","","","html-keyboard-response","36","115999","0.0-4.0-0.16","281","1","2022-10-14 09:05:57","ebf9627b049f568eb4bf28942cb89901","183.6.40.199","Mozilla/5.0 (Windows NT 6.1; WOW64) AppleWebKit/537.36 (KHTML, like Gecko) Chrome/81.0.4044.138 Safari/537.36 NetType/WIFI MicroMessenger/7.0.20.1781(0x6700143B) WindowsWechat(0x63030532)","WebKit","Chrome","81.0.4044.138","Windows","6.1","null","<div style=""font-size:60px;"">+</div>","null",""
"","","","","","html-button-response","37","117332","0.0-4.0-1.16","281","1","2022-10-14 09:05:57","ebf9627b049f568eb4bf28942cb89901","183.6.40.199","Mozilla/5.0 (Windows NT 6.1; WOW64) AppleWebKit/537.36 (KHTML, like Gecko) Chrome/81.0.4044.138 Safari/537.36 NetType/WIFI MicroMessenger/7.0.20.1781(0x6700143B) WindowsWechat(0x63030532)","WebKit","Chrome","81.0.4044.138","Windows","6.1","1331","<p>作为军队的指挥官，你可以选择发射导弹杀死 <strong>7名</strong> 敌国士兵，但会炸毁附近的 <strong>1棵</strong> 敌国树木。</p> <p>树木的照片如下图所示。</p> <p></p> <img src='stimuli/trees/13.png', style='max-width: 30%;'> </img> <p><strong>你是否选择发射武器？</strong></p>","0",""
"","","","","","html-keyboard-response","38","118333","0.0-4.0-0.17","281","1","2022-10-14 09:05:57","ebf9627b049f568eb4bf28942cb89901","183.6.40.199","Mozilla/5.0 (Windows NT 6.1; WOW64) AppleWebKit/537.36 (KHTML, like Gecko) Chrome/81.0.4044.138 Safari/537.36 NetType/WIFI MicroMessenger/7.0.20.1781(0x6700143B) WindowsWechat(0x63030532)","WebKit","Chrome","81.0.4044.138","Windows","6.1","null","<div style=""font-size:60px;"">+</div>","null",""
"","","","","","html-button-response","39","119080","0.0-4.0-1.17","281","1","2022-10-14 09:05:57","ebf9627b049f568eb4bf28942cb89901","183.6.40.199","Mozilla/5.0 (Windows NT 6.1; WOW64) AppleWebKit/537.36 (KHTML, like Gecko) Chrome/81.0.4044.138 Safari/537.36 NetType/WIFI MicroMessenger/7.0.20.1781(0x6700143B) WindowsWechat(0x63030532)","WebKit","Chrome","81.0.4044.138","Windows","6.1","745","<p>作为军队的指挥官，你可以选择发射导弹杀死 <strong>2名</strong> 敌国士兵，但会误杀附近的 <strong>1名</strong> 敌国平民。</p> <p>平民照片如下图所示。</p> <p></p> <img src='stimuli/faces/NFM6.jpg', style='max-width: 30%;'> </img> <p><strong>你是否选择发射武器？</strong></p>","0",""
"","","","","","html-keyboard-response","40","120082","0.0-4.0-0.18","281","1","2022-10-14 09:05:57","ebf9627b049f568eb4bf28942cb89901","183.6.40.199","Mozilla/5.0 (Windows NT 6.1; WOW64) AppleWebKit/537.36 (KHTML, like Gecko) Chrome/81.0.4044.138 Safari/537.36 NetType/WIFI MicroMessenger/7.0.20.1781(0x6700143B) WindowsWechat(0x63030532)","WebKit","Chrome","81.0.4044.138","Windows","6.1","null","<div style=""font-size:60px;"">+</div>","null",""
"","","","","","html-button-response","41","121112","0.0-4.0-1.18","281","1","2022-10-14 09:05:57","ebf9627b049f568eb4bf28942cb89901","183.6.40.199","Mozilla/5.0 (Windows NT 6.1; WOW64) AppleWebKit/537.36 (KHTML, like Gecko) Chrome/81.0.4044.138 Safari/537.36 NetType/WIFI MicroMessenger/7.0.20.1781(0x6700143B) WindowsWechat(0x63030532)","WebKit","Chrome","81.0.4044.138","Windows","6.1","1028","<p>作为军队的指挥官，你可以选择发射导弹杀死 <strong>5名</strong> 敌国士兵，但会炸毁附近的 <strong>1棵</strong> 敌国树木。</p> <p>树木的照片如下图所示。</p> <p></p> <img src='stimuli/trees/12.png', style='max-width: 30%;'> </img> <p><strong>你是否选择发射武器？</strong></p>","0",""
"","","","","","html-keyboard-response","42","122113","0.0-4.0-0.19","281","1","2022-10-14 09:05:57","ebf9627b049f568eb4bf28942cb89901","183.6.40.199","Mozilla/5.0 (Windows NT 6.1; WOW64) AppleWebKit/537.36 (KHTML, like Gecko) Chrome/81.0.4044.138 Safari/537.36 NetType/WIFI MicroMessenger/7.0.20.1781(0x6700143B) WindowsWechat(0x63030532)","WebKit","Chrome","81.0.4044.138","Windows","6.1","null","<div style=""font-size:60px;"">+</div>","null",""
"","","","","","html-button-response","43","122780","0.0-4.0-1.19","281","1","2022-10-14 09:05:57","ebf9627b049f568eb4bf28942cb89901","183.6.40.199","Mozilla/5.0 (Windows NT 6.1; WOW64) AppleWebKit/537.36 (KHTML, like Gecko) Chrome/81.0.4044.138 Safari/537.36 NetType/WIFI MicroMessenger/7.0.20.1781(0x6700143B) WindowsWechat(0x63030532)","WebKit","Chrome","81.0.4044.138","Windows","6.1","665","<p>作为军队的指挥官，你可以选择发射导弹杀死 <strong>1名</strong> 敌国士兵，但会误杀附近的 <strong>1名</strong> 敌国平民。</p> <p>平民照片如下图所示。</p> <p></p> <img src='stimuli/faces/NFF3.jpg', style='max-width: 30%;'> </img> <p><strong>你是否选择发射武器？</strong></p>","0",""
"","","","","","html-keyboard-response","44","123782","0.0-4.0-0.20","281","1","2022-10-14 09:05:57","ebf9627b049f568eb4bf28942cb89901","183.6.40.199","Mozilla/5.0 (Windows NT 6.1; WOW64) AppleWebKit/537.36 (KHTML, like Gecko) Chrome/81.0.4044.138 Safari/537.36 NetType/WIFI MicroMessenger/7.0.20.1781(0x6700143B) WindowsWechat(0x63030532)","WebKit","Chrome","81.0.4044.138","Windows","6.1","null","<div style=""font-size:60px;"">+</div>","null",""
"","","","","","html-button-response","45","124664","0.0-4.0-1.20","281","1","2022-10-14 09:05:57","ebf9627b049f568eb4bf28942cb89901","183.6.40.199","Mozilla/5.0 (Windows NT 6.1; WOW64) AppleWebKit/537.36 (KHTML, like Gecko) Chrome/81.0.4044.138 Safari/537.36 NetType/WIFI MicroMessenger/7.0.20.1781(0x6700143B) WindowsWechat(0x63030532)","WebKit","Chrome","81.0.4044.138","Windows","6.1","880","<p>作为军队的指挥官，你可以选择发射导弹杀死 <strong>8名</strong> 敌国士兵，但会误杀附近的 <strong>1名</strong> 敌国平民。</p> <p>平民照片如下图所示。</p> <p></p> <img src='stimuli/faces/NFF7.jpg', style='max-width: 30%;'> </img> <p><strong>你是否选择发射武器？</strong></p>","0",""
"","","","","","html-keyboard-response","46","125666","0.0-4.0-0.21","281","1","2022-10-14 09:05:57","ebf9627b049f568eb4bf28942cb89901","183.6.40.199","Mozilla/5.0 (Windows NT 6.1; WOW64) AppleWebKit/537.36 (KHTML, like Gecko) Chrome/81.0.4044.138 Safari/537.36 NetType/WIFI MicroMessenger/7.0.20.1781(0x6700143B) WindowsWechat(0x63030532)","WebKit","Chrome","81.0.4044.138","Windows","6.1","null","<div style=""font-size:60px;"">+</div>","null",""
"","","","","","html-button-response","47","127476","0.0-4.0-1.21","281","1","2022-10-14 09:05:57","ebf9627b049f568eb4bf28942cb89901","183.6.40.199","Mozilla/5.0 (Windows NT 6.1; WOW64) AppleWebKit/537.36 (KHTML, like Gecko) Chrome/81.0.4044.138 Safari/537.36 NetType/WIFI MicroMessenger/7.0.20.1781(0x6700143B) WindowsWechat(0x63030532)","WebKit","Chrome","81.0.4044.138","Windows","6.1","1809","<p>作为军队的指挥官，你可以选择发射导弹杀死 <strong>3名</strong> 敌国士兵，但会炸毁附近的 <strong>1棵</strong> 敌国树木。</p> <p>树木的照片如下图所示。</p> <p></p> <img src='stimuli/trees/1.png', style='max-width: 30%;'> </img> <p><strong>你是否选择发射武器？</strong></p>","0",""
"","","","","","html-keyboard-response","48","128477","0.0-4.0-0.22","281","1","2022-10-14 09:05:57","ebf9627b049f568eb4bf28942cb89901","183.6.40.199","Mozilla/5.0 (Windows NT 6.1; WOW64) AppleWebKit/537.36 (KHTML, like Gecko) Chrome/81.0.4044.138 Safari/537.36 NetType/WIFI MicroMessenger/7.0.20.1781(0x6700143B) WindowsWechat(0x63030532)","WebKit","Chrome","81.0.4044.138","Windows","6.1","null","<div style=""font-size:60px;"">+</div>","null",""
"","","","","","html-button-response","49","131298","0.0-4.0-1.22","281","1","2022-10-14 09:05:57","ebf9627b049f568eb4bf28942cb89901","183.6.40.199","Mozilla/5.0 (Windows NT 6.1; WOW64) AppleWebKit/537.36 (KHTML, like Gecko) Chrome/81.0.4044.138 Safari/537.36 NetType/WIFI MicroMessenger/7.0.20.1781(0x6700143B) WindowsWechat(0x63030532)","WebKit","Chrome","81.0.4044.138","Windows","6.1","2819","<p>作为军队的指挥官，你可以选择发射导弹杀死 <strong>5名</strong> 敌国士兵，但会炸毁附近的 <strong>1棵</strong> 敌国树木。</p> <p>树木的照片如下图所示。</p> <p></p> <img src='stimuli/trees/3.png', style='max-width: 30%;'> </img> <p><strong>你是否选择发射武器？</strong></p>","0",""
"","","","","","html-keyboard-response","50","132300","0.0-4.0-0.23","281","1","2022-10-14 09:05:57","ebf9627b049f568eb4bf28942cb89901","183.6.40.199","Mozilla/5.0 (Windows NT 6.1; WOW64) AppleWebKit/537.36 (KHTML, like Gecko) Chrome/81.0.4044.138 Safari/537.36 NetType/WIFI MicroMessenger/7.0.20.1781(0x6700143B) WindowsWechat(0x63030532)","WebKit","Chrome","81.0.4044.138","Windows","6.1","null","<div style=""font-size:60px;"">+</div>","null",""
"","","","","","html-button-response","51","134222","0.0-4.0-1.23","281","1","2022-10-14 09:05:57","ebf9627b049f568eb4bf28942cb89901","183.6.40.199","Mozilla/5.0 (Windows NT 6.1; WOW64) AppleWebKit/537.36 (KHTML, like Gecko) Chrome/81.0.4044.138 Safari/537.36 NetType/WIFI MicroMessenger/7.0.20.1781(0x6700143B) WindowsWechat(0x63030532)","WebKit","Chrome","81.0.4044.138","Windows","6.1","1919","<p>作为军队的指挥官，你可以选择发射导弹杀死 <strong>9名</strong> 敌国士兵，但会误杀附近的 <strong>1名</strong> 敌国平民。</p> <p>平民照片如下图所示。</p> <p></p> <img src='stimuli/faces/NFM2.jpg', style='max-width: 30%;'> </img> <p><strong>你是否选择发射武器？</strong></p>","1",""
"","","","","","html-keyboard-response","52","135223","0.0-4.0-0.24","281","1","2022-10-14 09:05:57","ebf9627b049f568eb4bf28942cb89901","183.6.40.199","Mozilla/5.0 (Windows NT 6.1; WOW64) AppleWebKit/537.36 (KHTML, like Gecko) Chrome/81.0.4044.138 Safari/537.36 NetType/WIFI MicroMessenger/7.0.20.1781(0x6700143B) WindowsWechat(0x63030532)","WebKit","Chrome","81.0.4044.138","Windows","6.1","null","<div style=""font-size:60px;"">+</div>","null",""
"","","","","","html-button-response","53","136930","0.0-4.0-1.24","281","1","2022-10-14 09:05:57","ebf9627b049f568eb4bf28942cb89901","183.6.40.199","Mozilla/5.0 (Windows NT 6.1; WOW64) AppleWebKit/537.36 (KHTML, like Gecko) Chrome/81.0.4044.138 Safari/537.36 NetType/WIFI MicroMessenger/7.0.20.1781(0x6700143B) WindowsWechat(0x63030532)","WebKit","Chrome","81.0.4044.138","Windows","6.1","1705","<p>作为军队的指挥官，你可以选择发射导弹杀死 <strong>3名</strong> 敌国士兵，但会误杀附近的 <strong>1名</strong> 敌国平民。</p> <p>平民照片如下图所示。</p> <p></p> <img src='stimuli/faces/NFM7.jpg', style='max-width: 30%;'> </img> <p><strong>你是否选择发射武器？</strong></p>","1",""
"","","","","","html-keyboard-response","54","137932","0.0-4.0-0.25","281","1","2022-10-14 09:05:57","ebf9627b049f568eb4bf28942cb89901","183.6.40.199","Mozilla/5.0 (Windows NT 6.1; WOW64) AppleWebKit/537.36 (KHTML, like Gecko) Chrome/81.0.4044.138 Safari/537.36 NetType/WIFI MicroMessenger/7.0.20.1781(0x6700143B) WindowsWechat(0x63030532)","WebKit","Chrome","81.0.4044.138","Windows","6.1","null","<div style=""font-size:60px;"">+</div>","null",""
"","","","","","html-button-response","55","139450","0.0-4.0-1.25","281","1","2022-10-14 09:05:57","ebf9627b049f568eb4bf28942cb89901","183.6.40.199","Mozilla/5.0 (Windows NT 6.1; WOW64) AppleWebKit/537.36 (KHTML, like Gecko) Chrome/81.0.4044.138 Safari/537.36 NetType/WIFI MicroMessenger/7.0.20.1781(0x6700143B) WindowsWechat(0x63030532)","WebKit","Chrome","81.0.4044.138","Windows","6.1","1515","<p>作为军队的指挥官，你可以选择发射导弹杀死 <strong>4名</strong> 敌国士兵，但会炸毁附近的 <strong>1棵</strong> 敌国树木。</p> <p>树木的照片如下图所示。</p> <p></p> <img src='stimuli/trees/5.png', style='max-width: 30%;'> </img> <p><strong>你是否选择发射武器？</strong></p>","0",""
"","","","","","html-keyboard-response","56","140452","0.0-4.0-0.26","281","1","2022-10-14 09:05:57","ebf9627b049f568eb4bf28942cb89901","183.6.40.199","Mozilla/5.0 (Windows NT 6.1; WOW64) AppleWebKit/537.36 (KHTML, like Gecko) Chrome/81.0.4044.138 Safari/537.36 NetType/WIFI MicroMessenger/7.0.20.1781(0x6700143B) WindowsWechat(0x63030532)","WebKit","Chrome","81.0.4044.138","Windows","6.1","null","<div style=""font-size:60px;"">+</div>","null",""
"","","","","","html-button-response","57","142802","0.0-4.0-1.26","281","1","2022-10-14 09:05:57","ebf9627b049f568eb4bf28942cb89901","183.6.40.199","Mozilla/5.0 (Windows NT 6.1; WOW64) AppleWebKit/537.36 (KHTML, like Gecko) Chrome/81.0.4044.138 Safari/537.36 NetType/WIFI MicroMessenger/7.0.20.1781(0x6700143B) WindowsWechat(0x63030532)","WebKit","Chrome","81.0.4044.138","Windows","6.1","2348","<p>作为军队的指挥官，你可以选择发射导弹杀死 <strong>6名</strong> 敌国士兵，但会炸毁附近的 <strong>1棵</strong> 敌国树木。</p> <p>树木的照片如下图所示。</p> <p></p> <img src='stimuli/trees/7.png', style='max-width: 30%;'> </img> <p><strong>你是否选择发射武器？</strong></p>","0",""
"","","","","","html-keyboard-response","58","143804","0.0-4.0-0.27","281","1","2022-10-14 09:05:57","ebf9627b049f568eb4bf28942cb89901","183.6.40.199","Mozilla/5.0 (Windows NT 6.1; WOW64) AppleWebKit/537.36 (KHTML, like Gecko) Chrome/81.0.4044.138 Safari/537.36 NetType/WIFI MicroMessenger/7.0.20.1781(0x6700143B) WindowsWechat(0x63030532)","WebKit","Chrome","81.0.4044.138","Windows","6.1","null","<div style=""font-size:60px;"">+</div>","null",""
"","","","","","html-button-response","59","148786","0.0-4.0-1.27","281","1","2022-10-14 09:05:57","ebf9627b049f568eb4bf28942cb89901","183.6.40.199","Mozilla/5.0 (Windows NT 6.1; WOW64) AppleWebKit/537.36 (KHTML, like Gecko) Chrome/81.0.4044.138 Safari/537.36 NetType/WIFI MicroMessenger/7.0.20.1781(0x6700143B) WindowsWechat(0x63030532)","WebKit","Chrome","81.0.4044.138","Windows","6.1","4979","<p>作为军队的指挥官，你可以选择发射导弹杀死 <strong>9名</strong> 敌国士兵，但会误杀附近的 <strong>1名</strong> 敌国平民。</p> <p>平民照片如下图所示。</p> <p></p> <img src='stimuli/faces/NFM4.jpg', style='max-width: 30%;'> </img> <p><strong>你是否选择发射武器？</strong></p>","1",""
"","","","","","html-keyboard-response","60","149788","0.0-4.0-0.28","281","1","2022-10-14 09:05:57","ebf9627b049f568eb4bf28942cb89901","183.6.40.199","Mozilla/5.0 (Windows NT 6.1; WOW64) AppleWebKit/537.36 (KHTML, like Gecko) Chrome/81.0.4044.138 Safari/537.36 NetType/WIFI MicroMessenger/7.0.20.1781(0x6700143B) WindowsWechat(0x63030532)","WebKit","Chrome","81.0.4044.138","Windows","6.1","null","<div style=""font-size:60px;"">+</div>","null",""
"","","","","","html-button-response","61","150866","0.0-4.0-1.28","281","1","2022-10-14 09:05:57","ebf9627b049f568eb4bf28942cb89901","183.6.40.199","Mozilla/5.0 (Windows NT 6.1; WOW64) AppleWebKit/537.36 (KHTML, like Gecko) Chrome/81.0.4044.138 Safari/537.36 NetType/WIFI MicroMessenger/7.0.20.1781(0x6700143B) WindowsWechat(0x63030532)","WebKit","Chrome","81.0.4044.138","Windows","6.1","1076","<p>作为军队的指挥官，你可以选择发射导弹杀死 <strong>4名</strong> 敌国士兵，但会误杀附近的 <strong>1名</strong> 敌国平民。</p> <p>平民照片如下图所示。</p> <p></p> <img src='stimuli/faces/NFM1.jpg', style='max-width: 30%;'> </img> <p><strong>你是否选择发射武器？</strong></p>","1",""
"","","","","","html-keyboard-response","62","151867","0.0-4.0-0.29","281","1","2022-10-14 09:05:57","ebf9627b049f568eb4bf28942cb89901","183.6.40.199","Mozilla/5.0 (Windows NT 6.1; WOW64) AppleWebKit/537.36 (KHTML, like Gecko) Chrome/81.0.4044.138 Safari/537.36 NetType/WIFI MicroMessenger/7.0.20.1781(0x6700143B) WindowsWechat(0x63030532)","WebKit","Chrome","81.0.4044.138","Windows","6.1","null","<div style=""font-size:60px;"">+</div>","null",""
"","","","","","html-button-response","63","157590","0.0-4.0-1.29","281","1","2022-10-14 09:05:57","ebf9627b049f568eb4bf28942cb89901","183.6.40.199","Mozilla/5.0 (Windows NT 6.1; WOW64) AppleWebKit/537.36 (KHTML, like Gecko) Chrome/81.0.4044.138 Safari/537.36 NetType/WIFI MicroMessenger/7.0.20.1781(0x6700143B) WindowsWechat(0x63030532)","WebKit","Chrome","81.0.4044.138","Windows","6.1","5721","<p>作为军队的指挥官，你可以选择发射导弹杀死 <strong>7名</strong> 敌国士兵，但会炸毁附近的 <strong>1棵</strong> 敌国树木。</p> <p>树木的照片如下图所示。</p> <p></p> <img src='stimuli/trees/3.png', style='max-width: 30%;'> </img> <p><strong>你是否选择发射武器？</strong></p>","0",""
"","","","","","html-keyboard-response","64","158592","0.0-4.0-0.30","281","1","2022-10-14 09:05:57","ebf9627b049f568eb4bf28942cb89901","183.6.40.199","Mozilla/5.0 (Windows NT 6.1; WOW64) AppleWebKit/537.36 (KHTML, like Gecko) Chrome/81.0.4044.138 Safari/537.36 NetType/WIFI MicroMessenger/7.0.20.1781(0x6700143B) WindowsWechat(0x63030532)","WebKit","Chrome","81.0.4044.138","Windows","6.1","null","<div style=""font-size:60px;"">+</div>","null",""
"","","","","","html-button-response","65","160610","0.0-4.0-1.30","281","1","2022-10-14 09:05:57","ebf9627b049f568eb4bf28942cb89901","183.6.40.199","Mozilla/5.0 (Windows NT 6.1; WOW64) AppleWebKit/537.36 (KHTML, like Gecko) Chrome/81.0.4044.138 Safari/537.36 NetType/WIFI MicroMessenger/7.0.20.1781(0x6700143B) WindowsWechat(0x63030532)","WebKit","Chrome","81.0.4044.138","Windows","6.1","2016","<p>作为军队的指挥官，你可以选择发射导弹杀死 <strong>7名</strong> 敌国士兵，但会炸毁附近的 <strong>1棵</strong> 敌国树木。</p> <p>树木的照片如下图所示。</p> <p></p> <img src='stimuli/trees/16.png', style='max-width: 30%;'> </img> <p><strong>你是否选择发射武器？</strong></p>","0",""
"","","","","","html-keyboard-response","66","161612","0.0-4.0-0.31","281","1","2022-10-14 09:05:57","ebf9627b049f568eb4bf28942cb89901","183.6.40.199","Mozilla/5.0 (Windows NT 6.1; WOW64) AppleWebKit/537.36 (KHTML, like Gecko) Chrome/81.0.4044.138 Safari/537.36 NetType/WIFI MicroMessenger/7.0.20.1781(0x6700143B) WindowsWechat(0x63030532)","WebKit","Chrome","81.0.4044.138","Windows","6.1","null","<div style=""font-size:60px;"">+</div>","null",""
"","","","","","html-button-response","67","168022","0.0-4.0-1.31","281","1","2022-10-14 09:05:57","ebf9627b049f568eb4bf28942cb89901","183.6.40.199","Mozilla/5.0 (Windows NT 6.1; WOW64) AppleWebKit/537.36 (KHTML, like Gecko) Chrome/81.0.4044.138 Safari/537.36 NetType/WIFI MicroMessenger/7.0.20.1781(0x6700143B) WindowsWechat(0x63030532)","WebKit","Chrome","81.0.4044.138","Windows","6.1","6408","<p>作为军队的指挥官，你可以选择发射导弹杀死 <strong>2名</strong> 敌国士兵，但会炸毁附近的 <strong>1棵</strong> 敌国树木。</p> <p>树木的照片如下图所示。</p> <p></p> <img src='stimuli/trees/8.png', style='max-width: 30%;'> </img> <p><strong>你是否选择发射武器？</strong></p>","1",""
"","","","","","html-keyboard-response","68","169024","0.0-4.0-0.32","281","1","2022-10-14 09:05:57","ebf9627b049f568eb4bf28942cb89901","183.6.40.199","Mozilla/5.0 (Windows NT 6.1; WOW64) AppleWebKit/537.36 (KHTML, like Gecko) Chrome/81.0.4044.138 Safari/537.36 NetType/WIFI MicroMessenger/7.0.20.1781(0x6700143B) WindowsWechat(0x63030532)","WebKit","Chrome","81.0.4044.138","Windows","6.1","null","<div style=""font-size:60px;"">+</div>","null",""
"","","","","","html-button-response","69","173546","0.0-4.0-1.32","281","1","2022-10-14 09:05:57","ebf9627b049f568eb4bf28942cb89901","183.6.40.199","Mozilla/5.0 (Windows NT 6.1; WOW64) AppleWebKit/537.36 (KHTML, like Gecko) Chrome/81.0.4044.138 Safari/537.36 NetType/WIFI MicroMessenger/7.0.20.1781(0x6700143B) WindowsWechat(0x63030532)","WebKit","Chrome","81.0.4044.138","Windows","6.1","4520","<p>作为军队的指挥官，你可以选择发射导弹杀死 <strong>3名</strong> 敌国士兵，但会炸毁附近的 <strong>1棵</strong> 敌国树木。</p> <p>树木的照片如下图所示。</p> <p></p> <img src='stimuli/trees/7.png', style='max-width: 30%;'> </img> <p><strong>你是否选择发射武器？</strong></p>","0",""
"","","","","","html-keyboard-response","70","174547","0.0-4.0-0.33","281","1","2022-10-14 09:05:57","ebf9627b049f568eb4bf28942cb89901","183.6.40.199","Mozilla/5.0 (Windows NT 6.1; WOW64) AppleWebKit/537.36 (KHTML, like Gecko) Chrome/81.0.4044.138 Safari/537.36 NetType/WIFI MicroMessenger/7.0.20.1781(0x6700143B) WindowsWechat(0x63030532)","WebKit","Chrome","81.0.4044.138","Windows","6.1","null","<div style=""font-size:60px;"">+</div>","null",""
"","","","","","html-button-response","71","176052","0.0-4.0-1.33","281","1","2022-10-14 09:05:57","ebf9627b049f568eb4bf28942cb89901","183.6.40.199","Mozilla/5.0 (Windows NT 6.1; WOW64) AppleWebKit/537.36 (KHTML, like Gecko) Chrome/81.0.4044.138 Safari/537.36 NetType/WIFI MicroMessenger/7.0.20.1781(0x6700143B) WindowsWechat(0x63030532)","WebKit","Chrome","81.0.4044.138","Windows","6.1","1502","<p>作为军队的指挥官，你可以选择发射导弹杀死 <strong>6名</strong> 敌国士兵，但会误杀附近的 <strong>1名</strong> 敌国平民。</p> <p>平民照片如下图所示。</p> <p></p> <img src='stimuli/faces/NFM1.jpg', style='max-width: 30%;'> </img> <p><strong>你是否选择发射武器？</strong></p>","1",""
"","","","","","html-keyboard-response","72","177053","0.0-4.0-0.34","281","1","2022-10-14 09:05:57","ebf9627b049f568eb4bf28942cb89901","183.6.40.199","Mozilla/5.0 (Windows NT 6.1; WOW64) AppleWebKit/537.36 (KHTML, like Gecko) Chrome/81.0.4044.138 Safari/537.36 NetType/WIFI MicroMessenger/7.0.20.1781(0x6700143B) WindowsWechat(0x63030532)","WebKit","Chrome","81.0.4044.138","Windows","6.1","null","<div style=""font-size:60px;"">+</div>","null",""
"","","","","","html-button-response","73","178332","0.0-4.0-1.34","281","1","2022-10-14 09:05:57","ebf9627b049f568eb4bf28942cb89901","183.6.40.199","Mozilla/5.0 (Windows NT 6.1; WOW64) AppleWebKit/537.36 (KHTML, like Gecko) Chrome/81.0.4044.138 Safari/537.36 NetType/WIFI MicroMessenger/7.0.20.1781(0x6700143B) WindowsWechat(0x63030532)","WebKit","Chrome","81.0.4044.138","Windows","6.1","1276","<p>作为军队的指挥官，你可以选择发射导弹杀死 <strong>7名</strong> 敌国士兵，但会误杀附近的 <strong>1名</strong> 敌国平民。</p> <p>平民照片如下图所示。</p> <p></p> <img src='stimuli/faces/NFF5.jpg', style='max-width: 30%;'> </img> <p><strong>你是否选择发射武器？</strong></p>","1",""
"","","","","","html-keyboard-response","74","179334","0.0-4.0-0.35","281","1","2022-10-14 09:05:57","ebf9627b049f568eb4bf28942cb89901","183.6.40.199","Mozilla/5.0 (Windows NT 6.1; WOW64) AppleWebKit/537.36 (KHTML, like Gecko) Chrome/81.0.4044.138 Safari/537.36 NetType/WIFI MicroMessenger/7.0.20.1781(0x6700143B) WindowsWechat(0x63030532)","WebKit","Chrome","81.0.4044.138","Windows","6.1","null","<div style=""font-size:60px;"">+</div>","null",""
"","","","","","html-button-response","75","181261","0.0-4.0-1.35","281","1","2022-10-14 09:05:57","ebf9627b049f568eb4bf28942cb89901","183.6.40.199","Mozilla/5.0 (Windows NT 6.1; WOW64) AppleWebKit/537.36 (KHTML, like Gecko) Chrome/81.0.4044.138 Safari/537.36 NetType/WIFI MicroMessenger/7.0.20.1781(0x6700143B) WindowsWechat(0x63030532)","WebKit","Chrome","81.0.4044.138","Windows","6.1","1925","<p>作为军队的指挥官，你可以选择发射导弹杀死 <strong>9名</strong> 敌国士兵，但会炸毁附近的 <strong>1棵</strong> 敌国树木。</p> <p>树木的照片如下图所示。</p> <p></p> <img src='stimuli/trees/2.png', style='max-width: 30%;'> </img> <p><strong>你是否选择发射武器？</strong></p>","0",""
"","","","","","html-keyboard-response","76","182262","0.0-4.0-0.36","281","1","2022-10-14 09:05:57","ebf9627b049f568eb4bf28942cb89901","183.6.40.199","Mozilla/5.0 (Windows NT 6.1; WOW64) AppleWebKit/537.36 (KHTML, like Gecko) Chrome/81.0.4044.138 Safari/537.36 NetType/WIFI MicroMessenger/7.0.20.1781(0x6700143B) WindowsWechat(0x63030532)","WebKit","Chrome","81.0.4044.138","Windows","6.1","null","<div style=""font-size:60px;"">+</div>","null",""
"","","","","","html-button-response","77","186414","0.0-4.0-1.36","281","1","2022-10-14 09:05:57","ebf9627b049f568eb4bf28942cb89901","183.6.40.199","Mozilla/5.0 (Windows NT 6.1; WOW64) AppleWebKit/537.36 (KHTML, like Gecko) Chrome/81.0.4044.138 Safari/537.36 NetType/WIFI MicroMessenger/7.0.20.1781(0x6700143B) WindowsWechat(0x63030532)","WebKit","Chrome","81.0.4044.138","Windows","6.1","4149","<p>作为军队的指挥官，你可以选择发射导弹杀死 <strong>10名</strong> 敌国士兵，但会炸毁附近的 <strong>1棵</strong> 敌国树木。</p> <p>树木的照片如下图所示。</p> <p></p> <img src='stimuli/trees/11.png', style='max-width: 30%;'> </img> <p><strong>你是否选择发射武器？</strong></p>","0",""
"","","","","","html-keyboard-response","78","187416","0.0-4.0-0.37","281","1","2022-10-14 09:05:57","ebf9627b049f568eb4bf28942cb89901","183.6.40.199","Mozilla/5.0 (Windows NT 6.1; WOW64) AppleWebKit/537.36 (KHTML, like Gecko) Chrome/81.0.4044.138 Safari/537.36 NetType/WIFI MicroMessenger/7.0.20.1781(0x6700143B) WindowsWechat(0x63030532)","WebKit","Chrome","81.0.4044.138","Windows","6.1","null","<div style=""font-size:60px;"">+</div>","null",""
"","","","","","html-button-response","79","189150","0.0-4.0-1.37","281","1","2022-10-14 09:05:57","ebf9627b049f568eb4bf28942cb89901","183.6.40.199","Mozilla/5.0 (Windows NT 6.1; WOW64) AppleWebKit/537.36 (KHTML, like Gecko) Chrome/81.0.4044.138 Safari/537.36 NetType/WIFI MicroMessenger/7.0.20.1781(0x6700143B) WindowsWechat(0x63030532)","WebKit","Chrome","81.0.4044.138","Windows","6.1","1732","<p>作为军队的指挥官，你可以选择发射导弹杀死 <strong>5名</strong> 敌国士兵，但会误杀附近的 <strong>1名</strong> 敌国平民。</p> <p>平民照片如下图所示。</p> <p></p> <img src='stimuli/faces/NFF2.jpg', style='max-width: 30%;'> </img> <p><strong>你是否选择发射武器？</strong></p>","1",""
"","","","","","html-keyboard-response","80","190152","0.0-4.0-0.38","281","1","2022-10-14 09:05:57","ebf9627b049f568eb4bf28942cb89901","183.6.40.199","Mozilla/5.0 (Windows NT 6.1; WOW64) AppleWebKit/537.36 (KHTML, like Gecko) Chrome/81.0.4044.138 Safari/537.36 NetType/WIFI MicroMessenger/7.0.20.1781(0x6700143B) WindowsWechat(0x63030532)","WebKit","Chrome","81.0.4044.138","Windows","6.1","null","<div style=""font-size:60px;"">+</div>","null",""
"","","","","","html-button-response","81","191934","0.0-4.0-1.38","281","1","2022-10-14 09:05:57","ebf9627b049f568eb4bf28942cb89901","183.6.40.199","Mozilla/5.0 (Windows NT 6.1; WOW64) AppleWebKit/537.36 (KHTML, like Gecko) Chrome/81.0.4044.138 Safari/537.36 NetType/WIFI MicroMessenger/7.0.20.1781(0x6700143B) WindowsWechat(0x63030532)","WebKit","Chrome","81.0.4044.138","Windows","6.1","1780","<p>作为军队的指挥官，你可以选择发射导弹杀死 <strong>7名</strong> 敌国士兵，但会炸毁附近的 <strong>1棵</strong> 敌国树木。</p> <p>树木的照片如下图所示。</p> <p></p> <img src='stimuli/trees/15.png', style='max-width: 30%;'> </img> <p><strong>你是否选择发射武器？</strong></p>","0",""
"","","","","","html-keyboard-response","82","192937","0.0-4.0-0.39","281","1","2022-10-14 09:05:57","ebf9627b049f568eb4bf28942cb89901","183.6.40.199","Mozilla/5.0 (Windows NT 6.1; WOW64) AppleWebKit/537.36 (KHTML, like Gecko) Chrome/81.0.4044.138 Safari/537.36 NetType/WIFI MicroMessenger/7.0.20.1781(0x6700143B) WindowsWechat(0x63030532)","WebKit","Chrome","81.0.4044.138","Windows","6.1","null","<div style=""font-size:60px;"">+</div>","null",""
"","","","","","html-button-response","83","194598","0.0-4.0-1.39","281","1","2022-10-14 09:05:57","ebf9627b049f568eb4bf28942cb89901","183.6.40.199","Mozilla/5.0 (Windows NT 6.1; WOW64) AppleWebKit/537.36 (KHTML, like Gecko) Chrome/81.0.4044.138 Safari/537.36 NetType/WIFI MicroMessenger/7.0.20.1781(0x6700143B) WindowsWechat(0x63030532)","WebKit","Chrome","81.0.4044.138","Windows","6.1","1659","<p>作为军队的指挥官，你可以选择发射导弹杀死 <strong>6名</strong> 敌国士兵，但会误杀附近的 <strong>1名</strong> 敌国平民。</p> <p>平民照片如下图所示。</p> <p></p> <img src='stimuli/faces/NFF8.jpg', style='max-width: 30%;'> </img> <p><strong>你是否选择发射武器？</strong></p>","1",""
"","","","","","html-keyboard-response","84","195600","0.0-4.0-0.40","281","1","2022-10-14 09:05:57","ebf9627b049f568eb4bf28942cb89901","183.6.40.199","Mozilla/5.0 (Windows NT 6.1; WOW64) AppleWebKit/537.36 (KHTML, like Gecko) Chrome/81.0.4044.138 Safari/537.36 NetType/WIFI MicroMessenger/7.0.20.1781(0x6700143B) WindowsWechat(0x63030532)","WebKit","Chrome","81.0.4044.138","Windows","6.1","null","<div style=""font-size:60px;"">+</div>","null",""
"","","","","","html-button-response","85","196546","0.0-4.0-1.40","281","1","2022-10-14 09:05:57","ebf9627b049f568eb4bf28942cb89901","183.6.40.199","Mozilla/5.0 (Windows NT 6.1; WOW64) AppleWebKit/537.36 (KHTML, like Gecko) Chrome/81.0.4044.138 Safari/537.36 NetType/WIFI MicroMessenger/7.0.20.1781(0x6700143B) WindowsWechat(0x63030532)","WebKit","Chrome","81.0.4044.138","Windows","6.1","943","<p>作为军队的指挥官，你可以选择发射导弹杀死 <strong>1名</strong> 敌国士兵，但会误杀附近的 <strong>1名</strong> 敌国平民。</p> <p>平民照片如下图所示。</p> <p></p> <img src='stimuli/faces/NFF5.jpg', style='max-width: 30%;'> </img> <p><strong>你是否选择发射武器？</strong></p>","1",""
"","","","","","html-keyboard-response","86","197547","0.0-4.0-0.41","281","1","2022-10-14 09:05:57","ebf9627b049f568eb4bf28942cb89901","183.6.40.199","Mozilla/5.0 (Windows NT 6.1; WOW64) AppleWebKit/537.36 (KHTML, like Gecko) Chrome/81.0.4044.138 Safari/537.36 NetType/WIFI MicroMessenger/7.0.20.1781(0x6700143B) WindowsWechat(0x63030532)","WebKit","Chrome","81.0.4044.138","Windows","6.1","null","<div style=""font-size:60px;"">+</div>","null",""
"","","","","","html-button-response","87","198088","0.0-4.0-1.41","281","1","2022-10-14 09:05:57","ebf9627b049f568eb4bf28942cb89901","183.6.40.199","Mozilla/5.0 (Windows NT 6.1; WOW64) AppleWebKit/537.36 (KHTML, like Gecko) Chrome/81.0.4044.138 Safari/537.36 NetType/WIFI MicroMessenger/7.0.20.1781(0x6700143B) WindowsWechat(0x63030532)","WebKit","Chrome","81.0.4044.138","Windows","6.1","538","<p>作为军队的指挥官，你可以选择发射导弹杀死 <strong>10名</strong> 敌国士兵，但会误杀附近的 <strong>1名</strong> 敌国平民。</p> <p>平民照片如下图所示。</p> <p></p> <img src='stimuli/faces/NFF1.jpg', style='max-width: 30%;'> </img> <p><strong>你是否选择发射武器？</strong></p>","1",""
"","","","","","html-keyboard-response","88","199090","0.0-4.0-0.42","281","1","2022-10-14 09:05:57","ebf9627b049f568eb4bf28942cb89901","183.6.40.199","Mozilla/5.0 (Windows NT 6.1; WOW64) AppleWebKit/537.36 (KHTML, like Gecko) Chrome/81.0.4044.138 Safari/537.36 NetType/WIFI MicroMessenger/7.0.20.1781(0x6700143B) WindowsWechat(0x63030532)","WebKit","Chrome","81.0.4044.138","Windows","6.1","null","<div style=""font-size:60px;"">+</div>","null",""
"","","","","","html-button-response","89","202802","0.0-4.0-1.42","281","1","2022-10-14 09:05:57","ebf9627b049f568eb4bf28942cb89901","183.6.40.199","Mozilla/5.0 (Windows NT 6.1; WOW64) AppleWebKit/537.36 (KHTML, like Gecko) Chrome/81.0.4044.138 Safari/537.36 NetType/WIFI MicroMessenger/7.0.20.1781(0x6700143B) WindowsWechat(0x63030532)","WebKit","Chrome","81.0.4044.138","Windows","6.1","3710","<p>作为军队的指挥官，你可以选择发射导弹杀死 <strong>4名</strong> 敌国士兵，但会炸毁附近的 <strong>1棵</strong> 敌国树木。</p> <p>树木的照片如下图所示。</p> <p></p> <img src='stimuli/trees/13.png', style='max-width: 30%;'> </img> <p><strong>你是否选择发射武器？</strong></p>","0",""
"","","","","","html-keyboard-response","90","203804","0.0-4.0-0.43","281","1","2022-10-14 09:05:57","ebf9627b049f568eb4bf28942cb89901","183.6.40.199","Mozilla/5.0 (Windows NT 6.1; WOW64) AppleWebKit/537.36 (KHTML, like Gecko) Chrome/81.0.4044.138 Safari/537.36 NetType/WIFI MicroMessenger/7.0.20.1781(0x6700143B) WindowsWechat(0x63030532)","WebKit","Chrome","81.0.4044.138","Windows","6.1","null","<div style=""font-size:60px;"">+</div>","null",""
"","","","","","html-button-response","91","205508","0.0-4.0-1.43","281","1","2022-10-14 09:05:57","ebf9627b049f568eb4bf28942cb89901","183.6.40.199","Mozilla/5.0 (Windows NT 6.1; WOW64) AppleWebKit/537.36 (KHTML, like Gecko) Chrome/81.0.4044.138 Safari/537.36 NetType/WIFI MicroMessenger/7.0.20.1781(0x6700143B) WindowsWechat(0x63030532)","WebKit","Chrome","81.0.4044.138","Windows","6.1","1701","<p>作为军队的指挥官，你可以选择发射导弹杀死 <strong>8名</strong> 敌国士兵，但会炸毁附近的 <strong>1棵</strong> 敌国树木。</p> <p>树木的照片如下图所示。</p> <p></p> <img src='stimuli/trees/4.png', style='max-width: 30%;'> </img> <p><strong>你是否选择发射武器？</strong></p>","0",""
"","","","","","html-keyboard-response","92","206510","0.0-4.0-0.44","281","1","2022-10-14 09:05:57","ebf9627b049f568eb4bf28942cb89901","183.6.40.199","Mozilla/5.0 (Windows NT 6.1; WOW64) AppleWebKit/537.36 (KHTML, like Gecko) Chrome/81.0.4044.138 Safari/537.36 NetType/WIFI MicroMessenger/7.0.20.1781(0x6700143B) WindowsWechat(0x63030532)","WebKit","Chrome","81.0.4044.138","Windows","6.1","null","<div style=""font-size:60px;"">+</div>","null",""
"","","","","","html-button-response","93","207860","0.0-4.0-1.44","281","1","2022-10-14 09:05:57","ebf9627b049f568eb4bf28942cb89901","183.6.40.199","Mozilla/5.0 (Windows NT 6.1; WOW64) AppleWebKit/537.36 (KHTML, like Gecko) Chrome/81.0.4044.138 Safari/537.36 NetType/WIFI MicroMessenger/7.0.20.1781(0x6700143B) WindowsWechat(0x63030532)","WebKit","Chrome","81.0.4044.138","Windows","6.1","1348","<p>作为军队的指挥官，你可以选择发射导弹杀死 <strong>6名</strong> 敌国士兵，但会炸毁附近的 <strong>1棵</strong> 敌国树木。</p> <p>树木的照片如下图所示。</p> <p></p> <img src='stimuli/trees/1.png', style='max-width: 30%;'> </img> <p><strong>你是否选择发射武器？</strong></p>","0",""
"","","","","","html-keyboard-response","94","208863","0.0-4.0-0.45","281","1","2022-10-14 09:05:57","ebf9627b049f568eb4bf28942cb89901","183.6.40.199","Mozilla/5.0 (Windows NT 6.1; WOW64) AppleWebKit/537.36 (KHTML, like Gecko) Chrome/81.0.4044.138 Safari/537.36 NetType/WIFI MicroMessenger/7.0.20.1781(0x6700143B) WindowsWechat(0x63030532)","WebKit","Chrome","81.0.4044.138","Windows","6.1","null","<div style=""font-size:60px;"">+</div>","null",""
"","","","","","html-button-response","95","210068","0.0-4.0-1.45","281","1","2022-10-14 09:05:57","ebf9627b049f568eb4bf28942cb89901","183.6.40.199","Mozilla/5.0 (Windows NT 6.1; WOW64) AppleWebKit/537.36 (KHTML, like Gecko) Chrome/81.0.4044.138 Safari/537.36 NetType/WIFI MicroMessenger/7.0.20.1781(0x6700143B) WindowsWechat(0x63030532)","WebKit","Chrome","81.0.4044.138","Windows","6.1","1202","<p>作为军队的指挥官，你可以选择发射导弹杀死 <strong>4名</strong> 敌国士兵，但会误杀附近的 <strong>1名</strong> 敌国平民。</p> <p>平民照片如下图所示。</p> <p></p> <img src='stimuli/faces/NFM3.jpg', style='max-width: 30%;'> </img> <p><strong>你是否选择发射武器？</strong></p>","1",""
"","","","","","html-keyboard-response","96","211070","0.0-4.0-0.46","281","1","2022-10-14 09:05:57","ebf9627b049f568eb4bf28942cb89901","183.6.40.199","Mozilla/5.0 (Windows NT 6.1; WOW64) AppleWebKit/537.36 (KHTML, like Gecko) Chrome/81.0.4044.138 Safari/537.36 NetType/WIFI MicroMessenger/7.0.20.1781(0x6700143B) WindowsWechat(0x63030532)","WebKit","Chrome","81.0.4044.138","Windows","6.1","null","<div style=""font-size:60px;"">+</div>","null",""
"","","","","","html-button-response","97","211554","0.0-4.0-1.46","281","1","2022-10-14 09:05:57","ebf9627b049f568eb4bf28942cb89901","183.6.40.199","Mozilla/5.0 (Windows NT 6.1; WOW64) AppleWebKit/537.36 (KHTML, like Gecko) Chrome/81.0.4044.138 Safari/537.36 NetType/WIFI MicroMessenger/7.0.20.1781(0x6700143B) WindowsWechat(0x63030532)","WebKit","Chrome","81.0.4044.138","Windows","6.1","481","<p>作为军队的指挥官，你可以选择发射导弹杀死 <strong>7名</strong> 敌国士兵，但会误杀附近的 <strong>1名</strong> 敌国平民。</p> <p>平民照片如下图所示。</p> <p></p> <img src='stimuli/faces/NFM5.jpg', style='max-width: 30%;'> </img> <p><strong>你是否选择发射武器？</strong></p>","1",""
"","","","","","html-keyboard-response","98","212556","0.0-4.0-0.47","281","1","2022-10-14 09:05:57","ebf9627b049f568eb4bf28942cb89901","183.6.40.199","Mozilla/5.0 (Windows NT 6.1; WOW64) AppleWebKit/537.36 (KHTML, like Gecko) Chrome/81.0.4044.138 Safari/537.36 NetType/WIFI MicroMessenger/7.0.20.1781(0x6700143B) WindowsWechat(0x63030532)","WebKit","Chrome","81.0.4044.138","Windows","6.1","null","<div style=""font-size:60px;"">+</div>","null",""
"","","","","","html-button-response","99","212992","0.0-4.0-1.47","281","1","2022-10-14 09:05:57","ebf9627b049f568eb4bf28942cb89901","183.6.40.199","Mozilla/5.0 (Windows NT 6.1; WOW64) AppleWebKit/537.36 (KHTML, like Gecko) Chrome/81.0.4044.138 Safari/537.36 NetType/WIFI MicroMessenger/7.0.20.1781(0x6700143B) WindowsWechat(0x63030532)","WebKit","Chrome","81.0.4044.138","Windows","6.1","433","<p>作为军队的指挥官，你可以选择发射导弹杀死 <strong>7名</strong> 敌国士兵，但会误杀附近的 <strong>1名</strong> 敌国平民。</p> <p>平民照片如下图所示。</p> <p></p> <img src='stimuli/faces/NFM6.jpg', style='max-width: 30%;'> </img> <p><strong>你是否选择发射武器？</strong></p>","1",""
"","","","","","html-keyboard-response","100","213994","0.0-4.0-0.48","281","1","2022-10-14 09:05:57","ebf9627b049f568eb4bf28942cb89901","183.6.40.199","Mozilla/5.0 (Windows NT 6.1; WOW64) AppleWebKit/537.36 (KHTML, like Gecko) Chrome/81.0.4044.138 Safari/537.36 NetType/WIFI MicroMessenger/7.0.20.1781(0x6700143B) WindowsWechat(0x63030532)","WebKit","Chrome","81.0.4044.138","Windows","6.1","null","<div style=""font-size:60px;"">+</div>","null",""
"","","","","","html-button-response","101","214442","0.0-4.0-1.48","281","1","2022-10-14 09:05:57","ebf9627b049f568eb4bf28942cb89901","183.6.40.199","Mozilla/5.0 (Windows NT 6.1; WOW64) AppleWebKit/537.36 (KHTML, like Gecko) Chrome/81.0.4044.138 Safari/537.36 NetType/WIFI MicroMessenger/7.0.20.1781(0x6700143B) WindowsWechat(0x63030532)","WebKit","Chrome","81.0.4044.138","Windows","6.1","446","<p>作为军队的指挥官，你可以选择发射导弹杀死 <strong>2名</strong> 敌国士兵，但会误杀附近的 <strong>1名</strong> 敌国平民。</p> <p>平民照片如下图所示。</p> <p></p> <img src='stimuli/faces/NFF6.jpg', style='max-width: 30%;'> </img> <p><strong>你是否选择发射武器？</strong></p>","1",""
"","","","","","html-keyboard-response","102","215444","0.0-4.0-0.49","281","1","2022-10-14 09:05:57","ebf9627b049f568eb4bf28942cb89901","183.6.40.199","Mozilla/5.0 (Windows NT 6.1; WOW64) AppleWebKit/537.36 (KHTML, like Gecko) Chrome/81.0.4044.138 Safari/537.36 NetType/WIFI MicroMessenger/7.0.20.1781(0x6700143B) WindowsWechat(0x63030532)","WebKit","Chrome","81.0.4044.138","Windows","6.1","null","<div style=""font-size:60px;"">+</div>","null",""
"","","","","","html-button-response","103","215932","0.0-4.0-1.49","281","1","2022-10-14 09:05:57","ebf9627b049f568eb4bf28942cb89901","183.6.40.199","Mozilla/5.0 (Windows NT 6.1; WOW64) AppleWebKit/537.36 (KHTML, like Gecko) Chrome/81.0.4044.138 Safari/537.36 NetType/WIFI MicroMessenger/7.0.20.1781(0x6700143B) WindowsWechat(0x63030532)","WebKit","Chrome","81.0.4044.138","Windows","6.1","485","<p>作为军队的指挥官，你可以选择发射导弹杀死 <strong>9名</strong> 敌国士兵，但会误杀附近的 <strong>1名</strong> 敌国平民。</p> <p>平民照片如下图所示。</p> <p></p> <img src='stimuli/faces/NFM8.jpg', style='max-width: 30%;'> </img> <p><strong>你是否选择发射武器？</strong></p>","1",""
"","","","","","html-keyboard-response","104","216933","0.0-4.0-0.50","281","1","2022-10-14 09:05:57","ebf9627b049f568eb4bf28942cb89901","183.6.40.199","Mozilla/5.0 (Windows NT 6.1; WOW64) AppleWebKit/537.36 (KHTML, like Gecko) Chrome/81.0.4044.138 Safari/537.36 NetType/WIFI MicroMessenger/7.0.20.1781(0x6700143B) WindowsWechat(0x63030532)","WebKit","Chrome","81.0.4044.138","Windows","6.1","null","<div style=""font-size:60px;"">+</div>","null",""
"","","","","","html-button-response","105","217374","0.0-4.0-1.50","281","1","2022-10-14 09:05:57","ebf9627b049f568eb4bf28942cb89901","183.6.40.199","Mozilla/5.0 (Windows NT 6.1; WOW64) AppleWebKit/537.36 (KHTML, like Gecko) Chrome/81.0.4044.138 Safari/537.36 NetType/WIFI MicroMessenger/7.0.20.1781(0x6700143B) WindowsWechat(0x63030532)","WebKit","Chrome","81.0.4044.138","Windows","6.1","438","<p>作为军队的指挥官，你可以选择发射导弹杀死 <strong>1名</strong> 敌国士兵，但会误杀附近的 <strong>1名</strong> 敌国平民。</p> <p>平民照片如下图所示。</p> <p></p> <img src='stimuli/faces/NFM8.jpg', style='max-width: 30%;'> </img> <p><strong>你是否选择发射武器？</strong></p>","1",""
"","","","","","html-keyboard-response","106","218376","0.0-4.0-0.51","281","1","2022-10-14 09:05:57","ebf9627b049f568eb4bf28942cb89901","183.6.40.199","Mozilla/5.0 (Windows NT 6.1; WOW64) AppleWebKit/537.36 (KHTML, like Gecko) Chrome/81.0.4044.138 Safari/537.36 NetType/WIFI MicroMessenger/7.0.20.1781(0x6700143B) WindowsWechat(0x63030532)","WebKit","Chrome","81.0.4044.138","Windows","6.1","null","<div style=""font-size:60px;"">+</div>","null",""
"","","","","","html-button-response","107","219724","0.0-4.0-1.51","281","1","2022-10-14 09:05:57","ebf9627b049f568eb4bf28942cb89901","183.6.40.199","Mozilla/5.0 (Windows NT 6.1; WOW64) AppleWebKit/537.36 (KHTML, like Gecko) Chrome/81.0.4044.138 Safari/537.36 NetType/WIFI MicroMessenger/7.0.20.1781(0x6700143B) WindowsWechat(0x63030532)","WebKit","Chrome","81.0.4044.138","Windows","6.1","1346","<p>作为军队的指挥官，你可以选择发射导弹杀死 <strong>8名</strong> 敌国士兵，但会误杀附近的 <strong>1名</strong> 敌国平民。</p> <p>平民照片如下图所示。</p> <p></p> <img src='stimuli/faces/NFF6.jpg', style='max-width: 30%;'> </img> <p><strong>你是否选择发射武器？</strong></p>","1",""
"","","","","","html-keyboard-response","108","220726","0.0-4.0-0.52","281","1","2022-10-14 09:05:57","ebf9627b049f568eb4bf28942cb89901","183.6.40.199","Mozilla/5.0 (Windows NT 6.1; WOW64) AppleWebKit/537.36 (KHTML, like Gecko) Chrome/81.0.4044.138 Safari/537.36 NetType/WIFI MicroMessenger/7.0.20.1781(0x6700143B) WindowsWechat(0x63030532)","WebKit","Chrome","81.0.4044.138","Windows","6.1","null","<div style=""font-size:60px;"">+</div>","null",""
"","","","","","html-button-response","109","222212","0.0-4.0-1.52","281","1","2022-10-14 09:05:57","ebf9627b049f568eb4bf28942cb89901","183.6.40.199","Mozilla/5.0 (Windows NT 6.1; WOW64) AppleWebKit/537.36 (KHTML, like Gecko) Chrome/81.0.4044.138 Safari/537.36 NetType/WIFI MicroMessenger/7.0.20.1781(0x6700143B) WindowsWechat(0x63030532)","WebKit","Chrome","81.0.4044.138","Windows","6.1","1484","<p>作为军队的指挥官，你可以选择发射导弹杀死 <strong>5名</strong> 敌国士兵，但会炸毁附近的 <strong>1棵</strong> 敌国树木。</p> <p>树木的照片如下图所示。</p> <p></p> <img src='stimuli/trees/6.png', style='max-width: 30%;'> </img> <p><strong>你是否选择发射武器？</strong></p>","0",""
"","","","","","html-keyboard-response","110","223213","0.0-4.0-0.53","281","1","2022-10-14 09:05:57","ebf9627b049f568eb4bf28942cb89901","183.6.40.199","Mozilla/5.0 (Windows NT 6.1; WOW64) AppleWebKit/537.36 (KHTML, like Gecko) Chrome/81.0.4044.138 Safari/537.36 NetType/WIFI MicroMessenger/7.0.20.1781(0x6700143B) WindowsWechat(0x63030532)","WebKit","Chrome","81.0.4044.138","Windows","6.1","null","<div style=""font-size:60px;"">+</div>","null",""
"","","","","","html-button-response","111","224244","0.0-4.0-1.53","281","1","2022-10-14 09:05:57","ebf9627b049f568eb4bf28942cb89901","183.6.40.199","Mozilla/5.0 (Windows NT 6.1; WOW64) AppleWebKit/537.36 (KHTML, like Gecko) Chrome/81.0.4044.138 Safari/537.36 NetType/WIFI MicroMessenger/7.0.20.1781(0x6700143B) WindowsWechat(0x63030532)","WebKit","Chrome","81.0.4044.138","Windows","6.1","1029","<p>作为军队的指挥官，你可以选择发射导弹杀死 <strong>2名</strong> 敌国士兵，但会误杀附近的 <strong>1名</strong> 敌国平民。</p> <p>平民照片如下图所示。</p> <p></p> <img src='stimuli/faces/NFM5.jpg', style='max-width: 30%;'> </img> <p><strong>你是否选择发射武器？</strong></p>","1",""
"","","","","","html-keyboard-response","112","225246","0.0-4.0-0.54","281","1","2022-10-14 09:05:57","ebf9627b049f568eb4bf28942cb89901","183.6.40.199","Mozilla/5.0 (Windows NT 6.1; WOW64) AppleWebKit/537.36 (KHTML, like Gecko) Chrome/81.0.4044.138 Safari/537.36 NetType/WIFI MicroMessenger/7.0.20.1781(0x6700143B) WindowsWechat(0x63030532)","WebKit","Chrome","81.0.4044.138","Windows","6.1","null","<div style=""font-size:60px;"">+</div>","null",""
"","","","","","html-button-response","113","226714","0.0-4.0-1.54","281","1","2022-10-14 09:05:57","ebf9627b049f568eb4bf28942cb89901","183.6.40.199","Mozilla/5.0 (Windows NT 6.1; WOW64) AppleWebKit/537.36 (KHTML, like Gecko) Chrome/81.0.4044.138 Safari/537.36 NetType/WIFI MicroMessenger/7.0.20.1781(0x6700143B) WindowsWechat(0x63030532)","WebKit","Chrome","81.0.4044.138","Windows","6.1","1465","<p>作为军队的指挥官，你可以选择发射导弹杀死 <strong>6名</strong> 敌国士兵，但会炸毁附近的 <strong>1棵</strong> 敌国树木。</p> <p>树木的照片如下图所示。</p> <p></p> <img src='stimuli/trees/6.png', style='max-width: 30%;'> </img> <p><strong>你是否选择发射武器？</strong></p>","0",""
"","","","","","html-keyboard-response","114","227715","0.0-4.0-0.55","281","1","2022-10-14 09:05:57","ebf9627b049f568eb4bf28942cb89901","183.6.40.199","Mozilla/5.0 (Windows NT 6.1; WOW64) AppleWebKit/537.36 (KHTML, like Gecko) Chrome/81.0.4044.138 Safari/537.36 NetType/WIFI MicroMessenger/7.0.20.1781(0x6700143B) WindowsWechat(0x63030532)","WebKit","Chrome","81.0.4044.138","Windows","6.1","null","<div style=""font-size:60px;"">+</div>","null",""
"","","","","","html-button-response","115","228433","0.0-4.0-1.55","281","1","2022-10-14 09:05:57","ebf9627b049f568eb4bf28942cb89901","183.6.40.199","Mozilla/5.0 (Windows NT 6.1; WOW64) AppleWebKit/537.36 (KHTML, like Gecko) Chrome/81.0.4044.138 Safari/537.36 NetType/WIFI MicroMessenger/7.0.20.1781(0x6700143B) WindowsWechat(0x63030532)","WebKit","Chrome","81.0.4044.138","Windows","6.1","716","<p>作为军队的指挥官，你可以选择发射导弹杀死 <strong>1名</strong> 敌国士兵，但会误杀附近的 <strong>1名</strong> 敌国平民。</p> <p>平民照片如下图所示。</p> <p></p> <img src='stimuli/faces/NFF8.jpg', style='max-width: 30%;'> </img> <p><strong>你是否选择发射武器？</strong></p>","1",""
"","","","","","html-keyboard-response","116","229436","0.0-4.0-0.56","281","1","2022-10-14 09:05:57","ebf9627b049f568eb4bf28942cb89901","183.6.40.199","Mozilla/5.0 (Windows NT 6.1; WOW64) AppleWebKit/537.36 (KHTML, like Gecko) Chrome/81.0.4044.138 Safari/537.36 NetType/WIFI MicroMessenger/7.0.20.1781(0x6700143B) WindowsWechat(0x63030532)","WebKit","Chrome","81.0.4044.138","Windows","6.1","null","<div style=""font-size:60px;"">+</div>","null",""
"","","","","","html-button-response","117","230515","0.0-4.0-1.56","281","1","2022-10-14 09:05:57","ebf9627b049f568eb4bf28942cb89901","183.6.40.199","Mozilla/5.0 (Windows NT 6.1; WOW64) AppleWebKit/537.36 (KHTML, like Gecko) Chrome/81.0.4044.138 Safari/537.36 NetType/WIFI MicroMessenger/7.0.20.1781(0x6700143B) WindowsWechat(0x63030532)","WebKit","Chrome","81.0.4044.138","Windows","6.1","1077","<p>作为军队的指挥官，你可以选择发射导弹杀死 <strong>8名</strong> 敌国士兵，但会误杀附近的 <strong>1名</strong> 敌国平民。</p> <p>平民照片如下图所示。</p> <p></p> <img src='stimuli/faces/NFF3.jpg', style='max-width: 30%;'> </img> <p><strong>你是否选择发射武器？</strong></p>","1",""
"","","","","","html-keyboard-response","118","231518","0.0-4.0-0.57","281","1","2022-10-14 09:05:57","ebf9627b049f568eb4bf28942cb89901","183.6.40.199","Mozilla/5.0 (Windows NT 6.1; WOW64) AppleWebKit/537.36 (KHTML, like Gecko) Chrome/81.0.4044.138 Safari/537.36 NetType/WIFI MicroMessenger/7.0.20.1781(0x6700143B) WindowsWechat(0x63030532)","WebKit","Chrome","81.0.4044.138","Windows","6.1","null","<div style=""font-size:60px;"">+</div>","null",""
"","","","","","html-button-response","119","234794","0.0-4.0-1.57","281","1","2022-10-14 09:05:57","ebf9627b049f568eb4bf28942cb89901","183.6.40.199","Mozilla/5.0 (Windows NT 6.1; WOW64) AppleWebKit/537.36 (KHTML, like Gecko) Chrome/81.0.4044.138 Safari/537.36 NetType/WIFI MicroMessenger/7.0.20.1781(0x6700143B) WindowsWechat(0x63030532)","WebKit","Chrome","81.0.4044.138","Windows","6.1","3274","<p>作为军队的指挥官，你可以选择发射导弹杀死 <strong>6名</strong> 敌国士兵，但会炸毁附近的 <strong>1棵</strong> 敌国树木。</p> <p>树木的照片如下图所示。</p> <p></p> <img src='stimuli/trees/10.png', style='max-width: 30%;'> </img> <p><strong>你是否选择发射武器？</strong></p>","0",""
"","","","","","html-keyboard-response","120","235797","0.0-4.0-0.58","281","1","2022-10-14 09:05:57","ebf9627b049f568eb4bf28942cb89901","183.6.40.199","Mozilla/5.0 (Windows NT 6.1; WOW64) AppleWebKit/537.36 (KHTML, like Gecko) Chrome/81.0.4044.138 Safari/537.36 NetType/WIFI MicroMessenger/7.0.20.1781(0x6700143B) WindowsWechat(0x63030532)","WebKit","Chrome","81.0.4044.138","Windows","6.1","null","<div style=""font-size:60px;"">+</div>","null",""
"","","","","","html-button-response","121","236885","0.0-4.0-1.58","281","1","2022-10-14 09:05:57","ebf9627b049f568eb4bf28942cb89901","183.6.40.199","Mozilla/5.0 (Windows NT 6.1; WOW64) AppleWebKit/537.36 (KHTML, like Gecko) Chrome/81.0.4044.138 Safari/537.36 NetType/WIFI MicroMessenger/7.0.20.1781(0x6700143B) WindowsWechat(0x63030532)","WebKit","Chrome","81.0.4044.138","Windows","6.1","1086","<p>作为军队的指挥官，你可以选择发射导弹杀死 <strong>5名</strong> 敌国士兵，但会炸毁附近的 <strong>1棵</strong> 敌国树木。</p> <p>树木的照片如下图所示。</p> <p></p> <img src='stimuli/trees/2.png', style='max-width: 30%;'> </img> <p><strong>你是否选择发射武器？</strong></p>","0",""
"","","","","","html-keyboard-response","122","237887","0.0-4.0-0.59","281","1","2022-10-14 09:05:57","ebf9627b049f568eb4bf28942cb89901","183.6.40.199","Mozilla/5.0 (Windows NT 6.1; WOW64) AppleWebKit/537.36 (KHTML, like Gecko) Chrome/81.0.4044.138 Safari/537.36 NetType/WIFI MicroMessenger/7.0.20.1781(0x6700143B) WindowsWechat(0x63030532)","WebKit","Chrome","81.0.4044.138","Windows","6.1","null","<div style=""font-size:60px;"">+</div>","null",""
"","","","","","html-button-response","123","238721","0.0-4.0-1.59","281","1","2022-10-14 09:05:57","ebf9627b049f568eb4bf28942cb89901","183.6.40.199","Mozilla/5.0 (Windows NT 6.1; WOW64) AppleWebKit/537.36 (KHTML, like Gecko) Chrome/81.0.4044.138 Safari/537.36 NetType/WIFI MicroMessenger/7.0.20.1781(0x6700143B) WindowsWechat(0x63030532)","WebKit","Chrome","81.0.4044.138","Windows","6.1","832","<p>作为军队的指挥官，你可以选择发射导弹杀死 <strong>9名</strong> 敌国士兵，但会炸毁附近的 <strong>1棵</strong> 敌国树木。</p> <p>树木的照片如下图所示。</p> <p></p> <img src='stimuli/trees/9.png', style='max-width: 30%;'> </img> <p><strong>你是否选择发射武器？</strong></p>","0",""
"","","","","","html-keyboard-response","124","239724","0.0-4.0-0.60","281","1","2022-10-14 09:05:57","ebf9627b049f568eb4bf28942cb89901","183.6.40.199","Mozilla/5.0 (Windows NT 6.1; WOW64) AppleWebKit/537.36 (KHTML, like Gecko) Chrome/81.0.4044.138 Safari/537.36 NetType/WIFI MicroMessenger/7.0.20.1781(0x6700143B) WindowsWechat(0x63030532)","WebKit","Chrome","81.0.4044.138","Windows","6.1","null","<div style=""font-size:60px;"">+</div>","null",""
"","","","","","html-button-response","125","241207","0.0-4.0-1.60","281","1","2022-10-14 09:05:57","ebf9627b049f568eb4bf28942cb89901","183.6.40.199","Mozilla/5.0 (Windows NT 6.1; WOW64) AppleWebKit/537.36 (KHTML, like Gecko) Chrome/81.0.4044.138 Safari/537.36 NetType/WIFI MicroMessenger/7.0.20.1781(0x6700143B) WindowsWechat(0x63030532)","WebKit","Chrome","81.0.4044.138","Windows","6.1","1480","<p>作为军队的指挥官，你可以选择发射导弹杀死 <strong>9名</strong> 敌国士兵，但会误杀附近的 <strong>1名</strong> 敌国平民。</p> <p>平民照片如下图所示。</p> <p></p> <img src='stimuli/faces/NFF4.jpg', style='max-width: 30%;'> </img> <p><strong>你是否选择发射武器？</strong></p>","1",""
"","","","","","html-keyboard-response","126","242210","0.0-4.0-0.61","281","1","2022-10-14 09:05:57","ebf9627b049f568eb4bf28942cb89901","183.6.40.199","Mozilla/5.0 (Windows NT 6.1; WOW64) AppleWebKit/537.36 (KHTML, like Gecko) Chrome/81.0.4044.138 Safari/537.36 NetType/WIFI MicroMessenger/7.0.20.1781(0x6700143B) WindowsWechat(0x63030532)","WebKit","Chrome","81.0.4044.138","Windows","6.1","null","<div style=""font-size:60px;"">+</div>","null",""
"","","","","","html-button-response","127","244610","0.0-4.0-1.61","281","1","2022-10-14 09:05:57","ebf9627b049f568eb4bf28942cb89901","183.6.40.199","Mozilla/5.0 (Windows NT 6.1; WOW64) AppleWebKit/537.36 (KHTML, like Gecko) Chrome/81.0.4044.138 Safari/537.36 NetType/WIFI MicroMessenger/7.0.20.1781(0x6700143B) WindowsWechat(0x63030532)","WebKit","Chrome","81.0.4044.138","Windows","6.1","2398","<p>作为军队的指挥官，你可以选择发射导弹杀死 <strong>10名</strong> 敌国士兵，但会炸毁附近的 <strong>1棵</strong> 敌国树木。</p> <p>树木的照片如下图所示。</p> <p></p> <img src='stimuli/trees/12.png', style='max-width: 30%;'> </img> <p><strong>你是否选择发射武器？</strong></p>","0",""
"","","","","","html-keyboard-response","128","245612","0.0-4.0-0.62","281","1","2022-10-14 09:05:57","ebf9627b049f568eb4bf28942cb89901","183.6.40.199","Mozilla/5.0 (Windows NT 6.1; WOW64) AppleWebKit/537.36 (KHTML, like Gecko) Chrome/81.0.4044.138 Safari/537.36 NetType/WIFI MicroMessenger/7.0.20.1781(0x6700143B) WindowsWechat(0x63030532)","WebKit","Chrome","81.0.4044.138","Windows","6.1","null","<div style=""font-size:60px;"">+</div>","null",""
"","","","","","html-button-response","129","246719","0.0-4.0-1.62","281","1","2022-10-14 09:05:57","ebf9627b049f568eb4bf28942cb89901","183.6.40.199","Mozilla/5.0 (Windows NT 6.1; WOW64) AppleWebKit/537.36 (KHTML, like Gecko) Chrome/81.0.4044.138 Safari/537.36 NetType/WIFI MicroMessenger/7.0.20.1781(0x6700143B) WindowsWechat(0x63030532)","WebKit","Chrome","81.0.4044.138","Windows","6.1","1104","<p>作为军队的指挥官，你可以选择发射导弹杀死 <strong>9名</strong> 敌国士兵，但会误杀附近的 <strong>1名</strong> 敌国平民。</p> <p>平民照片如下图所示。</p> <p></p> <img src='stimuli/faces/NFF2.jpg', style='max-width: 30%;'> </img> <p><strong>你是否选择发射武器？</strong></p>","1",""
"","","","","","html-keyboard-response","130","247723","0.0-4.0-0.63","281","1","2022-10-14 09:05:57","ebf9627b049f568eb4bf28942cb89901","183.6.40.199","Mozilla/5.0 (Windows NT 6.1; WOW64) AppleWebKit/537.36 (KHTML, like Gecko) Chrome/81.0.4044.138 Safari/537.36 NetType/WIFI MicroMessenger/7.0.20.1781(0x6700143B) WindowsWechat(0x63030532)","WebKit","Chrome","81.0.4044.138","Windows","6.1","null","<div style=""font-size:60px;"">+</div>","null",""
"","","","","","html-button-response","131","249419","0.0-4.0-1.63","281","1","2022-10-14 09:05:57","ebf9627b049f568eb4bf28942cb89901","183.6.40.199","Mozilla/5.0 (Windows NT 6.1; WOW64) AppleWebKit/537.36 (KHTML, like Gecko) Chrome/81.0.4044.138 Safari/537.36 NetType/WIFI MicroMessenger/7.0.20.1781(0x6700143B) WindowsWechat(0x63030532)","WebKit","Chrome","81.0.4044.138","Windows","6.1","1694","<p>作为军队的指挥官，你可以选择发射导弹杀死 <strong>9名</strong> 敌国士兵，但会炸毁附近的 <strong>1棵</strong> 敌国树木。</p> <p>树木的照片如下图所示。</p> <p></p> <img src='stimuli/trees/8.png', style='max-width: 30%;'> </img> <p><strong>你是否选择发射武器？</strong></p>","0",""
"","","","","","survey-multi-choice","132","271740","0.0-5.0","281","1","2022-10-14 09:05:57","ebf9627b049f568eb4bf28942cb89901","183.6.40.199","Mozilla/5.0 (Windows NT 6.1; WOW64) AppleWebKit/537.36 (KHTML, like Gecko) Chrome/81.0.4044.138 Safari/537.36 NetType/WIFI MicroMessenger/7.0.20.1781(0x6700143B) WindowsWechat(0x63030532)","WebKit","Chrome","81.0.4044.138","Windows","6.1","22318","","{""Attention1"":""""}","[0]"
"","","","","","html-button-response","133","276205","0.0-6.0","281","1","2022-10-14 09:05:57","ebf9627b049f568eb4bf28942cb89901","183.6.40.199","Mozilla/5.0 (Windows NT 6.1; WOW64) AppleWebKit/537.36 (KHTML, like Gecko) Chrome/81.0.4044.138 Safari/537.36 NetType/WIFI MicroMessenger/7.0.20.1781(0x6700143B) WindowsWechat(0x63030532)","WebKit","Chrome","81.0.4044.138","Windows","6.1","4460","<p style=""font-size:20px;font-weight:bold;"">恭喜！</p><p>你已经完成了实验的第一部分。</p><p>请休息放松一下，然后进入第二部分。</p><p>这部分大约需要10分钟。</p>","0",""
"","","","","","survey-text","134","310239","0.0-7.0","281","1","2022-10-14 09:05:57","ebf9627b049f568eb4bf28942cb89901","183.6.40.199","Mozilla/5.0 (Windows NT 6.1; WOW64) AppleWebKit/537.36 (KHTML, like Gecko) Chrome/81.0.4044.138 Safari/537.36 NetType/WIFI MicroMessenger/7.0.20.1781(0x6700143B) WindowsWechat(0x63030532)","WebKit","Chrome","81.0.4044.138","Windows","6.1","33025","","{""Age"":""22"",""Nation"":""中国"",""Born"":""广东"",""Live"":""广州"",""Ethnic"":""汉"",""Alipay"":""18129917283""}",""
"","","","","","survey-multi-choice","135","349029","0.0-8.0","281","1","2022-10-14 09:05:57","ebf9627b049f568eb4bf28942cb89901","183.6.40.199","Mozilla/5.0 (Windows NT 6.1; WOW64) AppleWebKit/537.36 (KHTML, like Gecko) Chrome/81.0.4044.138 Safari/537.36 NetType/WIFI MicroMessenger/7.0.20.1781(0x6700143B) WindowsWechat(0x63030532)","WebKit","Chrome","81.0.4044.138","Windows","6.1","38786","","{""Gender"":""男"",""Education"":""本科毕业"",""Income"":""￥270,000-￥489,999"",""Children"":""0"",""Race"":""亚洲人""}","[0,1,2,3,4]"
"","","","","","survey-multi-select","136","356691","0.0-9.0","281","1","2022-10-14 09:05:57","ebf9627b049f568eb4bf28942cb89901","183.6.40.199","Mozilla/5.0 (Windows NT 6.1; WOW64) AppleWebKit/537.36 (KHTML, like Gecko) Chrome/81.0.4044.138 Safari/537.36 NetType/WIFI MicroMessenger/7.0.20.1781(0x6700143B) WindowsWechat(0x63030532)","WebKit","Chrome","81.0.4044.138","Windows","6.1","7655","","{""Marriage"":[""未婚""],""Religion"":[""无宗教信仰""]}","[0,1]"
"","","","","","survey-multi-choice","137","363377","0.0-10.0","281","1","2022-10-14 09:05:57","ebf9627b049f568eb4bf28942cb89901","183.6.40.199","Mozilla/5.0 (Windows NT 6.1; WOW64) AppleWebKit/537.36 (KHTML, like Gecko) Chrome/81.0.4044.138 Safari/537.36 NetType/WIFI MicroMessenger/7.0.20.1781(0x6700143B) WindowsWechat(0x63030532)","WebKit","Chrome","81.0.4044.138","Windows","6.1","6681","","{""SES"":""5""}","[0]"
"","","","","","html-button-response","138","368437","0.0-11.0","281","1","2022-10-14 09:05:57","ebf9627b049f568eb4bf28942cb89901","183.6.40.199","Mozilla/5.0 (Windows NT 6.1; WOW64) AppleWebKit/537.36 (KHTML, like Gecko) Chrome/81.0.4044.138 Safari/537.36 NetType/WIFI MicroMessenger/7.0.20.1781(0x6700143B) WindowsWechat(0x63030532)","WebKit","Chrome","81.0.4044.138","Windows","6.1","5055","<p><strong>请判断下列陈述在多大程度上可以形容你？</p><p> (1 = ""和我一点都不像"" to 5 = ""非常像我"".)</strong></p>","0",""
"","","","","","survey-likert","139","404811","0.0-12.0","281","1","2022-10-14 09:05:57","ebf9627b049f568eb4bf28942cb89901","183.6.40.199","Mozilla/5.0 (Windows NT 6.1; WOW64) AppleWebKit/537.36 (KHTML, like Gecko) Chrome/81.0.4044.138 Safari/537.36 NetType/WIFI MicroMessenger/7.0.20.1781(0x6700143B) WindowsWechat(0x63030532)","WebKit","Chrome","81.0.4044.138","Windows","6.1","36370","","{""Aggression1"":2,""Aggression2"":3,""Aggression3"":3,""Aggression4"":0,""Aggression5"":3,""Aggression6"":4,""Aggression7"":1,""Aggression8"":1,""Aggression9"":0}","[0,1,2,3,4,5,6,7,8]"
"","","","","","html-button-response","140","406299","0.0-13.0","281","1","2022-10-14 09:05:57","ebf9627b049f568eb4bf28942cb89901","183.6.40.199","Mozilla/5.0 (Windows NT 6.1; WOW64) AppleWebKit/537.36 (KHTML, like Gecko) Chrome/81.0.4044.138 Safari/537.36 NetType/WIFI MicroMessenger/7.0.20.1781(0x6700143B) WindowsWechat(0x63030532)","WebKit","Chrome","81.0.4044.138","Windows","6.1","1484","<p><strong>请判断你在多大程度上同意下列陈述。</strong></p>","0",""
"","","","","","survey-likert","141","551209","0.0-14.0","281","1","2022-10-14 09:05:57","ebf9627b049f568eb4bf28942cb89901","183.6.40.199","Mozilla/5.0 (Windows NT 6.1; WOW64) AppleWebKit/537.36 (KHTML, like Gecko) Chrome/81.0.4044.138 Safari/537.36 NetType/WIFI MicroMessenger/7.0.20.1781(0x6700143B) WindowsWechat(0x63030532)","WebKit","Chrome","81.0.4044.138","Windows","6.1","144905","","{""scale11"":4,""scale2"":2,""scale8"":3,""scale28"":3,""scale19"":3,""scale14"":1,""scale24"":1,""scale25"":1,""scale13"":1,""scale21"":2,""scale5"":3,""scale6"":1,""scale9"":3,""scale3"":2,""scale1"":1,""scale15"":1,""scale23"":2,""scale20"":2,""scale12"":1,""scale27"":1,""scale17"":3,""scale4"":1,""scale16"":3,""scale7"":1,""scale26"":3,""scale18"":1,""scale10"":1,""scale22"":1}","[10,1,7,27,18,13,23,24,12,20,4,5,8,2,0,14,22,19,11,26,16,3,15,6,25,17,9,21]"
"","","","","","html-button-response","142","552817","0.0-15.0","281","1","2022-10-14 09:05:57","ebf9627b049f568eb4bf28942cb89901","183.6.40.199","Mozilla/5.0 (Windows NT 6.1; WOW64) AppleWebKit/537.36 (KHTML, like Gecko) Chrome/81.0.4044.138 Safari/537.36 NetType/WIFI MicroMessenger/7.0.20.1781(0x6700143B) WindowsWechat(0x63030532)","WebKit","Chrome","81.0.4044.138","Windows","6.1","1603","<p><strong>请判断你在多大程度上同意下列陈述。</strong></p>","0",""
"","","","","","survey-likert","143","640642","0.0-16.0","281","1","2022-10-14 09:05:57","ebf9627b049f568eb4bf28942cb89901","183.6.40.199","Mozilla/5.0 (Windows NT 6.1; WOW64) AppleWebKit/537.36 (KHTML, like Gecko) Chrome/81.0.4044.138 Safari/537.36 NetType/WIFI MicroMessenger/7.0.20.1781(0x6700143B) WindowsWechat(0x63030532)","WebKit","Chrome","81.0.4044.138","Windows","6.1","87821","","{""sdo1"":5,""sdo3"":5,""sdo5"":5,""sdo7"":2,""sdo8"":2,""sdo10"":5,""sdo16"":5,""sdo4"":4,""sdo12"":5,""sdo14"":5,""sdo9"":6,""sdo2"":2,""sdo11"":5,""sdo13"":6,""sdo6"":5,""sdo15"":5}","[0,2,4,6,7,9,15,3,11,13,8,1,10,12,5,14]"
"","","","","","html-button-response","144","641702","0.0-17.0","281","1","2022-10-14 09:05:57","ebf9627b049f568eb4bf28942cb89901","183.6.40.199","Mozilla/5.0 (Windows NT 6.1; WOW64) AppleWebKit/537.36 (KHTML, like Gecko) Chrome/81.0.4044.138 Safari/537.36 NetType/WIFI MicroMessenger/7.0.20.1781(0x6700143B) WindowsWechat(0x63030532)","WebKit","Chrome","81.0.4044.138","Windows","6.1","1056","<p><strong>请判断你在多大程度上同意下列陈述。</strong></p>","0",""
"","","","","","survey-likert","145","743379","0.0-18.0","281","1","2022-10-14 09:05:57","ebf9627b049f568eb4bf28942cb89901","183.6.40.199","Mozilla/5.0 (Windows NT 6.1; WOW64) AppleWebKit/537.36 (KHTML, like Gecko) Chrome/81.0.4044.138 Safari/537.36 NetType/WIFI MicroMessenger/7.0.20.1781(0x6700143B) WindowsWechat(0x63030532)","WebKit","Chrome","81.0.4044.138","Windows","6.1","101673","","{""caring1"":3,""liking1"":1,""caring2"":3,""protection1"":2,""liking2"":1,""caring3"":2,""protection2"":1,""liking3"":1,""protection3"":2,""caring4"":3,""liking4"":1,""protection4"":3,""caring5"":2,""liking5"":1,""protection5"":3}","[0,1,2,3,4,5,6,7,8,9,10,11,12,13,14]"
"","","","","","html-button-response","146","747836","0.0-19.0","281","1","2022-10-14 09:05:57","ebf9627b049f568eb4bf28942cb89901","183.6.40.199","Mozilla/5.0 (Windows NT 6.1; WOW64) AppleWebKit/537.36 (KHTML, like Gecko) Chrome/81.0.4044.138 Safari/537.36 NetType/WIFI MicroMessenger/7.0.20.1781(0x6700143B) WindowsWechat(0x63030532)","WebKit","Chrome","81.0.4044.138","Windows","6.1","4452","<p><strong>请判断下列场景中你的内心感受有多柔软。</strong></p>","0",""
"","","","","","survey-likert","147","777324","0.0-20.0","281","1","2022-10-14 09:05:57","ebf9627b049f568eb4bf28942cb89901","183.6.40.199","Mozilla/5.0 (Windows NT 6.1; WOW64) AppleWebKit/537.36 (KHTML, like Gecko) Chrome/81.0.4044.138 Safari/537.36 NetType/WIFI MicroMessenger/7.0.20.1781(0x6700143B) WindowsWechat(0x63030532)","WebKit","Chrome","81.0.4044.138","Windows","6.1","29485","","{""tenderness-positive1"":3,""tenderness-negative1"":3,""tenderness-negative2"":1,""tenderness-positive2"":3,""tenderness-positive3"":3,""tenderness-negative3"":1,""tenderness-positive4"":1,""tendereness-negative4"":2,""tendernness-negative5"":3,""tenderness-positive5"":3}","[0,1,2,3,4,5,6,7,8,9]"
"","","","","","survey-multi-choice","148","794988","0.0-21.0","281","1","2022-10-14 09:05:57","ebf9627b049f568eb4bf28942cb89901","183.6.40.199","Mozilla/5.0 (Windows NT 6.1; WOW64) AppleWebKit/537.36 (KHTML, like Gecko) Chrome/81.0.4044.138 Safari/537.36 NetType/WIFI MicroMessenger/7.0.20.1781(0x6700143B) WindowsWechat(0x63030532)","WebKit","Chrome","81.0.4044.138","Windows","6.1","17659","","{""Attention2"":""其他""}","[0]"
"","","","","","html-button-response","149","796378","0.0-22.0","281","1","2022-10-14 09:05:57","ebf9627b049f568eb4bf28942cb89901","183.6.40.199","Mozilla/5.0 (Windows NT 6.1; WOW64) AppleWebKit/537.36 (KHTML, like Gecko) Chrome/81.0.4044.138 Safari/537.36 NetType/WIFI MicroMessenger/7.0.20.1781(0x6700143B) WindowsWechat(0x63030532)","WebKit","Chrome","81.0.4044.138","Windows","6.1","1385","<p><strong>请判断你在多大程度上同意下列陈述。</strong></p>","0",""
"","","","","","survey-likert","150","921095","0.0-23.0","281","1","2022-10-14 09:05:57","ebf9627b049f568eb4bf28942cb89901","183.6.40.199","Mozilla/5.0 (Windows NT 6.1; WOW64) AppleWebKit/537.36 (KHTML, like Gecko) Chrome/81.0.4044.138 Safari/537.36 NetType/WIFI MicroMessenger/7.0.20.1781(0x6700143B) WindowsWechat(0x63030532)","WebKit","Chrome","81.0.4044.138","Windows","6.1","124713","","{""Nation1"":1,""Patri2"":4,""Patri12"":0,""Patri7"":4,""Patri9"":0,""Patri6"":0,""Nation6"":2,""Patri1"":4,""Patri10"":0,""Nation2"":4,""Nation5"":2,""Nation8"":3,""Nation4"":2,""Patri5"":4,""Patri4"":4,""Nation7"":2,""Patri11"":0,""Patri8"":4,""Patri3"":3,""Nation3"":0}","[12,1,11,6,8,5,17,0,9,13,16,19,15,4,3,18,10,7,2,14]"
"","","","","","html-button-response","151","922755","0.0-24.0","281","1","2022-10-14 09:05:57","ebf9627b049f568eb4bf28942cb89901","183.6.40.199","Mozilla/5.0 (Windows NT 6.1; WOW64) AppleWebKit/537.36 (KHTML, like Gecko) Chrome/81.0.4044.138 Safari/537.36 NetType/WIFI MicroMessenger/7.0.20.1781(0x6700143B) WindowsWechat(0x63030532)","WebKit","Chrome","81.0.4044.138","Windows","6.1","1656","<p><strong>请判断你在多大程度上同意下列陈述。</strong></p>","0",""
"","","","","","survey-likert","152","986159","0.0-25.0","281","1","2022-10-14 09:05:57","ebf9627b049f568eb4bf28942cb89901","183.6.40.199","Mozilla/5.0 (Windows NT 6.1; WOW64) AppleWebKit/537.36 (KHTML, like Gecko) Chrome/81.0.4044.138 Safari/537.36 NetType/WIFI MicroMessenger/7.0.20.1781(0x6700143B) WindowsWechat(0x63030532)","WebKit","Chrome","81.0.4044.138","Windows","6.1","63399","","{""hi1"":2,""hi3"":2,""hc3"":8,""vc4"":6,""hc4"":8,""vi3"":8,""vc3"":7,""vc1"":8,""Robot"":6,""vi2"":7,""hi2"":4,""hi4"":5,""vi4"":5,""hc2"":7,""vi1"":5,""hc1"":7,""vc2"":7}","[0,2,11,16,12,6,15,13,7,5,1,3,8,10,4,9,14]"
"","","","","","survey-text","153","1037847","0.0-26.0","281","1","2022-10-14 09:05:57","ebf9627b049f568eb4bf28942cb89901","183.6.40.199","Mozilla/5.0 (Windows NT 6.1; WOW64) AppleWebKit/537.36 (KHTML, like Gecko) Chrome/81.0.4044.138 Safari/537.36 NetType/WIFI MicroMessenger/7.0.20.1781(0x6700143B) WindowsWechat(0x63030532)","WebKit","Chrome","81.0.4044.138","Windows","6.1","51676","","{""Comments"":""前面的时候应该标识一下是什么树珍贵的树 不然我都觉得是个普通树""}",""
"","","","","","html-button-response","154","1045537","0.0-27.0","281","1","2022-10-14 09:05:57","ebf9627b049f568eb4bf28942cb89901","183.6.40.199","Mozilla/5.0 (Windows NT 6.1; WOW64) AppleWebKit/537.36 (KHTML, like Gecko) Chrome/81.0.4044.138 Safari/537.36 NetType/WIFI MicroMessenger/7.0.20.1781(0x6700143B) WindowsWechat(0x63030532)","WebKit","Chrome","81.0.4044.138","Windows","6.1","7688","<strong><p>恭喜你完成了实验！</p><p>感谢您的参与。</p></strong>","0",""
