"success","timeout","failed_images","failed_audio","failed_video","trial_type","trial_index","time_elapsed","internal_node_id","run_id","condition","recorded_at","source_code_version","ip","user_agent","device","browser","browser_version","platform","platform_version","rt","stimulus","response","question_order"
"true","false","[]","[]","[]","preload","0","1677","0.0-0.0","290","1","2022-10-14 09:53:02","ebf9627b049f568eb4bf28942cb89901","183.6.40.160","Mozilla/5.0 (Windows NT 10.0; Win64; x64) AppleWebKit/537.36 (KHTML, like Gecko) Chrome/106.0.0.0 Safari/537.36 Edg/106.0.1370.42","WebKit","Edge","106.0.1370.42","Windows","10.0","","","",""
"true","","","","","fullscreen","1","92326","0.0-1.0","290","1","2022-10-14 09:53:02","ebf9627b049f568eb4bf28942cb89901","183.6.40.160","Mozilla/5.0 (Windows NT 10.0; Win64; x64) AppleWebKit/537.36 (KHTML, like Gecko) Chrome/106.0.0.0 Safari/537.36 Edg/106.0.1370.42","WebKit","Edge","106.0.1370.42","Windows","10.0","","","",""
"","","","","","html-button-response","2","98836","0.0-2.0","290","1","2022-10-14 09:53:02","ebf9627b049f568eb4bf28942cb89901","183.6.40.160","Mozilla/5.0 (Windows NT 10.0; Win64; x64) AppleWebKit/537.36 (KHTML, like Gecko) Chrome/106.0.0.0 Safari/537.36 Edg/106.0.1370.42","WebKit","Edge","106.0.1370.42","Windows","10.0","6508","<p style=""font-size:20px;font-weight:bold;"">实验知情同意书</p><p style=""text-align:left;""><strong>实验名称：</strong>社会冲突研究</p><p style=""text-align:left;""><strong>主要研究者：</strong>韩晓春副教授（北京师范大学心理学部）</p><p style=""text-align:left;""><strong>联系方式：</strong>发送邮件至xiaochun.han@bnu.edu.cn</p><p style=""text-align:left;""><strong>研究目的：</strong>研究旨在了解人类面对群体冲突时的决策方式，以及相关的心理学特质。实验调查大约需要20分钟。</p><p style=""text-align:left;""><strong>实验流程：</strong>实验包含两部分。第一部分呈现一系列群体冲突场景，请你决定如何对这些冲突进行反应，大约需要10分钟完成。第二部分包含一系列人口统计学信息收集和心理学问卷，大约需要10分钟完成。</p><p style=""text-align:left;""><strong>参加及退出规则：</strong>参加本实验完全取决于您的个人意愿。在参与过程中，您可以随时退出，并且不用承担任何后果。</p><p style=""text-align:left;""><strong>隐私：</strong>本实验完全匿名进行，不会收集您的姓名或其他能够识别您身份的信息。实验中收集的作答仅用作科学研究使用，可能会在学术期刊/书籍上发表，或者用于教学，您的数据未来可能会和其他研究者或实验室分享，但您的个人身份不会被识别。</p><p style=""text-align:left;""><strong>实验报酬：</strong>实验完成后，您将获得15元人民币报酬，以感谢您的时间和努力。调查问卷中包含几道题目用以测验您作答时的认真度。只有完成全部实验，并且正确回答认真度测验的被试才能获得实验报酬。实验报酬将通过支付宝转账发放。</p><p style=""text-align:left;font-size:20px;""><strong>如果您同意以上实验知情同意书的内容，请点击'同意并且开始实验'按钮；否则请关闭浏览器界面，退出实验。</strong></p>","0",""
"","","","","","html-button-response","3","100132","0.0-3.0","290","1","2022-10-14 09:53:02","ebf9627b049f568eb4bf28942cb89901","183.6.40.160","Mozilla/5.0 (Windows NT 10.0; Win64; x64) AppleWebKit/537.36 (KHTML, like Gecko) Chrome/106.0.0.0 Safari/537.36 Edg/106.0.1370.42","WebKit","Edge","106.0.1370.42","Windows","10.0","1293","<p ><strong>实验任务一：</strong></p><p>请想象你的国家与另一个国家发生了军事冲突。</p><p>你是国家军队的指挥官，你将如何在冲突中进行决策。</p><p>具体来说，作为军队指挥官，请你决定是否发射导弹进行打击。</p><p>接下来，你会面对一系列场景，请仔细阅读每个场景，然后进行决策。</p><p>这部分实验任务大约需要10分钟。</p><p><strong>实验过程中，请集中注意力。</strong></p>","0",""
"","","","","","html-keyboard-response","4","101134","0.0-4.0-0.0","290","1","2022-10-14 09:53:02","ebf9627b049f568eb4bf28942cb89901","183.6.40.160","Mozilla/5.0 (Windows NT 10.0; Win64; x64) AppleWebKit/537.36 (KHTML, like Gecko) Chrome/106.0.0.0 Safari/537.36 Edg/106.0.1370.42","WebKit","Edge","106.0.1370.42","Windows","10.0","null","<div style=""font-size:60px;"">+</div>","null",""
"","","","","","html-button-response","5","103636","0.0-4.0-1.0","290","1","2022-10-14 09:53:02","ebf9627b049f568eb4bf28942cb89901","183.6.40.160","Mozilla/5.0 (Windows NT 10.0; Win64; x64) AppleWebKit/537.36 (KHTML, like Gecko) Chrome/106.0.0.0 Safari/537.36 Edg/106.0.1370.42","WebKit","Edge","106.0.1370.42","Windows","10.0","2500","<p>作为军队的指挥官，你可以选择发射导弹杀死 <strong>8名</strong> 敌国士兵，但会误杀附近的 <strong>1名</strong> 敌国平民。</p> <p>平民照片如下图所示。</p> <p></p> <img src='stimuli/faces/NFM2.jpg', style='max-width: 30%;'> </img> <p><strong>你是否选择发射武器？</strong></p>","1",""
"","","","","","html-keyboard-response","6","104638","0.0-4.0-0.1","290","1","2022-10-14 09:53:02","ebf9627b049f568eb4bf28942cb89901","183.6.40.160","Mozilla/5.0 (Windows NT 10.0; Win64; x64) AppleWebKit/537.36 (KHTML, like Gecko) Chrome/106.0.0.0 Safari/537.36 Edg/106.0.1370.42","WebKit","Edge","106.0.1370.42","Windows","10.0","null","<div style=""font-size:60px;"">+</div>","null",""
"","","","","","html-button-response","7","105757","0.0-4.0-1.1","290","1","2022-10-14 09:53:02","ebf9627b049f568eb4bf28942cb89901","183.6.40.160","Mozilla/5.0 (Windows NT 10.0; Win64; x64) AppleWebKit/537.36 (KHTML, like Gecko) Chrome/106.0.0.0 Safari/537.36 Edg/106.0.1370.42","WebKit","Edge","106.0.1370.42","Windows","10.0","1117","<p>作为军队的指挥官，你可以选择发射导弹杀死 <strong>8名</strong> 敌国士兵，但会误杀附近的 <strong>1名</strong> 敌国平民。</p> <p>平民照片如下图所示。</p> <p></p> <img src='stimuli/faces/NFF7.jpg', style='max-width: 30%;'> </img> <p><strong>你是否选择发射武器？</strong></p>","1",""
"","","","","","html-keyboard-response","8","106762","0.0-4.0-0.2","290","1","2022-10-14 09:53:02","ebf9627b049f568eb4bf28942cb89901","183.6.40.160","Mozilla/5.0 (Windows NT 10.0; Win64; x64) AppleWebKit/537.36 (KHTML, like Gecko) Chrome/106.0.0.0 Safari/537.36 Edg/106.0.1370.42","WebKit","Edge","106.0.1370.42","Windows","10.0","null","<div style=""font-size:60px;"">+</div>","null",""
"","","","","","html-button-response","9","108292","0.0-4.0-1.2","290","1","2022-10-14 09:53:02","ebf9627b049f568eb4bf28942cb89901","183.6.40.160","Mozilla/5.0 (Windows NT 10.0; Win64; x64) AppleWebKit/537.36 (KHTML, like Gecko) Chrome/106.0.0.0 Safari/537.36 Edg/106.0.1370.42","WebKit","Edge","106.0.1370.42","Windows","10.0","1529","<p>作为军队的指挥官，你可以选择发射导弹杀死 <strong>8名</strong> 敌国士兵，但会误杀附近的 <strong>1名</strong> 敌国平民。</p> <p>平民照片如下图所示。</p> <p></p> <img src='stimuli/faces/NFM4.jpg', style='max-width: 30%;'> </img> <p><strong>你是否选择发射武器？</strong></p>","1",""
"","","","","","html-keyboard-response","10","109304","0.0-4.0-0.3","290","1","2022-10-14 09:53:02","ebf9627b049f568eb4bf28942cb89901","183.6.40.160","Mozilla/5.0 (Windows NT 10.0; Win64; x64) AppleWebKit/537.36 (KHTML, like Gecko) Chrome/106.0.0.0 Safari/537.36 Edg/106.0.1370.42","WebKit","Edge","106.0.1370.42","Windows","10.0","null","<div style=""font-size:60px;"">+</div>","null",""
"","","","","","html-button-response","11","111077","0.0-4.0-1.3","290","1","2022-10-14 09:53:02","ebf9627b049f568eb4bf28942cb89901","183.6.40.160","Mozilla/5.0 (Windows NT 10.0; Win64; x64) AppleWebKit/537.36 (KHTML, like Gecko) Chrome/106.0.0.0 Safari/537.36 Edg/106.0.1370.42","WebKit","Edge","106.0.1370.42","Windows","10.0","1771","<p>作为军队的指挥官，你可以选择发射导弹杀死 <strong>6名</strong> 敌国士兵，但会炸毁附近的 <strong>1棵</strong> 敌国树木。</p> <p>树木的照片如下图所示。</p> <p></p> <img src='stimuli/trees/5.png', style='max-width: 30%;'> </img> <p><strong>你是否选择发射武器？</strong></p>","0",""
"","","","","","html-keyboard-response","12","112081","0.0-4.0-0.4","290","1","2022-10-14 09:53:02","ebf9627b049f568eb4bf28942cb89901","183.6.40.160","Mozilla/5.0 (Windows NT 10.0; Win64; x64) AppleWebKit/537.36 (KHTML, like Gecko) Chrome/106.0.0.0 Safari/537.36 Edg/106.0.1370.42","WebKit","Edge","106.0.1370.42","Windows","10.0","null","<div style=""font-size:60px;"">+</div>","null",""
"","","","","","html-button-response","13","113684","0.0-4.0-1.4","290","1","2022-10-14 09:53:02","ebf9627b049f568eb4bf28942cb89901","183.6.40.160","Mozilla/5.0 (Windows NT 10.0; Win64; x64) AppleWebKit/537.36 (KHTML, like Gecko) Chrome/106.0.0.0 Safari/537.36 Edg/106.0.1370.42","WebKit","Edge","106.0.1370.42","Windows","10.0","1591","<p>作为军队的指挥官，你可以选择发射导弹杀死 <strong>3名</strong> 敌国士兵，但会误杀附近的 <strong>1名</strong> 敌国平民。</p> <p>平民照片如下图所示。</p> <p></p> <img src='stimuli/faces/NFF8.jpg', style='max-width: 30%;'> </img> <p><strong>你是否选择发射武器？</strong></p>","1",""
"","","","","","html-keyboard-response","14","114689","0.0-4.0-0.5","290","1","2022-10-14 09:53:02","ebf9627b049f568eb4bf28942cb89901","183.6.40.160","Mozilla/5.0 (Windows NT 10.0; Win64; x64) AppleWebKit/537.36 (KHTML, like Gecko) Chrome/106.0.0.0 Safari/537.36 Edg/106.0.1370.42","WebKit","Edge","106.0.1370.42","Windows","10.0","null","<div style=""font-size:60px;"">+</div>","null",""
"","","","","","html-button-response","15","118228","0.0-4.0-1.5","290","1","2022-10-14 09:53:02","ebf9627b049f568eb4bf28942cb89901","183.6.40.160","Mozilla/5.0 (Windows NT 10.0; Win64; x64) AppleWebKit/537.36 (KHTML, like Gecko) Chrome/106.0.0.0 Safari/537.36 Edg/106.0.1370.42","WebKit","Edge","106.0.1370.42","Windows","10.0","3538","<p>作为军队的指挥官，你可以选择发射导弹杀死 <strong>2名</strong> 敌国士兵，但会炸毁附近的 <strong>1棵</strong> 敌国树木。</p> <p>树木的照片如下图所示。</p> <p></p> <img src='stimuli/trees/15.png', style='max-width: 30%;'> </img> <p><strong>你是否选择发射武器？</strong></p>","0",""
"","","","","","html-keyboard-response","16","119231","0.0-4.0-0.6","290","1","2022-10-14 09:53:02","ebf9627b049f568eb4bf28942cb89901","183.6.40.160","Mozilla/5.0 (Windows NT 10.0; Win64; x64) AppleWebKit/537.36 (KHTML, like Gecko) Chrome/106.0.0.0 Safari/537.36 Edg/106.0.1370.42","WebKit","Edge","106.0.1370.42","Windows","10.0","null","<div style=""font-size:60px;"">+</div>","null",""
"","","","","","html-button-response","17","121748","0.0-4.0-1.6","290","1","2022-10-14 09:53:02","ebf9627b049f568eb4bf28942cb89901","183.6.40.160","Mozilla/5.0 (Windows NT 10.0; Win64; x64) AppleWebKit/537.36 (KHTML, like Gecko) Chrome/106.0.0.0 Safari/537.36 Edg/106.0.1370.42","WebKit","Edge","106.0.1370.42","Windows","10.0","2515","<p>作为军队的指挥官，你可以选择发射导弹杀死 <strong>3名</strong> 敌国士兵，但会炸毁附近的 <strong>1棵</strong> 敌国树木。</p> <p>树木的照片如下图所示。</p> <p></p> <img src='stimuli/trees/9.png', style='max-width: 30%;'> </img> <p><strong>你是否选择发射武器？</strong></p>","0",""
"","","","","","html-keyboard-response","18","122756","0.0-4.0-0.7","290","1","2022-10-14 09:53:02","ebf9627b049f568eb4bf28942cb89901","183.6.40.160","Mozilla/5.0 (Windows NT 10.0; Win64; x64) AppleWebKit/537.36 (KHTML, like Gecko) Chrome/106.0.0.0 Safari/537.36 Edg/106.0.1370.42","WebKit","Edge","106.0.1370.42","Windows","10.0","null","<div style=""font-size:60px;"">+</div>","null",""
"","","","","","html-button-response","19","123821","0.0-4.0-1.7","290","1","2022-10-14 09:53:02","ebf9627b049f568eb4bf28942cb89901","183.6.40.160","Mozilla/5.0 (Windows NT 10.0; Win64; x64) AppleWebKit/537.36 (KHTML, like Gecko) Chrome/106.0.0.0 Safari/537.36 Edg/106.0.1370.42","WebKit","Edge","106.0.1370.42","Windows","10.0","1062","<p>作为军队的指挥官，你可以选择发射导弹杀死 <strong>10名</strong> 敌国士兵，但会误杀附近的 <strong>1名</strong> 敌国平民。</p> <p>平民照片如下图所示。</p> <p></p> <img src='stimuli/faces/NFM6.jpg', style='max-width: 30%;'> </img> <p><strong>你是否选择发射武器？</strong></p>","1",""
"","","","","","html-keyboard-response","20","124834","0.0-4.0-0.8","290","1","2022-10-14 09:53:02","ebf9627b049f568eb4bf28942cb89901","183.6.40.160","Mozilla/5.0 (Windows NT 10.0; Win64; x64) AppleWebKit/537.36 (KHTML, like Gecko) Chrome/106.0.0.0 Safari/537.36 Edg/106.0.1370.42","WebKit","Edge","106.0.1370.42","Windows","10.0","null","<div style=""font-size:60px;"">+</div>","null",""
"","","","","","html-button-response","21","127572","0.0-4.0-1.8","290","1","2022-10-14 09:53:02","ebf9627b049f568eb4bf28942cb89901","183.6.40.160","Mozilla/5.0 (Windows NT 10.0; Win64; x64) AppleWebKit/537.36 (KHTML, like Gecko) Chrome/106.0.0.0 Safari/537.36 Edg/106.0.1370.42","WebKit","Edge","106.0.1370.42","Windows","10.0","2737","<p>作为军队的指挥官，你可以选择发射导弹杀死 <strong>5名</strong> 敌国士兵，但会误杀附近的 <strong>1名</strong> 敌国平民。</p> <p>平民照片如下图所示。</p> <p></p> <img src='stimuli/faces/NFM3.jpg', style='max-width: 30%;'> </img> <p><strong>你是否选择发射武器？</strong></p>","1",""
"","","","","","html-keyboard-response","22","128575","0.0-4.0-0.9","290","1","2022-10-14 09:53:02","ebf9627b049f568eb4bf28942cb89901","183.6.40.160","Mozilla/5.0 (Windows NT 10.0; Win64; x64) AppleWebKit/537.36 (KHTML, like Gecko) Chrome/106.0.0.0 Safari/537.36 Edg/106.0.1370.42","WebKit","Edge","106.0.1370.42","Windows","10.0","null","<div style=""font-size:60px;"">+</div>","null",""
"","","","","","html-button-response","23","129813","0.0-4.0-1.9","290","1","2022-10-14 09:53:02","ebf9627b049f568eb4bf28942cb89901","183.6.40.160","Mozilla/5.0 (Windows NT 10.0; Win64; x64) AppleWebKit/537.36 (KHTML, like Gecko) Chrome/106.0.0.0 Safari/537.36 Edg/106.0.1370.42","WebKit","Edge","106.0.1370.42","Windows","10.0","1231","<p>作为军队的指挥官，你可以选择发射导弹杀死 <strong>9名</strong> 敌国士兵，但会误杀附近的 <strong>1名</strong> 敌国平民。</p> <p>平民照片如下图所示。</p> <p></p> <img src='stimuli/faces/NFF1.jpg', style='max-width: 30%;'> </img> <p><strong>你是否选择发射武器？</strong></p>","1",""
"","","","","","html-keyboard-response","24","130815","0.0-4.0-0.10","290","1","2022-10-14 09:53:02","ebf9627b049f568eb4bf28942cb89901","183.6.40.160","Mozilla/5.0 (Windows NT 10.0; Win64; x64) AppleWebKit/537.36 (KHTML, like Gecko) Chrome/106.0.0.0 Safari/537.36 Edg/106.0.1370.42","WebKit","Edge","106.0.1370.42","Windows","10.0","null","<div style=""font-size:60px;"">+</div>","null",""
"","","","","","html-button-response","25","132700","0.0-4.0-1.10","290","1","2022-10-14 09:53:02","ebf9627b049f568eb4bf28942cb89901","183.6.40.160","Mozilla/5.0 (Windows NT 10.0; Win64; x64) AppleWebKit/537.36 (KHTML, like Gecko) Chrome/106.0.0.0 Safari/537.36 Edg/106.0.1370.42","WebKit","Edge","106.0.1370.42","Windows","10.0","1884","<p>作为军队的指挥官，你可以选择发射导弹杀死 <strong>6名</strong> 敌国士兵，但会炸毁附近的 <strong>1棵</strong> 敌国树木。</p> <p>树木的照片如下图所示。</p> <p></p> <img src='stimuli/trees/8.png', style='max-width: 30%;'> </img> <p><strong>你是否选择发射武器？</strong></p>","0",""
"","","","","","html-keyboard-response","26","133706","0.0-4.0-0.11","290","1","2022-10-14 09:53:02","ebf9627b049f568eb4bf28942cb89901","183.6.40.160","Mozilla/5.0 (Windows NT 10.0; Win64; x64) AppleWebKit/537.36 (KHTML, like Gecko) Chrome/106.0.0.0 Safari/537.36 Edg/106.0.1370.42","WebKit","Edge","106.0.1370.42","Windows","10.0","null","<div style=""font-size:60px;"">+</div>","null",""
"","","","","","html-button-response","27","134749","0.0-4.0-1.11","290","1","2022-10-14 09:53:02","ebf9627b049f568eb4bf28942cb89901","183.6.40.160","Mozilla/5.0 (Windows NT 10.0; Win64; x64) AppleWebKit/537.36 (KHTML, like Gecko) Chrome/106.0.0.0 Safari/537.36 Edg/106.0.1370.42","WebKit","Edge","106.0.1370.42","Windows","10.0","1041","<p>作为军队的指挥官，你可以选择发射导弹杀死 <strong>3名</strong> 敌国士兵，但会炸毁附近的 <strong>1棵</strong> 敌国树木。</p> <p>树木的照片如下图所示。</p> <p></p> <img src='stimuli/trees/13.png', style='max-width: 30%;'> </img> <p><strong>你是否选择发射武器？</strong></p>","0",""
"","","","","","html-keyboard-response","28","135753","0.0-4.0-0.12","290","1","2022-10-14 09:53:02","ebf9627b049f568eb4bf28942cb89901","183.6.40.160","Mozilla/5.0 (Windows NT 10.0; Win64; x64) AppleWebKit/537.36 (KHTML, like Gecko) Chrome/106.0.0.0 Safari/537.36 Edg/106.0.1370.42","WebKit","Edge","106.0.1370.42","Windows","10.0","null","<div style=""font-size:60px;"">+</div>","null",""
"","","","","","html-button-response","29","139925","0.0-4.0-1.12","290","1","2022-10-14 09:53:02","ebf9627b049f568eb4bf28942cb89901","183.6.40.160","Mozilla/5.0 (Windows NT 10.0; Win64; x64) AppleWebKit/537.36 (KHTML, like Gecko) Chrome/106.0.0.0 Safari/537.36 Edg/106.0.1370.42","WebKit","Edge","106.0.1370.42","Windows","10.0","4169","<p>作为军队的指挥官，你可以选择发射导弹杀死 <strong>9名</strong> 敌国士兵，但会炸毁附近的 <strong>1棵</strong> 敌国树木。</p> <p>树木的照片如下图所示。</p> <p></p> <img src='stimuli/trees/14.png', style='max-width: 30%;'> </img> <p><strong>你是否选择发射武器？</strong></p>","0",""
"","","","","","html-keyboard-response","30","140941","0.0-4.0-0.13","290","1","2022-10-14 09:53:02","ebf9627b049f568eb4bf28942cb89901","183.6.40.160","Mozilla/5.0 (Windows NT 10.0; Win64; x64) AppleWebKit/537.36 (KHTML, like Gecko) Chrome/106.0.0.0 Safari/537.36 Edg/106.0.1370.42","WebKit","Edge","106.0.1370.42","Windows","10.0","null","<div style=""font-size:60px;"">+</div>","null",""
"","","","","","html-button-response","31","142101","0.0-4.0-1.13","290","1","2022-10-14 09:53:02","ebf9627b049f568eb4bf28942cb89901","183.6.40.160","Mozilla/5.0 (Windows NT 10.0; Win64; x64) AppleWebKit/537.36 (KHTML, like Gecko) Chrome/106.0.0.0 Safari/537.36 Edg/106.0.1370.42","WebKit","Edge","106.0.1370.42","Windows","10.0","1158","<p>作为军队的指挥官，你可以选择发射导弹杀死 <strong>4名</strong> 敌国士兵，但会炸毁附近的 <strong>1棵</strong> 敌国树木。</p> <p>树木的照片如下图所示。</p> <p></p> <img src='stimuli/trees/16.png', style='max-width: 30%;'> </img> <p><strong>你是否选择发射武器？</strong></p>","0",""
"","","","","","html-keyboard-response","32","143113","0.0-4.0-0.14","290","1","2022-10-14 09:53:02","ebf9627b049f568eb4bf28942cb89901","183.6.40.160","Mozilla/5.0 (Windows NT 10.0; Win64; x64) AppleWebKit/537.36 (KHTML, like Gecko) Chrome/106.0.0.0 Safari/537.36 Edg/106.0.1370.42","WebKit","Edge","106.0.1370.42","Windows","10.0","null","<div style=""font-size:60px;"">+</div>","null",""
"","","","","","html-button-response","33","144501","0.0-4.0-1.14","290","1","2022-10-14 09:53:02","ebf9627b049f568eb4bf28942cb89901","183.6.40.160","Mozilla/5.0 (Windows NT 10.0; Win64; x64) AppleWebKit/537.36 (KHTML, like Gecko) Chrome/106.0.0.0 Safari/537.36 Edg/106.0.1370.42","WebKit","Edge","106.0.1370.42","Windows","10.0","1385","<p>作为军队的指挥官，你可以选择发射导弹杀死 <strong>10名</strong> 敌国士兵，但会炸毁附近的 <strong>1棵</strong> 敌国树木。</p> <p>树木的照片如下图所示。</p> <p></p> <img src='stimuli/trees/12.png', style='max-width: 30%;'> </img> <p><strong>你是否选择发射武器？</strong></p>","0",""
"","","","","","html-keyboard-response","34","145517","0.0-4.0-0.15","290","1","2022-10-14 09:53:02","ebf9627b049f568eb4bf28942cb89901","183.6.40.160","Mozilla/5.0 (Windows NT 10.0; Win64; x64) AppleWebKit/537.36 (KHTML, like Gecko) Chrome/106.0.0.0 Safari/537.36 Edg/106.0.1370.42","WebKit","Edge","106.0.1370.42","Windows","10.0","null","<div style=""font-size:60px;"">+</div>","null",""
"","","","","","html-button-response","35","146653","0.0-4.0-1.15","290","1","2022-10-14 09:53:02","ebf9627b049f568eb4bf28942cb89901","183.6.40.160","Mozilla/5.0 (Windows NT 10.0; Win64; x64) AppleWebKit/537.36 (KHTML, like Gecko) Chrome/106.0.0.0 Safari/537.36 Edg/106.0.1370.42","WebKit","Edge","106.0.1370.42","Windows","10.0","1134","<p>作为军队的指挥官，你可以选择发射导弹杀死 <strong>1名</strong> 敌国士兵，但会炸毁附近的 <strong>1棵</strong> 敌国树木。</p> <p>树木的照片如下图所示。</p> <p></p> <img src='stimuli/trees/5.png', style='max-width: 30%;'> </img> <p><strong>你是否选择发射武器？</strong></p>","0",""
"","","","","","html-keyboard-response","36","147654","0.0-4.0-0.16","290","1","2022-10-14 09:53:02","ebf9627b049f568eb4bf28942cb89901","183.6.40.160","Mozilla/5.0 (Windows NT 10.0; Win64; x64) AppleWebKit/537.36 (KHTML, like Gecko) Chrome/106.0.0.0 Safari/537.36 Edg/106.0.1370.42","WebKit","Edge","106.0.1370.42","Windows","10.0","null","<div style=""font-size:60px;"">+</div>","null",""
"","","","","","html-button-response","37","149205","0.0-4.0-1.16","290","1","2022-10-14 09:53:02","ebf9627b049f568eb4bf28942cb89901","183.6.40.160","Mozilla/5.0 (Windows NT 10.0; Win64; x64) AppleWebKit/537.36 (KHTML, like Gecko) Chrome/106.0.0.0 Safari/537.36 Edg/106.0.1370.42","WebKit","Edge","106.0.1370.42","Windows","10.0","1548","<p>作为军队的指挥官，你可以选择发射导弹杀死 <strong>9名</strong> 敌国士兵，但会误杀附近的 <strong>1名</strong> 敌国平民。</p> <p>平民照片如下图所示。</p> <p></p> <img src='stimuli/faces/NFF4.jpg', style='max-width: 30%;'> </img> <p><strong>你是否选择发射武器？</strong></p>","1",""
"","","","","","html-keyboard-response","38","150217","0.0-4.0-0.17","290","1","2022-10-14 09:53:02","ebf9627b049f568eb4bf28942cb89901","183.6.40.160","Mozilla/5.0 (Windows NT 10.0; Win64; x64) AppleWebKit/537.36 (KHTML, like Gecko) Chrome/106.0.0.0 Safari/537.36 Edg/106.0.1370.42","WebKit","Edge","106.0.1370.42","Windows","10.0","null","<div style=""font-size:60px;"">+</div>","null",""
"","","","","","html-button-response","39","151797","0.0-4.0-1.17","290","1","2022-10-14 09:53:02","ebf9627b049f568eb4bf28942cb89901","183.6.40.160","Mozilla/5.0 (Windows NT 10.0; Win64; x64) AppleWebKit/537.36 (KHTML, like Gecko) Chrome/106.0.0.0 Safari/537.36 Edg/106.0.1370.42","WebKit","Edge","106.0.1370.42","Windows","10.0","1577","<p>作为军队的指挥官，你可以选择发射导弹杀死 <strong>6名</strong> 敌国士兵，但会炸毁附近的 <strong>1棵</strong> 敌国树木。</p> <p>树木的照片如下图所示。</p> <p></p> <img src='stimuli/trees/6.png', style='max-width: 30%;'> </img> <p><strong>你是否选择发射武器？</strong></p>","0",""
"","","","","","html-keyboard-response","40","152800","0.0-4.0-0.18","290","1","2022-10-14 09:53:02","ebf9627b049f568eb4bf28942cb89901","183.6.40.160","Mozilla/5.0 (Windows NT 10.0; Win64; x64) AppleWebKit/537.36 (KHTML, like Gecko) Chrome/106.0.0.0 Safari/537.36 Edg/106.0.1370.42","WebKit","Edge","106.0.1370.42","Windows","10.0","null","<div style=""font-size:60px;"">+</div>","null",""
"","","","","","html-button-response","41","154260","0.0-4.0-1.18","290","1","2022-10-14 09:53:02","ebf9627b049f568eb4bf28942cb89901","183.6.40.160","Mozilla/5.0 (Windows NT 10.0; Win64; x64) AppleWebKit/537.36 (KHTML, like Gecko) Chrome/106.0.0.0 Safari/537.36 Edg/106.0.1370.42","WebKit","Edge","106.0.1370.42","Windows","10.0","1457","<p>作为军队的指挥官，你可以选择发射导弹杀死 <strong>3名</strong> 敌国士兵，但会炸毁附近的 <strong>1棵</strong> 敌国树木。</p> <p>树木的照片如下图所示。</p> <p></p> <img src='stimuli/trees/1.png', style='max-width: 30%;'> </img> <p><strong>你是否选择发射武器？</strong></p>","0",""
"","","","","","html-keyboard-response","42","155269","0.0-4.0-0.19","290","1","2022-10-14 09:53:02","ebf9627b049f568eb4bf28942cb89901","183.6.40.160","Mozilla/5.0 (Windows NT 10.0; Win64; x64) AppleWebKit/537.36 (KHTML, like Gecko) Chrome/106.0.0.0 Safari/537.36 Edg/106.0.1370.42","WebKit","Edge","106.0.1370.42","Windows","10.0","null","<div style=""font-size:60px;"">+</div>","null",""
"","","","","","html-button-response","43","157173","0.0-4.0-1.19","290","1","2022-10-14 09:53:02","ebf9627b049f568eb4bf28942cb89901","183.6.40.160","Mozilla/5.0 (Windows NT 10.0; Win64; x64) AppleWebKit/537.36 (KHTML, like Gecko) Chrome/106.0.0.0 Safari/537.36 Edg/106.0.1370.42","WebKit","Edge","106.0.1370.42","Windows","10.0","1902","<p>作为军队的指挥官，你可以选择发射导弹杀死 <strong>2名</strong> 敌国士兵，但会炸毁附近的 <strong>1棵</strong> 敌国树木。</p> <p>树木的照片如下图所示。</p> <p></p> <img src='stimuli/trees/2.png', style='max-width: 30%;'> </img> <p><strong>你是否选择发射武器？</strong></p>","0",""
"","","","","","html-keyboard-response","44","158176","0.0-4.0-0.20","290","1","2022-10-14 09:53:02","ebf9627b049f568eb4bf28942cb89901","183.6.40.160","Mozilla/5.0 (Windows NT 10.0; Win64; x64) AppleWebKit/537.36 (KHTML, like Gecko) Chrome/106.0.0.0 Safari/537.36 Edg/106.0.1370.42","WebKit","Edge","106.0.1370.42","Windows","10.0","null","<div style=""font-size:60px;"">+</div>","null",""
"","","","","","html-button-response","45","160940","0.0-4.0-1.20","290","1","2022-10-14 09:53:02","ebf9627b049f568eb4bf28942cb89901","183.6.40.160","Mozilla/5.0 (Windows NT 10.0; Win64; x64) AppleWebKit/537.36 (KHTML, like Gecko) Chrome/106.0.0.0 Safari/537.36 Edg/106.0.1370.42","WebKit","Edge","106.0.1370.42","Windows","10.0","2762","<p>作为军队的指挥官，你可以选择发射导弹杀死 <strong>4名</strong> 敌国士兵，但会炸毁附近的 <strong>1棵</strong> 敌国树木。</p> <p>树木的照片如下图所示。</p> <p></p> <img src='stimuli/trees/3.png', style='max-width: 30%;'> </img> <p><strong>你是否选择发射武器？</strong></p>","0",""
"","","","","","html-keyboard-response","46","161943","0.0-4.0-0.21","290","1","2022-10-14 09:53:02","ebf9627b049f568eb4bf28942cb89901","183.6.40.160","Mozilla/5.0 (Windows NT 10.0; Win64; x64) AppleWebKit/537.36 (KHTML, like Gecko) Chrome/106.0.0.0 Safari/537.36 Edg/106.0.1370.42","WebKit","Edge","106.0.1370.42","Windows","10.0","null","<div style=""font-size:60px;"">+</div>","null",""
"","","","","","html-button-response","47","163014","0.0-4.0-1.21","290","1","2022-10-14 09:53:02","ebf9627b049f568eb4bf28942cb89901","183.6.40.160","Mozilla/5.0 (Windows NT 10.0; Win64; x64) AppleWebKit/537.36 (KHTML, like Gecko) Chrome/106.0.0.0 Safari/537.36 Edg/106.0.1370.42","WebKit","Edge","106.0.1370.42","Windows","10.0","1069","<p>作为军队的指挥官，你可以选择发射导弹杀死 <strong>1名</strong> 敌国士兵，但会误杀附近的 <strong>1名</strong> 敌国平民。</p> <p>平民照片如下图所示。</p> <p></p> <img src='stimuli/faces/NFM5.jpg', style='max-width: 30%;'> </img> <p><strong>你是否选择发射武器？</strong></p>","1",""
"","","","","","html-keyboard-response","48","164016","0.0-4.0-0.22","290","1","2022-10-14 09:53:02","ebf9627b049f568eb4bf28942cb89901","183.6.40.160","Mozilla/5.0 (Windows NT 10.0; Win64; x64) AppleWebKit/537.36 (KHTML, like Gecko) Chrome/106.0.0.0 Safari/537.36 Edg/106.0.1370.42","WebKit","Edge","106.0.1370.42","Windows","10.0","null","<div style=""font-size:60px;"">+</div>","null",""
"","","","","","html-button-response","49","164830","0.0-4.0-1.22","290","1","2022-10-14 09:53:02","ebf9627b049f568eb4bf28942cb89901","183.6.40.160","Mozilla/5.0 (Windows NT 10.0; Win64; x64) AppleWebKit/537.36 (KHTML, like Gecko) Chrome/106.0.0.0 Safari/537.36 Edg/106.0.1370.42","WebKit","Edge","106.0.1370.42","Windows","10.0","812","<p>作为军队的指挥官，你可以选择发射导弹杀死 <strong>2名</strong> 敌国士兵，但会误杀附近的 <strong>1名</strong> 敌国平民。</p> <p>平民照片如下图所示。</p> <p></p> <img src='stimuli/faces/NFM6.jpg', style='max-width: 30%;'> </img> <p><strong>你是否选择发射武器？</strong></p>","1",""
"","","","","","html-keyboard-response","50","165832","0.0-4.0-0.23","290","1","2022-10-14 09:53:02","ebf9627b049f568eb4bf28942cb89901","183.6.40.160","Mozilla/5.0 (Windows NT 10.0; Win64; x64) AppleWebKit/537.36 (KHTML, like Gecko) Chrome/106.0.0.0 Safari/537.36 Edg/106.0.1370.42","WebKit","Edge","106.0.1370.42","Windows","10.0","null","<div style=""font-size:60px;"">+</div>","null",""
"","","","","","html-button-response","51","167085","0.0-4.0-1.23","290","1","2022-10-14 09:53:02","ebf9627b049f568eb4bf28942cb89901","183.6.40.160","Mozilla/5.0 (Windows NT 10.0; Win64; x64) AppleWebKit/537.36 (KHTML, like Gecko) Chrome/106.0.0.0 Safari/537.36 Edg/106.0.1370.42","WebKit","Edge","106.0.1370.42","Windows","10.0","1251","<p>作为军队的指挥官，你可以选择发射导弹杀死 <strong>5名</strong> 敌国士兵，但会误杀附近的 <strong>1名</strong> 敌国平民。</p> <p>平民照片如下图所示。</p> <p></p> <img src='stimuli/faces/NFM2.jpg', style='max-width: 30%;'> </img> <p><strong>你是否选择发射武器？</strong></p>","1",""
"","","","","","html-keyboard-response","52","168093","0.0-4.0-0.24","290","1","2022-10-14 09:53:02","ebf9627b049f568eb4bf28942cb89901","183.6.40.160","Mozilla/5.0 (Windows NT 10.0; Win64; x64) AppleWebKit/537.36 (KHTML, like Gecko) Chrome/106.0.0.0 Safari/537.36 Edg/106.0.1370.42","WebKit","Edge","106.0.1370.42","Windows","10.0","null","<div style=""font-size:60px;"">+</div>","null",""
"","","","","","html-button-response","53","169716","0.0-4.0-1.24","290","1","2022-10-14 09:53:02","ebf9627b049f568eb4bf28942cb89901","183.6.40.160","Mozilla/5.0 (Windows NT 10.0; Win64; x64) AppleWebKit/537.36 (KHTML, like Gecko) Chrome/106.0.0.0 Safari/537.36 Edg/106.0.1370.42","WebKit","Edge","106.0.1370.42","Windows","10.0","1620","<p>作为军队的指挥官，你可以选择发射导弹杀死 <strong>5名</strong> 敌国士兵，但会炸毁附近的 <strong>1棵</strong> 敌国树木。</p> <p>树木的照片如下图所示。</p> <p></p> <img src='stimuli/trees/8.png', style='max-width: 30%;'> </img> <p><strong>你是否选择发射武器？</strong></p>","0",""
"","","","","","html-keyboard-response","54","170732","0.0-4.0-0.25","290","1","2022-10-14 09:53:02","ebf9627b049f568eb4bf28942cb89901","183.6.40.160","Mozilla/5.0 (Windows NT 10.0; Win64; x64) AppleWebKit/537.36 (KHTML, like Gecko) Chrome/106.0.0.0 Safari/537.36 Edg/106.0.1370.42","WebKit","Edge","106.0.1370.42","Windows","10.0","null","<div style=""font-size:60px;"">+</div>","null",""
"","","","","","html-button-response","55","172014","0.0-4.0-1.25","290","1","2022-10-14 09:53:02","ebf9627b049f568eb4bf28942cb89901","183.6.40.160","Mozilla/5.0 (Windows NT 10.0; Win64; x64) AppleWebKit/537.36 (KHTML, like Gecko) Chrome/106.0.0.0 Safari/537.36 Edg/106.0.1370.42","WebKit","Edge","106.0.1370.42","Windows","10.0","1279","<p>作为军队的指挥官，你可以选择发射导弹杀死 <strong>8名</strong> 敌国士兵，但会炸毁附近的 <strong>1棵</strong> 敌国树木。</p> <p>树木的照片如下图所示。</p> <p></p> <img src='stimuli/trees/3.png', style='max-width: 30%;'> </img> <p><strong>你是否选择发射武器？</strong></p>","0",""
"","","","","","html-keyboard-response","56","173026","0.0-4.0-0.26","290","1","2022-10-14 09:53:02","ebf9627b049f568eb4bf28942cb89901","183.6.40.160","Mozilla/5.0 (Windows NT 10.0; Win64; x64) AppleWebKit/537.36 (KHTML, like Gecko) Chrome/106.0.0.0 Safari/537.36 Edg/106.0.1370.42","WebKit","Edge","106.0.1370.42","Windows","10.0","null","<div style=""font-size:60px;"">+</div>","null",""
"","","","","","html-button-response","57","175412","0.0-4.0-1.26","290","1","2022-10-14 09:53:02","ebf9627b049f568eb4bf28942cb89901","183.6.40.160","Mozilla/5.0 (Windows NT 10.0; Win64; x64) AppleWebKit/537.36 (KHTML, like Gecko) Chrome/106.0.0.0 Safari/537.36 Edg/106.0.1370.42","WebKit","Edge","106.0.1370.42","Windows","10.0","2382","<p>作为军队的指挥官，你可以选择发射导弹杀死 <strong>3名</strong> 敌国士兵，但会误杀附近的 <strong>1名</strong> 敌国平民。</p> <p>平民照片如下图所示。</p> <p></p> <img src='stimuli/faces/NFF2.jpg', style='max-width: 30%;'> </img> <p><strong>你是否选择发射武器？</strong></p>","1",""
"","","","","","html-keyboard-response","58","176418","0.0-4.0-0.27","290","1","2022-10-14 09:53:02","ebf9627b049f568eb4bf28942cb89901","183.6.40.160","Mozilla/5.0 (Windows NT 10.0; Win64; x64) AppleWebKit/537.36 (KHTML, like Gecko) Chrome/106.0.0.0 Safari/537.36 Edg/106.0.1370.42","WebKit","Edge","106.0.1370.42","Windows","10.0","null","<div style=""font-size:60px;"">+</div>","null",""
"","","","","","html-button-response","59","177684","0.0-4.0-1.27","290","1","2022-10-14 09:53:02","ebf9627b049f568eb4bf28942cb89901","183.6.40.160","Mozilla/5.0 (Windows NT 10.0; Win64; x64) AppleWebKit/537.36 (KHTML, like Gecko) Chrome/106.0.0.0 Safari/537.36 Edg/106.0.1370.42","WebKit","Edge","106.0.1370.42","Windows","10.0","1263","<p>作为军队的指挥官，你可以选择发射导弹杀死 <strong>9名</strong> 敌国士兵，但会误杀附近的 <strong>1名</strong> 敌国平民。</p> <p>平民照片如下图所示。</p> <p></p> <img src='stimuli/faces/NFM8.jpg', style='max-width: 30%;'> </img> <p><strong>你是否选择发射武器？</strong></p>","1",""
"","","","","","html-keyboard-response","60","178688","0.0-4.0-0.28","290","1","2022-10-14 09:53:02","ebf9627b049f568eb4bf28942cb89901","183.6.40.160","Mozilla/5.0 (Windows NT 10.0; Win64; x64) AppleWebKit/537.36 (KHTML, like Gecko) Chrome/106.0.0.0 Safari/537.36 Edg/106.0.1370.42","WebKit","Edge","106.0.1370.42","Windows","10.0","null","<div style=""font-size:60px;"">+</div>","null",""
"","","","","","html-button-response","61","179748","0.0-4.0-1.28","290","1","2022-10-14 09:53:02","ebf9627b049f568eb4bf28942cb89901","183.6.40.160","Mozilla/5.0 (Windows NT 10.0; Win64; x64) AppleWebKit/537.36 (KHTML, like Gecko) Chrome/106.0.0.0 Safari/537.36 Edg/106.0.1370.42","WebKit","Edge","106.0.1370.42","Windows","10.0","1058","<p>作为军队的指挥官，你可以选择发射导弹杀死 <strong>9名</strong> 敌国士兵，但会误杀附近的 <strong>1名</strong> 敌国平民。</p> <p>平民照片如下图所示。</p> <p></p> <img src='stimuli/faces/NFM7.jpg', style='max-width: 30%;'> </img> <p><strong>你是否选择发射武器？</strong></p>","1",""
"","","","","","html-keyboard-response","62","180754","0.0-4.0-0.29","290","1","2022-10-14 09:53:02","ebf9627b049f568eb4bf28942cb89901","183.6.40.160","Mozilla/5.0 (Windows NT 10.0; Win64; x64) AppleWebKit/537.36 (KHTML, like Gecko) Chrome/106.0.0.0 Safari/537.36 Edg/106.0.1370.42","WebKit","Edge","106.0.1370.42","Windows","10.0","null","<div style=""font-size:60px;"">+</div>","null",""
"","","","","","html-button-response","63","182228","0.0-4.0-1.29","290","1","2022-10-14 09:53:02","ebf9627b049f568eb4bf28942cb89901","183.6.40.160","Mozilla/5.0 (Windows NT 10.0; Win64; x64) AppleWebKit/537.36 (KHTML, like Gecko) Chrome/106.0.0.0 Safari/537.36 Edg/106.0.1370.42","WebKit","Edge","106.0.1370.42","Windows","10.0","1471","<p>作为军队的指挥官，你可以选择发射导弹杀死 <strong>8名</strong> 敌国士兵，但会误杀附近的 <strong>1名</strong> 敌国平民。</p> <p>平民照片如下图所示。</p> <p></p> <img src='stimuli/faces/NFF3.jpg', style='max-width: 30%;'> </img> <p><strong>你是否选择发射武器？</strong></p>","1",""
"","","","","","html-keyboard-response","64","183231","0.0-4.0-0.30","290","1","2022-10-14 09:53:02","ebf9627b049f568eb4bf28942cb89901","183.6.40.160","Mozilla/5.0 (Windows NT 10.0; Win64; x64) AppleWebKit/537.36 (KHTML, like Gecko) Chrome/106.0.0.0 Safari/537.36 Edg/106.0.1370.42","WebKit","Edge","106.0.1370.42","Windows","10.0","null","<div style=""font-size:60px;"">+</div>","null",""
"","","","","","html-button-response","65","185204","0.0-4.0-1.30","290","1","2022-10-14 09:53:02","ebf9627b049f568eb4bf28942cb89901","183.6.40.160","Mozilla/5.0 (Windows NT 10.0; Win64; x64) AppleWebKit/537.36 (KHTML, like Gecko) Chrome/106.0.0.0 Safari/537.36 Edg/106.0.1370.42","WebKit","Edge","106.0.1370.42","Windows","10.0","1968","<p>作为军队的指挥官，你可以选择发射导弹杀死 <strong>6名</strong> 敌国士兵，但会炸毁附近的 <strong>1棵</strong> 敌国树木。</p> <p>树木的照片如下图所示。</p> <p></p> <img src='stimuli/trees/4.png', style='max-width: 30%;'> </img> <p><strong>你是否选择发射武器？</strong></p>","0",""
"","","","","","html-keyboard-response","66","186210","0.0-4.0-0.31","290","1","2022-10-14 09:53:02","ebf9627b049f568eb4bf28942cb89901","183.6.40.160","Mozilla/5.0 (Windows NT 10.0; Win64; x64) AppleWebKit/537.36 (KHTML, like Gecko) Chrome/106.0.0.0 Safari/537.36 Edg/106.0.1370.42","WebKit","Edge","106.0.1370.42","Windows","10.0","null","<div style=""font-size:60px;"">+</div>","null",""
"","","","","","html-button-response","67","191252","0.0-4.0-1.31","290","1","2022-10-14 09:53:02","ebf9627b049f568eb4bf28942cb89901","183.6.40.160","Mozilla/5.0 (Windows NT 10.0; Win64; x64) AppleWebKit/537.36 (KHTML, like Gecko) Chrome/106.0.0.0 Safari/537.36 Edg/106.0.1370.42","WebKit","Edge","106.0.1370.42","Windows","10.0","5039","<p>作为军队的指挥官，你可以选择发射导弹杀死 <strong>8名</strong> 敌国士兵，但会炸毁附近的 <strong>1棵</strong> 敌国树木。</p> <p>树木的照片如下图所示。</p> <p></p> <img src='stimuli/trees/7.png', style='max-width: 30%;'> </img> <p><strong>你是否选择发射武器？</strong></p>","0",""
"","","","","","html-keyboard-response","68","192261","0.0-4.0-0.32","290","1","2022-10-14 09:53:02","ebf9627b049f568eb4bf28942cb89901","183.6.40.160","Mozilla/5.0 (Windows NT 10.0; Win64; x64) AppleWebKit/537.36 (KHTML, like Gecko) Chrome/106.0.0.0 Safari/537.36 Edg/106.0.1370.42","WebKit","Edge","106.0.1370.42","Windows","10.0","null","<div style=""font-size:60px;"">+</div>","null",""
"","","","","","html-button-response","69","196068","0.0-4.0-1.32","290","1","2022-10-14 09:53:02","ebf9627b049f568eb4bf28942cb89901","183.6.40.160","Mozilla/5.0 (Windows NT 10.0; Win64; x64) AppleWebKit/537.36 (KHTML, like Gecko) Chrome/106.0.0.0 Safari/537.36 Edg/106.0.1370.42","WebKit","Edge","106.0.1370.42","Windows","10.0","3796","<p>作为军队的指挥官，你可以选择发射导弹杀死 <strong>4名</strong> 敌国士兵，但会误杀附近的 <strong>1名</strong> 敌国平民。</p> <p>平民照片如下图所示。</p> <p></p> <img src='stimuli/faces/NFF5.jpg', style='max-width: 30%;'> </img> <p><strong>你是否选择发射武器？</strong></p>","1",""
"","","","","","html-keyboard-response","70","197082","0.0-4.0-0.33","290","1","2022-10-14 09:53:02","ebf9627b049f568eb4bf28942cb89901","183.6.40.160","Mozilla/5.0 (Windows NT 10.0; Win64; x64) AppleWebKit/537.36 (KHTML, like Gecko) Chrome/106.0.0.0 Safari/537.36 Edg/106.0.1370.42","WebKit","Edge","106.0.1370.42","Windows","10.0","null","<div style=""font-size:60px;"">+</div>","null",""
"","","","","","html-button-response","71","198389","0.0-4.0-1.33","290","1","2022-10-14 09:53:02","ebf9627b049f568eb4bf28942cb89901","183.6.40.160","Mozilla/5.0 (Windows NT 10.0; Win64; x64) AppleWebKit/537.36 (KHTML, like Gecko) Chrome/106.0.0.0 Safari/537.36 Edg/106.0.1370.42","WebKit","Edge","106.0.1370.42","Windows","10.0","1304","<p>作为军队的指挥官，你可以选择发射导弹杀死 <strong>6名</strong> 敌国士兵，但会误杀附近的 <strong>1名</strong> 敌国平民。</p> <p>平民照片如下图所示。</p> <p></p> <img src='stimuli/faces/NFF6.jpg', style='max-width: 30%;'> </img> <p><strong>你是否选择发射武器？</strong></p>","1",""
"","","","","","html-keyboard-response","72","199392","0.0-4.0-0.34","290","1","2022-10-14 09:53:02","ebf9627b049f568eb4bf28942cb89901","183.6.40.160","Mozilla/5.0 (Windows NT 10.0; Win64; x64) AppleWebKit/537.36 (KHTML, like Gecko) Chrome/106.0.0.0 Safari/537.36 Edg/106.0.1370.42","WebKit","Edge","106.0.1370.42","Windows","10.0","null","<div style=""font-size:60px;"">+</div>","null",""
"","","","","","html-button-response","73","200636","0.0-4.0-1.34","290","1","2022-10-14 09:53:02","ebf9627b049f568eb4bf28942cb89901","183.6.40.160","Mozilla/5.0 (Windows NT 10.0; Win64; x64) AppleWebKit/537.36 (KHTML, like Gecko) Chrome/106.0.0.0 Safari/537.36 Edg/106.0.1370.42","WebKit","Edge","106.0.1370.42","Windows","10.0","1241","<p>作为军队的指挥官，你可以选择发射导弹杀死 <strong>6名</strong> 敌国士兵，但会误杀附近的 <strong>1名</strong> 敌国平民。</p> <p>平民照片如下图所示。</p> <p></p> <img src='stimuli/faces/NFM5.jpg', style='max-width: 30%;'> </img> <p><strong>你是否选择发射武器？</strong></p>","1",""
"","","","","","html-keyboard-response","74","201650","0.0-4.0-0.35","290","1","2022-10-14 09:53:02","ebf9627b049f568eb4bf28942cb89901","183.6.40.160","Mozilla/5.0 (Windows NT 10.0; Win64; x64) AppleWebKit/537.36 (KHTML, like Gecko) Chrome/106.0.0.0 Safari/537.36 Edg/106.0.1370.42","WebKit","Edge","106.0.1370.42","Windows","10.0","null","<div style=""font-size:60px;"">+</div>","null",""
"","","","","","html-button-response","75","203844","0.0-4.0-1.35","290","1","2022-10-14 09:53:02","ebf9627b049f568eb4bf28942cb89901","183.6.40.160","Mozilla/5.0 (Windows NT 10.0; Win64; x64) AppleWebKit/537.36 (KHTML, like Gecko) Chrome/106.0.0.0 Safari/537.36 Edg/106.0.1370.42","WebKit","Edge","106.0.1370.42","Windows","10.0","2191","<p>作为军队的指挥官，你可以选择发射导弹杀死 <strong>5名</strong> 敌国士兵，但会误杀附近的 <strong>1名</strong> 敌国平民。</p> <p>平民照片如下图所示。</p> <p></p> <img src='stimuli/faces/NFM8.jpg', style='max-width: 30%;'> </img> <p><strong>你是否选择发射武器？</strong></p>","1",""
"","","","","","html-keyboard-response","76","204856","0.0-4.0-0.36","290","1","2022-10-14 09:53:02","ebf9627b049f568eb4bf28942cb89901","183.6.40.160","Mozilla/5.0 (Windows NT 10.0; Win64; x64) AppleWebKit/537.36 (KHTML, like Gecko) Chrome/106.0.0.0 Safari/537.36 Edg/106.0.1370.42","WebKit","Edge","106.0.1370.42","Windows","10.0","null","<div style=""font-size:60px;"">+</div>","null",""
"","","","","","html-button-response","77","321997","0.0-4.0-1.36","290","1","2022-10-14 09:53:02","ebf9627b049f568eb4bf28942cb89901","183.6.40.160","Mozilla/5.0 (Windows NT 10.0; Win64; x64) AppleWebKit/537.36 (KHTML, like Gecko) Chrome/106.0.0.0 Safari/537.36 Edg/106.0.1370.42","WebKit","Edge","106.0.1370.42","Windows","10.0","117138","<p>作为军队的指挥官，你可以选择发射导弹杀死 <strong>7名</strong> 敌国士兵，但会炸毁附近的 <strong>1棵</strong> 敌国树木。</p> <p>树木的照片如下图所示。</p> <p></p> <img src='stimuli/trees/15.png', style='max-width: 30%;'> </img> <p><strong>你是否选择发射武器？</strong></p>","0",""
"","","","","","html-keyboard-response","78","323001","0.0-4.0-0.37","290","1","2022-10-14 09:53:02","ebf9627b049f568eb4bf28942cb89901","183.6.40.160","Mozilla/5.0 (Windows NT 10.0; Win64; x64) AppleWebKit/537.36 (KHTML, like Gecko) Chrome/106.0.0.0 Safari/537.36 Edg/106.0.1370.42","WebKit","Edge","106.0.1370.42","Windows","10.0","null","<div style=""font-size:60px;"">+</div>","null",""
"","","","","","html-button-response","79","413997","0.0-4.0-1.37","290","1","2022-10-14 09:53:02","ebf9627b049f568eb4bf28942cb89901","183.6.40.160","Mozilla/5.0 (Windows NT 10.0; Win64; x64) AppleWebKit/537.36 (KHTML, like Gecko) Chrome/106.0.0.0 Safari/537.36 Edg/106.0.1370.42","WebKit","Edge","106.0.1370.42","Windows","10.0","90994","<p>作为军队的指挥官，你可以选择发射导弹杀死 <strong>2名</strong> 敌国士兵，但会炸毁附近的 <strong>1棵</strong> 敌国树木。</p> <p>树木的照片如下图所示。</p> <p></p> <img src='stimuli/trees/6.png', style='max-width: 30%;'> </img> <p><strong>你是否选择发射武器？</strong></p>","0",""
"","","","","","html-keyboard-response","80","415014","0.0-4.0-0.38","290","1","2022-10-14 09:53:02","ebf9627b049f568eb4bf28942cb89901","183.6.40.160","Mozilla/5.0 (Windows NT 10.0; Win64; x64) AppleWebKit/537.36 (KHTML, like Gecko) Chrome/106.0.0.0 Safari/537.36 Edg/106.0.1370.42","WebKit","Edge","106.0.1370.42","Windows","10.0","null","<div style=""font-size:60px;"">+</div>","null",""
"","","","","","html-button-response","81","418557","0.0-4.0-1.38","290","1","2022-10-14 09:53:02","ebf9627b049f568eb4bf28942cb89901","183.6.40.160","Mozilla/5.0 (Windows NT 10.0; Win64; x64) AppleWebKit/537.36 (KHTML, like Gecko) Chrome/106.0.0.0 Safari/537.36 Edg/106.0.1370.42","WebKit","Edge","106.0.1370.42","Windows","10.0","3540","<p>作为军队的指挥官，你可以选择发射导弹杀死 <strong>2名</strong> 敌国士兵，但会误杀附近的 <strong>1名</strong> 敌国平民。</p> <p>平民照片如下图所示。</p> <p></p> <img src='stimuli/faces/NFM4.jpg', style='max-width: 30%;'> </img> <p><strong>你是否选择发射武器？</strong></p>","1",""
"","","","","","html-keyboard-response","82","419575","0.0-4.0-0.39","290","1","2022-10-14 09:53:02","ebf9627b049f568eb4bf28942cb89901","183.6.40.160","Mozilla/5.0 (Windows NT 10.0; Win64; x64) AppleWebKit/537.36 (KHTML, like Gecko) Chrome/106.0.0.0 Safari/537.36 Edg/106.0.1370.42","WebKit","Edge","106.0.1370.42","Windows","10.0","null","<div style=""font-size:60px;"">+</div>","null",""
"","","","","","html-button-response","83","450205","0.0-4.0-1.39","290","1","2022-10-14 09:53:02","ebf9627b049f568eb4bf28942cb89901","183.6.40.160","Mozilla/5.0 (Windows NT 10.0; Win64; x64) AppleWebKit/537.36 (KHTML, like Gecko) Chrome/106.0.0.0 Safari/537.36 Edg/106.0.1370.42","WebKit","Edge","106.0.1370.42","Windows","10.0","30626","<p>作为军队的指挥官，你可以选择发射导弹杀死 <strong>9名</strong> 敌国士兵，但会炸毁附近的 <strong>1棵</strong> 敌国树木。</p> <p>树木的照片如下图所示。</p> <p></p> <img src='stimuli/trees/16.png', style='max-width: 30%;'> </img> <p><strong>你是否选择发射武器？</strong></p>","0",""
"","","","","","html-keyboard-response","84","451209","0.0-4.0-0.40","290","1","2022-10-14 09:53:02","ebf9627b049f568eb4bf28942cb89901","183.6.40.160","Mozilla/5.0 (Windows NT 10.0; Win64; x64) AppleWebKit/537.36 (KHTML, like Gecko) Chrome/106.0.0.0 Safari/537.36 Edg/106.0.1370.42","WebKit","Edge","106.0.1370.42","Windows","10.0","null","<div style=""font-size:60px;"">+</div>","null",""
"","","","","","html-button-response","85","453765","0.0-4.0-1.40","290","1","2022-10-14 09:53:02","ebf9627b049f568eb4bf28942cb89901","183.6.40.160","Mozilla/5.0 (Windows NT 10.0; Win64; x64) AppleWebKit/537.36 (KHTML, like Gecko) Chrome/106.0.0.0 Safari/537.36 Edg/106.0.1370.42","WebKit","Edge","106.0.1370.42","Windows","10.0","2552","<p>作为军队的指挥官，你可以选择发射导弹杀死 <strong>1名</strong> 敌国士兵，但会炸毁附近的 <strong>1棵</strong> 敌国树木。</p> <p>树木的照片如下图所示。</p> <p></p> <img src='stimuli/trees/10.png', style='max-width: 30%;'> </img> <p><strong>你是否选择发射武器？</strong></p>","0",""
"","","","","","html-keyboard-response","86","454768","0.0-4.0-0.41","290","1","2022-10-14 09:53:02","ebf9627b049f568eb4bf28942cb89901","183.6.40.160","Mozilla/5.0 (Windows NT 10.0; Win64; x64) AppleWebKit/537.36 (KHTML, like Gecko) Chrome/106.0.0.0 Safari/537.36 Edg/106.0.1370.42","WebKit","Edge","106.0.1370.42","Windows","10.0","null","<div style=""font-size:60px;"">+</div>","null",""
"","","","","","html-button-response","87","503164","0.0-4.0-1.41","290","1","2022-10-14 09:53:02","ebf9627b049f568eb4bf28942cb89901","183.6.40.160","Mozilla/5.0 (Windows NT 10.0; Win64; x64) AppleWebKit/537.36 (KHTML, like Gecko) Chrome/106.0.0.0 Safari/537.36 Edg/106.0.1370.42","WebKit","Edge","106.0.1370.42","Windows","10.0","48393","<p>作为军队的指挥官，你可以选择发射导弹杀死 <strong>10名</strong> 敌国士兵，但会炸毁附近的 <strong>1棵</strong> 敌国树木。</p> <p>树木的照片如下图所示。</p> <p></p> <img src='stimuli/trees/11.png', style='max-width: 30%;'> </img> <p><strong>你是否选择发射武器？</strong></p>","0",""
"","","","","","html-keyboard-response","88","504180","0.0-4.0-0.42","290","1","2022-10-14 09:53:02","ebf9627b049f568eb4bf28942cb89901","183.6.40.160","Mozilla/5.0 (Windows NT 10.0; Win64; x64) AppleWebKit/537.36 (KHTML, like Gecko) Chrome/106.0.0.0 Safari/537.36 Edg/106.0.1370.42","WebKit","Edge","106.0.1370.42","Windows","10.0","null","<div style=""font-size:60px;"">+</div>","null",""
"","","","","","html-button-response","89","827356","0.0-4.0-1.42","290","1","2022-10-14 09:53:02","ebf9627b049f568eb4bf28942cb89901","183.6.40.160","Mozilla/5.0 (Windows NT 10.0; Win64; x64) AppleWebKit/537.36 (KHTML, like Gecko) Chrome/106.0.0.0 Safari/537.36 Edg/106.0.1370.42","WebKit","Edge","106.0.1370.42","Windows","10.0","323173","<p>作为军队的指挥官，你可以选择发射导弹杀死 <strong>7名</strong> 敌国士兵，但会炸毁附近的 <strong>1棵</strong> 敌国树木。</p> <p>树木的照片如下图所示。</p> <p></p> <img src='stimuli/trees/1.png', style='max-width: 30%;'> </img> <p><strong>你是否选择发射武器？</strong></p>","1",""
"","","","","","html-keyboard-response","90","828362","0.0-4.0-0.43","290","1","2022-10-14 09:53:02","ebf9627b049f568eb4bf28942cb89901","183.6.40.160","Mozilla/5.0 (Windows NT 10.0; Win64; x64) AppleWebKit/537.36 (KHTML, like Gecko) Chrome/106.0.0.0 Safari/537.36 Edg/106.0.1370.42","WebKit","Edge","106.0.1370.42","Windows","10.0","null","<div style=""font-size:60px;"">+</div>","null",""
"","","","","","html-button-response","91","829572","0.0-4.0-1.43","290","1","2022-10-14 09:53:02","ebf9627b049f568eb4bf28942cb89901","183.6.40.160","Mozilla/5.0 (Windows NT 10.0; Win64; x64) AppleWebKit/537.36 (KHTML, like Gecko) Chrome/106.0.0.0 Safari/537.36 Edg/106.0.1370.42","WebKit","Edge","106.0.1370.42","Windows","10.0","1206","<p>作为军队的指挥官，你可以选择发射导弹杀死 <strong>5名</strong> 敌国士兵，但会误杀附近的 <strong>1名</strong> 敌国平民。</p> <p>平民照片如下图所示。</p> <p></p> <img src='stimuli/faces/NFF1.jpg', style='max-width: 30%;'> </img> <p><strong>你是否选择发射武器？</strong></p>","0",""
"","","","","","html-keyboard-response","92","830587","0.0-4.0-0.44","290","1","2022-10-14 09:53:02","ebf9627b049f568eb4bf28942cb89901","183.6.40.160","Mozilla/5.0 (Windows NT 10.0; Win64; x64) AppleWebKit/537.36 (KHTML, like Gecko) Chrome/106.0.0.0 Safari/537.36 Edg/106.0.1370.42","WebKit","Edge","106.0.1370.42","Windows","10.0","null","<div style=""font-size:60px;"">+</div>","null",""
"","","","","","html-button-response","93","1104021","0.0-4.0-1.44","290","1","2022-10-14 09:53:02","ebf9627b049f568eb4bf28942cb89901","183.6.40.160","Mozilla/5.0 (Windows NT 10.0; Win64; x64) AppleWebKit/537.36 (KHTML, like Gecko) Chrome/106.0.0.0 Safari/537.36 Edg/106.0.1370.42","WebKit","Edge","106.0.1370.42","Windows","10.0","273429","<p>作为军队的指挥官，你可以选择发射导弹杀死 <strong>1名</strong> 敌国士兵，但会炸毁附近的 <strong>1棵</strong> 敌国树木。</p> <p>树木的照片如下图所示。</p> <p></p> <img src='stimuli/trees/4.png', style='max-width: 30%;'> </img> <p><strong>你是否选择发射武器？</strong></p>","0",""
"","","","","","html-keyboard-response","94","1105025","0.0-4.0-0.45","290","1","2022-10-14 09:53:02","ebf9627b049f568eb4bf28942cb89901","183.6.40.160","Mozilla/5.0 (Windows NT 10.0; Win64; x64) AppleWebKit/537.36 (KHTML, like Gecko) Chrome/106.0.0.0 Safari/537.36 Edg/106.0.1370.42","WebKit","Edge","106.0.1370.42","Windows","10.0","null","<div style=""font-size:60px;"">+</div>","null",""
"","","","","","html-button-response","95","1107828","0.0-4.0-1.45","290","1","2022-10-14 09:53:02","ebf9627b049f568eb4bf28942cb89901","183.6.40.160","Mozilla/5.0 (Windows NT 10.0; Win64; x64) AppleWebKit/537.36 (KHTML, like Gecko) Chrome/106.0.0.0 Safari/537.36 Edg/106.0.1370.42","WebKit","Edge","106.0.1370.42","Windows","10.0","2799","<p>作为军队的指挥官，你可以选择发射导弹杀死 <strong>3名</strong> 敌国士兵，但会误杀附近的 <strong>1名</strong> 敌国平民。</p> <p>平民照片如下图所示。</p> <p></p> <img src='stimuli/faces/NFF4.jpg', style='max-width: 30%;'> </img> <p><strong>你是否选择发射武器？</strong></p>","1",""
"","","","","","html-keyboard-response","96","1108836","0.0-4.0-0.46","290","1","2022-10-14 09:53:02","ebf9627b049f568eb4bf28942cb89901","183.6.40.160","Mozilla/5.0 (Windows NT 10.0; Win64; x64) AppleWebKit/537.36 (KHTML, like Gecko) Chrome/106.0.0.0 Safari/537.36 Edg/106.0.1370.42","WebKit","Edge","106.0.1370.42","Windows","10.0","null","<div style=""font-size:60px;"">+</div>","null",""
"","","","","","html-button-response","97","1110884","0.0-4.0-1.46","290","1","2022-10-14 09:53:02","ebf9627b049f568eb4bf28942cb89901","183.6.40.160","Mozilla/5.0 (Windows NT 10.0; Win64; x64) AppleWebKit/537.36 (KHTML, like Gecko) Chrome/106.0.0.0 Safari/537.36 Edg/106.0.1370.42","WebKit","Edge","106.0.1370.42","Windows","10.0","2045","<p>作为军队的指挥官，你可以选择发射导弹杀死 <strong>8名</strong> 敌国士兵，但会误杀附近的 <strong>1名</strong> 敌国平民。</p> <p>平民照片如下图所示。</p> <p></p> <img src='stimuli/faces/NFF5.jpg', style='max-width: 30%;'> </img> <p><strong>你是否选择发射武器？</strong></p>","1",""
"","","","","","html-keyboard-response","98","1111893","0.0-4.0-0.47","290","1","2022-10-14 09:53:02","ebf9627b049f568eb4bf28942cb89901","183.6.40.160","Mozilla/5.0 (Windows NT 10.0; Win64; x64) AppleWebKit/537.36 (KHTML, like Gecko) Chrome/106.0.0.0 Safari/537.36 Edg/106.0.1370.42","WebKit","Edge","106.0.1370.42","Windows","10.0","null","<div style=""font-size:60px;"">+</div>","null",""
"","","","","","html-button-response","99","1115660","0.0-4.0-1.47","290","1","2022-10-14 09:53:02","ebf9627b049f568eb4bf28942cb89901","183.6.40.160","Mozilla/5.0 (Windows NT 10.0; Win64; x64) AppleWebKit/537.36 (KHTML, like Gecko) Chrome/106.0.0.0 Safari/537.36 Edg/106.0.1370.42","WebKit","Edge","106.0.1370.42","Windows","10.0","3764","<p>作为军队的指挥官，你可以选择发射导弹杀死 <strong>6名</strong> 敌国士兵，但会炸毁附近的 <strong>1棵</strong> 敌国树木。</p> <p>树木的照片如下图所示。</p> <p></p> <img src='stimuli/trees/10.png', style='max-width: 30%;'> </img> <p><strong>你是否选择发射武器？</strong></p>","0",""
"","","","","","html-keyboard-response","100","1116663","0.0-4.0-0.48","290","1","2022-10-14 09:53:02","ebf9627b049f568eb4bf28942cb89901","183.6.40.160","Mozilla/5.0 (Windows NT 10.0; Win64; x64) AppleWebKit/537.36 (KHTML, like Gecko) Chrome/106.0.0.0 Safari/537.36 Edg/106.0.1370.42","WebKit","Edge","106.0.1370.42","Windows","10.0","null","<div style=""font-size:60px;"">+</div>","null",""
"","","","","","html-button-response","101","1118332","0.0-4.0-1.48","290","1","2022-10-14 09:53:02","ebf9627b049f568eb4bf28942cb89901","183.6.40.160","Mozilla/5.0 (Windows NT 10.0; Win64; x64) AppleWebKit/537.36 (KHTML, like Gecko) Chrome/106.0.0.0 Safari/537.36 Edg/106.0.1370.42","WebKit","Edge","106.0.1370.42","Windows","10.0","1665","<p>作为军队的指挥官，你可以选择发射导弹杀死 <strong>1名</strong> 敌国士兵，但会炸毁附近的 <strong>1棵</strong> 敌国树木。</p> <p>树木的照片如下图所示。</p> <p></p> <img src='stimuli/trees/12.png', style='max-width: 30%;'> </img> <p><strong>你是否选择发射武器？</strong></p>","0",""
"","","","","","html-keyboard-response","102","1119335","0.0-4.0-0.49","290","1","2022-10-14 09:53:02","ebf9627b049f568eb4bf28942cb89901","183.6.40.160","Mozilla/5.0 (Windows NT 10.0; Win64; x64) AppleWebKit/537.36 (KHTML, like Gecko) Chrome/106.0.0.0 Safari/537.36 Edg/106.0.1370.42","WebKit","Edge","106.0.1370.42","Windows","10.0","null","<div style=""font-size:60px;"">+</div>","null",""
"","","","","","html-button-response","103","1120884","0.0-4.0-1.49","290","1","2022-10-14 09:53:02","ebf9627b049f568eb4bf28942cb89901","183.6.40.160","Mozilla/5.0 (Windows NT 10.0; Win64; x64) AppleWebKit/537.36 (KHTML, like Gecko) Chrome/106.0.0.0 Safari/537.36 Edg/106.0.1370.42","WebKit","Edge","106.0.1370.42","Windows","10.0","1546","<p>作为军队的指挥官，你可以选择发射导弹杀死 <strong>4名</strong> 敌国士兵，但会误杀附近的 <strong>1名</strong> 敌国平民。</p> <p>平民照片如下图所示。</p> <p></p> <img src='stimuli/faces/NFM1.jpg', style='max-width: 30%;'> </img> <p><strong>你是否选择发射武器？</strong></p>","1",""
"","","","","","html-keyboard-response","104","1121899","0.0-4.0-0.50","290","1","2022-10-14 09:53:02","ebf9627b049f568eb4bf28942cb89901","183.6.40.160","Mozilla/5.0 (Windows NT 10.0; Win64; x64) AppleWebKit/537.36 (KHTML, like Gecko) Chrome/106.0.0.0 Safari/537.36 Edg/106.0.1370.42","WebKit","Edge","106.0.1370.42","Windows","10.0","null","<div style=""font-size:60px;"">+</div>","null",""
"","","","","","html-button-response","105","1146437","0.0-4.0-1.50","290","1","2022-10-14 09:53:02","ebf9627b049f568eb4bf28942cb89901","183.6.40.160","Mozilla/5.0 (Windows NT 10.0; Win64; x64) AppleWebKit/537.36 (KHTML, like Gecko) Chrome/106.0.0.0 Safari/537.36 Edg/106.0.1370.42","WebKit","Edge","106.0.1370.42","Windows","10.0","24535","<p>作为军队的指挥官，你可以选择发射导弹杀死 <strong>5名</strong> 敌国士兵，但会炸毁附近的 <strong>1棵</strong> 敌国树木。</p> <p>树木的照片如下图所示。</p> <p></p> <img src='stimuli/trees/11.png', style='max-width: 30%;'> </img> <p><strong>你是否选择发射武器？</strong></p>","0",""
"","","","","","html-keyboard-response","106","1147455","0.0-4.0-0.51","290","1","2022-10-14 09:53:02","ebf9627b049f568eb4bf28942cb89901","183.6.40.160","Mozilla/5.0 (Windows NT 10.0; Win64; x64) AppleWebKit/537.36 (KHTML, like Gecko) Chrome/106.0.0.0 Safari/537.36 Edg/106.0.1370.42","WebKit","Edge","106.0.1370.42","Windows","10.0","null","<div style=""font-size:60px;"">+</div>","null",""
"","","","","","html-button-response","107","1149628","0.0-4.0-1.51","290","1","2022-10-14 09:53:02","ebf9627b049f568eb4bf28942cb89901","183.6.40.160","Mozilla/5.0 (Windows NT 10.0; Win64; x64) AppleWebKit/537.36 (KHTML, like Gecko) Chrome/106.0.0.0 Safari/537.36 Edg/106.0.1370.42","WebKit","Edge","106.0.1370.42","Windows","10.0","2169","<p>作为军队的指挥官，你可以选择发射导弹杀死 <strong>3名</strong> 敌国士兵，但会误杀附近的 <strong>1名</strong> 敌国平民。</p> <p>平民照片如下图所示。</p> <p></p> <img src='stimuli/faces/NFF7.jpg', style='max-width: 30%;'> </img> <p><strong>你是否选择发射武器？</strong></p>","1",""
"","","","","","html-keyboard-response","108","1150640","0.0-4.0-0.52","290","1","2022-10-14 09:53:02","ebf9627b049f568eb4bf28942cb89901","183.6.40.160","Mozilla/5.0 (Windows NT 10.0; Win64; x64) AppleWebKit/537.36 (KHTML, like Gecko) Chrome/106.0.0.0 Safari/537.36 Edg/106.0.1370.42","WebKit","Edge","106.0.1370.42","Windows","10.0","null","<div style=""font-size:60px;"">+</div>","null",""
"","","","","","html-button-response","109","1169605","0.0-4.0-1.52","290","1","2022-10-14 09:53:02","ebf9627b049f568eb4bf28942cb89901","183.6.40.160","Mozilla/5.0 (Windows NT 10.0; Win64; x64) AppleWebKit/537.36 (KHTML, like Gecko) Chrome/106.0.0.0 Safari/537.36 Edg/106.0.1370.42","WebKit","Edge","106.0.1370.42","Windows","10.0","18961","<p>作为军队的指挥官，你可以选择发射导弹杀死 <strong>4名</strong> 敌国士兵，但会炸毁附近的 <strong>1棵</strong> 敌国树木。</p> <p>树木的照片如下图所示。</p> <p></p> <img src='stimuli/trees/7.png', style='max-width: 30%;'> </img> <p><strong>你是否选择发射武器？</strong></p>","0",""
"","","","","","html-keyboard-response","110","1170623","0.0-4.0-0.53","290","1","2022-10-14 09:53:02","ebf9627b049f568eb4bf28942cb89901","183.6.40.160","Mozilla/5.0 (Windows NT 10.0; Win64; x64) AppleWebKit/537.36 (KHTML, like Gecko) Chrome/106.0.0.0 Safari/537.36 Edg/106.0.1370.42","WebKit","Edge","106.0.1370.42","Windows","10.0","null","<div style=""font-size:60px;"">+</div>","null",""
"","","","","","html-button-response","111","1183787","0.0-4.0-1.53","290","1","2022-10-14 09:53:02","ebf9627b049f568eb4bf28942cb89901","183.6.40.160","Mozilla/5.0 (Windows NT 10.0; Win64; x64) AppleWebKit/537.36 (KHTML, like Gecko) Chrome/106.0.0.0 Safari/537.36 Edg/106.0.1370.42","WebKit","Edge","106.0.1370.42","Windows","10.0","13161","<p>作为军队的指挥官，你可以选择发射导弹杀死 <strong>8名</strong> 敌国士兵，但会炸毁附近的 <strong>1棵</strong> 敌国树木。</p> <p>树木的照片如下图所示。</p> <p></p> <img src='stimuli/trees/13.png', style='max-width: 30%;'> </img> <p><strong>你是否选择发射武器？</strong></p>","0",""
"","","","","","html-keyboard-response","112","1184800","0.0-4.0-0.54","290","1","2022-10-14 09:53:02","ebf9627b049f568eb4bf28942cb89901","183.6.40.160","Mozilla/5.0 (Windows NT 10.0; Win64; x64) AppleWebKit/537.36 (KHTML, like Gecko) Chrome/106.0.0.0 Safari/537.36 Edg/106.0.1370.42","WebKit","Edge","106.0.1370.42","Windows","10.0","null","<div style=""font-size:60px;"">+</div>","null",""
"","","","","","html-button-response","113","1185812","0.0-4.0-1.54","290","1","2022-10-14 09:53:02","ebf9627b049f568eb4bf28942cb89901","183.6.40.160","Mozilla/5.0 (Windows NT 10.0; Win64; x64) AppleWebKit/537.36 (KHTML, like Gecko) Chrome/106.0.0.0 Safari/537.36 Edg/106.0.1370.42","WebKit","Edge","106.0.1370.42","Windows","10.0","1008","<p>作为军队的指挥官，你可以选择发射导弹杀死 <strong>10名</strong> 敌国士兵，但会误杀附近的 <strong>1名</strong> 敌国平民。</p> <p>平民照片如下图所示。</p> <p></p> <img src='stimuli/faces/NFM3.jpg', style='max-width: 30%;'> </img> <p><strong>你是否选择发射武器？</strong></p>","1",""
"","","","","","html-keyboard-response","114","1186824","0.0-4.0-0.55","290","1","2022-10-14 09:53:02","ebf9627b049f568eb4bf28942cb89901","183.6.40.160","Mozilla/5.0 (Windows NT 10.0; Win64; x64) AppleWebKit/537.36 (KHTML, like Gecko) Chrome/106.0.0.0 Safari/537.36 Edg/106.0.1370.42","WebKit","Edge","106.0.1370.42","Windows","10.0","null","<div style=""font-size:60px;"">+</div>","null",""
"","","","","","html-button-response","115","1187531","0.0-4.0-1.55","290","1","2022-10-14 09:53:02","ebf9627b049f568eb4bf28942cb89901","183.6.40.160","Mozilla/5.0 (Windows NT 10.0; Win64; x64) AppleWebKit/537.36 (KHTML, like Gecko) Chrome/106.0.0.0 Safari/537.36 Edg/106.0.1370.42","WebKit","Edge","106.0.1370.42","Windows","10.0","705","<p>作为军队的指挥官，你可以选择发射导弹杀死 <strong>4名</strong> 敌国士兵，但会误杀附近的 <strong>1名</strong> 敌国平民。</p> <p>平民照片如下图所示。</p> <p></p> <img src='stimuli/faces/NFM7.jpg', style='max-width: 30%;'> </img> <p><strong>你是否选择发射武器？</strong></p>","1",""
"","","","","","html-keyboard-response","116","1188550","0.0-4.0-0.56","290","1","2022-10-14 09:53:02","ebf9627b049f568eb4bf28942cb89901","183.6.40.160","Mozilla/5.0 (Windows NT 10.0; Win64; x64) AppleWebKit/537.36 (KHTML, like Gecko) Chrome/106.0.0.0 Safari/537.36 Edg/106.0.1370.42","WebKit","Edge","106.0.1370.42","Windows","10.0","null","<div style=""font-size:60px;"">+</div>","null",""
"","","","","","html-button-response","117","1189756","0.0-4.0-1.56","290","1","2022-10-14 09:53:02","ebf9627b049f568eb4bf28942cb89901","183.6.40.160","Mozilla/5.0 (Windows NT 10.0; Win64; x64) AppleWebKit/537.36 (KHTML, like Gecko) Chrome/106.0.0.0 Safari/537.36 Edg/106.0.1370.42","WebKit","Edge","106.0.1370.42","Windows","10.0","1202","<p>作为军队的指挥官，你可以选择发射导弹杀死 <strong>5名</strong> 敌国士兵，但会炸毁附近的 <strong>1棵</strong> 敌国树木。</p> <p>树木的照片如下图所示。</p> <p></p> <img src='stimuli/trees/14.png', style='max-width: 30%;'> </img> <p><strong>你是否选择发射武器？</strong></p>","0",""
"","","","","","html-keyboard-response","118","1190767","0.0-4.0-0.57","290","1","2022-10-14 09:53:02","ebf9627b049f568eb4bf28942cb89901","183.6.40.160","Mozilla/5.0 (Windows NT 10.0; Win64; x64) AppleWebKit/537.36 (KHTML, like Gecko) Chrome/106.0.0.0 Safari/537.36 Edg/106.0.1370.42","WebKit","Edge","106.0.1370.42","Windows","10.0","null","<div style=""font-size:60px;"">+</div>","null",""
"","","","","","html-button-response","119","1191491","0.0-4.0-1.57","290","1","2022-10-14 09:53:02","ebf9627b049f568eb4bf28942cb89901","183.6.40.160","Mozilla/5.0 (Windows NT 10.0; Win64; x64) AppleWebKit/537.36 (KHTML, like Gecko) Chrome/106.0.0.0 Safari/537.36 Edg/106.0.1370.42","WebKit","Edge","106.0.1370.42","Windows","10.0","721","<p>作为军队的指挥官，你可以选择发射导弹杀死 <strong>6名</strong> 敌国士兵，但会炸毁附近的 <strong>1棵</strong> 敌国树木。</p> <p>树木的照片如下图所示。</p> <p></p> <img src='stimuli/trees/2.png', style='max-width: 30%;'> </img> <p><strong>你是否选择发射武器？</strong></p>","0",""
"","","","","","html-keyboard-response","120","1192504","0.0-4.0-0.58","290","1","2022-10-14 09:53:02","ebf9627b049f568eb4bf28942cb89901","183.6.40.160","Mozilla/5.0 (Windows NT 10.0; Win64; x64) AppleWebKit/537.36 (KHTML, like Gecko) Chrome/106.0.0.0 Safari/537.36 Edg/106.0.1370.42","WebKit","Edge","106.0.1370.42","Windows","10.0","null","<div style=""font-size:60px;"">+</div>","null",""
"","","","","","html-button-response","121","1193339","0.0-4.0-1.58","290","1","2022-10-14 09:53:02","ebf9627b049f568eb4bf28942cb89901","183.6.40.160","Mozilla/5.0 (Windows NT 10.0; Win64; x64) AppleWebKit/537.36 (KHTML, like Gecko) Chrome/106.0.0.0 Safari/537.36 Edg/106.0.1370.42","WebKit","Edge","106.0.1370.42","Windows","10.0","832","<p>作为军队的指挥官，你可以选择发射导弹杀死 <strong>6名</strong> 敌国士兵，但会误杀附近的 <strong>1名</strong> 敌国平民。</p> <p>平民照片如下图所示。</p> <p></p> <img src='stimuli/faces/NFF2.jpg', style='max-width: 30%;'> </img> <p><strong>你是否选择发射武器？</strong></p>","1",""
"","","","","","html-keyboard-response","122","1194347","0.0-4.0-0.59","290","1","2022-10-14 09:53:02","ebf9627b049f568eb4bf28942cb89901","183.6.40.160","Mozilla/5.0 (Windows NT 10.0; Win64; x64) AppleWebKit/537.36 (KHTML, like Gecko) Chrome/106.0.0.0 Safari/537.36 Edg/106.0.1370.42","WebKit","Edge","106.0.1370.42","Windows","10.0","null","<div style=""font-size:60px;"">+</div>","null",""
"","","","","","html-button-response","123","1199635","0.0-4.0-1.59","290","1","2022-10-14 09:53:02","ebf9627b049f568eb4bf28942cb89901","183.6.40.160","Mozilla/5.0 (Windows NT 10.0; Win64; x64) AppleWebKit/537.36 (KHTML, like Gecko) Chrome/106.0.0.0 Safari/537.36 Edg/106.0.1370.42","WebKit","Edge","106.0.1370.42","Windows","10.0","5285","<p>作为军队的指挥官，你可以选择发射导弹杀死 <strong>10名</strong> 敌国士兵，但会炸毁附近的 <strong>1棵</strong> 敌国树木。</p> <p>树木的照片如下图所示。</p> <p></p> <img src='stimuli/trees/9.png', style='max-width: 30%;'> </img> <p><strong>你是否选择发射武器？</strong></p>","0",""
"","","","","","html-keyboard-response","124","1200639","0.0-4.0-0.60","290","1","2022-10-14 09:53:02","ebf9627b049f568eb4bf28942cb89901","183.6.40.160","Mozilla/5.0 (Windows NT 10.0; Win64; x64) AppleWebKit/537.36 (KHTML, like Gecko) Chrome/106.0.0.0 Safari/537.36 Edg/106.0.1370.42","WebKit","Edge","106.0.1370.42","Windows","10.0","null","<div style=""font-size:60px;"">+</div>","null",""
"","","","","","html-button-response","125","1201723","0.0-4.0-1.60","290","1","2022-10-14 09:53:02","ebf9627b049f568eb4bf28942cb89901","183.6.40.160","Mozilla/5.0 (Windows NT 10.0; Win64; x64) AppleWebKit/537.36 (KHTML, like Gecko) Chrome/106.0.0.0 Safari/537.36 Edg/106.0.1370.42","WebKit","Edge","106.0.1370.42","Windows","10.0","1081","<p>作为军队的指挥官，你可以选择发射导弹杀死 <strong>1名</strong> 敌国士兵，但会误杀附近的 <strong>1名</strong> 敌国平民。</p> <p>平民照片如下图所示。</p> <p></p> <img src='stimuli/faces/NFF6.jpg', style='max-width: 30%;'> </img> <p><strong>你是否选择发射武器？</strong></p>","1",""
"","","","","","html-keyboard-response","126","1202739","0.0-4.0-0.61","290","1","2022-10-14 09:53:02","ebf9627b049f568eb4bf28942cb89901","183.6.40.160","Mozilla/5.0 (Windows NT 10.0; Win64; x64) AppleWebKit/537.36 (KHTML, like Gecko) Chrome/106.0.0.0 Safari/537.36 Edg/106.0.1370.42","WebKit","Edge","106.0.1370.42","Windows","10.0","null","<div style=""font-size:60px;"">+</div>","null",""
"","","","","","html-button-response","127","1203396","0.0-4.0-1.61","290","1","2022-10-14 09:53:02","ebf9627b049f568eb4bf28942cb89901","183.6.40.160","Mozilla/5.0 (Windows NT 10.0; Win64; x64) AppleWebKit/537.36 (KHTML, like Gecko) Chrome/106.0.0.0 Safari/537.36 Edg/106.0.1370.42","WebKit","Edge","106.0.1370.42","Windows","10.0","653","<p>作为军队的指挥官，你可以选择发射导弹杀死 <strong>8名</strong> 敌国士兵，但会误杀附近的 <strong>1名</strong> 敌国平民。</p> <p>平民照片如下图所示。</p> <p></p> <img src='stimuli/faces/NFF8.jpg', style='max-width: 30%;'> </img> <p><strong>你是否选择发射武器？</strong></p>","1",""
"","","","","","html-keyboard-response","128","1204408","0.0-4.0-0.62","290","1","2022-10-14 09:53:02","ebf9627b049f568eb4bf28942cb89901","183.6.40.160","Mozilla/5.0 (Windows NT 10.0; Win64; x64) AppleWebKit/537.36 (KHTML, like Gecko) Chrome/106.0.0.0 Safari/537.36 Edg/106.0.1370.42","WebKit","Edge","106.0.1370.42","Windows","10.0","null","<div style=""font-size:60px;"">+</div>","null",""
"","","","","","html-button-response","129","1205059","0.0-4.0-1.62","290","1","2022-10-14 09:53:02","ebf9627b049f568eb4bf28942cb89901","183.6.40.160","Mozilla/5.0 (Windows NT 10.0; Win64; x64) AppleWebKit/537.36 (KHTML, like Gecko) Chrome/106.0.0.0 Safari/537.36 Edg/106.0.1370.42","WebKit","Edge","106.0.1370.42","Windows","10.0","649","<p>作为军队的指挥官，你可以选择发射导弹杀死 <strong>10名</strong> 敌国士兵，但会误杀附近的 <strong>1名</strong> 敌国平民。</p> <p>平民照片如下图所示。</p> <p></p> <img src='stimuli/faces/NFM1.jpg', style='max-width: 30%;'> </img> <p><strong>你是否选择发射武器？</strong></p>","1",""
"","","","","","html-keyboard-response","130","1206077","0.0-4.0-0.63","290","1","2022-10-14 09:53:02","ebf9627b049f568eb4bf28942cb89901","183.6.40.160","Mozilla/5.0 (Windows NT 10.0; Win64; x64) AppleWebKit/537.36 (KHTML, like Gecko) Chrome/106.0.0.0 Safari/537.36 Edg/106.0.1370.42","WebKit","Edge","106.0.1370.42","Windows","10.0","null","<div style=""font-size:60px;"">+</div>","null",""
"","","","","","html-button-response","131","1206676","0.0-4.0-1.63","290","1","2022-10-14 09:53:02","ebf9627b049f568eb4bf28942cb89901","183.6.40.160","Mozilla/5.0 (Windows NT 10.0; Win64; x64) AppleWebKit/537.36 (KHTML, like Gecko) Chrome/106.0.0.0 Safari/537.36 Edg/106.0.1370.42","WebKit","Edge","106.0.1370.42","Windows","10.0","595","<p>作为军队的指挥官，你可以选择发射导弹杀死 <strong>3名</strong> 敌国士兵，但会误杀附近的 <strong>1名</strong> 敌国平民。</p> <p>平民照片如下图所示。</p> <p></p> <img src='stimuli/faces/NFF3.jpg', style='max-width: 30%;'> </img> <p><strong>你是否选择发射武器？</strong></p>","1",""
"","","","","","survey-multi-choice","132","1213381","0.0-5.0","290","1","2022-10-14 09:53:02","ebf9627b049f568eb4bf28942cb89901","183.6.40.160","Mozilla/5.0 (Windows NT 10.0; Win64; x64) AppleWebKit/537.36 (KHTML, like Gecko) Chrome/106.0.0.0 Safari/537.36 Edg/106.0.1370.42","WebKit","Edge","106.0.1370.42","Windows","10.0","6700","","{""Attention1"":""""}","[0]"
"","","","","","html-button-response","133","1214357","0.0-6.0","290","1","2022-10-14 09:53:02","ebf9627b049f568eb4bf28942cb89901","183.6.40.160","Mozilla/5.0 (Windows NT 10.0; Win64; x64) AppleWebKit/537.36 (KHTML, like Gecko) Chrome/106.0.0.0 Safari/537.36 Edg/106.0.1370.42","WebKit","Edge","106.0.1370.42","Windows","10.0","969","<p style=""font-size:20px;font-weight:bold;"">恭喜！</p><p>你已经完成了实验的第一部分。</p><p>请休息放松一下，然后进入第二部分。</p><p>这部分大约需要10分钟。</p>","0",""
"","","","","","survey-text","134","1416148","0.0-7.0","290","1","2022-10-14 09:53:02","ebf9627b049f568eb4bf28942cb89901","183.6.40.160","Mozilla/5.0 (Windows NT 10.0; Win64; x64) AppleWebKit/537.36 (KHTML, like Gecko) Chrome/106.0.0.0 Safari/537.36 Edg/106.0.1370.42","WebKit","Edge","106.0.1370.42","Windows","10.0","200777","","{""Age"":""26"",""Nation"":""中国"",""Born"":""广西自治区"",""Live"":""贵州省贵阳市"",""Ethnic"":""侗族"",""Alipay"":""14739989570""}",""
"","","","","","survey-multi-choice","135","1429108","0.0-8.0","290","1","2022-10-14 09:53:02","ebf9627b049f568eb4bf28942cb89901","183.6.40.160","Mozilla/5.0 (Windows NT 10.0; Win64; x64) AppleWebKit/537.36 (KHTML, like Gecko) Chrome/106.0.0.0 Safari/537.36 Edg/106.0.1370.42","WebKit","Edge","106.0.1370.42","Windows","10.0","12952","","{""Gender"":""女"",""Education"":""硕士研究生毕业"",""Income"":""￥140,000-￥269,999"",""Children"":""1"",""Race"":""亚洲人""}","[0,1,2,3,4]"
"","","","","","survey-multi-select","136","1435029","0.0-9.0","290","1","2022-10-14 09:53:02","ebf9627b049f568eb4bf28942cb89901","183.6.40.160","Mozilla/5.0 (Windows NT 10.0; Win64; x64) AppleWebKit/537.36 (KHTML, like Gecko) Chrome/106.0.0.0 Safari/537.36 Edg/106.0.1370.42","WebKit","Edge","106.0.1370.42","Windows","10.0","5909","","{""Marriage"":[""已婚""],""Religion"":[""无宗教信仰""]}","[0,1]"
"","","","","","survey-multi-choice","137","1439308","0.0-10.0","290","1","2022-10-14 09:53:02","ebf9627b049f568eb4bf28942cb89901","183.6.40.160","Mozilla/5.0 (Windows NT 10.0; Win64; x64) AppleWebKit/537.36 (KHTML, like Gecko) Chrome/106.0.0.0 Safari/537.36 Edg/106.0.1370.42","WebKit","Edge","106.0.1370.42","Windows","10.0","4272","","{""SES"":""6""}","[0]"
"","","","","","html-button-response","138","1440812","0.0-11.0","290","1","2022-10-14 09:53:02","ebf9627b049f568eb4bf28942cb89901","183.6.40.160","Mozilla/5.0 (Windows NT 10.0; Win64; x64) AppleWebKit/537.36 (KHTML, like Gecko) Chrome/106.0.0.0 Safari/537.36 Edg/106.0.1370.42","WebKit","Edge","106.0.1370.42","Windows","10.0","1497","<p><strong>请判断下列陈述在多大程度上可以形容你？</p><p> (1 = ""和我一点都不像"" to 5 = ""非常像我"".)</strong></p>","0",""
"","","","","","survey-likert","139","1461717","0.0-12.0","290","1","2022-10-14 09:53:02","ebf9627b049f568eb4bf28942cb89901","183.6.40.160","Mozilla/5.0 (Windows NT 10.0; Win64; x64) AppleWebKit/537.36 (KHTML, like Gecko) Chrome/106.0.0.0 Safari/537.36 Edg/106.0.1370.42","WebKit","Edge","106.0.1370.42","Windows","10.0","20899","","{""Aggression1"":0,""Aggression2"":0,""Aggression3"":1,""Aggression4"":0,""Aggression5"":1,""Aggression6"":0,""Aggression7"":4,""Aggression8"":0,""Aggression9"":0}","[0,1,2,3,4,5,6,7,8]"
"","","","","","html-button-response","140","1462596","0.0-13.0","290","1","2022-10-14 09:53:02","ebf9627b049f568eb4bf28942cb89901","183.6.40.160","Mozilla/5.0 (Windows NT 10.0; Win64; x64) AppleWebKit/537.36 (KHTML, like Gecko) Chrome/106.0.0.0 Safari/537.36 Edg/106.0.1370.42","WebKit","Edge","106.0.1370.42","Windows","10.0","874","<p><strong>请判断你在多大程度上同意下列陈述。</strong></p>","0",""
"","","","","","survey-likert","141","1563094","0.0-14.0","290","1","2022-10-14 09:53:02","ebf9627b049f568eb4bf28942cb89901","183.6.40.160","Mozilla/5.0 (Windows NT 10.0; Win64; x64) AppleWebKit/537.36 (KHTML, like Gecko) Chrome/106.0.0.0 Safari/537.36 Edg/106.0.1370.42","WebKit","Edge","106.0.1370.42","Windows","10.0","100492","","{""scale25"":3,""scale15"":1,""scale10"":1,""scale23"":3,""scale7"":2,""scale19"":2,""scale26"":3,""scale20"":2,""scale22"":2,""scale1"":1,""scale17"":2,""scale11"":3,""scale5"":3,""scale8"":3,""scale2"":2,""scale28"":2,""scale16"":3,""scale9"":3,""scale18"":0,""scale24"":1,""scale4"":1,""scale21"":2,""scale14"":1,""scale13"":2,""scale3"":3,""scale6"":2,""scale27"":1,""scale12"":3}","[24,14,9,22,6,18,25,19,21,0,16,10,4,7,1,27,15,8,17,23,3,20,13,12,2,5,26,11]"
"","","","","","html-button-response","142","1564211","0.0-15.0","290","1","2022-10-14 09:53:02","ebf9627b049f568eb4bf28942cb89901","183.6.40.160","Mozilla/5.0 (Windows NT 10.0; Win64; x64) AppleWebKit/537.36 (KHTML, like Gecko) Chrome/106.0.0.0 Safari/537.36 Edg/106.0.1370.42","WebKit","Edge","106.0.1370.42","Windows","10.0","1110","<p><strong>请判断你在多大程度上同意下列陈述。</strong></p>","0",""
"","","","","","survey-likert","143","1615334","0.0-16.0","290","1","2022-10-14 09:53:02","ebf9627b049f568eb4bf28942cb89901","183.6.40.160","Mozilla/5.0 (Windows NT 10.0; Win64; x64) AppleWebKit/537.36 (KHTML, like Gecko) Chrome/106.0.0.0 Safari/537.36 Edg/106.0.1370.42","WebKit","Edge","106.0.1370.42","Windows","10.0","51117","","{""sdo7"":3,""sdo4"":4,""sdo9"":4,""sdo13"":6,""sdo16"":5,""sdo14"":5,""sdo6"":3,""sdo5"":5,""sdo15"":4,""sdo8"":5,""sdo10"":5,""sdo12"":4,""sdo11"":4,""sdo3"":4,""sdo1"":4,""sdo2"":1}","[6,3,8,12,15,13,5,4,14,7,9,11,10,2,0,1]"
"","","","","","html-button-response","144","1616748","0.0-17.0","290","1","2022-10-14 09:53:02","ebf9627b049f568eb4bf28942cb89901","183.6.40.160","Mozilla/5.0 (Windows NT 10.0; Win64; x64) AppleWebKit/537.36 (KHTML, like Gecko) Chrome/106.0.0.0 Safari/537.36 Edg/106.0.1370.42","WebKit","Edge","106.0.1370.42","Windows","10.0","1407","<p><strong>请判断你在多大程度上同意下列陈述。</strong></p>","0",""
"","","","","","survey-likert","145","1658517","0.0-18.0","290","1","2022-10-14 09:53:02","ebf9627b049f568eb4bf28942cb89901","183.6.40.160","Mozilla/5.0 (Windows NT 10.0; Win64; x64) AppleWebKit/537.36 (KHTML, like Gecko) Chrome/106.0.0.0 Safari/537.36 Edg/106.0.1370.42","WebKit","Edge","106.0.1370.42","Windows","10.0","41764","","{""caring1"":3,""liking1"":1,""caring2"":3,""protection1"":2,""liking2"":1,""caring3"":3,""protection2"":2,""liking3"":1,""protection3"":3,""caring4"":3,""liking4"":1,""protection4"":3,""caring5"":1,""liking5"":1,""protection5"":2}","[0,1,2,3,4,5,6,7,8,9,10,11,12,13,14]"
"","","","","","html-button-response","146","1659597","0.0-19.0","290","1","2022-10-14 09:53:02","ebf9627b049f568eb4bf28942cb89901","183.6.40.160","Mozilla/5.0 (Windows NT 10.0; Win64; x64) AppleWebKit/537.36 (KHTML, like Gecko) Chrome/106.0.0.0 Safari/537.36 Edg/106.0.1370.42","WebKit","Edge","106.0.1370.42","Windows","10.0","1072","<p><strong>请判断下列场景中你的内心感受有多柔软。</strong></p>","0",""
"","","","","","survey-likert","147","1682621","0.0-20.0","290","1","2022-10-14 09:53:02","ebf9627b049f568eb4bf28942cb89901","183.6.40.160","Mozilla/5.0 (Windows NT 10.0; Win64; x64) AppleWebKit/537.36 (KHTML, like Gecko) Chrome/106.0.0.0 Safari/537.36 Edg/106.0.1370.42","WebKit","Edge","106.0.1370.42","Windows","10.0","23020","","{""tenderness-positive1"":4,""tenderness-negative1"":2,""tenderness-negative2"":2,""tenderness-positive2"":4,""tenderness-positive3"":4,""tenderness-negative3"":2,""tenderness-positive4"":3,""tendereness-negative4"":3,""tendernness-negative5"":3,""tenderness-positive5"":3}","[0,1,2,3,4,5,6,7,8,9]"
"","","","","","survey-multi-choice","148","1687444","0.0-21.0","290","1","2022-10-14 09:53:02","ebf9627b049f568eb4bf28942cb89901","183.6.40.160","Mozilla/5.0 (Windows NT 10.0; Win64; x64) AppleWebKit/537.36 (KHTML, like Gecko) Chrome/106.0.0.0 Safari/537.36 Edg/106.0.1370.42","WebKit","Edge","106.0.1370.42","Windows","10.0","4817","","{""Attention2"":""其他""}","[0]"
"","","","","","html-button-response","149","1688780","0.0-22.0","290","1","2022-10-14 09:53:02","ebf9627b049f568eb4bf28942cb89901","183.6.40.160","Mozilla/5.0 (Windows NT 10.0; Win64; x64) AppleWebKit/537.36 (KHTML, like Gecko) Chrome/106.0.0.0 Safari/537.36 Edg/106.0.1370.42","WebKit","Edge","106.0.1370.42","Windows","10.0","1329","<p><strong>请判断你在多大程度上同意下列陈述。</strong></p>","0",""
"","","","","","survey-likert","150","1777149","0.0-23.0","290","1","2022-10-14 09:53:02","ebf9627b049f568eb4bf28942cb89901","183.6.40.160","Mozilla/5.0 (Windows NT 10.0; Win64; x64) AppleWebKit/537.36 (KHTML, like Gecko) Chrome/106.0.0.0 Safari/537.36 Edg/106.0.1370.42","WebKit","Edge","106.0.1370.42","Windows","10.0","88363","","{""Nation6"":4,""Nation3"":1,""Patri7"":4,""Nation7"":3,""Nation4"":3,""Nation2"":4,""Nation5"":3,""Patri3"":3,""Patri11"":1,""Patri1"":3,""Patri12"":1,""Patri4"":4,""Patri8"":3,""Nation1"":3,""Nation8"":1,""Patri9"":0,""Patri10"":0,""Patri6"":0,""Patri2"":3,""Patri5"":4}","[17,14,6,18,15,13,16,2,10,0,11,3,7,12,19,8,9,5,1,4]"
"","","","","","html-button-response","151","1778252","0.0-24.0","290","1","2022-10-14 09:53:02","ebf9627b049f568eb4bf28942cb89901","183.6.40.160","Mozilla/5.0 (Windows NT 10.0; Win64; x64) AppleWebKit/537.36 (KHTML, like Gecko) Chrome/106.0.0.0 Safari/537.36 Edg/106.0.1370.42","WebKit","Edge","106.0.1370.42","Windows","10.0","1097","<p><strong>请判断你在多大程度上同意下列陈述。</strong></p>","0",""
"","","","","","survey-likert","152","1829798","0.0-25.0","290","1","2022-10-14 09:53:02","ebf9627b049f568eb4bf28942cb89901","183.6.40.160","Mozilla/5.0 (Windows NT 10.0; Win64; x64) AppleWebKit/537.36 (KHTML, like Gecko) Chrome/106.0.0.0 Safari/537.36 Edg/106.0.1370.42","WebKit","Edge","106.0.1370.42","Windows","10.0","51541","","{""Robot"":6,""hi2"":4,""vi3"":7,""hc2"":8,""vi2"":7,""vi1"":6,""vc3"":8,""hi3"":4,""vc2"":7,""vi4"":5,""hc1"":7,""hi1"":3,""hi4"":5,""vc1"":8,""hc4"":7,""hc3"":7,""vc4"":7}","[7,1,6,10,5,4,15,2,14,8,9,0,3,13,12,11,16]"
"","","","","","survey-text","153","1842860","0.0-26.0","290","1","2022-10-14 09:53:02","ebf9627b049f568eb4bf28942cb89901","183.6.40.160","Mozilla/5.0 (Windows NT 10.0; Win64; x64) AppleWebKit/537.36 (KHTML, like Gecko) Chrome/106.0.0.0 Safari/537.36 Edg/106.0.1370.42","WebKit","Edge","106.0.1370.42","Windows","10.0","13041","","{""Comments"":""暂时没有""}",""
"","","","","","html-button-response","154","1844019","0.0-27.0","290","1","2022-10-14 09:53:02","ebf9627b049f568eb4bf28942cb89901","183.6.40.160","Mozilla/5.0 (Windows NT 10.0; Win64; x64) AppleWebKit/537.36 (KHTML, like Gecko) Chrome/106.0.0.0 Safari/537.36 Edg/106.0.1370.42","WebKit","Edge","106.0.1370.42","Windows","10.0","1156","<strong><p>恭喜你完成了实验！</p><p>感谢您的参与。</p></strong>","0",""
