"success","timeout","failed_images","failed_audio","failed_video","trial_type","trial_index","time_elapsed","internal_node_id","run_id","condition","recorded_at","source_code_version","ip","user_agent","device","browser","browser_version","platform","platform_version","rt","stimulus","response","question_order"
"true","false","[]","[]","[]","preload","0","8172","0.0-0.0","33","1","2022-10-07 08:09:04","ebf9627b049f568eb4bf28942cb89901","112.224.161.85","Mozilla/5.0 (Windows; U; Windows NT 5.1; en-US) AppleWebKit/534.20 (KHTML, like Gecko) Chrome/11.0.672.0 Safari/534.20 QBWebViewUA/2 QBWebViewType/1 WKType/1","WebKit","Chrome","11.0.672.0","Windows","5.1","","","",""
"true","","","","","fullscreen","1","11095","0.0-1.0","33","1","2022-10-07 08:09:04","ebf9627b049f568eb4bf28942cb89901","112.224.161.85","Mozilla/5.0 (Windows; U; Windows NT 5.1; en-US) AppleWebKit/534.20 (KHTML, like Gecko) Chrome/11.0.672.0 Safari/534.20 QBWebViewUA/2 QBWebViewType/1 WKType/1","WebKit","Chrome","11.0.672.0","Windows","5.1","","","",""
"","","","","","html-button-response","2","22346","0.0-2.0","33","1","2022-10-07 08:09:04","ebf9627b049f568eb4bf28942cb89901","112.224.161.85","Mozilla/5.0 (Windows; U; Windows NT 5.1; en-US) AppleWebKit/534.20 (KHTML, like Gecko) Chrome/11.0.672.0 Safari/534.20 QBWebViewUA/2 QBWebViewType/1 WKType/1","WebKit","Chrome","11.0.672.0","Windows","5.1","11248","<p style=""font-size:20px;font-weight:bold;"">实验知情同意书</p><p style=""text-align:left;""><strong>实验名称：</strong>社会冲突研究</p><p style=""text-align:left;""><strong>主要研究者：</strong>韩晓春副教授（北京师范大学心理学部）</p><p style=""text-align:left;""><strong>联系方式：</strong>发送邮件至xiaochun.han@bnu.edu.cn</p><p style=""text-align:left;""><strong>研究目的：</strong>研究旨在了解人类面对群体冲突时的决策方式，以及相关的心理学特质。实验调查大约需要20分钟。</p><p style=""text-align:left;""><strong>实验流程：</strong>实验包含两部分。第一部分呈现一系列群体冲突场景，请你决定如何对这些冲突进行反应，大约需要10分钟完成。第二部分包含一系列人口统计学信息收集和心理学问卷，大约需要10分钟完成。</p><p style=""text-align:left;""><strong>参加及退出规则：</strong>参加本实验完全取决于您的个人意愿。在参与过程中，您可以随时退出，并且不用承担任何后果。</p><p style=""text-align:left;""><strong>隐私：</strong>本实验完全匿名进行，不会收集您的姓名或其他能够识别您身份的信息。实验中收集的作答仅用作科学研究使用，可能会在学术期刊/书籍上发表，或者用于教学，您的数据未来可能会和其他研究者或实验室分享，但您的个人身份不会被识别。</p><p style=""text-align:left;""><strong>实验报酬：</strong>实验完成后，您将获得15元人民币报酬，以感谢您的时间和努力。调查问卷中包含几道题目用以测验您作答时的认真度。只有完成全部实验，并且正确回答认真度测验的被试才能获得实验报酬。实验报酬将通过支付宝转账发放。</p><p style=""text-align:left;font-size:20px;""><strong>如果您同意以上实验知情同意书的内容，请点击'同意并且开始实验'按钮；否则请关闭浏览器界面，退出实验。</strong></p>","0",""
"","","","","","html-button-response","3","35225","0.0-3.0","33","1","2022-10-07 08:09:04","ebf9627b049f568eb4bf28942cb89901","112.224.161.85","Mozilla/5.0 (Windows; U; Windows NT 5.1; en-US) AppleWebKit/534.20 (KHTML, like Gecko) Chrome/11.0.672.0 Safari/534.20 QBWebViewUA/2 QBWebViewType/1 WKType/1","WebKit","Chrome","11.0.672.0","Windows","5.1","12875","<p ><strong>实验任务一：</strong></p><p>请想象你的国家与另一个国家发生了军事冲突。</p><p>你是国家军队的指挥官，你将如何在冲突中进行决策。</p><p>具体来说，作为军队指挥官，请你决定是否发射导弹进行打击。</p><p>接下来，你会面对一系列场景，请仔细阅读每个场景，然后进行决策。</p><p>这部分实验任务大约需要10分钟。</p><p><strong>实验过程中，请集中注意力。</strong></p>","0",""
"","","","","","html-keyboard-response","4","36230","0.0-4.0-0.0","33","1","2022-10-07 08:09:04","ebf9627b049f568eb4bf28942cb89901","112.224.161.85","Mozilla/5.0 (Windows; U; Windows NT 5.1; en-US) AppleWebKit/534.20 (KHTML, like Gecko) Chrome/11.0.672.0 Safari/534.20 QBWebViewUA/2 QBWebViewType/1 WKType/1","WebKit","Chrome","11.0.672.0","Windows","5.1","null","<div style=""font-size:60px;"">+</div>","null",""
"","","","","","html-button-response","5","42728","0.0-4.0-1.0","33","1","2022-10-07 08:09:04","ebf9627b049f568eb4bf28942cb89901","112.224.161.85","Mozilla/5.0 (Windows; U; Windows NT 5.1; en-US) AppleWebKit/534.20 (KHTML, like Gecko) Chrome/11.0.672.0 Safari/534.20 QBWebViewUA/2 QBWebViewType/1 WKType/1","WebKit","Chrome","11.0.672.0","Windows","5.1","6487","<p>作为军队的指挥官，你可以选择发射导弹杀死 <strong>9名</strong> 敌国士兵，但会误杀附近的 <strong>1名</strong> 敌国平民。</p> <p>平民照片如下图所示。</p> <p></p> <img src='stimuli/faces/NFF6.jpg', style='max-width: 30%;'> </img> <p><strong>你是否选择发射武器？</strong></p>","1",""
"","","","","","html-keyboard-response","6","43732","0.0-4.0-0.1","33","1","2022-10-07 08:09:04","ebf9627b049f568eb4bf28942cb89901","112.224.161.85","Mozilla/5.0 (Windows; U; Windows NT 5.1; en-US) AppleWebKit/534.20 (KHTML, like Gecko) Chrome/11.0.672.0 Safari/534.20 QBWebViewUA/2 QBWebViewType/1 WKType/1","WebKit","Chrome","11.0.672.0","Windows","5.1","null","<div style=""font-size:60px;"">+</div>","null",""
"","","","","","html-button-response","7","46422","0.0-4.0-1.1","33","1","2022-10-07 08:09:04","ebf9627b049f568eb4bf28942cb89901","112.224.161.85","Mozilla/5.0 (Windows; U; Windows NT 5.1; en-US) AppleWebKit/534.20 (KHTML, like Gecko) Chrome/11.0.672.0 Safari/534.20 QBWebViewUA/2 QBWebViewType/1 WKType/1","WebKit","Chrome","11.0.672.0","Windows","5.1","2680","<p>作为军队的指挥官，你可以选择发射导弹杀死 <strong>7名</strong> 敌国士兵，但会炸毁附近的 <strong>1棵</strong> 敌国树木。</p> <p>树木的照片如下图所示。</p> <p></p> <img src='stimuli/trees/4.png', style='max-width: 30%;'> </img> <p><strong>你是否选择发射武器？</strong></p>","0",""
"","","","","","html-keyboard-response","8","47426","0.0-4.0-0.2","33","1","2022-10-07 08:09:04","ebf9627b049f568eb4bf28942cb89901","112.224.161.85","Mozilla/5.0 (Windows; U; Windows NT 5.1; en-US) AppleWebKit/534.20 (KHTML, like Gecko) Chrome/11.0.672.0 Safari/534.20 QBWebViewUA/2 QBWebViewType/1 WKType/1","WebKit","Chrome","11.0.672.0","Windows","5.1","null","<div style=""font-size:60px;"">+</div>","null",""
"","","","","","html-button-response","9","53620","0.0-4.0-1.2","33","1","2022-10-07 08:09:04","ebf9627b049f568eb4bf28942cb89901","112.224.161.85","Mozilla/5.0 (Windows; U; Windows NT 5.1; en-US) AppleWebKit/534.20 (KHTML, like Gecko) Chrome/11.0.672.0 Safari/534.20 QBWebViewUA/2 QBWebViewType/1 WKType/1","WebKit","Chrome","11.0.672.0","Windows","5.1","6184","<p>作为军队的指挥官，你可以选择发射导弹杀死 <strong>1名</strong> 敌国士兵，但会炸毁附近的 <strong>1棵</strong> 敌国树木。</p> <p>树木的照片如下图所示。</p> <p></p> <img src='stimuli/trees/4.png', style='max-width: 30%;'> </img> <p><strong>你是否选择发射武器？</strong></p>","0",""
"","","","","","html-keyboard-response","10","54624","0.0-4.0-0.3","33","1","2022-10-07 08:09:04","ebf9627b049f568eb4bf28942cb89901","112.224.161.85","Mozilla/5.0 (Windows; U; Windows NT 5.1; en-US) AppleWebKit/534.20 (KHTML, like Gecko) Chrome/11.0.672.0 Safari/534.20 QBWebViewUA/2 QBWebViewType/1 WKType/1","WebKit","Chrome","11.0.672.0","Windows","5.1","null","<div style=""font-size:60px;"">+</div>","null",""
"","","","","","html-button-response","11","57430","0.0-4.0-1.3","33","1","2022-10-07 08:09:04","ebf9627b049f568eb4bf28942cb89901","112.224.161.85","Mozilla/5.0 (Windows; U; Windows NT 5.1; en-US) AppleWebKit/534.20 (KHTML, like Gecko) Chrome/11.0.672.0 Safari/534.20 QBWebViewUA/2 QBWebViewType/1 WKType/1","WebKit","Chrome","11.0.672.0","Windows","5.1","2796","<p>作为军队的指挥官，你可以选择发射导弹杀死 <strong>10名</strong> 敌国士兵，但会误杀附近的 <strong>1名</strong> 敌国平民。</p> <p>平民照片如下图所示。</p> <p></p> <img src='stimuli/faces/NFM8.jpg', style='max-width: 30%;'> </img> <p><strong>你是否选择发射武器？</strong></p>","0",""
"","","","","","html-keyboard-response","12","58434","0.0-4.0-0.4","33","1","2022-10-07 08:09:04","ebf9627b049f568eb4bf28942cb89901","112.224.161.85","Mozilla/5.0 (Windows; U; Windows NT 5.1; en-US) AppleWebKit/534.20 (KHTML, like Gecko) Chrome/11.0.672.0 Safari/534.20 QBWebViewUA/2 QBWebViewType/1 WKType/1","WebKit","Chrome","11.0.672.0","Windows","5.1","null","<div style=""font-size:60px;"">+</div>","null",""
"","","","","","html-button-response","13","61322","0.0-4.0-1.4","33","1","2022-10-07 08:09:04","ebf9627b049f568eb4bf28942cb89901","112.224.161.85","Mozilla/5.0 (Windows; U; Windows NT 5.1; en-US) AppleWebKit/534.20 (KHTML, like Gecko) Chrome/11.0.672.0 Safari/534.20 QBWebViewUA/2 QBWebViewType/1 WKType/1","WebKit","Chrome","11.0.672.0","Windows","5.1","2878","<p>作为军队的指挥官，你可以选择发射导弹杀死 <strong>4名</strong> 敌国士兵，但会炸毁附近的 <strong>1棵</strong> 敌国树木。</p> <p>树木的照片如下图所示。</p> <p></p> <img src='stimuli/trees/16.png', style='max-width: 30%;'> </img> <p><strong>你是否选择发射武器？</strong></p>","0",""
"","","","","","html-keyboard-response","14","62326","0.0-4.0-0.5","33","1","2022-10-07 08:09:04","ebf9627b049f568eb4bf28942cb89901","112.224.161.85","Mozilla/5.0 (Windows; U; Windows NT 5.1; en-US) AppleWebKit/534.20 (KHTML, like Gecko) Chrome/11.0.672.0 Safari/534.20 QBWebViewUA/2 QBWebViewType/1 WKType/1","WebKit","Chrome","11.0.672.0","Windows","5.1","null","<div style=""font-size:60px;"">+</div>","null",""
"","","","","","html-button-response","15","63995","0.0-4.0-1.5","33","1","2022-10-07 08:09:04","ebf9627b049f568eb4bf28942cb89901","112.224.161.85","Mozilla/5.0 (Windows; U; Windows NT 5.1; en-US) AppleWebKit/534.20 (KHTML, like Gecko) Chrome/11.0.672.0 Safari/534.20 QBWebViewUA/2 QBWebViewType/1 WKType/1","WebKit","Chrome","11.0.672.0","Windows","5.1","1658","<p>作为军队的指挥官，你可以选择发射导弹杀死 <strong>9名</strong> 敌国士兵，但会炸毁附近的 <strong>1棵</strong> 敌国树木。</p> <p>树木的照片如下图所示。</p> <p></p> <img src='stimuli/trees/9.png', style='max-width: 30%;'> </img> <p><strong>你是否选择发射武器？</strong></p>","0",""
"","","","","","html-keyboard-response","16","64999","0.0-4.0-0.6","33","1","2022-10-07 08:09:04","ebf9627b049f568eb4bf28942cb89901","112.224.161.85","Mozilla/5.0 (Windows; U; Windows NT 5.1; en-US) AppleWebKit/534.20 (KHTML, like Gecko) Chrome/11.0.672.0 Safari/534.20 QBWebViewUA/2 QBWebViewType/1 WKType/1","WebKit","Chrome","11.0.672.0","Windows","5.1","null","<div style=""font-size:60px;"">+</div>","null",""
"","","","","","html-button-response","17","68888","0.0-4.0-1.6","33","1","2022-10-07 08:09:04","ebf9627b049f568eb4bf28942cb89901","112.224.161.85","Mozilla/5.0 (Windows; U; Windows NT 5.1; en-US) AppleWebKit/534.20 (KHTML, like Gecko) Chrome/11.0.672.0 Safari/534.20 QBWebViewUA/2 QBWebViewType/1 WKType/1","WebKit","Chrome","11.0.672.0","Windows","5.1","3879","<p>作为军队的指挥官，你可以选择发射导弹杀死 <strong>2名</strong> 敌国士兵，但会误杀附近的 <strong>1名</strong> 敌国平民。</p> <p>平民照片如下图所示。</p> <p></p> <img src='stimuli/faces/NFM6.jpg', style='max-width: 30%;'> </img> <p><strong>你是否选择发射武器？</strong></p>","0",""
"","","","","","html-keyboard-response","18","69892","0.0-4.0-0.7","33","1","2022-10-07 08:09:04","ebf9627b049f568eb4bf28942cb89901","112.224.161.85","Mozilla/5.0 (Windows; U; Windows NT 5.1; en-US) AppleWebKit/534.20 (KHTML, like Gecko) Chrome/11.0.672.0 Safari/534.20 QBWebViewUA/2 QBWebViewType/1 WKType/1","WebKit","Chrome","11.0.672.0","Windows","5.1","null","<div style=""font-size:60px;"">+</div>","null",""
"","","","","","html-button-response","19","74419","0.0-4.0-1.7","33","1","2022-10-07 08:09:04","ebf9627b049f568eb4bf28942cb89901","112.224.161.85","Mozilla/5.0 (Windows; U; Windows NT 5.1; en-US) AppleWebKit/534.20 (KHTML, like Gecko) Chrome/11.0.672.0 Safari/534.20 QBWebViewUA/2 QBWebViewType/1 WKType/1","WebKit","Chrome","11.0.672.0","Windows","5.1","4516","<p>作为军队的指挥官，你可以选择发射导弹杀死 <strong>9名</strong> 敌国士兵，但会炸毁附近的 <strong>1棵</strong> 敌国树木。</p> <p>树木的照片如下图所示。</p> <p></p> <img src='stimuli/trees/13.png', style='max-width: 30%;'> </img> <p><strong>你是否选择发射武器？</strong></p>","0",""
"","","","","","html-keyboard-response","20","75423","0.0-4.0-0.8","33","1","2022-10-07 08:09:04","ebf9627b049f568eb4bf28942cb89901","112.224.161.85","Mozilla/5.0 (Windows; U; Windows NT 5.1; en-US) AppleWebKit/534.20 (KHTML, like Gecko) Chrome/11.0.672.0 Safari/534.20 QBWebViewUA/2 QBWebViewType/1 WKType/1","WebKit","Chrome","11.0.672.0","Windows","5.1","null","<div style=""font-size:60px;"">+</div>","null",""
"","","","","","html-button-response","21","76991","0.0-4.0-1.8","33","1","2022-10-07 08:09:04","ebf9627b049f568eb4bf28942cb89901","112.224.161.85","Mozilla/5.0 (Windows; U; Windows NT 5.1; en-US) AppleWebKit/534.20 (KHTML, like Gecko) Chrome/11.0.672.0 Safari/534.20 QBWebViewUA/2 QBWebViewType/1 WKType/1","WebKit","Chrome","11.0.672.0","Windows","5.1","1561","<p>作为军队的指挥官，你可以选择发射导弹杀死 <strong>7名</strong> 敌国士兵，但会炸毁附近的 <strong>1棵</strong> 敌国树木。</p> <p>树木的照片如下图所示。</p> <p></p> <img src='stimuli/trees/10.png', style='max-width: 30%;'> </img> <p><strong>你是否选择发射武器？</strong></p>","0",""
"","","","","","html-keyboard-response","22","77995","0.0-4.0-0.9","33","1","2022-10-07 08:09:04","ebf9627b049f568eb4bf28942cb89901","112.224.161.85","Mozilla/5.0 (Windows; U; Windows NT 5.1; en-US) AppleWebKit/534.20 (KHTML, like Gecko) Chrome/11.0.672.0 Safari/534.20 QBWebViewUA/2 QBWebViewType/1 WKType/1","WebKit","Chrome","11.0.672.0","Windows","5.1","null","<div style=""font-size:60px;"">+</div>","null",""
"","","","","","html-button-response","23","80094","0.0-4.0-1.9","33","1","2022-10-07 08:09:04","ebf9627b049f568eb4bf28942cb89901","112.224.161.85","Mozilla/5.0 (Windows; U; Windows NT 5.1; en-US) AppleWebKit/534.20 (KHTML, like Gecko) Chrome/11.0.672.0 Safari/534.20 QBWebViewUA/2 QBWebViewType/1 WKType/1","WebKit","Chrome","11.0.672.0","Windows","5.1","2088","<p>作为军队的指挥官，你可以选择发射导弹杀死 <strong>3名</strong> 敌国士兵，但会炸毁附近的 <strong>1棵</strong> 敌国树木。</p> <p>树木的照片如下图所示。</p> <p></p> <img src='stimuli/trees/7.png', style='max-width: 30%;'> </img> <p><strong>你是否选择发射武器？</strong></p>","0",""
"","","","","","html-keyboard-response","24","81098","0.0-4.0-0.10","33","1","2022-10-07 08:09:04","ebf9627b049f568eb4bf28942cb89901","112.224.161.85","Mozilla/5.0 (Windows; U; Windows NT 5.1; en-US) AppleWebKit/534.20 (KHTML, like Gecko) Chrome/11.0.672.0 Safari/534.20 QBWebViewUA/2 QBWebViewType/1 WKType/1","WebKit","Chrome","11.0.672.0","Windows","5.1","null","<div style=""font-size:60px;"">+</div>","null",""
"","","","","","html-button-response","25","82838","0.0-4.0-1.10","33","1","2022-10-07 08:09:04","ebf9627b049f568eb4bf28942cb89901","112.224.161.85","Mozilla/5.0 (Windows; U; Windows NT 5.1; en-US) AppleWebKit/534.20 (KHTML, like Gecko) Chrome/11.0.672.0 Safari/534.20 QBWebViewUA/2 QBWebViewType/1 WKType/1","WebKit","Chrome","11.0.672.0","Windows","5.1","1730","<p>作为军队的指挥官，你可以选择发射导弹杀死 <strong>1名</strong> 敌国士兵，但会炸毁附近的 <strong>1棵</strong> 敌国树木。</p> <p>树木的照片如下图所示。</p> <p></p> <img src='stimuli/trees/12.png', style='max-width: 30%;'> </img> <p><strong>你是否选择发射武器？</strong></p>","0",""
"","","","","","html-keyboard-response","26","83843","0.0-4.0-0.11","33","1","2022-10-07 08:09:04","ebf9627b049f568eb4bf28942cb89901","112.224.161.85","Mozilla/5.0 (Windows; U; Windows NT 5.1; en-US) AppleWebKit/534.20 (KHTML, like Gecko) Chrome/11.0.672.0 Safari/534.20 QBWebViewUA/2 QBWebViewType/1 WKType/1","WebKit","Chrome","11.0.672.0","Windows","5.1","null","<div style=""font-size:60px;"">+</div>","null",""
"","","","","","html-button-response","27","85677","0.0-4.0-1.11","33","1","2022-10-07 08:09:04","ebf9627b049f568eb4bf28942cb89901","112.224.161.85","Mozilla/5.0 (Windows; U; Windows NT 5.1; en-US) AppleWebKit/534.20 (KHTML, like Gecko) Chrome/11.0.672.0 Safari/534.20 QBWebViewUA/2 QBWebViewType/1 WKType/1","WebKit","Chrome","11.0.672.0","Windows","5.1","1825","<p>作为军队的指挥官，你可以选择发射导弹杀死 <strong>5名</strong> 敌国士兵，但会误杀附近的 <strong>1名</strong> 敌国平民。</p> <p>平民照片如下图所示。</p> <p></p> <img src='stimuli/faces/NFM3.jpg', style='max-width: 30%;'> </img> <p><strong>你是否选择发射武器？</strong></p>","1",""
"","","","","","html-keyboard-response","28","86681","0.0-4.0-0.12","33","1","2022-10-07 08:09:04","ebf9627b049f568eb4bf28942cb89901","112.224.161.85","Mozilla/5.0 (Windows; U; Windows NT 5.1; en-US) AppleWebKit/534.20 (KHTML, like Gecko) Chrome/11.0.672.0 Safari/534.20 QBWebViewUA/2 QBWebViewType/1 WKType/1","WebKit","Chrome","11.0.672.0","Windows","5.1","null","<div style=""font-size:60px;"">+</div>","null",""
"","","","","","html-button-response","29","89051","0.0-4.0-1.12","33","1","2022-10-07 08:09:04","ebf9627b049f568eb4bf28942cb89901","112.224.161.85","Mozilla/5.0 (Windows; U; Windows NT 5.1; en-US) AppleWebKit/534.20 (KHTML, like Gecko) Chrome/11.0.672.0 Safari/534.20 QBWebViewUA/2 QBWebViewType/1 WKType/1","WebKit","Chrome","11.0.672.0","Windows","5.1","2360","<p>作为军队的指挥官，你可以选择发射导弹杀死 <strong>10名</strong> 敌国士兵，但会炸毁附近的 <strong>1棵</strong> 敌国树木。</p> <p>树木的照片如下图所示。</p> <p></p> <img src='stimuli/trees/11.png', style='max-width: 30%;'> </img> <p><strong>你是否选择发射武器？</strong></p>","1",""
"","","","","","html-keyboard-response","30","90055","0.0-4.0-0.13","33","1","2022-10-07 08:09:04","ebf9627b049f568eb4bf28942cb89901","112.224.161.85","Mozilla/5.0 (Windows; U; Windows NT 5.1; en-US) AppleWebKit/534.20 (KHTML, like Gecko) Chrome/11.0.672.0 Safari/534.20 QBWebViewUA/2 QBWebViewType/1 WKType/1","WebKit","Chrome","11.0.672.0","Windows","5.1","null","<div style=""font-size:60px;"">+</div>","null",""
"","","","","","html-button-response","31","91825","0.0-4.0-1.13","33","1","2022-10-07 08:09:04","ebf9627b049f568eb4bf28942cb89901","112.224.161.85","Mozilla/5.0 (Windows; U; Windows NT 5.1; en-US) AppleWebKit/534.20 (KHTML, like Gecko) Chrome/11.0.672.0 Safari/534.20 QBWebViewUA/2 QBWebViewType/1 WKType/1","WebKit","Chrome","11.0.672.0","Windows","5.1","1759","<p>作为军队的指挥官，你可以选择发射导弹杀死 <strong>4名</strong> 敌国士兵，但会误杀附近的 <strong>1名</strong> 敌国平民。</p> <p>平民照片如下图所示。</p> <p></p> <img src='stimuli/faces/NFF3.jpg', style='max-width: 30%;'> </img> <p><strong>你是否选择发射武器？</strong></p>","1",""
"","","","","","html-keyboard-response","32","92830","0.0-4.0-0.14","33","1","2022-10-07 08:09:04","ebf9627b049f568eb4bf28942cb89901","112.224.161.85","Mozilla/5.0 (Windows; U; Windows NT 5.1; en-US) AppleWebKit/534.20 (KHTML, like Gecko) Chrome/11.0.672.0 Safari/534.20 QBWebViewUA/2 QBWebViewType/1 WKType/1","WebKit","Chrome","11.0.672.0","Windows","5.1","null","<div style=""font-size:60px;"">+</div>","null",""
"","","","","","html-button-response","33","94563","0.0-4.0-1.14","33","1","2022-10-07 08:09:04","ebf9627b049f568eb4bf28942cb89901","112.224.161.85","Mozilla/5.0 (Windows; U; Windows NT 5.1; en-US) AppleWebKit/534.20 (KHTML, like Gecko) Chrome/11.0.672.0 Safari/534.20 QBWebViewUA/2 QBWebViewType/1 WKType/1","WebKit","Chrome","11.0.672.0","Windows","5.1","1722","<p>作为军队的指挥官，你可以选择发射导弹杀死 <strong>8名</strong> 敌国士兵，但会误杀附近的 <strong>1名</strong> 敌国平民。</p> <p>平民照片如下图所示。</p> <p></p> <img src='stimuli/faces/NFM2.jpg', style='max-width: 30%;'> </img> <p><strong>你是否选择发射武器？</strong></p>","1",""
"","","","","","html-keyboard-response","34","95568","0.0-4.0-0.15","33","1","2022-10-07 08:09:04","ebf9627b049f568eb4bf28942cb89901","112.224.161.85","Mozilla/5.0 (Windows; U; Windows NT 5.1; en-US) AppleWebKit/534.20 (KHTML, like Gecko) Chrome/11.0.672.0 Safari/534.20 QBWebViewUA/2 QBWebViewType/1 WKType/1","WebKit","Chrome","11.0.672.0","Windows","5.1","null","<div style=""font-size:60px;"">+</div>","null",""
"","","","","","html-button-response","35","97537","0.0-4.0-1.15","33","1","2022-10-07 08:09:04","ebf9627b049f568eb4bf28942cb89901","112.224.161.85","Mozilla/5.0 (Windows; U; Windows NT 5.1; en-US) AppleWebKit/534.20 (KHTML, like Gecko) Chrome/11.0.672.0 Safari/534.20 QBWebViewUA/2 QBWebViewType/1 WKType/1","WebKit","Chrome","11.0.672.0","Windows","5.1","1959","<p>作为军队的指挥官，你可以选择发射导弹杀死 <strong>2名</strong> 敌国士兵，但会误杀附近的 <strong>1名</strong> 敌国平民。</p> <p>平民照片如下图所示。</p> <p></p> <img src='stimuli/faces/NFM8.jpg', style='max-width: 30%;'> </img> <p><strong>你是否选择发射武器？</strong></p>","0",""
"","","","","","html-keyboard-response","36","98541","0.0-4.0-0.16","33","1","2022-10-07 08:09:04","ebf9627b049f568eb4bf28942cb89901","112.224.161.85","Mozilla/5.0 (Windows; U; Windows NT 5.1; en-US) AppleWebKit/534.20 (KHTML, like Gecko) Chrome/11.0.672.0 Safari/534.20 QBWebViewUA/2 QBWebViewType/1 WKType/1","WebKit","Chrome","11.0.672.0","Windows","5.1","null","<div style=""font-size:60px;"">+</div>","null",""
"","","","","","html-button-response","37","100040","0.0-4.0-1.16","33","1","2022-10-07 08:09:04","ebf9627b049f568eb4bf28942cb89901","112.224.161.85","Mozilla/5.0 (Windows; U; Windows NT 5.1; en-US) AppleWebKit/534.20 (KHTML, like Gecko) Chrome/11.0.672.0 Safari/534.20 QBWebViewUA/2 QBWebViewType/1 WKType/1","WebKit","Chrome","11.0.672.0","Windows","5.1","1489","<p>作为军队的指挥官，你可以选择发射导弹杀死 <strong>4名</strong> 敌国士兵，但会炸毁附近的 <strong>1棵</strong> 敌国树木。</p> <p>树木的照片如下图所示。</p> <p></p> <img src='stimuli/trees/5.png', style='max-width: 30%;'> </img> <p><strong>你是否选择发射武器？</strong></p>","0",""
"","","","","","html-keyboard-response","38","101045","0.0-4.0-0.17","33","1","2022-10-07 08:09:04","ebf9627b049f568eb4bf28942cb89901","112.224.161.85","Mozilla/5.0 (Windows; U; Windows NT 5.1; en-US) AppleWebKit/534.20 (KHTML, like Gecko) Chrome/11.0.672.0 Safari/534.20 QBWebViewUA/2 QBWebViewType/1 WKType/1","WebKit","Chrome","11.0.672.0","Windows","5.1","null","<div style=""font-size:60px;"">+</div>","null",""
"","","","","","html-button-response","39","103734","0.0-4.0-1.17","33","1","2022-10-07 08:09:04","ebf9627b049f568eb4bf28942cb89901","112.224.161.85","Mozilla/5.0 (Windows; U; Windows NT 5.1; en-US) AppleWebKit/534.20 (KHTML, like Gecko) Chrome/11.0.672.0 Safari/534.20 QBWebViewUA/2 QBWebViewType/1 WKType/1","WebKit","Chrome","11.0.672.0","Windows","5.1","2678","<p>作为军队的指挥官，你可以选择发射导弹杀死 <strong>6名</strong> 敌国士兵，但会误杀附近的 <strong>1名</strong> 敌国平民。</p> <p>平民照片如下图所示。</p> <p></p> <img src='stimuli/faces/NFF8.jpg', style='max-width: 30%;'> </img> <p><strong>你是否选择发射武器？</strong></p>","1",""
"","","","","","html-keyboard-response","40","104738","0.0-4.0-0.18","33","1","2022-10-07 08:09:04","ebf9627b049f568eb4bf28942cb89901","112.224.161.85","Mozilla/5.0 (Windows; U; Windows NT 5.1; en-US) AppleWebKit/534.20 (KHTML, like Gecko) Chrome/11.0.672.0 Safari/534.20 QBWebViewUA/2 QBWebViewType/1 WKType/1","WebKit","Chrome","11.0.672.0","Windows","5.1","null","<div style=""font-size:60px;"">+</div>","null",""
"","","","","","html-button-response","41","108511","0.0-4.0-1.18","33","1","2022-10-07 08:09:04","ebf9627b049f568eb4bf28942cb89901","112.224.161.85","Mozilla/5.0 (Windows; U; Windows NT 5.1; en-US) AppleWebKit/534.20 (KHTML, like Gecko) Chrome/11.0.672.0 Safari/534.20 QBWebViewUA/2 QBWebViewType/1 WKType/1","WebKit","Chrome","11.0.672.0","Windows","5.1","3762","<p>作为军队的指挥官，你可以选择发射导弹杀死 <strong>8名</strong> 敌国士兵，但会误杀附近的 <strong>1名</strong> 敌国平民。</p> <p>平民照片如下图所示。</p> <p></p> <img src='stimuli/faces/NFM1.jpg', style='max-width: 30%;'> </img> <p><strong>你是否选择发射武器？</strong></p>","1",""
"","","","","","html-keyboard-response","42","109515","0.0-4.0-0.19","33","1","2022-10-07 08:09:04","ebf9627b049f568eb4bf28942cb89901","112.224.161.85","Mozilla/5.0 (Windows; U; Windows NT 5.1; en-US) AppleWebKit/534.20 (KHTML, like Gecko) Chrome/11.0.672.0 Safari/534.20 QBWebViewUA/2 QBWebViewType/1 WKType/1","WebKit","Chrome","11.0.672.0","Windows","5.1","null","<div style=""font-size:60px;"">+</div>","null",""
"","","","","","html-button-response","43","114024","0.0-4.0-1.19","33","1","2022-10-07 08:09:04","ebf9627b049f568eb4bf28942cb89901","112.224.161.85","Mozilla/5.0 (Windows; U; Windows NT 5.1; en-US) AppleWebKit/534.20 (KHTML, like Gecko) Chrome/11.0.672.0 Safari/534.20 QBWebViewUA/2 QBWebViewType/1 WKType/1","WebKit","Chrome","11.0.672.0","Windows","5.1","4498","<p>作为军队的指挥官，你可以选择发射导弹杀死 <strong>2名</strong> 敌国士兵，但会误杀附近的 <strong>1名</strong> 敌国平民。</p> <p>平民照片如下图所示。</p> <p></p> <img src='stimuli/faces/NFM5.jpg', style='max-width: 30%;'> </img> <p><strong>你是否选择发射武器？</strong></p>","1",""
"","","","","","html-keyboard-response","44","115029","0.0-4.0-0.20","33","1","2022-10-07 08:09:04","ebf9627b049f568eb4bf28942cb89901","112.224.161.85","Mozilla/5.0 (Windows; U; Windows NT 5.1; en-US) AppleWebKit/534.20 (KHTML, like Gecko) Chrome/11.0.672.0 Safari/534.20 QBWebViewUA/2 QBWebViewType/1 WKType/1","WebKit","Chrome","11.0.672.0","Windows","5.1","null","<div style=""font-size:60px;"">+</div>","null",""
"","","","","","html-button-response","45","117217","0.0-4.0-1.20","33","1","2022-10-07 08:09:04","ebf9627b049f568eb4bf28942cb89901","112.224.161.85","Mozilla/5.0 (Windows; U; Windows NT 5.1; en-US) AppleWebKit/534.20 (KHTML, like Gecko) Chrome/11.0.672.0 Safari/534.20 QBWebViewUA/2 QBWebViewType/1 WKType/1","WebKit","Chrome","11.0.672.0","Windows","5.1","2178","<p>作为军队的指挥官，你可以选择发射导弹杀死 <strong>1名</strong> 敌国士兵，但会炸毁附近的 <strong>1棵</strong> 敌国树木。</p> <p>树木的照片如下图所示。</p> <p></p> <img src='stimuli/trees/2.png', style='max-width: 30%;'> </img> <p><strong>你是否选择发射武器？</strong></p>","1",""
"","","","","","html-keyboard-response","46","118223","0.0-4.0-0.21","33","1","2022-10-07 08:09:04","ebf9627b049f568eb4bf28942cb89901","112.224.161.85","Mozilla/5.0 (Windows; U; Windows NT 5.1; en-US) AppleWebKit/534.20 (KHTML, like Gecko) Chrome/11.0.672.0 Safari/534.20 QBWebViewUA/2 QBWebViewType/1 WKType/1","WebKit","Chrome","11.0.672.0","Windows","5.1","null","<div style=""font-size:60px;"">+</div>","null",""
"","","","","","html-button-response","47","119774","0.0-4.0-1.21","33","1","2022-10-07 08:09:04","ebf9627b049f568eb4bf28942cb89901","112.224.161.85","Mozilla/5.0 (Windows; U; Windows NT 5.1; en-US) AppleWebKit/534.20 (KHTML, like Gecko) Chrome/11.0.672.0 Safari/534.20 QBWebViewUA/2 QBWebViewType/1 WKType/1","WebKit","Chrome","11.0.672.0","Windows","5.1","1541","<p>作为军队的指挥官，你可以选择发射导弹杀死 <strong>6名</strong> 敌国士兵，但会炸毁附近的 <strong>1棵</strong> 敌国树木。</p> <p>树木的照片如下图所示。</p> <p></p> <img src='stimuli/trees/5.png', style='max-width: 30%;'> </img> <p><strong>你是否选择发射武器？</strong></p>","0",""
"","","","","","html-keyboard-response","48","120779","0.0-4.0-0.22","33","1","2022-10-07 08:09:04","ebf9627b049f568eb4bf28942cb89901","112.224.161.85","Mozilla/5.0 (Windows; U; Windows NT 5.1; en-US) AppleWebKit/534.20 (KHTML, like Gecko) Chrome/11.0.672.0 Safari/534.20 QBWebViewUA/2 QBWebViewType/1 WKType/1","WebKit","Chrome","11.0.672.0","Windows","5.1","null","<div style=""font-size:60px;"">+</div>","null",""
"","","","","","html-button-response","49","122128","0.0-4.0-1.22","33","1","2022-10-07 08:09:04","ebf9627b049f568eb4bf28942cb89901","112.224.161.85","Mozilla/5.0 (Windows; U; Windows NT 5.1; en-US) AppleWebKit/534.20 (KHTML, like Gecko) Chrome/11.0.672.0 Safari/534.20 QBWebViewUA/2 QBWebViewType/1 WKType/1","WebKit","Chrome","11.0.672.0","Windows","5.1","1337","<p>作为军队的指挥官，你可以选择发射导弹杀死 <strong>4名</strong> 敌国士兵，但会误杀附近的 <strong>1名</strong> 敌国平民。</p> <p>平民照片如下图所示。</p> <p></p> <img src='stimuli/faces/NFM2.jpg', style='max-width: 30%;'> </img> <p><strong>你是否选择发射武器？</strong></p>","1",""
"","","","","","html-keyboard-response","50","123133","0.0-4.0-0.23","33","1","2022-10-07 08:09:04","ebf9627b049f568eb4bf28942cb89901","112.224.161.85","Mozilla/5.0 (Windows; U; Windows NT 5.1; en-US) AppleWebKit/534.20 (KHTML, like Gecko) Chrome/11.0.672.0 Safari/534.20 QBWebViewUA/2 QBWebViewType/1 WKType/1","WebKit","Chrome","11.0.672.0","Windows","5.1","null","<div style=""font-size:60px;"">+</div>","null",""
"","","","","","html-button-response","51","125018","0.0-4.0-1.23","33","1","2022-10-07 08:09:04","ebf9627b049f568eb4bf28942cb89901","112.224.161.85","Mozilla/5.0 (Windows; U; Windows NT 5.1; en-US) AppleWebKit/534.20 (KHTML, like Gecko) Chrome/11.0.672.0 Safari/534.20 QBWebViewUA/2 QBWebViewType/1 WKType/1","WebKit","Chrome","11.0.672.0","Windows","5.1","1874","<p>作为军队的指挥官，你可以选择发射导弹杀死 <strong>9名</strong> 敌国士兵，但会误杀附近的 <strong>1名</strong> 敌国平民。</p> <p>平民照片如下图所示。</p> <p></p> <img src='stimuli/faces/NFF1.jpg', style='max-width: 30%;'> </img> <p><strong>你是否选择发射武器？</strong></p>","1",""
"","","","","","html-keyboard-response","52","126023","0.0-4.0-0.24","33","1","2022-10-07 08:09:04","ebf9627b049f568eb4bf28942cb89901","112.224.161.85","Mozilla/5.0 (Windows; U; Windows NT 5.1; en-US) AppleWebKit/534.20 (KHTML, like Gecko) Chrome/11.0.672.0 Safari/534.20 QBWebViewUA/2 QBWebViewType/1 WKType/1","WebKit","Chrome","11.0.672.0","Windows","5.1","null","<div style=""font-size:60px;"">+</div>","null",""
"","","","","","html-button-response","53","127341","0.0-4.0-1.24","33","1","2022-10-07 08:09:04","ebf9627b049f568eb4bf28942cb89901","112.224.161.85","Mozilla/5.0 (Windows; U; Windows NT 5.1; en-US) AppleWebKit/534.20 (KHTML, like Gecko) Chrome/11.0.672.0 Safari/534.20 QBWebViewUA/2 QBWebViewType/1 WKType/1","WebKit","Chrome","11.0.672.0","Windows","5.1","1307","<p>作为军队的指挥官，你可以选择发射导弹杀死 <strong>5名</strong> 敌国士兵，但会炸毁附近的 <strong>1棵</strong> 敌国树木。</p> <p>树木的照片如下图所示。</p> <p></p> <img src='stimuli/trees/8.png', style='max-width: 30%;'> </img> <p><strong>你是否选择发射武器？</strong></p>","0",""
"","","","","","html-keyboard-response","54","128346","0.0-4.0-0.25","33","1","2022-10-07 08:09:04","ebf9627b049f568eb4bf28942cb89901","112.224.161.85","Mozilla/5.0 (Windows; U; Windows NT 5.1; en-US) AppleWebKit/534.20 (KHTML, like Gecko) Chrome/11.0.672.0 Safari/534.20 QBWebViewUA/2 QBWebViewType/1 WKType/1","WebKit","Chrome","11.0.672.0","Windows","5.1","null","<div style=""font-size:60px;"">+</div>","null",""
"","","","","","html-button-response","55","129576","0.0-4.0-1.25","33","1","2022-10-07 08:09:04","ebf9627b049f568eb4bf28942cb89901","112.224.161.85","Mozilla/5.0 (Windows; U; Windows NT 5.1; en-US) AppleWebKit/534.20 (KHTML, like Gecko) Chrome/11.0.672.0 Safari/534.20 QBWebViewUA/2 QBWebViewType/1 WKType/1","WebKit","Chrome","11.0.672.0","Windows","5.1","1218","<p>作为军队的指挥官，你可以选择发射导弹杀死 <strong>2名</strong> 敌国士兵，但会炸毁附近的 <strong>1棵</strong> 敌国树木。</p> <p>树木的照片如下图所示。</p> <p></p> <img src='stimuli/trees/14.png', style='max-width: 30%;'> </img> <p><strong>你是否选择发射武器？</strong></p>","0",""
"","","","","","html-keyboard-response","56","130580","0.0-4.0-0.26","33","1","2022-10-07 08:09:04","ebf9627b049f568eb4bf28942cb89901","112.224.161.85","Mozilla/5.0 (Windows; U; Windows NT 5.1; en-US) AppleWebKit/534.20 (KHTML, like Gecko) Chrome/11.0.672.0 Safari/534.20 QBWebViewUA/2 QBWebViewType/1 WKType/1","WebKit","Chrome","11.0.672.0","Windows","5.1","null","<div style=""font-size:60px;"">+</div>","null",""
"","","","","","html-button-response","57","131932","0.0-4.0-1.26","33","1","2022-10-07 08:09:04","ebf9627b049f568eb4bf28942cb89901","112.224.161.85","Mozilla/5.0 (Windows; U; Windows NT 5.1; en-US) AppleWebKit/534.20 (KHTML, like Gecko) Chrome/11.0.672.0 Safari/534.20 QBWebViewUA/2 QBWebViewType/1 WKType/1","WebKit","Chrome","11.0.672.0","Windows","5.1","1340","<p>作为军队的指挥官，你可以选择发射导弹杀死 <strong>5名</strong> 敌国士兵，但会误杀附近的 <strong>1名</strong> 敌国平民。</p> <p>平民照片如下图所示。</p> <p></p> <img src='stimuli/faces/NFM7.jpg', style='max-width: 30%;'> </img> <p><strong>你是否选择发射武器？</strong></p>","1",""
"","","","","","html-keyboard-response","58","132936","0.0-4.0-0.27","33","1","2022-10-07 08:09:04","ebf9627b049f568eb4bf28942cb89901","112.224.161.85","Mozilla/5.0 (Windows; U; Windows NT 5.1; en-US) AppleWebKit/534.20 (KHTML, like Gecko) Chrome/11.0.672.0 Safari/534.20 QBWebViewUA/2 QBWebViewType/1 WKType/1","WebKit","Chrome","11.0.672.0","Windows","5.1","null","<div style=""font-size:60px;"">+</div>","null",""
"","","","","","html-button-response","59","134474","0.0-4.0-1.27","33","1","2022-10-07 08:09:04","ebf9627b049f568eb4bf28942cb89901","112.224.161.85","Mozilla/5.0 (Windows; U; Windows NT 5.1; en-US) AppleWebKit/534.20 (KHTML, like Gecko) Chrome/11.0.672.0 Safari/534.20 QBWebViewUA/2 QBWebViewType/1 WKType/1","WebKit","Chrome","11.0.672.0","Windows","5.1","1526","<p>作为军队的指挥官，你可以选择发射导弹杀死 <strong>5名</strong> 敌国士兵，但会误杀附近的 <strong>1名</strong> 敌国平民。</p> <p>平民照片如下图所示。</p> <p></p> <img src='stimuli/faces/NFF1.jpg', style='max-width: 30%;'> </img> <p><strong>你是否选择发射武器？</strong></p>","1",""
"","","","","","html-keyboard-response","60","135478","0.0-4.0-0.28","33","1","2022-10-07 08:09:04","ebf9627b049f568eb4bf28942cb89901","112.224.161.85","Mozilla/5.0 (Windows; U; Windows NT 5.1; en-US) AppleWebKit/534.20 (KHTML, like Gecko) Chrome/11.0.672.0 Safari/534.20 QBWebViewUA/2 QBWebViewType/1 WKType/1","WebKit","Chrome","11.0.672.0","Windows","5.1","null","<div style=""font-size:60px;"">+</div>","null",""
"","","","","","html-button-response","61","137396","0.0-4.0-1.28","33","1","2022-10-07 08:09:04","ebf9627b049f568eb4bf28942cb89901","112.224.161.85","Mozilla/5.0 (Windows; U; Windows NT 5.1; en-US) AppleWebKit/534.20 (KHTML, like Gecko) Chrome/11.0.672.0 Safari/534.20 QBWebViewUA/2 QBWebViewType/1 WKType/1","WebKit","Chrome","11.0.672.0","Windows","5.1","1906","<p>作为军队的指挥官，你可以选择发射导弹杀死 <strong>5名</strong> 敌国士兵，但会炸毁附近的 <strong>1棵</strong> 敌国树木。</p> <p>树木的照片如下图所示。</p> <p></p> <img src='stimuli/trees/15.png', style='max-width: 30%;'> </img> <p><strong>你是否选择发射武器？</strong></p>","0",""
"","","","","","html-keyboard-response","62","138400","0.0-4.0-0.29","33","1","2022-10-07 08:09:04","ebf9627b049f568eb4bf28942cb89901","112.224.161.85","Mozilla/5.0 (Windows; U; Windows NT 5.1; en-US) AppleWebKit/534.20 (KHTML, like Gecko) Chrome/11.0.672.0 Safari/534.20 QBWebViewUA/2 QBWebViewType/1 WKType/1","WebKit","Chrome","11.0.672.0","Windows","5.1","null","<div style=""font-size:60px;"">+</div>","null",""
"","","","","","html-button-response","63","140101","0.0-4.0-1.29","33","1","2022-10-07 08:09:04","ebf9627b049f568eb4bf28942cb89901","112.224.161.85","Mozilla/5.0 (Windows; U; Windows NT 5.1; en-US) AppleWebKit/534.20 (KHTML, like Gecko) Chrome/11.0.672.0 Safari/534.20 QBWebViewUA/2 QBWebViewType/1 WKType/1","WebKit","Chrome","11.0.672.0","Windows","5.1","1690","<p>作为军队的指挥官，你可以选择发射导弹杀死 <strong>3名</strong> 敌国士兵，但会误杀附近的 <strong>1名</strong> 敌国平民。</p> <p>平民照片如下图所示。</p> <p></p> <img src='stimuli/faces/NFF8.jpg', style='max-width: 30%;'> </img> <p><strong>你是否选择发射武器？</strong></p>","1",""
"","","","","","html-keyboard-response","64","141106","0.0-4.0-0.30","33","1","2022-10-07 08:09:04","ebf9627b049f568eb4bf28942cb89901","112.224.161.85","Mozilla/5.0 (Windows; U; Windows NT 5.1; en-US) AppleWebKit/534.20 (KHTML, like Gecko) Chrome/11.0.672.0 Safari/534.20 QBWebViewUA/2 QBWebViewType/1 WKType/1","WebKit","Chrome","11.0.672.0","Windows","5.1","null","<div style=""font-size:60px;"">+</div>","null",""
"","","","","","html-button-response","65","142660","0.0-4.0-1.30","33","1","2022-10-07 08:09:04","ebf9627b049f568eb4bf28942cb89901","112.224.161.85","Mozilla/5.0 (Windows; U; Windows NT 5.1; en-US) AppleWebKit/534.20 (KHTML, like Gecko) Chrome/11.0.672.0 Safari/534.20 QBWebViewUA/2 QBWebViewType/1 WKType/1","WebKit","Chrome","11.0.672.0","Windows","5.1","1542","<p>作为军队的指挥官，你可以选择发射导弹杀死 <strong>4名</strong> 敌国士兵，但会误杀附近的 <strong>1名</strong> 敌国平民。</p> <p>平民照片如下图所示。</p> <p></p> <img src='stimuli/faces/NFF6.jpg', style='max-width: 30%;'> </img> <p><strong>你是否选择发射武器？</strong></p>","1",""
"","","","","","html-keyboard-response","66","143665","0.0-4.0-0.31","33","1","2022-10-07 08:09:04","ebf9627b049f568eb4bf28942cb89901","112.224.161.85","Mozilla/5.0 (Windows; U; Windows NT 5.1; en-US) AppleWebKit/534.20 (KHTML, like Gecko) Chrome/11.0.672.0 Safari/534.20 QBWebViewUA/2 QBWebViewType/1 WKType/1","WebKit","Chrome","11.0.672.0","Windows","5.1","null","<div style=""font-size:60px;"">+</div>","null",""
"","","","","","html-button-response","67","144715","0.0-4.0-1.31","33","1","2022-10-07 08:09:04","ebf9627b049f568eb4bf28942cb89901","112.224.161.85","Mozilla/5.0 (Windows; U; Windows NT 5.1; en-US) AppleWebKit/534.20 (KHTML, like Gecko) Chrome/11.0.672.0 Safari/534.20 QBWebViewUA/2 QBWebViewType/1 WKType/1","WebKit","Chrome","11.0.672.0","Windows","5.1","1038","<p>作为军队的指挥官，你可以选择发射导弹杀死 <strong>9名</strong> 敌国士兵，但会误杀附近的 <strong>1名</strong> 敌国平民。</p> <p>平民照片如下图所示。</p> <p></p> <img src='stimuli/faces/NFF4.jpg', style='max-width: 30%;'> </img> <p><strong>你是否选择发射武器？</strong></p>","1",""
"","","","","","html-keyboard-response","68","145721","0.0-4.0-0.32","33","1","2022-10-07 08:09:04","ebf9627b049f568eb4bf28942cb89901","112.224.161.85","Mozilla/5.0 (Windows; U; Windows NT 5.1; en-US) AppleWebKit/534.20 (KHTML, like Gecko) Chrome/11.0.672.0 Safari/534.20 QBWebViewUA/2 QBWebViewType/1 WKType/1","WebKit","Chrome","11.0.672.0","Windows","5.1","null","<div style=""font-size:60px;"">+</div>","null",""
"","","","","","html-button-response","69","146903","0.0-4.0-1.32","33","1","2022-10-07 08:09:04","ebf9627b049f568eb4bf28942cb89901","112.224.161.85","Mozilla/5.0 (Windows; U; Windows NT 5.1; en-US) AppleWebKit/534.20 (KHTML, like Gecko) Chrome/11.0.672.0 Safari/534.20 QBWebViewUA/2 QBWebViewType/1 WKType/1","WebKit","Chrome","11.0.672.0","Windows","5.1","1170","<p>作为军队的指挥官，你可以选择发射导弹杀死 <strong>9名</strong> 敌国士兵，但会误杀附近的 <strong>1名</strong> 敌国平民。</p> <p>平民照片如下图所示。</p> <p></p> <img src='stimuli/faces/NFF3.jpg', style='max-width: 30%;'> </img> <p><strong>你是否选择发射武器？</strong></p>","1",""
"","","","","","html-keyboard-response","70","147909","0.0-4.0-0.33","33","1","2022-10-07 08:09:04","ebf9627b049f568eb4bf28942cb89901","112.224.161.85","Mozilla/5.0 (Windows; U; Windows NT 5.1; en-US) AppleWebKit/534.20 (KHTML, like Gecko) Chrome/11.0.672.0 Safari/534.20 QBWebViewUA/2 QBWebViewType/1 WKType/1","WebKit","Chrome","11.0.672.0","Windows","5.1","null","<div style=""font-size:60px;"">+</div>","null",""
"","","","","","html-button-response","71","149392","0.0-4.0-1.33","33","1","2022-10-07 08:09:04","ebf9627b049f568eb4bf28942cb89901","112.224.161.85","Mozilla/5.0 (Windows; U; Windows NT 5.1; en-US) AppleWebKit/534.20 (KHTML, like Gecko) Chrome/11.0.672.0 Safari/534.20 QBWebViewUA/2 QBWebViewType/1 WKType/1","WebKit","Chrome","11.0.672.0","Windows","5.1","1464","<p>作为军队的指挥官，你可以选择发射导弹杀死 <strong>2名</strong> 敌国士兵，但会炸毁附近的 <strong>1棵</strong> 敌国树木。</p> <p>树木的照片如下图所示。</p> <p></p> <img src='stimuli/trees/9.png', style='max-width: 30%;'> </img> <p><strong>你是否选择发射武器？</strong></p>","0",""
"","","","","","html-keyboard-response","72","150398","0.0-4.0-0.34","33","1","2022-10-07 08:09:04","ebf9627b049f568eb4bf28942cb89901","112.224.161.85","Mozilla/5.0 (Windows; U; Windows NT 5.1; en-US) AppleWebKit/534.20 (KHTML, like Gecko) Chrome/11.0.672.0 Safari/534.20 QBWebViewUA/2 QBWebViewType/1 WKType/1","WebKit","Chrome","11.0.672.0","Windows","5.1","null","<div style=""font-size:60px;"">+</div>","null",""
"","","","","","html-button-response","73","151712","0.0-4.0-1.34","33","1","2022-10-07 08:09:04","ebf9627b049f568eb4bf28942cb89901","112.224.161.85","Mozilla/5.0 (Windows; U; Windows NT 5.1; en-US) AppleWebKit/534.20 (KHTML, like Gecko) Chrome/11.0.672.0 Safari/534.20 QBWebViewUA/2 QBWebViewType/1 WKType/1","WebKit","Chrome","11.0.672.0","Windows","5.1","1302","<p>作为军队的指挥官，你可以选择发射导弹杀死 <strong>5名</strong> 敌国士兵，但会炸毁附近的 <strong>1棵</strong> 敌国树木。</p> <p>树木的照片如下图所示。</p> <p></p> <img src='stimuli/trees/1.png', style='max-width: 30%;'> </img> <p><strong>你是否选择发射武器？</strong></p>","0",""
"","","","","","html-keyboard-response","74","152718","0.0-4.0-0.35","33","1","2022-10-07 08:09:04","ebf9627b049f568eb4bf28942cb89901","112.224.161.85","Mozilla/5.0 (Windows; U; Windows NT 5.1; en-US) AppleWebKit/534.20 (KHTML, like Gecko) Chrome/11.0.672.0 Safari/534.20 QBWebViewUA/2 QBWebViewType/1 WKType/1","WebKit","Chrome","11.0.672.0","Windows","5.1","null","<div style=""font-size:60px;"">+</div>","null",""
"","","","","","html-button-response","75","160265","0.0-4.0-1.35","33","1","2022-10-07 08:09:04","ebf9627b049f568eb4bf28942cb89901","112.224.161.85","Mozilla/5.0 (Windows; U; Windows NT 5.1; en-US) AppleWebKit/534.20 (KHTML, like Gecko) Chrome/11.0.672.0 Safari/534.20 QBWebViewUA/2 QBWebViewType/1 WKType/1","WebKit","Chrome","11.0.672.0","Windows","5.1","7533","<p>作为军队的指挥官，你可以选择发射导弹杀死 <strong>1名</strong> 敌国士兵，但会误杀附近的 <strong>1名</strong> 敌国平民。</p> <p>平民照片如下图所示。</p> <p></p> <img src='stimuli/faces/NFF2.jpg', style='max-width: 30%;'> </img> <p><strong>你是否选择发射武器？</strong></p>","1",""
"","","","","","html-keyboard-response","76","161270","0.0-4.0-0.36","33","1","2022-10-07 08:09:04","ebf9627b049f568eb4bf28942cb89901","112.224.161.85","Mozilla/5.0 (Windows; U; Windows NT 5.1; en-US) AppleWebKit/534.20 (KHTML, like Gecko) Chrome/11.0.672.0 Safari/534.20 QBWebViewUA/2 QBWebViewType/1 WKType/1","WebKit","Chrome","11.0.672.0","Windows","5.1","null","<div style=""font-size:60px;"">+</div>","null",""
"","","","","","html-button-response","77","163020","0.0-4.0-1.36","33","1","2022-10-07 08:09:04","ebf9627b049f568eb4bf28942cb89901","112.224.161.85","Mozilla/5.0 (Windows; U; Windows NT 5.1; en-US) AppleWebKit/534.20 (KHTML, like Gecko) Chrome/11.0.672.0 Safari/534.20 QBWebViewUA/2 QBWebViewType/1 WKType/1","WebKit","Chrome","11.0.672.0","Windows","5.1","1737","<p>作为军队的指挥官，你可以选择发射导弹杀死 <strong>3名</strong> 敌国士兵，但会误杀附近的 <strong>1名</strong> 敌国平民。</p> <p>平民照片如下图所示。</p> <p></p> <img src='stimuli/faces/NFM1.jpg', style='max-width: 30%;'> </img> <p><strong>你是否选择发射武器？</strong></p>","1",""
"","","","","","html-keyboard-response","78","164025","0.0-4.0-0.37","33","1","2022-10-07 08:09:04","ebf9627b049f568eb4bf28942cb89901","112.224.161.85","Mozilla/5.0 (Windows; U; Windows NT 5.1; en-US) AppleWebKit/534.20 (KHTML, like Gecko) Chrome/11.0.672.0 Safari/534.20 QBWebViewUA/2 QBWebViewType/1 WKType/1","WebKit","Chrome","11.0.672.0","Windows","5.1","null","<div style=""font-size:60px;"">+</div>","null",""
"","","","","","html-button-response","79","165430","0.0-4.0-1.37","33","1","2022-10-07 08:09:04","ebf9627b049f568eb4bf28942cb89901","112.224.161.85","Mozilla/5.0 (Windows; U; Windows NT 5.1; en-US) AppleWebKit/534.20 (KHTML, like Gecko) Chrome/11.0.672.0 Safari/534.20 QBWebViewUA/2 QBWebViewType/1 WKType/1","WebKit","Chrome","11.0.672.0","Windows","5.1","1390","<p>作为军队的指挥官，你可以选择发射导弹杀死 <strong>10名</strong> 敌国士兵，但会误杀附近的 <strong>1名</strong> 敌国平民。</p> <p>平民照片如下图所示。</p> <p></p> <img src='stimuli/faces/NFF2.jpg', style='max-width: 30%;'> </img> <p><strong>你是否选择发射武器？</strong></p>","1",""
"","","","","","html-keyboard-response","80","166437","0.0-4.0-0.38","33","1","2022-10-07 08:09:04","ebf9627b049f568eb4bf28942cb89901","112.224.161.85","Mozilla/5.0 (Windows; U; Windows NT 5.1; en-US) AppleWebKit/534.20 (KHTML, like Gecko) Chrome/11.0.672.0 Safari/534.20 QBWebViewUA/2 QBWebViewType/1 WKType/1","WebKit","Chrome","11.0.672.0","Windows","5.1","null","<div style=""font-size:60px;"">+</div>","null",""
"","","","","","html-button-response","81","167734","0.0-4.0-1.38","33","1","2022-10-07 08:09:04","ebf9627b049f568eb4bf28942cb89901","112.224.161.85","Mozilla/5.0 (Windows; U; Windows NT 5.1; en-US) AppleWebKit/534.20 (KHTML, like Gecko) Chrome/11.0.672.0 Safari/534.20 QBWebViewUA/2 QBWebViewType/1 WKType/1","WebKit","Chrome","11.0.672.0","Windows","5.1","1284","<p>作为军队的指挥官，你可以选择发射导弹杀死 <strong>4名</strong> 敌国士兵，但会误杀附近的 <strong>1名</strong> 敌国平民。</p> <p>平民照片如下图所示。</p> <p></p> <img src='stimuli/faces/NFF4.jpg', style='max-width: 30%;'> </img> <p><strong>你是否选择发射武器？</strong></p>","1",""
"","","","","","html-keyboard-response","82","168740","0.0-4.0-0.39","33","1","2022-10-07 08:09:04","ebf9627b049f568eb4bf28942cb89901","112.224.161.85","Mozilla/5.0 (Windows; U; Windows NT 5.1; en-US) AppleWebKit/534.20 (KHTML, like Gecko) Chrome/11.0.672.0 Safari/534.20 QBWebViewUA/2 QBWebViewType/1 WKType/1","WebKit","Chrome","11.0.672.0","Windows","5.1","null","<div style=""font-size:60px;"">+</div>","null",""
"","","","","","html-button-response","83","170342","0.0-4.0-1.39","33","1","2022-10-07 08:09:04","ebf9627b049f568eb4bf28942cb89901","112.224.161.85","Mozilla/5.0 (Windows; U; Windows NT 5.1; en-US) AppleWebKit/534.20 (KHTML, like Gecko) Chrome/11.0.672.0 Safari/534.20 QBWebViewUA/2 QBWebViewType/1 WKType/1","WebKit","Chrome","11.0.672.0","Windows","5.1","1589","<p>作为军队的指挥官，你可以选择发射导弹杀死 <strong>1名</strong> 敌国士兵，但会误杀附近的 <strong>1名</strong> 敌国平民。</p> <p>平民照片如下图所示。</p> <p></p> <img src='stimuli/faces/NFM4.jpg', style='max-width: 30%;'> </img> <p><strong>你是否选择发射武器？</strong></p>","0",""
"","","","","","html-keyboard-response","84","171347","0.0-4.0-0.40","33","1","2022-10-07 08:09:04","ebf9627b049f568eb4bf28942cb89901","112.224.161.85","Mozilla/5.0 (Windows; U; Windows NT 5.1; en-US) AppleWebKit/534.20 (KHTML, like Gecko) Chrome/11.0.672.0 Safari/534.20 QBWebViewUA/2 QBWebViewType/1 WKType/1","WebKit","Chrome","11.0.672.0","Windows","5.1","null","<div style=""font-size:60px;"">+</div>","null",""
"","","","","","html-button-response","85","172559","0.0-4.0-1.40","33","1","2022-10-07 08:09:04","ebf9627b049f568eb4bf28942cb89901","112.224.161.85","Mozilla/5.0 (Windows; U; Windows NT 5.1; en-US) AppleWebKit/534.20 (KHTML, like Gecko) Chrome/11.0.672.0 Safari/534.20 QBWebViewUA/2 QBWebViewType/1 WKType/1","WebKit","Chrome","11.0.672.0","Windows","5.1","1202","<p>作为军队的指挥官，你可以选择发射导弹杀死 <strong>10名</strong> 敌国士兵，但会炸毁附近的 <strong>1棵</strong> 敌国树木。</p> <p>树木的照片如下图所示。</p> <p></p> <img src='stimuli/trees/12.png', style='max-width: 30%;'> </img> <p><strong>你是否选择发射武器？</strong></p>","0",""
"","","","","","html-keyboard-response","86","173564","0.0-4.0-0.41","33","1","2022-10-07 08:09:04","ebf9627b049f568eb4bf28942cb89901","112.224.161.85","Mozilla/5.0 (Windows; U; Windows NT 5.1; en-US) AppleWebKit/534.20 (KHTML, like Gecko) Chrome/11.0.672.0 Safari/534.20 QBWebViewUA/2 QBWebViewType/1 WKType/1","WebKit","Chrome","11.0.672.0","Windows","5.1","null","<div style=""font-size:60px;"">+</div>","null",""
"","","","","","html-button-response","87","175102","0.0-4.0-1.41","33","1","2022-10-07 08:09:04","ebf9627b049f568eb4bf28942cb89901","112.224.161.85","Mozilla/5.0 (Windows; U; Windows NT 5.1; en-US) AppleWebKit/534.20 (KHTML, like Gecko) Chrome/11.0.672.0 Safari/534.20 QBWebViewUA/2 QBWebViewType/1 WKType/1","WebKit","Chrome","11.0.672.0","Windows","5.1","1526","<p>作为军队的指挥官，你可以选择发射导弹杀死 <strong>10名</strong> 敌国士兵，但会误杀附近的 <strong>1名</strong> 敌国平民。</p> <p>平民照片如下图所示。</p> <p></p> <img src='stimuli/faces/NFM7.jpg', style='max-width: 30%;'> </img> <p><strong>你是否选择发射武器？</strong></p>","0",""
"","","","","","html-keyboard-response","88","176108","0.0-4.0-0.42","33","1","2022-10-07 08:09:04","ebf9627b049f568eb4bf28942cb89901","112.224.161.85","Mozilla/5.0 (Windows; U; Windows NT 5.1; en-US) AppleWebKit/534.20 (KHTML, like Gecko) Chrome/11.0.672.0 Safari/534.20 QBWebViewUA/2 QBWebViewType/1 WKType/1","WebKit","Chrome","11.0.672.0","Windows","5.1","null","<div style=""font-size:60px;"">+</div>","null",""
"","","","","","html-button-response","89","177958","0.0-4.0-1.42","33","1","2022-10-07 08:09:04","ebf9627b049f568eb4bf28942cb89901","112.224.161.85","Mozilla/5.0 (Windows; U; Windows NT 5.1; en-US) AppleWebKit/534.20 (KHTML, like Gecko) Chrome/11.0.672.0 Safari/534.20 QBWebViewUA/2 QBWebViewType/1 WKType/1","WebKit","Chrome","11.0.672.0","Windows","5.1","1835","<p>作为军队的指挥官，你可以选择发射导弹杀死 <strong>5名</strong> 敌国士兵，但会炸毁附近的 <strong>1棵</strong> 敌国树木。</p> <p>树木的照片如下图所示。</p> <p></p> <img src='stimuli/trees/3.png', style='max-width: 30%;'> </img> <p><strong>你是否选择发射武器？</strong></p>","0",""
"","","","","","html-keyboard-response","90","178964","0.0-4.0-0.43","33","1","2022-10-07 08:09:04","ebf9627b049f568eb4bf28942cb89901","112.224.161.85","Mozilla/5.0 (Windows; U; Windows NT 5.1; en-US) AppleWebKit/534.20 (KHTML, like Gecko) Chrome/11.0.672.0 Safari/534.20 QBWebViewUA/2 QBWebViewType/1 WKType/1","WebKit","Chrome","11.0.672.0","Windows","5.1","null","<div style=""font-size:60px;"">+</div>","null",""
"","","","","","html-button-response","91","180418","0.0-4.0-1.43","33","1","2022-10-07 08:09:04","ebf9627b049f568eb4bf28942cb89901","112.224.161.85","Mozilla/5.0 (Windows; U; Windows NT 5.1; en-US) AppleWebKit/534.20 (KHTML, like Gecko) Chrome/11.0.672.0 Safari/534.20 QBWebViewUA/2 QBWebViewType/1 WKType/1","WebKit","Chrome","11.0.672.0","Windows","5.1","1442","<p>作为军队的指挥官，你可以选择发射导弹杀死 <strong>10名</strong> 敌国士兵，但会炸毁附近的 <strong>1棵</strong> 敌国树木。</p> <p>树木的照片如下图所示。</p> <p></p> <img src='stimuli/trees/3.png', style='max-width: 30%;'> </img> <p><strong>你是否选择发射武器？</strong></p>","0",""
"","","","","","html-keyboard-response","92","181425","0.0-4.0-0.44","33","1","2022-10-07 08:09:04","ebf9627b049f568eb4bf28942cb89901","112.224.161.85","Mozilla/5.0 (Windows; U; Windows NT 5.1; en-US) AppleWebKit/534.20 (KHTML, like Gecko) Chrome/11.0.672.0 Safari/534.20 QBWebViewUA/2 QBWebViewType/1 WKType/1","WebKit","Chrome","11.0.672.0","Windows","5.1","null","<div style=""font-size:60px;"">+</div>","null",""
"","","","","","html-button-response","93","183348","0.0-4.0-1.44","33","1","2022-10-07 08:09:04","ebf9627b049f568eb4bf28942cb89901","112.224.161.85","Mozilla/5.0 (Windows; U; Windows NT 5.1; en-US) AppleWebKit/534.20 (KHTML, like Gecko) Chrome/11.0.672.0 Safari/534.20 QBWebViewUA/2 QBWebViewType/1 WKType/1","WebKit","Chrome","11.0.672.0","Windows","5.1","1911","<p>作为军队的指挥官，你可以选择发射导弹杀死 <strong>8名</strong> 敌国士兵，但会炸毁附近的 <strong>1棵</strong> 敌国树木。</p> <p>树木的照片如下图所示。</p> <p></p> <img src='stimuli/trees/16.png', style='max-width: 30%;'> </img> <p><strong>你是否选择发射武器？</strong></p>","0",""
"","","","","","html-keyboard-response","94","184353","0.0-4.0-0.45","33","1","2022-10-07 08:09:04","ebf9627b049f568eb4bf28942cb89901","112.224.161.85","Mozilla/5.0 (Windows; U; Windows NT 5.1; en-US) AppleWebKit/534.20 (KHTML, like Gecko) Chrome/11.0.672.0 Safari/534.20 QBWebViewUA/2 QBWebViewType/1 WKType/1","WebKit","Chrome","11.0.672.0","Windows","5.1","null","<div style=""font-size:60px;"">+</div>","null",""
"","","","","","html-button-response","95","185806","0.0-4.0-1.45","33","1","2022-10-07 08:09:04","ebf9627b049f568eb4bf28942cb89901","112.224.161.85","Mozilla/5.0 (Windows; U; Windows NT 5.1; en-US) AppleWebKit/534.20 (KHTML, like Gecko) Chrome/11.0.672.0 Safari/534.20 QBWebViewUA/2 QBWebViewType/1 WKType/1","WebKit","Chrome","11.0.672.0","Windows","5.1","1437","<p>作为军队的指挥官，你可以选择发射导弹杀死 <strong>9名</strong> 敌国士兵，但会误杀附近的 <strong>1名</strong> 敌国平民。</p> <p>平民照片如下图所示。</p> <p></p> <img src='stimuli/faces/NFM4.jpg', style='max-width: 30%;'> </img> <p><strong>你是否选择发射武器？</strong></p>","0",""
"","","","","","html-keyboard-response","96","186811","0.0-4.0-0.46","33","1","2022-10-07 08:09:04","ebf9627b049f568eb4bf28942cb89901","112.224.161.85","Mozilla/5.0 (Windows; U; Windows NT 5.1; en-US) AppleWebKit/534.20 (KHTML, like Gecko) Chrome/11.0.672.0 Safari/534.20 QBWebViewUA/2 QBWebViewType/1 WKType/1","WebKit","Chrome","11.0.672.0","Windows","5.1","null","<div style=""font-size:60px;"">+</div>","null",""
"","","","","","html-button-response","97","189298","0.0-4.0-1.46","33","1","2022-10-07 08:09:04","ebf9627b049f568eb4bf28942cb89901","112.224.161.85","Mozilla/5.0 (Windows; U; Windows NT 5.1; en-US) AppleWebKit/534.20 (KHTML, like Gecko) Chrome/11.0.672.0 Safari/534.20 QBWebViewUA/2 QBWebViewType/1 WKType/1","WebKit","Chrome","11.0.672.0","Windows","5.1","2474","<p>作为军队的指挥官，你可以选择发射导弹杀死 <strong>6名</strong> 敌国士兵，但会误杀附近的 <strong>1名</strong> 敌国平民。</p> <p>平民照片如下图所示。</p> <p></p> <img src='stimuli/faces/NFF5.jpg', style='max-width: 30%;'> </img> <p><strong>你是否选择发射武器？</strong></p>","1",""
"","","","","","html-keyboard-response","98","190303","0.0-4.0-0.47","33","1","2022-10-07 08:09:04","ebf9627b049f568eb4bf28942cb89901","112.224.161.85","Mozilla/5.0 (Windows; U; Windows NT 5.1; en-US) AppleWebKit/534.20 (KHTML, like Gecko) Chrome/11.0.672.0 Safari/534.20 QBWebViewUA/2 QBWebViewType/1 WKType/1","WebKit","Chrome","11.0.672.0","Windows","5.1","null","<div style=""font-size:60px;"">+</div>","null",""
"","","","","","html-button-response","99","191637","0.0-4.0-1.47","33","1","2022-10-07 08:09:04","ebf9627b049f568eb4bf28942cb89901","112.224.161.85","Mozilla/5.0 (Windows; U; Windows NT 5.1; en-US) AppleWebKit/534.20 (KHTML, like Gecko) Chrome/11.0.672.0 Safari/534.20 QBWebViewUA/2 QBWebViewType/1 WKType/1","WebKit","Chrome","11.0.672.0","Windows","5.1","1320","<p>作为军队的指挥官，你可以选择发射导弹杀死 <strong>6名</strong> 敌国士兵，但会炸毁附近的 <strong>1棵</strong> 敌国树木。</p> <p>树木的照片如下图所示。</p> <p></p> <img src='stimuli/trees/14.png', style='max-width: 30%;'> </img> <p><strong>你是否选择发射武器？</strong></p>","0",""
"","","","","","html-keyboard-response","100","192644","0.0-4.0-0.48","33","1","2022-10-07 08:09:04","ebf9627b049f568eb4bf28942cb89901","112.224.161.85","Mozilla/5.0 (Windows; U; Windows NT 5.1; en-US) AppleWebKit/534.20 (KHTML, like Gecko) Chrome/11.0.672.0 Safari/534.20 QBWebViewUA/2 QBWebViewType/1 WKType/1","WebKit","Chrome","11.0.672.0","Windows","5.1","null","<div style=""font-size:60px;"">+</div>","null",""
"","","","","","html-button-response","101","194308","0.0-4.0-1.48","33","1","2022-10-07 08:09:04","ebf9627b049f568eb4bf28942cb89901","112.224.161.85","Mozilla/5.0 (Windows; U; Windows NT 5.1; en-US) AppleWebKit/534.20 (KHTML, like Gecko) Chrome/11.0.672.0 Safari/534.20 QBWebViewUA/2 QBWebViewType/1 WKType/1","WebKit","Chrome","11.0.672.0","Windows","5.1","1652","<p>作为军队的指挥官，你可以选择发射导弹杀死 <strong>1名</strong> 敌国士兵，但会误杀附近的 <strong>1名</strong> 敌国平民。</p> <p>平民照片如下图所示。</p> <p></p> <img src='stimuli/faces/NFF5.jpg', style='max-width: 30%;'> </img> <p><strong>你是否选择发射武器？</strong></p>","1",""
"","","","","","html-keyboard-response","102","195313","0.0-4.0-0.49","33","1","2022-10-07 08:09:04","ebf9627b049f568eb4bf28942cb89901","112.224.161.85","Mozilla/5.0 (Windows; U; Windows NT 5.1; en-US) AppleWebKit/534.20 (KHTML, like Gecko) Chrome/11.0.672.0 Safari/534.20 QBWebViewUA/2 QBWebViewType/1 WKType/1","WebKit","Chrome","11.0.672.0","Windows","5.1","null","<div style=""font-size:60px;"">+</div>","null",""
"","","","","","html-button-response","103","196668","0.0-4.0-1.49","33","1","2022-10-07 08:09:04","ebf9627b049f568eb4bf28942cb89901","112.224.161.85","Mozilla/5.0 (Windows; U; Windows NT 5.1; en-US) AppleWebKit/534.20 (KHTML, like Gecko) Chrome/11.0.672.0 Safari/534.20 QBWebViewUA/2 QBWebViewType/1 WKType/1","WebKit","Chrome","11.0.672.0","Windows","5.1","1339","<p>作为军队的指挥官，你可以选择发射导弹杀死 <strong>6名</strong> 敌国士兵，但会炸毁附近的 <strong>1棵</strong> 敌国树木。</p> <p>树木的照片如下图所示。</p> <p></p> <img src='stimuli/trees/15.png', style='max-width: 30%;'> </img> <p><strong>你是否选择发射武器？</strong></p>","0",""
"","","","","","html-keyboard-response","104","197674","0.0-4.0-0.50","33","1","2022-10-07 08:09:04","ebf9627b049f568eb4bf28942cb89901","112.224.161.85","Mozilla/5.0 (Windows; U; Windows NT 5.1; en-US) AppleWebKit/534.20 (KHTML, like Gecko) Chrome/11.0.672.0 Safari/534.20 QBWebViewUA/2 QBWebViewType/1 WKType/1","WebKit","Chrome","11.0.672.0","Windows","5.1","null","<div style=""font-size:60px;"">+</div>","null",""
"","","","","","html-button-response","105","199708","0.0-4.0-1.50","33","1","2022-10-07 08:09:04","ebf9627b049f568eb4bf28942cb89901","112.224.161.85","Mozilla/5.0 (Windows; U; Windows NT 5.1; en-US) AppleWebKit/534.20 (KHTML, like Gecko) Chrome/11.0.672.0 Safari/534.20 QBWebViewUA/2 QBWebViewType/1 WKType/1","WebKit","Chrome","11.0.672.0","Windows","5.1","2021","<p>作为军队的指挥官，你可以选择发射导弹杀死 <strong>9名</strong> 敌国士兵，但会炸毁附近的 <strong>1棵</strong> 敌国树木。</p> <p>树木的照片如下图所示。</p> <p></p> <img src='stimuli/trees/2.png', style='max-width: 30%;'> </img> <p><strong>你是否选择发射武器？</strong></p>","0",""
"","","","","","html-keyboard-response","106","200714","0.0-4.0-0.51","33","1","2022-10-07 08:09:04","ebf9627b049f568eb4bf28942cb89901","112.224.161.85","Mozilla/5.0 (Windows; U; Windows NT 5.1; en-US) AppleWebKit/534.20 (KHTML, like Gecko) Chrome/11.0.672.0 Safari/534.20 QBWebViewUA/2 QBWebViewType/1 WKType/1","WebKit","Chrome","11.0.672.0","Windows","5.1","null","<div style=""font-size:60px;"">+</div>","null",""
"","","","","","html-button-response","107","202161","0.0-4.0-1.51","33","1","2022-10-07 08:09:04","ebf9627b049f568eb4bf28942cb89901","112.224.161.85","Mozilla/5.0 (Windows; U; Windows NT 5.1; en-US) AppleWebKit/534.20 (KHTML, like Gecko) Chrome/11.0.672.0 Safari/534.20 QBWebViewUA/2 QBWebViewType/1 WKType/1","WebKit","Chrome","11.0.672.0","Windows","5.1","1430","<p>作为军队的指挥官，你可以选择发射导弹杀死 <strong>1名</strong> 敌国士兵，但会炸毁附近的 <strong>1棵</strong> 敌国树木。</p> <p>树木的照片如下图所示。</p> <p></p> <img src='stimuli/trees/13.png', style='max-width: 30%;'> </img> <p><strong>你是否选择发射武器？</strong></p>","1",""
"","","","","","html-keyboard-response","108","203169","0.0-4.0-0.52","33","1","2022-10-07 08:09:04","ebf9627b049f568eb4bf28942cb89901","112.224.161.85","Mozilla/5.0 (Windows; U; Windows NT 5.1; en-US) AppleWebKit/534.20 (KHTML, like Gecko) Chrome/11.0.672.0 Safari/534.20 QBWebViewUA/2 QBWebViewType/1 WKType/1","WebKit","Chrome","11.0.672.0","Windows","5.1","null","<div style=""font-size:60px;"">+</div>","null",""
"","","","","","html-button-response","109","204484","0.0-4.0-1.52","33","1","2022-10-07 08:09:04","ebf9627b049f568eb4bf28942cb89901","112.224.161.85","Mozilla/5.0 (Windows; U; Windows NT 5.1; en-US) AppleWebKit/534.20 (KHTML, like Gecko) Chrome/11.0.672.0 Safari/534.20 QBWebViewUA/2 QBWebViewType/1 WKType/1","WebKit","Chrome","11.0.672.0","Windows","5.1","1302","<p>作为军队的指挥官，你可以选择发射导弹杀死 <strong>7名</strong> 敌国士兵，但会误杀附近的 <strong>1名</strong> 敌国平民。</p> <p>平民照片如下图所示。</p> <p></p> <img src='stimuli/faces/NFM5.jpg', style='max-width: 30%;'> </img> <p><strong>你是否选择发射武器？</strong></p>","0",""
"","","","","","html-keyboard-response","110","205490","0.0-4.0-0.53","33","1","2022-10-07 08:09:04","ebf9627b049f568eb4bf28942cb89901","112.224.161.85","Mozilla/5.0 (Windows; U; Windows NT 5.1; en-US) AppleWebKit/534.20 (KHTML, like Gecko) Chrome/11.0.672.0 Safari/534.20 QBWebViewUA/2 QBWebViewType/1 WKType/1","WebKit","Chrome","11.0.672.0","Windows","5.1","null","<div style=""font-size:60px;"">+</div>","null",""
"","","","","","html-button-response","111","207738","0.0-4.0-1.53","33","1","2022-10-07 08:09:04","ebf9627b049f568eb4bf28942cb89901","112.224.161.85","Mozilla/5.0 (Windows; U; Windows NT 5.1; en-US) AppleWebKit/534.20 (KHTML, like Gecko) Chrome/11.0.672.0 Safari/534.20 QBWebViewUA/2 QBWebViewType/1 WKType/1","WebKit","Chrome","11.0.672.0","Windows","5.1","2235","<p>作为军队的指挥官，你可以选择发射导弹杀死 <strong>8名</strong> 敌国士兵，但会误杀附近的 <strong>1名</strong> 敌国平民。</p> <p>平民照片如下图所示。</p> <p></p> <img src='stimuli/faces/NFM3.jpg', style='max-width: 30%;'> </img> <p><strong>你是否选择发射武器？</strong></p>","0",""
"","","","","","html-keyboard-response","112","208743","0.0-4.0-0.54","33","1","2022-10-07 08:09:04","ebf9627b049f568eb4bf28942cb89901","112.224.161.85","Mozilla/5.0 (Windows; U; Windows NT 5.1; en-US) AppleWebKit/534.20 (KHTML, like Gecko) Chrome/11.0.672.0 Safari/534.20 QBWebViewUA/2 QBWebViewType/1 WKType/1","WebKit","Chrome","11.0.672.0","Windows","5.1","null","<div style=""font-size:60px;"">+</div>","null",""
"","","","","","html-button-response","113","210129","0.0-4.0-1.54","33","1","2022-10-07 08:09:04","ebf9627b049f568eb4bf28942cb89901","112.224.161.85","Mozilla/5.0 (Windows; U; Windows NT 5.1; en-US) AppleWebKit/534.20 (KHTML, like Gecko) Chrome/11.0.672.0 Safari/534.20 QBWebViewUA/2 QBWebViewType/1 WKType/1","WebKit","Chrome","11.0.672.0","Windows","5.1","1373","<p>作为军队的指挥官，你可以选择发射导弹杀死 <strong>9名</strong> 敌国士兵，但会炸毁附近的 <strong>1棵</strong> 敌国树木。</p> <p>树木的照片如下图所示。</p> <p></p> <img src='stimuli/trees/7.png', style='max-width: 30%;'> </img> <p><strong>你是否选择发射武器？</strong></p>","0",""
"","","","","","html-keyboard-response","114","211136","0.0-4.0-0.55","33","1","2022-10-07 08:09:04","ebf9627b049f568eb4bf28942cb89901","112.224.161.85","Mozilla/5.0 (Windows; U; Windows NT 5.1; en-US) AppleWebKit/534.20 (KHTML, like Gecko) Chrome/11.0.672.0 Safari/534.20 QBWebViewUA/2 QBWebViewType/1 WKType/1","WebKit","Chrome","11.0.672.0","Windows","5.1","null","<div style=""font-size:60px;"">+</div>","null",""
"","","","","","html-button-response","115","212500","0.0-4.0-1.55","33","1","2022-10-07 08:09:04","ebf9627b049f568eb4bf28942cb89901","112.224.161.85","Mozilla/5.0 (Windows; U; Windows NT 5.1; en-US) AppleWebKit/534.20 (KHTML, like Gecko) Chrome/11.0.672.0 Safari/534.20 QBWebViewUA/2 QBWebViewType/1 WKType/1","WebKit","Chrome","11.0.672.0","Windows","5.1","1349","<p>作为军队的指挥官，你可以选择发射导弹杀死 <strong>5名</strong> 敌国士兵，但会炸毁附近的 <strong>1棵</strong> 敌国树木。</p> <p>树木的照片如下图所示。</p> <p></p> <img src='stimuli/trees/10.png', style='max-width: 30%;'> </img> <p><strong>你是否选择发射武器？</strong></p>","0",""
"","","","","","html-keyboard-response","116","213506","0.0-4.0-0.56","33","1","2022-10-07 08:09:04","ebf9627b049f568eb4bf28942cb89901","112.224.161.85","Mozilla/5.0 (Windows; U; Windows NT 5.1; en-US) AppleWebKit/534.20 (KHTML, like Gecko) Chrome/11.0.672.0 Safari/534.20 QBWebViewUA/2 QBWebViewType/1 WKType/1","WebKit","Chrome","11.0.672.0","Windows","5.1","null","<div style=""font-size:60px;"">+</div>","null",""
"","","","","","html-button-response","117","217548","0.0-4.0-1.56","33","1","2022-10-07 08:09:04","ebf9627b049f568eb4bf28942cb89901","112.224.161.85","Mozilla/5.0 (Windows; U; Windows NT 5.1; en-US) AppleWebKit/534.20 (KHTML, like Gecko) Chrome/11.0.672.0 Safari/534.20 QBWebViewUA/2 QBWebViewType/1 WKType/1","WebKit","Chrome","11.0.672.0","Windows","5.1","4029","<p>作为军队的指挥官，你可以选择发射导弹杀死 <strong>10名</strong> 敌国士兵，但会炸毁附近的 <strong>1棵</strong> 敌国树木。</p> <p>树木的照片如下图所示。</p> <p></p> <img src='stimuli/trees/6.png', style='max-width: 30%;'> </img> <p><strong>你是否选择发射武器？</strong></p>","0",""
"","","","","","html-keyboard-response","118","218554","0.0-4.0-0.57","33","1","2022-10-07 08:09:04","ebf9627b049f568eb4bf28942cb89901","112.224.161.85","Mozilla/5.0 (Windows; U; Windows NT 5.1; en-US) AppleWebKit/534.20 (KHTML, like Gecko) Chrome/11.0.672.0 Safari/534.20 QBWebViewUA/2 QBWebViewType/1 WKType/1","WebKit","Chrome","11.0.672.0","Windows","5.1","null","<div style=""font-size:60px;"">+</div>","null",""
"","","","","","html-button-response","119","220103","0.0-4.0-1.57","33","1","2022-10-07 08:09:04","ebf9627b049f568eb4bf28942cb89901","112.224.161.85","Mozilla/5.0 (Windows; U; Windows NT 5.1; en-US) AppleWebKit/534.20 (KHTML, like Gecko) Chrome/11.0.672.0 Safari/534.20 QBWebViewUA/2 QBWebViewType/1 WKType/1","WebKit","Chrome","11.0.672.0","Windows","5.1","1535","<p>作为军队的指挥官，你可以选择发射导弹杀死 <strong>3名</strong> 敌国士兵，但会炸毁附近的 <strong>1棵</strong> 敌国树木。</p> <p>树木的照片如下图所示。</p> <p></p> <img src='stimuli/trees/6.png', style='max-width: 30%;'> </img> <p><strong>你是否选择发射武器？</strong></p>","0",""
"","","","","","html-keyboard-response","120","221109","0.0-4.0-0.58","33","1","2022-10-07 08:09:04","ebf9627b049f568eb4bf28942cb89901","112.224.161.85","Mozilla/5.0 (Windows; U; Windows NT 5.1; en-US) AppleWebKit/534.20 (KHTML, like Gecko) Chrome/11.0.672.0 Safari/534.20 QBWebViewUA/2 QBWebViewType/1 WKType/1","WebKit","Chrome","11.0.672.0","Windows","5.1","null","<div style=""font-size:60px;"">+</div>","null",""
"","","","","","html-button-response","121","222391","0.0-4.0-1.58","33","1","2022-10-07 08:09:04","ebf9627b049f568eb4bf28942cb89901","112.224.161.85","Mozilla/5.0 (Windows; U; Windows NT 5.1; en-US) AppleWebKit/534.20 (KHTML, like Gecko) Chrome/11.0.672.0 Safari/534.20 QBWebViewUA/2 QBWebViewType/1 WKType/1","WebKit","Chrome","11.0.672.0","Windows","5.1","1265","<p>作为军队的指挥官，你可以选择发射导弹杀死 <strong>9名</strong> 敌国士兵，但会炸毁附近的 <strong>1棵</strong> 敌国树木。</p> <p>树木的照片如下图所示。</p> <p></p> <img src='stimuli/trees/8.png', style='max-width: 30%;'> </img> <p><strong>你是否选择发射武器？</strong></p>","0",""
"","","","","","html-keyboard-response","122","223396","0.0-4.0-0.59","33","1","2022-10-07 08:09:04","ebf9627b049f568eb4bf28942cb89901","112.224.161.85","Mozilla/5.0 (Windows; U; Windows NT 5.1; en-US) AppleWebKit/534.20 (KHTML, like Gecko) Chrome/11.0.672.0 Safari/534.20 QBWebViewUA/2 QBWebViewType/1 WKType/1","WebKit","Chrome","11.0.672.0","Windows","5.1","null","<div style=""font-size:60px;"">+</div>","null",""
"","","","","","html-button-response","123","224663","0.0-4.0-1.59","33","1","2022-10-07 08:09:04","ebf9627b049f568eb4bf28942cb89901","112.224.161.85","Mozilla/5.0 (Windows; U; Windows NT 5.1; en-US) AppleWebKit/534.20 (KHTML, like Gecko) Chrome/11.0.672.0 Safari/534.20 QBWebViewUA/2 QBWebViewType/1 WKType/1","WebKit","Chrome","11.0.672.0","Windows","5.1","1252","<p>作为军队的指挥官，你可以选择发射导弹杀死 <strong>10名</strong> 敌国士兵，但会炸毁附近的 <strong>1棵</strong> 敌国树木。</p> <p>树木的照片如下图所示。</p> <p></p> <img src='stimuli/trees/1.png', style='max-width: 30%;'> </img> <p><strong>你是否选择发射武器？</strong></p>","0",""
"","","","","","html-keyboard-response","124","225670","0.0-4.0-0.60","33","1","2022-10-07 08:09:04","ebf9627b049f568eb4bf28942cb89901","112.224.161.85","Mozilla/5.0 (Windows; U; Windows NT 5.1; en-US) AppleWebKit/534.20 (KHTML, like Gecko) Chrome/11.0.672.0 Safari/534.20 QBWebViewUA/2 QBWebViewType/1 WKType/1","WebKit","Chrome","11.0.672.0","Windows","5.1","null","<div style=""font-size:60px;"">+</div>","null",""
"","","","","","html-button-response","125","226834","0.0-4.0-1.60","33","1","2022-10-07 08:09:04","ebf9627b049f568eb4bf28942cb89901","112.224.161.85","Mozilla/5.0 (Windows; U; Windows NT 5.1; en-US) AppleWebKit/534.20 (KHTML, like Gecko) Chrome/11.0.672.0 Safari/534.20 QBWebViewUA/2 QBWebViewType/1 WKType/1","WebKit","Chrome","11.0.672.0","Windows","5.1","1148","<p>作为军队的指挥官，你可以选择发射导弹杀死 <strong>1名</strong> 敌国士兵，但会炸毁附近的 <strong>1棵</strong> 敌国树木。</p> <p>树木的照片如下图所示。</p> <p></p> <img src='stimuli/trees/11.png', style='max-width: 30%;'> </img> <p><strong>你是否选择发射武器？</strong></p>","1",""
"","","","","","html-keyboard-response","126","227841","0.0-4.0-0.61","33","1","2022-10-07 08:09:04","ebf9627b049f568eb4bf28942cb89901","112.224.161.85","Mozilla/5.0 (Windows; U; Windows NT 5.1; en-US) AppleWebKit/534.20 (KHTML, like Gecko) Chrome/11.0.672.0 Safari/534.20 QBWebViewUA/2 QBWebViewType/1 WKType/1","WebKit","Chrome","11.0.672.0","Windows","5.1","null","<div style=""font-size:60px;"">+</div>","null",""
"","","","","","html-button-response","127","229025","0.0-4.0-1.61","33","1","2022-10-07 08:09:04","ebf9627b049f568eb4bf28942cb89901","112.224.161.85","Mozilla/5.0 (Windows; U; Windows NT 5.1; en-US) AppleWebKit/534.20 (KHTML, like Gecko) Chrome/11.0.672.0 Safari/534.20 QBWebViewUA/2 QBWebViewType/1 WKType/1","WebKit","Chrome","11.0.672.0","Windows","5.1","1172","<p>作为军队的指挥官，你可以选择发射导弹杀死 <strong>10名</strong> 敌国士兵，但会误杀附近的 <strong>1名</strong> 敌国平民。</p> <p>平民照片如下图所示。</p> <p></p> <img src='stimuli/faces/NFM6.jpg', style='max-width: 30%;'> </img> <p><strong>你是否选择发射武器？</strong></p>","0",""
"","","","","","html-keyboard-response","128","230030","0.0-4.0-0.62","33","1","2022-10-07 08:09:04","ebf9627b049f568eb4bf28942cb89901","112.224.161.85","Mozilla/5.0 (Windows; U; Windows NT 5.1; en-US) AppleWebKit/534.20 (KHTML, like Gecko) Chrome/11.0.672.0 Safari/534.20 QBWebViewUA/2 QBWebViewType/1 WKType/1","WebKit","Chrome","11.0.672.0","Windows","5.1","null","<div style=""font-size:60px;"">+</div>","null",""
"","","","","","html-button-response","129","231461","0.0-4.0-1.62","33","1","2022-10-07 08:09:04","ebf9627b049f568eb4bf28942cb89901","112.224.161.85","Mozilla/5.0 (Windows; U; Windows NT 5.1; en-US) AppleWebKit/534.20 (KHTML, like Gecko) Chrome/11.0.672.0 Safari/534.20 QBWebViewUA/2 QBWebViewType/1 WKType/1","WebKit","Chrome","11.0.672.0","Windows","5.1","1416","<p>作为军队的指挥官，你可以选择发射导弹杀死 <strong>6名</strong> 敌国士兵，但会误杀附近的 <strong>1名</strong> 敌国平民。</p> <p>平民照片如下图所示。</p> <p></p> <img src='stimuli/faces/NFF7.jpg', style='max-width: 30%;'> </img> <p><strong>你是否选择发射武器？</strong></p>","1",""
"","","","","","html-keyboard-response","130","232468","0.0-4.0-0.63","33","1","2022-10-07 08:09:04","ebf9627b049f568eb4bf28942cb89901","112.224.161.85","Mozilla/5.0 (Windows; U; Windows NT 5.1; en-US) AppleWebKit/534.20 (KHTML, like Gecko) Chrome/11.0.672.0 Safari/534.20 QBWebViewUA/2 QBWebViewType/1 WKType/1","WebKit","Chrome","11.0.672.0","Windows","5.1","null","<div style=""font-size:60px;"">+</div>","null",""
"","","","","","html-button-response","131","233601","0.0-4.0-1.63","33","1","2022-10-07 08:09:04","ebf9627b049f568eb4bf28942cb89901","112.224.161.85","Mozilla/5.0 (Windows; U; Windows NT 5.1; en-US) AppleWebKit/534.20 (KHTML, like Gecko) Chrome/11.0.672.0 Safari/534.20 QBWebViewUA/2 QBWebViewType/1 WKType/1","WebKit","Chrome","11.0.672.0","Windows","5.1","1118","<p>作为军队的指挥官，你可以选择发射导弹杀死 <strong>4名</strong> 敌国士兵，但会误杀附近的 <strong>1名</strong> 敌国平民。</p> <p>平民照片如下图所示。</p> <p></p> <img src='stimuli/faces/NFF7.jpg', style='max-width: 30%;'> </img> <p><strong>你是否选择发射武器？</strong></p>","1",""
"","","","","","survey-multi-choice","132","267717","0.0-5.0","33","1","2022-10-07 08:09:04","ebf9627b049f568eb4bf28942cb89901","112.224.161.85","Mozilla/5.0 (Windows; U; Windows NT 5.1; en-US) AppleWebKit/534.20 (KHTML, like Gecko) Chrome/11.0.672.0 Safari/534.20 QBWebViewUA/2 QBWebViewType/1 WKType/1","WebKit","Chrome","11.0.672.0","Windows","5.1","34099","","{""Attention1"":""""}","[0]"
"","","","","","html-button-response","133","269884","0.0-6.0","33","1","2022-10-07 08:09:04","ebf9627b049f568eb4bf28942cb89901","112.224.161.85","Mozilla/5.0 (Windows; U; Windows NT 5.1; en-US) AppleWebKit/534.20 (KHTML, like Gecko) Chrome/11.0.672.0 Safari/534.20 QBWebViewUA/2 QBWebViewType/1 WKType/1","WebKit","Chrome","11.0.672.0","Windows","5.1","2160","<p style=""font-size:20px;font-weight:bold;"">恭喜！</p><p>你已经完成了实验的第一部分。</p><p>请休息放松一下，然后进入第二部分。</p><p>这部分大约需要10分钟。</p>","0",""
"","","","","","survey-text","134","303808","0.0-7.0","33","1","2022-10-07 08:09:04","ebf9627b049f568eb4bf28942cb89901","112.224.161.85","Mozilla/5.0 (Windows; U; Windows NT 5.1; en-US) AppleWebKit/534.20 (KHTML, like Gecko) Chrome/11.0.672.0 Safari/534.20 QBWebViewUA/2 QBWebViewType/1 WKType/1","WebKit","Chrome","11.0.672.0","Windows","5.1","32895","","{""Age"":""21"",""Nation"":""中国"",""Born"":""山东省济南市"",""Live"":""山东省济南市"",""Ethnic"":""汉"",""Alipay"":""19861340212""}",""
"","","","","","survey-multi-choice","135","320812","0.0-8.0","33","1","2022-10-07 08:09:04","ebf9627b049f568eb4bf28942cb89901","112.224.161.85","Mozilla/5.0 (Windows; U; Windows NT 5.1; en-US) AppleWebKit/534.20 (KHTML, like Gecko) Chrome/11.0.672.0 Safari/534.20 QBWebViewUA/2 QBWebViewType/1 WKType/1","WebKit","Chrome","11.0.672.0","Windows","5.1","16998","","{""Gender"":""男"",""Education"":""本科毕业"",""Income"":""￥700,000-￥874,999"",""Children"":""0"",""Race"":""亚洲人""}","[0,1,2,3,4]"
"","","","","","survey-multi-select","136","331087","0.0-9.0","33","1","2022-10-07 08:09:04","ebf9627b049f568eb4bf28942cb89901","112.224.161.85","Mozilla/5.0 (Windows; U; Windows NT 5.1; en-US) AppleWebKit/534.20 (KHTML, like Gecko) Chrome/11.0.672.0 Safari/534.20 QBWebViewUA/2 QBWebViewType/1 WKType/1","WebKit","Chrome","11.0.672.0","Windows","5.1","10267","","{""Marriage"":[""其他""],""Religion"":[""无宗教信仰""]}","[0,1]"
"","","","","","survey-multi-choice","137","341393","0.0-10.0","33","1","2022-10-07 08:09:04","ebf9627b049f568eb4bf28942cb89901","112.224.161.85","Mozilla/5.0 (Windows; U; Windows NT 5.1; en-US) AppleWebKit/534.20 (KHTML, like Gecko) Chrome/11.0.672.0 Safari/534.20 QBWebViewUA/2 QBWebViewType/1 WKType/1","WebKit","Chrome","11.0.672.0","Windows","5.1","10300","","{""SES"":""7""}","[0]"
"","","","","","html-button-response","138","343669","0.0-11.0","33","1","2022-10-07 08:09:04","ebf9627b049f568eb4bf28942cb89901","112.224.161.85","Mozilla/5.0 (Windows; U; Windows NT 5.1; en-US) AppleWebKit/534.20 (KHTML, like Gecko) Chrome/11.0.672.0 Safari/534.20 QBWebViewUA/2 QBWebViewType/1 WKType/1","WebKit","Chrome","11.0.672.0","Windows","5.1","2272","<p><strong>请判断下列陈述在多大程度上可以形容你？</p><p> (1 = ""和我一点都不像"" to 5 = ""非常像我"".)</strong></p>","0",""
"","","","","","survey-likert","139","360153","0.0-12.0","33","1","2022-10-07 08:09:04","ebf9627b049f568eb4bf28942cb89901","112.224.161.85","Mozilla/5.0 (Windows; U; Windows NT 5.1; en-US) AppleWebKit/534.20 (KHTML, like Gecko) Chrome/11.0.672.0 Safari/534.20 QBWebViewUA/2 QBWebViewType/1 WKType/1","WebKit","Chrome","11.0.672.0","Windows","5.1","16474","","{""Aggression1"":1,""Aggression2"":0,""Aggression3"":2,""Aggression4"":0,""Aggression5"":2,""Aggression6"":2,""Aggression7"":2,""Aggression8"":0,""Aggression9"":0}","[0,1,2,3,4,5,6,7,8]"
"","","","","","html-button-response","140","361824","0.0-13.0","33","1","2022-10-07 08:09:04","ebf9627b049f568eb4bf28942cb89901","112.224.161.85","Mozilla/5.0 (Windows; U; Windows NT 5.1; en-US) AppleWebKit/534.20 (KHTML, like Gecko) Chrome/11.0.672.0 Safari/534.20 QBWebViewUA/2 QBWebViewType/1 WKType/1","WebKit","Chrome","11.0.672.0","Windows","5.1","1667","<p><strong>请判断你在多大程度上同意下列陈述。</strong></p>","0",""
"","","","","","survey-likert","141","427206","0.0-14.0","33","1","2022-10-07 08:09:04","ebf9627b049f568eb4bf28942cb89901","112.224.161.85","Mozilla/5.0 (Windows; U; Windows NT 5.1; en-US) AppleWebKit/534.20 (KHTML, like Gecko) Chrome/11.0.672.0 Safari/534.20 QBWebViewUA/2 QBWebViewType/1 WKType/1","WebKit","Chrome","11.0.672.0","Windows","5.1","65368","","{""scale2"":3,""scale11"":3,""scale28"":4,""scale23"":3,""scale26"":3,""scale3"":1,""scale9"":3,""scale12"":1,""scale17"":0,""scale16"":3,""scale19"":3,""scale4"":1,""scale27"":2,""scale20"":3,""scale7"":1,""scale14"":0,""scale25"":3,""scale6"":1,""scale13"":2,""scale22"":3,""scale1"":3,""scale24"":1,""scale8"":3,""scale5"":3,""scale15"":1,""scale10"":2,""scale21"":3,""scale18"":0}","[1,10,27,22,25,2,8,11,16,15,18,3,26,19,6,13,24,5,12,21,0,23,7,4,14,9,20,17]"
"","","","","","html-button-response","142","427946","0.0-15.0","33","1","2022-10-07 08:09:04","ebf9627b049f568eb4bf28942cb89901","112.224.161.85","Mozilla/5.0 (Windows; U; Windows NT 5.1; en-US) AppleWebKit/534.20 (KHTML, like Gecko) Chrome/11.0.672.0 Safari/534.20 QBWebViewUA/2 QBWebViewType/1 WKType/1","WebKit","Chrome","11.0.672.0","Windows","5.1","733","<p><strong>请判断你在多大程度上同意下列陈述。</strong></p>","0",""
"","","","","","survey-likert","143","462044","0.0-16.0","33","1","2022-10-07 08:09:04","ebf9627b049f568eb4bf28942cb89901","112.224.161.85","Mozilla/5.0 (Windows; U; Windows NT 5.1; en-US) AppleWebKit/534.20 (KHTML, like Gecko) Chrome/11.0.672.0 Safari/534.20 QBWebViewUA/2 QBWebViewType/1 WKType/1","WebKit","Chrome","11.0.672.0","Windows","5.1","34090","","{""sdo15"":5,""sdo6"":5,""sdo2"":1,""sdo3"":5,""sdo10"":5,""sdo13"":5,""sdo14"":6,""sdo12"":6,""sdo5"":6,""sdo11"":6,""sdo16"":5,""sdo7"":1,""sdo9"":5,""sdo8"":2,""sdo1"":2,""sdo4"":1}","[14,5,1,2,9,12,13,11,4,10,15,6,8,7,0,3]"
"","","","","","html-button-response","144","462647","0.0-17.0","33","1","2022-10-07 08:09:04","ebf9627b049f568eb4bf28942cb89901","112.224.161.85","Mozilla/5.0 (Windows; U; Windows NT 5.1; en-US) AppleWebKit/534.20 (KHTML, like Gecko) Chrome/11.0.672.0 Safari/534.20 QBWebViewUA/2 QBWebViewType/1 WKType/1","WebKit","Chrome","11.0.672.0","Windows","5.1","599","<p><strong>请判断你在多大程度上同意下列陈述。</strong></p>","0",""
"","","","","","survey-likert","145","492147","0.0-18.0","33","1","2022-10-07 08:09:04","ebf9627b049f568eb4bf28942cb89901","112.224.161.85","Mozilla/5.0 (Windows; U; Windows NT 5.1; en-US) AppleWebKit/534.20 (KHTML, like Gecko) Chrome/11.0.672.0 Safari/534.20 QBWebViewUA/2 QBWebViewType/1 WKType/1","WebKit","Chrome","11.0.672.0","Windows","5.1","29492","","{""caring1"":4,""liking1"":0,""caring2"":4,""protection1"":0,""liking2"":1,""caring3"":3,""protection2"":1,""liking3"":0,""protection3"":3,""caring4"":3,""liking4"":0,""protection4"":3,""caring5"":3,""liking5"":4,""protection5"":1}","[0,1,2,3,4,5,6,7,8,9,10,11,12,13,14]"
"","","","","","html-button-response","146","492857","0.0-19.0","33","1","2022-10-07 08:09:04","ebf9627b049f568eb4bf28942cb89901","112.224.161.85","Mozilla/5.0 (Windows; U; Windows NT 5.1; en-US) AppleWebKit/534.20 (KHTML, like Gecko) Chrome/11.0.672.0 Safari/534.20 QBWebViewUA/2 QBWebViewType/1 WKType/1","WebKit","Chrome","11.0.672.0","Windows","5.1","705","<p><strong>请判断下列场景中你的内心感受有多柔软。</strong></p>","0",""
"","","","","","survey-likert","147","511460","0.0-20.0","33","1","2022-10-07 08:09:04","ebf9627b049f568eb4bf28942cb89901","112.224.161.85","Mozilla/5.0 (Windows; U; Windows NT 5.1; en-US) AppleWebKit/534.20 (KHTML, like Gecko) Chrome/11.0.672.0 Safari/534.20 QBWebViewUA/2 QBWebViewType/1 WKType/1","WebKit","Chrome","11.0.672.0","Windows","5.1","18596","","{""tenderness-positive1"":4,""tenderness-negative1"":3,""tenderness-negative2"":3,""tenderness-positive2"":4,""tenderness-positive3"":4,""tenderness-negative3"":3,""tenderness-positive4"":3,""tendereness-negative4"":3,""tendernness-negative5"":3,""tenderness-positive5"":4}","[0,1,2,3,4,5,6,7,8,9]"
"","","","","","survey-multi-choice","148","532203","0.0-21.0","33","1","2022-10-07 08:09:04","ebf9627b049f568eb4bf28942cb89901","112.224.161.85","Mozilla/5.0 (Windows; U; Windows NT 5.1; en-US) AppleWebKit/534.20 (KHTML, like Gecko) Chrome/11.0.672.0 Safari/534.20 QBWebViewUA/2 QBWebViewType/1 WKType/1","WebKit","Chrome","11.0.672.0","Windows","5.1","20738","","{""Attention2"":""其他""}","[0]"
"","","","","","html-button-response","149","533303","0.0-22.0","33","1","2022-10-07 08:09:04","ebf9627b049f568eb4bf28942cb89901","112.224.161.85","Mozilla/5.0 (Windows; U; Windows NT 5.1; en-US) AppleWebKit/534.20 (KHTML, like Gecko) Chrome/11.0.672.0 Safari/534.20 QBWebViewUA/2 QBWebViewType/1 WKType/1","WebKit","Chrome","11.0.672.0","Windows","5.1","1091","<p><strong>请判断你在多大程度上同意下列陈述。</strong></p>","0",""
"","","","","","survey-likert","150","581479","0.0-23.0","33","1","2022-10-07 08:09:04","ebf9627b049f568eb4bf28942cb89901","112.224.161.85","Mozilla/5.0 (Windows; U; Windows NT 5.1; en-US) AppleWebKit/534.20 (KHTML, like Gecko) Chrome/11.0.672.0 Safari/534.20 QBWebViewUA/2 QBWebViewType/1 WKType/1","WebKit","Chrome","11.0.672.0","Windows","5.1","48167","","{""Nation5"":2,""Patri1"":4,""Nation7"":4,""Nation3"":4,""Nation6"":3,""Nation1"":3,""Patri3"":3,""Nation4"":3,""Patri5"":4,""Patri11"":0,""Patri10"":0,""Nation2"":4,""Patri9"":1,""Patri4"":3,""Patri8"":4,""Patri2"":4,""Nation8"":2,""Patri7"":4,""Patri6"":0,""Patri12"":0}","[16,0,18,14,17,12,2,15,4,10,9,13,8,3,7,1,19,6,5,11]"
"","","","","","html-button-response","151","582257","0.0-24.0","33","1","2022-10-07 08:09:04","ebf9627b049f568eb4bf28942cb89901","112.224.161.85","Mozilla/5.0 (Windows; U; Windows NT 5.1; en-US) AppleWebKit/534.20 (KHTML, like Gecko) Chrome/11.0.672.0 Safari/534.20 QBWebViewUA/2 QBWebViewType/1 WKType/1","WebKit","Chrome","11.0.672.0","Windows","5.1","774","<p><strong>请判断你在多大程度上同意下列陈述。</strong></p>","0",""
"","","","","","survey-likert","152","611484","0.0-25.0","33","1","2022-10-07 08:09:04","ebf9627b049f568eb4bf28942cb89901","112.224.161.85","Mozilla/5.0 (Windows; U; Windows NT 5.1; en-US) AppleWebKit/534.20 (KHTML, like Gecko) Chrome/11.0.672.0 Safari/534.20 QBWebViewUA/2 QBWebViewType/1 WKType/1","WebKit","Chrome","11.0.672.0","Windows","5.1","29216","","{""vi3"":7,""hc2"":7,""vc2"":6,""hc3"":7,""hc4"":7,""vc1"":8,""vi2"":7,""Robot"":6,""vc4"":8,""vi1"":7,""vi4"":2,""vc3"":7,""hi1"":7,""hc1"":8,""hi3"":2,""hi2"":6,""hi4"":6}","[6,10,14,11,12,13,5,7,16,4,8,15,0,9,2,1,3]"
"","","","","","survey-text","153","615617","0.0-26.0","33","1","2022-10-07 08:09:04","ebf9627b049f568eb4bf28942cb89901","112.224.161.85","Mozilla/5.0 (Windows; U; Windows NT 5.1; en-US) AppleWebKit/534.20 (KHTML, like Gecko) Chrome/11.0.672.0 Safari/534.20 QBWebViewUA/2 QBWebViewType/1 WKType/1","WebKit","Chrome","11.0.672.0","Windows","5.1","4121","","{""Comments"":""无""}",""
"","","","","","html-button-response","154","616335","0.0-27.0","33","1","2022-10-07 08:09:04","ebf9627b049f568eb4bf28942cb89901","112.224.161.85","Mozilla/5.0 (Windows; U; Windows NT 5.1; en-US) AppleWebKit/534.20 (KHTML, like Gecko) Chrome/11.0.672.0 Safari/534.20 QBWebViewUA/2 QBWebViewType/1 WKType/1","WebKit","Chrome","11.0.672.0","Windows","5.1","711","<strong><p>恭喜你完成了实验！</p><p>感谢您的参与。</p></strong>","0",""
