"success","timeout","failed_images","failed_audio","failed_video","trial_type","trial_index","time_elapsed","internal_node_id","run_id","condition","recorded_at","source_code_version","ip","user_agent","device","browser","browser_version","platform","platform_version","rt","stimulus","response","question_order"
"true","false","[]","[]","[]","preload","0","1495","0.0-0.0","38","1","2022-10-07 11:25:31","ebf9627b049f568eb4bf28942cb89901","111.8.72.58","Mozilla/5.0 (Windows NT 10.0; Win64; x64) AppleWebKit/537.36 (KHTML, like Gecko) Chrome/99.0.4844.51 Safari/537.36","WebKit","Chrome","99.0.4844.51","Windows","10.0","","","",""
"true","","","","","fullscreen","1","9446","0.0-1.0","38","1","2022-10-07 11:25:31","ebf9627b049f568eb4bf28942cb89901","111.8.72.58","Mozilla/5.0 (Windows NT 10.0; Win64; x64) AppleWebKit/537.36 (KHTML, like Gecko) Chrome/99.0.4844.51 Safari/537.36","WebKit","Chrome","99.0.4844.51","Windows","10.0","","","",""
"","","","","","html-button-response","2","59348","0.0-2.0","38","1","2022-10-07 11:25:31","ebf9627b049f568eb4bf28942cb89901","111.8.72.58","Mozilla/5.0 (Windows NT 10.0; Win64; x64) AppleWebKit/537.36 (KHTML, like Gecko) Chrome/99.0.4844.51 Safari/537.36","WebKit","Chrome","99.0.4844.51","Windows","10.0","49899","<p style=""font-size:20px;font-weight:bold;"">实验知情同意书</p><p style=""text-align:left;""><strong>实验名称：</strong>社会冲突研究</p><p style=""text-align:left;""><strong>主要研究者：</strong>韩晓春副教授（北京师范大学心理学部）</p><p style=""text-align:left;""><strong>联系方式：</strong>发送邮件至xiaochun.han@bnu.edu.cn</p><p style=""text-align:left;""><strong>研究目的：</strong>研究旨在了解人类面对群体冲突时的决策方式，以及相关的心理学特质。实验调查大约需要20分钟。</p><p style=""text-align:left;""><strong>实验流程：</strong>实验包含两部分。第一部分呈现一系列群体冲突场景，请你决定如何对这些冲突进行反应，大约需要10分钟完成。第二部分包含一系列人口统计学信息收集和心理学问卷，大约需要10分钟完成。</p><p style=""text-align:left;""><strong>参加及退出规则：</strong>参加本实验完全取决于您的个人意愿。在参与过程中，您可以随时退出，并且不用承担任何后果。</p><p style=""text-align:left;""><strong>隐私：</strong>本实验完全匿名进行，不会收集您的姓名或其他能够识别您身份的信息。实验中收集的作答仅用作科学研究使用，可能会在学术期刊/书籍上发表，或者用于教学，您的数据未来可能会和其他研究者或实验室分享，但您的个人身份不会被识别。</p><p style=""text-align:left;""><strong>实验报酬：</strong>实验完成后，您将获得15元人民币报酬，以感谢您的时间和努力。调查问卷中包含几道题目用以测验您作答时的认真度。只有完成全部实验，并且正确回答认真度测验的被试才能获得实验报酬。实验报酬将通过支付宝转账发放。</p><p style=""text-align:left;font-size:20px;""><strong>如果您同意以上实验知情同意书的内容，请点击'同意并且开始实验'按钮；否则请关闭浏览器界面，退出实验。</strong></p>","0",""
"","","","","","html-button-response","3","75019","0.0-3.0","38","1","2022-10-07 11:25:31","ebf9627b049f568eb4bf28942cb89901","111.8.72.58","Mozilla/5.0 (Windows NT 10.0; Win64; x64) AppleWebKit/537.36 (KHTML, like Gecko) Chrome/99.0.4844.51 Safari/537.36","WebKit","Chrome","99.0.4844.51","Windows","10.0","15669","<p ><strong>实验任务一：</strong></p><p>请想象你的国家与另一个国家发生了军事冲突。</p><p>你是国家军队的指挥官，你将如何在冲突中进行决策。</p><p>具体来说，作为军队指挥官，请你决定是否发射导弹进行打击。</p><p>接下来，你会面对一系列场景，请仔细阅读每个场景，然后进行决策。</p><p>这部分实验任务大约需要10分钟。</p><p><strong>实验过程中，请集中注意力。</strong></p>","0",""
"","","","","","html-keyboard-response","4","76026","0.0-4.0-0.0","38","1","2022-10-07 11:25:31","ebf9627b049f568eb4bf28942cb89901","111.8.72.58","Mozilla/5.0 (Windows NT 10.0; Win64; x64) AppleWebKit/537.36 (KHTML, like Gecko) Chrome/99.0.4844.51 Safari/537.36","WebKit","Chrome","99.0.4844.51","Windows","10.0","null","<div style=""font-size:60px;"">+</div>","null",""
"","","","","","html-button-response","5","94961","0.0-4.0-1.0","38","1","2022-10-07 11:25:31","ebf9627b049f568eb4bf28942cb89901","111.8.72.58","Mozilla/5.0 (Windows NT 10.0; Win64; x64) AppleWebKit/537.36 (KHTML, like Gecko) Chrome/99.0.4844.51 Safari/537.36","WebKit","Chrome","99.0.4844.51","Windows","10.0","18933","<p>作为军队的指挥官，你可以选择发射导弹杀死 <strong>9名</strong> 敌国士兵，但会误杀附近的 <strong>1名</strong> 敌国平民。</p> <p>平民照片如下图所示。</p> <p></p> <img src='stimuli/faces/NFM1.jpg', style='max-width: 30%;'> </img> <p><strong>你是否选择发射武器？</strong></p>","0",""
"","","","","","html-keyboard-response","6","95964","0.0-4.0-0.1","38","1","2022-10-07 11:25:31","ebf9627b049f568eb4bf28942cb89901","111.8.72.58","Mozilla/5.0 (Windows NT 10.0; Win64; x64) AppleWebKit/537.36 (KHTML, like Gecko) Chrome/99.0.4844.51 Safari/537.36","WebKit","Chrome","99.0.4844.51","Windows","10.0","null","<div style=""font-size:60px;"">+</div>","null",""
"","","","","","html-button-response","7","99893","0.0-4.0-1.1","38","1","2022-10-07 11:25:31","ebf9627b049f568eb4bf28942cb89901","111.8.72.58","Mozilla/5.0 (Windows NT 10.0; Win64; x64) AppleWebKit/537.36 (KHTML, like Gecko) Chrome/99.0.4844.51 Safari/537.36","WebKit","Chrome","99.0.4844.51","Windows","10.0","3927","<p>作为军队的指挥官，你可以选择发射导弹杀死 <strong>2名</strong> 敌国士兵，但会误杀附近的 <strong>1名</strong> 敌国平民。</p> <p>平民照片如下图所示。</p> <p></p> <img src='stimuli/faces/NFM1.jpg', style='max-width: 30%;'> </img> <p><strong>你是否选择发射武器？</strong></p>","0",""
"","","","","","html-keyboard-response","8","100896","0.0-4.0-0.2","38","1","2022-10-07 11:25:31","ebf9627b049f568eb4bf28942cb89901","111.8.72.58","Mozilla/5.0 (Windows NT 10.0; Win64; x64) AppleWebKit/537.36 (KHTML, like Gecko) Chrome/99.0.4844.51 Safari/537.36","WebKit","Chrome","99.0.4844.51","Windows","10.0","null","<div style=""font-size:60px;"">+</div>","null",""
"","","","","","html-button-response","9","106051","0.0-4.0-1.2","38","1","2022-10-07 11:25:31","ebf9627b049f568eb4bf28942cb89901","111.8.72.58","Mozilla/5.0 (Windows NT 10.0; Win64; x64) AppleWebKit/537.36 (KHTML, like Gecko) Chrome/99.0.4844.51 Safari/537.36","WebKit","Chrome","99.0.4844.51","Windows","10.0","5153","<p>作为军队的指挥官，你可以选择发射导弹杀死 <strong>2名</strong> 敌国士兵，但会误杀附近的 <strong>1名</strong> 敌国平民。</p> <p>平民照片如下图所示。</p> <p></p> <img src='stimuli/faces/NFF7.jpg', style='max-width: 30%;'> </img> <p><strong>你是否选择发射武器？</strong></p>","0",""
"","","","","","html-keyboard-response","10","107059","0.0-4.0-0.3","38","1","2022-10-07 11:25:31","ebf9627b049f568eb4bf28942cb89901","111.8.72.58","Mozilla/5.0 (Windows NT 10.0; Win64; x64) AppleWebKit/537.36 (KHTML, like Gecko) Chrome/99.0.4844.51 Safari/537.36","WebKit","Chrome","99.0.4844.51","Windows","10.0","null","<div style=""font-size:60px;"">+</div>","null",""
"","","","","","html-button-response","11","110219","0.0-4.0-1.3","38","1","2022-10-07 11:25:31","ebf9627b049f568eb4bf28942cb89901","111.8.72.58","Mozilla/5.0 (Windows NT 10.0; Win64; x64) AppleWebKit/537.36 (KHTML, like Gecko) Chrome/99.0.4844.51 Safari/537.36","WebKit","Chrome","99.0.4844.51","Windows","10.0","3158","<p>作为军队的指挥官，你可以选择发射导弹杀死 <strong>10名</strong> 敌国士兵，但会误杀附近的 <strong>1名</strong> 敌国平民。</p> <p>平民照片如下图所示。</p> <p></p> <img src='stimuli/faces/NFM5.jpg', style='max-width: 30%;'> </img> <p><strong>你是否选择发射武器？</strong></p>","0",""
"","","","","","html-keyboard-response","12","111228","0.0-4.0-0.4","38","1","2022-10-07 11:25:31","ebf9627b049f568eb4bf28942cb89901","111.8.72.58","Mozilla/5.0 (Windows NT 10.0; Win64; x64) AppleWebKit/537.36 (KHTML, like Gecko) Chrome/99.0.4844.51 Safari/537.36","WebKit","Chrome","99.0.4844.51","Windows","10.0","null","<div style=""font-size:60px;"">+</div>","null",""
"","","","","","html-button-response","13","115401","0.0-4.0-1.4","38","1","2022-10-07 11:25:31","ebf9627b049f568eb4bf28942cb89901","111.8.72.58","Mozilla/5.0 (Windows NT 10.0; Win64; x64) AppleWebKit/537.36 (KHTML, like Gecko) Chrome/99.0.4844.51 Safari/537.36","WebKit","Chrome","99.0.4844.51","Windows","10.0","4171","<p>作为军队的指挥官，你可以选择发射导弹杀死 <strong>8名</strong> 敌国士兵，但会误杀附近的 <strong>1名</strong> 敌国平民。</p> <p>平民照片如下图所示。</p> <p></p> <img src='stimuli/faces/NFF7.jpg', style='max-width: 30%;'> </img> <p><strong>你是否选择发射武器？</strong></p>","0",""
"","","","","","html-keyboard-response","14","116404","0.0-4.0-0.5","38","1","2022-10-07 11:25:31","ebf9627b049f568eb4bf28942cb89901","111.8.72.58","Mozilla/5.0 (Windows NT 10.0; Win64; x64) AppleWebKit/537.36 (KHTML, like Gecko) Chrome/99.0.4844.51 Safari/537.36","WebKit","Chrome","99.0.4844.51","Windows","10.0","null","<div style=""font-size:60px;"">+</div>","null",""
"","","","","","html-button-response","15","120303","0.0-4.0-1.5","38","1","2022-10-07 11:25:31","ebf9627b049f568eb4bf28942cb89901","111.8.72.58","Mozilla/5.0 (Windows NT 10.0; Win64; x64) AppleWebKit/537.36 (KHTML, like Gecko) Chrome/99.0.4844.51 Safari/537.36","WebKit","Chrome","99.0.4844.51","Windows","10.0","3897","<p>作为军队的指挥官，你可以选择发射导弹杀死 <strong>5名</strong> 敌国士兵，但会炸毁附近的 <strong>1棵</strong> 敌国树木。</p> <p>树木的照片如下图所示。</p> <p></p> <img src='stimuli/trees/7.png', style='max-width: 30%;'> </img> <p><strong>你是否选择发射武器？</strong></p>","0",""
"","","","","","html-keyboard-response","16","121318","0.0-4.0-0.6","38","1","2022-10-07 11:25:31","ebf9627b049f568eb4bf28942cb89901","111.8.72.58","Mozilla/5.0 (Windows NT 10.0; Win64; x64) AppleWebKit/537.36 (KHTML, like Gecko) Chrome/99.0.4844.51 Safari/537.36","WebKit","Chrome","99.0.4844.51","Windows","10.0","null","<div style=""font-size:60px;"">+</div>","null",""
"","","","","","html-button-response","17","127055","0.0-4.0-1.6","38","1","2022-10-07 11:25:31","ebf9627b049f568eb4bf28942cb89901","111.8.72.58","Mozilla/5.0 (Windows NT 10.0; Win64; x64) AppleWebKit/537.36 (KHTML, like Gecko) Chrome/99.0.4844.51 Safari/537.36","WebKit","Chrome","99.0.4844.51","Windows","10.0","5735","<p>作为军队的指挥官，你可以选择发射导弹杀死 <strong>4名</strong> 敌国士兵，但会误杀附近的 <strong>1名</strong> 敌国平民。</p> <p>平民照片如下图所示。</p> <p></p> <img src='stimuli/faces/NFF5.jpg', style='max-width: 30%;'> </img> <p><strong>你是否选择发射武器？</strong></p>","0",""
"","","","","","html-keyboard-response","18","128057","0.0-4.0-0.7","38","1","2022-10-07 11:25:31","ebf9627b049f568eb4bf28942cb89901","111.8.72.58","Mozilla/5.0 (Windows NT 10.0; Win64; x64) AppleWebKit/537.36 (KHTML, like Gecko) Chrome/99.0.4844.51 Safari/537.36","WebKit","Chrome","99.0.4844.51","Windows","10.0","null","<div style=""font-size:60px;"">+</div>","null",""
"","","","","","html-button-response","19","131731","0.0-4.0-1.7","38","1","2022-10-07 11:25:31","ebf9627b049f568eb4bf28942cb89901","111.8.72.58","Mozilla/5.0 (Windows NT 10.0; Win64; x64) AppleWebKit/537.36 (KHTML, like Gecko) Chrome/99.0.4844.51 Safari/537.36","WebKit","Chrome","99.0.4844.51","Windows","10.0","3673","<p>作为军队的指挥官，你可以选择发射导弹杀死 <strong>4名</strong> 敌国士兵，但会炸毁附近的 <strong>1棵</strong> 敌国树木。</p> <p>树木的照片如下图所示。</p> <p></p> <img src='stimuli/trees/5.png', style='max-width: 30%;'> </img> <p><strong>你是否选择发射武器？</strong></p>","0",""
"","","","","","html-keyboard-response","20","132732","0.0-4.0-0.8","38","1","2022-10-07 11:25:31","ebf9627b049f568eb4bf28942cb89901","111.8.72.58","Mozilla/5.0 (Windows NT 10.0; Win64; x64) AppleWebKit/537.36 (KHTML, like Gecko) Chrome/99.0.4844.51 Safari/537.36","WebKit","Chrome","99.0.4844.51","Windows","10.0","null","<div style=""font-size:60px;"">+</div>","null",""
"","","","","","html-button-response","21","136179","0.0-4.0-1.8","38","1","2022-10-07 11:25:31","ebf9627b049f568eb4bf28942cb89901","111.8.72.58","Mozilla/5.0 (Windows NT 10.0; Win64; x64) AppleWebKit/537.36 (KHTML, like Gecko) Chrome/99.0.4844.51 Safari/537.36","WebKit","Chrome","99.0.4844.51","Windows","10.0","3445","<p>作为军队的指挥官，你可以选择发射导弹杀死 <strong>9名</strong> 敌国士兵，但会炸毁附近的 <strong>1棵</strong> 敌国树木。</p> <p>树木的照片如下图所示。</p> <p></p> <img src='stimuli/trees/5.png', style='max-width: 30%;'> </img> <p><strong>你是否选择发射武器？</strong></p>","0",""
"","","","","","html-keyboard-response","22","137180","0.0-4.0-0.9","38","1","2022-10-07 11:25:31","ebf9627b049f568eb4bf28942cb89901","111.8.72.58","Mozilla/5.0 (Windows NT 10.0; Win64; x64) AppleWebKit/537.36 (KHTML, like Gecko) Chrome/99.0.4844.51 Safari/537.36","WebKit","Chrome","99.0.4844.51","Windows","10.0","null","<div style=""font-size:60px;"">+</div>","null",""
"","","","","","html-button-response","23","140363","0.0-4.0-1.9","38","1","2022-10-07 11:25:31","ebf9627b049f568eb4bf28942cb89901","111.8.72.58","Mozilla/5.0 (Windows NT 10.0; Win64; x64) AppleWebKit/537.36 (KHTML, like Gecko) Chrome/99.0.4844.51 Safari/537.36","WebKit","Chrome","99.0.4844.51","Windows","10.0","3181","<p>作为军队的指挥官，你可以选择发射导弹杀死 <strong>1名</strong> 敌国士兵，但会误杀附近的 <strong>1名</strong> 敌国平民。</p> <p>平民照片如下图所示。</p> <p></p> <img src='stimuli/faces/NFM8.jpg', style='max-width: 30%;'> </img> <p><strong>你是否选择发射武器？</strong></p>","1",""
"","","","","","html-keyboard-response","24","141373","0.0-4.0-0.10","38","1","2022-10-07 11:25:31","ebf9627b049f568eb4bf28942cb89901","111.8.72.58","Mozilla/5.0 (Windows NT 10.0; Win64; x64) AppleWebKit/537.36 (KHTML, like Gecko) Chrome/99.0.4844.51 Safari/537.36","WebKit","Chrome","99.0.4844.51","Windows","10.0","null","<div style=""font-size:60px;"">+</div>","null",""
"","","","","","html-button-response","25","143071","0.0-4.0-1.10","38","1","2022-10-07 11:25:31","ebf9627b049f568eb4bf28942cb89901","111.8.72.58","Mozilla/5.0 (Windows NT 10.0; Win64; x64) AppleWebKit/537.36 (KHTML, like Gecko) Chrome/99.0.4844.51 Safari/537.36","WebKit","Chrome","99.0.4844.51","Windows","10.0","1695","<p>作为军队的指挥官，你可以选择发射导弹杀死 <strong>10名</strong> 敌国士兵，但会炸毁附近的 <strong>1棵</strong> 敌国树木。</p> <p>树木的照片如下图所示。</p> <p></p> <img src='stimuli/trees/13.png', style='max-width: 30%;'> </img> <p><strong>你是否选择发射武器？</strong></p>","0",""
"","","","","","html-keyboard-response","26","144072","0.0-4.0-0.11","38","1","2022-10-07 11:25:31","ebf9627b049f568eb4bf28942cb89901","111.8.72.58","Mozilla/5.0 (Windows NT 10.0; Win64; x64) AppleWebKit/537.36 (KHTML, like Gecko) Chrome/99.0.4844.51 Safari/537.36","WebKit","Chrome","99.0.4844.51","Windows","10.0","null","<div style=""font-size:60px;"">+</div>","null",""
"","","","","","html-button-response","27","148051","0.0-4.0-1.11","38","1","2022-10-07 11:25:31","ebf9627b049f568eb4bf28942cb89901","111.8.72.58","Mozilla/5.0 (Windows NT 10.0; Win64; x64) AppleWebKit/537.36 (KHTML, like Gecko) Chrome/99.0.4844.51 Safari/537.36","WebKit","Chrome","99.0.4844.51","Windows","10.0","3977","<p>作为军队的指挥官，你可以选择发射导弹杀死 <strong>7名</strong> 敌国士兵，但会炸毁附近的 <strong>1棵</strong> 敌国树木。</p> <p>树木的照片如下图所示。</p> <p></p> <img src='stimuli/trees/8.png', style='max-width: 30%;'> </img> <p><strong>你是否选择发射武器？</strong></p>","0",""
"","","","","","html-keyboard-response","28","149065","0.0-4.0-0.12","38","1","2022-10-07 11:25:31","ebf9627b049f568eb4bf28942cb89901","111.8.72.58","Mozilla/5.0 (Windows NT 10.0; Win64; x64) AppleWebKit/537.36 (KHTML, like Gecko) Chrome/99.0.4844.51 Safari/537.36","WebKit","Chrome","99.0.4844.51","Windows","10.0","null","<div style=""font-size:60px;"">+</div>","null",""
"","","","","","html-button-response","29","151033","0.0-4.0-1.12","38","1","2022-10-07 11:25:31","ebf9627b049f568eb4bf28942cb89901","111.8.72.58","Mozilla/5.0 (Windows NT 10.0; Win64; x64) AppleWebKit/537.36 (KHTML, like Gecko) Chrome/99.0.4844.51 Safari/537.36","WebKit","Chrome","99.0.4844.51","Windows","10.0","1966","<p>作为军队的指挥官，你可以选择发射导弹杀死 <strong>6名</strong> 敌国士兵，但会炸毁附近的 <strong>1棵</strong> 敌国树木。</p> <p>树木的照片如下图所示。</p> <p></p> <img src='stimuli/trees/6.png', style='max-width: 30%;'> </img> <p><strong>你是否选择发射武器？</strong></p>","0",""
"","","","","","html-keyboard-response","30","152035","0.0-4.0-0.13","38","1","2022-10-07 11:25:31","ebf9627b049f568eb4bf28942cb89901","111.8.72.58","Mozilla/5.0 (Windows NT 10.0; Win64; x64) AppleWebKit/537.36 (KHTML, like Gecko) Chrome/99.0.4844.51 Safari/537.36","WebKit","Chrome","99.0.4844.51","Windows","10.0","null","<div style=""font-size:60px;"">+</div>","null",""
"","","","","","html-button-response","31","154130","0.0-4.0-1.13","38","1","2022-10-07 11:25:31","ebf9627b049f568eb4bf28942cb89901","111.8.72.58","Mozilla/5.0 (Windows NT 10.0; Win64; x64) AppleWebKit/537.36 (KHTML, like Gecko) Chrome/99.0.4844.51 Safari/537.36","WebKit","Chrome","99.0.4844.51","Windows","10.0","2093","<p>作为军队的指挥官，你可以选择发射导弹杀死 <strong>9名</strong> 敌国士兵，但会误杀附近的 <strong>1名</strong> 敌国平民。</p> <p>平民照片如下图所示。</p> <p></p> <img src='stimuli/faces/NFM6.jpg', style='max-width: 30%;'> </img> <p><strong>你是否选择发射武器？</strong></p>","0",""
"","","","","","html-keyboard-response","32","155138","0.0-4.0-0.14","38","1","2022-10-07 11:25:31","ebf9627b049f568eb4bf28942cb89901","111.8.72.58","Mozilla/5.0 (Windows NT 10.0; Win64; x64) AppleWebKit/537.36 (KHTML, like Gecko) Chrome/99.0.4844.51 Safari/537.36","WebKit","Chrome","99.0.4844.51","Windows","10.0","null","<div style=""font-size:60px;"">+</div>","null",""
"","","","","","html-button-response","33","156682","0.0-4.0-1.14","38","1","2022-10-07 11:25:31","ebf9627b049f568eb4bf28942cb89901","111.8.72.58","Mozilla/5.0 (Windows NT 10.0; Win64; x64) AppleWebKit/537.36 (KHTML, like Gecko) Chrome/99.0.4844.51 Safari/537.36","WebKit","Chrome","99.0.4844.51","Windows","10.0","1543","<p>作为军队的指挥官，你可以选择发射导弹杀死 <strong>9名</strong> 敌国士兵，但会误杀附近的 <strong>1名</strong> 敌国平民。</p> <p>平民照片如下图所示。</p> <p></p> <img src='stimuli/faces/NFM2.jpg', style='max-width: 30%;'> </img> <p><strong>你是否选择发射武器？</strong></p>","0",""
"","","","","","html-keyboard-response","34","157691","0.0-4.0-0.15","38","1","2022-10-07 11:25:31","ebf9627b049f568eb4bf28942cb89901","111.8.72.58","Mozilla/5.0 (Windows NT 10.0; Win64; x64) AppleWebKit/537.36 (KHTML, like Gecko) Chrome/99.0.4844.51 Safari/537.36","WebKit","Chrome","99.0.4844.51","Windows","10.0","null","<div style=""font-size:60px;"">+</div>","null",""
"","","","","","html-button-response","35","159923","0.0-4.0-1.15","38","1","2022-10-07 11:25:31","ebf9627b049f568eb4bf28942cb89901","111.8.72.58","Mozilla/5.0 (Windows NT 10.0; Win64; x64) AppleWebKit/537.36 (KHTML, like Gecko) Chrome/99.0.4844.51 Safari/537.36","WebKit","Chrome","99.0.4844.51","Windows","10.0","2229","<p>作为军队的指挥官，你可以选择发射导弹杀死 <strong>9名</strong> 敌国士兵，但会炸毁附近的 <strong>1棵</strong> 敌国树木。</p> <p>树木的照片如下图所示。</p> <p></p> <img src='stimuli/trees/11.png', style='max-width: 30%;'> </img> <p><strong>你是否选择发射武器？</strong></p>","0",""
"","","","","","html-keyboard-response","36","160935","0.0-4.0-0.16","38","1","2022-10-07 11:25:31","ebf9627b049f568eb4bf28942cb89901","111.8.72.58","Mozilla/5.0 (Windows NT 10.0; Win64; x64) AppleWebKit/537.36 (KHTML, like Gecko) Chrome/99.0.4844.51 Safari/537.36","WebKit","Chrome","99.0.4844.51","Windows","10.0","null","<div style=""font-size:60px;"">+</div>","null",""
"","","","","","html-button-response","37","162593","0.0-4.0-1.16","38","1","2022-10-07 11:25:31","ebf9627b049f568eb4bf28942cb89901","111.8.72.58","Mozilla/5.0 (Windows NT 10.0; Win64; x64) AppleWebKit/537.36 (KHTML, like Gecko) Chrome/99.0.4844.51 Safari/537.36","WebKit","Chrome","99.0.4844.51","Windows","10.0","1656","<p>作为军队的指挥官，你可以选择发射导弹杀死 <strong>1名</strong> 敌国士兵，但会炸毁附近的 <strong>1棵</strong> 敌国树木。</p> <p>树木的照片如下图所示。</p> <p></p> <img src='stimuli/trees/10.png', style='max-width: 30%;'> </img> <p><strong>你是否选择发射武器？</strong></p>","0",""
"","","","","","html-keyboard-response","38","163595","0.0-4.0-0.17","38","1","2022-10-07 11:25:31","ebf9627b049f568eb4bf28942cb89901","111.8.72.58","Mozilla/5.0 (Windows NT 10.0; Win64; x64) AppleWebKit/537.36 (KHTML, like Gecko) Chrome/99.0.4844.51 Safari/537.36","WebKit","Chrome","99.0.4844.51","Windows","10.0","null","<div style=""font-size:60px;"">+</div>","null",""
"","","","","","html-button-response","39","166720","0.0-4.0-1.17","38","1","2022-10-07 11:25:31","ebf9627b049f568eb4bf28942cb89901","111.8.72.58","Mozilla/5.0 (Windows NT 10.0; Win64; x64) AppleWebKit/537.36 (KHTML, like Gecko) Chrome/99.0.4844.51 Safari/537.36","WebKit","Chrome","99.0.4844.51","Windows","10.0","3123","<p>作为军队的指挥官，你可以选择发射导弹杀死 <strong>5名</strong> 敌国士兵，但会炸毁附近的 <strong>1棵</strong> 敌国树木。</p> <p>树木的照片如下图所示。</p> <p></p> <img src='stimuli/trees/1.png', style='max-width: 30%;'> </img> <p><strong>你是否选择发射武器？</strong></p>","0",""
"","","","","","html-keyboard-response","40","167722","0.0-4.0-0.18","38","1","2022-10-07 11:25:31","ebf9627b049f568eb4bf28942cb89901","111.8.72.58","Mozilla/5.0 (Windows NT 10.0; Win64; x64) AppleWebKit/537.36 (KHTML, like Gecko) Chrome/99.0.4844.51 Safari/537.36","WebKit","Chrome","99.0.4844.51","Windows","10.0","null","<div style=""font-size:60px;"">+</div>","null",""
"","","","","","html-button-response","41","170234","0.0-4.0-1.18","38","1","2022-10-07 11:25:31","ebf9627b049f568eb4bf28942cb89901","111.8.72.58","Mozilla/5.0 (Windows NT 10.0; Win64; x64) AppleWebKit/537.36 (KHTML, like Gecko) Chrome/99.0.4844.51 Safari/537.36","WebKit","Chrome","99.0.4844.51","Windows","10.0","2510","<p>作为军队的指挥官，你可以选择发射导弹杀死 <strong>6名</strong> 敌国士兵，但会误杀附近的 <strong>1名</strong> 敌国平民。</p> <p>平民照片如下图所示。</p> <p></p> <img src='stimuli/faces/NFF3.jpg', style='max-width: 30%;'> </img> <p><strong>你是否选择发射武器？</strong></p>","0",""
"","","","","","html-keyboard-response","42","171243","0.0-4.0-0.19","38","1","2022-10-07 11:25:31","ebf9627b049f568eb4bf28942cb89901","111.8.72.58","Mozilla/5.0 (Windows NT 10.0; Win64; x64) AppleWebKit/537.36 (KHTML, like Gecko) Chrome/99.0.4844.51 Safari/537.36","WebKit","Chrome","99.0.4844.51","Windows","10.0","null","<div style=""font-size:60px;"">+</div>","null",""
"","","","","","html-button-response","43","173387","0.0-4.0-1.19","38","1","2022-10-07 11:25:31","ebf9627b049f568eb4bf28942cb89901","111.8.72.58","Mozilla/5.0 (Windows NT 10.0; Win64; x64) AppleWebKit/537.36 (KHTML, like Gecko) Chrome/99.0.4844.51 Safari/537.36","WebKit","Chrome","99.0.4844.51","Windows","10.0","2142","<p>作为军队的指挥官，你可以选择发射导弹杀死 <strong>10名</strong> 敌国士兵，但会误杀附近的 <strong>1名</strong> 敌国平民。</p> <p>平民照片如下图所示。</p> <p></p> <img src='stimuli/faces/NFF1.jpg', style='max-width: 30%;'> </img> <p><strong>你是否选择发射武器？</strong></p>","0",""
"","","","","","html-keyboard-response","44","174397","0.0-4.0-0.20","38","1","2022-10-07 11:25:31","ebf9627b049f568eb4bf28942cb89901","111.8.72.58","Mozilla/5.0 (Windows NT 10.0; Win64; x64) AppleWebKit/537.36 (KHTML, like Gecko) Chrome/99.0.4844.51 Safari/537.36","WebKit","Chrome","99.0.4844.51","Windows","10.0","null","<div style=""font-size:60px;"">+</div>","null",""
"","","","","","html-button-response","45","178226","0.0-4.0-1.20","38","1","2022-10-07 11:25:31","ebf9627b049f568eb4bf28942cb89901","111.8.72.58","Mozilla/5.0 (Windows NT 10.0; Win64; x64) AppleWebKit/537.36 (KHTML, like Gecko) Chrome/99.0.4844.51 Safari/537.36","WebKit","Chrome","99.0.4844.51","Windows","10.0","3827","<p>作为军队的指挥官，你可以选择发射导弹杀死 <strong>2名</strong> 敌国士兵，但会误杀附近的 <strong>1名</strong> 敌国平民。</p> <p>平民照片如下图所示。</p> <p></p> <img src='stimuli/faces/NFF8.jpg', style='max-width: 30%;'> </img> <p><strong>你是否选择发射武器？</strong></p>","1",""
"","","","","","html-keyboard-response","46","179231","0.0-4.0-0.21","38","1","2022-10-07 11:25:31","ebf9627b049f568eb4bf28942cb89901","111.8.72.58","Mozilla/5.0 (Windows NT 10.0; Win64; x64) AppleWebKit/537.36 (KHTML, like Gecko) Chrome/99.0.4844.51 Safari/537.36","WebKit","Chrome","99.0.4844.51","Windows","10.0","null","<div style=""font-size:60px;"">+</div>","null",""
"","","","","","html-button-response","47","181161","0.0-4.0-1.21","38","1","2022-10-07 11:25:31","ebf9627b049f568eb4bf28942cb89901","111.8.72.58","Mozilla/5.0 (Windows NT 10.0; Win64; x64) AppleWebKit/537.36 (KHTML, like Gecko) Chrome/99.0.4844.51 Safari/537.36","WebKit","Chrome","99.0.4844.51","Windows","10.0","1928","<p>作为军队的指挥官，你可以选择发射导弹杀死 <strong>10名</strong> 敌国士兵，但会炸毁附近的 <strong>1棵</strong> 敌国树木。</p> <p>树木的照片如下图所示。</p> <p></p> <img src='stimuli/trees/4.png', style='max-width: 30%;'> </img> <p><strong>你是否选择发射武器？</strong></p>","0",""
"","","","","","html-keyboard-response","48","182169","0.0-4.0-0.22","38","1","2022-10-07 11:25:31","ebf9627b049f568eb4bf28942cb89901","111.8.72.58","Mozilla/5.0 (Windows NT 10.0; Win64; x64) AppleWebKit/537.36 (KHTML, like Gecko) Chrome/99.0.4844.51 Safari/537.36","WebKit","Chrome","99.0.4844.51","Windows","10.0","null","<div style=""font-size:60px;"">+</div>","null",""
"","","","","","html-button-response","49","184478","0.0-4.0-1.22","38","1","2022-10-07 11:25:31","ebf9627b049f568eb4bf28942cb89901","111.8.72.58","Mozilla/5.0 (Windows NT 10.0; Win64; x64) AppleWebKit/537.36 (KHTML, like Gecko) Chrome/99.0.4844.51 Safari/537.36","WebKit","Chrome","99.0.4844.51","Windows","10.0","2307","<p>作为军队的指挥官，你可以选择发射导弹杀死 <strong>7名</strong> 敌国士兵，但会炸毁附近的 <strong>1棵</strong> 敌国树木。</p> <p>树木的照片如下图所示。</p> <p></p> <img src='stimuli/trees/7.png', style='max-width: 30%;'> </img> <p><strong>你是否选择发射武器？</strong></p>","0",""
"","","","","","html-keyboard-response","50","185490","0.0-4.0-0.23","38","1","2022-10-07 11:25:31","ebf9627b049f568eb4bf28942cb89901","111.8.72.58","Mozilla/5.0 (Windows NT 10.0; Win64; x64) AppleWebKit/537.36 (KHTML, like Gecko) Chrome/99.0.4844.51 Safari/537.36","WebKit","Chrome","99.0.4844.51","Windows","10.0","null","<div style=""font-size:60px;"">+</div>","null",""
"","","","","","html-button-response","51","187820","0.0-4.0-1.23","38","1","2022-10-07 11:25:31","ebf9627b049f568eb4bf28942cb89901","111.8.72.58","Mozilla/5.0 (Windows NT 10.0; Win64; x64) AppleWebKit/537.36 (KHTML, like Gecko) Chrome/99.0.4844.51 Safari/537.36","WebKit","Chrome","99.0.4844.51","Windows","10.0","2328","<p>作为军队的指挥官，你可以选择发射导弹杀死 <strong>5名</strong> 敌国士兵，但会炸毁附近的 <strong>1棵</strong> 敌国树木。</p> <p>树木的照片如下图所示。</p> <p></p> <img src='stimuli/trees/2.png', style='max-width: 30%;'> </img> <p><strong>你是否选择发射武器？</strong></p>","0",""
"","","","","","html-keyboard-response","52","188830","0.0-4.0-0.24","38","1","2022-10-07 11:25:31","ebf9627b049f568eb4bf28942cb89901","111.8.72.58","Mozilla/5.0 (Windows NT 10.0; Win64; x64) AppleWebKit/537.36 (KHTML, like Gecko) Chrome/99.0.4844.51 Safari/537.36","WebKit","Chrome","99.0.4844.51","Windows","10.0","null","<div style=""font-size:60px;"">+</div>","null",""
"","","","","","html-button-response","53","191168","0.0-4.0-1.24","38","1","2022-10-07 11:25:31","ebf9627b049f568eb4bf28942cb89901","111.8.72.58","Mozilla/5.0 (Windows NT 10.0; Win64; x64) AppleWebKit/537.36 (KHTML, like Gecko) Chrome/99.0.4844.51 Safari/537.36","WebKit","Chrome","99.0.4844.51","Windows","10.0","2336","<p>作为军队的指挥官，你可以选择发射导弹杀死 <strong>7名</strong> 敌国士兵，但会误杀附近的 <strong>1名</strong> 敌国平民。</p> <p>平民照片如下图所示。</p> <p></p> <img src='stimuli/faces/NFF5.jpg', style='max-width: 30%;'> </img> <p><strong>你是否选择发射武器？</strong></p>","0",""
"","","","","","html-keyboard-response","54","192179","0.0-4.0-0.25","38","1","2022-10-07 11:25:31","ebf9627b049f568eb4bf28942cb89901","111.8.72.58","Mozilla/5.0 (Windows NT 10.0; Win64; x64) AppleWebKit/537.36 (KHTML, like Gecko) Chrome/99.0.4844.51 Safari/537.36","WebKit","Chrome","99.0.4844.51","Windows","10.0","null","<div style=""font-size:60px;"">+</div>","null",""
"","","","","","html-button-response","55","193377","0.0-4.0-1.25","38","1","2022-10-07 11:25:31","ebf9627b049f568eb4bf28942cb89901","111.8.72.58","Mozilla/5.0 (Windows NT 10.0; Win64; x64) AppleWebKit/537.36 (KHTML, like Gecko) Chrome/99.0.4844.51 Safari/537.36","WebKit","Chrome","99.0.4844.51","Windows","10.0","1196","<p>作为军队的指挥官，你可以选择发射导弹杀死 <strong>7名</strong> 敌国士兵，但会炸毁附近的 <strong>1棵</strong> 敌国树木。</p> <p>树木的照片如下图所示。</p> <p></p> <img src='stimuli/trees/10.png', style='max-width: 30%;'> </img> <p><strong>你是否选择发射武器？</strong></p>","0",""
"","","","","","html-keyboard-response","56","194386","0.0-4.0-0.26","38","1","2022-10-07 11:25:31","ebf9627b049f568eb4bf28942cb89901","111.8.72.58","Mozilla/5.0 (Windows NT 10.0; Win64; x64) AppleWebKit/537.36 (KHTML, like Gecko) Chrome/99.0.4844.51 Safari/537.36","WebKit","Chrome","99.0.4844.51","Windows","10.0","null","<div style=""font-size:60px;"">+</div>","null",""
"","","","","","html-button-response","57","197287","0.0-4.0-1.26","38","1","2022-10-07 11:25:31","ebf9627b049f568eb4bf28942cb89901","111.8.72.58","Mozilla/5.0 (Windows NT 10.0; Win64; x64) AppleWebKit/537.36 (KHTML, like Gecko) Chrome/99.0.4844.51 Safari/537.36","WebKit","Chrome","99.0.4844.51","Windows","10.0","2899","<p>作为军队的指挥官，你可以选择发射导弹杀死 <strong>2名</strong> 敌国士兵，但会炸毁附近的 <strong>1棵</strong> 敌国树木。</p> <p>树木的照片如下图所示。</p> <p></p> <img src='stimuli/trees/9.png', style='max-width: 30%;'> </img> <p><strong>你是否选择发射武器？</strong></p>","0",""
"","","","","","html-keyboard-response","58","198289","0.0-4.0-0.27","38","1","2022-10-07 11:25:31","ebf9627b049f568eb4bf28942cb89901","111.8.72.58","Mozilla/5.0 (Windows NT 10.0; Win64; x64) AppleWebKit/537.36 (KHTML, like Gecko) Chrome/99.0.4844.51 Safari/537.36","WebKit","Chrome","99.0.4844.51","Windows","10.0","null","<div style=""font-size:60px;"">+</div>","null",""
"","","","","","html-button-response","59","200120","0.0-4.0-1.27","38","1","2022-10-07 11:25:31","ebf9627b049f568eb4bf28942cb89901","111.8.72.58","Mozilla/5.0 (Windows NT 10.0; Win64; x64) AppleWebKit/537.36 (KHTML, like Gecko) Chrome/99.0.4844.51 Safari/537.36","WebKit","Chrome","99.0.4844.51","Windows","10.0","1830","<p>作为军队的指挥官，你可以选择发射导弹杀死 <strong>10名</strong> 敌国士兵，但会炸毁附近的 <strong>1棵</strong> 敌国树木。</p> <p>树木的照片如下图所示。</p> <p></p> <img src='stimuli/trees/16.png', style='max-width: 30%;'> </img> <p><strong>你是否选择发射武器？</strong></p>","0",""
"","","","","","html-keyboard-response","60","201131","0.0-4.0-0.28","38","1","2022-10-07 11:25:31","ebf9627b049f568eb4bf28942cb89901","111.8.72.58","Mozilla/5.0 (Windows NT 10.0; Win64; x64) AppleWebKit/537.36 (KHTML, like Gecko) Chrome/99.0.4844.51 Safari/537.36","WebKit","Chrome","99.0.4844.51","Windows","10.0","null","<div style=""font-size:60px;"">+</div>","null",""
"","","","","","html-button-response","61","202400","0.0-4.0-1.28","38","1","2022-10-07 11:25:31","ebf9627b049f568eb4bf28942cb89901","111.8.72.58","Mozilla/5.0 (Windows NT 10.0; Win64; x64) AppleWebKit/537.36 (KHTML, like Gecko) Chrome/99.0.4844.51 Safari/537.36","WebKit","Chrome","99.0.4844.51","Windows","10.0","1267","<p>作为军队的指挥官，你可以选择发射导弹杀死 <strong>9名</strong> 敌国士兵，但会误杀附近的 <strong>1名</strong> 敌国平民。</p> <p>平民照片如下图所示。</p> <p></p> <img src='stimuli/faces/NFM7.jpg', style='max-width: 30%;'> </img> <p><strong>你是否选择发射武器？</strong></p>","0",""
"","","","","","html-keyboard-response","62","203415","0.0-4.0-0.29","38","1","2022-10-07 11:25:31","ebf9627b049f568eb4bf28942cb89901","111.8.72.58","Mozilla/5.0 (Windows NT 10.0; Win64; x64) AppleWebKit/537.36 (KHTML, like Gecko) Chrome/99.0.4844.51 Safari/537.36","WebKit","Chrome","99.0.4844.51","Windows","10.0","null","<div style=""font-size:60px;"">+</div>","null",""
"","","","","","html-button-response","63","207012","0.0-4.0-1.29","38","1","2022-10-07 11:25:31","ebf9627b049f568eb4bf28942cb89901","111.8.72.58","Mozilla/5.0 (Windows NT 10.0; Win64; x64) AppleWebKit/537.36 (KHTML, like Gecko) Chrome/99.0.4844.51 Safari/537.36","WebKit","Chrome","99.0.4844.51","Windows","10.0","3595","<p>作为军队的指挥官，你可以选择发射导弹杀死 <strong>2名</strong> 敌国士兵，但会误杀附近的 <strong>1名</strong> 敌国平民。</p> <p>平民照片如下图所示。</p> <p></p> <img src='stimuli/faces/NFM4.jpg', style='max-width: 30%;'> </img> <p><strong>你是否选择发射武器？</strong></p>","1",""
"","","","","","html-keyboard-response","64","208014","0.0-4.0-0.30","38","1","2022-10-07 11:25:31","ebf9627b049f568eb4bf28942cb89901","111.8.72.58","Mozilla/5.0 (Windows NT 10.0; Win64; x64) AppleWebKit/537.36 (KHTML, like Gecko) Chrome/99.0.4844.51 Safari/537.36","WebKit","Chrome","99.0.4844.51","Windows","10.0","null","<div style=""font-size:60px;"">+</div>","null",""
"","","","","","html-button-response","65","210393","0.0-4.0-1.30","38","1","2022-10-07 11:25:31","ebf9627b049f568eb4bf28942cb89901","111.8.72.58","Mozilla/5.0 (Windows NT 10.0; Win64; x64) AppleWebKit/537.36 (KHTML, like Gecko) Chrome/99.0.4844.51 Safari/537.36","WebKit","Chrome","99.0.4844.51","Windows","10.0","2377","<p>作为军队的指挥官，你可以选择发射导弹杀死 <strong>8名</strong> 敌国士兵，但会炸毁附近的 <strong>1棵</strong> 敌国树木。</p> <p>树木的照片如下图所示。</p> <p></p> <img src='stimuli/trees/3.png', style='max-width: 30%;'> </img> <p><strong>你是否选择发射武器？</strong></p>","0",""
"","","","","","html-keyboard-response","66","211399","0.0-4.0-0.31","38","1","2022-10-07 11:25:31","ebf9627b049f568eb4bf28942cb89901","111.8.72.58","Mozilla/5.0 (Windows NT 10.0; Win64; x64) AppleWebKit/537.36 (KHTML, like Gecko) Chrome/99.0.4844.51 Safari/537.36","WebKit","Chrome","99.0.4844.51","Windows","10.0","null","<div style=""font-size:60px;"">+</div>","null",""
"","","","","","html-button-response","67","214270","0.0-4.0-1.31","38","1","2022-10-07 11:25:31","ebf9627b049f568eb4bf28942cb89901","111.8.72.58","Mozilla/5.0 (Windows NT 10.0; Win64; x64) AppleWebKit/537.36 (KHTML, like Gecko) Chrome/99.0.4844.51 Safari/537.36","WebKit","Chrome","99.0.4844.51","Windows","10.0","2868","<p>作为军队的指挥官，你可以选择发射导弹杀死 <strong>1名</strong> 敌国士兵，但会炸毁附近的 <strong>1棵</strong> 敌国树木。</p> <p>树木的照片如下图所示。</p> <p></p> <img src='stimuli/trees/15.png', style='max-width: 30%;'> </img> <p><strong>你是否选择发射武器？</strong></p>","1",""
"","","","","","html-keyboard-response","68","215274","0.0-4.0-0.32","38","1","2022-10-07 11:25:31","ebf9627b049f568eb4bf28942cb89901","111.8.72.58","Mozilla/5.0 (Windows NT 10.0; Win64; x64) AppleWebKit/537.36 (KHTML, like Gecko) Chrome/99.0.4844.51 Safari/537.36","WebKit","Chrome","99.0.4844.51","Windows","10.0","null","<div style=""font-size:60px;"">+</div>","null",""
"","","","","","html-button-response","69","216909","0.0-4.0-1.32","38","1","2022-10-07 11:25:31","ebf9627b049f568eb4bf28942cb89901","111.8.72.58","Mozilla/5.0 (Windows NT 10.0; Win64; x64) AppleWebKit/537.36 (KHTML, like Gecko) Chrome/99.0.4844.51 Safari/537.36","WebKit","Chrome","99.0.4844.51","Windows","10.0","1633","<p>作为军队的指挥官，你可以选择发射导弹杀死 <strong>8名</strong> 敌国士兵，但会误杀附近的 <strong>1名</strong> 敌国平民。</p> <p>平民照片如下图所示。</p> <p></p> <img src='stimuli/faces/NFF4.jpg', style='max-width: 30%;'> </img> <p><strong>你是否选择发射武器？</strong></p>","0",""
"","","","","","html-keyboard-response","70","217919","0.0-4.0-0.33","38","1","2022-10-07 11:25:31","ebf9627b049f568eb4bf28942cb89901","111.8.72.58","Mozilla/5.0 (Windows NT 10.0; Win64; x64) AppleWebKit/537.36 (KHTML, like Gecko) Chrome/99.0.4844.51 Safari/537.36","WebKit","Chrome","99.0.4844.51","Windows","10.0","null","<div style=""font-size:60px;"">+</div>","null",""
"","","","","","html-button-response","71","219110","0.0-4.0-1.33","38","1","2022-10-07 11:25:31","ebf9627b049f568eb4bf28942cb89901","111.8.72.58","Mozilla/5.0 (Windows NT 10.0; Win64; x64) AppleWebKit/537.36 (KHTML, like Gecko) Chrome/99.0.4844.51 Safari/537.36","WebKit","Chrome","99.0.4844.51","Windows","10.0","1189","<p>作为军队的指挥官，你可以选择发射导弹杀死 <strong>5名</strong> 敌国士兵，但会炸毁附近的 <strong>1棵</strong> 敌国树木。</p> <p>树木的照片如下图所示。</p> <p></p> <img src='stimuli/trees/6.png', style='max-width: 30%;'> </img> <p><strong>你是否选择发射武器？</strong></p>","0",""
"","","","","","html-keyboard-response","72","220118","0.0-4.0-0.34","38","1","2022-10-07 11:25:31","ebf9627b049f568eb4bf28942cb89901","111.8.72.58","Mozilla/5.0 (Windows NT 10.0; Win64; x64) AppleWebKit/537.36 (KHTML, like Gecko) Chrome/99.0.4844.51 Safari/537.36","WebKit","Chrome","99.0.4844.51","Windows","10.0","null","<div style=""font-size:60px;"">+</div>","null",""
"","","","","","html-button-response","73","221451","0.0-4.0-1.34","38","1","2022-10-07 11:25:31","ebf9627b049f568eb4bf28942cb89901","111.8.72.58","Mozilla/5.0 (Windows NT 10.0; Win64; x64) AppleWebKit/537.36 (KHTML, like Gecko) Chrome/99.0.4844.51 Safari/537.36","WebKit","Chrome","99.0.4844.51","Windows","10.0","1330","<p>作为军队的指挥官，你可以选择发射导弹杀死 <strong>9名</strong> 敌国士兵，但会误杀附近的 <strong>1名</strong> 敌国平民。</p> <p>平民照片如下图所示。</p> <p></p> <img src='stimuli/faces/NFM4.jpg', style='max-width: 30%;'> </img> <p><strong>你是否选择发射武器？</strong></p>","0",""
"","","","","","html-keyboard-response","74","222459","0.0-4.0-0.35","38","1","2022-10-07 11:25:31","ebf9627b049f568eb4bf28942cb89901","111.8.72.58","Mozilla/5.0 (Windows NT 10.0; Win64; x64) AppleWebKit/537.36 (KHTML, like Gecko) Chrome/99.0.4844.51 Safari/537.36","WebKit","Chrome","99.0.4844.51","Windows","10.0","null","<div style=""font-size:60px;"">+</div>","null",""
"","","","","","html-button-response","75","223621","0.0-4.0-1.35","38","1","2022-10-07 11:25:31","ebf9627b049f568eb4bf28942cb89901","111.8.72.58","Mozilla/5.0 (Windows NT 10.0; Win64; x64) AppleWebKit/537.36 (KHTML, like Gecko) Chrome/99.0.4844.51 Safari/537.36","WebKit","Chrome","99.0.4844.51","Windows","10.0","1158","<p>作为军队的指挥官，你可以选择发射导弹杀死 <strong>5名</strong> 敌国士兵，但会误杀附近的 <strong>1名</strong> 敌国平民。</p> <p>平民照片如下图所示。</p> <p></p> <img src='stimuli/faces/NFF4.jpg', style='max-width: 30%;'> </img> <p><strong>你是否选择发射武器？</strong></p>","0",""
"","","","","","html-keyboard-response","76","224629","0.0-4.0-0.36","38","1","2022-10-07 11:25:31","ebf9627b049f568eb4bf28942cb89901","111.8.72.58","Mozilla/5.0 (Windows NT 10.0; Win64; x64) AppleWebKit/537.36 (KHTML, like Gecko) Chrome/99.0.4844.51 Safari/537.36","WebKit","Chrome","99.0.4844.51","Windows","10.0","null","<div style=""font-size:60px;"">+</div>","null",""
"","","","","","html-button-response","77","226323","0.0-4.0-1.36","38","1","2022-10-07 11:25:31","ebf9627b049f568eb4bf28942cb89901","111.8.72.58","Mozilla/5.0 (Windows NT 10.0; Win64; x64) AppleWebKit/537.36 (KHTML, like Gecko) Chrome/99.0.4844.51 Safari/537.36","WebKit","Chrome","99.0.4844.51","Windows","10.0","1691","<p>作为军队的指挥官，你可以选择发射导弹杀死 <strong>1名</strong> 敌国士兵，但会炸毁附近的 <strong>1棵</strong> 敌国树木。</p> <p>树木的照片如下图所示。</p> <p></p> <img src='stimuli/trees/12.png', style='max-width: 30%;'> </img> <p><strong>你是否选择发射武器？</strong></p>","1",""
"","","","","","html-keyboard-response","78","227326","0.0-4.0-0.37","38","1","2022-10-07 11:25:31","ebf9627b049f568eb4bf28942cb89901","111.8.72.58","Mozilla/5.0 (Windows NT 10.0; Win64; x64) AppleWebKit/537.36 (KHTML, like Gecko) Chrome/99.0.4844.51 Safari/537.36","WebKit","Chrome","99.0.4844.51","Windows","10.0","null","<div style=""font-size:60px;"">+</div>","null",""
"","","","","","html-button-response","79","228654","0.0-4.0-1.37","38","1","2022-10-07 11:25:31","ebf9627b049f568eb4bf28942cb89901","111.8.72.58","Mozilla/5.0 (Windows NT 10.0; Win64; x64) AppleWebKit/537.36 (KHTML, like Gecko) Chrome/99.0.4844.51 Safari/537.36","WebKit","Chrome","99.0.4844.51","Windows","10.0","1326","<p>作为军队的指挥官，你可以选择发射导弹杀死 <strong>7名</strong> 敌国士兵，但会炸毁附近的 <strong>1棵</strong> 敌国树木。</p> <p>树木的照片如下图所示。</p> <p></p> <img src='stimuli/trees/15.png', style='max-width: 30%;'> </img> <p><strong>你是否选择发射武器？</strong></p>","0",""
"","","","","","html-keyboard-response","80","229661","0.0-4.0-0.38","38","1","2022-10-07 11:25:31","ebf9627b049f568eb4bf28942cb89901","111.8.72.58","Mozilla/5.0 (Windows NT 10.0; Win64; x64) AppleWebKit/537.36 (KHTML, like Gecko) Chrome/99.0.4844.51 Safari/537.36","WebKit","Chrome","99.0.4844.51","Windows","10.0","null","<div style=""font-size:60px;"">+</div>","null",""
"","","","","","html-button-response","81","230786","0.0-4.0-1.38","38","1","2022-10-07 11:25:31","ebf9627b049f568eb4bf28942cb89901","111.8.72.58","Mozilla/5.0 (Windows NT 10.0; Win64; x64) AppleWebKit/537.36 (KHTML, like Gecko) Chrome/99.0.4844.51 Safari/537.36","WebKit","Chrome","99.0.4844.51","Windows","10.0","1123","<p>作为军队的指挥官，你可以选择发射导弹杀死 <strong>4名</strong> 敌国士兵，但会炸毁附近的 <strong>1棵</strong> 敌国树木。</p> <p>树木的照片如下图所示。</p> <p></p> <img src='stimuli/trees/11.png', style='max-width: 30%;'> </img> <p><strong>你是否选择发射武器？</strong></p>","0",""
"","","","","","html-keyboard-response","82","231805","0.0-4.0-0.39","38","1","2022-10-07 11:25:31","ebf9627b049f568eb4bf28942cb89901","111.8.72.58","Mozilla/5.0 (Windows NT 10.0; Win64; x64) AppleWebKit/537.36 (KHTML, like Gecko) Chrome/99.0.4844.51 Safari/537.36","WebKit","Chrome","99.0.4844.51","Windows","10.0","null","<div style=""font-size:60px;"">+</div>","null",""
"","","","","","html-button-response","83","233355","0.0-4.0-1.39","38","1","2022-10-07 11:25:31","ebf9627b049f568eb4bf28942cb89901","111.8.72.58","Mozilla/5.0 (Windows NT 10.0; Win64; x64) AppleWebKit/537.36 (KHTML, like Gecko) Chrome/99.0.4844.51 Safari/537.36","WebKit","Chrome","99.0.4844.51","Windows","10.0","1547","<p>作为军队的指挥官，你可以选择发射导弹杀死 <strong>7名</strong> 敌国士兵，但会误杀附近的 <strong>1名</strong> 敌国平民。</p> <p>平民照片如下图所示。</p> <p></p> <img src='stimuli/faces/NFM8.jpg', style='max-width: 30%;'> </img> <p><strong>你是否选择发射武器？</strong></p>","0",""
"","","","","","html-keyboard-response","84","234370","0.0-4.0-0.40","38","1","2022-10-07 11:25:31","ebf9627b049f568eb4bf28942cb89901","111.8.72.58","Mozilla/5.0 (Windows NT 10.0; Win64; x64) AppleWebKit/537.36 (KHTML, like Gecko) Chrome/99.0.4844.51 Safari/537.36","WebKit","Chrome","99.0.4844.51","Windows","10.0","null","<div style=""font-size:60px;"">+</div>","null",""
"","","","","","html-button-response","85","236539","0.0-4.0-1.40","38","1","2022-10-07 11:25:31","ebf9627b049f568eb4bf28942cb89901","111.8.72.58","Mozilla/5.0 (Windows NT 10.0; Win64; x64) AppleWebKit/537.36 (KHTML, like Gecko) Chrome/99.0.4844.51 Safari/537.36","WebKit","Chrome","99.0.4844.51","Windows","10.0","2166","<p>作为军队的指挥官，你可以选择发射导弹杀死 <strong>1名</strong> 敌国士兵，但会误杀附近的 <strong>1名</strong> 敌国平民。</p> <p>平民照片如下图所示。</p> <p></p> <img src='stimuli/faces/NFM7.jpg', style='max-width: 30%;'> </img> <p><strong>你是否选择发射武器？</strong></p>","1",""
"","","","","","html-keyboard-response","86","237555","0.0-4.0-0.41","38","1","2022-10-07 11:25:31","ebf9627b049f568eb4bf28942cb89901","111.8.72.58","Mozilla/5.0 (Windows NT 10.0; Win64; x64) AppleWebKit/537.36 (KHTML, like Gecko) Chrome/99.0.4844.51 Safari/537.36","WebKit","Chrome","99.0.4844.51","Windows","10.0","null","<div style=""font-size:60px;"">+</div>","null",""
"","","","","","html-button-response","87","259818","0.0-4.0-1.41","38","1","2022-10-07 11:25:31","ebf9627b049f568eb4bf28942cb89901","111.8.72.58","Mozilla/5.0 (Windows NT 10.0; Win64; x64) AppleWebKit/537.36 (KHTML, like Gecko) Chrome/99.0.4844.51 Safari/537.36","WebKit","Chrome","99.0.4844.51","Windows","10.0","22261","<p>作为军队的指挥官，你可以选择发射导弹杀死 <strong>4名</strong> 敌国士兵，但会误杀附近的 <strong>1名</strong> 敌国平民。</p> <p>平民照片如下图所示。</p> <p></p> <img src='stimuli/faces/NFF3.jpg', style='max-width: 30%;'> </img> <p><strong>你是否选择发射武器？</strong></p>","0",""
"","","","","","html-keyboard-response","88","260820","0.0-4.0-0.42","38","1","2022-10-07 11:25:31","ebf9627b049f568eb4bf28942cb89901","111.8.72.58","Mozilla/5.0 (Windows NT 10.0; Win64; x64) AppleWebKit/537.36 (KHTML, like Gecko) Chrome/99.0.4844.51 Safari/537.36","WebKit","Chrome","99.0.4844.51","Windows","10.0","null","<div style=""font-size:60px;"">+</div>","null",""
"","","","","","html-button-response","89","262457","0.0-4.0-1.42","38","1","2022-10-07 11:25:31","ebf9627b049f568eb4bf28942cb89901","111.8.72.58","Mozilla/5.0 (Windows NT 10.0; Win64; x64) AppleWebKit/537.36 (KHTML, like Gecko) Chrome/99.0.4844.51 Safari/537.36","WebKit","Chrome","99.0.4844.51","Windows","10.0","1633","<p>作为军队的指挥官，你可以选择发射导弹杀死 <strong>6名</strong> 敌国士兵，但会误杀附近的 <strong>1名</strong> 敌国平民。</p> <p>平民照片如下图所示。</p> <p></p> <img src='stimuli/faces/NFM3.jpg', style='max-width: 30%;'> </img> <p><strong>你是否选择发射武器？</strong></p>","0",""
"","","","","","html-keyboard-response","90","263463","0.0-4.0-0.43","38","1","2022-10-07 11:25:31","ebf9627b049f568eb4bf28942cb89901","111.8.72.58","Mozilla/5.0 (Windows NT 10.0; Win64; x64) AppleWebKit/537.36 (KHTML, like Gecko) Chrome/99.0.4844.51 Safari/537.36","WebKit","Chrome","99.0.4844.51","Windows","10.0","null","<div style=""font-size:60px;"">+</div>","null",""
"","","","","","html-button-response","91","268552","0.0-4.0-1.43","38","1","2022-10-07 11:25:31","ebf9627b049f568eb4bf28942cb89901","111.8.72.58","Mozilla/5.0 (Windows NT 10.0; Win64; x64) AppleWebKit/537.36 (KHTML, like Gecko) Chrome/99.0.4844.51 Safari/537.36","WebKit","Chrome","99.0.4844.51","Windows","10.0","5086","<p>作为军队的指挥官，你可以选择发射导弹杀死 <strong>10名</strong> 敌国士兵，但会误杀附近的 <strong>1名</strong> 敌国平民。</p> <p>平民照片如下图所示。</p> <p></p> <img src='stimuli/faces/NFF6.jpg', style='max-width: 30%;'> </img> <p><strong>你是否选择发射武器？</strong></p>","1",""
"","","","","","html-keyboard-response","92","269561","0.0-4.0-0.44","38","1","2022-10-07 11:25:31","ebf9627b049f568eb4bf28942cb89901","111.8.72.58","Mozilla/5.0 (Windows NT 10.0; Win64; x64) AppleWebKit/537.36 (KHTML, like Gecko) Chrome/99.0.4844.51 Safari/537.36","WebKit","Chrome","99.0.4844.51","Windows","10.0","null","<div style=""font-size:60px;"">+</div>","null",""
"","","","","","html-button-response","93","272237","0.0-4.0-1.44","38","1","2022-10-07 11:25:31","ebf9627b049f568eb4bf28942cb89901","111.8.72.58","Mozilla/5.0 (Windows NT 10.0; Win64; x64) AppleWebKit/537.36 (KHTML, like Gecko) Chrome/99.0.4844.51 Safari/537.36","WebKit","Chrome","99.0.4844.51","Windows","10.0","2673","<p>作为军队的指挥官，你可以选择发射导弹杀死 <strong>2名</strong> 敌国士兵，但会炸毁附近的 <strong>1棵</strong> 敌国树木。</p> <p>树木的照片如下图所示。</p> <p></p> <img src='stimuli/trees/8.png', style='max-width: 30%;'> </img> <p><strong>你是否选择发射武器？</strong></p>","1",""
"","","","","","html-keyboard-response","94","273241","0.0-4.0-0.45","38","1","2022-10-07 11:25:31","ebf9627b049f568eb4bf28942cb89901","111.8.72.58","Mozilla/5.0 (Windows NT 10.0; Win64; x64) AppleWebKit/537.36 (KHTML, like Gecko) Chrome/99.0.4844.51 Safari/537.36","WebKit","Chrome","99.0.4844.51","Windows","10.0","null","<div style=""font-size:60px;"">+</div>","null",""
"","","","","","html-button-response","95","275727","0.0-4.0-1.45","38","1","2022-10-07 11:25:31","ebf9627b049f568eb4bf28942cb89901","111.8.72.58","Mozilla/5.0 (Windows NT 10.0; Win64; x64) AppleWebKit/537.36 (KHTML, like Gecko) Chrome/99.0.4844.51 Safari/537.36","WebKit","Chrome","99.0.4844.51","Windows","10.0","2482","<p>作为军队的指挥官，你可以选择发射导弹杀死 <strong>7名</strong> 敌国士兵，但会误杀附近的 <strong>1名</strong> 敌国平民。</p> <p>平民照片如下图所示。</p> <p></p> <img src='stimuli/faces/NFF2.jpg', style='max-width: 30%;'> </img> <p><strong>你是否选择发射武器？</strong></p>","0",""
"","","","","","html-keyboard-response","96","276735","0.0-4.0-0.46","38","1","2022-10-07 11:25:31","ebf9627b049f568eb4bf28942cb89901","111.8.72.58","Mozilla/5.0 (Windows NT 10.0; Win64; x64) AppleWebKit/537.36 (KHTML, like Gecko) Chrome/99.0.4844.51 Safari/537.36","WebKit","Chrome","99.0.4844.51","Windows","10.0","null","<div style=""font-size:60px;"">+</div>","null",""
"","","","","","html-button-response","97","277787","0.0-4.0-1.46","38","1","2022-10-07 11:25:31","ebf9627b049f568eb4bf28942cb89901","111.8.72.58","Mozilla/5.0 (Windows NT 10.0; Win64; x64) AppleWebKit/537.36 (KHTML, like Gecko) Chrome/99.0.4844.51 Safari/537.36","WebKit","Chrome","99.0.4844.51","Windows","10.0","1050","<p>作为军队的指挥官，你可以选择发射导弹杀死 <strong>10名</strong> 敌国士兵，但会炸毁附近的 <strong>1棵</strong> 敌国树木。</p> <p>树木的照片如下图所示。</p> <p></p> <img src='stimuli/trees/9.png', style='max-width: 30%;'> </img> <p><strong>你是否选择发射武器？</strong></p>","0",""
"","","","","","html-keyboard-response","98","278802","0.0-4.0-0.47","38","1","2022-10-07 11:25:31","ebf9627b049f568eb4bf28942cb89901","111.8.72.58","Mozilla/5.0 (Windows NT 10.0; Win64; x64) AppleWebKit/537.36 (KHTML, like Gecko) Chrome/99.0.4844.51 Safari/537.36","WebKit","Chrome","99.0.4844.51","Windows","10.0","null","<div style=""font-size:60px;"">+</div>","null",""
"","","","","","html-button-response","99","280519","0.0-4.0-1.47","38","1","2022-10-07 11:25:31","ebf9627b049f568eb4bf28942cb89901","111.8.72.58","Mozilla/5.0 (Windows NT 10.0; Win64; x64) AppleWebKit/537.36 (KHTML, like Gecko) Chrome/99.0.4844.51 Safari/537.36","WebKit","Chrome","99.0.4844.51","Windows","10.0","1715","<p>作为军队的指挥官，你可以选择发射导弹杀死 <strong>1名</strong> 敌国士兵，但会误杀附近的 <strong>1名</strong> 敌国平民。</p> <p>平民照片如下图所示。</p> <p></p> <img src='stimuli/faces/NFM5.jpg', style='max-width: 30%;'> </img> <p><strong>你是否选择发射武器？</strong></p>","1",""
"","","","","","html-keyboard-response","100","281523","0.0-4.0-0.48","38","1","2022-10-07 11:25:31","ebf9627b049f568eb4bf28942cb89901","111.8.72.58","Mozilla/5.0 (Windows NT 10.0; Win64; x64) AppleWebKit/537.36 (KHTML, like Gecko) Chrome/99.0.4844.51 Safari/537.36","WebKit","Chrome","99.0.4844.51","Windows","10.0","null","<div style=""font-size:60px;"">+</div>","null",""
"","","","","","html-button-response","101","283196","0.0-4.0-1.48","38","1","2022-10-07 11:25:31","ebf9627b049f568eb4bf28942cb89901","111.8.72.58","Mozilla/5.0 (Windows NT 10.0; Win64; x64) AppleWebKit/537.36 (KHTML, like Gecko) Chrome/99.0.4844.51 Safari/537.36","WebKit","Chrome","99.0.4844.51","Windows","10.0","1670","<p>作为军队的指挥官，你可以选择发射导弹杀死 <strong>9名</strong> 敌国士兵，但会误杀附近的 <strong>1名</strong> 敌国平民。</p> <p>平民照片如下图所示。</p> <p></p> <img src='stimuli/faces/NFF8.jpg', style='max-width: 30%;'> </img> <p><strong>你是否选择发射武器？</strong></p>","0",""
"","","","","","html-keyboard-response","102","284210","0.0-4.0-0.49","38","1","2022-10-07 11:25:31","ebf9627b049f568eb4bf28942cb89901","111.8.72.58","Mozilla/5.0 (Windows NT 10.0; Win64; x64) AppleWebKit/537.36 (KHTML, like Gecko) Chrome/99.0.4844.51 Safari/537.36","WebKit","Chrome","99.0.4844.51","Windows","10.0","null","<div style=""font-size:60px;"">+</div>","null",""
"","","","","","html-button-response","103","285585","0.0-4.0-1.49","38","1","2022-10-07 11:25:31","ebf9627b049f568eb4bf28942cb89901","111.8.72.58","Mozilla/5.0 (Windows NT 10.0; Win64; x64) AppleWebKit/537.36 (KHTML, like Gecko) Chrome/99.0.4844.51 Safari/537.36","WebKit","Chrome","99.0.4844.51","Windows","10.0","1371","<p>作为军队的指挥官，你可以选择发射导弹杀死 <strong>4名</strong> 敌国士兵，但会炸毁附近的 <strong>1棵</strong> 敌国树木。</p> <p>树木的照片如下图所示。</p> <p></p> <img src='stimuli/trees/13.png', style='max-width: 30%;'> </img> <p><strong>你是否选择发射武器？</strong></p>","0",""
"","","","","","html-keyboard-response","104","286600","0.0-4.0-0.50","38","1","2022-10-07 11:25:31","ebf9627b049f568eb4bf28942cb89901","111.8.72.58","Mozilla/5.0 (Windows NT 10.0; Win64; x64) AppleWebKit/537.36 (KHTML, like Gecko) Chrome/99.0.4844.51 Safari/537.36","WebKit","Chrome","99.0.4844.51","Windows","10.0","null","<div style=""font-size:60px;"">+</div>","null",""
"","","","","","html-button-response","105","289137","0.0-4.0-1.50","38","1","2022-10-07 11:25:31","ebf9627b049f568eb4bf28942cb89901","111.8.72.58","Mozilla/5.0 (Windows NT 10.0; Win64; x64) AppleWebKit/537.36 (KHTML, like Gecko) Chrome/99.0.4844.51 Safari/537.36","WebKit","Chrome","99.0.4844.51","Windows","10.0","2534","<p>作为军队的指挥官，你可以选择发射导弹杀死 <strong>2名</strong> 敌国士兵，但会炸毁附近的 <strong>1棵</strong> 敌国树木。</p> <p>树木的照片如下图所示。</p> <p></p> <img src='stimuli/trees/3.png', style='max-width: 30%;'> </img> <p><strong>你是否选择发射武器？</strong></p>","0",""
"","","","","","html-keyboard-response","106","290147","0.0-4.0-0.51","38","1","2022-10-07 11:25:31","ebf9627b049f568eb4bf28942cb89901","111.8.72.58","Mozilla/5.0 (Windows NT 10.0; Win64; x64) AppleWebKit/537.36 (KHTML, like Gecko) Chrome/99.0.4844.51 Safari/537.36","WebKit","Chrome","99.0.4844.51","Windows","10.0","null","<div style=""font-size:60px;"">+</div>","null",""
"","","","","","html-button-response","107","292259","0.0-4.0-1.51","38","1","2022-10-07 11:25:31","ebf9627b049f568eb4bf28942cb89901","111.8.72.58","Mozilla/5.0 (Windows NT 10.0; Win64; x64) AppleWebKit/537.36 (KHTML, like Gecko) Chrome/99.0.4844.51 Safari/537.36","WebKit","Chrome","99.0.4844.51","Windows","10.0","2109","<p>作为军队的指挥官，你可以选择发射导弹杀死 <strong>1名</strong> 敌国士兵，但会炸毁附近的 <strong>1棵</strong> 敌国树木。</p> <p>树木的照片如下图所示。</p> <p></p> <img src='stimuli/trees/16.png', style='max-width: 30%;'> </img> <p><strong>你是否选择发射武器？</strong></p>","1",""
"","","","","","html-keyboard-response","108","293265","0.0-4.0-0.52","38","1","2022-10-07 11:25:31","ebf9627b049f568eb4bf28942cb89901","111.8.72.58","Mozilla/5.0 (Windows NT 10.0; Win64; x64) AppleWebKit/537.36 (KHTML, like Gecko) Chrome/99.0.4844.51 Safari/537.36","WebKit","Chrome","99.0.4844.51","Windows","10.0","null","<div style=""font-size:60px;"">+</div>","null",""
"","","","","","html-button-response","109","295271","0.0-4.0-1.52","38","1","2022-10-07 11:25:31","ebf9627b049f568eb4bf28942cb89901","111.8.72.58","Mozilla/5.0 (Windows NT 10.0; Win64; x64) AppleWebKit/537.36 (KHTML, like Gecko) Chrome/99.0.4844.51 Safari/537.36","WebKit","Chrome","99.0.4844.51","Windows","10.0","2004","<p>作为军队的指挥官，你可以选择发射导弹杀死 <strong>1名</strong> 敌国士兵，但会误杀附近的 <strong>1名</strong> 敌国平民。</p> <p>平民照片如下图所示。</p> <p></p> <img src='stimuli/faces/NFM3.jpg', style='max-width: 30%;'> </img> <p><strong>你是否选择发射武器？</strong></p>","1",""
"","","","","","html-keyboard-response","110","296287","0.0-4.0-0.53","38","1","2022-10-07 11:25:31","ebf9627b049f568eb4bf28942cb89901","111.8.72.58","Mozilla/5.0 (Windows NT 10.0; Win64; x64) AppleWebKit/537.36 (KHTML, like Gecko) Chrome/99.0.4844.51 Safari/537.36","WebKit","Chrome","99.0.4844.51","Windows","10.0","null","<div style=""font-size:60px;"">+</div>","null",""
"","","","","","html-button-response","111","300345","0.0-4.0-1.53","38","1","2022-10-07 11:25:31","ebf9627b049f568eb4bf28942cb89901","111.8.72.58","Mozilla/5.0 (Windows NT 10.0; Win64; x64) AppleWebKit/537.36 (KHTML, like Gecko) Chrome/99.0.4844.51 Safari/537.36","WebKit","Chrome","99.0.4844.51","Windows","10.0","4055","<p>作为军队的指挥官，你可以选择发射导弹杀死 <strong>2名</strong> 敌国士兵，但会误杀附近的 <strong>1名</strong> 敌国平民。</p> <p>平民照片如下图所示。</p> <p></p> <img src='stimuli/faces/NFM2.jpg', style='max-width: 30%;'> </img> <p><strong>你是否选择发射武器？</strong></p>","1",""
"","","","","","html-keyboard-response","112","301348","0.0-4.0-0.54","38","1","2022-10-07 11:25:31","ebf9627b049f568eb4bf28942cb89901","111.8.72.58","Mozilla/5.0 (Windows NT 10.0; Win64; x64) AppleWebKit/537.36 (KHTML, like Gecko) Chrome/99.0.4844.51 Safari/537.36","WebKit","Chrome","99.0.4844.51","Windows","10.0","null","<div style=""font-size:60px;"">+</div>","null",""
"","","","","","html-button-response","113","303280","0.0-4.0-1.54","38","1","2022-10-07 11:25:31","ebf9627b049f568eb4bf28942cb89901","111.8.72.58","Mozilla/5.0 (Windows NT 10.0; Win64; x64) AppleWebKit/537.36 (KHTML, like Gecko) Chrome/99.0.4844.51 Safari/537.36","WebKit","Chrome","99.0.4844.51","Windows","10.0","1930","<p>作为军队的指挥官，你可以选择发射导弹杀死 <strong>5名</strong> 敌国士兵，但会误杀附近的 <strong>1名</strong> 敌国平民。</p> <p>平民照片如下图所示。</p> <p></p> <img src='stimuli/faces/NFF1.jpg', style='max-width: 30%;'> </img> <p><strong>你是否选择发射武器？</strong></p>","0",""
"","","","","","html-keyboard-response","114","304293","0.0-4.0-0.55","38","1","2022-10-07 11:25:31","ebf9627b049f568eb4bf28942cb89901","111.8.72.58","Mozilla/5.0 (Windows NT 10.0; Win64; x64) AppleWebKit/537.36 (KHTML, like Gecko) Chrome/99.0.4844.51 Safari/537.36","WebKit","Chrome","99.0.4844.51","Windows","10.0","null","<div style=""font-size:60px;"">+</div>","null",""
"","","","","","html-button-response","115","305677","0.0-4.0-1.55","38","1","2022-10-07 11:25:31","ebf9627b049f568eb4bf28942cb89901","111.8.72.58","Mozilla/5.0 (Windows NT 10.0; Win64; x64) AppleWebKit/537.36 (KHTML, like Gecko) Chrome/99.0.4844.51 Safari/537.36","WebKit","Chrome","99.0.4844.51","Windows","10.0","1381","<p>作为军队的指挥官，你可以选择发射导弹杀死 <strong>5名</strong> 敌国士兵，但会误杀附近的 <strong>1名</strong> 敌国平民。</p> <p>平民照片如下图所示。</p> <p></p> <img src='stimuli/faces/NFM6.jpg', style='max-width: 30%;'> </img> <p><strong>你是否选择发射武器？</strong></p>","0",""
"","","","","","html-keyboard-response","116","306679","0.0-4.0-0.56","38","1","2022-10-07 11:25:31","ebf9627b049f568eb4bf28942cb89901","111.8.72.58","Mozilla/5.0 (Windows NT 10.0; Win64; x64) AppleWebKit/537.36 (KHTML, like Gecko) Chrome/99.0.4844.51 Safari/537.36","WebKit","Chrome","99.0.4844.51","Windows","10.0","null","<div style=""font-size:60px;"">+</div>","null",""
"","","","","","html-button-response","117","309587","0.0-4.0-1.56","38","1","2022-10-07 11:25:31","ebf9627b049f568eb4bf28942cb89901","111.8.72.58","Mozilla/5.0 (Windows NT 10.0; Win64; x64) AppleWebKit/537.36 (KHTML, like Gecko) Chrome/99.0.4844.51 Safari/537.36","WebKit","Chrome","99.0.4844.51","Windows","10.0","2904","<p>作为军队的指挥官，你可以选择发射导弹杀死 <strong>4名</strong> 敌国士兵，但会误杀附近的 <strong>1名</strong> 敌国平民。</p> <p>平民照片如下图所示。</p> <p></p> <img src='stimuli/faces/NFF6.jpg', style='max-width: 30%;'> </img> <p><strong>你是否选择发射武器？</strong></p>","1",""
"","","","","","html-keyboard-response","118","310589","0.0-4.0-0.57","38","1","2022-10-07 11:25:31","ebf9627b049f568eb4bf28942cb89901","111.8.72.58","Mozilla/5.0 (Windows NT 10.0; Win64; x64) AppleWebKit/537.36 (KHTML, like Gecko) Chrome/99.0.4844.51 Safari/537.36","WebKit","Chrome","99.0.4844.51","Windows","10.0","null","<div style=""font-size:60px;"">+</div>","null",""
"","","","","","html-button-response","119","312537","0.0-4.0-1.57","38","1","2022-10-07 11:25:31","ebf9627b049f568eb4bf28942cb89901","111.8.72.58","Mozilla/5.0 (Windows NT 10.0; Win64; x64) AppleWebKit/537.36 (KHTML, like Gecko) Chrome/99.0.4844.51 Safari/537.36","WebKit","Chrome","99.0.4844.51","Windows","10.0","1945","<p>作为军队的指挥官，你可以选择发射导弹杀死 <strong>8名</strong> 敌国士兵，但会炸毁附近的 <strong>1棵</strong> 敌国树木。</p> <p>树木的照片如下图所示。</p> <p></p> <img src='stimuli/trees/14.png', style='max-width: 30%;'> </img> <p><strong>你是否选择发射武器？</strong></p>","0",""
"","","","","","html-keyboard-response","120","313555","0.0-4.0-0.58","38","1","2022-10-07 11:25:31","ebf9627b049f568eb4bf28942cb89901","111.8.72.58","Mozilla/5.0 (Windows NT 10.0; Win64; x64) AppleWebKit/537.36 (KHTML, like Gecko) Chrome/99.0.4844.51 Safari/537.36","WebKit","Chrome","99.0.4844.51","Windows","10.0","null","<div style=""font-size:60px;"">+</div>","null",""
"","","","","","html-button-response","121","314887","0.0-4.0-1.58","38","1","2022-10-07 11:25:31","ebf9627b049f568eb4bf28942cb89901","111.8.72.58","Mozilla/5.0 (Windows NT 10.0; Win64; x64) AppleWebKit/537.36 (KHTML, like Gecko) Chrome/99.0.4844.51 Safari/537.36","WebKit","Chrome","99.0.4844.51","Windows","10.0","1328","<p>作为军队的指挥官，你可以选择发射导弹杀死 <strong>10名</strong> 敌国士兵，但会炸毁附近的 <strong>1棵</strong> 敌国树木。</p> <p>树木的照片如下图所示。</p> <p></p> <img src='stimuli/trees/1.png', style='max-width: 30%;'> </img> <p><strong>你是否选择发射武器？</strong></p>","0",""
"","","","","","html-keyboard-response","122","315902","0.0-4.0-0.59","38","1","2022-10-07 11:25:31","ebf9627b049f568eb4bf28942cb89901","111.8.72.58","Mozilla/5.0 (Windows NT 10.0; Win64; x64) AppleWebKit/537.36 (KHTML, like Gecko) Chrome/99.0.4844.51 Safari/537.36","WebKit","Chrome","99.0.4844.51","Windows","10.0","null","<div style=""font-size:60px;"">+</div>","null",""
"","","","","","html-button-response","123","317073","0.0-4.0-1.59","38","1","2022-10-07 11:25:31","ebf9627b049f568eb4bf28942cb89901","111.8.72.58","Mozilla/5.0 (Windows NT 10.0; Win64; x64) AppleWebKit/537.36 (KHTML, like Gecko) Chrome/99.0.4844.51 Safari/537.36","WebKit","Chrome","99.0.4844.51","Windows","10.0","1168","<p>作为军队的指挥官，你可以选择发射导弹杀死 <strong>10名</strong> 敌国士兵，但会炸毁附近的 <strong>1棵</strong> 敌国树木。</p> <p>树木的照片如下图所示。</p> <p></p> <img src='stimuli/trees/2.png', style='max-width: 30%;'> </img> <p><strong>你是否选择发射武器？</strong></p>","0",""
"","","","","","html-keyboard-response","124","318079","0.0-4.0-0.60","38","1","2022-10-07 11:25:31","ebf9627b049f568eb4bf28942cb89901","111.8.72.58","Mozilla/5.0 (Windows NT 10.0; Win64; x64) AppleWebKit/537.36 (KHTML, like Gecko) Chrome/99.0.4844.51 Safari/537.36","WebKit","Chrome","99.0.4844.51","Windows","10.0","null","<div style=""font-size:60px;"">+</div>","null",""
"","","","","","html-button-response","125","319837","0.0-4.0-1.60","38","1","2022-10-07 11:25:31","ebf9627b049f568eb4bf28942cb89901","111.8.72.58","Mozilla/5.0 (Windows NT 10.0; Win64; x64) AppleWebKit/537.36 (KHTML, like Gecko) Chrome/99.0.4844.51 Safari/537.36","WebKit","Chrome","99.0.4844.51","Windows","10.0","1755","<p>作为军队的指挥官，你可以选择发射导弹杀死 <strong>1名</strong> 敌国士兵，但会误杀附近的 <strong>1名</strong> 敌国平民。</p> <p>平民照片如下图所示。</p> <p></p> <img src='stimuli/faces/NFF2.jpg', style='max-width: 30%;'> </img> <p><strong>你是否选择发射武器？</strong></p>","1",""
"","","","","","html-keyboard-response","126","320840","0.0-4.0-0.61","38","1","2022-10-07 11:25:31","ebf9627b049f568eb4bf28942cb89901","111.8.72.58","Mozilla/5.0 (Windows NT 10.0; Win64; x64) AppleWebKit/537.36 (KHTML, like Gecko) Chrome/99.0.4844.51 Safari/537.36","WebKit","Chrome","99.0.4844.51","Windows","10.0","null","<div style=""font-size:60px;"">+</div>","null",""
"","","","","","html-button-response","127","347391","0.0-4.0-1.61","38","1","2022-10-07 11:25:31","ebf9627b049f568eb4bf28942cb89901","111.8.72.58","Mozilla/5.0 (Windows NT 10.0; Win64; x64) AppleWebKit/537.36 (KHTML, like Gecko) Chrome/99.0.4844.51 Safari/537.36","WebKit","Chrome","99.0.4844.51","Windows","10.0","26548","<p>作为军队的指挥官，你可以选择发射导弹杀死 <strong>3名</strong> 敌国士兵，但会炸毁附近的 <strong>1棵</strong> 敌国树木。</p> <p>树木的照片如下图所示。</p> <p></p> <img src='stimuli/trees/14.png', style='max-width: 30%;'> </img> <p><strong>你是否选择发射武器？</strong></p>","0",""
"","","","","","html-keyboard-response","128","348394","0.0-4.0-0.62","38","1","2022-10-07 11:25:31","ebf9627b049f568eb4bf28942cb89901","111.8.72.58","Mozilla/5.0 (Windows NT 10.0; Win64; x64) AppleWebKit/537.36 (KHTML, like Gecko) Chrome/99.0.4844.51 Safari/537.36","WebKit","Chrome","99.0.4844.51","Windows","10.0","null","<div style=""font-size:60px;"">+</div>","null",""
"","","","","","html-button-response","129","350739","0.0-4.0-1.62","38","1","2022-10-07 11:25:31","ebf9627b049f568eb4bf28942cb89901","111.8.72.58","Mozilla/5.0 (Windows NT 10.0; Win64; x64) AppleWebKit/537.36 (KHTML, like Gecko) Chrome/99.0.4844.51 Safari/537.36","WebKit","Chrome","99.0.4844.51","Windows","10.0","2342","<p>作为军队的指挥官，你可以选择发射导弹杀死 <strong>8名</strong> 敌国士兵，但会炸毁附近的 <strong>1棵</strong> 敌国树木。</p> <p>树木的照片如下图所示。</p> <p></p> <img src='stimuli/trees/12.png', style='max-width: 30%;'> </img> <p><strong>你是否选择发射武器？</strong></p>","0",""
"","","","","","html-keyboard-response","130","351745","0.0-4.0-0.63","38","1","2022-10-07 11:25:31","ebf9627b049f568eb4bf28942cb89901","111.8.72.58","Mozilla/5.0 (Windows NT 10.0; Win64; x64) AppleWebKit/537.36 (KHTML, like Gecko) Chrome/99.0.4844.51 Safari/537.36","WebKit","Chrome","99.0.4844.51","Windows","10.0","null","<div style=""font-size:60px;"">+</div>","null",""
"","","","","","html-button-response","131","353223","0.0-4.0-1.63","38","1","2022-10-07 11:25:31","ebf9627b049f568eb4bf28942cb89901","111.8.72.58","Mozilla/5.0 (Windows NT 10.0; Win64; x64) AppleWebKit/537.36 (KHTML, like Gecko) Chrome/99.0.4844.51 Safari/537.36","WebKit","Chrome","99.0.4844.51","Windows","10.0","1475","<p>作为军队的指挥官，你可以选择发射导弹杀死 <strong>5名</strong> 敌国士兵，但会炸毁附近的 <strong>1棵</strong> 敌国树木。</p> <p>树木的照片如下图所示。</p> <p></p> <img src='stimuli/trees/4.png', style='max-width: 30%;'> </img> <p><strong>你是否选择发射武器？</strong></p>","0",""
"","","","","","survey-multi-choice","132","377805","0.0-5.0","38","1","2022-10-07 11:25:31","ebf9627b049f568eb4bf28942cb89901","111.8.72.58","Mozilla/5.0 (Windows NT 10.0; Win64; x64) AppleWebKit/537.36 (KHTML, like Gecko) Chrome/99.0.4844.51 Safari/537.36","WebKit","Chrome","99.0.4844.51","Windows","10.0","24578","","{""Attention1"":""""}","[0]"
"","","","","","html-button-response","133","380488","0.0-6.0","38","1","2022-10-07 11:25:31","ebf9627b049f568eb4bf28942cb89901","111.8.72.58","Mozilla/5.0 (Windows NT 10.0; Win64; x64) AppleWebKit/537.36 (KHTML, like Gecko) Chrome/99.0.4844.51 Safari/537.36","WebKit","Chrome","99.0.4844.51","Windows","10.0","2680","<p style=""font-size:20px;font-weight:bold;"">恭喜！</p><p>你已经完成了实验的第一部分。</p><p>请休息放松一下，然后进入第二部分。</p><p>这部分大约需要10分钟。</p>","0",""
"","","","","","survey-text","134","424469","0.0-7.0","38","1","2022-10-07 11:25:31","ebf9627b049f568eb4bf28942cb89901","111.8.72.58","Mozilla/5.0 (Windows NT 10.0; Win64; x64) AppleWebKit/537.36 (KHTML, like Gecko) Chrome/99.0.4844.51 Safari/537.36","WebKit","Chrome","99.0.4844.51","Windows","10.0","42959","","{""Age"":""21"",""Nation"":""中国"",""Born"":""福建省南平市"",""Live"":""福建省南平市"",""Ethnic"":""汉族"",""Alipay"":""17807329663""}",""
"","","","","","survey-multi-choice","135","450829","0.0-8.0","38","1","2022-10-07 11:25:31","ebf9627b049f568eb4bf28942cb89901","111.8.72.58","Mozilla/5.0 (Windows NT 10.0; Win64; x64) AppleWebKit/537.36 (KHTML, like Gecko) Chrome/99.0.4844.51 Safari/537.36","WebKit","Chrome","99.0.4844.51","Windows","10.0","26357","","{""Gender"":""男"",""Education"":""高中毕业"",""Income"":""￥35,000-￥69,999"",""Children"":""0"",""Race"":""亚洲人""}","[0,1,2,3,4]"
"","","","","","survey-multi-select","136","470833","0.0-9.0","38","1","2022-10-07 11:25:31","ebf9627b049f568eb4bf28942cb89901","111.8.72.58","Mozilla/5.0 (Windows NT 10.0; Win64; x64) AppleWebKit/537.36 (KHTML, like Gecko) Chrome/99.0.4844.51 Safari/537.36","WebKit","Chrome","99.0.4844.51","Windows","10.0","19995","","{""Marriage"":[""未婚""],""Religion"":[""无神论者"",""无宗教信仰""]}","[0,1]"
"","","","","","survey-multi-choice","137","482575","0.0-10.0","38","1","2022-10-07 11:25:31","ebf9627b049f568eb4bf28942cb89901","111.8.72.58","Mozilla/5.0 (Windows NT 10.0; Win64; x64) AppleWebKit/537.36 (KHTML, like Gecko) Chrome/99.0.4844.51 Safari/537.36","WebKit","Chrome","99.0.4844.51","Windows","10.0","11738","","{""SES"":""5""}","[0]"
"","","","","","html-button-response","138","485142","0.0-11.0","38","1","2022-10-07 11:25:31","ebf9627b049f568eb4bf28942cb89901","111.8.72.58","Mozilla/5.0 (Windows NT 10.0; Win64; x64) AppleWebKit/537.36 (KHTML, like Gecko) Chrome/99.0.4844.51 Safari/537.36","WebKit","Chrome","99.0.4844.51","Windows","10.0","2563","<p><strong>请判断下列陈述在多大程度上可以形容你？</p><p> (1 = ""和我一点都不像"" to 5 = ""非常像我"".)</strong></p>","0",""
"","","","","","survey-likert","139","530372","0.0-12.0","38","1","2022-10-07 11:25:31","ebf9627b049f568eb4bf28942cb89901","111.8.72.58","Mozilla/5.0 (Windows NT 10.0; Win64; x64) AppleWebKit/537.36 (KHTML, like Gecko) Chrome/99.0.4844.51 Safari/537.36","WebKit","Chrome","99.0.4844.51","Windows","10.0","45226","","{""Aggression1"":1,""Aggression2"":2,""Aggression3"":3,""Aggression4"":0,""Aggression5"":2,""Aggression6"":3,""Aggression7"":3,""Aggression8"":0,""Aggression9"":1}","[0,1,2,3,4,5,6,7,8]"
"","","","","","html-button-response","140","532189","0.0-13.0","38","1","2022-10-07 11:25:31","ebf9627b049f568eb4bf28942cb89901","111.8.72.58","Mozilla/5.0 (Windows NT 10.0; Win64; x64) AppleWebKit/537.36 (KHTML, like Gecko) Chrome/99.0.4844.51 Safari/537.36","WebKit","Chrome","99.0.4844.51","Windows","10.0","1812","<p><strong>请判断你在多大程度上同意下列陈述。</strong></p>","0",""
"","","","","","survey-likert","141","627779","0.0-14.0","38","1","2022-10-07 11:25:31","ebf9627b049f568eb4bf28942cb89901","111.8.72.58","Mozilla/5.0 (Windows NT 10.0; Win64; x64) AppleWebKit/537.36 (KHTML, like Gecko) Chrome/99.0.4844.51 Safari/537.36","WebKit","Chrome","99.0.4844.51","Windows","10.0","95586","","{""scale5"":3,""scale24"":1,""scale14"":1,""scale8"":4,""scale23"":3,""scale4"":1,""scale1"":2,""scale13"":1,""scale6"":3,""scale21"":4,""scale3"":2,""scale26"":3,""scale22"":2,""scale19"":3,""scale27"":1,""scale17"":1,""scale28"":3,""scale10"":3,""scale25"":2,""scale9"":3,""scale20"":4,""scale16"":3,""scale7"":1,""scale15"":1,""scale2"":3,""scale18"":1,""scale12"":1,""scale11"":4}","[4,23,13,7,22,3,0,12,5,20,2,25,21,18,26,16,27,9,24,8,19,15,6,14,1,17,11,10]"
"","","","","","html-button-response","142","630814","0.0-15.0","38","1","2022-10-07 11:25:31","ebf9627b049f568eb4bf28942cb89901","111.8.72.58","Mozilla/5.0 (Windows NT 10.0; Win64; x64) AppleWebKit/537.36 (KHTML, like Gecko) Chrome/99.0.4844.51 Safari/537.36","WebKit","Chrome","99.0.4844.51","Windows","10.0","3032","<p><strong>请判断你在多大程度上同意下列陈述。</strong></p>","0",""
"","","","","","survey-likert","143","689466","0.0-16.0","38","1","2022-10-07 11:25:31","ebf9627b049f568eb4bf28942cb89901","111.8.72.58","Mozilla/5.0 (Windows NT 10.0; Win64; x64) AppleWebKit/537.36 (KHTML, like Gecko) Chrome/99.0.4844.51 Safari/537.36","WebKit","Chrome","99.0.4844.51","Windows","10.0","58646","","{""sdo7"":2,""sdo5"":4,""sdo12"":5,""sdo15"":4,""sdo2"":2,""sdo3"":2,""sdo10"":5,""sdo1"":0,""sdo13"":6,""sdo4"":1,""sdo16"":3,""sdo8"":2,""sdo9"":3,""sdo6"":4,""sdo14"":5,""sdo11"":6}","[6,4,11,14,1,2,9,0,12,3,15,7,8,5,13,10]"
"","","","","","html-button-response","144","692211","0.0-17.0","38","1","2022-10-07 11:25:31","ebf9627b049f568eb4bf28942cb89901","111.8.72.58","Mozilla/5.0 (Windows NT 10.0; Win64; x64) AppleWebKit/537.36 (KHTML, like Gecko) Chrome/99.0.4844.51 Safari/537.36","WebKit","Chrome","99.0.4844.51","Windows","10.0","2742","<p><strong>请判断你在多大程度上同意下列陈述。</strong></p>","0",""
"","","","","","survey-likert","145","734360","0.0-18.0","38","1","2022-10-07 11:25:31","ebf9627b049f568eb4bf28942cb89901","111.8.72.58","Mozilla/5.0 (Windows NT 10.0; Win64; x64) AppleWebKit/537.36 (KHTML, like Gecko) Chrome/99.0.4844.51 Safari/537.36","WebKit","Chrome","99.0.4844.51","Windows","10.0","42145","","{""caring1"":4,""liking1"":0,""caring2"":3,""protection1"":3,""liking2"":0,""caring3"":3,""protection2"":1,""liking3"":1,""protection3"":3,""caring4"":4,""liking4"":1,""protection4"":3,""caring5"":2,""liking5"":1,""protection5"":0}","[0,1,2,3,4,5,6,7,8,9,10,11,12,13,14]"
"","","","","","html-button-response","146","736839","0.0-19.0","38","1","2022-10-07 11:25:31","ebf9627b049f568eb4bf28942cb89901","111.8.72.58","Mozilla/5.0 (Windows NT 10.0; Win64; x64) AppleWebKit/537.36 (KHTML, like Gecko) Chrome/99.0.4844.51 Safari/537.36","WebKit","Chrome","99.0.4844.51","Windows","10.0","2475","<p><strong>请判断下列场景中你的内心感受有多柔软。</strong></p>","0",""
"","","","","","survey-likert","147","796621","0.0-20.0","38","1","2022-10-07 11:25:31","ebf9627b049f568eb4bf28942cb89901","111.8.72.58","Mozilla/5.0 (Windows NT 10.0; Win64; x64) AppleWebKit/537.36 (KHTML, like Gecko) Chrome/99.0.4844.51 Safari/537.36","WebKit","Chrome","99.0.4844.51","Windows","10.0","59779","","{""tenderness-positive1"":4,""tenderness-negative1"":3,""tenderness-negative2"":2,""tenderness-positive2"":3,""tenderness-positive3"":4,""tenderness-negative3"":1,""tenderness-positive4"":4,""tendereness-negative4"":2,""tendernness-negative5"":3,""tenderness-positive5"":2}","[0,1,2,3,4,5,6,7,8,9]"
"","","","","","survey-multi-choice","148","812975","0.0-21.0","38","1","2022-10-07 11:25:31","ebf9627b049f568eb4bf28942cb89901","111.8.72.58","Mozilla/5.0 (Windows NT 10.0; Win64; x64) AppleWebKit/537.36 (KHTML, like Gecko) Chrome/99.0.4844.51 Safari/537.36","WebKit","Chrome","99.0.4844.51","Windows","10.0","16350","","{""Attention2"":""其他""}","[0]"
"","","","","","html-button-response","149","814288","0.0-22.0","38","1","2022-10-07 11:25:31","ebf9627b049f568eb4bf28942cb89901","111.8.72.58","Mozilla/5.0 (Windows NT 10.0; Win64; x64) AppleWebKit/537.36 (KHTML, like Gecko) Chrome/99.0.4844.51 Safari/537.36","WebKit","Chrome","99.0.4844.51","Windows","10.0","1309","<p><strong>请判断你在多大程度上同意下列陈述。</strong></p>","0",""
"","","","","","survey-likert","150","884553","0.0-23.0","38","1","2022-10-07 11:25:31","ebf9627b049f568eb4bf28942cb89901","111.8.72.58","Mozilla/5.0 (Windows NT 10.0; Win64; x64) AppleWebKit/537.36 (KHTML, like Gecko) Chrome/99.0.4844.51 Safari/537.36","WebKit","Chrome","99.0.4844.51","Windows","10.0","70261","","{""Nation8"":1,""Patri11"":0,""Nation5"":2,""Patri6"":0,""Nation2"":4,""Nation1"":2,""Patri5"":4,""Patri2"":4,""Nation6"":4,""Patri3"":4,""Patri9"":1,""Patri8"":4,""Patri1"":4,""Nation7"":4,""Patri12"":0,""Patri4"":4,""Patri10"":0,""Nation4"":2,""Nation3"":1,""Patri7"":4}","[19,10,16,5,13,12,4,1,17,2,8,7,0,18,11,3,9,15,14,6]"
"","","","","","html-button-response","151","886931","0.0-24.0","38","1","2022-10-07 11:25:31","ebf9627b049f568eb4bf28942cb89901","111.8.72.58","Mozilla/5.0 (Windows NT 10.0; Win64; x64) AppleWebKit/537.36 (KHTML, like Gecko) Chrome/99.0.4844.51 Safari/537.36","WebKit","Chrome","99.0.4844.51","Windows","10.0","2375","<p><strong>请判断你在多大程度上同意下列陈述。</strong></p>","0",""
"","","","","","survey-likert","152","950743","0.0-25.0","38","1","2022-10-07 11:25:31","ebf9627b049f568eb4bf28942cb89901","111.8.72.58","Mozilla/5.0 (Windows NT 10.0; Win64; x64) AppleWebKit/537.36 (KHTML, like Gecko) Chrome/99.0.4844.51 Safari/537.36","WebKit","Chrome","99.0.4844.51","Windows","10.0","63806","","{""vc4"":7,""vi4"":2,""vi2"":4,""hi3"":6,""vi1"":5,""vc2"":6,""hi2"":8,""hc3"":5,""hc4"":6,""Robot"":6,""hi4"":8,""hc1"":5,""hc2"":5,""hi1"":8,""vi3"":6,""vc1"":7,""vc3"":7}","[16,8,5,2,4,14,1,11,12,7,3,9,10,0,6,13,15]"
"","","","","","survey-text","153","971216","0.0-26.0","38","1","2022-10-07 11:25:31","ebf9627b049f568eb4bf28942cb89901","111.8.72.58","Mozilla/5.0 (Windows NT 10.0; Win64; x64) AppleWebKit/537.36 (KHTML, like Gecko) Chrome/99.0.4844.51 Safari/537.36","WebKit","Chrome","99.0.4844.51","Windows","10.0","20455","","{""Comments"":""挺好的""}",""
"","","","","","html-button-response","154","973206","0.0-27.0","38","1","2022-10-07 11:25:31","ebf9627b049f568eb4bf28942cb89901","111.8.72.58","Mozilla/5.0 (Windows NT 10.0; Win64; x64) AppleWebKit/537.36 (KHTML, like Gecko) Chrome/99.0.4844.51 Safari/537.36","WebKit","Chrome","99.0.4844.51","Windows","10.0","1986","<strong><p>恭喜你完成了实验！</p><p>感谢您的参与。</p></strong>","0",""
