"success","timeout","failed_images","failed_audio","failed_video","trial_type","trial_index","time_elapsed","internal_node_id","run_id","condition","recorded_at","source_code_version","ip","user_agent","device","browser","browser_version","platform","platform_version","rt","stimulus","response","question_order"
"true","false","[]","[]","[]","preload","0","2652","0.0-0.0","41","1","2022-10-09 10:17:16","ebf9627b049f568eb4bf28942cb89901","117.30.100.21","Mozilla/5.0 (Windows NT 10.0; WOW64) AppleWebKit/537.36 (KHTML, like Gecko) Chrome/92.0.4515.131 Safari/537.36 SLBrowser/8.0.0.7062 SLBChan/33","WebKit","Chrome","92.0.4515.131","Windows","10.0","","","",""
"true","","","","","fullscreen","1","6166","0.0-1.0","41","1","2022-10-09 10:17:16","ebf9627b049f568eb4bf28942cb89901","117.30.100.21","Mozilla/5.0 (Windows NT 10.0; WOW64) AppleWebKit/537.36 (KHTML, like Gecko) Chrome/92.0.4515.131 Safari/537.36 SLBrowser/8.0.0.7062 SLBChan/33","WebKit","Chrome","92.0.4515.131","Windows","10.0","","","",""
"","","","","","html-button-response","2","8913","0.0-2.0","41","1","2022-10-09 10:17:16","ebf9627b049f568eb4bf28942cb89901","117.30.100.21","Mozilla/5.0 (Windows NT 10.0; WOW64) AppleWebKit/537.36 (KHTML, like Gecko) Chrome/92.0.4515.131 Safari/537.36 SLBrowser/8.0.0.7062 SLBChan/33","WebKit","Chrome","92.0.4515.131","Windows","10.0","2746","<p style=""font-size:20px;font-weight:bold;"">实验知情同意书</p><p style=""text-align:left;""><strong>实验名称：</strong>社会冲突研究</p><p style=""text-align:left;""><strong>主要研究者：</strong>韩晓春副教授（北京师范大学心理学部）</p><p style=""text-align:left;""><strong>联系方式：</strong>发送邮件至xiaochun.han@bnu.edu.cn</p><p style=""text-align:left;""><strong>研究目的：</strong>研究旨在了解人类面对群体冲突时的决策方式，以及相关的心理学特质。实验调查大约需要20分钟。</p><p style=""text-align:left;""><strong>实验流程：</strong>实验包含两部分。第一部分呈现一系列群体冲突场景，请你决定如何对这些冲突进行反应，大约需要10分钟完成。第二部分包含一系列人口统计学信息收集和心理学问卷，大约需要10分钟完成。</p><p style=""text-align:left;""><strong>参加及退出规则：</strong>参加本实验完全取决于您的个人意愿。在参与过程中，您可以随时退出，并且不用承担任何后果。</p><p style=""text-align:left;""><strong>隐私：</strong>本实验完全匿名进行，不会收集您的姓名或其他能够识别您身份的信息。实验中收集的作答仅用作科学研究使用，可能会在学术期刊/书籍上发表，或者用于教学，您的数据未来可能会和其他研究者或实验室分享，但您的个人身份不会被识别。</p><p style=""text-align:left;""><strong>实验报酬：</strong>实验完成后，您将获得15元人民币报酬，以感谢您的时间和努力。调查问卷中包含几道题目用以测验您作答时的认真度。只有完成全部实验，并且正确回答认真度测验的被试才能获得实验报酬。实验报酬将通过支付宝转账发放。</p><p style=""text-align:left;font-size:20px;""><strong>如果您同意以上实验知情同意书的内容，请点击'同意并且开始实验'按钮；否则请关闭浏览器界面，退出实验。</strong></p>","0",""
"","","","","","html-button-response","3","16497","0.0-3.0","41","1","2022-10-09 10:17:16","ebf9627b049f568eb4bf28942cb89901","117.30.100.21","Mozilla/5.0 (Windows NT 10.0; WOW64) AppleWebKit/537.36 (KHTML, like Gecko) Chrome/92.0.4515.131 Safari/537.36 SLBrowser/8.0.0.7062 SLBChan/33","WebKit","Chrome","92.0.4515.131","Windows","10.0","7581","<p ><strong>实验任务一：</strong></p><p>请想象你的国家与另一个国家发生了军事冲突。</p><p>你是国家军队的指挥官，你将如何在冲突中进行决策。</p><p>具体来说，作为军队指挥官，请你决定是否发射导弹进行打击。</p><p>接下来，你会面对一系列场景，请仔细阅读每个场景，然后进行决策。</p><p>这部分实验任务大约需要10分钟。</p><p><strong>实验过程中，请集中注意力。</strong></p>","0",""
"","","","","","html-keyboard-response","4","17501","0.0-4.0-0.0","41","1","2022-10-09 10:17:16","ebf9627b049f568eb4bf28942cb89901","117.30.100.21","Mozilla/5.0 (Windows NT 10.0; WOW64) AppleWebKit/537.36 (KHTML, like Gecko) Chrome/92.0.4515.131 Safari/537.36 SLBrowser/8.0.0.7062 SLBChan/33","WebKit","Chrome","92.0.4515.131","Windows","10.0","null","<div style=""font-size:60px;"">+</div>","null",""
"","","","","","html-button-response","5","24071","0.0-4.0-1.0","41","1","2022-10-09 10:17:16","ebf9627b049f568eb4bf28942cb89901","117.30.100.21","Mozilla/5.0 (Windows NT 10.0; WOW64) AppleWebKit/537.36 (KHTML, like Gecko) Chrome/92.0.4515.131 Safari/537.36 SLBrowser/8.0.0.7062 SLBChan/33","WebKit","Chrome","92.0.4515.131","Windows","10.0","6567","<p>作为军队的指挥官，你可以选择发射导弹杀死 <strong>8名</strong> 敌国士兵，但会炸毁附近的 <strong>1棵</strong> 敌国树木。</p> <p>树木的照片如下图所示。</p> <p></p> <img src='stimuli/trees/3.png', style='max-width: 30%;'> </img> <p><strong>你是否选择发射武器？</strong></p>","0",""
"","","","","","html-keyboard-response","6","25075","0.0-4.0-0.1","41","1","2022-10-09 10:17:16","ebf9627b049f568eb4bf28942cb89901","117.30.100.21","Mozilla/5.0 (Windows NT 10.0; WOW64) AppleWebKit/537.36 (KHTML, like Gecko) Chrome/92.0.4515.131 Safari/537.36 SLBrowser/8.0.0.7062 SLBChan/33","WebKit","Chrome","92.0.4515.131","Windows","10.0","null","<div style=""font-size:60px;"">+</div>","null",""
"","","","","","html-button-response","7","31021","0.0-4.0-1.1","41","1","2022-10-09 10:17:16","ebf9627b049f568eb4bf28942cb89901","117.30.100.21","Mozilla/5.0 (Windows NT 10.0; WOW64) AppleWebKit/537.36 (KHTML, like Gecko) Chrome/92.0.4515.131 Safari/537.36 SLBrowser/8.0.0.7062 SLBChan/33","WebKit","Chrome","92.0.4515.131","Windows","10.0","5943","<p>作为军队的指挥官，你可以选择发射导弹杀死 <strong>3名</strong> 敌国士兵，但会误杀附近的 <strong>1名</strong> 敌国平民。</p> <p>平民照片如下图所示。</p> <p></p> <img src='stimuli/faces/NFM1.jpg', style='max-width: 30%;'> </img> <p><strong>你是否选择发射武器？</strong></p>","1",""
"","","","","","html-keyboard-response","8","32023","0.0-4.0-0.2","41","1","2022-10-09 10:17:16","ebf9627b049f568eb4bf28942cb89901","117.30.100.21","Mozilla/5.0 (Windows NT 10.0; WOW64) AppleWebKit/537.36 (KHTML, like Gecko) Chrome/92.0.4515.131 Safari/537.36 SLBrowser/8.0.0.7062 SLBChan/33","WebKit","Chrome","92.0.4515.131","Windows","10.0","null","<div style=""font-size:60px;"">+</div>","null",""
"","","","","","html-button-response","9","34229","0.0-4.0-1.2","41","1","2022-10-09 10:17:16","ebf9627b049f568eb4bf28942cb89901","117.30.100.21","Mozilla/5.0 (Windows NT 10.0; WOW64) AppleWebKit/537.36 (KHTML, like Gecko) Chrome/92.0.4515.131 Safari/537.36 SLBrowser/8.0.0.7062 SLBChan/33","WebKit","Chrome","92.0.4515.131","Windows","10.0","2204","<p>作为军队的指挥官，你可以选择发射导弹杀死 <strong>6名</strong> 敌国士兵，但会炸毁附近的 <strong>1棵</strong> 敌国树木。</p> <p>树木的照片如下图所示。</p> <p></p> <img src='stimuli/trees/16.png', style='max-width: 30%;'> </img> <p><strong>你是否选择发射武器？</strong></p>","0",""
"","","","","","html-keyboard-response","10","35232","0.0-4.0-0.3","41","1","2022-10-09 10:17:16","ebf9627b049f568eb4bf28942cb89901","117.30.100.21","Mozilla/5.0 (Windows NT 10.0; WOW64) AppleWebKit/537.36 (KHTML, like Gecko) Chrome/92.0.4515.131 Safari/537.36 SLBrowser/8.0.0.7062 SLBChan/33","WebKit","Chrome","92.0.4515.131","Windows","10.0","null","<div style=""font-size:60px;"">+</div>","null",""
"","","","","","html-button-response","11","37630","0.0-4.0-1.3","41","1","2022-10-09 10:17:16","ebf9627b049f568eb4bf28942cb89901","117.30.100.21","Mozilla/5.0 (Windows NT 10.0; WOW64) AppleWebKit/537.36 (KHTML, like Gecko) Chrome/92.0.4515.131 Safari/537.36 SLBrowser/8.0.0.7062 SLBChan/33","WebKit","Chrome","92.0.4515.131","Windows","10.0","2397","<p>作为军队的指挥官，你可以选择发射导弹杀死 <strong>10名</strong> 敌国士兵，但会误杀附近的 <strong>1名</strong> 敌国平民。</p> <p>平民照片如下图所示。</p> <p></p> <img src='stimuli/faces/NFF4.jpg', style='max-width: 30%;'> </img> <p><strong>你是否选择发射武器？</strong></p>","0",""
"","","","","","html-keyboard-response","12","38643","0.0-4.0-0.4","41","1","2022-10-09 10:17:16","ebf9627b049f568eb4bf28942cb89901","117.30.100.21","Mozilla/5.0 (Windows NT 10.0; WOW64) AppleWebKit/537.36 (KHTML, like Gecko) Chrome/92.0.4515.131 Safari/537.36 SLBrowser/8.0.0.7062 SLBChan/33","WebKit","Chrome","92.0.4515.131","Windows","10.0","null","<div style=""font-size:60px;"">+</div>","null",""
"","","","","","html-button-response","13","42653","0.0-4.0-1.4","41","1","2022-10-09 10:17:16","ebf9627b049f568eb4bf28942cb89901","117.30.100.21","Mozilla/5.0 (Windows NT 10.0; WOW64) AppleWebKit/537.36 (KHTML, like Gecko) Chrome/92.0.4515.131 Safari/537.36 SLBrowser/8.0.0.7062 SLBChan/33","WebKit","Chrome","92.0.4515.131","Windows","10.0","4007","<p>作为军队的指挥官，你可以选择发射导弹杀死 <strong>5名</strong> 敌国士兵，但会误杀附近的 <strong>1名</strong> 敌国平民。</p> <p>平民照片如下图所示。</p> <p></p> <img src='stimuli/faces/NFM7.jpg', style='max-width: 30%;'> </img> <p><strong>你是否选择发射武器？</strong></p>","1",""
"","","","","","html-keyboard-response","14","43663","0.0-4.0-0.5","41","1","2022-10-09 10:17:16","ebf9627b049f568eb4bf28942cb89901","117.30.100.21","Mozilla/5.0 (Windows NT 10.0; WOW64) AppleWebKit/537.36 (KHTML, like Gecko) Chrome/92.0.4515.131 Safari/537.36 SLBrowser/8.0.0.7062 SLBChan/33","WebKit","Chrome","92.0.4515.131","Windows","10.0","null","<div style=""font-size:60px;"">+</div>","null",""
"","","","","","html-button-response","15","47558","0.0-4.0-1.5","41","1","2022-10-09 10:17:16","ebf9627b049f568eb4bf28942cb89901","117.30.100.21","Mozilla/5.0 (Windows NT 10.0; WOW64) AppleWebKit/537.36 (KHTML, like Gecko) Chrome/92.0.4515.131 Safari/537.36 SLBrowser/8.0.0.7062 SLBChan/33","WebKit","Chrome","92.0.4515.131","Windows","10.0","3890","<p>作为军队的指挥官，你可以选择发射导弹杀死 <strong>6名</strong> 敌国士兵，但会误杀附近的 <strong>1名</strong> 敌国平民。</p> <p>平民照片如下图所示。</p> <p></p> <img src='stimuli/faces/NFM6.jpg', style='max-width: 30%;'> </img> <p><strong>你是否选择发射武器？</strong></p>","0",""
"","","","","","html-keyboard-response","16","48561","0.0-4.0-0.6","41","1","2022-10-09 10:17:16","ebf9627b049f568eb4bf28942cb89901","117.30.100.21","Mozilla/5.0 (Windows NT 10.0; WOW64) AppleWebKit/537.36 (KHTML, like Gecko) Chrome/92.0.4515.131 Safari/537.36 SLBrowser/8.0.0.7062 SLBChan/33","WebKit","Chrome","92.0.4515.131","Windows","10.0","null","<div style=""font-size:60px;"">+</div>","null",""
"","","","","","html-button-response","17","51400","0.0-4.0-1.6","41","1","2022-10-09 10:17:16","ebf9627b049f568eb4bf28942cb89901","117.30.100.21","Mozilla/5.0 (Windows NT 10.0; WOW64) AppleWebKit/537.36 (KHTML, like Gecko) Chrome/92.0.4515.131 Safari/537.36 SLBrowser/8.0.0.7062 SLBChan/33","WebKit","Chrome","92.0.4515.131","Windows","10.0","2837","<p>作为军队的指挥官，你可以选择发射导弹杀死 <strong>10名</strong> 敌国士兵，但会误杀附近的 <strong>1名</strong> 敌国平民。</p> <p>平民照片如下图所示。</p> <p></p> <img src='stimuli/faces/NFF1.jpg', style='max-width: 30%;'> </img> <p><strong>你是否选择发射武器？</strong></p>","0",""
"","","","","","html-keyboard-response","18","52406","0.0-4.0-0.7","41","1","2022-10-09 10:17:16","ebf9627b049f568eb4bf28942cb89901","117.30.100.21","Mozilla/5.0 (Windows NT 10.0; WOW64) AppleWebKit/537.36 (KHTML, like Gecko) Chrome/92.0.4515.131 Safari/537.36 SLBrowser/8.0.0.7062 SLBChan/33","WebKit","Chrome","92.0.4515.131","Windows","10.0","null","<div style=""font-size:60px;"">+</div>","null",""
"","","","","","html-button-response","19","53955","0.0-4.0-1.7","41","1","2022-10-09 10:17:16","ebf9627b049f568eb4bf28942cb89901","117.30.100.21","Mozilla/5.0 (Windows NT 10.0; WOW64) AppleWebKit/537.36 (KHTML, like Gecko) Chrome/92.0.4515.131 Safari/537.36 SLBrowser/8.0.0.7062 SLBChan/33","WebKit","Chrome","92.0.4515.131","Windows","10.0","1546","<p>作为军队的指挥官，你可以选择发射导弹杀死 <strong>5名</strong> 敌国士兵，但会误杀附近的 <strong>1名</strong> 敌国平民。</p> <p>平民照片如下图所示。</p> <p></p> <img src='stimuli/faces/NFF7.jpg', style='max-width: 30%;'> </img> <p><strong>你是否选择发射武器？</strong></p>","1",""
"","","","","","html-keyboard-response","20","54966","0.0-4.0-0.8","41","1","2022-10-09 10:17:16","ebf9627b049f568eb4bf28942cb89901","117.30.100.21","Mozilla/5.0 (Windows NT 10.0; WOW64) AppleWebKit/537.36 (KHTML, like Gecko) Chrome/92.0.4515.131 Safari/537.36 SLBrowser/8.0.0.7062 SLBChan/33","WebKit","Chrome","92.0.4515.131","Windows","10.0","null","<div style=""font-size:60px;"">+</div>","null",""
"","","","","","html-button-response","21","56483","0.0-4.0-1.8","41","1","2022-10-09 10:17:16","ebf9627b049f568eb4bf28942cb89901","117.30.100.21","Mozilla/5.0 (Windows NT 10.0; WOW64) AppleWebKit/537.36 (KHTML, like Gecko) Chrome/92.0.4515.131 Safari/537.36 SLBrowser/8.0.0.7062 SLBChan/33","WebKit","Chrome","92.0.4515.131","Windows","10.0","1515","<p>作为军队的指挥官，你可以选择发射导弹杀死 <strong>5名</strong> 敌国士兵，但会炸毁附近的 <strong>1棵</strong> 敌国树木。</p> <p>树木的照片如下图所示。</p> <p></p> <img src='stimuli/trees/14.png', style='max-width: 30%;'> </img> <p><strong>你是否选择发射武器？</strong></p>","0",""
"","","","","","html-keyboard-response","22","57487","0.0-4.0-0.9","41","1","2022-10-09 10:17:16","ebf9627b049f568eb4bf28942cb89901","117.30.100.21","Mozilla/5.0 (Windows NT 10.0; WOW64) AppleWebKit/537.36 (KHTML, like Gecko) Chrome/92.0.4515.131 Safari/537.36 SLBrowser/8.0.0.7062 SLBChan/33","WebKit","Chrome","92.0.4515.131","Windows","10.0","null","<div style=""font-size:60px;"">+</div>","null",""
"","","","","","html-button-response","23","59429","0.0-4.0-1.9","41","1","2022-10-09 10:17:16","ebf9627b049f568eb4bf28942cb89901","117.30.100.21","Mozilla/5.0 (Windows NT 10.0; WOW64) AppleWebKit/537.36 (KHTML, like Gecko) Chrome/92.0.4515.131 Safari/537.36 SLBrowser/8.0.0.7062 SLBChan/33","WebKit","Chrome","92.0.4515.131","Windows","10.0","1938","<p>作为军队的指挥官，你可以选择发射导弹杀死 <strong>4名</strong> 敌国士兵，但会炸毁附近的 <strong>1棵</strong> 敌国树木。</p> <p>树木的照片如下图所示。</p> <p></p> <img src='stimuli/trees/9.png', style='max-width: 30%;'> </img> <p><strong>你是否选择发射武器？</strong></p>","0",""
"","","","","","html-keyboard-response","24","60439","0.0-4.0-0.10","41","1","2022-10-09 10:17:16","ebf9627b049f568eb4bf28942cb89901","117.30.100.21","Mozilla/5.0 (Windows NT 10.0; WOW64) AppleWebKit/537.36 (KHTML, like Gecko) Chrome/92.0.4515.131 Safari/537.36 SLBrowser/8.0.0.7062 SLBChan/33","WebKit","Chrome","92.0.4515.131","Windows","10.0","null","<div style=""font-size:60px;"">+</div>","null",""
"","","","","","html-button-response","25","61944","0.0-4.0-1.10","41","1","2022-10-09 10:17:16","ebf9627b049f568eb4bf28942cb89901","117.30.100.21","Mozilla/5.0 (Windows NT 10.0; WOW64) AppleWebKit/537.36 (KHTML, like Gecko) Chrome/92.0.4515.131 Safari/537.36 SLBrowser/8.0.0.7062 SLBChan/33","WebKit","Chrome","92.0.4515.131","Windows","10.0","1501","<p>作为军队的指挥官，你可以选择发射导弹杀死 <strong>1名</strong> 敌国士兵，但会误杀附近的 <strong>1名</strong> 敌国平民。</p> <p>平民照片如下图所示。</p> <p></p> <img src='stimuli/faces/NFF5.jpg', style='max-width: 30%;'> </img> <p><strong>你是否选择发射武器？</strong></p>","1",""
"","","","","","html-keyboard-response","26","62951","0.0-4.0-0.11","41","1","2022-10-09 10:17:16","ebf9627b049f568eb4bf28942cb89901","117.30.100.21","Mozilla/5.0 (Windows NT 10.0; WOW64) AppleWebKit/537.36 (KHTML, like Gecko) Chrome/92.0.4515.131 Safari/537.36 SLBrowser/8.0.0.7062 SLBChan/33","WebKit","Chrome","92.0.4515.131","Windows","10.0","null","<div style=""font-size:60px;"">+</div>","null",""
"","","","","","html-button-response","27","65200","0.0-4.0-1.11","41","1","2022-10-09 10:17:16","ebf9627b049f568eb4bf28942cb89901","117.30.100.21","Mozilla/5.0 (Windows NT 10.0; WOW64) AppleWebKit/537.36 (KHTML, like Gecko) Chrome/92.0.4515.131 Safari/537.36 SLBrowser/8.0.0.7062 SLBChan/33","WebKit","Chrome","92.0.4515.131","Windows","10.0","2245","<p>作为军队的指挥官，你可以选择发射导弹杀死 <strong>1名</strong> 敌国士兵，但会炸毁附近的 <strong>1棵</strong> 敌国树木。</p> <p>树木的照片如下图所示。</p> <p></p> <img src='stimuli/trees/12.png', style='max-width: 30%;'> </img> <p><strong>你是否选择发射武器？</strong></p>","1",""
"","","","","","html-keyboard-response","28","66202","0.0-4.0-0.12","41","1","2022-10-09 10:17:16","ebf9627b049f568eb4bf28942cb89901","117.30.100.21","Mozilla/5.0 (Windows NT 10.0; WOW64) AppleWebKit/537.36 (KHTML, like Gecko) Chrome/92.0.4515.131 Safari/537.36 SLBrowser/8.0.0.7062 SLBChan/33","WebKit","Chrome","92.0.4515.131","Windows","10.0","null","<div style=""font-size:60px;"">+</div>","null",""
"","","","","","html-button-response","29","67655","0.0-4.0-1.12","41","1","2022-10-09 10:17:16","ebf9627b049f568eb4bf28942cb89901","117.30.100.21","Mozilla/5.0 (Windows NT 10.0; WOW64) AppleWebKit/537.36 (KHTML, like Gecko) Chrome/92.0.4515.131 Safari/537.36 SLBrowser/8.0.0.7062 SLBChan/33","WebKit","Chrome","92.0.4515.131","Windows","10.0","1450","<p>作为军队的指挥官，你可以选择发射导弹杀死 <strong>10名</strong> 敌国士兵，但会误杀附近的 <strong>1名</strong> 敌国平民。</p> <p>平民照片如下图所示。</p> <p></p> <img src='stimuli/faces/NFM7.jpg', style='max-width: 30%;'> </img> <p><strong>你是否选择发射武器？</strong></p>","0",""
"","","","","","html-keyboard-response","30","68669","0.0-4.0-0.13","41","1","2022-10-09 10:17:16","ebf9627b049f568eb4bf28942cb89901","117.30.100.21","Mozilla/5.0 (Windows NT 10.0; WOW64) AppleWebKit/537.36 (KHTML, like Gecko) Chrome/92.0.4515.131 Safari/537.36 SLBrowser/8.0.0.7062 SLBChan/33","WebKit","Chrome","92.0.4515.131","Windows","10.0","null","<div style=""font-size:60px;"">+</div>","null",""
"","","","","","html-button-response","31","69761","0.0-4.0-1.13","41","1","2022-10-09 10:17:16","ebf9627b049f568eb4bf28942cb89901","117.30.100.21","Mozilla/5.0 (Windows NT 10.0; WOW64) AppleWebKit/537.36 (KHTML, like Gecko) Chrome/92.0.4515.131 Safari/537.36 SLBrowser/8.0.0.7062 SLBChan/33","WebKit","Chrome","92.0.4515.131","Windows","10.0","1088","<p>作为军队的指挥官，你可以选择发射导弹杀死 <strong>9名</strong> 敌国士兵，但会炸毁附近的 <strong>1棵</strong> 敌国树木。</p> <p>树木的照片如下图所示。</p> <p></p> <img src='stimuli/trees/6.png', style='max-width: 30%;'> </img> <p><strong>你是否选择发射武器？</strong></p>","0",""
"","","","","","html-keyboard-response","32","70767","0.0-4.0-0.14","41","1","2022-10-09 10:17:16","ebf9627b049f568eb4bf28942cb89901","117.30.100.21","Mozilla/5.0 (Windows NT 10.0; WOW64) AppleWebKit/537.36 (KHTML, like Gecko) Chrome/92.0.4515.131 Safari/537.36 SLBrowser/8.0.0.7062 SLBChan/33","WebKit","Chrome","92.0.4515.131","Windows","10.0","null","<div style=""font-size:60px;"">+</div>","null",""
"","","","","","html-button-response","33","71685","0.0-4.0-1.14","41","1","2022-10-09 10:17:16","ebf9627b049f568eb4bf28942cb89901","117.30.100.21","Mozilla/5.0 (Windows NT 10.0; WOW64) AppleWebKit/537.36 (KHTML, like Gecko) Chrome/92.0.4515.131 Safari/537.36 SLBrowser/8.0.0.7062 SLBChan/33","WebKit","Chrome","92.0.4515.131","Windows","10.0","916","<p>作为军队的指挥官，你可以选择发射导弹杀死 <strong>10名</strong> 敌国士兵，但会误杀附近的 <strong>1名</strong> 敌国平民。</p> <p>平民照片如下图所示。</p> <p></p> <img src='stimuli/faces/NFM5.jpg', style='max-width: 30%;'> </img> <p><strong>你是否选择发射武器？</strong></p>","0",""
"","","","","","html-keyboard-response","34","72693","0.0-4.0-0.15","41","1","2022-10-09 10:17:16","ebf9627b049f568eb4bf28942cb89901","117.30.100.21","Mozilla/5.0 (Windows NT 10.0; WOW64) AppleWebKit/537.36 (KHTML, like Gecko) Chrome/92.0.4515.131 Safari/537.36 SLBrowser/8.0.0.7062 SLBChan/33","WebKit","Chrome","92.0.4515.131","Windows","10.0","null","<div style=""font-size:60px;"">+</div>","null",""
"","","","","","html-button-response","35","74660","0.0-4.0-1.15","41","1","2022-10-09 10:17:16","ebf9627b049f568eb4bf28942cb89901","117.30.100.21","Mozilla/5.0 (Windows NT 10.0; WOW64) AppleWebKit/537.36 (KHTML, like Gecko) Chrome/92.0.4515.131 Safari/537.36 SLBrowser/8.0.0.7062 SLBChan/33","WebKit","Chrome","92.0.4515.131","Windows","10.0","1964","<p>作为军队的指挥官，你可以选择发射导弹杀死 <strong>2名</strong> 敌国士兵，但会误杀附近的 <strong>1名</strong> 敌国平民。</p> <p>平民照片如下图所示。</p> <p></p> <img src='stimuli/faces/NFF4.jpg', style='max-width: 30%;'> </img> <p><strong>你是否选择发射武器？</strong></p>","1",""
"","","","","","html-keyboard-response","36","75663","0.0-4.0-0.16","41","1","2022-10-09 10:17:16","ebf9627b049f568eb4bf28942cb89901","117.30.100.21","Mozilla/5.0 (Windows NT 10.0; WOW64) AppleWebKit/537.36 (KHTML, like Gecko) Chrome/92.0.4515.131 Safari/537.36 SLBrowser/8.0.0.7062 SLBChan/33","WebKit","Chrome","92.0.4515.131","Windows","10.0","null","<div style=""font-size:60px;"">+</div>","null",""
"","","","","","html-button-response","37","77593","0.0-4.0-1.16","41","1","2022-10-09 10:17:16","ebf9627b049f568eb4bf28942cb89901","117.30.100.21","Mozilla/5.0 (Windows NT 10.0; WOW64) AppleWebKit/537.36 (KHTML, like Gecko) Chrome/92.0.4515.131 Safari/537.36 SLBrowser/8.0.0.7062 SLBChan/33","WebKit","Chrome","92.0.4515.131","Windows","10.0","1926","<p>作为军队的指挥官，你可以选择发射导弹杀死 <strong>2名</strong> 敌国士兵，但会炸毁附近的 <strong>1棵</strong> 敌国树木。</p> <p>树木的照片如下图所示。</p> <p></p> <img src='stimuli/trees/10.png', style='max-width: 30%;'> </img> <p><strong>你是否选择发射武器？</strong></p>","1",""
"","","","","","html-keyboard-response","38","78603","0.0-4.0-0.17","41","1","2022-10-09 10:17:16","ebf9627b049f568eb4bf28942cb89901","117.30.100.21","Mozilla/5.0 (Windows NT 10.0; WOW64) AppleWebKit/537.36 (KHTML, like Gecko) Chrome/92.0.4515.131 Safari/537.36 SLBrowser/8.0.0.7062 SLBChan/33","WebKit","Chrome","92.0.4515.131","Windows","10.0","null","<div style=""font-size:60px;"">+</div>","null",""
"","","","","","html-button-response","39","79704","0.0-4.0-1.17","41","1","2022-10-09 10:17:16","ebf9627b049f568eb4bf28942cb89901","117.30.100.21","Mozilla/5.0 (Windows NT 10.0; WOW64) AppleWebKit/537.36 (KHTML, like Gecko) Chrome/92.0.4515.131 Safari/537.36 SLBrowser/8.0.0.7062 SLBChan/33","WebKit","Chrome","92.0.4515.131","Windows","10.0","1098","<p>作为军队的指挥官，你可以选择发射导弹杀死 <strong>3名</strong> 敌国士兵，但会误杀附近的 <strong>1名</strong> 敌国平民。</p> <p>平民照片如下图所示。</p> <p></p> <img src='stimuli/faces/NFF2.jpg', style='max-width: 30%;'> </img> <p><strong>你是否选择发射武器？</strong></p>","1",""
"","","","","","html-keyboard-response","40","80717","0.0-4.0-0.18","41","1","2022-10-09 10:17:16","ebf9627b049f568eb4bf28942cb89901","117.30.100.21","Mozilla/5.0 (Windows NT 10.0; WOW64) AppleWebKit/537.36 (KHTML, like Gecko) Chrome/92.0.4515.131 Safari/537.36 SLBrowser/8.0.0.7062 SLBChan/33","WebKit","Chrome","92.0.4515.131","Windows","10.0","null","<div style=""font-size:60px;"">+</div>","null",""
"","","","","","html-button-response","41","81769","0.0-4.0-1.18","41","1","2022-10-09 10:17:16","ebf9627b049f568eb4bf28942cb89901","117.30.100.21","Mozilla/5.0 (Windows NT 10.0; WOW64) AppleWebKit/537.36 (KHTML, like Gecko) Chrome/92.0.4515.131 Safari/537.36 SLBrowser/8.0.0.7062 SLBChan/33","WebKit","Chrome","92.0.4515.131","Windows","10.0","1050","<p>作为军队的指挥官，你可以选择发射导弹杀死 <strong>8名</strong> 敌国士兵，但会误杀附近的 <strong>1名</strong> 敌国平民。</p> <p>平民照片如下图所示。</p> <p></p> <img src='stimuli/faces/NFM8.jpg', style='max-width: 30%;'> </img> <p><strong>你是否选择发射武器？</strong></p>","0",""
"","","","","","html-keyboard-response","42","82778","0.0-4.0-0.19","41","1","2022-10-09 10:17:16","ebf9627b049f568eb4bf28942cb89901","117.30.100.21","Mozilla/5.0 (Windows NT 10.0; WOW64) AppleWebKit/537.36 (KHTML, like Gecko) Chrome/92.0.4515.131 Safari/537.36 SLBrowser/8.0.0.7062 SLBChan/33","WebKit","Chrome","92.0.4515.131","Windows","10.0","null","<div style=""font-size:60px;"">+</div>","null",""
"","","","","","html-button-response","43","84075","0.0-4.0-1.19","41","1","2022-10-09 10:17:16","ebf9627b049f568eb4bf28942cb89901","117.30.100.21","Mozilla/5.0 (Windows NT 10.0; WOW64) AppleWebKit/537.36 (KHTML, like Gecko) Chrome/92.0.4515.131 Safari/537.36 SLBrowser/8.0.0.7062 SLBChan/33","WebKit","Chrome","92.0.4515.131","Windows","10.0","1294","<p>作为军队的指挥官，你可以选择发射导弹杀死 <strong>2名</strong> 敌国士兵，但会误杀附近的 <strong>1名</strong> 敌国平民。</p> <p>平民照片如下图所示。</p> <p></p> <img src='stimuli/faces/NFM6.jpg', style='max-width: 30%;'> </img> <p><strong>你是否选择发射武器？</strong></p>","1",""
"","","","","","html-keyboard-response","44","85091","0.0-4.0-0.20","41","1","2022-10-09 10:17:16","ebf9627b049f568eb4bf28942cb89901","117.30.100.21","Mozilla/5.0 (Windows NT 10.0; WOW64) AppleWebKit/537.36 (KHTML, like Gecko) Chrome/92.0.4515.131 Safari/537.36 SLBrowser/8.0.0.7062 SLBChan/33","WebKit","Chrome","92.0.4515.131","Windows","10.0","null","<div style=""font-size:60px;"">+</div>","null",""
"","","","","","html-button-response","45","86191","0.0-4.0-1.20","41","1","2022-10-09 10:17:16","ebf9627b049f568eb4bf28942cb89901","117.30.100.21","Mozilla/5.0 (Windows NT 10.0; WOW64) AppleWebKit/537.36 (KHTML, like Gecko) Chrome/92.0.4515.131 Safari/537.36 SLBrowser/8.0.0.7062 SLBChan/33","WebKit","Chrome","92.0.4515.131","Windows","10.0","1095","<p>作为军队的指挥官，你可以选择发射导弹杀死 <strong>8名</strong> 敌国士兵，但会炸毁附近的 <strong>1棵</strong> 敌国树木。</p> <p>树木的照片如下图所示。</p> <p></p> <img src='stimuli/trees/14.png', style='max-width: 30%;'> </img> <p><strong>你是否选择发射武器？</strong></p>","0",""
"","","","","","html-keyboard-response","46","87201","0.0-4.0-0.21","41","1","2022-10-09 10:17:16","ebf9627b049f568eb4bf28942cb89901","117.30.100.21","Mozilla/5.0 (Windows NT 10.0; WOW64) AppleWebKit/537.36 (KHTML, like Gecko) Chrome/92.0.4515.131 Safari/537.36 SLBrowser/8.0.0.7062 SLBChan/33","WebKit","Chrome","92.0.4515.131","Windows","10.0","null","<div style=""font-size:60px;"">+</div>","null",""
"","","","","","html-button-response","47","88353","0.0-4.0-1.21","41","1","2022-10-09 10:17:16","ebf9627b049f568eb4bf28942cb89901","117.30.100.21","Mozilla/5.0 (Windows NT 10.0; WOW64) AppleWebKit/537.36 (KHTML, like Gecko) Chrome/92.0.4515.131 Safari/537.36 SLBrowser/8.0.0.7062 SLBChan/33","WebKit","Chrome","92.0.4515.131","Windows","10.0","1150","<p>作为军队的指挥官，你可以选择发射导弹杀死 <strong>2名</strong> 敌国士兵，但会误杀附近的 <strong>1名</strong> 敌国平民。</p> <p>平民照片如下图所示。</p> <p></p> <img src='stimuli/faces/NFF6.jpg', style='max-width: 30%;'> </img> <p><strong>你是否选择发射武器？</strong></p>","1",""
"","","","","","html-keyboard-response","48","89360","0.0-4.0-0.22","41","1","2022-10-09 10:17:16","ebf9627b049f568eb4bf28942cb89901","117.30.100.21","Mozilla/5.0 (Windows NT 10.0; WOW64) AppleWebKit/537.36 (KHTML, like Gecko) Chrome/92.0.4515.131 Safari/537.36 SLBrowser/8.0.0.7062 SLBChan/33","WebKit","Chrome","92.0.4515.131","Windows","10.0","null","<div style=""font-size:60px;"">+</div>","null",""
"","","","","","html-button-response","49","90404","0.0-4.0-1.22","41","1","2022-10-09 10:17:16","ebf9627b049f568eb4bf28942cb89901","117.30.100.21","Mozilla/5.0 (Windows NT 10.0; WOW64) AppleWebKit/537.36 (KHTML, like Gecko) Chrome/92.0.4515.131 Safari/537.36 SLBrowser/8.0.0.7062 SLBChan/33","WebKit","Chrome","92.0.4515.131","Windows","10.0","1039","<p>作为军队的指挥官，你可以选择发射导弹杀死 <strong>7名</strong> 敌国士兵，但会炸毁附近的 <strong>1棵</strong> 敌国树木。</p> <p>树木的照片如下图所示。</p> <p></p> <img src='stimuli/trees/5.png', style='max-width: 30%;'> </img> <p><strong>你是否选择发射武器？</strong></p>","0",""
"","","","","","html-keyboard-response","50","91412","0.0-4.0-0.23","41","1","2022-10-09 10:17:16","ebf9627b049f568eb4bf28942cb89901","117.30.100.21","Mozilla/5.0 (Windows NT 10.0; WOW64) AppleWebKit/537.36 (KHTML, like Gecko) Chrome/92.0.4515.131 Safari/537.36 SLBrowser/8.0.0.7062 SLBChan/33","WebKit","Chrome","92.0.4515.131","Windows","10.0","null","<div style=""font-size:60px;"">+</div>","null",""
"","","","","","html-button-response","51","92337","0.0-4.0-1.23","41","1","2022-10-09 10:17:16","ebf9627b049f568eb4bf28942cb89901","117.30.100.21","Mozilla/5.0 (Windows NT 10.0; WOW64) AppleWebKit/537.36 (KHTML, like Gecko) Chrome/92.0.4515.131 Safari/537.36 SLBrowser/8.0.0.7062 SLBChan/33","WebKit","Chrome","92.0.4515.131","Windows","10.0","922","<p>作为军队的指挥官，你可以选择发射导弹杀死 <strong>8名</strong> 敌国士兵，但会误杀附近的 <strong>1名</strong> 敌国平民。</p> <p>平民照片如下图所示。</p> <p></p> <img src='stimuli/faces/NFM2.jpg', style='max-width: 30%;'> </img> <p><strong>你是否选择发射武器？</strong></p>","0",""
"","","","","","html-keyboard-response","52","93349","0.0-4.0-0.24","41","1","2022-10-09 10:17:16","ebf9627b049f568eb4bf28942cb89901","117.30.100.21","Mozilla/5.0 (Windows NT 10.0; WOW64) AppleWebKit/537.36 (KHTML, like Gecko) Chrome/92.0.4515.131 Safari/537.36 SLBrowser/8.0.0.7062 SLBChan/33","WebKit","Chrome","92.0.4515.131","Windows","10.0","null","<div style=""font-size:60px;"">+</div>","null",""
"","","","","","html-button-response","53","94782","0.0-4.0-1.24","41","1","2022-10-09 10:17:16","ebf9627b049f568eb4bf28942cb89901","117.30.100.21","Mozilla/5.0 (Windows NT 10.0; WOW64) AppleWebKit/537.36 (KHTML, like Gecko) Chrome/92.0.4515.131 Safari/537.36 SLBrowser/8.0.0.7062 SLBChan/33","WebKit","Chrome","92.0.4515.131","Windows","10.0","1430","<p>作为军队的指挥官，你可以选择发射导弹杀死 <strong>1名</strong> 敌国士兵，但会误杀附近的 <strong>1名</strong> 敌国平民。</p> <p>平民照片如下图所示。</p> <p></p> <img src='stimuli/faces/NFM8.jpg', style='max-width: 30%;'> </img> <p><strong>你是否选择发射武器？</strong></p>","1",""
"","","","","","html-keyboard-response","54","95798","0.0-4.0-0.25","41","1","2022-10-09 10:17:16","ebf9627b049f568eb4bf28942cb89901","117.30.100.21","Mozilla/5.0 (Windows NT 10.0; WOW64) AppleWebKit/537.36 (KHTML, like Gecko) Chrome/92.0.4515.131 Safari/537.36 SLBrowser/8.0.0.7062 SLBChan/33","WebKit","Chrome","92.0.4515.131","Windows","10.0","null","<div style=""font-size:60px;"">+</div>","null",""
"","","","","","html-button-response","55","96875","0.0-4.0-1.25","41","1","2022-10-09 10:17:16","ebf9627b049f568eb4bf28942cb89901","117.30.100.21","Mozilla/5.0 (Windows NT 10.0; WOW64) AppleWebKit/537.36 (KHTML, like Gecko) Chrome/92.0.4515.131 Safari/537.36 SLBrowser/8.0.0.7062 SLBChan/33","WebKit","Chrome","92.0.4515.131","Windows","10.0","1072","<p>作为军队的指挥官，你可以选择发射导弹杀死 <strong>10名</strong> 敌国士兵，但会误杀附近的 <strong>1名</strong> 敌国平民。</p> <p>平民照片如下图所示。</p> <p></p> <img src='stimuli/faces/NFF6.jpg', style='max-width: 30%;'> </img> <p><strong>你是否选择发射武器？</strong></p>","0",""
"","","","","","html-keyboard-response","56","97889","0.0-4.0-0.26","41","1","2022-10-09 10:17:16","ebf9627b049f568eb4bf28942cb89901","117.30.100.21","Mozilla/5.0 (Windows NT 10.0; WOW64) AppleWebKit/537.36 (KHTML, like Gecko) Chrome/92.0.4515.131 Safari/537.36 SLBrowser/8.0.0.7062 SLBChan/33","WebKit","Chrome","92.0.4515.131","Windows","10.0","null","<div style=""font-size:60px;"">+</div>","null",""
"","","","","","html-button-response","57","99027","0.0-4.0-1.26","41","1","2022-10-09 10:17:16","ebf9627b049f568eb4bf28942cb89901","117.30.100.21","Mozilla/5.0 (Windows NT 10.0; WOW64) AppleWebKit/537.36 (KHTML, like Gecko) Chrome/92.0.4515.131 Safari/537.36 SLBrowser/8.0.0.7062 SLBChan/33","WebKit","Chrome","92.0.4515.131","Windows","10.0","1133","<p>作为军队的指挥官，你可以选择发射导弹杀死 <strong>10名</strong> 敌国士兵，但会炸毁附近的 <strong>1棵</strong> 敌国树木。</p> <p>树木的照片如下图所示。</p> <p></p> <img src='stimuli/trees/2.png', style='max-width: 30%;'> </img> <p><strong>你是否选择发射武器？</strong></p>","0",""
"","","","","","html-keyboard-response","58","100046","0.0-4.0-0.27","41","1","2022-10-09 10:17:16","ebf9627b049f568eb4bf28942cb89901","117.30.100.21","Mozilla/5.0 (Windows NT 10.0; WOW64) AppleWebKit/537.36 (KHTML, like Gecko) Chrome/92.0.4515.131 Safari/537.36 SLBrowser/8.0.0.7062 SLBChan/33","WebKit","Chrome","92.0.4515.131","Windows","10.0","null","<div style=""font-size:60px;"">+</div>","null",""
"","","","","","html-button-response","59","101446","0.0-4.0-1.27","41","1","2022-10-09 10:17:16","ebf9627b049f568eb4bf28942cb89901","117.30.100.21","Mozilla/5.0 (Windows NT 10.0; WOW64) AppleWebKit/537.36 (KHTML, like Gecko) Chrome/92.0.4515.131 Safari/537.36 SLBrowser/8.0.0.7062 SLBChan/33","WebKit","Chrome","92.0.4515.131","Windows","10.0","1394","<p>作为军队的指挥官，你可以选择发射导弹杀死 <strong>3名</strong> 敌国士兵，但会误杀附近的 <strong>1名</strong> 敌国平民。</p> <p>平民照片如下图所示。</p> <p></p> <img src='stimuli/faces/NFM5.jpg', style='max-width: 30%;'> </img> <p><strong>你是否选择发射武器？</strong></p>","1",""
"","","","","","html-keyboard-response","60","102451","0.0-4.0-0.28","41","1","2022-10-09 10:17:16","ebf9627b049f568eb4bf28942cb89901","117.30.100.21","Mozilla/5.0 (Windows NT 10.0; WOW64) AppleWebKit/537.36 (KHTML, like Gecko) Chrome/92.0.4515.131 Safari/537.36 SLBrowser/8.0.0.7062 SLBChan/33","WebKit","Chrome","92.0.4515.131","Windows","10.0","null","<div style=""font-size:60px;"">+</div>","null",""
"","","","","","html-button-response","61","104603","0.0-4.0-1.28","41","1","2022-10-09 10:17:16","ebf9627b049f568eb4bf28942cb89901","117.30.100.21","Mozilla/5.0 (Windows NT 10.0; WOW64) AppleWebKit/537.36 (KHTML, like Gecko) Chrome/92.0.4515.131 Safari/537.36 SLBrowser/8.0.0.7062 SLBChan/33","WebKit","Chrome","92.0.4515.131","Windows","10.0","2147","<p>作为军队的指挥官，你可以选择发射导弹杀死 <strong>9名</strong> 敌国士兵，但会误杀附近的 <strong>1名</strong> 敌国平民。</p> <p>平民照片如下图所示。</p> <p></p> <img src='stimuli/faces/NFF2.jpg', style='max-width: 30%;'> </img> <p><strong>你是否选择发射武器？</strong></p>","0",""
"","","","","","html-keyboard-response","62","105619","0.0-4.0-0.29","41","1","2022-10-09 10:17:16","ebf9627b049f568eb4bf28942cb89901","117.30.100.21","Mozilla/5.0 (Windows NT 10.0; WOW64) AppleWebKit/537.36 (KHTML, like Gecko) Chrome/92.0.4515.131 Safari/537.36 SLBrowser/8.0.0.7062 SLBChan/33","WebKit","Chrome","92.0.4515.131","Windows","10.0","null","<div style=""font-size:60px;"">+</div>","null",""
"","","","","","html-button-response","63","106745","0.0-4.0-1.29","41","1","2022-10-09 10:17:16","ebf9627b049f568eb4bf28942cb89901","117.30.100.21","Mozilla/5.0 (Windows NT 10.0; WOW64) AppleWebKit/537.36 (KHTML, like Gecko) Chrome/92.0.4515.131 Safari/537.36 SLBrowser/8.0.0.7062 SLBChan/33","WebKit","Chrome","92.0.4515.131","Windows","10.0","1120","<p>作为军队的指挥官，你可以选择发射导弹杀死 <strong>1名</strong> 敌国士兵，但会炸毁附近的 <strong>1棵</strong> 敌国树木。</p> <p>树木的照片如下图所示。</p> <p></p> <img src='stimuli/trees/3.png', style='max-width: 30%;'> </img> <p><strong>你是否选择发射武器？</strong></p>","1",""
"","","","","","html-keyboard-response","64","107750","0.0-4.0-0.30","41","1","2022-10-09 10:17:16","ebf9627b049f568eb4bf28942cb89901","117.30.100.21","Mozilla/5.0 (Windows NT 10.0; WOW64) AppleWebKit/537.36 (KHTML, like Gecko) Chrome/92.0.4515.131 Safari/537.36 SLBrowser/8.0.0.7062 SLBChan/33","WebKit","Chrome","92.0.4515.131","Windows","10.0","null","<div style=""font-size:60px;"">+</div>","null",""
"","","","","","html-button-response","65","108770","0.0-4.0-1.30","41","1","2022-10-09 10:17:16","ebf9627b049f568eb4bf28942cb89901","117.30.100.21","Mozilla/5.0 (Windows NT 10.0; WOW64) AppleWebKit/537.36 (KHTML, like Gecko) Chrome/92.0.4515.131 Safari/537.36 SLBrowser/8.0.0.7062 SLBChan/33","WebKit","Chrome","92.0.4515.131","Windows","10.0","1014","<p>作为军队的指挥官，你可以选择发射导弹杀死 <strong>10名</strong> 敌国士兵，但会误杀附近的 <strong>1名</strong> 敌国平民。</p> <p>平民照片如下图所示。</p> <p></p> <img src='stimuli/faces/NFM3.jpg', style='max-width: 30%;'> </img> <p><strong>你是否选择发射武器？</strong></p>","0",""
"","","","","","html-keyboard-response","66","109785","0.0-4.0-0.31","41","1","2022-10-09 10:17:16","ebf9627b049f568eb4bf28942cb89901","117.30.100.21","Mozilla/5.0 (Windows NT 10.0; WOW64) AppleWebKit/537.36 (KHTML, like Gecko) Chrome/92.0.4515.131 Safari/537.36 SLBrowser/8.0.0.7062 SLBChan/33","WebKit","Chrome","92.0.4515.131","Windows","10.0","null","<div style=""font-size:60px;"">+</div>","null",""
"","","","","","html-button-response","67","110739","0.0-4.0-1.31","41","1","2022-10-09 10:17:16","ebf9627b049f568eb4bf28942cb89901","117.30.100.21","Mozilla/5.0 (Windows NT 10.0; WOW64) AppleWebKit/537.36 (KHTML, like Gecko) Chrome/92.0.4515.131 Safari/537.36 SLBrowser/8.0.0.7062 SLBChan/33","WebKit","Chrome","92.0.4515.131","Windows","10.0","949","<p>作为军队的指挥官，你可以选择发射导弹杀死 <strong>1名</strong> 敌国士兵，但会误杀附近的 <strong>1名</strong> 敌国平民。</p> <p>平民照片如下图所示。</p> <p></p> <img src='stimuli/faces/NFM4.jpg', style='max-width: 30%;'> </img> <p><strong>你是否选择发射武器？</strong></p>","1",""
"","","","","","html-keyboard-response","68","111750","0.0-4.0-0.32","41","1","2022-10-09 10:17:16","ebf9627b049f568eb4bf28942cb89901","117.30.100.21","Mozilla/5.0 (Windows NT 10.0; WOW64) AppleWebKit/537.36 (KHTML, like Gecko) Chrome/92.0.4515.131 Safari/537.36 SLBrowser/8.0.0.7062 SLBChan/33","WebKit","Chrome","92.0.4515.131","Windows","10.0","null","<div style=""font-size:60px;"">+</div>","null",""
"","","","","","html-button-response","69","112808","0.0-4.0-1.32","41","1","2022-10-09 10:17:16","ebf9627b049f568eb4bf28942cb89901","117.30.100.21","Mozilla/5.0 (Windows NT 10.0; WOW64) AppleWebKit/537.36 (KHTML, like Gecko) Chrome/92.0.4515.131 Safari/537.36 SLBrowser/8.0.0.7062 SLBChan/33","WebKit","Chrome","92.0.4515.131","Windows","10.0","1051","<p>作为军队的指挥官，你可以选择发射导弹杀死 <strong>8名</strong> 敌国士兵，但会炸毁附近的 <strong>1棵</strong> 敌国树木。</p> <p>树木的照片如下图所示。</p> <p></p> <img src='stimuli/trees/11.png', style='max-width: 30%;'> </img> <p><strong>你是否选择发射武器？</strong></p>","0",""
"","","","","","html-keyboard-response","70","113824","0.0-4.0-0.33","41","1","2022-10-09 10:17:16","ebf9627b049f568eb4bf28942cb89901","117.30.100.21","Mozilla/5.0 (Windows NT 10.0; WOW64) AppleWebKit/537.36 (KHTML, like Gecko) Chrome/92.0.4515.131 Safari/537.36 SLBrowser/8.0.0.7062 SLBChan/33","WebKit","Chrome","92.0.4515.131","Windows","10.0","null","<div style=""font-size:60px;"">+</div>","null",""
"","","","","","html-button-response","71","114899","0.0-4.0-1.33","41","1","2022-10-09 10:17:16","ebf9627b049f568eb4bf28942cb89901","117.30.100.21","Mozilla/5.0 (Windows NT 10.0; WOW64) AppleWebKit/537.36 (KHTML, like Gecko) Chrome/92.0.4515.131 Safari/537.36 SLBrowser/8.0.0.7062 SLBChan/33","WebKit","Chrome","92.0.4515.131","Windows","10.0","1069","<p>作为军队的指挥官，你可以选择发射导弹杀死 <strong>8名</strong> 敌国士兵，但会误杀附近的 <strong>1名</strong> 敌国平民。</p> <p>平民照片如下图所示。</p> <p></p> <img src='stimuli/faces/NFM1.jpg', style='max-width: 30%;'> </img> <p><strong>你是否选择发射武器？</strong></p>","0",""
"","","","","","html-keyboard-response","72","115911","0.0-4.0-0.34","41","1","2022-10-09 10:17:16","ebf9627b049f568eb4bf28942cb89901","117.30.100.21","Mozilla/5.0 (Windows NT 10.0; WOW64) AppleWebKit/537.36 (KHTML, like Gecko) Chrome/92.0.4515.131 Safari/537.36 SLBrowser/8.0.0.7062 SLBChan/33","WebKit","Chrome","92.0.4515.131","Windows","10.0","null","<div style=""font-size:60px;"">+</div>","null",""
"","","","","","html-button-response","73","116925","0.0-4.0-1.34","41","1","2022-10-09 10:17:16","ebf9627b049f568eb4bf28942cb89901","117.30.100.21","Mozilla/5.0 (Windows NT 10.0; WOW64) AppleWebKit/537.36 (KHTML, like Gecko) Chrome/92.0.4515.131 Safari/537.36 SLBrowser/8.0.0.7062 SLBChan/33","WebKit","Chrome","92.0.4515.131","Windows","10.0","1010","<p>作为军队的指挥官，你可以选择发射导弹杀死 <strong>1名</strong> 敌国士兵，但会炸毁附近的 <strong>1棵</strong> 敌国树木。</p> <p>树木的照片如下图所示。</p> <p></p> <img src='stimuli/trees/4.png', style='max-width: 30%;'> </img> <p><strong>你是否选择发射武器？</strong></p>","1",""
"","","","","","html-keyboard-response","74","117940","0.0-4.0-0.35","41","1","2022-10-09 10:17:16","ebf9627b049f568eb4bf28942cb89901","117.30.100.21","Mozilla/5.0 (Windows NT 10.0; WOW64) AppleWebKit/537.36 (KHTML, like Gecko) Chrome/92.0.4515.131 Safari/537.36 SLBrowser/8.0.0.7062 SLBChan/33","WebKit","Chrome","92.0.4515.131","Windows","10.0","null","<div style=""font-size:60px;"">+</div>","null",""
"","","","","","html-button-response","75","118799","0.0-4.0-1.35","41","1","2022-10-09 10:17:16","ebf9627b049f568eb4bf28942cb89901","117.30.100.21","Mozilla/5.0 (Windows NT 10.0; WOW64) AppleWebKit/537.36 (KHTML, like Gecko) Chrome/92.0.4515.131 Safari/537.36 SLBrowser/8.0.0.7062 SLBChan/33","WebKit","Chrome","92.0.4515.131","Windows","10.0","853","<p>作为军队的指挥官，你可以选择发射导弹杀死 <strong>2名</strong> 敌国士兵，但会误杀附近的 <strong>1名</strong> 敌国平民。</p> <p>平民照片如下图所示。</p> <p></p> <img src='stimuli/faces/NFM2.jpg', style='max-width: 30%;'> </img> <p><strong>你是否选择发射武器？</strong></p>","1",""
"","","","","","html-keyboard-response","76","119803","0.0-4.0-0.36","41","1","2022-10-09 10:17:16","ebf9627b049f568eb4bf28942cb89901","117.30.100.21","Mozilla/5.0 (Windows NT 10.0; WOW64) AppleWebKit/537.36 (KHTML, like Gecko) Chrome/92.0.4515.131 Safari/537.36 SLBrowser/8.0.0.7062 SLBChan/33","WebKit","Chrome","92.0.4515.131","Windows","10.0","null","<div style=""font-size:60px;"">+</div>","null",""
"","","","","","html-button-response","77","120509","0.0-4.0-1.36","41","1","2022-10-09 10:17:16","ebf9627b049f568eb4bf28942cb89901","117.30.100.21","Mozilla/5.0 (Windows NT 10.0; WOW64) AppleWebKit/537.36 (KHTML, like Gecko) Chrome/92.0.4515.131 Safari/537.36 SLBrowser/8.0.0.7062 SLBChan/33","WebKit","Chrome","92.0.4515.131","Windows","10.0","699","<p>作为军队的指挥官，你可以选择发射导弹杀死 <strong>2名</strong> 敌国士兵，但会误杀附近的 <strong>1名</strong> 敌国平民。</p> <p>平民照片如下图所示。</p> <p></p> <img src='stimuli/faces/NFF8.jpg', style='max-width: 30%;'> </img> <p><strong>你是否选择发射武器？</strong></p>","1",""
"","","","","","html-keyboard-response","78","121523","0.0-4.0-0.37","41","1","2022-10-09 10:17:16","ebf9627b049f568eb4bf28942cb89901","117.30.100.21","Mozilla/5.0 (Windows NT 10.0; WOW64) AppleWebKit/537.36 (KHTML, like Gecko) Chrome/92.0.4515.131 Safari/537.36 SLBrowser/8.0.0.7062 SLBChan/33","WebKit","Chrome","92.0.4515.131","Windows","10.0","null","<div style=""font-size:60px;"">+</div>","null",""
"","","","","","html-button-response","79","122762","0.0-4.0-1.37","41","1","2022-10-09 10:17:16","ebf9627b049f568eb4bf28942cb89901","117.30.100.21","Mozilla/5.0 (Windows NT 10.0; WOW64) AppleWebKit/537.36 (KHTML, like Gecko) Chrome/92.0.4515.131 Safari/537.36 SLBrowser/8.0.0.7062 SLBChan/33","WebKit","Chrome","92.0.4515.131","Windows","10.0","1232","<p>作为军队的指挥官，你可以选择发射导弹杀死 <strong>7名</strong> 敌国士兵，但会炸毁附近的 <strong>1棵</strong> 敌国树木。</p> <p>树木的照片如下图所示。</p> <p></p> <img src='stimuli/trees/7.png', style='max-width: 30%;'> </img> <p><strong>你是否选择发射武器？</strong></p>","0",""
"","","","","","html-keyboard-response","80","123770","0.0-4.0-0.38","41","1","2022-10-09 10:17:16","ebf9627b049f568eb4bf28942cb89901","117.30.100.21","Mozilla/5.0 (Windows NT 10.0; WOW64) AppleWebKit/537.36 (KHTML, like Gecko) Chrome/92.0.4515.131 Safari/537.36 SLBrowser/8.0.0.7062 SLBChan/33","WebKit","Chrome","92.0.4515.131","Windows","10.0","null","<div style=""font-size:60px;"">+</div>","null",""
"","","","","","html-button-response","81","125351","0.0-4.0-1.38","41","1","2022-10-09 10:17:16","ebf9627b049f568eb4bf28942cb89901","117.30.100.21","Mozilla/5.0 (Windows NT 10.0; WOW64) AppleWebKit/537.36 (KHTML, like Gecko) Chrome/92.0.4515.131 Safari/537.36 SLBrowser/8.0.0.7062 SLBChan/33","WebKit","Chrome","92.0.4515.131","Windows","10.0","1575","<p>作为军队的指挥官，你可以选择发射导弹杀死 <strong>10名</strong> 敌国士兵，但会炸毁附近的 <strong>1棵</strong> 敌国树木。</p> <p>树木的照片如下图所示。</p> <p></p> <img src='stimuli/trees/13.png', style='max-width: 30%;'> </img> <p><strong>你是否选择发射武器？</strong></p>","0",""
"","","","","","html-keyboard-response","82","126361","0.0-4.0-0.39","41","1","2022-10-09 10:17:16","ebf9627b049f568eb4bf28942cb89901","117.30.100.21","Mozilla/5.0 (Windows NT 10.0; WOW64) AppleWebKit/537.36 (KHTML, like Gecko) Chrome/92.0.4515.131 Safari/537.36 SLBrowser/8.0.0.7062 SLBChan/33","WebKit","Chrome","92.0.4515.131","Windows","10.0","null","<div style=""font-size:60px;"">+</div>","null",""
"","","","","","html-button-response","83","127093","0.0-4.0-1.39","41","1","2022-10-09 10:17:16","ebf9627b049f568eb4bf28942cb89901","117.30.100.21","Mozilla/5.0 (Windows NT 10.0; WOW64) AppleWebKit/537.36 (KHTML, like Gecko) Chrome/92.0.4515.131 Safari/537.36 SLBrowser/8.0.0.7062 SLBChan/33","WebKit","Chrome","92.0.4515.131","Windows","10.0","729","<p>作为军队的指挥官，你可以选择发射导弹杀死 <strong>7名</strong> 敌国士兵，但会误杀附近的 <strong>1名</strong> 敌国平民。</p> <p>平民照片如下图所示。</p> <p></p> <img src='stimuli/faces/NFF7.jpg', style='max-width: 30%;'> </img> <p><strong>你是否选择发射武器？</strong></p>","0",""
"","","","","","html-keyboard-response","84","128106","0.0-4.0-0.40","41","1","2022-10-09 10:17:16","ebf9627b049f568eb4bf28942cb89901","117.30.100.21","Mozilla/5.0 (Windows NT 10.0; WOW64) AppleWebKit/537.36 (KHTML, like Gecko) Chrome/92.0.4515.131 Safari/537.36 SLBrowser/8.0.0.7062 SLBChan/33","WebKit","Chrome","92.0.4515.131","Windows","10.0","null","<div style=""font-size:60px;"">+</div>","null",""
"","","","","","html-button-response","85","129109","0.0-4.0-1.40","41","1","2022-10-09 10:17:16","ebf9627b049f568eb4bf28942cb89901","117.30.100.21","Mozilla/5.0 (Windows NT 10.0; WOW64) AppleWebKit/537.36 (KHTML, like Gecko) Chrome/92.0.4515.131 Safari/537.36 SLBrowser/8.0.0.7062 SLBChan/33","WebKit","Chrome","92.0.4515.131","Windows","10.0","1001","<p>作为军队的指挥官，你可以选择发射导弹杀死 <strong>2名</strong> 敌国士兵，但会炸毁附近的 <strong>1棵</strong> 敌国树木。</p> <p>树木的照片如下图所示。</p> <p></p> <img src='stimuli/trees/8.png', style='max-width: 30%;'> </img> <p><strong>你是否选择发射武器？</strong></p>","1",""
"","","","","","html-keyboard-response","86","130125","0.0-4.0-0.41","41","1","2022-10-09 10:17:16","ebf9627b049f568eb4bf28942cb89901","117.30.100.21","Mozilla/5.0 (Windows NT 10.0; WOW64) AppleWebKit/537.36 (KHTML, like Gecko) Chrome/92.0.4515.131 Safari/537.36 SLBrowser/8.0.0.7062 SLBChan/33","WebKit","Chrome","92.0.4515.131","Windows","10.0","null","<div style=""font-size:60px;"">+</div>","null",""
"","","","","","html-button-response","87","131000","0.0-4.0-1.41","41","1","2022-10-09 10:17:16","ebf9627b049f568eb4bf28942cb89901","117.30.100.21","Mozilla/5.0 (Windows NT 10.0; WOW64) AppleWebKit/537.36 (KHTML, like Gecko) Chrome/92.0.4515.131 Safari/537.36 SLBrowser/8.0.0.7062 SLBChan/33","WebKit","Chrome","92.0.4515.131","Windows","10.0","872","<p>作为军队的指挥官，你可以选择发射导弹杀死 <strong>8名</strong> 敌国士兵，但会误杀附近的 <strong>1名</strong> 敌国平民。</p> <p>平民照片如下图所示。</p> <p></p> <img src='stimuli/faces/NFF8.jpg', style='max-width: 30%;'> </img> <p><strong>你是否选择发射武器？</strong></p>","0",""
"","","","","","html-keyboard-response","88","132016","0.0-4.0-0.42","41","1","2022-10-09 10:17:16","ebf9627b049f568eb4bf28942cb89901","117.30.100.21","Mozilla/5.0 (Windows NT 10.0; WOW64) AppleWebKit/537.36 (KHTML, like Gecko) Chrome/92.0.4515.131 Safari/537.36 SLBrowser/8.0.0.7062 SLBChan/33","WebKit","Chrome","92.0.4515.131","Windows","10.0","null","<div style=""font-size:60px;"">+</div>","null",""
"","","","","","html-button-response","89","135237","0.0-4.0-1.42","41","1","2022-10-09 10:17:16","ebf9627b049f568eb4bf28942cb89901","117.30.100.21","Mozilla/5.0 (Windows NT 10.0; WOW64) AppleWebKit/537.36 (KHTML, like Gecko) Chrome/92.0.4515.131 Safari/537.36 SLBrowser/8.0.0.7062 SLBChan/33","WebKit","Chrome","92.0.4515.131","Windows","10.0","3215","<p>作为军队的指挥官，你可以选择发射导弹杀死 <strong>10名</strong> 敌国士兵，但会误杀附近的 <strong>1名</strong> 敌国平民。</p> <p>平民照片如下图所示。</p> <p></p> <img src='stimuli/faces/NFF5.jpg', style='max-width: 30%;'> </img> <p><strong>你是否选择发射武器？</strong></p>","0",""
"","","","","","html-keyboard-response","90","136255","0.0-4.0-0.43","41","1","2022-10-09 10:17:16","ebf9627b049f568eb4bf28942cb89901","117.30.100.21","Mozilla/5.0 (Windows NT 10.0; WOW64) AppleWebKit/537.36 (KHTML, like Gecko) Chrome/92.0.4515.131 Safari/537.36 SLBrowser/8.0.0.7062 SLBChan/33","WebKit","Chrome","92.0.4515.131","Windows","10.0","null","<div style=""font-size:60px;"">+</div>","null",""
"","","","","","html-button-response","91","138049","0.0-4.0-1.43","41","1","2022-10-09 10:17:16","ebf9627b049f568eb4bf28942cb89901","117.30.100.21","Mozilla/5.0 (Windows NT 10.0; WOW64) AppleWebKit/537.36 (KHTML, like Gecko) Chrome/92.0.4515.131 Safari/537.36 SLBrowser/8.0.0.7062 SLBChan/33","WebKit","Chrome","92.0.4515.131","Windows","10.0","1788","<p>作为军队的指挥官，你可以选择发射导弹杀死 <strong>2名</strong> 敌国士兵，但会误杀附近的 <strong>1名</strong> 敌国平民。</p> <p>平民照片如下图所示。</p> <p></p> <img src='stimuli/faces/NFM3.jpg', style='max-width: 30%;'> </img> <p><strong>你是否选择发射武器？</strong></p>","1",""
"","","","","","html-keyboard-response","92","139066","0.0-4.0-0.44","41","1","2022-10-09 10:17:16","ebf9627b049f568eb4bf28942cb89901","117.30.100.21","Mozilla/5.0 (Windows NT 10.0; WOW64) AppleWebKit/537.36 (KHTML, like Gecko) Chrome/92.0.4515.131 Safari/537.36 SLBrowser/8.0.0.7062 SLBChan/33","WebKit","Chrome","92.0.4515.131","Windows","10.0","null","<div style=""font-size:60px;"">+</div>","null",""
"","","","","","html-button-response","93","140357","0.0-4.0-1.44","41","1","2022-10-09 10:17:16","ebf9627b049f568eb4bf28942cb89901","117.30.100.21","Mozilla/5.0 (Windows NT 10.0; WOW64) AppleWebKit/537.36 (KHTML, like Gecko) Chrome/92.0.4515.131 Safari/537.36 SLBrowser/8.0.0.7062 SLBChan/33","WebKit","Chrome","92.0.4515.131","Windows","10.0","1284","<p>作为军队的指挥官，你可以选择发射导弹杀死 <strong>1名</strong> 敌国士兵，但会炸毁附近的 <strong>1棵</strong> 敌国树木。</p> <p>树木的照片如下图所示。</p> <p></p> <img src='stimuli/trees/5.png', style='max-width: 30%;'> </img> <p><strong>你是否选择发射武器？</strong></p>","1",""
"","","","","","html-keyboard-response","94","141365","0.0-4.0-0.45","41","1","2022-10-09 10:17:16","ebf9627b049f568eb4bf28942cb89901","117.30.100.21","Mozilla/5.0 (Windows NT 10.0; WOW64) AppleWebKit/537.36 (KHTML, like Gecko) Chrome/92.0.4515.131 Safari/537.36 SLBrowser/8.0.0.7062 SLBChan/33","WebKit","Chrome","92.0.4515.131","Windows","10.0","null","<div style=""font-size:60px;"">+</div>","null",""
"","","","","","html-button-response","95","142689","0.0-4.0-1.45","41","1","2022-10-09 10:17:16","ebf9627b049f568eb4bf28942cb89901","117.30.100.21","Mozilla/5.0 (Windows NT 10.0; WOW64) AppleWebKit/537.36 (KHTML, like Gecko) Chrome/92.0.4515.131 Safari/537.36 SLBrowser/8.0.0.7062 SLBChan/33","WebKit","Chrome","92.0.4515.131","Windows","10.0","1321","<p>作为军队的指挥官，你可以选择发射导弹杀死 <strong>2名</strong> 敌国士兵，但会炸毁附近的 <strong>1棵</strong> 敌国树木。</p> <p>树木的照片如下图所示。</p> <p></p> <img src='stimuli/trees/13.png', style='max-width: 30%;'> </img> <p><strong>你是否选择发射武器？</strong></p>","1",""
"","","","","","html-keyboard-response","96","143707","0.0-4.0-0.46","41","1","2022-10-09 10:17:16","ebf9627b049f568eb4bf28942cb89901","117.30.100.21","Mozilla/5.0 (Windows NT 10.0; WOW64) AppleWebKit/537.36 (KHTML, like Gecko) Chrome/92.0.4515.131 Safari/537.36 SLBrowser/8.0.0.7062 SLBChan/33","WebKit","Chrome","92.0.4515.131","Windows","10.0","null","<div style=""font-size:60px;"">+</div>","null",""
"","","","","","html-button-response","97","146233","0.0-4.0-1.46","41","1","2022-10-09 10:17:16","ebf9627b049f568eb4bf28942cb89901","117.30.100.21","Mozilla/5.0 (Windows NT 10.0; WOW64) AppleWebKit/537.36 (KHTML, like Gecko) Chrome/92.0.4515.131 Safari/537.36 SLBrowser/8.0.0.7062 SLBChan/33","WebKit","Chrome","92.0.4515.131","Windows","10.0","2523","<p>作为军队的指挥官，你可以选择发射导弹杀死 <strong>7名</strong> 敌国士兵，但会炸毁附近的 <strong>1棵</strong> 敌国树木。</p> <p>树木的照片如下图所示。</p> <p></p> <img src='stimuli/trees/4.png', style='max-width: 30%;'> </img> <p><strong>你是否选择发射武器？</strong></p>","0",""
"","","","","","html-keyboard-response","98","147242","0.0-4.0-0.47","41","1","2022-10-09 10:17:16","ebf9627b049f568eb4bf28942cb89901","117.30.100.21","Mozilla/5.0 (Windows NT 10.0; WOW64) AppleWebKit/537.36 (KHTML, like Gecko) Chrome/92.0.4515.131 Safari/537.36 SLBrowser/8.0.0.7062 SLBChan/33","WebKit","Chrome","92.0.4515.131","Windows","10.0","null","<div style=""font-size:60px;"">+</div>","null",""
"","","","","","html-button-response","99","148624","0.0-4.0-1.47","41","1","2022-10-09 10:17:16","ebf9627b049f568eb4bf28942cb89901","117.30.100.21","Mozilla/5.0 (Windows NT 10.0; WOW64) AppleWebKit/537.36 (KHTML, like Gecko) Chrome/92.0.4515.131 Safari/537.36 SLBrowser/8.0.0.7062 SLBChan/33","WebKit","Chrome","92.0.4515.131","Windows","10.0","1376","<p>作为军队的指挥官，你可以选择发射导弹杀死 <strong>8名</strong> 敌国士兵，但会炸毁附近的 <strong>1棵</strong> 敌国树木。</p> <p>树木的照片如下图所示。</p> <p></p> <img src='stimuli/trees/12.png', style='max-width: 30%;'> </img> <p><strong>你是否选择发射武器？</strong></p>","0",""
"","","","","","html-keyboard-response","100","149638","0.0-4.0-0.48","41","1","2022-10-09 10:17:16","ebf9627b049f568eb4bf28942cb89901","117.30.100.21","Mozilla/5.0 (Windows NT 10.0; WOW64) AppleWebKit/537.36 (KHTML, like Gecko) Chrome/92.0.4515.131 Safari/537.36 SLBrowser/8.0.0.7062 SLBChan/33","WebKit","Chrome","92.0.4515.131","Windows","10.0","null","<div style=""font-size:60px;"">+</div>","null",""
"","","","","","html-button-response","101","151461","0.0-4.0-1.48","41","1","2022-10-09 10:17:16","ebf9627b049f568eb4bf28942cb89901","117.30.100.21","Mozilla/5.0 (Windows NT 10.0; WOW64) AppleWebKit/537.36 (KHTML, like Gecko) Chrome/92.0.4515.131 Safari/537.36 SLBrowser/8.0.0.7062 SLBChan/33","WebKit","Chrome","92.0.4515.131","Windows","10.0","1817","<p>作为军队的指挥官，你可以选择发射导弹杀死 <strong>6名</strong> 敌国士兵，但会炸毁附近的 <strong>1棵</strong> 敌国树木。</p> <p>树木的照片如下图所示。</p> <p></p> <img src='stimuli/trees/15.png', style='max-width: 30%;'> </img> <p><strong>你是否选择发射武器？</strong></p>","0",""
"","","","","","html-keyboard-response","102","152478","0.0-4.0-0.49","41","1","2022-10-09 10:17:16","ebf9627b049f568eb4bf28942cb89901","117.30.100.21","Mozilla/5.0 (Windows NT 10.0; WOW64) AppleWebKit/537.36 (KHTML, like Gecko) Chrome/92.0.4515.131 Safari/537.36 SLBrowser/8.0.0.7062 SLBChan/33","WebKit","Chrome","92.0.4515.131","Windows","10.0","null","<div style=""font-size:60px;"">+</div>","null",""
"","","","","","html-button-response","103","154188","0.0-4.0-1.49","41","1","2022-10-09 10:17:16","ebf9627b049f568eb4bf28942cb89901","117.30.100.21","Mozilla/5.0 (Windows NT 10.0; WOW64) AppleWebKit/537.36 (KHTML, like Gecko) Chrome/92.0.4515.131 Safari/537.36 SLBrowser/8.0.0.7062 SLBChan/33","WebKit","Chrome","92.0.4515.131","Windows","10.0","1706","<p>作为军队的指挥官，你可以选择发射导弹杀死 <strong>4名</strong> 敌国士兵，但会炸毁附近的 <strong>1棵</strong> 敌国树木。</p> <p>树木的照片如下图所示。</p> <p></p> <img src='stimuli/trees/2.png', style='max-width: 30%;'> </img> <p><strong>你是否选择发射武器？</strong></p>","1",""
"","","","","","html-keyboard-response","104","155206","0.0-4.0-0.50","41","1","2022-10-09 10:17:16","ebf9627b049f568eb4bf28942cb89901","117.30.100.21","Mozilla/5.0 (Windows NT 10.0; WOW64) AppleWebKit/537.36 (KHTML, like Gecko) Chrome/92.0.4515.131 Safari/537.36 SLBrowser/8.0.0.7062 SLBChan/33","WebKit","Chrome","92.0.4515.131","Windows","10.0","null","<div style=""font-size:60px;"">+</div>","null",""
"","","","","","html-button-response","105","156457","0.0-4.0-1.50","41","1","2022-10-09 10:17:16","ebf9627b049f568eb4bf28942cb89901","117.30.100.21","Mozilla/5.0 (Windows NT 10.0; WOW64) AppleWebKit/537.36 (KHTML, like Gecko) Chrome/92.0.4515.131 Safari/537.36 SLBrowser/8.0.0.7062 SLBChan/33","WebKit","Chrome","92.0.4515.131","Windows","10.0","1243","<p>作为军队的指挥官，你可以选择发射导弹杀死 <strong>3名</strong> 敌国士兵，但会误杀附近的 <strong>1名</strong> 敌国平民。</p> <p>平民照片如下图所示。</p> <p></p> <img src='stimuli/faces/NFF1.jpg', style='max-width: 30%;'> </img> <p><strong>你是否选择发射武器？</strong></p>","1",""
"","","","","","html-keyboard-response","106","157473","0.0-4.0-0.51","41","1","2022-10-09 10:17:16","ebf9627b049f568eb4bf28942cb89901","117.30.100.21","Mozilla/5.0 (Windows NT 10.0; WOW64) AppleWebKit/537.36 (KHTML, like Gecko) Chrome/92.0.4515.131 Safari/537.36 SLBrowser/8.0.0.7062 SLBChan/33","WebKit","Chrome","92.0.4515.131","Windows","10.0","null","<div style=""font-size:60px;"">+</div>","null",""
"","","","","","html-button-response","107","158399","0.0-4.0-1.51","41","1","2022-10-09 10:17:16","ebf9627b049f568eb4bf28942cb89901","117.30.100.21","Mozilla/5.0 (Windows NT 10.0; WOW64) AppleWebKit/537.36 (KHTML, like Gecko) Chrome/92.0.4515.131 Safari/537.36 SLBrowser/8.0.0.7062 SLBChan/33","WebKit","Chrome","92.0.4515.131","Windows","10.0","919","<p>作为军队的指挥官，你可以选择发射导弹杀死 <strong>1名</strong> 敌国士兵，但会炸毁附近的 <strong>1棵</strong> 敌国树木。</p> <p>树木的照片如下图所示。</p> <p></p> <img src='stimuli/trees/16.png', style='max-width: 30%;'> </img> <p><strong>你是否选择发射武器？</strong></p>","1",""
"","","","","","html-keyboard-response","108","159415","0.0-4.0-0.52","41","1","2022-10-09 10:17:16","ebf9627b049f568eb4bf28942cb89901","117.30.100.21","Mozilla/5.0 (Windows NT 10.0; WOW64) AppleWebKit/537.36 (KHTML, like Gecko) Chrome/92.0.4515.131 Safari/537.36 SLBrowser/8.0.0.7062 SLBChan/33","WebKit","Chrome","92.0.4515.131","Windows","10.0","null","<div style=""font-size:60px;"">+</div>","null",""
"","","","","","html-button-response","109","160498","0.0-4.0-1.52","41","1","2022-10-09 10:17:16","ebf9627b049f568eb4bf28942cb89901","117.30.100.21","Mozilla/5.0 (Windows NT 10.0; WOW64) AppleWebKit/537.36 (KHTML, like Gecko) Chrome/92.0.4515.131 Safari/537.36 SLBrowser/8.0.0.7062 SLBChan/33","WebKit","Chrome","92.0.4515.131","Windows","10.0","1077","<p>作为军队的指挥官，你可以选择发射导弹杀死 <strong>3名</strong> 敌国士兵，但会炸毁附近的 <strong>1棵</strong> 敌国树木。</p> <p>树木的照片如下图所示。</p> <p></p> <img src='stimuli/trees/7.png', style='max-width: 30%;'> </img> <p><strong>你是否选择发射武器？</strong></p>","1",""
"","","","","","html-keyboard-response","110","161503","0.0-4.0-0.53","41","1","2022-10-09 10:17:16","ebf9627b049f568eb4bf28942cb89901","117.30.100.21","Mozilla/5.0 (Windows NT 10.0; WOW64) AppleWebKit/537.36 (KHTML, like Gecko) Chrome/92.0.4515.131 Safari/537.36 SLBrowser/8.0.0.7062 SLBChan/33","WebKit","Chrome","92.0.4515.131","Windows","10.0","null","<div style=""font-size:60px;"">+</div>","null",""
"","","","","","html-button-response","111","164441","0.0-4.0-1.53","41","1","2022-10-09 10:17:16","ebf9627b049f568eb4bf28942cb89901","117.30.100.21","Mozilla/5.0 (Windows NT 10.0; WOW64) AppleWebKit/537.36 (KHTML, like Gecko) Chrome/92.0.4515.131 Safari/537.36 SLBrowser/8.0.0.7062 SLBChan/33","WebKit","Chrome","92.0.4515.131","Windows","10.0","2931","<p>作为军队的指挥官，你可以选择发射导弹杀死 <strong>8名</strong> 敌国士兵，但会误杀附近的 <strong>1名</strong> 敌国平民。</p> <p>平民照片如下图所示。</p> <p></p> <img src='stimuli/faces/NFF3.jpg', style='max-width: 30%;'> </img> <p><strong>你是否选择发射武器？</strong></p>","0",""
"","","","","","html-keyboard-response","112","165450","0.0-4.0-0.54","41","1","2022-10-09 10:17:16","ebf9627b049f568eb4bf28942cb89901","117.30.100.21","Mozilla/5.0 (Windows NT 10.0; WOW64) AppleWebKit/537.36 (KHTML, like Gecko) Chrome/92.0.4515.131 Safari/537.36 SLBrowser/8.0.0.7062 SLBChan/33","WebKit","Chrome","92.0.4515.131","Windows","10.0","null","<div style=""font-size:60px;"">+</div>","null",""
"","","","","","html-button-response","113","166429","0.0-4.0-1.54","41","1","2022-10-09 10:17:16","ebf9627b049f568eb4bf28942cb89901","117.30.100.21","Mozilla/5.0 (Windows NT 10.0; WOW64) AppleWebKit/537.36 (KHTML, like Gecko) Chrome/92.0.4515.131 Safari/537.36 SLBrowser/8.0.0.7062 SLBChan/33","WebKit","Chrome","92.0.4515.131","Windows","10.0","971","<p>作为军队的指挥官，你可以选择发射导弹杀死 <strong>9名</strong> 敌国士兵，但会炸毁附近的 <strong>1棵</strong> 敌国树木。</p> <p>树木的照片如下图所示。</p> <p></p> <img src='stimuli/trees/9.png', style='max-width: 30%;'> </img> <p><strong>你是否选择发射武器？</strong></p>","0",""
"","","","","","html-keyboard-response","114","167438","0.0-4.0-0.55","41","1","2022-10-09 10:17:16","ebf9627b049f568eb4bf28942cb89901","117.30.100.21","Mozilla/5.0 (Windows NT 10.0; WOW64) AppleWebKit/537.36 (KHTML, like Gecko) Chrome/92.0.4515.131 Safari/537.36 SLBrowser/8.0.0.7062 SLBChan/33","WebKit","Chrome","92.0.4515.131","Windows","10.0","null","<div style=""font-size:60px;"">+</div>","null",""
"","","","","","html-button-response","115","169106","0.0-4.0-1.55","41","1","2022-10-09 10:17:16","ebf9627b049f568eb4bf28942cb89901","117.30.100.21","Mozilla/5.0 (Windows NT 10.0; WOW64) AppleWebKit/537.36 (KHTML, like Gecko) Chrome/92.0.4515.131 Safari/537.36 SLBrowser/8.0.0.7062 SLBChan/33","WebKit","Chrome","92.0.4515.131","Windows","10.0","1661","<p>作为军队的指挥官，你可以选择发射导弹杀死 <strong>10名</strong> 敌国士兵，但会炸毁附近的 <strong>1棵</strong> 敌国树木。</p> <p>树木的照片如下图所示。</p> <p></p> <img src='stimuli/trees/10.png', style='max-width: 30%;'> </img> <p><strong>你是否选择发射武器？</strong></p>","0",""
"","","","","","html-keyboard-response","116","170125","0.0-4.0-0.56","41","1","2022-10-09 10:17:16","ebf9627b049f568eb4bf28942cb89901","117.30.100.21","Mozilla/5.0 (Windows NT 10.0; WOW64) AppleWebKit/537.36 (KHTML, like Gecko) Chrome/92.0.4515.131 Safari/537.36 SLBrowser/8.0.0.7062 SLBChan/33","WebKit","Chrome","92.0.4515.131","Windows","10.0","null","<div style=""font-size:60px;"">+</div>","null",""
"","","","","","html-button-response","117","171717","0.0-4.0-1.56","41","1","2022-10-09 10:17:16","ebf9627b049f568eb4bf28942cb89901","117.30.100.21","Mozilla/5.0 (Windows NT 10.0; WOW64) AppleWebKit/537.36 (KHTML, like Gecko) Chrome/92.0.4515.131 Safari/537.36 SLBrowser/8.0.0.7062 SLBChan/33","WebKit","Chrome","92.0.4515.131","Windows","10.0","1587","<p>作为军队的指挥官，你可以选择发射导弹杀死 <strong>1名</strong> 敌国士兵，但会炸毁附近的 <strong>1棵</strong> 敌国树木。</p> <p>树木的照片如下图所示。</p> <p></p> <img src='stimuli/trees/1.png', style='max-width: 30%;'> </img> <p><strong>你是否选择发射武器？</strong></p>","1",""
"","","","","","html-keyboard-response","118","172732","0.0-4.0-0.57","41","1","2022-10-09 10:17:16","ebf9627b049f568eb4bf28942cb89901","117.30.100.21","Mozilla/5.0 (Windows NT 10.0; WOW64) AppleWebKit/537.36 (KHTML, like Gecko) Chrome/92.0.4515.131 Safari/537.36 SLBrowser/8.0.0.7062 SLBChan/33","WebKit","Chrome","92.0.4515.131","Windows","10.0","null","<div style=""font-size:60px;"">+</div>","null",""
"","","","","","html-button-response","119","173490","0.0-4.0-1.57","41","1","2022-10-09 10:17:16","ebf9627b049f568eb4bf28942cb89901","117.30.100.21","Mozilla/5.0 (Windows NT 10.0; WOW64) AppleWebKit/537.36 (KHTML, like Gecko) Chrome/92.0.4515.131 Safari/537.36 SLBrowser/8.0.0.7062 SLBChan/33","WebKit","Chrome","92.0.4515.131","Windows","10.0","753","<p>作为军队的指挥官，你可以选择发射导弹杀死 <strong>3名</strong> 敌国士兵，但会炸毁附近的 <strong>1棵</strong> 敌国树木。</p> <p>树木的照片如下图所示。</p> <p></p> <img src='stimuli/trees/6.png', style='max-width: 30%;'> </img> <p><strong>你是否选择发射武器？</strong></p>","1",""
"","","","","","html-keyboard-response","120","174498","0.0-4.0-0.58","41","1","2022-10-09 10:17:16","ebf9627b049f568eb4bf28942cb89901","117.30.100.21","Mozilla/5.0 (Windows NT 10.0; WOW64) AppleWebKit/537.36 (KHTML, like Gecko) Chrome/92.0.4515.131 Safari/537.36 SLBrowser/8.0.0.7062 SLBChan/33","WebKit","Chrome","92.0.4515.131","Windows","10.0","null","<div style=""font-size:60px;"">+</div>","null",""
"","","","","","html-button-response","121","175979","0.0-4.0-1.58","41","1","2022-10-09 10:17:16","ebf9627b049f568eb4bf28942cb89901","117.30.100.21","Mozilla/5.0 (Windows NT 10.0; WOW64) AppleWebKit/537.36 (KHTML, like Gecko) Chrome/92.0.4515.131 Safari/537.36 SLBrowser/8.0.0.7062 SLBChan/33","WebKit","Chrome","92.0.4515.131","Windows","10.0","1477","<p>作为军队的指挥官，你可以选择发射导弹杀死 <strong>5名</strong> 敌国士兵，但会误杀附近的 <strong>1名</strong> 敌国平民。</p> <p>平民照片如下图所示。</p> <p></p> <img src='stimuli/faces/NFF3.jpg', style='max-width: 30%;'> </img> <p><strong>你是否选择发射武器？</strong></p>","0",""
"","","","","","html-keyboard-response","122","176998","0.0-4.0-0.59","41","1","2022-10-09 10:17:16","ebf9627b049f568eb4bf28942cb89901","117.30.100.21","Mozilla/5.0 (Windows NT 10.0; WOW64) AppleWebKit/537.36 (KHTML, like Gecko) Chrome/92.0.4515.131 Safari/537.36 SLBrowser/8.0.0.7062 SLBChan/33","WebKit","Chrome","92.0.4515.131","Windows","10.0","null","<div style=""font-size:60px;"">+</div>","null",""
"","","","","","html-button-response","123","179352","0.0-4.0-1.59","41","1","2022-10-09 10:17:16","ebf9627b049f568eb4bf28942cb89901","117.30.100.21","Mozilla/5.0 (Windows NT 10.0; WOW64) AppleWebKit/537.36 (KHTML, like Gecko) Chrome/92.0.4515.131 Safari/537.36 SLBrowser/8.0.0.7062 SLBChan/33","WebKit","Chrome","92.0.4515.131","Windows","10.0","2349","<p>作为军队的指挥官，你可以选择发射导弹杀死 <strong>1名</strong> 敌国士兵，但会炸毁附近的 <strong>1棵</strong> 敌国树木。</p> <p>树木的照片如下图所示。</p> <p></p> <img src='stimuli/trees/15.png', style='max-width: 30%;'> </img> <p><strong>你是否选择发射武器？</strong></p>","1",""
"","","","","","html-keyboard-response","124","180370","0.0-4.0-0.60","41","1","2022-10-09 10:17:16","ebf9627b049f568eb4bf28942cb89901","117.30.100.21","Mozilla/5.0 (Windows NT 10.0; WOW64) AppleWebKit/537.36 (KHTML, like Gecko) Chrome/92.0.4515.131 Safari/537.36 SLBrowser/8.0.0.7062 SLBChan/33","WebKit","Chrome","92.0.4515.131","Windows","10.0","null","<div style=""font-size:60px;"">+</div>","null",""
"","","","","","html-button-response","125","181583","0.0-4.0-1.60","41","1","2022-10-09 10:17:16","ebf9627b049f568eb4bf28942cb89901","117.30.100.21","Mozilla/5.0 (Windows NT 10.0; WOW64) AppleWebKit/537.36 (KHTML, like Gecko) Chrome/92.0.4515.131 Safari/537.36 SLBrowser/8.0.0.7062 SLBChan/33","WebKit","Chrome","92.0.4515.131","Windows","10.0","1207","<p>作为军队的指挥官，你可以选择发射导弹杀死 <strong>9名</strong> 敌国士兵，但会炸毁附近的 <strong>1棵</strong> 敌国树木。</p> <p>树木的照片如下图所示。</p> <p></p> <img src='stimuli/trees/8.png', style='max-width: 30%;'> </img> <p><strong>你是否选择发射武器？</strong></p>","0",""
"","","","","","html-keyboard-response","126","182602","0.0-4.0-0.61","41","1","2022-10-09 10:17:16","ebf9627b049f568eb4bf28942cb89901","117.30.100.21","Mozilla/5.0 (Windows NT 10.0; WOW64) AppleWebKit/537.36 (KHTML, like Gecko) Chrome/92.0.4515.131 Safari/537.36 SLBrowser/8.0.0.7062 SLBChan/33","WebKit","Chrome","92.0.4515.131","Windows","10.0","null","<div style=""font-size:60px;"">+</div>","null",""
"","","","","","html-button-response","127","183620","0.0-4.0-1.61","41","1","2022-10-09 10:17:16","ebf9627b049f568eb4bf28942cb89901","117.30.100.21","Mozilla/5.0 (Windows NT 10.0; WOW64) AppleWebKit/537.36 (KHTML, like Gecko) Chrome/92.0.4515.131 Safari/537.36 SLBrowser/8.0.0.7062 SLBChan/33","WebKit","Chrome","92.0.4515.131","Windows","10.0","1010","<p>作为军队的指挥官，你可以选择发射导弹杀死 <strong>9名</strong> 敌国士兵，但会误杀附近的 <strong>1名</strong> 敌国平民。</p> <p>平民照片如下图所示。</p> <p></p> <img src='stimuli/faces/NFM4.jpg', style='max-width: 30%;'> </img> <p><strong>你是否选择发射武器？</strong></p>","0",""
"","","","","","html-keyboard-response","128","184632","0.0-4.0-0.62","41","1","2022-10-09 10:17:16","ebf9627b049f568eb4bf28942cb89901","117.30.100.21","Mozilla/5.0 (Windows NT 10.0; WOW64) AppleWebKit/537.36 (KHTML, like Gecko) Chrome/92.0.4515.131 Safari/537.36 SLBrowser/8.0.0.7062 SLBChan/33","WebKit","Chrome","92.0.4515.131","Windows","10.0","null","<div style=""font-size:60px;"">+</div>","null",""
"","","","","","html-button-response","129","185502","0.0-4.0-1.62","41","1","2022-10-09 10:17:16","ebf9627b049f568eb4bf28942cb89901","117.30.100.21","Mozilla/5.0 (Windows NT 10.0; WOW64) AppleWebKit/537.36 (KHTML, like Gecko) Chrome/92.0.4515.131 Safari/537.36 SLBrowser/8.0.0.7062 SLBChan/33","WebKit","Chrome","92.0.4515.131","Windows","10.0","862","<p>作为军队的指挥官，你可以选择发射导弹杀死 <strong>1名</strong> 敌国士兵，但会炸毁附近的 <strong>1棵</strong> 敌国树木。</p> <p>树木的照片如下图所示。</p> <p></p> <img src='stimuli/trees/11.png', style='max-width: 30%;'> </img> <p><strong>你是否选择发射武器？</strong></p>","1",""
"","","","","","html-keyboard-response","130","186513","0.0-4.0-0.63","41","1","2022-10-09 10:17:16","ebf9627b049f568eb4bf28942cb89901","117.30.100.21","Mozilla/5.0 (Windows NT 10.0; WOW64) AppleWebKit/537.36 (KHTML, like Gecko) Chrome/92.0.4515.131 Safari/537.36 SLBrowser/8.0.0.7062 SLBChan/33","WebKit","Chrome","92.0.4515.131","Windows","10.0","null","<div style=""font-size:60px;"">+</div>","null",""
"","","","","","html-button-response","131","187466","0.0-4.0-1.63","41","1","2022-10-09 10:17:16","ebf9627b049f568eb4bf28942cb89901","117.30.100.21","Mozilla/5.0 (Windows NT 10.0; WOW64) AppleWebKit/537.36 (KHTML, like Gecko) Chrome/92.0.4515.131 Safari/537.36 SLBrowser/8.0.0.7062 SLBChan/33","WebKit","Chrome","92.0.4515.131","Windows","10.0","949","<p>作为军队的指挥官，你可以选择发射导弹杀死 <strong>10名</strong> 敌国士兵，但会炸毁附近的 <strong>1棵</strong> 敌国树木。</p> <p>树木的照片如下图所示。</p> <p></p> <img src='stimuli/trees/1.png', style='max-width: 30%;'> </img> <p><strong>你是否选择发射武器？</strong></p>","0",""
"","","","","","survey-multi-choice","132","205862","0.0-5.0","41","1","2022-10-09 10:17:16","ebf9627b049f568eb4bf28942cb89901","117.30.100.21","Mozilla/5.0 (Windows NT 10.0; WOW64) AppleWebKit/537.36 (KHTML, like Gecko) Chrome/92.0.4515.131 Safari/537.36 SLBrowser/8.0.0.7062 SLBChan/33","WebKit","Chrome","92.0.4515.131","Windows","10.0","18389","","{""Attention1"":""""}","[0]"
"","","","","","html-button-response","133","208993","0.0-6.0","41","1","2022-10-09 10:17:16","ebf9627b049f568eb4bf28942cb89901","117.30.100.21","Mozilla/5.0 (Windows NT 10.0; WOW64) AppleWebKit/537.36 (KHTML, like Gecko) Chrome/92.0.4515.131 Safari/537.36 SLBrowser/8.0.0.7062 SLBChan/33","WebKit","Chrome","92.0.4515.131","Windows","10.0","3125","<p style=""font-size:20px;font-weight:bold;"">恭喜！</p><p>你已经完成了实验的第一部分。</p><p>请休息放松一下，然后进入第二部分。</p><p>这部分大约需要10分钟。</p>","0",""
"","","","","","survey-text","134","244153","0.0-7.0","41","1","2022-10-09 10:17:16","ebf9627b049f568eb4bf28942cb89901","117.30.100.21","Mozilla/5.0 (Windows NT 10.0; WOW64) AppleWebKit/537.36 (KHTML, like Gecko) Chrome/92.0.4515.131 Safari/537.36 SLBrowser/8.0.0.7062 SLBChan/33","WebKit","Chrome","92.0.4515.131","Windows","10.0","34125","","{""Age"":""19"",""Nation"":""中国"",""Born"":""福建省"",""Live"":""福建省"",""Ethnic"":""汉族"",""Alipay"":""18559573296""}",""
"","","","","","survey-multi-choice","135","255709","0.0-8.0","41","1","2022-10-09 10:17:16","ebf9627b049f568eb4bf28942cb89901","117.30.100.21","Mozilla/5.0 (Windows NT 10.0; WOW64) AppleWebKit/537.36 (KHTML, like Gecko) Chrome/92.0.4515.131 Safari/537.36 SLBrowser/8.0.0.7062 SLBChan/33","WebKit","Chrome","92.0.4515.131","Windows","10.0","11549","","{""Gender"":""男"",""Education"":""专科毕业"",""Income"":""￥35,000-￥69,999"",""Children"":""0"",""Race"":""亚洲人""}","[0,1,2,3,4]"
"","","","","","survey-multi-select","136","261106","0.0-9.0","41","1","2022-10-09 10:17:16","ebf9627b049f568eb4bf28942cb89901","117.30.100.21","Mozilla/5.0 (Windows NT 10.0; WOW64) AppleWebKit/537.36 (KHTML, like Gecko) Chrome/92.0.4515.131 Safari/537.36 SLBrowser/8.0.0.7062 SLBChan/33","WebKit","Chrome","92.0.4515.131","Windows","10.0","5378","","{""Marriage"":[""未婚""],""Religion"":[""佛教""]}","[0,1]"
"","","","","","survey-multi-choice","137","275238","0.0-10.0","41","1","2022-10-09 10:17:16","ebf9627b049f568eb4bf28942cb89901","117.30.100.21","Mozilla/5.0 (Windows NT 10.0; WOW64) AppleWebKit/537.36 (KHTML, like Gecko) Chrome/92.0.4515.131 Safari/537.36 SLBrowser/8.0.0.7062 SLBChan/33","WebKit","Chrome","92.0.4515.131","Windows","10.0","14124","","{""SES"":""6""}","[0]"
"","","","","","html-button-response","138","279742","0.0-11.0","41","1","2022-10-09 10:17:16","ebf9627b049f568eb4bf28942cb89901","117.30.100.21","Mozilla/5.0 (Windows NT 10.0; WOW64) AppleWebKit/537.36 (KHTML, like Gecko) Chrome/92.0.4515.131 Safari/537.36 SLBrowser/8.0.0.7062 SLBChan/33","WebKit","Chrome","92.0.4515.131","Windows","10.0","4496","<p><strong>请判断下列陈述在多大程度上可以形容你？</p><p> (1 = ""和我一点都不像"" to 5 = ""非常像我"".)</strong></p>","0",""
"","","","","","survey-likert","139","309443","0.0-12.0","41","1","2022-10-09 10:17:16","ebf9627b049f568eb4bf28942cb89901","117.30.100.21","Mozilla/5.0 (Windows NT 10.0; WOW64) AppleWebKit/537.36 (KHTML, like Gecko) Chrome/92.0.4515.131 Safari/537.36 SLBrowser/8.0.0.7062 SLBChan/33","WebKit","Chrome","92.0.4515.131","Windows","10.0","29693","","{""Aggression1"":0,""Aggression2"":1,""Aggression3"":3,""Aggression4"":0,""Aggression5"":2,""Aggression6"":1,""Aggression7"":3,""Aggression8"":0,""Aggression9"":2}","[0,1,2,3,4,5,6,7,8]"
"","","","","","html-button-response","140","311004","0.0-13.0","41","1","2022-10-09 10:17:16","ebf9627b049f568eb4bf28942cb89901","117.30.100.21","Mozilla/5.0 (Windows NT 10.0; WOW64) AppleWebKit/537.36 (KHTML, like Gecko) Chrome/92.0.4515.131 Safari/537.36 SLBrowser/8.0.0.7062 SLBChan/33","WebKit","Chrome","92.0.4515.131","Windows","10.0","1551","<p><strong>请判断你在多大程度上同意下列陈述。</strong></p>","0",""
"","","","","","survey-likert","141","407537","0.0-14.0","41","1","2022-10-09 10:17:16","ebf9627b049f568eb4bf28942cb89901","117.30.100.21","Mozilla/5.0 (Windows NT 10.0; WOW64) AppleWebKit/537.36 (KHTML, like Gecko) Chrome/92.0.4515.131 Safari/537.36 SLBrowser/8.0.0.7062 SLBChan/33","WebKit","Chrome","92.0.4515.131","Windows","10.0","96524","","{""scale14"":2,""scale5"":3,""scale3"":4,""scale28"":1,""scale10"":3,""scale19"":1,""scale23"":1,""scale15"":1,""scale20"":3,""scale12"":2,""scale4"":1,""scale24"":0,""scale1"":1,""scale21"":3,""scale27"":0,""scale16"":0,""scale7"":1,""scale26"":3,""scale9"":2,""scale18"":1,""scale6"":2,""scale11"":1,""scale13"":0,""scale2"":3,""scale8"":3,""scale17"":3,""scale25"":2,""scale22"":1}","[13,4,2,27,9,18,22,14,19,11,3,23,0,20,26,15,6,25,8,17,5,10,12,1,7,16,24,21]"
"","","","","","html-button-response","142","1752522","0.0-15.0","41","1","2022-10-09 10:17:16","ebf9627b049f568eb4bf28942cb89901","117.30.100.21","Mozilla/5.0 (Windows NT 10.0; WOW64) AppleWebKit/537.36 (KHTML, like Gecko) Chrome/92.0.4515.131 Safari/537.36 SLBrowser/8.0.0.7062 SLBChan/33","WebKit","Chrome","92.0.4515.131","Windows","10.0","1344976","<p><strong>请判断你在多大程度上同意下列陈述。</strong></p>","0",""
"","","","","","survey-likert","143","1826697","0.0-16.0","41","1","2022-10-09 10:17:16","ebf9627b049f568eb4bf28942cb89901","117.30.100.21","Mozilla/5.0 (Windows NT 10.0; WOW64) AppleWebKit/537.36 (KHTML, like Gecko) Chrome/92.0.4515.131 Safari/537.36 SLBrowser/8.0.0.7062 SLBChan/33","WebKit","Chrome","92.0.4515.131","Windows","10.0","74165","","{""sdo16"":5,""sdo15"":5,""sdo4"":3,""sdo10"":5,""sdo3"":5,""sdo12"":6,""sdo13"":6,""sdo6"":2,""sdo14"":4,""sdo5"":5,""sdo1"":5,""sdo7"":1,""sdo8"":0,""sdo11"":4,""sdo2"":2,""sdo9"":4}","[15,14,3,9,2,11,12,5,13,4,0,6,7,10,1,8]"
"","","","","","html-button-response","144","1835123","0.0-17.0","41","1","2022-10-09 10:17:16","ebf9627b049f568eb4bf28942cb89901","117.30.100.21","Mozilla/5.0 (Windows NT 10.0; WOW64) AppleWebKit/537.36 (KHTML, like Gecko) Chrome/92.0.4515.131 Safari/537.36 SLBrowser/8.0.0.7062 SLBChan/33","WebKit","Chrome","92.0.4515.131","Windows","10.0","8419","<p><strong>请判断你在多大程度上同意下列陈述。</strong></p>","0",""
"","","","","","survey-likert","145","1877373","0.0-18.0","41","1","2022-10-09 10:17:16","ebf9627b049f568eb4bf28942cb89901","117.30.100.21","Mozilla/5.0 (Windows NT 10.0; WOW64) AppleWebKit/537.36 (KHTML, like Gecko) Chrome/92.0.4515.131 Safari/537.36 SLBrowser/8.0.0.7062 SLBChan/33","WebKit","Chrome","92.0.4515.131","Windows","10.0","42243","","{""caring1"":3,""liking1"":2,""caring2"":3,""protection1"":1,""liking2"":1,""caring3"":3,""protection2"":0,""liking3"":3,""protection3"":4,""caring4"":4,""liking4"":0,""protection4"":3,""caring5"":3,""liking5"":3,""protection5"":2}","[0,1,2,3,4,5,6,7,8,9,10,11,12,13,14]"
"","","","","","html-button-response","146","1878716","0.0-19.0","41","1","2022-10-09 10:17:16","ebf9627b049f568eb4bf28942cb89901","117.30.100.21","Mozilla/5.0 (Windows NT 10.0; WOW64) AppleWebKit/537.36 (KHTML, like Gecko) Chrome/92.0.4515.131 Safari/537.36 SLBrowser/8.0.0.7062 SLBChan/33","WebKit","Chrome","92.0.4515.131","Windows","10.0","1335","<p><strong>请判断下列场景中你的内心感受有多柔软。</strong></p>","0",""
"","","","","","survey-likert","147","1939865","0.0-20.0","41","1","2022-10-09 10:17:16","ebf9627b049f568eb4bf28942cb89901","117.30.100.21","Mozilla/5.0 (Windows NT 10.0; WOW64) AppleWebKit/537.36 (KHTML, like Gecko) Chrome/92.0.4515.131 Safari/537.36 SLBrowser/8.0.0.7062 SLBChan/33","WebKit","Chrome","92.0.4515.131","Windows","10.0","61143","","{""tenderness-positive1"":3,""tenderness-negative1"":3,""tenderness-negative2"":1,""tenderness-positive2"":3,""tenderness-positive3"":3,""tenderness-negative3"":3,""tenderness-positive4"":3,""tendereness-negative4"":4,""tendernness-negative5"":3,""tenderness-positive5"":2}","[0,1,2,3,4,5,6,7,8,9]"
"","","","","","survey-multi-choice","148","1945646","0.0-21.0","41","1","2022-10-09 10:17:16","ebf9627b049f568eb4bf28942cb89901","117.30.100.21","Mozilla/5.0 (Windows NT 10.0; WOW64) AppleWebKit/537.36 (KHTML, like Gecko) Chrome/92.0.4515.131 Safari/537.36 SLBrowser/8.0.0.7062 SLBChan/33","WebKit","Chrome","92.0.4515.131","Windows","10.0","5774","","{""Attention2"":""其他""}","[0]"
"","","","","","html-button-response","149","1946814","0.0-22.0","41","1","2022-10-09 10:17:16","ebf9627b049f568eb4bf28942cb89901","117.30.100.21","Mozilla/5.0 (Windows NT 10.0; WOW64) AppleWebKit/537.36 (KHTML, like Gecko) Chrome/92.0.4515.131 Safari/537.36 SLBrowser/8.0.0.7062 SLBChan/33","WebKit","Chrome","92.0.4515.131","Windows","10.0","1163","<p><strong>请判断你在多大程度上同意下列陈述。</strong></p>","0",""
"","","","","","survey-likert","150","2050368","0.0-23.0","41","1","2022-10-09 10:17:16","ebf9627b049f568eb4bf28942cb89901","117.30.100.21","Mozilla/5.0 (Windows NT 10.0; WOW64) AppleWebKit/537.36 (KHTML, like Gecko) Chrome/92.0.4515.131 Safari/537.36 SLBrowser/8.0.0.7062 SLBChan/33","WebKit","Chrome","92.0.4515.131","Windows","10.0","103540","","{""Patri9"":3,""Patri7"":4,""Patri3"":2,""Patri11"":0,""Nation7"":4,""Nation4"":3,""Patri2"":4,""Patri1"":4,""Nation2"":4,""Patri8"":4,""Nation6"":4,""Nation1"":3,""Patri10"":0,""Patri4"":3,""Patri6"":0,""Patri5"":4,""Nation5"":4,""Patri12"":1,""Nation3"":3,""Nation8"":0}","[8,6,2,10,18,15,1,0,13,7,17,12,9,3,5,4,16,11,14,19]"
"","","","","","html-button-response","151","2051408","0.0-24.0","41","1","2022-10-09 10:17:16","ebf9627b049f568eb4bf28942cb89901","117.30.100.21","Mozilla/5.0 (Windows NT 10.0; WOW64) AppleWebKit/537.36 (KHTML, like Gecko) Chrome/92.0.4515.131 Safari/537.36 SLBrowser/8.0.0.7062 SLBChan/33","WebKit","Chrome","92.0.4515.131","Windows","10.0","1030","<p><strong>请判断你在多大程度上同意下列陈述。</strong></p>","0",""
"","","","","","survey-likert","152","2115025","0.0-25.0","41","1","2022-10-09 10:17:16","ebf9627b049f568eb4bf28942cb89901","117.30.100.21","Mozilla/5.0 (Windows NT 10.0; WOW64) AppleWebKit/537.36 (KHTML, like Gecko) Chrome/92.0.4515.131 Safari/537.36 SLBrowser/8.0.0.7062 SLBChan/33","WebKit","Chrome","92.0.4515.131","Windows","10.0","63605","","{""hi2"":7,""hc4"":8,""hc3"":7,""vc4"":6,""vi4"":5,""vc3"":6,""vi1"":6,""vc2"":7,""vc1"":8,""vi3"":5,""Robot"":6,""vi2"":3,""hc1"":6,""hc2"":7,""hi4"":7,""hi1"":7,""hi3"":1}","[1,12,11,16,8,15,4,14,13,6,7,5,9,10,3,0,2]"
"","","","","","survey-text","153","2161095","0.0-26.0","41","1","2022-10-09 10:17:16","ebf9627b049f568eb4bf28942cb89901","117.30.100.21","Mozilla/5.0 (Windows NT 10.0; WOW64) AppleWebKit/537.36 (KHTML, like Gecko) Chrome/92.0.4515.131 Safari/537.36 SLBrowser/8.0.0.7062 SLBChan/33","WebKit","Chrome","92.0.4515.131","Windows","10.0","46047","","{""Comments"":""有，这个实验对我来说感觉非常的好，人为了解到了自己""}",""
"","","","","","html-button-response","154","2161990","0.0-27.0","41","1","2022-10-09 10:17:16","ebf9627b049f568eb4bf28942cb89901","117.30.100.21","Mozilla/5.0 (Windows NT 10.0; WOW64) AppleWebKit/537.36 (KHTML, like Gecko) Chrome/92.0.4515.131 Safari/537.36 SLBrowser/8.0.0.7062 SLBChan/33","WebKit","Chrome","92.0.4515.131","Windows","10.0","891","<strong><p>恭喜你完成了实验！</p><p>感谢您的参与。</p></strong>","0",""
