"success","timeout","failed_images","failed_audio","failed_video","trial_type","trial_index","time_elapsed","internal_node_id","run_id","condition","recorded_at","source_code_version","ip","user_agent","device","browser","browser_version","platform","platform_version","rt","stimulus","response","question_order"
"true","false","[]","[]","[]","preload","0","1727","0.0-0.0","55","1","2022-10-09 10:55:04","ebf9627b049f568eb4bf28942cb89901","183.95.251.253","Mozilla/5.0 (Windows NT 10.0; Win64; x64) AppleWebKit/537.36 (KHTML, like Gecko) Chrome/105.0.0.0 Safari/537.36 Edg/105.0.1343.53","WebKit","Edge","105.0.1343.53","Windows","10.0","","","",""
"true","","","","","fullscreen","1","4258","0.0-1.0","55","1","2022-10-09 10:55:04","ebf9627b049f568eb4bf28942cb89901","183.95.251.253","Mozilla/5.0 (Windows NT 10.0; Win64; x64) AppleWebKit/537.36 (KHTML, like Gecko) Chrome/105.0.0.0 Safari/537.36 Edg/105.0.1343.53","WebKit","Edge","105.0.1343.53","Windows","10.0","","","",""
"","","","","","html-button-response","2","10719","0.0-2.0","55","1","2022-10-09 10:55:04","ebf9627b049f568eb4bf28942cb89901","183.95.251.253","Mozilla/5.0 (Windows NT 10.0; Win64; x64) AppleWebKit/537.36 (KHTML, like Gecko) Chrome/105.0.0.0 Safari/537.36 Edg/105.0.1343.53","WebKit","Edge","105.0.1343.53","Windows","10.0","6458","<p style=""font-size:20px;font-weight:bold;"">实验知情同意书</p><p style=""text-align:left;""><strong>实验名称：</strong>社会冲突研究</p><p style=""text-align:left;""><strong>主要研究者：</strong>韩晓春副教授（北京师范大学心理学部）</p><p style=""text-align:left;""><strong>联系方式：</strong>发送邮件至xiaochun.han@bnu.edu.cn</p><p style=""text-align:left;""><strong>研究目的：</strong>研究旨在了解人类面对群体冲突时的决策方式，以及相关的心理学特质。实验调查大约需要20分钟。</p><p style=""text-align:left;""><strong>实验流程：</strong>实验包含两部分。第一部分呈现一系列群体冲突场景，请你决定如何对这些冲突进行反应，大约需要10分钟完成。第二部分包含一系列人口统计学信息收集和心理学问卷，大约需要10分钟完成。</p><p style=""text-align:left;""><strong>参加及退出规则：</strong>参加本实验完全取决于您的个人意愿。在参与过程中，您可以随时退出，并且不用承担任何后果。</p><p style=""text-align:left;""><strong>隐私：</strong>本实验完全匿名进行，不会收集您的姓名或其他能够识别您身份的信息。实验中收集的作答仅用作科学研究使用，可能会在学术期刊/书籍上发表，或者用于教学，您的数据未来可能会和其他研究者或实验室分享，但您的个人身份不会被识别。</p><p style=""text-align:left;""><strong>实验报酬：</strong>实验完成后，您将获得15元人民币报酬，以感谢您的时间和努力。调查问卷中包含几道题目用以测验您作答时的认真度。只有完成全部实验，并且正确回答认真度测验的被试才能获得实验报酬。实验报酬将通过支付宝转账发放。</p><p style=""text-align:left;font-size:20px;""><strong>如果您同意以上实验知情同意书的内容，请点击'同意并且开始实验'按钮；否则请关闭浏览器界面，退出实验。</strong></p>","0",""
"","","","","","html-button-response","3","58471","0.0-3.0","55","1","2022-10-09 10:55:04","ebf9627b049f568eb4bf28942cb89901","183.95.251.253","Mozilla/5.0 (Windows NT 10.0; Win64; x64) AppleWebKit/537.36 (KHTML, like Gecko) Chrome/105.0.0.0 Safari/537.36 Edg/105.0.1343.53","WebKit","Edge","105.0.1343.53","Windows","10.0","47749","<p ><strong>实验任务一：</strong></p><p>请想象你的国家与另一个国家发生了军事冲突。</p><p>你是国家军队的指挥官，你将如何在冲突中进行决策。</p><p>具体来说，作为军队指挥官，请你决定是否发射导弹进行打击。</p><p>接下来，你会面对一系列场景，请仔细阅读每个场景，然后进行决策。</p><p>这部分实验任务大约需要10分钟。</p><p><strong>实验过程中，请集中注意力。</strong></p>","0",""
"","","","","","html-keyboard-response","4","59473","0.0-4.0-0.0","55","1","2022-10-09 10:55:04","ebf9627b049f568eb4bf28942cb89901","183.95.251.253","Mozilla/5.0 (Windows NT 10.0; Win64; x64) AppleWebKit/537.36 (KHTML, like Gecko) Chrome/105.0.0.0 Safari/537.36 Edg/105.0.1343.53","WebKit","Edge","105.0.1343.53","Windows","10.0","null","<div style=""font-size:60px;"">+</div>","null",""
"","","","","","html-button-response","5","73591","0.0-4.0-1.0","55","1","2022-10-09 10:55:04","ebf9627b049f568eb4bf28942cb89901","183.95.251.253","Mozilla/5.0 (Windows NT 10.0; Win64; x64) AppleWebKit/537.36 (KHTML, like Gecko) Chrome/105.0.0.0 Safari/537.36 Edg/105.0.1343.53","WebKit","Edge","105.0.1343.53","Windows","10.0","14115","<p>作为军队的指挥官，你可以选择发射导弹杀死 <strong>4名</strong> 敌国士兵，但会误杀附近的 <strong>1名</strong> 敌国平民。</p> <p>平民照片如下图所示。</p> <p></p> <img src='stimuli/faces/NFF1.jpg', style='max-width: 30%;'> </img> <p><strong>你是否选择发射武器？</strong></p>","1",""
"","","","","","html-keyboard-response","6","74595","0.0-4.0-0.1","55","1","2022-10-09 10:55:04","ebf9627b049f568eb4bf28942cb89901","183.95.251.253","Mozilla/5.0 (Windows NT 10.0; Win64; x64) AppleWebKit/537.36 (KHTML, like Gecko) Chrome/105.0.0.0 Safari/537.36 Edg/105.0.1343.53","WebKit","Edge","105.0.1343.53","Windows","10.0","null","<div style=""font-size:60px;"">+</div>","null",""
"","","","","","html-button-response","7","85023","0.0-4.0-1.1","55","1","2022-10-09 10:55:04","ebf9627b049f568eb4bf28942cb89901","183.95.251.253","Mozilla/5.0 (Windows NT 10.0; Win64; x64) AppleWebKit/537.36 (KHTML, like Gecko) Chrome/105.0.0.0 Safari/537.36 Edg/105.0.1343.53","WebKit","Edge","105.0.1343.53","Windows","10.0","10424","<p>作为军队的指挥官，你可以选择发射导弹杀死 <strong>10名</strong> 敌国士兵，但会炸毁附近的 <strong>1棵</strong> 敌国树木。</p> <p>树木的照片如下图所示。</p> <p></p> <img src='stimuli/trees/5.png', style='max-width: 30%;'> </img> <p><strong>你是否选择发射武器？</strong></p>","0",""
"","","","","","html-keyboard-response","8","86025","0.0-4.0-0.2","55","1","2022-10-09 10:55:04","ebf9627b049f568eb4bf28942cb89901","183.95.251.253","Mozilla/5.0 (Windows NT 10.0; Win64; x64) AppleWebKit/537.36 (KHTML, like Gecko) Chrome/105.0.0.0 Safari/537.36 Edg/105.0.1343.53","WebKit","Edge","105.0.1343.53","Windows","10.0","null","<div style=""font-size:60px;"">+</div>","null",""
"","","","","","html-button-response","9","98055","0.0-4.0-1.2","55","1","2022-10-09 10:55:04","ebf9627b049f568eb4bf28942cb89901","183.95.251.253","Mozilla/5.0 (Windows NT 10.0; Win64; x64) AppleWebKit/537.36 (KHTML, like Gecko) Chrome/105.0.0.0 Safari/537.36 Edg/105.0.1343.53","WebKit","Edge","105.0.1343.53","Windows","10.0","12027","<p>作为军队的指挥官，你可以选择发射导弹杀死 <strong>10名</strong> 敌国士兵，但会误杀附近的 <strong>1名</strong> 敌国平民。</p> <p>平民照片如下图所示。</p> <p></p> <img src='stimuli/faces/NFF2.jpg', style='max-width: 30%;'> </img> <p><strong>你是否选择发射武器？</strong></p>","1",""
"","","","","","html-keyboard-response","10","99058","0.0-4.0-0.3","55","1","2022-10-09 10:55:04","ebf9627b049f568eb4bf28942cb89901","183.95.251.253","Mozilla/5.0 (Windows NT 10.0; Win64; x64) AppleWebKit/537.36 (KHTML, like Gecko) Chrome/105.0.0.0 Safari/537.36 Edg/105.0.1343.53","WebKit","Edge","105.0.1343.53","Windows","10.0","null","<div style=""font-size:60px;"">+</div>","null",""
"","","","","","html-button-response","11","104207","0.0-4.0-1.3","55","1","2022-10-09 10:55:04","ebf9627b049f568eb4bf28942cb89901","183.95.251.253","Mozilla/5.0 (Windows NT 10.0; Win64; x64) AppleWebKit/537.36 (KHTML, like Gecko) Chrome/105.0.0.0 Safari/537.36 Edg/105.0.1343.53","WebKit","Edge","105.0.1343.53","Windows","10.0","5144","<p>作为军队的指挥官，你可以选择发射导弹杀死 <strong>10名</strong> 敌国士兵，但会误杀附近的 <strong>1名</strong> 敌国平民。</p> <p>平民照片如下图所示。</p> <p></p> <img src='stimuli/faces/NFM2.jpg', style='max-width: 30%;'> </img> <p><strong>你是否选择发射武器？</strong></p>","0",""
"","","","","","html-keyboard-response","12","105209","0.0-4.0-0.4","55","1","2022-10-09 10:55:04","ebf9627b049f568eb4bf28942cb89901","183.95.251.253","Mozilla/5.0 (Windows NT 10.0; Win64; x64) AppleWebKit/537.36 (KHTML, like Gecko) Chrome/105.0.0.0 Safari/537.36 Edg/105.0.1343.53","WebKit","Edge","105.0.1343.53","Windows","10.0","null","<div style=""font-size:60px;"">+</div>","null",""
"","","","","","html-button-response","13","112865","0.0-4.0-1.4","55","1","2022-10-09 10:55:04","ebf9627b049f568eb4bf28942cb89901","183.95.251.253","Mozilla/5.0 (Windows NT 10.0; Win64; x64) AppleWebKit/537.36 (KHTML, like Gecko) Chrome/105.0.0.0 Safari/537.36 Edg/105.0.1343.53","WebKit","Edge","105.0.1343.53","Windows","10.0","7650","<p>作为军队的指挥官，你可以选择发射导弹杀死 <strong>4名</strong> 敌国士兵，但会误杀附近的 <strong>1名</strong> 敌国平民。</p> <p>平民照片如下图所示。</p> <p></p> <img src='stimuli/faces/NFF7.jpg', style='max-width: 30%;'> </img> <p><strong>你是否选择发射武器？</strong></p>","1",""
"","","","","","html-keyboard-response","14","113868","0.0-4.0-0.5","55","1","2022-10-09 10:55:04","ebf9627b049f568eb4bf28942cb89901","183.95.251.253","Mozilla/5.0 (Windows NT 10.0; Win64; x64) AppleWebKit/537.36 (KHTML, like Gecko) Chrome/105.0.0.0 Safari/537.36 Edg/105.0.1343.53","WebKit","Edge","105.0.1343.53","Windows","10.0","null","<div style=""font-size:60px;"">+</div>","null",""
"","","","","","html-button-response","15","118569","0.0-4.0-1.5","55","1","2022-10-09 10:55:04","ebf9627b049f568eb4bf28942cb89901","183.95.251.253","Mozilla/5.0 (Windows NT 10.0; Win64; x64) AppleWebKit/537.36 (KHTML, like Gecko) Chrome/105.0.0.0 Safari/537.36 Edg/105.0.1343.53","WebKit","Edge","105.0.1343.53","Windows","10.0","4695","<p>作为军队的指挥官，你可以选择发射导弹杀死 <strong>10名</strong> 敌国士兵，但会炸毁附近的 <strong>1棵</strong> 敌国树木。</p> <p>树木的照片如下图所示。</p> <p></p> <img src='stimuli/trees/2.png', style='max-width: 30%;'> </img> <p><strong>你是否选择发射武器？</strong></p>","0",""
"","","","","","html-keyboard-response","16","119574","0.0-4.0-0.6","55","1","2022-10-09 10:55:04","ebf9627b049f568eb4bf28942cb89901","183.95.251.253","Mozilla/5.0 (Windows NT 10.0; Win64; x64) AppleWebKit/537.36 (KHTML, like Gecko) Chrome/105.0.0.0 Safari/537.36 Edg/105.0.1343.53","WebKit","Edge","105.0.1343.53","Windows","10.0","null","<div style=""font-size:60px;"">+</div>","null",""
"","","","","","html-button-response","17","122201","0.0-4.0-1.6","55","1","2022-10-09 10:55:04","ebf9627b049f568eb4bf28942cb89901","183.95.251.253","Mozilla/5.0 (Windows NT 10.0; Win64; x64) AppleWebKit/537.36 (KHTML, like Gecko) Chrome/105.0.0.0 Safari/537.36 Edg/105.0.1343.53","WebKit","Edge","105.0.1343.53","Windows","10.0","2622","<p>作为军队的指挥官，你可以选择发射导弹杀死 <strong>9名</strong> 敌国士兵，但会误杀附近的 <strong>1名</strong> 敌国平民。</p> <p>平民照片如下图所示。</p> <p></p> <img src='stimuli/faces/NFF6.jpg', style='max-width: 30%;'> </img> <p><strong>你是否选择发射武器？</strong></p>","1",""
"","","","","","html-keyboard-response","18","123206","0.0-4.0-0.7","55","1","2022-10-09 10:55:04","ebf9627b049f568eb4bf28942cb89901","183.95.251.253","Mozilla/5.0 (Windows NT 10.0; Win64; x64) AppleWebKit/537.36 (KHTML, like Gecko) Chrome/105.0.0.0 Safari/537.36 Edg/105.0.1343.53","WebKit","Edge","105.0.1343.53","Windows","10.0","null","<div style=""font-size:60px;"">+</div>","null",""
"","","","","","html-button-response","19","131883","0.0-4.0-1.7","55","1","2022-10-09 10:55:04","ebf9627b049f568eb4bf28942cb89901","183.95.251.253","Mozilla/5.0 (Windows NT 10.0; Win64; x64) AppleWebKit/537.36 (KHTML, like Gecko) Chrome/105.0.0.0 Safari/537.36 Edg/105.0.1343.53","WebKit","Edge","105.0.1343.53","Windows","10.0","8672","<p>作为军队的指挥官，你可以选择发射导弹杀死 <strong>1名</strong> 敌国士兵，但会误杀附近的 <strong>1名</strong> 敌国平民。</p> <p>平民照片如下图所示。</p> <p></p> <img src='stimuli/faces/NFF3.jpg', style='max-width: 30%;'> </img> <p><strong>你是否选择发射武器？</strong></p>","1",""
"","","","","","html-keyboard-response","20","132887","0.0-4.0-0.8","55","1","2022-10-09 10:55:04","ebf9627b049f568eb4bf28942cb89901","183.95.251.253","Mozilla/5.0 (Windows NT 10.0; Win64; x64) AppleWebKit/537.36 (KHTML, like Gecko) Chrome/105.0.0.0 Safari/537.36 Edg/105.0.1343.53","WebKit","Edge","105.0.1343.53","Windows","10.0","null","<div style=""font-size:60px;"">+</div>","null",""
"","","","","","html-button-response","21","138000","0.0-4.0-1.8","55","1","2022-10-09 10:55:04","ebf9627b049f568eb4bf28942cb89901","183.95.251.253","Mozilla/5.0 (Windows NT 10.0; Win64; x64) AppleWebKit/537.36 (KHTML, like Gecko) Chrome/105.0.0.0 Safari/537.36 Edg/105.0.1343.53","WebKit","Edge","105.0.1343.53","Windows","10.0","5108","<p>作为军队的指挥官，你可以选择发射导弹杀死 <strong>5名</strong> 敌国士兵，但会炸毁附近的 <strong>1棵</strong> 敌国树木。</p> <p>树木的照片如下图所示。</p> <p></p> <img src='stimuli/trees/3.png', style='max-width: 30%;'> </img> <p><strong>你是否选择发射武器？</strong></p>","0",""
"","","","","","html-keyboard-response","22","139003","0.0-4.0-0.9","55","1","2022-10-09 10:55:04","ebf9627b049f568eb4bf28942cb89901","183.95.251.253","Mozilla/5.0 (Windows NT 10.0; Win64; x64) AppleWebKit/537.36 (KHTML, like Gecko) Chrome/105.0.0.0 Safari/537.36 Edg/105.0.1343.53","WebKit","Edge","105.0.1343.53","Windows","10.0","null","<div style=""font-size:60px;"">+</div>","null",""
"","","","","","html-button-response","23","153370","0.0-4.0-1.9","55","1","2022-10-09 10:55:04","ebf9627b049f568eb4bf28942cb89901","183.95.251.253","Mozilla/5.0 (Windows NT 10.0; Win64; x64) AppleWebKit/537.36 (KHTML, like Gecko) Chrome/105.0.0.0 Safari/537.36 Edg/105.0.1343.53","WebKit","Edge","105.0.1343.53","Windows","10.0","14362","<p>作为军队的指挥官，你可以选择发射导弹杀死 <strong>7名</strong> 敌国士兵，但会炸毁附近的 <strong>1棵</strong> 敌国树木。</p> <p>树木的照片如下图所示。</p> <p></p> <img src='stimuli/trees/9.png', style='max-width: 30%;'> </img> <p><strong>你是否选择发射武器？</strong></p>","0",""
"","","","","","html-keyboard-response","24","154374","0.0-4.0-0.10","55","1","2022-10-09 10:55:04","ebf9627b049f568eb4bf28942cb89901","183.95.251.253","Mozilla/5.0 (Windows NT 10.0; Win64; x64) AppleWebKit/537.36 (KHTML, like Gecko) Chrome/105.0.0.0 Safari/537.36 Edg/105.0.1343.53","WebKit","Edge","105.0.1343.53","Windows","10.0","null","<div style=""font-size:60px;"">+</div>","null",""
"","","","","","html-button-response","25","160598","0.0-4.0-1.10","55","1","2022-10-09 10:55:04","ebf9627b049f568eb4bf28942cb89901","183.95.251.253","Mozilla/5.0 (Windows NT 10.0; Win64; x64) AppleWebKit/537.36 (KHTML, like Gecko) Chrome/105.0.0.0 Safari/537.36 Edg/105.0.1343.53","WebKit","Edge","105.0.1343.53","Windows","10.0","6220","<p>作为军队的指挥官，你可以选择发射导弹杀死 <strong>3名</strong> 敌国士兵，但会炸毁附近的 <strong>1棵</strong> 敌国树木。</p> <p>树木的照片如下图所示。</p> <p></p> <img src='stimuli/trees/10.png', style='max-width: 30%;'> </img> <p><strong>你是否选择发射武器？</strong></p>","0",""
"","","","","","html-keyboard-response","26","161601","0.0-4.0-0.11","55","1","2022-10-09 10:55:04","ebf9627b049f568eb4bf28942cb89901","183.95.251.253","Mozilla/5.0 (Windows NT 10.0; Win64; x64) AppleWebKit/537.36 (KHTML, like Gecko) Chrome/105.0.0.0 Safari/537.36 Edg/105.0.1343.53","WebKit","Edge","105.0.1343.53","Windows","10.0","null","<div style=""font-size:60px;"">+</div>","null",""
"","","","","","html-button-response","27","164599","0.0-4.0-1.11","55","1","2022-10-09 10:55:04","ebf9627b049f568eb4bf28942cb89901","183.95.251.253","Mozilla/5.0 (Windows NT 10.0; Win64; x64) AppleWebKit/537.36 (KHTML, like Gecko) Chrome/105.0.0.0 Safari/537.36 Edg/105.0.1343.53","WebKit","Edge","105.0.1343.53","Windows","10.0","2993","<p>作为军队的指挥官，你可以选择发射导弹杀死 <strong>3名</strong> 敌国士兵，但会误杀附近的 <strong>1名</strong> 敌国平民。</p> <p>平民照片如下图所示。</p> <p></p> <img src='stimuli/faces/NFM1.jpg', style='max-width: 30%;'> </img> <p><strong>你是否选择发射武器？</strong></p>","0",""
"","","","","","html-keyboard-response","28","165602","0.0-4.0-0.12","55","1","2022-10-09 10:55:04","ebf9627b049f568eb4bf28942cb89901","183.95.251.253","Mozilla/5.0 (Windows NT 10.0; Win64; x64) AppleWebKit/537.36 (KHTML, like Gecko) Chrome/105.0.0.0 Safari/537.36 Edg/105.0.1343.53","WebKit","Edge","105.0.1343.53","Windows","10.0","null","<div style=""font-size:60px;"">+</div>","null",""
"","","","","","html-button-response","29","168811","0.0-4.0-1.12","55","1","2022-10-09 10:55:04","ebf9627b049f568eb4bf28942cb89901","183.95.251.253","Mozilla/5.0 (Windows NT 10.0; Win64; x64) AppleWebKit/537.36 (KHTML, like Gecko) Chrome/105.0.0.0 Safari/537.36 Edg/105.0.1343.53","WebKit","Edge","105.0.1343.53","Windows","10.0","3204","<p>作为军队的指挥官，你可以选择发射导弹杀死 <strong>4名</strong> 敌国士兵，但会炸毁附近的 <strong>1棵</strong> 敌国树木。</p> <p>树木的照片如下图所示。</p> <p></p> <img src='stimuli/trees/1.png', style='max-width: 30%;'> </img> <p><strong>你是否选择发射武器？</strong></p>","0",""
"","","","","","html-keyboard-response","30","169816","0.0-4.0-0.13","55","1","2022-10-09 10:55:04","ebf9627b049f568eb4bf28942cb89901","183.95.251.253","Mozilla/5.0 (Windows NT 10.0; Win64; x64) AppleWebKit/537.36 (KHTML, like Gecko) Chrome/105.0.0.0 Safari/537.36 Edg/105.0.1343.53","WebKit","Edge","105.0.1343.53","Windows","10.0","null","<div style=""font-size:60px;"">+</div>","null",""
"","","","","","html-button-response","31","175841","0.0-4.0-1.13","55","1","2022-10-09 10:55:04","ebf9627b049f568eb4bf28942cb89901","183.95.251.253","Mozilla/5.0 (Windows NT 10.0; Win64; x64) AppleWebKit/537.36 (KHTML, like Gecko) Chrome/105.0.0.0 Safari/537.36 Edg/105.0.1343.53","WebKit","Edge","105.0.1343.53","Windows","10.0","6019","<p>作为军队的指挥官，你可以选择发射导弹杀死 <strong>4名</strong> 敌国士兵，但会误杀附近的 <strong>1名</strong> 敌国平民。</p> <p>平民照片如下图所示。</p> <p></p> <img src='stimuli/faces/NFM2.jpg', style='max-width: 30%;'> </img> <p><strong>你是否选择发射武器？</strong></p>","0",""
"","","","","","html-keyboard-response","32","176844","0.0-4.0-0.14","55","1","2022-10-09 10:55:04","ebf9627b049f568eb4bf28942cb89901","183.95.251.253","Mozilla/5.0 (Windows NT 10.0; Win64; x64) AppleWebKit/537.36 (KHTML, like Gecko) Chrome/105.0.0.0 Safari/537.36 Edg/105.0.1343.53","WebKit","Edge","105.0.1343.53","Windows","10.0","null","<div style=""font-size:60px;"">+</div>","null",""
"","","","","","html-button-response","33","179906","0.0-4.0-1.14","55","1","2022-10-09 10:55:04","ebf9627b049f568eb4bf28942cb89901","183.95.251.253","Mozilla/5.0 (Windows NT 10.0; Win64; x64) AppleWebKit/537.36 (KHTML, like Gecko) Chrome/105.0.0.0 Safari/537.36 Edg/105.0.1343.53","WebKit","Edge","105.0.1343.53","Windows","10.0","3057","<p>作为军队的指挥官，你可以选择发射导弹杀死 <strong>10名</strong> 敌国士兵，但会误杀附近的 <strong>1名</strong> 敌国平民。</p> <p>平民照片如下图所示。</p> <p></p> <img src='stimuli/faces/NFF4.jpg', style='max-width: 30%;'> </img> <p><strong>你是否选择发射武器？</strong></p>","1",""
"","","","","","html-keyboard-response","34","180911","0.0-4.0-0.15","55","1","2022-10-09 10:55:04","ebf9627b049f568eb4bf28942cb89901","183.95.251.253","Mozilla/5.0 (Windows NT 10.0; Win64; x64) AppleWebKit/537.36 (KHTML, like Gecko) Chrome/105.0.0.0 Safari/537.36 Edg/105.0.1343.53","WebKit","Edge","105.0.1343.53","Windows","10.0","null","<div style=""font-size:60px;"">+</div>","null",""
"","","","","","html-button-response","35","186921","0.0-4.0-1.15","55","1","2022-10-09 10:55:04","ebf9627b049f568eb4bf28942cb89901","183.95.251.253","Mozilla/5.0 (Windows NT 10.0; Win64; x64) AppleWebKit/537.36 (KHTML, like Gecko) Chrome/105.0.0.0 Safari/537.36 Edg/105.0.1343.53","WebKit","Edge","105.0.1343.53","Windows","10.0","6003","<p>作为军队的指挥官，你可以选择发射导弹杀死 <strong>5名</strong> 敌国士兵，但会误杀附近的 <strong>1名</strong> 敌国平民。</p> <p>平民照片如下图所示。</p> <p></p> <img src='stimuli/faces/NFF2.jpg', style='max-width: 30%;'> </img> <p><strong>你是否选择发射武器？</strong></p>","1",""
"","","","","","html-keyboard-response","36","187926","0.0-4.0-0.16","55","1","2022-10-09 10:55:04","ebf9627b049f568eb4bf28942cb89901","183.95.251.253","Mozilla/5.0 (Windows NT 10.0; Win64; x64) AppleWebKit/537.36 (KHTML, like Gecko) Chrome/105.0.0.0 Safari/537.36 Edg/105.0.1343.53","WebKit","Edge","105.0.1343.53","Windows","10.0","null","<div style=""font-size:60px;"">+</div>","null",""
"","","","","","html-button-response","37","191569","0.0-4.0-1.16","55","1","2022-10-09 10:55:04","ebf9627b049f568eb4bf28942cb89901","183.95.251.253","Mozilla/5.0 (Windows NT 10.0; Win64; x64) AppleWebKit/537.36 (KHTML, like Gecko) Chrome/105.0.0.0 Safari/537.36 Edg/105.0.1343.53","WebKit","Edge","105.0.1343.53","Windows","10.0","3636","<p>作为军队的指挥官，你可以选择发射导弹杀死 <strong>1名</strong> 敌国士兵，但会炸毁附近的 <strong>1棵</strong> 敌国树木。</p> <p>树木的照片如下图所示。</p> <p></p> <img src='stimuli/trees/13.png', style='max-width: 30%;'> </img> <p><strong>你是否选择发射武器？</strong></p>","0",""
"","","","","","html-keyboard-response","38","192572","0.0-4.0-0.17","55","1","2022-10-09 10:55:04","ebf9627b049f568eb4bf28942cb89901","183.95.251.253","Mozilla/5.0 (Windows NT 10.0; Win64; x64) AppleWebKit/537.36 (KHTML, like Gecko) Chrome/105.0.0.0 Safari/537.36 Edg/105.0.1343.53","WebKit","Edge","105.0.1343.53","Windows","10.0","null","<div style=""font-size:60px;"">+</div>","null",""
"","","","","","html-button-response","39","196499","0.0-4.0-1.17","55","1","2022-10-09 10:55:04","ebf9627b049f568eb4bf28942cb89901","183.95.251.253","Mozilla/5.0 (Windows NT 10.0; Win64; x64) AppleWebKit/537.36 (KHTML, like Gecko) Chrome/105.0.0.0 Safari/537.36 Edg/105.0.1343.53","WebKit","Edge","105.0.1343.53","Windows","10.0","3921","<p>作为军队的指挥官，你可以选择发射导弹杀死 <strong>3名</strong> 敌国士兵，但会误杀附近的 <strong>1名</strong> 敌国平民。</p> <p>平民照片如下图所示。</p> <p></p> <img src='stimuli/faces/NFM8.jpg', style='max-width: 30%;'> </img> <p><strong>你是否选择发射武器？</strong></p>","0",""
"","","","","","html-keyboard-response","40","197503","0.0-4.0-0.18","55","1","2022-10-09 10:55:04","ebf9627b049f568eb4bf28942cb89901","183.95.251.253","Mozilla/5.0 (Windows NT 10.0; Win64; x64) AppleWebKit/537.36 (KHTML, like Gecko) Chrome/105.0.0.0 Safari/537.36 Edg/105.0.1343.53","WebKit","Edge","105.0.1343.53","Windows","10.0","null","<div style=""font-size:60px;"">+</div>","null",""
"","","","","","html-button-response","41","202089","0.0-4.0-1.18","55","1","2022-10-09 10:55:04","ebf9627b049f568eb4bf28942cb89901","183.95.251.253","Mozilla/5.0 (Windows NT 10.0; Win64; x64) AppleWebKit/537.36 (KHTML, like Gecko) Chrome/105.0.0.0 Safari/537.36 Edg/105.0.1343.53","WebKit","Edge","105.0.1343.53","Windows","10.0","4580","<p>作为军队的指挥官，你可以选择发射导弹杀死 <strong>1名</strong> 敌国士兵，但会误杀附近的 <strong>1名</strong> 敌国平民。</p> <p>平民照片如下图所示。</p> <p></p> <img src='stimuli/faces/NFF8.jpg', style='max-width: 30%;'> </img> <p><strong>你是否选择发射武器？</strong></p>","1",""
"","","","","","html-keyboard-response","42","203094","0.0-4.0-0.19","55","1","2022-10-09 10:55:04","ebf9627b049f568eb4bf28942cb89901","183.95.251.253","Mozilla/5.0 (Windows NT 10.0; Win64; x64) AppleWebKit/537.36 (KHTML, like Gecko) Chrome/105.0.0.0 Safari/537.36 Edg/105.0.1343.53","WebKit","Edge","105.0.1343.53","Windows","10.0","null","<div style=""font-size:60px;"">+</div>","null",""
"","","","","","html-button-response","43","210721","0.0-4.0-1.19","55","1","2022-10-09 10:55:04","ebf9627b049f568eb4bf28942cb89901","183.95.251.253","Mozilla/5.0 (Windows NT 10.0; Win64; x64) AppleWebKit/537.36 (KHTML, like Gecko) Chrome/105.0.0.0 Safari/537.36 Edg/105.0.1343.53","WebKit","Edge","105.0.1343.53","Windows","10.0","7620","<p>作为军队的指挥官，你可以选择发射导弹杀死 <strong>3名</strong> 敌国士兵，但会炸毁附近的 <strong>1棵</strong> 敌国树木。</p> <p>树木的照片如下图所示。</p> <p></p> <img src='stimuli/trees/8.png', style='max-width: 30%;'> </img> <p><strong>你是否选择发射武器？</strong></p>","0",""
"","","","","","html-keyboard-response","44","211728","0.0-4.0-0.20","55","1","2022-10-09 10:55:04","ebf9627b049f568eb4bf28942cb89901","183.95.251.253","Mozilla/5.0 (Windows NT 10.0; Win64; x64) AppleWebKit/537.36 (KHTML, like Gecko) Chrome/105.0.0.0 Safari/537.36 Edg/105.0.1343.53","WebKit","Edge","105.0.1343.53","Windows","10.0","null","<div style=""font-size:60px;"">+</div>","null",""
"","","","","","html-button-response","45","216293","0.0-4.0-1.20","55","1","2022-10-09 10:55:04","ebf9627b049f568eb4bf28942cb89901","183.95.251.253","Mozilla/5.0 (Windows NT 10.0; Win64; x64) AppleWebKit/537.36 (KHTML, like Gecko) Chrome/105.0.0.0 Safari/537.36 Edg/105.0.1343.53","WebKit","Edge","105.0.1343.53","Windows","10.0","4560","<p>作为军队的指挥官，你可以选择发射导弹杀死 <strong>10名</strong> 敌国士兵，但会误杀附近的 <strong>1名</strong> 敌国平民。</p> <p>平民照片如下图所示。</p> <p></p> <img src='stimuli/faces/NFM4.jpg', style='max-width: 30%;'> </img> <p><strong>你是否选择发射武器？</strong></p>","0",""
"","","","","","html-keyboard-response","46","217297","0.0-4.0-0.21","55","1","2022-10-09 10:55:04","ebf9627b049f568eb4bf28942cb89901","183.95.251.253","Mozilla/5.0 (Windows NT 10.0; Win64; x64) AppleWebKit/537.36 (KHTML, like Gecko) Chrome/105.0.0.0 Safari/537.36 Edg/105.0.1343.53","WebKit","Edge","105.0.1343.53","Windows","10.0","null","<div style=""font-size:60px;"">+</div>","null",""
"","","","","","html-button-response","47","231613","0.0-4.0-1.21","55","1","2022-10-09 10:55:04","ebf9627b049f568eb4bf28942cb89901","183.95.251.253","Mozilla/5.0 (Windows NT 10.0; Win64; x64) AppleWebKit/537.36 (KHTML, like Gecko) Chrome/105.0.0.0 Safari/537.36 Edg/105.0.1343.53","WebKit","Edge","105.0.1343.53","Windows","10.0","14313","<p>作为军队的指挥官，你可以选择发射导弹杀死 <strong>9名</strong> 敌国士兵，但会炸毁附近的 <strong>1棵</strong> 敌国树木。</p> <p>树木的照片如下图所示。</p> <p></p> <img src='stimuli/trees/12.png', style='max-width: 30%;'> </img> <p><strong>你是否选择发射武器？</strong></p>","0",""
"","","","","","html-keyboard-response","48","232615","0.0-4.0-0.22","55","1","2022-10-09 10:55:04","ebf9627b049f568eb4bf28942cb89901","183.95.251.253","Mozilla/5.0 (Windows NT 10.0; Win64; x64) AppleWebKit/537.36 (KHTML, like Gecko) Chrome/105.0.0.0 Safari/537.36 Edg/105.0.1343.53","WebKit","Edge","105.0.1343.53","Windows","10.0","null","<div style=""font-size:60px;"">+</div>","null",""
"","","","","","html-button-response","49","235475","0.0-4.0-1.22","55","1","2022-10-09 10:55:04","ebf9627b049f568eb4bf28942cb89901","183.95.251.253","Mozilla/5.0 (Windows NT 10.0; Win64; x64) AppleWebKit/537.36 (KHTML, like Gecko) Chrome/105.0.0.0 Safari/537.36 Edg/105.0.1343.53","WebKit","Edge","105.0.1343.53","Windows","10.0","2855","<p>作为军队的指挥官，你可以选择发射导弹杀死 <strong>7名</strong> 敌国士兵，但会炸毁附近的 <strong>1棵</strong> 敌国树木。</p> <p>树木的照片如下图所示。</p> <p></p> <img src='stimuli/trees/14.png', style='max-width: 30%;'> </img> <p><strong>你是否选择发射武器？</strong></p>","0",""
"","","","","","html-keyboard-response","50","236481","0.0-4.0-0.23","55","1","2022-10-09 10:55:04","ebf9627b049f568eb4bf28942cb89901","183.95.251.253","Mozilla/5.0 (Windows NT 10.0; Win64; x64) AppleWebKit/537.36 (KHTML, like Gecko) Chrome/105.0.0.0 Safari/537.36 Edg/105.0.1343.53","WebKit","Edge","105.0.1343.53","Windows","10.0","null","<div style=""font-size:60px;"">+</div>","null",""
"","","","","","html-button-response","51","251382","0.0-4.0-1.23","55","1","2022-10-09 10:55:04","ebf9627b049f568eb4bf28942cb89901","183.95.251.253","Mozilla/5.0 (Windows NT 10.0; Win64; x64) AppleWebKit/537.36 (KHTML, like Gecko) Chrome/105.0.0.0 Safari/537.36 Edg/105.0.1343.53","WebKit","Edge","105.0.1343.53","Windows","10.0","14897","<p>作为军队的指挥官，你可以选择发射导弹杀死 <strong>4名</strong> 敌国士兵，但会误杀附近的 <strong>1名</strong> 敌国平民。</p> <p>平民照片如下图所示。</p> <p></p> <img src='stimuli/faces/NFM5.jpg', style='max-width: 30%;'> </img> <p><strong>你是否选择发射武器？</strong></p>","0",""
"","","","","","html-keyboard-response","52","252388","0.0-4.0-0.24","55","1","2022-10-09 10:55:04","ebf9627b049f568eb4bf28942cb89901","183.95.251.253","Mozilla/5.0 (Windows NT 10.0; Win64; x64) AppleWebKit/537.36 (KHTML, like Gecko) Chrome/105.0.0.0 Safari/537.36 Edg/105.0.1343.53","WebKit","Edge","105.0.1343.53","Windows","10.0","null","<div style=""font-size:60px;"">+</div>","null",""
"","","","","","html-button-response","53","255246","0.0-4.0-1.24","55","1","2022-10-09 10:55:04","ebf9627b049f568eb4bf28942cb89901","183.95.251.253","Mozilla/5.0 (Windows NT 10.0; Win64; x64) AppleWebKit/537.36 (KHTML, like Gecko) Chrome/105.0.0.0 Safari/537.36 Edg/105.0.1343.53","WebKit","Edge","105.0.1343.53","Windows","10.0","2851","<p>作为军队的指挥官，你可以选择发射导弹杀死 <strong>5名</strong> 敌国士兵，但会炸毁附近的 <strong>1棵</strong> 敌国树木。</p> <p>树木的照片如下图所示。</p> <p></p> <img src='stimuli/trees/4.png', style='max-width: 30%;'> </img> <p><strong>你是否选择发射武器？</strong></p>","0",""
"","","","","","html-keyboard-response","54","256249","0.0-4.0-0.25","55","1","2022-10-09 10:55:04","ebf9627b049f568eb4bf28942cb89901","183.95.251.253","Mozilla/5.0 (Windows NT 10.0; Win64; x64) AppleWebKit/537.36 (KHTML, like Gecko) Chrome/105.0.0.0 Safari/537.36 Edg/105.0.1343.53","WebKit","Edge","105.0.1343.53","Windows","10.0","null","<div style=""font-size:60px;"">+</div>","null",""
"","","","","","html-button-response","55","260084","0.0-4.0-1.25","55","1","2022-10-09 10:55:04","ebf9627b049f568eb4bf28942cb89901","183.95.251.253","Mozilla/5.0 (Windows NT 10.0; Win64; x64) AppleWebKit/537.36 (KHTML, like Gecko) Chrome/105.0.0.0 Safari/537.36 Edg/105.0.1343.53","WebKit","Edge","105.0.1343.53","Windows","10.0","3831","<p>作为军队的指挥官，你可以选择发射导弹杀死 <strong>1名</strong> 敌国士兵，但会误杀附近的 <strong>1名</strong> 敌国平民。</p> <p>平民照片如下图所示。</p> <p></p> <img src='stimuli/faces/NFM3.jpg', style='max-width: 30%;'> </img> <p><strong>你是否选择发射武器？</strong></p>","1",""
"","","","","","html-keyboard-response","56","261087","0.0-4.0-0.26","55","1","2022-10-09 10:55:04","ebf9627b049f568eb4bf28942cb89901","183.95.251.253","Mozilla/5.0 (Windows NT 10.0; Win64; x64) AppleWebKit/537.36 (KHTML, like Gecko) Chrome/105.0.0.0 Safari/537.36 Edg/105.0.1343.53","WebKit","Edge","105.0.1343.53","Windows","10.0","null","<div style=""font-size:60px;"">+</div>","null",""
"","","","","","html-button-response","57","264739","0.0-4.0-1.26","55","1","2022-10-09 10:55:04","ebf9627b049f568eb4bf28942cb89901","183.95.251.253","Mozilla/5.0 (Windows NT 10.0; Win64; x64) AppleWebKit/537.36 (KHTML, like Gecko) Chrome/105.0.0.0 Safari/537.36 Edg/105.0.1343.53","WebKit","Edge","105.0.1343.53","Windows","10.0","3651","<p>作为军队的指挥官，你可以选择发射导弹杀死 <strong>10名</strong> 敌国士兵，但会误杀附近的 <strong>1名</strong> 敌国平民。</p> <p>平民照片如下图所示。</p> <p></p> <img src='stimuli/faces/NFF5.jpg', style='max-width: 30%;'> </img> <p><strong>你是否选择发射武器？</strong></p>","1",""
"","","","","","html-keyboard-response","58","265744","0.0-4.0-0.27","55","1","2022-10-09 10:55:04","ebf9627b049f568eb4bf28942cb89901","183.95.251.253","Mozilla/5.0 (Windows NT 10.0; Win64; x64) AppleWebKit/537.36 (KHTML, like Gecko) Chrome/105.0.0.0 Safari/537.36 Edg/105.0.1343.53","WebKit","Edge","105.0.1343.53","Windows","10.0","null","<div style=""font-size:60px;"">+</div>","null",""
"","","","","","html-button-response","59","271400","0.0-4.0-1.27","55","1","2022-10-09 10:55:04","ebf9627b049f568eb4bf28942cb89901","183.95.251.253","Mozilla/5.0 (Windows NT 10.0; Win64; x64) AppleWebKit/537.36 (KHTML, like Gecko) Chrome/105.0.0.0 Safari/537.36 Edg/105.0.1343.53","WebKit","Edge","105.0.1343.53","Windows","10.0","5652","<p>作为军队的指挥官，你可以选择发射导弹杀死 <strong>10名</strong> 敌国士兵，但会误杀附近的 <strong>1名</strong> 敌国平民。</p> <p>平民照片如下图所示。</p> <p></p> <img src='stimuli/faces/NFF1.jpg', style='max-width: 30%;'> </img> <p><strong>你是否选择发射武器？</strong></p>","1",""
"","","","","","html-keyboard-response","60","272404","0.0-4.0-0.28","55","1","2022-10-09 10:55:04","ebf9627b049f568eb4bf28942cb89901","183.95.251.253","Mozilla/5.0 (Windows NT 10.0; Win64; x64) AppleWebKit/537.36 (KHTML, like Gecko) Chrome/105.0.0.0 Safari/537.36 Edg/105.0.1343.53","WebKit","Edge","105.0.1343.53","Windows","10.0","null","<div style=""font-size:60px;"">+</div>","null",""
"","","","","","html-button-response","61","275260","0.0-4.0-1.28","55","1","2022-10-09 10:55:04","ebf9627b049f568eb4bf28942cb89901","183.95.251.253","Mozilla/5.0 (Windows NT 10.0; Win64; x64) AppleWebKit/537.36 (KHTML, like Gecko) Chrome/105.0.0.0 Safari/537.36 Edg/105.0.1343.53","WebKit","Edge","105.0.1343.53","Windows","10.0","2849","<p>作为军队的指挥官，你可以选择发射导弹杀死 <strong>5名</strong> 敌国士兵，但会炸毁附近的 <strong>1棵</strong> 敌国树木。</p> <p>树木的照片如下图所示。</p> <p></p> <img src='stimuli/trees/12.png', style='max-width: 30%;'> </img> <p><strong>你是否选择发射武器？</strong></p>","0",""
"","","","","","html-keyboard-response","62","276266","0.0-4.0-0.29","55","1","2022-10-09 10:55:04","ebf9627b049f568eb4bf28942cb89901","183.95.251.253","Mozilla/5.0 (Windows NT 10.0; Win64; x64) AppleWebKit/537.36 (KHTML, like Gecko) Chrome/105.0.0.0 Safari/537.36 Edg/105.0.1343.53","WebKit","Edge","105.0.1343.53","Windows","10.0","null","<div style=""font-size:60px;"">+</div>","null",""
"","","","","","html-button-response","63","282714","0.0-4.0-1.29","55","1","2022-10-09 10:55:04","ebf9627b049f568eb4bf28942cb89901","183.95.251.253","Mozilla/5.0 (Windows NT 10.0; Win64; x64) AppleWebKit/537.36 (KHTML, like Gecko) Chrome/105.0.0.0 Safari/537.36 Edg/105.0.1343.53","WebKit","Edge","105.0.1343.53","Windows","10.0","6445","<p>作为军队的指挥官，你可以选择发射导弹杀死 <strong>6名</strong> 敌国士兵，但会炸毁附近的 <strong>1棵</strong> 敌国树木。</p> <p>树木的照片如下图所示。</p> <p></p> <img src='stimuli/trees/13.png', style='max-width: 30%;'> </img> <p><strong>你是否选择发射武器？</strong></p>","0",""
"","","","","","html-keyboard-response","64","283718","0.0-4.0-0.30","55","1","2022-10-09 10:55:04","ebf9627b049f568eb4bf28942cb89901","183.95.251.253","Mozilla/5.0 (Windows NT 10.0; Win64; x64) AppleWebKit/537.36 (KHTML, like Gecko) Chrome/105.0.0.0 Safari/537.36 Edg/105.0.1343.53","WebKit","Edge","105.0.1343.53","Windows","10.0","null","<div style=""font-size:60px;"">+</div>","null",""
"","","","","","html-button-response","65","290447","0.0-4.0-1.30","55","1","2022-10-09 10:55:04","ebf9627b049f568eb4bf28942cb89901","183.95.251.253","Mozilla/5.0 (Windows NT 10.0; Win64; x64) AppleWebKit/537.36 (KHTML, like Gecko) Chrome/105.0.0.0 Safari/537.36 Edg/105.0.1343.53","WebKit","Edge","105.0.1343.53","Windows","10.0","6726","<p>作为军队的指挥官，你可以选择发射导弹杀死 <strong>4名</strong> 敌国士兵，但会炸毁附近的 <strong>1棵</strong> 敌国树木。</p> <p>树木的照片如下图所示。</p> <p></p> <img src='stimuli/trees/9.png', style='max-width: 30%;'> </img> <p><strong>你是否选择发射武器？</strong></p>","0",""
"","","","","","html-keyboard-response","66","291451","0.0-4.0-0.31","55","1","2022-10-09 10:55:04","ebf9627b049f568eb4bf28942cb89901","183.95.251.253","Mozilla/5.0 (Windows NT 10.0; Win64; x64) AppleWebKit/537.36 (KHTML, like Gecko) Chrome/105.0.0.0 Safari/537.36 Edg/105.0.1343.53","WebKit","Edge","105.0.1343.53","Windows","10.0","null","<div style=""font-size:60px;"">+</div>","null",""
"","","","","","html-button-response","67","295416","0.0-4.0-1.31","55","1","2022-10-09 10:55:04","ebf9627b049f568eb4bf28942cb89901","183.95.251.253","Mozilla/5.0 (Windows NT 10.0; Win64; x64) AppleWebKit/537.36 (KHTML, like Gecko) Chrome/105.0.0.0 Safari/537.36 Edg/105.0.1343.53","WebKit","Edge","105.0.1343.53","Windows","10.0","3958","<p>作为军队的指挥官，你可以选择发射导弹杀死 <strong>4名</strong> 敌国士兵，但会误杀附近的 <strong>1名</strong> 敌国平民。</p> <p>平民照片如下图所示。</p> <p></p> <img src='stimuli/faces/NFM7.jpg', style='max-width: 30%;'> </img> <p><strong>你是否选择发射武器？</strong></p>","0",""
"","","","","","html-keyboard-response","68","296419","0.0-4.0-0.32","55","1","2022-10-09 10:55:04","ebf9627b049f568eb4bf28942cb89901","183.95.251.253","Mozilla/5.0 (Windows NT 10.0; Win64; x64) AppleWebKit/537.36 (KHTML, like Gecko) Chrome/105.0.0.0 Safari/537.36 Edg/105.0.1343.53","WebKit","Edge","105.0.1343.53","Windows","10.0","null","<div style=""font-size:60px;"">+</div>","null",""
"","","","","","html-button-response","69","300503","0.0-4.0-1.32","55","1","2022-10-09 10:55:04","ebf9627b049f568eb4bf28942cb89901","183.95.251.253","Mozilla/5.0 (Windows NT 10.0; Win64; x64) AppleWebKit/537.36 (KHTML, like Gecko) Chrome/105.0.0.0 Safari/537.36 Edg/105.0.1343.53","WebKit","Edge","105.0.1343.53","Windows","10.0","4077","<p>作为军队的指挥官，你可以选择发射导弹杀死 <strong>1名</strong> 敌国士兵，但会炸毁附近的 <strong>1棵</strong> 敌国树木。</p> <p>树木的照片如下图所示。</p> <p></p> <img src='stimuli/trees/11.png', style='max-width: 30%;'> </img> <p><strong>你是否选择发射武器？</strong></p>","0",""
"","","","","","html-keyboard-response","70","301508","0.0-4.0-0.33","55","1","2022-10-09 10:55:04","ebf9627b049f568eb4bf28942cb89901","183.95.251.253","Mozilla/5.0 (Windows NT 10.0; Win64; x64) AppleWebKit/537.36 (KHTML, like Gecko) Chrome/105.0.0.0 Safari/537.36 Edg/105.0.1343.53","WebKit","Edge","105.0.1343.53","Windows","10.0","null","<div style=""font-size:60px;"">+</div>","null",""
"","","","","","html-button-response","71","308288","0.0-4.0-1.33","55","1","2022-10-09 10:55:04","ebf9627b049f568eb4bf28942cb89901","183.95.251.253","Mozilla/5.0 (Windows NT 10.0; Win64; x64) AppleWebKit/537.36 (KHTML, like Gecko) Chrome/105.0.0.0 Safari/537.36 Edg/105.0.1343.53","WebKit","Edge","105.0.1343.53","Windows","10.0","6776","<p>作为军队的指挥官，你可以选择发射导弹杀死 <strong>6名</strong> 敌国士兵，但会炸毁附近的 <strong>1棵</strong> 敌国树木。</p> <p>树木的照片如下图所示。</p> <p></p> <img src='stimuli/trees/16.png', style='max-width: 30%;'> </img> <p><strong>你是否选择发射武器？</strong></p>","0",""
"","","","","","html-keyboard-response","72","309290","0.0-4.0-0.34","55","1","2022-10-09 10:55:04","ebf9627b049f568eb4bf28942cb89901","183.95.251.253","Mozilla/5.0 (Windows NT 10.0; Win64; x64) AppleWebKit/537.36 (KHTML, like Gecko) Chrome/105.0.0.0 Safari/537.36 Edg/105.0.1343.53","WebKit","Edge","105.0.1343.53","Windows","10.0","null","<div style=""font-size:60px;"">+</div>","null",""
"","","","","","html-button-response","73","313464","0.0-4.0-1.34","55","1","2022-10-09 10:55:04","ebf9627b049f568eb4bf28942cb89901","183.95.251.253","Mozilla/5.0 (Windows NT 10.0; Win64; x64) AppleWebKit/537.36 (KHTML, like Gecko) Chrome/105.0.0.0 Safari/537.36 Edg/105.0.1343.53","WebKit","Edge","105.0.1343.53","Windows","10.0","4170","<p>作为军队的指挥官，你可以选择发射导弹杀死 <strong>7名</strong> 敌国士兵，但会误杀附近的 <strong>1名</strong> 敌国平民。</p> <p>平民照片如下图所示。</p> <p></p> <img src='stimuli/faces/NFM8.jpg', style='max-width: 30%;'> </img> <p><strong>你是否选择发射武器？</strong></p>","0",""
"","","","","","html-keyboard-response","74","314468","0.0-4.0-0.35","55","1","2022-10-09 10:55:04","ebf9627b049f568eb4bf28942cb89901","183.95.251.253","Mozilla/5.0 (Windows NT 10.0; Win64; x64) AppleWebKit/537.36 (KHTML, like Gecko) Chrome/105.0.0.0 Safari/537.36 Edg/105.0.1343.53","WebKit","Edge","105.0.1343.53","Windows","10.0","null","<div style=""font-size:60px;"">+</div>","null",""
"","","","","","html-button-response","75","318712","0.0-4.0-1.35","55","1","2022-10-09 10:55:04","ebf9627b049f568eb4bf28942cb89901","183.95.251.253","Mozilla/5.0 (Windows NT 10.0; Win64; x64) AppleWebKit/537.36 (KHTML, like Gecko) Chrome/105.0.0.0 Safari/537.36 Edg/105.0.1343.53","WebKit","Edge","105.0.1343.53","Windows","10.0","4240","<p>作为军队的指挥官，你可以选择发射导弹杀死 <strong>6名</strong> 敌国士兵，但会误杀附近的 <strong>1名</strong> 敌国平民。</p> <p>平民照片如下图所示。</p> <p></p> <img src='stimuli/faces/NFM6.jpg', style='max-width: 30%;'> </img> <p><strong>你是否选择发射武器？</strong></p>","1",""
"","","","","","html-keyboard-response","76","319716","0.0-4.0-0.36","55","1","2022-10-09 10:55:04","ebf9627b049f568eb4bf28942cb89901","183.95.251.253","Mozilla/5.0 (Windows NT 10.0; Win64; x64) AppleWebKit/537.36 (KHTML, like Gecko) Chrome/105.0.0.0 Safari/537.36 Edg/105.0.1343.53","WebKit","Edge","105.0.1343.53","Windows","10.0","null","<div style=""font-size:60px;"">+</div>","null",""
"","","","","","html-button-response","77","326175","0.0-4.0-1.36","55","1","2022-10-09 10:55:04","ebf9627b049f568eb4bf28942cb89901","183.95.251.253","Mozilla/5.0 (Windows NT 10.0; Win64; x64) AppleWebKit/537.36 (KHTML, like Gecko) Chrome/105.0.0.0 Safari/537.36 Edg/105.0.1343.53","WebKit","Edge","105.0.1343.53","Windows","10.0","6451","<p>作为军队的指挥官，你可以选择发射导弹杀死 <strong>10名</strong> 敌国士兵，但会误杀附近的 <strong>1名</strong> 敌国平民。</p> <p>平民照片如下图所示。</p> <p></p> <img src='stimuli/faces/NFF7.jpg', style='max-width: 30%;'> </img> <p><strong>你是否选择发射武器？</strong></p>","1",""
"","","","","","html-keyboard-response","78","327179","0.0-4.0-0.37","55","1","2022-10-09 10:55:04","ebf9627b049f568eb4bf28942cb89901","183.95.251.253","Mozilla/5.0 (Windows NT 10.0; Win64; x64) AppleWebKit/537.36 (KHTML, like Gecko) Chrome/105.0.0.0 Safari/537.36 Edg/105.0.1343.53","WebKit","Edge","105.0.1343.53","Windows","10.0","null","<div style=""font-size:60px;"">+</div>","null",""
"","","","","","html-button-response","79","334576","0.0-4.0-1.37","55","1","2022-10-09 10:55:04","ebf9627b049f568eb4bf28942cb89901","183.95.251.253","Mozilla/5.0 (Windows NT 10.0; Win64; x64) AppleWebKit/537.36 (KHTML, like Gecko) Chrome/105.0.0.0 Safari/537.36 Edg/105.0.1343.53","WebKit","Edge","105.0.1343.53","Windows","10.0","7389","<p>作为军队的指挥官，你可以选择发射导弹杀死 <strong>6名</strong> 敌国士兵，但会炸毁附近的 <strong>1棵</strong> 敌国树木。</p> <p>树木的照片如下图所示。</p> <p></p> <img src='stimuli/trees/1.png', style='max-width: 30%;'> </img> <p><strong>你是否选择发射武器？</strong></p>","0",""
"","","","","","html-keyboard-response","80","335580","0.0-4.0-0.38","55","1","2022-10-09 10:55:04","ebf9627b049f568eb4bf28942cb89901","183.95.251.253","Mozilla/5.0 (Windows NT 10.0; Win64; x64) AppleWebKit/537.36 (KHTML, like Gecko) Chrome/105.0.0.0 Safari/537.36 Edg/105.0.1343.53","WebKit","Edge","105.0.1343.53","Windows","10.0","null","<div style=""font-size:60px;"">+</div>","null",""
"","","","","","html-button-response","81","341120","0.0-4.0-1.38","55","1","2022-10-09 10:55:04","ebf9627b049f568eb4bf28942cb89901","183.95.251.253","Mozilla/5.0 (Windows NT 10.0; Win64; x64) AppleWebKit/537.36 (KHTML, like Gecko) Chrome/105.0.0.0 Safari/537.36 Edg/105.0.1343.53","WebKit","Edge","105.0.1343.53","Windows","10.0","5531","<p>作为军队的指挥官，你可以选择发射导弹杀死 <strong>3名</strong> 敌国士兵，但会误杀附近的 <strong>1名</strong> 敌国平民。</p> <p>平民照片如下图所示。</p> <p></p> <img src='stimuli/faces/NFF4.jpg', style='max-width: 30%;'> </img> <p><strong>你是否选择发射武器？</strong></p>","1",""
"","","","","","html-keyboard-response","82","342124","0.0-4.0-0.39","55","1","2022-10-09 10:55:04","ebf9627b049f568eb4bf28942cb89901","183.95.251.253","Mozilla/5.0 (Windows NT 10.0; Win64; x64) AppleWebKit/537.36 (KHTML, like Gecko) Chrome/105.0.0.0 Safari/537.36 Edg/105.0.1343.53","WebKit","Edge","105.0.1343.53","Windows","10.0","null","<div style=""font-size:60px;"">+</div>","null",""
"","","","","","html-button-response","83","346784","0.0-4.0-1.39","55","1","2022-10-09 10:55:04","ebf9627b049f568eb4bf28942cb89901","183.95.251.253","Mozilla/5.0 (Windows NT 10.0; Win64; x64) AppleWebKit/537.36 (KHTML, like Gecko) Chrome/105.0.0.0 Safari/537.36 Edg/105.0.1343.53","WebKit","Edge","105.0.1343.53","Windows","10.0","4655","<p>作为军队的指挥官，你可以选择发射导弹杀死 <strong>7名</strong> 敌国士兵，但会误杀附近的 <strong>1名</strong> 敌国平民。</p> <p>平民照片如下图所示。</p> <p></p> <img src='stimuli/faces/NFF8.jpg', style='max-width: 30%;'> </img> <p><strong>你是否选择发射武器？</strong></p>","1",""
"","","","","","html-keyboard-response","84","347788","0.0-4.0-0.40","55","1","2022-10-09 10:55:04","ebf9627b049f568eb4bf28942cb89901","183.95.251.253","Mozilla/5.0 (Windows NT 10.0; Win64; x64) AppleWebKit/537.36 (KHTML, like Gecko) Chrome/105.0.0.0 Safari/537.36 Edg/105.0.1343.53","WebKit","Edge","105.0.1343.53","Windows","10.0","null","<div style=""font-size:60px;"">+</div>","null",""
"","","","","","html-button-response","85","350791","0.0-4.0-1.40","55","1","2022-10-09 10:55:04","ebf9627b049f568eb4bf28942cb89901","183.95.251.253","Mozilla/5.0 (Windows NT 10.0; Win64; x64) AppleWebKit/537.36 (KHTML, like Gecko) Chrome/105.0.0.0 Safari/537.36 Edg/105.0.1343.53","WebKit","Edge","105.0.1343.53","Windows","10.0","2995","<p>作为军队的指挥官，你可以选择发射导弹杀死 <strong>1名</strong> 敌国士兵，但会炸毁附近的 <strong>1棵</strong> 敌国树木。</p> <p>树木的照片如下图所示。</p> <p></p> <img src='stimuli/trees/16.png', style='max-width: 30%;'> </img> <p><strong>你是否选择发射武器？</strong></p>","0",""
"","","","","","html-keyboard-response","86","351795","0.0-4.0-0.41","55","1","2022-10-09 10:55:04","ebf9627b049f568eb4bf28942cb89901","183.95.251.253","Mozilla/5.0 (Windows NT 10.0; Win64; x64) AppleWebKit/537.36 (KHTML, like Gecko) Chrome/105.0.0.0 Safari/537.36 Edg/105.0.1343.53","WebKit","Edge","105.0.1343.53","Windows","10.0","null","<div style=""font-size:60px;"">+</div>","null",""
"","","","","","html-button-response","87","355695","0.0-4.0-1.41","55","1","2022-10-09 10:55:04","ebf9627b049f568eb4bf28942cb89901","183.95.251.253","Mozilla/5.0 (Windows NT 10.0; Win64; x64) AppleWebKit/537.36 (KHTML, like Gecko) Chrome/105.0.0.0 Safari/537.36 Edg/105.0.1343.53","WebKit","Edge","105.0.1343.53","Windows","10.0","3890","<p>作为军队的指挥官，你可以选择发射导弹杀死 <strong>4名</strong> 敌国士兵，但会炸毁附近的 <strong>1棵</strong> 敌国树木。</p> <p>树木的照片如下图所示。</p> <p></p> <img src='stimuli/trees/2.png', style='max-width: 30%;'> </img> <p><strong>你是否选择发射武器？</strong></p>","0",""
"","","","","","html-keyboard-response","88","356700","0.0-4.0-0.42","55","1","2022-10-09 10:55:04","ebf9627b049f568eb4bf28942cb89901","183.95.251.253","Mozilla/5.0 (Windows NT 10.0; Win64; x64) AppleWebKit/537.36 (KHTML, like Gecko) Chrome/105.0.0.0 Safari/537.36 Edg/105.0.1343.53","WebKit","Edge","105.0.1343.53","Windows","10.0","null","<div style=""font-size:60px;"">+</div>","null",""
"","","","","","html-button-response","89","365088","0.0-4.0-1.42","55","1","2022-10-09 10:55:04","ebf9627b049f568eb4bf28942cb89901","183.95.251.253","Mozilla/5.0 (Windows NT 10.0; Win64; x64) AppleWebKit/537.36 (KHTML, like Gecko) Chrome/105.0.0.0 Safari/537.36 Edg/105.0.1343.53","WebKit","Edge","105.0.1343.53","Windows","10.0","8379","<p>作为军队的指挥官，你可以选择发射导弹杀死 <strong>9名</strong> 敌国士兵，但会误杀附近的 <strong>1名</strong> 敌国平民。</p> <p>平民照片如下图所示。</p> <p></p> <img src='stimuli/faces/NFM5.jpg', style='max-width: 30%;'> </img> <p><strong>你是否选择发射武器？</strong></p>","1",""
"","","","","","html-keyboard-response","90","366092","0.0-4.0-0.43","55","1","2022-10-09 10:55:04","ebf9627b049f568eb4bf28942cb89901","183.95.251.253","Mozilla/5.0 (Windows NT 10.0; Win64; x64) AppleWebKit/537.36 (KHTML, like Gecko) Chrome/105.0.0.0 Safari/537.36 Edg/105.0.1343.53","WebKit","Edge","105.0.1343.53","Windows","10.0","null","<div style=""font-size:60px;"">+</div>","null",""
"","","","","","html-button-response","91","370144","0.0-4.0-1.43","55","1","2022-10-09 10:55:04","ebf9627b049f568eb4bf28942cb89901","183.95.251.253","Mozilla/5.0 (Windows NT 10.0; Win64; x64) AppleWebKit/537.36 (KHTML, like Gecko) Chrome/105.0.0.0 Safari/537.36 Edg/105.0.1343.53","WebKit","Edge","105.0.1343.53","Windows","10.0","4043","<p>作为军队的指挥官，你可以选择发射导弹杀死 <strong>5名</strong> 敌国士兵，但会炸毁附近的 <strong>1棵</strong> 敌国树木。</p> <p>树木的照片如下图所示。</p> <p></p> <img src='stimuli/trees/5.png', style='max-width: 30%;'> </img> <p><strong>你是否选择发射武器？</strong></p>","0",""
"","","","","","html-keyboard-response","92","371148","0.0-4.0-0.44","55","1","2022-10-09 10:55:04","ebf9627b049f568eb4bf28942cb89901","183.95.251.253","Mozilla/5.0 (Windows NT 10.0; Win64; x64) AppleWebKit/537.36 (KHTML, like Gecko) Chrome/105.0.0.0 Safari/537.36 Edg/105.0.1343.53","WebKit","Edge","105.0.1343.53","Windows","10.0","null","<div style=""font-size:60px;"">+</div>","null",""
"","","","","","html-button-response","93","385919","0.0-4.0-1.44","55","1","2022-10-09 10:55:04","ebf9627b049f568eb4bf28942cb89901","183.95.251.253","Mozilla/5.0 (Windows NT 10.0; Win64; x64) AppleWebKit/537.36 (KHTML, like Gecko) Chrome/105.0.0.0 Safari/537.36 Edg/105.0.1343.53","WebKit","Edge","105.0.1343.53","Windows","10.0","14766","<p>作为军队的指挥官，你可以选择发射导弹杀死 <strong>9名</strong> 敌国士兵，但会炸毁附近的 <strong>1棵</strong> 敌国树木。</p> <p>树木的照片如下图所示。</p> <p></p> <img src='stimuli/trees/10.png', style='max-width: 30%;'> </img> <p><strong>你是否选择发射武器？</strong></p>","0",""
"","","","","","html-keyboard-response","94","386924","0.0-4.0-0.45","55","1","2022-10-09 10:55:04","ebf9627b049f568eb4bf28942cb89901","183.95.251.253","Mozilla/5.0 (Windows NT 10.0; Win64; x64) AppleWebKit/537.36 (KHTML, like Gecko) Chrome/105.0.0.0 Safari/537.36 Edg/105.0.1343.53","WebKit","Edge","105.0.1343.53","Windows","10.0","null","<div style=""font-size:60px;"">+</div>","null",""
"","","","","","html-button-response","95","402288","0.0-4.0-1.45","55","1","2022-10-09 10:55:04","ebf9627b049f568eb4bf28942cb89901","183.95.251.253","Mozilla/5.0 (Windows NT 10.0; Win64; x64) AppleWebKit/537.36 (KHTML, like Gecko) Chrome/105.0.0.0 Safari/537.36 Edg/105.0.1343.53","WebKit","Edge","105.0.1343.53","Windows","10.0","15355","<p>作为军队的指挥官，你可以选择发射导弹杀死 <strong>4名</strong> 敌国士兵，但会炸毁附近的 <strong>1棵</strong> 敌国树木。</p> <p>树木的照片如下图所示。</p> <p></p> <img src='stimuli/trees/7.png', style='max-width: 30%;'> </img> <p><strong>你是否选择发射武器？</strong></p>","0",""
"","","","","","html-keyboard-response","96","403292","0.0-4.0-0.46","55","1","2022-10-09 10:55:04","ebf9627b049f568eb4bf28942cb89901","183.95.251.253","Mozilla/5.0 (Windows NT 10.0; Win64; x64) AppleWebKit/537.36 (KHTML, like Gecko) Chrome/105.0.0.0 Safari/537.36 Edg/105.0.1343.53","WebKit","Edge","105.0.1343.53","Windows","10.0","null","<div style=""font-size:60px;"">+</div>","null",""
"","","","","","html-button-response","97","407615","0.0-4.0-1.46","55","1","2022-10-09 10:55:04","ebf9627b049f568eb4bf28942cb89901","183.95.251.253","Mozilla/5.0 (Windows NT 10.0; Win64; x64) AppleWebKit/537.36 (KHTML, like Gecko) Chrome/105.0.0.0 Safari/537.36 Edg/105.0.1343.53","WebKit","Edge","105.0.1343.53","Windows","10.0","4319","<p>作为军队的指挥官，你可以选择发射导弹杀死 <strong>9名</strong> 敌国士兵，但会炸毁附近的 <strong>1棵</strong> 敌国树木。</p> <p>树木的照片如下图所示。</p> <p></p> <img src='stimuli/trees/3.png', style='max-width: 30%;'> </img> <p><strong>你是否选择发射武器？</strong></p>","0",""
"","","","","","html-keyboard-response","98","408620","0.0-4.0-0.47","55","1","2022-10-09 10:55:04","ebf9627b049f568eb4bf28942cb89901","183.95.251.253","Mozilla/5.0 (Windows NT 10.0; Win64; x64) AppleWebKit/537.36 (KHTML, like Gecko) Chrome/105.0.0.0 Safari/537.36 Edg/105.0.1343.53","WebKit","Edge","105.0.1343.53","Windows","10.0","null","<div style=""font-size:60px;"">+</div>","null",""
"","","","","","html-button-response","99","410801","0.0-4.0-1.47","55","1","2022-10-09 10:55:04","ebf9627b049f568eb4bf28942cb89901","183.95.251.253","Mozilla/5.0 (Windows NT 10.0; Win64; x64) AppleWebKit/537.36 (KHTML, like Gecko) Chrome/105.0.0.0 Safari/537.36 Edg/105.0.1343.53","WebKit","Edge","105.0.1343.53","Windows","10.0","2174","<p>作为军队的指挥官，你可以选择发射导弹杀死 <strong>9名</strong> 敌国士兵，但会炸毁附近的 <strong>1棵</strong> 敌国树木。</p> <p>树木的照片如下图所示。</p> <p></p> <img src='stimuli/trees/7.png', style='max-width: 30%;'> </img> <p><strong>你是否选择发射武器？</strong></p>","0",""
"","","","","","html-keyboard-response","100","411811","0.0-4.0-0.48","55","1","2022-10-09 10:55:04","ebf9627b049f568eb4bf28942cb89901","183.95.251.253","Mozilla/5.0 (Windows NT 10.0; Win64; x64) AppleWebKit/537.36 (KHTML, like Gecko) Chrome/105.0.0.0 Safari/537.36 Edg/105.0.1343.53","WebKit","Edge","105.0.1343.53","Windows","10.0","null","<div style=""font-size:60px;"">+</div>","null",""
"","","","","","html-button-response","101","414298","0.0-4.0-1.48","55","1","2022-10-09 10:55:04","ebf9627b049f568eb4bf28942cb89901","183.95.251.253","Mozilla/5.0 (Windows NT 10.0; Win64; x64) AppleWebKit/537.36 (KHTML, like Gecko) Chrome/105.0.0.0 Safari/537.36 Edg/105.0.1343.53","WebKit","Edge","105.0.1343.53","Windows","10.0","2479","<p>作为军队的指挥官，你可以选择发射导弹杀死 <strong>1名</strong> 敌国士兵，但会炸毁附近的 <strong>1棵</strong> 敌国树木。</p> <p>树木的照片如下图所示。</p> <p></p> <img src='stimuli/trees/14.png', style='max-width: 30%;'> </img> <p><strong>你是否选择发射武器？</strong></p>","0",""
"","","","","","html-keyboard-response","102","415302","0.0-4.0-0.49","55","1","2022-10-09 10:55:04","ebf9627b049f568eb4bf28942cb89901","183.95.251.253","Mozilla/5.0 (Windows NT 10.0; Win64; x64) AppleWebKit/537.36 (KHTML, like Gecko) Chrome/105.0.0.0 Safari/537.36 Edg/105.0.1343.53","WebKit","Edge","105.0.1343.53","Windows","10.0","null","<div style=""font-size:60px;"">+</div>","null",""
"","","","","","html-button-response","103","422132","0.0-4.0-1.49","55","1","2022-10-09 10:55:04","ebf9627b049f568eb4bf28942cb89901","183.95.251.253","Mozilla/5.0 (Windows NT 10.0; Win64; x64) AppleWebKit/537.36 (KHTML, like Gecko) Chrome/105.0.0.0 Safari/537.36 Edg/105.0.1343.53","WebKit","Edge","105.0.1343.53","Windows","10.0","6824","<p>作为军队的指挥官，你可以选择发射导弹杀死 <strong>8名</strong> 敌国士兵，但会炸毁附近的 <strong>1棵</strong> 敌国树木。</p> <p>树木的照片如下图所示。</p> <p></p> <img src='stimuli/trees/11.png', style='max-width: 30%;'> </img> <p><strong>你是否选择发射武器？</strong></p>","0",""
"","","","","","html-keyboard-response","104","423137","0.0-4.0-0.50","55","1","2022-10-09 10:55:04","ebf9627b049f568eb4bf28942cb89901","183.95.251.253","Mozilla/5.0 (Windows NT 10.0; Win64; x64) AppleWebKit/537.36 (KHTML, like Gecko) Chrome/105.0.0.0 Safari/537.36 Edg/105.0.1343.53","WebKit","Edge","105.0.1343.53","Windows","10.0","null","<div style=""font-size:60px;"">+</div>","null",""
"","","","","","html-button-response","105","428085","0.0-4.0-1.50","55","1","2022-10-09 10:55:04","ebf9627b049f568eb4bf28942cb89901","183.95.251.253","Mozilla/5.0 (Windows NT 10.0; Win64; x64) AppleWebKit/537.36 (KHTML, like Gecko) Chrome/105.0.0.0 Safari/537.36 Edg/105.0.1343.53","WebKit","Edge","105.0.1343.53","Windows","10.0","4938","<p>作为军队的指挥官，你可以选择发射导弹杀死 <strong>4名</strong> 敌国士兵，但会误杀附近的 <strong>1名</strong> 敌国平民。</p> <p>平民照片如下图所示。</p> <p></p> <img src='stimuli/faces/NFF6.jpg', style='max-width: 30%;'> </img> <p><strong>你是否选择发射武器？</strong></p>","1",""
"","","","","","html-keyboard-response","106","429094","0.0-4.0-0.51","55","1","2022-10-09 10:55:04","ebf9627b049f568eb4bf28942cb89901","183.95.251.253","Mozilla/5.0 (Windows NT 10.0; Win64; x64) AppleWebKit/537.36 (KHTML, like Gecko) Chrome/105.0.0.0 Safari/537.36 Edg/105.0.1343.53","WebKit","Edge","105.0.1343.53","Windows","10.0","null","<div style=""font-size:60px;"">+</div>","null",""
"","","","","","html-button-response","107","431822","0.0-4.0-1.51","55","1","2022-10-09 10:55:04","ebf9627b049f568eb4bf28942cb89901","183.95.251.253","Mozilla/5.0 (Windows NT 10.0; Win64; x64) AppleWebKit/537.36 (KHTML, like Gecko) Chrome/105.0.0.0 Safari/537.36 Edg/105.0.1343.53","WebKit","Edge","105.0.1343.53","Windows","10.0","2718","<p>作为军队的指挥官，你可以选择发射导弹杀死 <strong>6名</strong> 敌国士兵，但会炸毁附近的 <strong>1棵</strong> 敌国树木。</p> <p>树木的照片如下图所示。</p> <p></p> <img src='stimuli/trees/8.png', style='max-width: 30%;'> </img> <p><strong>你是否选择发射武器？</strong></p>","0",""
"","","","","","html-keyboard-response","108","432831","0.0-4.0-0.52","55","1","2022-10-09 10:55:04","ebf9627b049f568eb4bf28942cb89901","183.95.251.253","Mozilla/5.0 (Windows NT 10.0; Win64; x64) AppleWebKit/537.36 (KHTML, like Gecko) Chrome/105.0.0.0 Safari/537.36 Edg/105.0.1343.53","WebKit","Edge","105.0.1343.53","Windows","10.0","null","<div style=""font-size:60px;"">+</div>","null",""
"","","","","","html-button-response","109","436828","0.0-4.0-1.52","55","1","2022-10-09 10:55:04","ebf9627b049f568eb4bf28942cb89901","183.95.251.253","Mozilla/5.0 (Windows NT 10.0; Win64; x64) AppleWebKit/537.36 (KHTML, like Gecko) Chrome/105.0.0.0 Safari/537.36 Edg/105.0.1343.53","WebKit","Edge","105.0.1343.53","Windows","10.0","3994","<p>作为军队的指挥官，你可以选择发射导弹杀死 <strong>3名</strong> 敌国士兵，但会误杀附近的 <strong>1名</strong> 敌国平民。</p> <p>平民照片如下图所示。</p> <p></p> <img src='stimuli/faces/NFM4.jpg', style='max-width: 30%;'> </img> <p><strong>你是否选择发射武器？</strong></p>","0",""
"","","","","","html-keyboard-response","110","437831","0.0-4.0-0.53","55","1","2022-10-09 10:55:04","ebf9627b049f568eb4bf28942cb89901","183.95.251.253","Mozilla/5.0 (Windows NT 10.0; Win64; x64) AppleWebKit/537.36 (KHTML, like Gecko) Chrome/105.0.0.0 Safari/537.36 Edg/105.0.1343.53","WebKit","Edge","105.0.1343.53","Windows","10.0","null","<div style=""font-size:60px;"">+</div>","null",""
"","","","","","html-button-response","111","444423","0.0-4.0-1.53","55","1","2022-10-09 10:55:04","ebf9627b049f568eb4bf28942cb89901","183.95.251.253","Mozilla/5.0 (Windows NT 10.0; Win64; x64) AppleWebKit/537.36 (KHTML, like Gecko) Chrome/105.0.0.0 Safari/537.36 Edg/105.0.1343.53","WebKit","Edge","105.0.1343.53","Windows","10.0","6581","<p>作为军队的指挥官，你可以选择发射导弹杀死 <strong>10名</strong> 敌国士兵，但会误杀附近的 <strong>1名</strong> 敌国平民。</p> <p>平民照片如下图所示。</p> <p></p> <img src='stimuli/faces/NFM1.jpg', style='max-width: 30%;'> </img> <p><strong>你是否选择发射武器？</strong></p>","1",""
"","","","","","html-keyboard-response","112","445434","0.0-4.0-0.54","55","1","2022-10-09 10:55:04","ebf9627b049f568eb4bf28942cb89901","183.95.251.253","Mozilla/5.0 (Windows NT 10.0; Win64; x64) AppleWebKit/537.36 (KHTML, like Gecko) Chrome/105.0.0.0 Safari/537.36 Edg/105.0.1343.53","WebKit","Edge","105.0.1343.53","Windows","10.0","null","<div style=""font-size:60px;"">+</div>","null",""
"","","","","","html-button-response","113","447900","0.0-4.0-1.54","55","1","2022-10-09 10:55:04","ebf9627b049f568eb4bf28942cb89901","183.95.251.253","Mozilla/5.0 (Windows NT 10.0; Win64; x64) AppleWebKit/537.36 (KHTML, like Gecko) Chrome/105.0.0.0 Safari/537.36 Edg/105.0.1343.53","WebKit","Edge","105.0.1343.53","Windows","10.0","2456","<p>作为军队的指挥官，你可以选择发射导弹杀死 <strong>1名</strong> 敌国士兵，但会炸毁附近的 <strong>1棵</strong> 敌国树木。</p> <p>树木的照片如下图所示。</p> <p></p> <img src='stimuli/trees/6.png', style='max-width: 30%;'> </img> <p><strong>你是否选择发射武器？</strong></p>","0",""
"","","","","","html-keyboard-response","114","448909","0.0-4.0-0.55","55","1","2022-10-09 10:55:04","ebf9627b049f568eb4bf28942cb89901","183.95.251.253","Mozilla/5.0 (Windows NT 10.0; Win64; x64) AppleWebKit/537.36 (KHTML, like Gecko) Chrome/105.0.0.0 Safari/537.36 Edg/105.0.1343.53","WebKit","Edge","105.0.1343.53","Windows","10.0","null","<div style=""font-size:60px;"">+</div>","null",""
"","","","","","html-button-response","115","452026","0.0-4.0-1.55","55","1","2022-10-09 10:55:04","ebf9627b049f568eb4bf28942cb89901","183.95.251.253","Mozilla/5.0 (Windows NT 10.0; Win64; x64) AppleWebKit/537.36 (KHTML, like Gecko) Chrome/105.0.0.0 Safari/537.36 Edg/105.0.1343.53","WebKit","Edge","105.0.1343.53","Windows","10.0","3112","<p>作为军队的指挥官，你可以选择发射导弹杀死 <strong>8名</strong> 敌国士兵，但会误杀附近的 <strong>1名</strong> 敌国平民。</p> <p>平民照片如下图所示。</p> <p></p> <img src='stimuli/faces/NFF3.jpg', style='max-width: 30%;'> </img> <p><strong>你是否选择发射武器？</strong></p>","1",""
"","","","","","html-keyboard-response","116","453034","0.0-4.0-0.56","55","1","2022-10-09 10:55:04","ebf9627b049f568eb4bf28942cb89901","183.95.251.253","Mozilla/5.0 (Windows NT 10.0; Win64; x64) AppleWebKit/537.36 (KHTML, like Gecko) Chrome/105.0.0.0 Safari/537.36 Edg/105.0.1343.53","WebKit","Edge","105.0.1343.53","Windows","10.0","null","<div style=""font-size:60px;"">+</div>","null",""
"","","","","","html-button-response","117","462290","0.0-4.0-1.56","55","1","2022-10-09 10:55:04","ebf9627b049f568eb4bf28942cb89901","183.95.251.253","Mozilla/5.0 (Windows NT 10.0; Win64; x64) AppleWebKit/537.36 (KHTML, like Gecko) Chrome/105.0.0.0 Safari/537.36 Edg/105.0.1343.53","WebKit","Edge","105.0.1343.53","Windows","10.0","9246","<p>作为军队的指挥官，你可以选择发射导弹杀死 <strong>5名</strong> 敌国士兵，但会炸毁附近的 <strong>1棵</strong> 敌国树木。</p> <p>树木的照片如下图所示。</p> <p></p> <img src='stimuli/trees/15.png', style='max-width: 30%;'> </img> <p><strong>你是否选择发射武器？</strong></p>","0",""
"","","","","","html-keyboard-response","118","463295","0.0-4.0-0.57","55","1","2022-10-09 10:55:04","ebf9627b049f568eb4bf28942cb89901","183.95.251.253","Mozilla/5.0 (Windows NT 10.0; Win64; x64) AppleWebKit/537.36 (KHTML, like Gecko) Chrome/105.0.0.0 Safari/537.36 Edg/105.0.1343.53","WebKit","Edge","105.0.1343.53","Windows","10.0","null","<div style=""font-size:60px;"">+</div>","null",""
"","","","","","html-button-response","119","471600","0.0-4.0-1.57","55","1","2022-10-09 10:55:04","ebf9627b049f568eb4bf28942cb89901","183.95.251.253","Mozilla/5.0 (Windows NT 10.0; Win64; x64) AppleWebKit/537.36 (KHTML, like Gecko) Chrome/105.0.0.0 Safari/537.36 Edg/105.0.1343.53","WebKit","Edge","105.0.1343.53","Windows","10.0","8298","<p>作为军队的指挥官，你可以选择发射导弹杀死 <strong>6名</strong> 敌国士兵，但会炸毁附近的 <strong>1棵</strong> 敌国树木。</p> <p>树木的照片如下图所示。</p> <p></p> <img src='stimuli/trees/15.png', style='max-width: 30%;'> </img> <p><strong>你是否选择发射武器？</strong></p>","0",""
"","","","","","html-keyboard-response","120","472610","0.0-4.0-0.58","55","1","2022-10-09 10:55:04","ebf9627b049f568eb4bf28942cb89901","183.95.251.253","Mozilla/5.0 (Windows NT 10.0; Win64; x64) AppleWebKit/537.36 (KHTML, like Gecko) Chrome/105.0.0.0 Safari/537.36 Edg/105.0.1343.53","WebKit","Edge","105.0.1343.53","Windows","10.0","null","<div style=""font-size:60px;"">+</div>","null",""
"","","","","","html-button-response","121","474559","0.0-4.0-1.58","55","1","2022-10-09 10:55:04","ebf9627b049f568eb4bf28942cb89901","183.95.251.253","Mozilla/5.0 (Windows NT 10.0; Win64; x64) AppleWebKit/537.36 (KHTML, like Gecko) Chrome/105.0.0.0 Safari/537.36 Edg/105.0.1343.53","WebKit","Edge","105.0.1343.53","Windows","10.0","1939","<p>作为军队的指挥官，你可以选择发射导弹杀死 <strong>4名</strong> 敌国士兵，但会误杀附近的 <strong>1名</strong> 敌国平民。</p> <p>平民照片如下图所示。</p> <p></p> <img src='stimuli/faces/NFF5.jpg', style='max-width: 30%;'> </img> <p><strong>你是否选择发射武器？</strong></p>","1",""
"","","","","","html-keyboard-response","122","475567","0.0-4.0-0.59","55","1","2022-10-09 10:55:04","ebf9627b049f568eb4bf28942cb89901","183.95.251.253","Mozilla/5.0 (Windows NT 10.0; Win64; x64) AppleWebKit/537.36 (KHTML, like Gecko) Chrome/105.0.0.0 Safari/537.36 Edg/105.0.1343.53","WebKit","Edge","105.0.1343.53","Windows","10.0","null","<div style=""font-size:60px;"">+</div>","null",""
"","","","","","html-button-response","123","479439","0.0-4.0-1.59","55","1","2022-10-09 10:55:04","ebf9627b049f568eb4bf28942cb89901","183.95.251.253","Mozilla/5.0 (Windows NT 10.0; Win64; x64) AppleWebKit/537.36 (KHTML, like Gecko) Chrome/105.0.0.0 Safari/537.36 Edg/105.0.1343.53","WebKit","Edge","105.0.1343.53","Windows","10.0","3862","<p>作为军队的指挥官，你可以选择发射导弹杀死 <strong>4名</strong> 敌国士兵，但会误杀附近的 <strong>1名</strong> 敌国平民。</p> <p>平民照片如下图所示。</p> <p></p> <img src='stimuli/faces/NFM6.jpg', style='max-width: 30%;'> </img> <p><strong>你是否选择发射武器？</strong></p>","0",""
"","","","","","html-keyboard-response","124","480448","0.0-4.0-0.60","55","1","2022-10-09 10:55:04","ebf9627b049f568eb4bf28942cb89901","183.95.251.253","Mozilla/5.0 (Windows NT 10.0; Win64; x64) AppleWebKit/537.36 (KHTML, like Gecko) Chrome/105.0.0.0 Safari/537.36 Edg/105.0.1343.53","WebKit","Edge","105.0.1343.53","Windows","10.0","null","<div style=""font-size:60px;"">+</div>","null",""
"","","","","","html-button-response","125","483430","0.0-4.0-1.60","55","1","2022-10-09 10:55:04","ebf9627b049f568eb4bf28942cb89901","183.95.251.253","Mozilla/5.0 (Windows NT 10.0; Win64; x64) AppleWebKit/537.36 (KHTML, like Gecko) Chrome/105.0.0.0 Safari/537.36 Edg/105.0.1343.53","WebKit","Edge","105.0.1343.53","Windows","10.0","2973","<p>作为军队的指挥官，你可以选择发射导弹杀死 <strong>10名</strong> 敌国士兵，但会误杀附近的 <strong>1名</strong> 敌国平民。</p> <p>平民照片如下图所示。</p> <p></p> <img src='stimuli/faces/NFM7.jpg', style='max-width: 30%;'> </img> <p><strong>你是否选择发射武器？</strong></p>","0",""
"","","","","","html-keyboard-response","126","484435","0.0-4.0-0.61","55","1","2022-10-09 10:55:04","ebf9627b049f568eb4bf28942cb89901","183.95.251.253","Mozilla/5.0 (Windows NT 10.0; Win64; x64) AppleWebKit/537.36 (KHTML, like Gecko) Chrome/105.0.0.0 Safari/537.36 Edg/105.0.1343.53","WebKit","Edge","105.0.1343.53","Windows","10.0","null","<div style=""font-size:60px;"">+</div>","null",""
"","","","","","html-button-response","127","489247","0.0-4.0-1.61","55","1","2022-10-09 10:55:04","ebf9627b049f568eb4bf28942cb89901","183.95.251.253","Mozilla/5.0 (Windows NT 10.0; Win64; x64) AppleWebKit/537.36 (KHTML, like Gecko) Chrome/105.0.0.0 Safari/537.36 Edg/105.0.1343.53","WebKit","Edge","105.0.1343.53","Windows","10.0","4803","<p>作为军队的指挥官，你可以选择发射导弹杀死 <strong>8名</strong> 敌国士兵，但会误杀附近的 <strong>1名</strong> 敌国平民。</p> <p>平民照片如下图所示。</p> <p></p> <img src='stimuli/faces/NFM3.jpg', style='max-width: 30%;'> </img> <p><strong>你是否选择发射武器？</strong></p>","0",""
"","","","","","html-keyboard-response","128","490256","0.0-4.0-0.62","55","1","2022-10-09 10:55:04","ebf9627b049f568eb4bf28942cb89901","183.95.251.253","Mozilla/5.0 (Windows NT 10.0; Win64; x64) AppleWebKit/537.36 (KHTML, like Gecko) Chrome/105.0.0.0 Safari/537.36 Edg/105.0.1343.53","WebKit","Edge","105.0.1343.53","Windows","10.0","null","<div style=""font-size:60px;"">+</div>","null",""
"","","","","","html-button-response","129","499997","0.0-4.0-1.62","55","1","2022-10-09 10:55:04","ebf9627b049f568eb4bf28942cb89901","183.95.251.253","Mozilla/5.0 (Windows NT 10.0; Win64; x64) AppleWebKit/537.36 (KHTML, like Gecko) Chrome/105.0.0.0 Safari/537.36 Edg/105.0.1343.53","WebKit","Edge","105.0.1343.53","Windows","10.0","9730","<p>作为军队的指挥官，你可以选择发射导弹杀死 <strong>10名</strong> 敌国士兵，但会炸毁附近的 <strong>1棵</strong> 敌国树木。</p> <p>树木的照片如下图所示。</p> <p></p> <img src='stimuli/trees/4.png', style='max-width: 30%;'> </img> <p><strong>你是否选择发射武器？</strong></p>","0",""
"","","","","","html-keyboard-response","130","501007","0.0-4.0-0.63","55","1","2022-10-09 10:55:04","ebf9627b049f568eb4bf28942cb89901","183.95.251.253","Mozilla/5.0 (Windows NT 10.0; Win64; x64) AppleWebKit/537.36 (KHTML, like Gecko) Chrome/105.0.0.0 Safari/537.36 Edg/105.0.1343.53","WebKit","Edge","105.0.1343.53","Windows","10.0","null","<div style=""font-size:60px;"">+</div>","null",""
"","","","","","html-button-response","131","504412","0.0-4.0-1.63","55","1","2022-10-09 10:55:04","ebf9627b049f568eb4bf28942cb89901","183.95.251.253","Mozilla/5.0 (Windows NT 10.0; Win64; x64) AppleWebKit/537.36 (KHTML, like Gecko) Chrome/105.0.0.0 Safari/537.36 Edg/105.0.1343.53","WebKit","Edge","105.0.1343.53","Windows","10.0","3395","<p>作为军队的指挥官，你可以选择发射导弹杀死 <strong>10名</strong> 敌国士兵，但会炸毁附近的 <strong>1棵</strong> 敌国树木。</p> <p>树木的照片如下图所示。</p> <p></p> <img src='stimuli/trees/6.png', style='max-width: 30%;'> </img> <p><strong>你是否选择发射武器？</strong></p>","0",""
"","","","","","survey-multi-choice","132","548667","0.0-5.0","55","1","2022-10-09 10:55:04","ebf9627b049f568eb4bf28942cb89901","183.95.251.253","Mozilla/5.0 (Windows NT 10.0; Win64; x64) AppleWebKit/537.36 (KHTML, like Gecko) Chrome/105.0.0.0 Safari/537.36 Edg/105.0.1343.53","WebKit","Edge","105.0.1343.53","Windows","10.0","44240","","{""Attention1"":""""}","[0]"
"","","","","","html-button-response","133","552751","0.0-6.0","55","1","2022-10-09 10:55:04","ebf9627b049f568eb4bf28942cb89901","183.95.251.253","Mozilla/5.0 (Windows NT 10.0; Win64; x64) AppleWebKit/537.36 (KHTML, like Gecko) Chrome/105.0.0.0 Safari/537.36 Edg/105.0.1343.53","WebKit","Edge","105.0.1343.53","Windows","10.0","4076","<p style=""font-size:20px;font-weight:bold;"">恭喜！</p><p>你已经完成了实验的第一部分。</p><p>请休息放松一下，然后进入第二部分。</p><p>这部分大约需要10分钟。</p>","0",""
"","","","","","survey-text","134","690113","0.0-7.0","55","1","2022-10-09 10:55:04","ebf9627b049f568eb4bf28942cb89901","183.95.251.253","Mozilla/5.0 (Windows NT 10.0; Win64; x64) AppleWebKit/537.36 (KHTML, like Gecko) Chrome/105.0.0.0 Safari/537.36 Edg/105.0.1343.53","WebKit","Edge","105.0.1343.53","Windows","10.0","136316","","{""Age"":""21"",""Nation"":""中国"",""Born"":""湖北"",""Live"":""黄冈"",""Ethnic"":""汉族"",""Alipay"":""18771622953""}",""
"","","","","","survey-multi-choice","135","734171","0.0-8.0","55","1","2022-10-09 10:55:04","ebf9627b049f568eb4bf28942cb89901","183.95.251.253","Mozilla/5.0 (Windows NT 10.0; Win64; x64) AppleWebKit/537.36 (KHTML, like Gecko) Chrome/105.0.0.0 Safari/537.36 Edg/105.0.1343.53","WebKit","Edge","105.0.1343.53","Windows","10.0","44049","","{""Gender"":""男"",""Education"":""本科毕业"",""Income"":""￥70,000-￥139,999"",""Children"":""0"",""Race"":""亚洲人""}","[0,1,2,3,4]"
"","","","","","survey-multi-select","136","743435","0.0-9.0","55","1","2022-10-09 10:55:04","ebf9627b049f568eb4bf28942cb89901","183.95.251.253","Mozilla/5.0 (Windows NT 10.0; Win64; x64) AppleWebKit/537.36 (KHTML, like Gecko) Chrome/105.0.0.0 Safari/537.36 Edg/105.0.1343.53","WebKit","Edge","105.0.1343.53","Windows","10.0","9239","","{""Marriage"":[""未婚""],""Religion"":[""无宗教信仰""]}","[0,1]"
"","","","","","survey-multi-choice","137","757663","0.0-10.0","55","1","2022-10-09 10:55:04","ebf9627b049f568eb4bf28942cb89901","183.95.251.253","Mozilla/5.0 (Windows NT 10.0; Win64; x64) AppleWebKit/537.36 (KHTML, like Gecko) Chrome/105.0.0.0 Safari/537.36 Edg/105.0.1343.53","WebKit","Edge","105.0.1343.53","Windows","10.0","14219","","{""SES"":""5""}","[0]"
"","","","","","html-button-response","138","762413","0.0-11.0","55","1","2022-10-09 10:55:04","ebf9627b049f568eb4bf28942cb89901","183.95.251.253","Mozilla/5.0 (Windows NT 10.0; Win64; x64) AppleWebKit/537.36 (KHTML, like Gecko) Chrome/105.0.0.0 Safari/537.36 Edg/105.0.1343.53","WebKit","Edge","105.0.1343.53","Windows","10.0","4729","<p><strong>请判断下列陈述在多大程度上可以形容你？</p><p> (1 = ""和我一点都不像"" to 5 = ""非常像我"".)</strong></p>","0",""
"","","","","","survey-likert","139","818301","0.0-12.0","55","1","2022-10-09 10:55:04","ebf9627b049f568eb4bf28942cb89901","183.95.251.253","Mozilla/5.0 (Windows NT 10.0; Win64; x64) AppleWebKit/537.36 (KHTML, like Gecko) Chrome/105.0.0.0 Safari/537.36 Edg/105.0.1343.53","WebKit","Edge","105.0.1343.53","Windows","10.0","55874","","{""Aggression1"":0,""Aggression2"":3,""Aggression3"":4,""Aggression4"":1,""Aggression5"":3,""Aggression6"":1,""Aggression7"":0,""Aggression8"":0,""Aggression9"":0}","[0,1,2,3,4,5,6,7,8]"
"","","","","","html-button-response","140","820493","0.0-13.0","55","1","2022-10-09 10:55:04","ebf9627b049f568eb4bf28942cb89901","183.95.251.253","Mozilla/5.0 (Windows NT 10.0; Win64; x64) AppleWebKit/537.36 (KHTML, like Gecko) Chrome/105.0.0.0 Safari/537.36 Edg/105.0.1343.53","WebKit","Edge","105.0.1343.53","Windows","10.0","2182","<p><strong>请判断你在多大程度上同意下列陈述。</strong></p>","0",""
"","","","","","survey-likert","141","988173","0.0-14.0","55","1","2022-10-09 10:55:04","ebf9627b049f568eb4bf28942cb89901","183.95.251.253","Mozilla/5.0 (Windows NT 10.0; Win64; x64) AppleWebKit/537.36 (KHTML, like Gecko) Chrome/105.0.0.0 Safari/537.36 Edg/105.0.1343.53","WebKit","Edge","105.0.1343.53","Windows","10.0","167661","","{""scale10"":2,""scale25"":1,""scale4"":0,""scale13"":1,""scale26"":3,""scale28"":1,""scale2"":0,""scale11"":2,""scale17"":1,""scale19"":3,""scale15"":4,""scale23"":2,""scale24"":0,""scale18"":1,""scale27"":0,""scale12"":0,""scale3"":2,""scale9"":3,""scale16"":1,""scale1"":0,""scale14"":3,""scale6"":4,""scale8"":1,""scale20"":3,""scale22"":4,""scale21"":1,""scale5"":2,""scale7"":0}","[9,24,3,12,25,27,1,10,16,18,14,22,23,17,26,11,2,8,15,0,13,5,7,19,21,20,4,6]"
"","","","","","html-button-response","142","990103","0.0-15.0","55","1","2022-10-09 10:55:04","ebf9627b049f568eb4bf28942cb89901","183.95.251.253","Mozilla/5.0 (Windows NT 10.0; Win64; x64) AppleWebKit/537.36 (KHTML, like Gecko) Chrome/105.0.0.0 Safari/537.36 Edg/105.0.1343.53","WebKit","Edge","105.0.1343.53","Windows","10.0","1921","<p><strong>请判断你在多大程度上同意下列陈述。</strong></p>","0",""
"","","","","","survey-likert","143","1065473","0.0-16.0","55","1","2022-10-09 10:55:04","ebf9627b049f568eb4bf28942cb89901","183.95.251.253","Mozilla/5.0 (Windows NT 10.0; Win64; x64) AppleWebKit/537.36 (KHTML, like Gecko) Chrome/105.0.0.0 Safari/537.36 Edg/105.0.1343.53","WebKit","Edge","105.0.1343.53","Windows","10.0","75350","","{""sdo9"":4,""sdo1"":5,""sdo5"":2,""sdo7"":4,""sdo8"":6,""sdo3"":4,""sdo14"":4,""sdo15"":2,""sdo4"":4,""sdo6"":2,""sdo12"":4,""sdo16"":1,""sdo10"":4,""sdo2"":1,""sdo13"":5,""sdo11"":4}","[8,0,4,6,7,2,13,14,3,5,11,15,9,1,12,10]"
"","","","","","html-button-response","144","1068856","0.0-17.0","55","1","2022-10-09 10:55:04","ebf9627b049f568eb4bf28942cb89901","183.95.251.253","Mozilla/5.0 (Windows NT 10.0; Win64; x64) AppleWebKit/537.36 (KHTML, like Gecko) Chrome/105.0.0.0 Safari/537.36 Edg/105.0.1343.53","WebKit","Edge","105.0.1343.53","Windows","10.0","3362","<p><strong>请判断你在多大程度上同意下列陈述。</strong></p>","0",""
"","","","","","survey-likert","145","1110940","0.0-18.0","55","1","2022-10-09 10:55:04","ebf9627b049f568eb4bf28942cb89901","183.95.251.253","Mozilla/5.0 (Windows NT 10.0; Win64; x64) AppleWebKit/537.36 (KHTML, like Gecko) Chrome/105.0.0.0 Safari/537.36 Edg/105.0.1343.53","WebKit","Edge","105.0.1343.53","Windows","10.0","42068","","{""caring1"":2,""liking1"":1,""caring2"":2,""protection1"":3,""liking2"":3,""caring3"":2,""protection2"":1,""liking3"":3,""protection3"":4,""caring4"":3,""liking4"":1,""protection4"":3,""caring5"":2,""liking5"":1,""protection5"":3}","[0,1,2,3,4,5,6,7,8,9,10,11,12,13,14]"
"","","","","","html-button-response","146","1113564","0.0-19.0","55","1","2022-10-09 10:55:04","ebf9627b049f568eb4bf28942cb89901","183.95.251.253","Mozilla/5.0 (Windows NT 10.0; Win64; x64) AppleWebKit/537.36 (KHTML, like Gecko) Chrome/105.0.0.0 Safari/537.36 Edg/105.0.1343.53","WebKit","Edge","105.0.1343.53","Windows","10.0","2614","<p><strong>请判断下列场景中你的内心感受有多柔软。</strong></p>","0",""
"","","","","","survey-likert","147","1202178","0.0-20.0","55","1","2022-10-09 10:55:04","ebf9627b049f568eb4bf28942cb89901","183.95.251.253","Mozilla/5.0 (Windows NT 10.0; Win64; x64) AppleWebKit/537.36 (KHTML, like Gecko) Chrome/105.0.0.0 Safari/537.36 Edg/105.0.1343.53","WebKit","Edge","105.0.1343.53","Windows","10.0","88600","","{""tenderness-positive1"":3,""tenderness-negative1"":1,""tenderness-negative2"":1,""tenderness-positive2"":3,""tenderness-positive3"":3,""tenderness-negative3"":1,""tenderness-positive4"":3,""tendereness-negative4"":1,""tendernness-negative5"":0,""tenderness-positive5"":2}","[0,1,2,3,4,5,6,7,8,9]"
"","","","","","survey-multi-choice","148","1212626","0.0-21.0","55","1","2022-10-09 10:55:04","ebf9627b049f568eb4bf28942cb89901","183.95.251.253","Mozilla/5.0 (Windows NT 10.0; Win64; x64) AppleWebKit/537.36 (KHTML, like Gecko) Chrome/105.0.0.0 Safari/537.36 Edg/105.0.1343.53","WebKit","Edge","105.0.1343.53","Windows","10.0","10438","","{""Attention2"":""其他""}","[0]"
"","","","","","html-button-response","149","1214017","0.0-22.0","55","1","2022-10-09 10:55:04","ebf9627b049f568eb4bf28942cb89901","183.95.251.253","Mozilla/5.0 (Windows NT 10.0; Win64; x64) AppleWebKit/537.36 (KHTML, like Gecko) Chrome/105.0.0.0 Safari/537.36 Edg/105.0.1343.53","WebKit","Edge","105.0.1343.53","Windows","10.0","1383","<p><strong>请判断你在多大程度上同意下列陈述。</strong></p>","0",""
"","","","","","survey-likert","150","1305780","0.0-23.0","55","1","2022-10-09 10:55:04","ebf9627b049f568eb4bf28942cb89901","183.95.251.253","Mozilla/5.0 (Windows NT 10.0; Win64; x64) AppleWebKit/537.36 (KHTML, like Gecko) Chrome/105.0.0.0 Safari/537.36 Edg/105.0.1343.53","WebKit","Edge","105.0.1343.53","Windows","10.0","91755","","{""Nation1"":3,""Nation4"":2,""Nation6"":3,""Patri3"":4,""Nation7"":3,""Patri8"":3,""Patri11"":0,""Nation8"":0,""Nation5"":2,""Patri6"":0,""Nation3"":1,""Nation2"":3,""Patri1"":4,""Patri7"":4,""Patri12"":1,""Patri2"":4,""Patri4"":3,""Patri9"":1,""Patri5"":3,""Patri10"":1}","[12,15,17,2,18,7,10,19,16,5,14,13,0,6,11,1,3,8,4,9]"
"","","","","","html-button-response","151","1308324","0.0-24.0","55","1","2022-10-09 10:55:04","ebf9627b049f568eb4bf28942cb89901","183.95.251.253","Mozilla/5.0 (Windows NT 10.0; Win64; x64) AppleWebKit/537.36 (KHTML, like Gecko) Chrome/105.0.0.0 Safari/537.36 Edg/105.0.1343.53","WebKit","Edge","105.0.1343.53","Windows","10.0","2533","<p><strong>请判断你在多大程度上同意下列陈述。</strong></p>","0",""
"","","","","","survey-likert","152","1366774","0.0-25.0","55","1","2022-10-09 10:55:04","ebf9627b049f568eb4bf28942cb89901","183.95.251.253","Mozilla/5.0 (Windows NT 10.0; Win64; x64) AppleWebKit/537.36 (KHTML, like Gecko) Chrome/105.0.0.0 Safari/537.36 Edg/105.0.1343.53","WebKit","Edge","105.0.1343.53","Windows","10.0","58437","","{""hc4"":5,""hc2"":2,""hi1"":1,""hi2"":7,""vc4"":5,""vc1"":7,""hi3"":5,""hc1"":7,""vi2"":8,""hc3"":5,""vi3"":8,""vi4"":2,""vc3"":5,""vc2"":7,""Robot"":6,""vi1"":7,""hi4"":8}","[12,10,0,1,16,13,2,9,5,11,6,8,15,14,7,4,3]"
"","","","","","survey-text","153","1368962","0.0-26.0","55","1","2022-10-09 10:55:04","ebf9627b049f568eb4bf28942cb89901","183.95.251.253","Mozilla/5.0 (Windows NT 10.0; Win64; x64) AppleWebKit/537.36 (KHTML, like Gecko) Chrome/105.0.0.0 Safari/537.36 Edg/105.0.1343.53","WebKit","Edge","105.0.1343.53","Windows","10.0","2143","","{""Comments"":""""}",""
"","","","","","html-button-response","154","1370089","0.0-27.0","55","1","2022-10-09 10:55:04","ebf9627b049f568eb4bf28942cb89901","183.95.251.253","Mozilla/5.0 (Windows NT 10.0; Win64; x64) AppleWebKit/537.36 (KHTML, like Gecko) Chrome/105.0.0.0 Safari/537.36 Edg/105.0.1343.53","WebKit","Edge","105.0.1343.53","Windows","10.0","1122","<strong><p>恭喜你完成了实验！</p><p>感谢您的参与。</p></strong>","0",""
