"success","timeout","failed_images","failed_audio","failed_video","trial_type","trial_index","time_elapsed","internal_node_id","run_id","condition","recorded_at","source_code_version","ip","user_agent","device","browser","browser_version","platform","platform_version","rt","stimulus","response","question_order"
"true","false","[]","[]","[]","preload","0","2480","0.0-0.0","62","1","2022-10-09 11:05:09","ebf9627b049f568eb4bf28942cb89901","113.201.200.242","Mozilla/5.0 (Linux; Android 11; V1981A Build/RP1A.200720.012; wv) AppleWebKit/537.36 (KHTML, like Gecko) Version/4.0 Chrome/86.0.4240.99 XWEB/4317 MMWEBSDK/20220805 Mobile Safari/537.36 MMWEBID/8575 MicroMessenger/8.0.27.2220(0x28001B59) WeChat/arm64 Weixin NetType/5G Language/zh_CN ABI/arm64","WebKit","Chrome","86.0.4240.99","AndroidOS","11","","","",""
"true","","","","","fullscreen","1","4566","0.0-1.0","62","1","2022-10-09 11:05:09","ebf9627b049f568eb4bf28942cb89901","113.201.200.242","Mozilla/5.0 (Linux; Android 11; V1981A Build/RP1A.200720.012; wv) AppleWebKit/537.36 (KHTML, like Gecko) Version/4.0 Chrome/86.0.4240.99 XWEB/4317 MMWEBSDK/20220805 Mobile Safari/537.36 MMWEBID/8575 MicroMessenger/8.0.27.2220(0x28001B59) WeChat/arm64 Weixin NetType/5G Language/zh_CN ABI/arm64","WebKit","Chrome","86.0.4240.99","AndroidOS","11","","","",""
"","","","","","html-button-response","2","7369","0.0-2.0","62","1","2022-10-09 11:05:09","ebf9627b049f568eb4bf28942cb89901","113.201.200.242","Mozilla/5.0 (Linux; Android 11; V1981A Build/RP1A.200720.012; wv) AppleWebKit/537.36 (KHTML, like Gecko) Version/4.0 Chrome/86.0.4240.99 XWEB/4317 MMWEBSDK/20220805 Mobile Safari/537.36 MMWEBID/8575 MicroMessenger/8.0.27.2220(0x28001B59) WeChat/arm64 Weixin NetType/5G Language/zh_CN ABI/arm64","WebKit","Chrome","86.0.4240.99","AndroidOS","11","2796","<p style=""font-size:20px;font-weight:bold;"">实验知情同意书</p><p style=""text-align:left;""><strong>实验名称：</strong>社会冲突研究</p><p style=""text-align:left;""><strong>主要研究者：</strong>韩晓春副教授（北京师范大学心理学部）</p><p style=""text-align:left;""><strong>联系方式：</strong>发送邮件至xiaochun.han@bnu.edu.cn</p><p style=""text-align:left;""><strong>研究目的：</strong>研究旨在了解人类面对群体冲突时的决策方式，以及相关的心理学特质。实验调查大约需要20分钟。</p><p style=""text-align:left;""><strong>实验流程：</strong>实验包含两部分。第一部分呈现一系列群体冲突场景，请你决定如何对这些冲突进行反应，大约需要10分钟完成。第二部分包含一系列人口统计学信息收集和心理学问卷，大约需要10分钟完成。</p><p style=""text-align:left;""><strong>参加及退出规则：</strong>参加本实验完全取决于您的个人意愿。在参与过程中，您可以随时退出，并且不用承担任何后果。</p><p style=""text-align:left;""><strong>隐私：</strong>本实验完全匿名进行，不会收集您的姓名或其他能够识别您身份的信息。实验中收集的作答仅用作科学研究使用，可能会在学术期刊/书籍上发表，或者用于教学，您的数据未来可能会和其他研究者或实验室分享，但您的个人身份不会被识别。</p><p style=""text-align:left;""><strong>实验报酬：</strong>实验完成后，您将获得15元人民币报酬，以感谢您的时间和努力。调查问卷中包含几道题目用以测验您作答时的认真度。只有完成全部实验，并且正确回答认真度测验的被试才能获得实验报酬。实验报酬将通过支付宝转账发放。</p><p style=""text-align:left;font-size:20px;""><strong>如果您同意以上实验知情同意书的内容，请点击'同意并且开始实验'按钮；否则请关闭浏览器界面，退出实验。</strong></p>","0",""
"","","","","","html-button-response","3","8537","0.0-3.0","62","1","2022-10-09 11:05:09","ebf9627b049f568eb4bf28942cb89901","113.201.200.242","Mozilla/5.0 (Linux; Android 11; V1981A Build/RP1A.200720.012; wv) AppleWebKit/537.36 (KHTML, like Gecko) Version/4.0 Chrome/86.0.4240.99 XWEB/4317 MMWEBSDK/20220805 Mobile Safari/537.36 MMWEBID/8575 MicroMessenger/8.0.27.2220(0x28001B59) WeChat/arm64 Weixin NetType/5G Language/zh_CN ABI/arm64","WebKit","Chrome","86.0.4240.99","AndroidOS","11","1158","<p ><strong>实验任务一：</strong></p><p>请想象你的国家与另一个国家发生了军事冲突。</p><p>你是国家军队的指挥官，你将如何在冲突中进行决策。</p><p>具体来说，作为军队指挥官，请你决定是否发射导弹进行打击。</p><p>接下来，你会面对一系列场景，请仔细阅读每个场景，然后进行决策。</p><p>这部分实验任务大约需要10分钟。</p><p><strong>实验过程中，请集中注意力。</strong></p>","0",""
"","","","","","html-keyboard-response","4","9542","0.0-4.0-0.0","62","1","2022-10-09 11:05:09","ebf9627b049f568eb4bf28942cb89901","113.201.200.242","Mozilla/5.0 (Linux; Android 11; V1981A Build/RP1A.200720.012; wv) AppleWebKit/537.36 (KHTML, like Gecko) Version/4.0 Chrome/86.0.4240.99 XWEB/4317 MMWEBSDK/20220805 Mobile Safari/537.36 MMWEBID/8575 MicroMessenger/8.0.27.2220(0x28001B59) WeChat/arm64 Weixin NetType/5G Language/zh_CN ABI/arm64","WebKit","Chrome","86.0.4240.99","AndroidOS","11","null","<div style=""font-size:60px;"">+</div>","null",""
"","","","","","html-button-response","5","15283","0.0-4.0-1.0","62","1","2022-10-09 11:05:09","ebf9627b049f568eb4bf28942cb89901","113.201.200.242","Mozilla/5.0 (Linux; Android 11; V1981A Build/RP1A.200720.012; wv) AppleWebKit/537.36 (KHTML, like Gecko) Version/4.0 Chrome/86.0.4240.99 XWEB/4317 MMWEBSDK/20220805 Mobile Safari/537.36 MMWEBID/8575 MicroMessenger/8.0.27.2220(0x28001B59) WeChat/arm64 Weixin NetType/5G Language/zh_CN ABI/arm64","WebKit","Chrome","86.0.4240.99","AndroidOS","11","5732","<p>作为军队的指挥官，你可以选择发射导弹杀死 <strong>8名</strong> 敌国士兵，但会误杀附近的 <strong>1名</strong> 敌国平民。</p> <p>平民照片如下图所示。</p> <p></p> <img src='stimuli/faces/NFM8.jpg', style='max-width: 30%;'> </img> <p><strong>你是否选择发射武器？</strong></p>","0",""
"","","","","","html-keyboard-response","6","16291","0.0-4.0-0.1","62","1","2022-10-09 11:05:09","ebf9627b049f568eb4bf28942cb89901","113.201.200.242","Mozilla/5.0 (Linux; Android 11; V1981A Build/RP1A.200720.012; wv) AppleWebKit/537.36 (KHTML, like Gecko) Version/4.0 Chrome/86.0.4240.99 XWEB/4317 MMWEBSDK/20220805 Mobile Safari/537.36 MMWEBID/8575 MicroMessenger/8.0.27.2220(0x28001B59) WeChat/arm64 Weixin NetType/5G Language/zh_CN ABI/arm64","WebKit","Chrome","86.0.4240.99","AndroidOS","11","null","<div style=""font-size:60px;"">+</div>","null",""
"","","","","","html-button-response","7","20109","0.0-4.0-1.1","62","1","2022-10-09 11:05:09","ebf9627b049f568eb4bf28942cb89901","113.201.200.242","Mozilla/5.0 (Linux; Android 11; V1981A Build/RP1A.200720.012; wv) AppleWebKit/537.36 (KHTML, like Gecko) Version/4.0 Chrome/86.0.4240.99 XWEB/4317 MMWEBSDK/20220805 Mobile Safari/537.36 MMWEBID/8575 MicroMessenger/8.0.27.2220(0x28001B59) WeChat/arm64 Weixin NetType/5G Language/zh_CN ABI/arm64","WebKit","Chrome","86.0.4240.99","AndroidOS","11","3801","<p>作为军队的指挥官，你可以选择发射导弹杀死 <strong>5名</strong> 敌国士兵，但会炸毁附近的 <strong>1棵</strong> 敌国树木。</p> <p>树木的照片如下图所示。</p> <p></p> <img src='stimuli/trees/5.png', style='max-width: 30%;'> </img> <p><strong>你是否选择发射武器？</strong></p>","1",""
"","","","","","html-keyboard-response","8","21117","0.0-4.0-0.2","62","1","2022-10-09 11:05:09","ebf9627b049f568eb4bf28942cb89901","113.201.200.242","Mozilla/5.0 (Linux; Android 11; V1981A Build/RP1A.200720.012; wv) AppleWebKit/537.36 (KHTML, like Gecko) Version/4.0 Chrome/86.0.4240.99 XWEB/4317 MMWEBSDK/20220805 Mobile Safari/537.36 MMWEBID/8575 MicroMessenger/8.0.27.2220(0x28001B59) WeChat/arm64 Weixin NetType/5G Language/zh_CN ABI/arm64","WebKit","Chrome","86.0.4240.99","AndroidOS","11","null","<div style=""font-size:60px;"">+</div>","null",""
"","","","","","html-button-response","9","24396","0.0-4.0-1.2","62","1","2022-10-09 11:05:09","ebf9627b049f568eb4bf28942cb89901","113.201.200.242","Mozilla/5.0 (Linux; Android 11; V1981A Build/RP1A.200720.012; wv) AppleWebKit/537.36 (KHTML, like Gecko) Version/4.0 Chrome/86.0.4240.99 XWEB/4317 MMWEBSDK/20220805 Mobile Safari/537.36 MMWEBID/8575 MicroMessenger/8.0.27.2220(0x28001B59) WeChat/arm64 Weixin NetType/5G Language/zh_CN ABI/arm64","WebKit","Chrome","86.0.4240.99","AndroidOS","11","3269","<p>作为军队的指挥官，你可以选择发射导弹杀死 <strong>9名</strong> 敌国士兵，但会误杀附近的 <strong>1名</strong> 敌国平民。</p> <p>平民照片如下图所示。</p> <p></p> <img src='stimuli/faces/NFF6.jpg', style='max-width: 30%;'> </img> <p><strong>你是否选择发射武器？</strong></p>","0",""
"","","","","","html-keyboard-response","10","25404","0.0-4.0-0.3","62","1","2022-10-09 11:05:09","ebf9627b049f568eb4bf28942cb89901","113.201.200.242","Mozilla/5.0 (Linux; Android 11; V1981A Build/RP1A.200720.012; wv) AppleWebKit/537.36 (KHTML, like Gecko) Version/4.0 Chrome/86.0.4240.99 XWEB/4317 MMWEBSDK/20220805 Mobile Safari/537.36 MMWEBID/8575 MicroMessenger/8.0.27.2220(0x28001B59) WeChat/arm64 Weixin NetType/5G Language/zh_CN ABI/arm64","WebKit","Chrome","86.0.4240.99","AndroidOS","11","null","<div style=""font-size:60px;"">+</div>","null",""
"","","","","","html-button-response","11","28580","0.0-4.0-1.3","62","1","2022-10-09 11:05:09","ebf9627b049f568eb4bf28942cb89901","113.201.200.242","Mozilla/5.0 (Linux; Android 11; V1981A Build/RP1A.200720.012; wv) AppleWebKit/537.36 (KHTML, like Gecko) Version/4.0 Chrome/86.0.4240.99 XWEB/4317 MMWEBSDK/20220805 Mobile Safari/537.36 MMWEBID/8575 MicroMessenger/8.0.27.2220(0x28001B59) WeChat/arm64 Weixin NetType/5G Language/zh_CN ABI/arm64","WebKit","Chrome","86.0.4240.99","AndroidOS","11","3156","<p>作为军队的指挥官，你可以选择发射导弹杀死 <strong>1名</strong> 敌国士兵，但会误杀附近的 <strong>1名</strong> 敌国平民。</p> <p>平民照片如下图所示。</p> <p></p> <img src='stimuli/faces/NFF3.jpg', style='max-width: 30%;'> </img> <p><strong>你是否选择发射武器？</strong></p>","1",""
"","","","","","html-keyboard-response","12","29585","0.0-4.0-0.4","62","1","2022-10-09 11:05:09","ebf9627b049f568eb4bf28942cb89901","113.201.200.242","Mozilla/5.0 (Linux; Android 11; V1981A Build/RP1A.200720.012; wv) AppleWebKit/537.36 (KHTML, like Gecko) Version/4.0 Chrome/86.0.4240.99 XWEB/4317 MMWEBSDK/20220805 Mobile Safari/537.36 MMWEBID/8575 MicroMessenger/8.0.27.2220(0x28001B59) WeChat/arm64 Weixin NetType/5G Language/zh_CN ABI/arm64","WebKit","Chrome","86.0.4240.99","AndroidOS","11","null","<div style=""font-size:60px;"">+</div>","null",""
"","","","","","html-button-response","13","31690","0.0-4.0-1.4","62","1","2022-10-09 11:05:09","ebf9627b049f568eb4bf28942cb89901","113.201.200.242","Mozilla/5.0 (Linux; Android 11; V1981A Build/RP1A.200720.012; wv) AppleWebKit/537.36 (KHTML, like Gecko) Version/4.0 Chrome/86.0.4240.99 XWEB/4317 MMWEBSDK/20220805 Mobile Safari/537.36 MMWEBID/8575 MicroMessenger/8.0.27.2220(0x28001B59) WeChat/arm64 Weixin NetType/5G Language/zh_CN ABI/arm64","WebKit","Chrome","86.0.4240.99","AndroidOS","11","2095","<p>作为军队的指挥官，你可以选择发射导弹杀死 <strong>6名</strong> 敌国士兵，但会误杀附近的 <strong>1名</strong> 敌国平民。</p> <p>平民照片如下图所示。</p> <p></p> <img src='stimuli/faces/NFF4.jpg', style='max-width: 30%;'> </img> <p><strong>你是否选择发射武器？</strong></p>","1",""
"","","","","","html-keyboard-response","14","32697","0.0-4.0-0.5","62","1","2022-10-09 11:05:09","ebf9627b049f568eb4bf28942cb89901","113.201.200.242","Mozilla/5.0 (Linux; Android 11; V1981A Build/RP1A.200720.012; wv) AppleWebKit/537.36 (KHTML, like Gecko) Version/4.0 Chrome/86.0.4240.99 XWEB/4317 MMWEBSDK/20220805 Mobile Safari/537.36 MMWEBID/8575 MicroMessenger/8.0.27.2220(0x28001B59) WeChat/arm64 Weixin NetType/5G Language/zh_CN ABI/arm64","WebKit","Chrome","86.0.4240.99","AndroidOS","11","null","<div style=""font-size:60px;"">+</div>","null",""
"","","","","","html-button-response","15","35747","0.0-4.0-1.5","62","1","2022-10-09 11:05:09","ebf9627b049f568eb4bf28942cb89901","113.201.200.242","Mozilla/5.0 (Linux; Android 11; V1981A Build/RP1A.200720.012; wv) AppleWebKit/537.36 (KHTML, like Gecko) Version/4.0 Chrome/86.0.4240.99 XWEB/4317 MMWEBSDK/20220805 Mobile Safari/537.36 MMWEBID/8575 MicroMessenger/8.0.27.2220(0x28001B59) WeChat/arm64 Weixin NetType/5G Language/zh_CN ABI/arm64","WebKit","Chrome","86.0.4240.99","AndroidOS","11","3033","<p>作为军队的指挥官，你可以选择发射导弹杀死 <strong>9名</strong> 敌国士兵，但会炸毁附近的 <strong>1棵</strong> 敌国树木。</p> <p>树木的照片如下图所示。</p> <p></p> <img src='stimuli/trees/13.png', style='max-width: 30%;'> </img> <p><strong>你是否选择发射武器？</strong></p>","1",""
"","","","","","html-keyboard-response","16","36752","0.0-4.0-0.6","62","1","2022-10-09 11:05:09","ebf9627b049f568eb4bf28942cb89901","113.201.200.242","Mozilla/5.0 (Linux; Android 11; V1981A Build/RP1A.200720.012; wv) AppleWebKit/537.36 (KHTML, like Gecko) Version/4.0 Chrome/86.0.4240.99 XWEB/4317 MMWEBSDK/20220805 Mobile Safari/537.36 MMWEBID/8575 MicroMessenger/8.0.27.2220(0x28001B59) WeChat/arm64 Weixin NetType/5G Language/zh_CN ABI/arm64","WebKit","Chrome","86.0.4240.99","AndroidOS","11","null","<div style=""font-size:60px;"">+</div>","null",""
"","","","","","html-button-response","17","38451","0.0-4.0-1.6","62","1","2022-10-09 11:05:09","ebf9627b049f568eb4bf28942cb89901","113.201.200.242","Mozilla/5.0 (Linux; Android 11; V1981A Build/RP1A.200720.012; wv) AppleWebKit/537.36 (KHTML, like Gecko) Version/4.0 Chrome/86.0.4240.99 XWEB/4317 MMWEBSDK/20220805 Mobile Safari/537.36 MMWEBID/8575 MicroMessenger/8.0.27.2220(0x28001B59) WeChat/arm64 Weixin NetType/5G Language/zh_CN ABI/arm64","WebKit","Chrome","86.0.4240.99","AndroidOS","11","1691","<p>作为军队的指挥官，你可以选择发射导弹杀死 <strong>3名</strong> 敌国士兵，但会炸毁附近的 <strong>1棵</strong> 敌国树木。</p> <p>树木的照片如下图所示。</p> <p></p> <img src='stimuli/trees/11.png', style='max-width: 30%;'> </img> <p><strong>你是否选择发射武器？</strong></p>","0",""
"","","","","","html-keyboard-response","18","39463","0.0-4.0-0.7","62","1","2022-10-09 11:05:09","ebf9627b049f568eb4bf28942cb89901","113.201.200.242","Mozilla/5.0 (Linux; Android 11; V1981A Build/RP1A.200720.012; wv) AppleWebKit/537.36 (KHTML, like Gecko) Version/4.0 Chrome/86.0.4240.99 XWEB/4317 MMWEBSDK/20220805 Mobile Safari/537.36 MMWEBID/8575 MicroMessenger/8.0.27.2220(0x28001B59) WeChat/arm64 Weixin NetType/5G Language/zh_CN ABI/arm64","WebKit","Chrome","86.0.4240.99","AndroidOS","11","null","<div style=""font-size:60px;"">+</div>","null",""
"","","","","","html-button-response","19","41783","0.0-4.0-1.7","62","1","2022-10-09 11:05:09","ebf9627b049f568eb4bf28942cb89901","113.201.200.242","Mozilla/5.0 (Linux; Android 11; V1981A Build/RP1A.200720.012; wv) AppleWebKit/537.36 (KHTML, like Gecko) Version/4.0 Chrome/86.0.4240.99 XWEB/4317 MMWEBSDK/20220805 Mobile Safari/537.36 MMWEBID/8575 MicroMessenger/8.0.27.2220(0x28001B59) WeChat/arm64 Weixin NetType/5G Language/zh_CN ABI/arm64","WebKit","Chrome","86.0.4240.99","AndroidOS","11","2301","<p>作为军队的指挥官，你可以选择发射导弹杀死 <strong>3名</strong> 敌国士兵，但会炸毁附近的 <strong>1棵</strong> 敌国树木。</p> <p>树木的照片如下图所示。</p> <p></p> <img src='stimuli/trees/10.png', style='max-width: 30%;'> </img> <p><strong>你是否选择发射武器？</strong></p>","1",""
"","","","","","html-keyboard-response","20","42790","0.0-4.0-0.8","62","1","2022-10-09 11:05:09","ebf9627b049f568eb4bf28942cb89901","113.201.200.242","Mozilla/5.0 (Linux; Android 11; V1981A Build/RP1A.200720.012; wv) AppleWebKit/537.36 (KHTML, like Gecko) Version/4.0 Chrome/86.0.4240.99 XWEB/4317 MMWEBSDK/20220805 Mobile Safari/537.36 MMWEBID/8575 MicroMessenger/8.0.27.2220(0x28001B59) WeChat/arm64 Weixin NetType/5G Language/zh_CN ABI/arm64","WebKit","Chrome","86.0.4240.99","AndroidOS","11","null","<div style=""font-size:60px;"">+</div>","null",""
"","","","","","html-button-response","21","44322","0.0-4.0-1.8","62","1","2022-10-09 11:05:09","ebf9627b049f568eb4bf28942cb89901","113.201.200.242","Mozilla/5.0 (Linux; Android 11; V1981A Build/RP1A.200720.012; wv) AppleWebKit/537.36 (KHTML, like Gecko) Version/4.0 Chrome/86.0.4240.99 XWEB/4317 MMWEBSDK/20220805 Mobile Safari/537.36 MMWEBID/8575 MicroMessenger/8.0.27.2220(0x28001B59) WeChat/arm64 Weixin NetType/5G Language/zh_CN ABI/arm64","WebKit","Chrome","86.0.4240.99","AndroidOS","11","1511","<p>作为军队的指挥官，你可以选择发射导弹杀死 <strong>6名</strong> 敌国士兵，但会炸毁附近的 <strong>1棵</strong> 敌国树木。</p> <p>树木的照片如下图所示。</p> <p></p> <img src='stimuli/trees/2.png', style='max-width: 30%;'> </img> <p><strong>你是否选择发射武器？</strong></p>","1",""
"","","","","","html-keyboard-response","22","45330","0.0-4.0-0.9","62","1","2022-10-09 11:05:09","ebf9627b049f568eb4bf28942cb89901","113.201.200.242","Mozilla/5.0 (Linux; Android 11; V1981A Build/RP1A.200720.012; wv) AppleWebKit/537.36 (KHTML, like Gecko) Version/4.0 Chrome/86.0.4240.99 XWEB/4317 MMWEBSDK/20220805 Mobile Safari/537.36 MMWEBID/8575 MicroMessenger/8.0.27.2220(0x28001B59) WeChat/arm64 Weixin NetType/5G Language/zh_CN ABI/arm64","WebKit","Chrome","86.0.4240.99","AndroidOS","11","null","<div style=""font-size:60px;"">+</div>","null",""
"","","","","","html-button-response","23","46601","0.0-4.0-1.9","62","1","2022-10-09 11:05:09","ebf9627b049f568eb4bf28942cb89901","113.201.200.242","Mozilla/5.0 (Linux; Android 11; V1981A Build/RP1A.200720.012; wv) AppleWebKit/537.36 (KHTML, like Gecko) Version/4.0 Chrome/86.0.4240.99 XWEB/4317 MMWEBSDK/20220805 Mobile Safari/537.36 MMWEBID/8575 MicroMessenger/8.0.27.2220(0x28001B59) WeChat/arm64 Weixin NetType/5G Language/zh_CN ABI/arm64","WebKit","Chrome","86.0.4240.99","AndroidOS","11","1254","<p>作为军队的指挥官，你可以选择发射导弹杀死 <strong>8名</strong> 敌国士兵，但会炸毁附近的 <strong>1棵</strong> 敌国树木。</p> <p>树木的照片如下图所示。</p> <p></p> <img src='stimuli/trees/11.png', style='max-width: 30%;'> </img> <p><strong>你是否选择发射武器？</strong></p>","0",""
"","","","","","html-keyboard-response","24","47610","0.0-4.0-0.10","62","1","2022-10-09 11:05:09","ebf9627b049f568eb4bf28942cb89901","113.201.200.242","Mozilla/5.0 (Linux; Android 11; V1981A Build/RP1A.200720.012; wv) AppleWebKit/537.36 (KHTML, like Gecko) Version/4.0 Chrome/86.0.4240.99 XWEB/4317 MMWEBSDK/20220805 Mobile Safari/537.36 MMWEBID/8575 MicroMessenger/8.0.27.2220(0x28001B59) WeChat/arm64 Weixin NetType/5G Language/zh_CN ABI/arm64","WebKit","Chrome","86.0.4240.99","AndroidOS","11","null","<div style=""font-size:60px;"">+</div>","null",""
"","","","","","html-button-response","25","48913","0.0-4.0-1.10","62","1","2022-10-09 11:05:09","ebf9627b049f568eb4bf28942cb89901","113.201.200.242","Mozilla/5.0 (Linux; Android 11; V1981A Build/RP1A.200720.012; wv) AppleWebKit/537.36 (KHTML, like Gecko) Version/4.0 Chrome/86.0.4240.99 XWEB/4317 MMWEBSDK/20220805 Mobile Safari/537.36 MMWEBID/8575 MicroMessenger/8.0.27.2220(0x28001B59) WeChat/arm64 Weixin NetType/5G Language/zh_CN ABI/arm64","WebKit","Chrome","86.0.4240.99","AndroidOS","11","1279","<p>作为军队的指挥官，你可以选择发射导弹杀死 <strong>2名</strong> 敌国士兵，但会误杀附近的 <strong>1名</strong> 敌国平民。</p> <p>平民照片如下图所示。</p> <p></p> <img src='stimuli/faces/NFF2.jpg', style='max-width: 30%;'> </img> <p><strong>你是否选择发射武器？</strong></p>","1",""
"","","","","","html-keyboard-response","26","49921","0.0-4.0-0.11","62","1","2022-10-09 11:05:09","ebf9627b049f568eb4bf28942cb89901","113.201.200.242","Mozilla/5.0 (Linux; Android 11; V1981A Build/RP1A.200720.012; wv) AppleWebKit/537.36 (KHTML, like Gecko) Version/4.0 Chrome/86.0.4240.99 XWEB/4317 MMWEBSDK/20220805 Mobile Safari/537.36 MMWEBID/8575 MicroMessenger/8.0.27.2220(0x28001B59) WeChat/arm64 Weixin NetType/5G Language/zh_CN ABI/arm64","WebKit","Chrome","86.0.4240.99","AndroidOS","11","null","<div style=""font-size:60px;"">+</div>","null",""
"","","","","","html-button-response","27","50597","0.0-4.0-1.11","62","1","2022-10-09 11:05:09","ebf9627b049f568eb4bf28942cb89901","113.201.200.242","Mozilla/5.0 (Linux; Android 11; V1981A Build/RP1A.200720.012; wv) AppleWebKit/537.36 (KHTML, like Gecko) Version/4.0 Chrome/86.0.4240.99 XWEB/4317 MMWEBSDK/20220805 Mobile Safari/537.36 MMWEBID/8575 MicroMessenger/8.0.27.2220(0x28001B59) WeChat/arm64 Weixin NetType/5G Language/zh_CN ABI/arm64","WebKit","Chrome","86.0.4240.99","AndroidOS","11","659","<p>作为军队的指挥官，你可以选择发射导弹杀死 <strong>6名</strong> 敌国士兵，但会炸毁附近的 <strong>1棵</strong> 敌国树木。</p> <p>树木的照片如下图所示。</p> <p></p> <img src='stimuli/trees/6.png', style='max-width: 30%;'> </img> <p><strong>你是否选择发射武器？</strong></p>","0",""
"","","","","","html-keyboard-response","28","51607","0.0-4.0-0.12","62","1","2022-10-09 11:05:09","ebf9627b049f568eb4bf28942cb89901","113.201.200.242","Mozilla/5.0 (Linux; Android 11; V1981A Build/RP1A.200720.012; wv) AppleWebKit/537.36 (KHTML, like Gecko) Version/4.0 Chrome/86.0.4240.99 XWEB/4317 MMWEBSDK/20220805 Mobile Safari/537.36 MMWEBID/8575 MicroMessenger/8.0.27.2220(0x28001B59) WeChat/arm64 Weixin NetType/5G Language/zh_CN ABI/arm64","WebKit","Chrome","86.0.4240.99","AndroidOS","11","null","<div style=""font-size:60px;"">+</div>","null",""
"","","","","","html-button-response","29","52313","0.0-4.0-1.12","62","1","2022-10-09 11:05:09","ebf9627b049f568eb4bf28942cb89901","113.201.200.242","Mozilla/5.0 (Linux; Android 11; V1981A Build/RP1A.200720.012; wv) AppleWebKit/537.36 (KHTML, like Gecko) Version/4.0 Chrome/86.0.4240.99 XWEB/4317 MMWEBSDK/20220805 Mobile Safari/537.36 MMWEBID/8575 MicroMessenger/8.0.27.2220(0x28001B59) WeChat/arm64 Weixin NetType/5G Language/zh_CN ABI/arm64","WebKit","Chrome","86.0.4240.99","AndroidOS","11","695","<p>作为军队的指挥官，你可以选择发射导弹杀死 <strong>6名</strong> 敌国士兵，但会炸毁附近的 <strong>1棵</strong> 敌国树木。</p> <p>树木的照片如下图所示。</p> <p></p> <img src='stimuli/trees/9.png', style='max-width: 30%;'> </img> <p><strong>你是否选择发射武器？</strong></p>","1",""
"","","","","","html-keyboard-response","30","53324","0.0-4.0-0.13","62","1","2022-10-09 11:05:09","ebf9627b049f568eb4bf28942cb89901","113.201.200.242","Mozilla/5.0 (Linux; Android 11; V1981A Build/RP1A.200720.012; wv) AppleWebKit/537.36 (KHTML, like Gecko) Version/4.0 Chrome/86.0.4240.99 XWEB/4317 MMWEBSDK/20220805 Mobile Safari/537.36 MMWEBID/8575 MicroMessenger/8.0.27.2220(0x28001B59) WeChat/arm64 Weixin NetType/5G Language/zh_CN ABI/arm64","WebKit","Chrome","86.0.4240.99","AndroidOS","11","null","<div style=""font-size:60px;"">+</div>","null",""
"","","","","","html-button-response","31","54411","0.0-4.0-1.13","62","1","2022-10-09 11:05:09","ebf9627b049f568eb4bf28942cb89901","113.201.200.242","Mozilla/5.0 (Linux; Android 11; V1981A Build/RP1A.200720.012; wv) AppleWebKit/537.36 (KHTML, like Gecko) Version/4.0 Chrome/86.0.4240.99 XWEB/4317 MMWEBSDK/20220805 Mobile Safari/537.36 MMWEBID/8575 MicroMessenger/8.0.27.2220(0x28001B59) WeChat/arm64 Weixin NetType/5G Language/zh_CN ABI/arm64","WebKit","Chrome","86.0.4240.99","AndroidOS","11","1065","<p>作为军队的指挥官，你可以选择发射导弹杀死 <strong>4名</strong> 敌国士兵，但会炸毁附近的 <strong>1棵</strong> 敌国树木。</p> <p>树木的照片如下图所示。</p> <p></p> <img src='stimuli/trees/2.png', style='max-width: 30%;'> </img> <p><strong>你是否选择发射武器？</strong></p>","0",""
"","","","","","html-keyboard-response","32","55418","0.0-4.0-0.14","62","1","2022-10-09 11:05:09","ebf9627b049f568eb4bf28942cb89901","113.201.200.242","Mozilla/5.0 (Linux; Android 11; V1981A Build/RP1A.200720.012; wv) AppleWebKit/537.36 (KHTML, like Gecko) Version/4.0 Chrome/86.0.4240.99 XWEB/4317 MMWEBSDK/20220805 Mobile Safari/537.36 MMWEBID/8575 MicroMessenger/8.0.27.2220(0x28001B59) WeChat/arm64 Weixin NetType/5G Language/zh_CN ABI/arm64","WebKit","Chrome","86.0.4240.99","AndroidOS","11","null","<div style=""font-size:60px;"">+</div>","null",""
"","","","","","html-button-response","33","56018","0.0-4.0-1.14","62","1","2022-10-09 11:05:09","ebf9627b049f568eb4bf28942cb89901","113.201.200.242","Mozilla/5.0 (Linux; Android 11; V1981A Build/RP1A.200720.012; wv) AppleWebKit/537.36 (KHTML, like Gecko) Version/4.0 Chrome/86.0.4240.99 XWEB/4317 MMWEBSDK/20220805 Mobile Safari/537.36 MMWEBID/8575 MicroMessenger/8.0.27.2220(0x28001B59) WeChat/arm64 Weixin NetType/5G Language/zh_CN ABI/arm64","WebKit","Chrome","86.0.4240.99","AndroidOS","11","580","<p>作为军队的指挥官，你可以选择发射导弹杀死 <strong>6名</strong> 敌国士兵，但会误杀附近的 <strong>1名</strong> 敌国平民。</p> <p>平民照片如下图所示。</p> <p></p> <img src='stimuli/faces/NFM4.jpg', style='max-width: 30%;'> </img> <p><strong>你是否选择发射武器？</strong></p>","1",""
"","","","","","html-keyboard-response","34","57025","0.0-4.0-0.15","62","1","2022-10-09 11:05:09","ebf9627b049f568eb4bf28942cb89901","113.201.200.242","Mozilla/5.0 (Linux; Android 11; V1981A Build/RP1A.200720.012; wv) AppleWebKit/537.36 (KHTML, like Gecko) Version/4.0 Chrome/86.0.4240.99 XWEB/4317 MMWEBSDK/20220805 Mobile Safari/537.36 MMWEBID/8575 MicroMessenger/8.0.27.2220(0x28001B59) WeChat/arm64 Weixin NetType/5G Language/zh_CN ABI/arm64","WebKit","Chrome","86.0.4240.99","AndroidOS","11","null","<div style=""font-size:60px;"">+</div>","null",""
"","","","","","html-button-response","35","57795","0.0-4.0-1.15","62","1","2022-10-09 11:05:09","ebf9627b049f568eb4bf28942cb89901","113.201.200.242","Mozilla/5.0 (Linux; Android 11; V1981A Build/RP1A.200720.012; wv) AppleWebKit/537.36 (KHTML, like Gecko) Version/4.0 Chrome/86.0.4240.99 XWEB/4317 MMWEBSDK/20220805 Mobile Safari/537.36 MMWEBID/8575 MicroMessenger/8.0.27.2220(0x28001B59) WeChat/arm64 Weixin NetType/5G Language/zh_CN ABI/arm64","WebKit","Chrome","86.0.4240.99","AndroidOS","11","750","<p>作为军队的指挥官，你可以选择发射导弹杀死 <strong>2名</strong> 敌国士兵，但会误杀附近的 <strong>1名</strong> 敌国平民。</p> <p>平民照片如下图所示。</p> <p></p> <img src='stimuli/faces/NFM4.jpg', style='max-width: 30%;'> </img> <p><strong>你是否选择发射武器？</strong></p>","0",""
"","","","","","html-keyboard-response","36","58804","0.0-4.0-0.16","62","1","2022-10-09 11:05:09","ebf9627b049f568eb4bf28942cb89901","113.201.200.242","Mozilla/5.0 (Linux; Android 11; V1981A Build/RP1A.200720.012; wv) AppleWebKit/537.36 (KHTML, like Gecko) Version/4.0 Chrome/86.0.4240.99 XWEB/4317 MMWEBSDK/20220805 Mobile Safari/537.36 MMWEBID/8575 MicroMessenger/8.0.27.2220(0x28001B59) WeChat/arm64 Weixin NetType/5G Language/zh_CN ABI/arm64","WebKit","Chrome","86.0.4240.99","AndroidOS","11","null","<div style=""font-size:60px;"">+</div>","null",""
"","","","","","html-button-response","37","61359","0.0-4.0-1.16","62","1","2022-10-09 11:05:09","ebf9627b049f568eb4bf28942cb89901","113.201.200.242","Mozilla/5.0 (Linux; Android 11; V1981A Build/RP1A.200720.012; wv) AppleWebKit/537.36 (KHTML, like Gecko) Version/4.0 Chrome/86.0.4240.99 XWEB/4317 MMWEBSDK/20220805 Mobile Safari/537.36 MMWEBID/8575 MicroMessenger/8.0.27.2220(0x28001B59) WeChat/arm64 Weixin NetType/5G Language/zh_CN ABI/arm64","WebKit","Chrome","86.0.4240.99","AndroidOS","11","2535","<p>作为军队的指挥官，你可以选择发射导弹杀死 <strong>2名</strong> 敌国士兵，但会误杀附近的 <strong>1名</strong> 敌国平民。</p> <p>平民照片如下图所示。</p> <p></p> <img src='stimuli/faces/NFF8.jpg', style='max-width: 30%;'> </img> <p><strong>你是否选择发射武器？</strong></p>","1",""
"","","","","","html-keyboard-response","38","62367","0.0-4.0-0.17","62","1","2022-10-09 11:05:09","ebf9627b049f568eb4bf28942cb89901","113.201.200.242","Mozilla/5.0 (Linux; Android 11; V1981A Build/RP1A.200720.012; wv) AppleWebKit/537.36 (KHTML, like Gecko) Version/4.0 Chrome/86.0.4240.99 XWEB/4317 MMWEBSDK/20220805 Mobile Safari/537.36 MMWEBID/8575 MicroMessenger/8.0.27.2220(0x28001B59) WeChat/arm64 Weixin NetType/5G Language/zh_CN ABI/arm64","WebKit","Chrome","86.0.4240.99","AndroidOS","11","null","<div style=""font-size:60px;"">+</div>","null",""
"","","","","","html-button-response","39","63136","0.0-4.0-1.17","62","1","2022-10-09 11:05:09","ebf9627b049f568eb4bf28942cb89901","113.201.200.242","Mozilla/5.0 (Linux; Android 11; V1981A Build/RP1A.200720.012; wv) AppleWebKit/537.36 (KHTML, like Gecko) Version/4.0 Chrome/86.0.4240.99 XWEB/4317 MMWEBSDK/20220805 Mobile Safari/537.36 MMWEBID/8575 MicroMessenger/8.0.27.2220(0x28001B59) WeChat/arm64 Weixin NetType/5G Language/zh_CN ABI/arm64","WebKit","Chrome","86.0.4240.99","AndroidOS","11","745","<p>作为军队的指挥官，你可以选择发射导弹杀死 <strong>8名</strong> 敌国士兵，但会误杀附近的 <strong>1名</strong> 敌国平民。</p> <p>平民照片如下图所示。</p> <p></p> <img src='stimuli/faces/NFF7.jpg', style='max-width: 30%;'> </img> <p><strong>你是否选择发射武器？</strong></p>","0",""
"","","","","","html-keyboard-response","40","64143","0.0-4.0-0.18","62","1","2022-10-09 11:05:09","ebf9627b049f568eb4bf28942cb89901","113.201.200.242","Mozilla/5.0 (Linux; Android 11; V1981A Build/RP1A.200720.012; wv) AppleWebKit/537.36 (KHTML, like Gecko) Version/4.0 Chrome/86.0.4240.99 XWEB/4317 MMWEBSDK/20220805 Mobile Safari/537.36 MMWEBID/8575 MicroMessenger/8.0.27.2220(0x28001B59) WeChat/arm64 Weixin NetType/5G Language/zh_CN ABI/arm64","WebKit","Chrome","86.0.4240.99","AndroidOS","11","null","<div style=""font-size:60px;"">+</div>","null",""
"","","","","","html-button-response","41","66078","0.0-4.0-1.18","62","1","2022-10-09 11:05:09","ebf9627b049f568eb4bf28942cb89901","113.201.200.242","Mozilla/5.0 (Linux; Android 11; V1981A Build/RP1A.200720.012; wv) AppleWebKit/537.36 (KHTML, like Gecko) Version/4.0 Chrome/86.0.4240.99 XWEB/4317 MMWEBSDK/20220805 Mobile Safari/537.36 MMWEBID/8575 MicroMessenger/8.0.27.2220(0x28001B59) WeChat/arm64 Weixin NetType/5G Language/zh_CN ABI/arm64","WebKit","Chrome","86.0.4240.99","AndroidOS","11","1911","<p>作为军队的指挥官，你可以选择发射导弹杀死 <strong>2名</strong> 敌国士兵，但会炸毁附近的 <strong>1棵</strong> 敌国树木。</p> <p>树木的照片如下图所示。</p> <p></p> <img src='stimuli/trees/4.png', style='max-width: 30%;'> </img> <p><strong>你是否选择发射武器？</strong></p>","0",""
"","","","","","html-keyboard-response","42","67088","0.0-4.0-0.19","62","1","2022-10-09 11:05:09","ebf9627b049f568eb4bf28942cb89901","113.201.200.242","Mozilla/5.0 (Linux; Android 11; V1981A Build/RP1A.200720.012; wv) AppleWebKit/537.36 (KHTML, like Gecko) Version/4.0 Chrome/86.0.4240.99 XWEB/4317 MMWEBSDK/20220805 Mobile Safari/537.36 MMWEBID/8575 MicroMessenger/8.0.27.2220(0x28001B59) WeChat/arm64 Weixin NetType/5G Language/zh_CN ABI/arm64","WebKit","Chrome","86.0.4240.99","AndroidOS","11","null","<div style=""font-size:60px;"">+</div>","null",""
"","","","","","html-button-response","43","68756","0.0-4.0-1.19","62","1","2022-10-09 11:05:09","ebf9627b049f568eb4bf28942cb89901","113.201.200.242","Mozilla/5.0 (Linux; Android 11; V1981A Build/RP1A.200720.012; wv) AppleWebKit/537.36 (KHTML, like Gecko) Version/4.0 Chrome/86.0.4240.99 XWEB/4317 MMWEBSDK/20220805 Mobile Safari/537.36 MMWEBID/8575 MicroMessenger/8.0.27.2220(0x28001B59) WeChat/arm64 Weixin NetType/5G Language/zh_CN ABI/arm64","WebKit","Chrome","86.0.4240.99","AndroidOS","11","1656","<p>作为军队的指挥官，你可以选择发射导弹杀死 <strong>10名</strong> 敌国士兵，但会炸毁附近的 <strong>1棵</strong> 敌国树木。</p> <p>树木的照片如下图所示。</p> <p></p> <img src='stimuli/trees/5.png', style='max-width: 30%;'> </img> <p><strong>你是否选择发射武器？</strong></p>","1",""
"","","","","","html-keyboard-response","44","69769","0.0-4.0-0.20","62","1","2022-10-09 11:05:09","ebf9627b049f568eb4bf28942cb89901","113.201.200.242","Mozilla/5.0 (Linux; Android 11; V1981A Build/RP1A.200720.012; wv) AppleWebKit/537.36 (KHTML, like Gecko) Version/4.0 Chrome/86.0.4240.99 XWEB/4317 MMWEBSDK/20220805 Mobile Safari/537.36 MMWEBID/8575 MicroMessenger/8.0.27.2220(0x28001B59) WeChat/arm64 Weixin NetType/5G Language/zh_CN ABI/arm64","WebKit","Chrome","86.0.4240.99","AndroidOS","11","null","<div style=""font-size:60px;"">+</div>","null",""
"","","","","","html-button-response","45","70865","0.0-4.0-1.20","62","1","2022-10-09 11:05:09","ebf9627b049f568eb4bf28942cb89901","113.201.200.242","Mozilla/5.0 (Linux; Android 11; V1981A Build/RP1A.200720.012; wv) AppleWebKit/537.36 (KHTML, like Gecko) Version/4.0 Chrome/86.0.4240.99 XWEB/4317 MMWEBSDK/20220805 Mobile Safari/537.36 MMWEBID/8575 MicroMessenger/8.0.27.2220(0x28001B59) WeChat/arm64 Weixin NetType/5G Language/zh_CN ABI/arm64","WebKit","Chrome","86.0.4240.99","AndroidOS","11","1070","<p>作为军队的指挥官，你可以选择发射导弹杀死 <strong>7名</strong> 敌国士兵，但会炸毁附近的 <strong>1棵</strong> 敌国树木。</p> <p>树木的照片如下图所示。</p> <p></p> <img src='stimuli/trees/3.png', style='max-width: 30%;'> </img> <p><strong>你是否选择发射武器？</strong></p>","0",""
"","","","","","html-keyboard-response","46","71871","0.0-4.0-0.21","62","1","2022-10-09 11:05:09","ebf9627b049f568eb4bf28942cb89901","113.201.200.242","Mozilla/5.0 (Linux; Android 11; V1981A Build/RP1A.200720.012; wv) AppleWebKit/537.36 (KHTML, like Gecko) Version/4.0 Chrome/86.0.4240.99 XWEB/4317 MMWEBSDK/20220805 Mobile Safari/537.36 MMWEBID/8575 MicroMessenger/8.0.27.2220(0x28001B59) WeChat/arm64 Weixin NetType/5G Language/zh_CN ABI/arm64","WebKit","Chrome","86.0.4240.99","AndroidOS","11","null","<div style=""font-size:60px;"">+</div>","null",""
"","","","","","html-button-response","47","76575","0.0-4.0-1.21","62","1","2022-10-09 11:05:09","ebf9627b049f568eb4bf28942cb89901","113.201.200.242","Mozilla/5.0 (Linux; Android 11; V1981A Build/RP1A.200720.012; wv) AppleWebKit/537.36 (KHTML, like Gecko) Version/4.0 Chrome/86.0.4240.99 XWEB/4317 MMWEBSDK/20220805 Mobile Safari/537.36 MMWEBID/8575 MicroMessenger/8.0.27.2220(0x28001B59) WeChat/arm64 Weixin NetType/5G Language/zh_CN ABI/arm64","WebKit","Chrome","86.0.4240.99","AndroidOS","11","4690","<p>作为军队的指挥官，你可以选择发射导弹杀死 <strong>2名</strong> 敌国士兵，但会炸毁附近的 <strong>1棵</strong> 敌国树木。</p> <p>树木的照片如下图所示。</p> <p></p> <img src='stimuli/trees/16.png', style='max-width: 30%;'> </img> <p><strong>你是否选择发射武器？</strong></p>","0",""
"","","","","","html-keyboard-response","48","77585","0.0-4.0-0.22","62","1","2022-10-09 11:05:09","ebf9627b049f568eb4bf28942cb89901","113.201.200.242","Mozilla/5.0 (Linux; Android 11; V1981A Build/RP1A.200720.012; wv) AppleWebKit/537.36 (KHTML, like Gecko) Version/4.0 Chrome/86.0.4240.99 XWEB/4317 MMWEBSDK/20220805 Mobile Safari/537.36 MMWEBID/8575 MicroMessenger/8.0.27.2220(0x28001B59) WeChat/arm64 Weixin NetType/5G Language/zh_CN ABI/arm64","WebKit","Chrome","86.0.4240.99","AndroidOS","11","null","<div style=""font-size:60px;"">+</div>","null",""
"","","","","","html-button-response","49","79700","0.0-4.0-1.22","62","1","2022-10-09 11:05:09","ebf9627b049f568eb4bf28942cb89901","113.201.200.242","Mozilla/5.0 (Linux; Android 11; V1981A Build/RP1A.200720.012; wv) AppleWebKit/537.36 (KHTML, like Gecko) Version/4.0 Chrome/86.0.4240.99 XWEB/4317 MMWEBSDK/20220805 Mobile Safari/537.36 MMWEBID/8575 MicroMessenger/8.0.27.2220(0x28001B59) WeChat/arm64 Weixin NetType/5G Language/zh_CN ABI/arm64","WebKit","Chrome","86.0.4240.99","AndroidOS","11","2099","<p>作为军队的指挥官，你可以选择发射导弹杀死 <strong>10名</strong> 敌国士兵，但会炸毁附近的 <strong>1棵</strong> 敌国树木。</p> <p>树木的照片如下图所示。</p> <p></p> <img src='stimuli/trees/15.png', style='max-width: 30%;'> </img> <p><strong>你是否选择发射武器？</strong></p>","0",""
"","","","","","html-keyboard-response","50","80713","0.0-4.0-0.23","62","1","2022-10-09 11:05:09","ebf9627b049f568eb4bf28942cb89901","113.201.200.242","Mozilla/5.0 (Linux; Android 11; V1981A Build/RP1A.200720.012; wv) AppleWebKit/537.36 (KHTML, like Gecko) Version/4.0 Chrome/86.0.4240.99 XWEB/4317 MMWEBSDK/20220805 Mobile Safari/537.36 MMWEBID/8575 MicroMessenger/8.0.27.2220(0x28001B59) WeChat/arm64 Weixin NetType/5G Language/zh_CN ABI/arm64","WebKit","Chrome","86.0.4240.99","AndroidOS","11","null","<div style=""font-size:60px;"">+</div>","null",""
"","","","","","html-button-response","51","81699","0.0-4.0-1.23","62","1","2022-10-09 11:05:09","ebf9627b049f568eb4bf28942cb89901","113.201.200.242","Mozilla/5.0 (Linux; Android 11; V1981A Build/RP1A.200720.012; wv) AppleWebKit/537.36 (KHTML, like Gecko) Version/4.0 Chrome/86.0.4240.99 XWEB/4317 MMWEBSDK/20220805 Mobile Safari/537.36 MMWEBID/8575 MicroMessenger/8.0.27.2220(0x28001B59) WeChat/arm64 Weixin NetType/5G Language/zh_CN ABI/arm64","WebKit","Chrome","86.0.4240.99","AndroidOS","11","964","<p>作为军队的指挥官，你可以选择发射导弹杀死 <strong>4名</strong> 敌国士兵，但会炸毁附近的 <strong>1棵</strong> 敌国树木。</p> <p>树木的照片如下图所示。</p> <p></p> <img src='stimuli/trees/6.png', style='max-width: 30%;'> </img> <p><strong>你是否选择发射武器？</strong></p>","1",""
"","","","","","html-keyboard-response","52","82710","0.0-4.0-0.24","62","1","2022-10-09 11:05:09","ebf9627b049f568eb4bf28942cb89901","113.201.200.242","Mozilla/5.0 (Linux; Android 11; V1981A Build/RP1A.200720.012; wv) AppleWebKit/537.36 (KHTML, like Gecko) Version/4.0 Chrome/86.0.4240.99 XWEB/4317 MMWEBSDK/20220805 Mobile Safari/537.36 MMWEBID/8575 MicroMessenger/8.0.27.2220(0x28001B59) WeChat/arm64 Weixin NetType/5G Language/zh_CN ABI/arm64","WebKit","Chrome","86.0.4240.99","AndroidOS","11","null","<div style=""font-size:60px;"">+</div>","null",""
"","","","","","html-button-response","53","87120","0.0-4.0-1.24","62","1","2022-10-09 11:05:09","ebf9627b049f568eb4bf28942cb89901","113.201.200.242","Mozilla/5.0 (Linux; Android 11; V1981A Build/RP1A.200720.012; wv) AppleWebKit/537.36 (KHTML, like Gecko) Version/4.0 Chrome/86.0.4240.99 XWEB/4317 MMWEBSDK/20220805 Mobile Safari/537.36 MMWEBID/8575 MicroMessenger/8.0.27.2220(0x28001B59) WeChat/arm64 Weixin NetType/5G Language/zh_CN ABI/arm64","WebKit","Chrome","86.0.4240.99","AndroidOS","11","4384","<p>作为军队的指挥官，你可以选择发射导弹杀死 <strong>6名</strong> 敌国士兵，但会误杀附近的 <strong>1名</strong> 敌国平民。</p> <p>平民照片如下图所示。</p> <p></p> <img src='stimuli/faces/NFM1.jpg', style='max-width: 30%;'> </img> <p><strong>你是否选择发射武器？</strong></p>","0",""
"","","","","","html-keyboard-response","54","88130","0.0-4.0-0.25","62","1","2022-10-09 11:05:09","ebf9627b049f568eb4bf28942cb89901","113.201.200.242","Mozilla/5.0 (Linux; Android 11; V1981A Build/RP1A.200720.012; wv) AppleWebKit/537.36 (KHTML, like Gecko) Version/4.0 Chrome/86.0.4240.99 XWEB/4317 MMWEBSDK/20220805 Mobile Safari/537.36 MMWEBID/8575 MicroMessenger/8.0.27.2220(0x28001B59) WeChat/arm64 Weixin NetType/5G Language/zh_CN ABI/arm64","WebKit","Chrome","86.0.4240.99","AndroidOS","11","null","<div style=""font-size:60px;"">+</div>","null",""
"","","","","","html-button-response","55","89043","0.0-4.0-1.25","62","1","2022-10-09 11:05:09","ebf9627b049f568eb4bf28942cb89901","113.201.200.242","Mozilla/5.0 (Linux; Android 11; V1981A Build/RP1A.200720.012; wv) AppleWebKit/537.36 (KHTML, like Gecko) Version/4.0 Chrome/86.0.4240.99 XWEB/4317 MMWEBSDK/20220805 Mobile Safari/537.36 MMWEBID/8575 MicroMessenger/8.0.27.2220(0x28001B59) WeChat/arm64 Weixin NetType/5G Language/zh_CN ABI/arm64","WebKit","Chrome","86.0.4240.99","AndroidOS","11","882","<p>作为军队的指挥官，你可以选择发射导弹杀死 <strong>8名</strong> 敌国士兵，但会误杀附近的 <strong>1名</strong> 敌国平民。</p> <p>平民照片如下图所示。</p> <p></p> <img src='stimuli/faces/NFM6.jpg', style='max-width: 30%;'> </img> <p><strong>你是否选择发射武器？</strong></p>","1",""
"","","","","","html-keyboard-response","56","90059","0.0-4.0-0.26","62","1","2022-10-09 11:05:09","ebf9627b049f568eb4bf28942cb89901","113.201.200.242","Mozilla/5.0 (Linux; Android 11; V1981A Build/RP1A.200720.012; wv) AppleWebKit/537.36 (KHTML, like Gecko) Version/4.0 Chrome/86.0.4240.99 XWEB/4317 MMWEBSDK/20220805 Mobile Safari/537.36 MMWEBID/8575 MicroMessenger/8.0.27.2220(0x28001B59) WeChat/arm64 Weixin NetType/5G Language/zh_CN ABI/arm64","WebKit","Chrome","86.0.4240.99","AndroidOS","11","null","<div style=""font-size:60px;"">+</div>","null",""
"","","","","","html-button-response","57","91195","0.0-4.0-1.26","62","1","2022-10-09 11:05:09","ebf9627b049f568eb4bf28942cb89901","113.201.200.242","Mozilla/5.0 (Linux; Android 11; V1981A Build/RP1A.200720.012; wv) AppleWebKit/537.36 (KHTML, like Gecko) Version/4.0 Chrome/86.0.4240.99 XWEB/4317 MMWEBSDK/20220805 Mobile Safari/537.36 MMWEBID/8575 MicroMessenger/8.0.27.2220(0x28001B59) WeChat/arm64 Weixin NetType/5G Language/zh_CN ABI/arm64","WebKit","Chrome","86.0.4240.99","AndroidOS","11","1105","<p>作为军队的指挥官，你可以选择发射导弹杀死 <strong>5名</strong> 敌国士兵，但会误杀附近的 <strong>1名</strong> 敌国平民。</p> <p>平民照片如下图所示。</p> <p></p> <img src='stimuli/faces/NFF4.jpg', style='max-width: 30%;'> </img> <p><strong>你是否选择发射武器？</strong></p>","0",""
"","","","","","html-keyboard-response","58","92205","0.0-4.0-0.27","62","1","2022-10-09 11:05:09","ebf9627b049f568eb4bf28942cb89901","113.201.200.242","Mozilla/5.0 (Linux; Android 11; V1981A Build/RP1A.200720.012; wv) AppleWebKit/537.36 (KHTML, like Gecko) Version/4.0 Chrome/86.0.4240.99 XWEB/4317 MMWEBSDK/20220805 Mobile Safari/537.36 MMWEBID/8575 MicroMessenger/8.0.27.2220(0x28001B59) WeChat/arm64 Weixin NetType/5G Language/zh_CN ABI/arm64","WebKit","Chrome","86.0.4240.99","AndroidOS","11","null","<div style=""font-size:60px;"">+</div>","null",""
"","","","","","html-button-response","59","92925","0.0-4.0-1.27","62","1","2022-10-09 11:05:09","ebf9627b049f568eb4bf28942cb89901","113.201.200.242","Mozilla/5.0 (Linux; Android 11; V1981A Build/RP1A.200720.012; wv) AppleWebKit/537.36 (KHTML, like Gecko) Version/4.0 Chrome/86.0.4240.99 XWEB/4317 MMWEBSDK/20220805 Mobile Safari/537.36 MMWEBID/8575 MicroMessenger/8.0.27.2220(0x28001B59) WeChat/arm64 Weixin NetType/5G Language/zh_CN ABI/arm64","WebKit","Chrome","86.0.4240.99","AndroidOS","11","693","<p>作为军队的指挥官，你可以选择发射导弹杀死 <strong>6名</strong> 敌国士兵，但会误杀附近的 <strong>1名</strong> 敌国平民。</p> <p>平民照片如下图所示。</p> <p></p> <img src='stimuli/faces/NFF8.jpg', style='max-width: 30%;'> </img> <p><strong>你是否选择发射武器？</strong></p>","1",""
"","","","","","html-keyboard-response","60","93942","0.0-4.0-0.28","62","1","2022-10-09 11:05:09","ebf9627b049f568eb4bf28942cb89901","113.201.200.242","Mozilla/5.0 (Linux; Android 11; V1981A Build/RP1A.200720.012; wv) AppleWebKit/537.36 (KHTML, like Gecko) Version/4.0 Chrome/86.0.4240.99 XWEB/4317 MMWEBSDK/20220805 Mobile Safari/537.36 MMWEBID/8575 MicroMessenger/8.0.27.2220(0x28001B59) WeChat/arm64 Weixin NetType/5G Language/zh_CN ABI/arm64","WebKit","Chrome","86.0.4240.99","AndroidOS","11","null","<div style=""font-size:60px;"">+</div>","null",""
"","","","","","html-button-response","61","105424","0.0-4.0-1.28","62","1","2022-10-09 11:05:09","ebf9627b049f568eb4bf28942cb89901","113.201.200.242","Mozilla/5.0 (Linux; Android 11; V1981A Build/RP1A.200720.012; wv) AppleWebKit/537.36 (KHTML, like Gecko) Version/4.0 Chrome/86.0.4240.99 XWEB/4317 MMWEBSDK/20220805 Mobile Safari/537.36 MMWEBID/8575 MicroMessenger/8.0.27.2220(0x28001B59) WeChat/arm64 Weixin NetType/5G Language/zh_CN ABI/arm64","WebKit","Chrome","86.0.4240.99","AndroidOS","11","11457","<p>作为军队的指挥官，你可以选择发射导弹杀死 <strong>1名</strong> 敌国士兵，但会炸毁附近的 <strong>1棵</strong> 敌国树木。</p> <p>树木的照片如下图所示。</p> <p></p> <img src='stimuli/trees/8.png', style='max-width: 30%;'> </img> <p><strong>你是否选择发射武器？</strong></p>","0",""
"","","","","","html-keyboard-response","62","106438","0.0-4.0-0.29","62","1","2022-10-09 11:05:09","ebf9627b049f568eb4bf28942cb89901","113.201.200.242","Mozilla/5.0 (Linux; Android 11; V1981A Build/RP1A.200720.012; wv) AppleWebKit/537.36 (KHTML, like Gecko) Version/4.0 Chrome/86.0.4240.99 XWEB/4317 MMWEBSDK/20220805 Mobile Safari/537.36 MMWEBID/8575 MicroMessenger/8.0.27.2220(0x28001B59) WeChat/arm64 Weixin NetType/5G Language/zh_CN ABI/arm64","WebKit","Chrome","86.0.4240.99","AndroidOS","11","null","<div style=""font-size:60px;"">+</div>","null",""
"","","","","","html-button-response","63","110068","0.0-4.0-1.29","62","1","2022-10-09 11:05:09","ebf9627b049f568eb4bf28942cb89901","113.201.200.242","Mozilla/5.0 (Linux; Android 11; V1981A Build/RP1A.200720.012; wv) AppleWebKit/537.36 (KHTML, like Gecko) Version/4.0 Chrome/86.0.4240.99 XWEB/4317 MMWEBSDK/20220805 Mobile Safari/537.36 MMWEBID/8575 MicroMessenger/8.0.27.2220(0x28001B59) WeChat/arm64 Weixin NetType/5G Language/zh_CN ABI/arm64","WebKit","Chrome","86.0.4240.99","AndroidOS","11","3603","<p>作为军队的指挥官，你可以选择发射导弹杀死 <strong>5名</strong> 敌国士兵，但会炸毁附近的 <strong>1棵</strong> 敌国树木。</p> <p>树木的照片如下图所示。</p> <p></p> <img src='stimuli/trees/15.png', style='max-width: 30%;'> </img> <p><strong>你是否选择发射武器？</strong></p>","0",""
"","","","","","html-keyboard-response","64","111079","0.0-4.0-0.30","62","1","2022-10-09 11:05:09","ebf9627b049f568eb4bf28942cb89901","113.201.200.242","Mozilla/5.0 (Linux; Android 11; V1981A Build/RP1A.200720.012; wv) AppleWebKit/537.36 (KHTML, like Gecko) Version/4.0 Chrome/86.0.4240.99 XWEB/4317 MMWEBSDK/20220805 Mobile Safari/537.36 MMWEBID/8575 MicroMessenger/8.0.27.2220(0x28001B59) WeChat/arm64 Weixin NetType/5G Language/zh_CN ABI/arm64","WebKit","Chrome","86.0.4240.99","AndroidOS","11","null","<div style=""font-size:60px;"">+</div>","null",""
"","","","","","html-button-response","65","112652","0.0-4.0-1.30","62","1","2022-10-09 11:05:09","ebf9627b049f568eb4bf28942cb89901","113.201.200.242","Mozilla/5.0 (Linux; Android 11; V1981A Build/RP1A.200720.012; wv) AppleWebKit/537.36 (KHTML, like Gecko) Version/4.0 Chrome/86.0.4240.99 XWEB/4317 MMWEBSDK/20220805 Mobile Safari/537.36 MMWEBID/8575 MicroMessenger/8.0.27.2220(0x28001B59) WeChat/arm64 Weixin NetType/5G Language/zh_CN ABI/arm64","WebKit","Chrome","86.0.4240.99","AndroidOS","11","1562","<p>作为军队的指挥官，你可以选择发射导弹杀死 <strong>5名</strong> 敌国士兵，但会误杀附近的 <strong>1名</strong> 敌国平民。</p> <p>平民照片如下图所示。</p> <p></p> <img src='stimuli/faces/NFF7.jpg', style='max-width: 30%;'> </img> <p><strong>你是否选择发射武器？</strong></p>","1",""
"","","","","","html-keyboard-response","66","113671","0.0-4.0-0.31","62","1","2022-10-09 11:05:09","ebf9627b049f568eb4bf28942cb89901","113.201.200.242","Mozilla/5.0 (Linux; Android 11; V1981A Build/RP1A.200720.012; wv) AppleWebKit/537.36 (KHTML, like Gecko) Version/4.0 Chrome/86.0.4240.99 XWEB/4317 MMWEBSDK/20220805 Mobile Safari/537.36 MMWEBID/8575 MicroMessenger/8.0.27.2220(0x28001B59) WeChat/arm64 Weixin NetType/5G Language/zh_CN ABI/arm64","WebKit","Chrome","86.0.4240.99","AndroidOS","11","null","<div style=""font-size:60px;"">+</div>","null",""
"","","","","","html-button-response","67","114595","0.0-4.0-1.31","62","1","2022-10-09 11:05:09","ebf9627b049f568eb4bf28942cb89901","113.201.200.242","Mozilla/5.0 (Linux; Android 11; V1981A Build/RP1A.200720.012; wv) AppleWebKit/537.36 (KHTML, like Gecko) Version/4.0 Chrome/86.0.4240.99 XWEB/4317 MMWEBSDK/20220805 Mobile Safari/537.36 MMWEBID/8575 MicroMessenger/8.0.27.2220(0x28001B59) WeChat/arm64 Weixin NetType/5G Language/zh_CN ABI/arm64","WebKit","Chrome","86.0.4240.99","AndroidOS","11","899","<p>作为军队的指挥官，你可以选择发射导弹杀死 <strong>3名</strong> 敌国士兵，但会炸毁附近的 <strong>1棵</strong> 敌国树木。</p> <p>树木的照片如下图所示。</p> <p></p> <img src='stimuli/trees/12.png', style='max-width: 30%;'> </img> <p><strong>你是否选择发射武器？</strong></p>","0",""
"","","","","","html-keyboard-response","68","115606","0.0-4.0-0.32","62","1","2022-10-09 11:05:09","ebf9627b049f568eb4bf28942cb89901","113.201.200.242","Mozilla/5.0 (Linux; Android 11; V1981A Build/RP1A.200720.012; wv) AppleWebKit/537.36 (KHTML, like Gecko) Version/4.0 Chrome/86.0.4240.99 XWEB/4317 MMWEBSDK/20220805 Mobile Safari/537.36 MMWEBID/8575 MicroMessenger/8.0.27.2220(0x28001B59) WeChat/arm64 Weixin NetType/5G Language/zh_CN ABI/arm64","WebKit","Chrome","86.0.4240.99","AndroidOS","11","null","<div style=""font-size:60px;"">+</div>","null",""
"","","","","","html-button-response","69","118234","0.0-4.0-1.32","62","1","2022-10-09 11:05:09","ebf9627b049f568eb4bf28942cb89901","113.201.200.242","Mozilla/5.0 (Linux; Android 11; V1981A Build/RP1A.200720.012; wv) AppleWebKit/537.36 (KHTML, like Gecko) Version/4.0 Chrome/86.0.4240.99 XWEB/4317 MMWEBSDK/20220805 Mobile Safari/537.36 MMWEBID/8575 MicroMessenger/8.0.27.2220(0x28001B59) WeChat/arm64 Weixin NetType/5G Language/zh_CN ABI/arm64","WebKit","Chrome","86.0.4240.99","AndroidOS","11","2602","<p>作为军队的指挥官，你可以选择发射导弹杀死 <strong>10名</strong> 敌国士兵，但会误杀附近的 <strong>1名</strong> 敌国平民。</p> <p>平民照片如下图所示。</p> <p></p> <img src='stimuli/faces/NFM7.jpg', style='max-width: 30%;'> </img> <p><strong>你是否选择发射武器？</strong></p>","0",""
"","","","","","html-keyboard-response","70","119244","0.0-4.0-0.33","62","1","2022-10-09 11:05:09","ebf9627b049f568eb4bf28942cb89901","113.201.200.242","Mozilla/5.0 (Linux; Android 11; V1981A Build/RP1A.200720.012; wv) AppleWebKit/537.36 (KHTML, like Gecko) Version/4.0 Chrome/86.0.4240.99 XWEB/4317 MMWEBSDK/20220805 Mobile Safari/537.36 MMWEBID/8575 MicroMessenger/8.0.27.2220(0x28001B59) WeChat/arm64 Weixin NetType/5G Language/zh_CN ABI/arm64","WebKit","Chrome","86.0.4240.99","AndroidOS","11","null","<div style=""font-size:60px;"">+</div>","null",""
"","","","","","html-button-response","71","120240","0.0-4.0-1.33","62","1","2022-10-09 11:05:09","ebf9627b049f568eb4bf28942cb89901","113.201.200.242","Mozilla/5.0 (Linux; Android 11; V1981A Build/RP1A.200720.012; wv) AppleWebKit/537.36 (KHTML, like Gecko) Version/4.0 Chrome/86.0.4240.99 XWEB/4317 MMWEBSDK/20220805 Mobile Safari/537.36 MMWEBID/8575 MicroMessenger/8.0.27.2220(0x28001B59) WeChat/arm64 Weixin NetType/5G Language/zh_CN ABI/arm64","WebKit","Chrome","86.0.4240.99","AndroidOS","11","973","<p>作为军队的指挥官，你可以选择发射导弹杀死 <strong>1名</strong> 敌国士兵，但会炸毁附近的 <strong>1棵</strong> 敌国树木。</p> <p>树木的照片如下图所示。</p> <p></p> <img src='stimuli/trees/3.png', style='max-width: 30%;'> </img> <p><strong>你是否选择发射武器？</strong></p>","1",""
"","","","","","html-keyboard-response","72","121252","0.0-4.0-0.34","62","1","2022-10-09 11:05:09","ebf9627b049f568eb4bf28942cb89901","113.201.200.242","Mozilla/5.0 (Linux; Android 11; V1981A Build/RP1A.200720.012; wv) AppleWebKit/537.36 (KHTML, like Gecko) Version/4.0 Chrome/86.0.4240.99 XWEB/4317 MMWEBSDK/20220805 Mobile Safari/537.36 MMWEBID/8575 MicroMessenger/8.0.27.2220(0x28001B59) WeChat/arm64 Weixin NetType/5G Language/zh_CN ABI/arm64","WebKit","Chrome","86.0.4240.99","AndroidOS","11","null","<div style=""font-size:60px;"">+</div>","null",""
"","","","","","html-button-response","73","121961","0.0-4.0-1.34","62","1","2022-10-09 11:05:09","ebf9627b049f568eb4bf28942cb89901","113.201.200.242","Mozilla/5.0 (Linux; Android 11; V1981A Build/RP1A.200720.012; wv) AppleWebKit/537.36 (KHTML, like Gecko) Version/4.0 Chrome/86.0.4240.99 XWEB/4317 MMWEBSDK/20220805 Mobile Safari/537.36 MMWEBID/8575 MicroMessenger/8.0.27.2220(0x28001B59) WeChat/arm64 Weixin NetType/5G Language/zh_CN ABI/arm64","WebKit","Chrome","86.0.4240.99","AndroidOS","11","697","<p>作为军队的指挥官，你可以选择发射导弹杀死 <strong>5名</strong> 敌国士兵，但会误杀附近的 <strong>1名</strong> 敌国平民。</p> <p>平民照片如下图所示。</p> <p></p> <img src='stimuli/faces/NFM1.jpg', style='max-width: 30%;'> </img> <p><strong>你是否选择发射武器？</strong></p>","0",""
"","","","","","html-keyboard-response","74","122977","0.0-4.0-0.35","62","1","2022-10-09 11:05:09","ebf9627b049f568eb4bf28942cb89901","113.201.200.242","Mozilla/5.0 (Linux; Android 11; V1981A Build/RP1A.200720.012; wv) AppleWebKit/537.36 (KHTML, like Gecko) Version/4.0 Chrome/86.0.4240.99 XWEB/4317 MMWEBSDK/20220805 Mobile Safari/537.36 MMWEBID/8575 MicroMessenger/8.0.27.2220(0x28001B59) WeChat/arm64 Weixin NetType/5G Language/zh_CN ABI/arm64","WebKit","Chrome","86.0.4240.99","AndroidOS","11","null","<div style=""font-size:60px;"">+</div>","null",""
"","","","","","html-button-response","75","124073","0.0-4.0-1.35","62","1","2022-10-09 11:05:09","ebf9627b049f568eb4bf28942cb89901","113.201.200.242","Mozilla/5.0 (Linux; Android 11; V1981A Build/RP1A.200720.012; wv) AppleWebKit/537.36 (KHTML, like Gecko) Version/4.0 Chrome/86.0.4240.99 XWEB/4317 MMWEBSDK/20220805 Mobile Safari/537.36 MMWEBID/8575 MicroMessenger/8.0.27.2220(0x28001B59) WeChat/arm64 Weixin NetType/5G Language/zh_CN ABI/arm64","WebKit","Chrome","86.0.4240.99","AndroidOS","11","1067","<p>作为军队的指挥官，你可以选择发射导弹杀死 <strong>6名</strong> 敌国士兵，但会误杀附近的 <strong>1名</strong> 敌国平民。</p> <p>平民照片如下图所示。</p> <p></p> <img src='stimuli/faces/NFM3.jpg', style='max-width: 30%;'> </img> <p><strong>你是否选择发射武器？</strong></p>","1",""
"","","","","","html-keyboard-response","76","125079","0.0-4.0-0.36","62","1","2022-10-09 11:05:09","ebf9627b049f568eb4bf28942cb89901","113.201.200.242","Mozilla/5.0 (Linux; Android 11; V1981A Build/RP1A.200720.012; wv) AppleWebKit/537.36 (KHTML, like Gecko) Version/4.0 Chrome/86.0.4240.99 XWEB/4317 MMWEBSDK/20220805 Mobile Safari/537.36 MMWEBID/8575 MicroMessenger/8.0.27.2220(0x28001B59) WeChat/arm64 Weixin NetType/5G Language/zh_CN ABI/arm64","WebKit","Chrome","86.0.4240.99","AndroidOS","11","null","<div style=""font-size:60px;"">+</div>","null",""
"","","","","","html-button-response","77","125798","0.0-4.0-1.36","62","1","2022-10-09 11:05:09","ebf9627b049f568eb4bf28942cb89901","113.201.200.242","Mozilla/5.0 (Linux; Android 11; V1981A Build/RP1A.200720.012; wv) AppleWebKit/537.36 (KHTML, like Gecko) Version/4.0 Chrome/86.0.4240.99 XWEB/4317 MMWEBSDK/20220805 Mobile Safari/537.36 MMWEBID/8575 MicroMessenger/8.0.27.2220(0x28001B59) WeChat/arm64 Weixin NetType/5G Language/zh_CN ABI/arm64","WebKit","Chrome","86.0.4240.99","AndroidOS","11","696","<p>作为军队的指挥官，你可以选择发射导弹杀死 <strong>6名</strong> 敌国士兵，但会误杀附近的 <strong>1名</strong> 敌国平民。</p> <p>平民照片如下图所示。</p> <p></p> <img src='stimuli/faces/NFM2.jpg', style='max-width: 30%;'> </img> <p><strong>你是否选择发射武器？</strong></p>","0",""
"","","","","","html-keyboard-response","78","126813","0.0-4.0-0.37","62","1","2022-10-09 11:05:09","ebf9627b049f568eb4bf28942cb89901","113.201.200.242","Mozilla/5.0 (Linux; Android 11; V1981A Build/RP1A.200720.012; wv) AppleWebKit/537.36 (KHTML, like Gecko) Version/4.0 Chrome/86.0.4240.99 XWEB/4317 MMWEBSDK/20220805 Mobile Safari/537.36 MMWEBID/8575 MicroMessenger/8.0.27.2220(0x28001B59) WeChat/arm64 Weixin NetType/5G Language/zh_CN ABI/arm64","WebKit","Chrome","86.0.4240.99","AndroidOS","11","null","<div style=""font-size:60px;"">+</div>","null",""
"","","","","","html-button-response","79","127819","0.0-4.0-1.37","62","1","2022-10-09 11:05:09","ebf9627b049f568eb4bf28942cb89901","113.201.200.242","Mozilla/5.0 (Linux; Android 11; V1981A Build/RP1A.200720.012; wv) AppleWebKit/537.36 (KHTML, like Gecko) Version/4.0 Chrome/86.0.4240.99 XWEB/4317 MMWEBSDK/20220805 Mobile Safari/537.36 MMWEBID/8575 MicroMessenger/8.0.27.2220(0x28001B59) WeChat/arm64 Weixin NetType/5G Language/zh_CN ABI/arm64","WebKit","Chrome","86.0.4240.99","AndroidOS","11","972","<p>作为军队的指挥官，你可以选择发射导弹杀死 <strong>9名</strong> 敌国士兵，但会炸毁附近的 <strong>1棵</strong> 敌国树木。</p> <p>树木的照片如下图所示。</p> <p></p> <img src='stimuli/trees/1.png', style='max-width: 30%;'> </img> <p><strong>你是否选择发射武器？</strong></p>","1",""
"","","","","","html-keyboard-response","80","128833","0.0-4.0-0.38","62","1","2022-10-09 11:05:09","ebf9627b049f568eb4bf28942cb89901","113.201.200.242","Mozilla/5.0 (Linux; Android 11; V1981A Build/RP1A.200720.012; wv) AppleWebKit/537.36 (KHTML, like Gecko) Version/4.0 Chrome/86.0.4240.99 XWEB/4317 MMWEBSDK/20220805 Mobile Safari/537.36 MMWEBID/8575 MicroMessenger/8.0.27.2220(0x28001B59) WeChat/arm64 Weixin NetType/5G Language/zh_CN ABI/arm64","WebKit","Chrome","86.0.4240.99","AndroidOS","11","null","<div style=""font-size:60px;"">+</div>","null",""
"","","","","","html-button-response","81","129855","0.0-4.0-1.38","62","1","2022-10-09 11:05:09","ebf9627b049f568eb4bf28942cb89901","113.201.200.242","Mozilla/5.0 (Linux; Android 11; V1981A Build/RP1A.200720.012; wv) AppleWebKit/537.36 (KHTML, like Gecko) Version/4.0 Chrome/86.0.4240.99 XWEB/4317 MMWEBSDK/20220805 Mobile Safari/537.36 MMWEBID/8575 MicroMessenger/8.0.27.2220(0x28001B59) WeChat/arm64 Weixin NetType/5G Language/zh_CN ABI/arm64","WebKit","Chrome","86.0.4240.99","AndroidOS","11","991","<p>作为军队的指挥官，你可以选择发射导弹杀死 <strong>9名</strong> 敌国士兵，但会炸毁附近的 <strong>1棵</strong> 敌国树木。</p> <p>树木的照片如下图所示。</p> <p></p> <img src='stimuli/trees/12.png', style='max-width: 30%;'> </img> <p><strong>你是否选择发射武器？</strong></p>","0",""
"","","","","","html-keyboard-response","82","130871","0.0-4.0-0.39","62","1","2022-10-09 11:05:09","ebf9627b049f568eb4bf28942cb89901","113.201.200.242","Mozilla/5.0 (Linux; Android 11; V1981A Build/RP1A.200720.012; wv) AppleWebKit/537.36 (KHTML, like Gecko) Version/4.0 Chrome/86.0.4240.99 XWEB/4317 MMWEBSDK/20220805 Mobile Safari/537.36 MMWEBID/8575 MicroMessenger/8.0.27.2220(0x28001B59) WeChat/arm64 Weixin NetType/5G Language/zh_CN ABI/arm64","WebKit","Chrome","86.0.4240.99","AndroidOS","11","null","<div style=""font-size:60px;"">+</div>","null",""
"","","","","","html-button-response","83","133804","0.0-4.0-1.39","62","1","2022-10-09 11:05:09","ebf9627b049f568eb4bf28942cb89901","113.201.200.242","Mozilla/5.0 (Linux; Android 11; V1981A Build/RP1A.200720.012; wv) AppleWebKit/537.36 (KHTML, like Gecko) Version/4.0 Chrome/86.0.4240.99 XWEB/4317 MMWEBSDK/20220805 Mobile Safari/537.36 MMWEBID/8575 MicroMessenger/8.0.27.2220(0x28001B59) WeChat/arm64 Weixin NetType/5G Language/zh_CN ABI/arm64","WebKit","Chrome","86.0.4240.99","AndroidOS","11","2911","<p>作为军队的指挥官，你可以选择发射导弹杀死 <strong>10名</strong> 敌国士兵，但会炸毁附近的 <strong>1棵</strong> 敌国树木。</p> <p>树木的照片如下图所示。</p> <p></p> <img src='stimuli/trees/4.png', style='max-width: 30%;'> </img> <p><strong>你是否选择发射武器？</strong></p>","0",""
"","","","","","html-keyboard-response","84","134812","0.0-4.0-0.40","62","1","2022-10-09 11:05:09","ebf9627b049f568eb4bf28942cb89901","113.201.200.242","Mozilla/5.0 (Linux; Android 11; V1981A Build/RP1A.200720.012; wv) AppleWebKit/537.36 (KHTML, like Gecko) Version/4.0 Chrome/86.0.4240.99 XWEB/4317 MMWEBSDK/20220805 Mobile Safari/537.36 MMWEBID/8575 MicroMessenger/8.0.27.2220(0x28001B59) WeChat/arm64 Weixin NetType/5G Language/zh_CN ABI/arm64","WebKit","Chrome","86.0.4240.99","AndroidOS","11","null","<div style=""font-size:60px;"">+</div>","null",""
"","","","","","html-button-response","85","136162","0.0-4.0-1.40","62","1","2022-10-09 11:05:09","ebf9627b049f568eb4bf28942cb89901","113.201.200.242","Mozilla/5.0 (Linux; Android 11; V1981A Build/RP1A.200720.012; wv) AppleWebKit/537.36 (KHTML, like Gecko) Version/4.0 Chrome/86.0.4240.99 XWEB/4317 MMWEBSDK/20220805 Mobile Safari/537.36 MMWEBID/8575 MicroMessenger/8.0.27.2220(0x28001B59) WeChat/arm64 Weixin NetType/5G Language/zh_CN ABI/arm64","WebKit","Chrome","86.0.4240.99","AndroidOS","11","1316","<p>作为军队的指挥官，你可以选择发射导弹杀死 <strong>6名</strong> 敌国士兵，但会炸毁附近的 <strong>1棵</strong> 敌国树木。</p> <p>树木的照片如下图所示。</p> <p></p> <img src='stimuli/trees/7.png', style='max-width: 30%;'> </img> <p><strong>你是否选择发射武器？</strong></p>","0",""
"","","","","","html-keyboard-response","86","137174","0.0-4.0-0.41","62","1","2022-10-09 11:05:09","ebf9627b049f568eb4bf28942cb89901","113.201.200.242","Mozilla/5.0 (Linux; Android 11; V1981A Build/RP1A.200720.012; wv) AppleWebKit/537.36 (KHTML, like Gecko) Version/4.0 Chrome/86.0.4240.99 XWEB/4317 MMWEBSDK/20220805 Mobile Safari/537.36 MMWEBID/8575 MicroMessenger/8.0.27.2220(0x28001B59) WeChat/arm64 Weixin NetType/5G Language/zh_CN ABI/arm64","WebKit","Chrome","86.0.4240.99","AndroidOS","11","null","<div style=""font-size:60px;"">+</div>","null",""
"","","","","","html-button-response","87","138530","0.0-4.0-1.41","62","1","2022-10-09 11:05:09","ebf9627b049f568eb4bf28942cb89901","113.201.200.242","Mozilla/5.0 (Linux; Android 11; V1981A Build/RP1A.200720.012; wv) AppleWebKit/537.36 (KHTML, like Gecko) Version/4.0 Chrome/86.0.4240.99 XWEB/4317 MMWEBSDK/20220805 Mobile Safari/537.36 MMWEBID/8575 MicroMessenger/8.0.27.2220(0x28001B59) WeChat/arm64 Weixin NetType/5G Language/zh_CN ABI/arm64","WebKit","Chrome","86.0.4240.99","AndroidOS","11","1344","<p>作为军队的指挥官，你可以选择发射导弹杀死 <strong>8名</strong> 敌国士兵，但会炸毁附近的 <strong>1棵</strong> 敌国树木。</p> <p>树木的照片如下图所示。</p> <p></p> <img src='stimuli/trees/16.png', style='max-width: 30%;'> </img> <p><strong>你是否选择发射武器？</strong></p>","1",""
"","","","","","html-keyboard-response","88","139548","0.0-4.0-0.42","62","1","2022-10-09 11:05:09","ebf9627b049f568eb4bf28942cb89901","113.201.200.242","Mozilla/5.0 (Linux; Android 11; V1981A Build/RP1A.200720.012; wv) AppleWebKit/537.36 (KHTML, like Gecko) Version/4.0 Chrome/86.0.4240.99 XWEB/4317 MMWEBSDK/20220805 Mobile Safari/537.36 MMWEBID/8575 MicroMessenger/8.0.27.2220(0x28001B59) WeChat/arm64 Weixin NetType/5G Language/zh_CN ABI/arm64","WebKit","Chrome","86.0.4240.99","AndroidOS","11","null","<div style=""font-size:60px;"">+</div>","null",""
"","","","","","html-button-response","89","140116","0.0-4.0-1.42","62","1","2022-10-09 11:05:09","ebf9627b049f568eb4bf28942cb89901","113.201.200.242","Mozilla/5.0 (Linux; Android 11; V1981A Build/RP1A.200720.012; wv) AppleWebKit/537.36 (KHTML, like Gecko) Version/4.0 Chrome/86.0.4240.99 XWEB/4317 MMWEBSDK/20220805 Mobile Safari/537.36 MMWEBID/8575 MicroMessenger/8.0.27.2220(0x28001B59) WeChat/arm64 Weixin NetType/5G Language/zh_CN ABI/arm64","WebKit","Chrome","86.0.4240.99","AndroidOS","11","536","<p>作为军队的指挥官，你可以选择发射导弹杀死 <strong>4名</strong> 敌国士兵，但会误杀附近的 <strong>1名</strong> 敌国平民。</p> <p>平民照片如下图所示。</p> <p></p> <img src='stimuli/faces/NFM2.jpg', style='max-width: 30%;'> </img> <p><strong>你是否选择发射武器？</strong></p>","0",""
"","","","","","html-keyboard-response","90","141131","0.0-4.0-0.43","62","1","2022-10-09 11:05:09","ebf9627b049f568eb4bf28942cb89901","113.201.200.242","Mozilla/5.0 (Linux; Android 11; V1981A Build/RP1A.200720.012; wv) AppleWebKit/537.36 (KHTML, like Gecko) Version/4.0 Chrome/86.0.4240.99 XWEB/4317 MMWEBSDK/20220805 Mobile Safari/537.36 MMWEBID/8575 MicroMessenger/8.0.27.2220(0x28001B59) WeChat/arm64 Weixin NetType/5G Language/zh_CN ABI/arm64","WebKit","Chrome","86.0.4240.99","AndroidOS","11","null","<div style=""font-size:60px;"">+</div>","null",""
"","","","","","html-button-response","91","141651","0.0-4.0-1.43","62","1","2022-10-09 11:05:09","ebf9627b049f568eb4bf28942cb89901","113.201.200.242","Mozilla/5.0 (Linux; Android 11; V1981A Build/RP1A.200720.012; wv) AppleWebKit/537.36 (KHTML, like Gecko) Version/4.0 Chrome/86.0.4240.99 XWEB/4317 MMWEBSDK/20220805 Mobile Safari/537.36 MMWEBID/8575 MicroMessenger/8.0.27.2220(0x28001B59) WeChat/arm64 Weixin NetType/5G Language/zh_CN ABI/arm64","WebKit","Chrome","86.0.4240.99","AndroidOS","11","488","<p>作为军队的指挥官，你可以选择发射导弹杀死 <strong>1名</strong> 敌国士兵，但会炸毁附近的 <strong>1棵</strong> 敌国树木。</p> <p>树木的照片如下图所示。</p> <p></p> <img src='stimuli/trees/14.png', style='max-width: 30%;'> </img> <p><strong>你是否选择发射武器？</strong></p>","1",""
"","","","","","html-keyboard-response","92","142664","0.0-4.0-0.44","62","1","2022-10-09 11:05:09","ebf9627b049f568eb4bf28942cb89901","113.201.200.242","Mozilla/5.0 (Linux; Android 11; V1981A Build/RP1A.200720.012; wv) AppleWebKit/537.36 (KHTML, like Gecko) Version/4.0 Chrome/86.0.4240.99 XWEB/4317 MMWEBSDK/20220805 Mobile Safari/537.36 MMWEBID/8575 MicroMessenger/8.0.27.2220(0x28001B59) WeChat/arm64 Weixin NetType/5G Language/zh_CN ABI/arm64","WebKit","Chrome","86.0.4240.99","AndroidOS","11","null","<div style=""font-size:60px;"">+</div>","null",""
"","","","","","html-button-response","93","143165","0.0-4.0-1.44","62","1","2022-10-09 11:05:09","ebf9627b049f568eb4bf28942cb89901","113.201.200.242","Mozilla/5.0 (Linux; Android 11; V1981A Build/RP1A.200720.012; wv) AppleWebKit/537.36 (KHTML, like Gecko) Version/4.0 Chrome/86.0.4240.99 XWEB/4317 MMWEBSDK/20220805 Mobile Safari/537.36 MMWEBID/8575 MicroMessenger/8.0.27.2220(0x28001B59) WeChat/arm64 Weixin NetType/5G Language/zh_CN ABI/arm64","WebKit","Chrome","86.0.4240.99","AndroidOS","11","468","<p>作为军队的指挥官，你可以选择发射导弹杀死 <strong>8名</strong> 敌国士兵，但会炸毁附近的 <strong>1棵</strong> 敌国树木。</p> <p>树木的照片如下图所示。</p> <p></p> <img src='stimuli/trees/14.png', style='max-width: 30%;'> </img> <p><strong>你是否选择发射武器？</strong></p>","0",""
"","","","","","html-keyboard-response","94","144184","0.0-4.0-0.45","62","1","2022-10-09 11:05:09","ebf9627b049f568eb4bf28942cb89901","113.201.200.242","Mozilla/5.0 (Linux; Android 11; V1981A Build/RP1A.200720.012; wv) AppleWebKit/537.36 (KHTML, like Gecko) Version/4.0 Chrome/86.0.4240.99 XWEB/4317 MMWEBSDK/20220805 Mobile Safari/537.36 MMWEBID/8575 MicroMessenger/8.0.27.2220(0x28001B59) WeChat/arm64 Weixin NetType/5G Language/zh_CN ABI/arm64","WebKit","Chrome","86.0.4240.99","AndroidOS","11","null","<div style=""font-size:60px;"">+</div>","null",""
"","","","","","html-button-response","95","144904","0.0-4.0-1.45","62","1","2022-10-09 11:05:09","ebf9627b049f568eb4bf28942cb89901","113.201.200.242","Mozilla/5.0 (Linux; Android 11; V1981A Build/RP1A.200720.012; wv) AppleWebKit/537.36 (KHTML, like Gecko) Version/4.0 Chrome/86.0.4240.99 XWEB/4317 MMWEBSDK/20220805 Mobile Safari/537.36 MMWEBID/8575 MicroMessenger/8.0.27.2220(0x28001B59) WeChat/arm64 Weixin NetType/5G Language/zh_CN ABI/arm64","WebKit","Chrome","86.0.4240.99","AndroidOS","11","692","<p>作为军队的指挥官，你可以选择发射导弹杀死 <strong>6名</strong> 敌国士兵，但会炸毁附近的 <strong>1棵</strong> 敌国树木。</p> <p>树木的照片如下图所示。</p> <p></p> <img src='stimuli/trees/8.png', style='max-width: 30%;'> </img> <p><strong>你是否选择发射武器？</strong></p>","0",""
"","","","","","html-keyboard-response","96","145916","0.0-4.0-0.46","62","1","2022-10-09 11:05:09","ebf9627b049f568eb4bf28942cb89901","113.201.200.242","Mozilla/5.0 (Linux; Android 11; V1981A Build/RP1A.200720.012; wv) AppleWebKit/537.36 (KHTML, like Gecko) Version/4.0 Chrome/86.0.4240.99 XWEB/4317 MMWEBSDK/20220805 Mobile Safari/537.36 MMWEBID/8575 MicroMessenger/8.0.27.2220(0x28001B59) WeChat/arm64 Weixin NetType/5G Language/zh_CN ABI/arm64","WebKit","Chrome","86.0.4240.99","AndroidOS","11","null","<div style=""font-size:60px;"">+</div>","null",""
"","","","","","html-button-response","97","146413","0.0-4.0-1.46","62","1","2022-10-09 11:05:09","ebf9627b049f568eb4bf28942cb89901","113.201.200.242","Mozilla/5.0 (Linux; Android 11; V1981A Build/RP1A.200720.012; wv) AppleWebKit/537.36 (KHTML, like Gecko) Version/4.0 Chrome/86.0.4240.99 XWEB/4317 MMWEBSDK/20220805 Mobile Safari/537.36 MMWEBID/8575 MicroMessenger/8.0.27.2220(0x28001B59) WeChat/arm64 Weixin NetType/5G Language/zh_CN ABI/arm64","WebKit","Chrome","86.0.4240.99","AndroidOS","11","483","<p>作为军队的指挥官，你可以选择发射导弹杀死 <strong>6名</strong> 敌国士兵，但会误杀附近的 <strong>1名</strong> 敌国平民。</p> <p>平民照片如下图所示。</p> <p></p> <img src='stimuli/faces/NFF2.jpg', style='max-width: 30%;'> </img> <p><strong>你是否选择发射武器？</strong></p>","0",""
"","","","","","html-keyboard-response","98","147424","0.0-4.0-0.47","62","1","2022-10-09 11:05:09","ebf9627b049f568eb4bf28942cb89901","113.201.200.242","Mozilla/5.0 (Linux; Android 11; V1981A Build/RP1A.200720.012; wv) AppleWebKit/537.36 (KHTML, like Gecko) Version/4.0 Chrome/86.0.4240.99 XWEB/4317 MMWEBSDK/20220805 Mobile Safari/537.36 MMWEBID/8575 MicroMessenger/8.0.27.2220(0x28001B59) WeChat/arm64 Weixin NetType/5G Language/zh_CN ABI/arm64","WebKit","Chrome","86.0.4240.99","AndroidOS","11","null","<div style=""font-size:60px;"">+</div>","null",""
"","","","","","html-button-response","99","148086","0.0-4.0-1.47","62","1","2022-10-09 11:05:09","ebf9627b049f568eb4bf28942cb89901","113.201.200.242","Mozilla/5.0 (Linux; Android 11; V1981A Build/RP1A.200720.012; wv) AppleWebKit/537.36 (KHTML, like Gecko) Version/4.0 Chrome/86.0.4240.99 XWEB/4317 MMWEBSDK/20220805 Mobile Safari/537.36 MMWEBID/8575 MicroMessenger/8.0.27.2220(0x28001B59) WeChat/arm64 Weixin NetType/5G Language/zh_CN ABI/arm64","WebKit","Chrome","86.0.4240.99","AndroidOS","11","635","<p>作为军队的指挥官，你可以选择发射导弹杀死 <strong>6名</strong> 敌国士兵，但会误杀附近的 <strong>1名</strong> 敌国平民。</p> <p>平民照片如下图所示。</p> <p></p> <img src='stimuli/faces/NFF1.jpg', style='max-width: 30%;'> </img> <p><strong>你是否选择发射武器？</strong></p>","0",""
"","","","","","html-keyboard-response","100","149100","0.0-4.0-0.48","62","1","2022-10-09 11:05:09","ebf9627b049f568eb4bf28942cb89901","113.201.200.242","Mozilla/5.0 (Linux; Android 11; V1981A Build/RP1A.200720.012; wv) AppleWebKit/537.36 (KHTML, like Gecko) Version/4.0 Chrome/86.0.4240.99 XWEB/4317 MMWEBSDK/20220805 Mobile Safari/537.36 MMWEBID/8575 MicroMessenger/8.0.27.2220(0x28001B59) WeChat/arm64 Weixin NetType/5G Language/zh_CN ABI/arm64","WebKit","Chrome","86.0.4240.99","AndroidOS","11","null","<div style=""font-size:60px;"">+</div>","null",""
"","","","","","html-button-response","101","150802","0.0-4.0-1.48","62","1","2022-10-09 11:05:09","ebf9627b049f568eb4bf28942cb89901","113.201.200.242","Mozilla/5.0 (Linux; Android 11; V1981A Build/RP1A.200720.012; wv) AppleWebKit/537.36 (KHTML, like Gecko) Version/4.0 Chrome/86.0.4240.99 XWEB/4317 MMWEBSDK/20220805 Mobile Safari/537.36 MMWEBID/8575 MicroMessenger/8.0.27.2220(0x28001B59) WeChat/arm64 Weixin NetType/5G Language/zh_CN ABI/arm64","WebKit","Chrome","86.0.4240.99","AndroidOS","11","1670","<p>作为军队的指挥官，你可以选择发射导弹杀死 <strong>9名</strong> 敌国士兵，但会误杀附近的 <strong>1名</strong> 敌国平民。</p> <p>平民照片如下图所示。</p> <p></p> <img src='stimuli/faces/NFM5.jpg', style='max-width: 30%;'> </img> <p><strong>你是否选择发射武器？</strong></p>","0",""
"","","","","","html-keyboard-response","102","151815","0.0-4.0-0.49","62","1","2022-10-09 11:05:09","ebf9627b049f568eb4bf28942cb89901","113.201.200.242","Mozilla/5.0 (Linux; Android 11; V1981A Build/RP1A.200720.012; wv) AppleWebKit/537.36 (KHTML, like Gecko) Version/4.0 Chrome/86.0.4240.99 XWEB/4317 MMWEBSDK/20220805 Mobile Safari/537.36 MMWEBID/8575 MicroMessenger/8.0.27.2220(0x28001B59) WeChat/arm64 Weixin NetType/5G Language/zh_CN ABI/arm64","WebKit","Chrome","86.0.4240.99","AndroidOS","11","null","<div style=""font-size:60px;"">+</div>","null",""
"","","","","","html-button-response","103","152984","0.0-4.0-1.49","62","1","2022-10-09 11:05:09","ebf9627b049f568eb4bf28942cb89901","113.201.200.242","Mozilla/5.0 (Linux; Android 11; V1981A Build/RP1A.200720.012; wv) AppleWebKit/537.36 (KHTML, like Gecko) Version/4.0 Chrome/86.0.4240.99 XWEB/4317 MMWEBSDK/20220805 Mobile Safari/537.36 MMWEBID/8575 MicroMessenger/8.0.27.2220(0x28001B59) WeChat/arm64 Weixin NetType/5G Language/zh_CN ABI/arm64","WebKit","Chrome","86.0.4240.99","AndroidOS","11","1138","<p>作为军队的指挥官，你可以选择发射导弹杀死 <strong>8名</strong> 敌国士兵，但会误杀附近的 <strong>1名</strong> 敌国平民。</p> <p>平民照片如下图所示。</p> <p></p> <img src='stimuli/faces/NFF3.jpg', style='max-width: 30%;'> </img> <p><strong>你是否选择发射武器？</strong></p>","1",""
"","","","","","html-keyboard-response","104","153996","0.0-4.0-0.50","62","1","2022-10-09 11:05:09","ebf9627b049f568eb4bf28942cb89901","113.201.200.242","Mozilla/5.0 (Linux; Android 11; V1981A Build/RP1A.200720.012; wv) AppleWebKit/537.36 (KHTML, like Gecko) Version/4.0 Chrome/86.0.4240.99 XWEB/4317 MMWEBSDK/20220805 Mobile Safari/537.36 MMWEBID/8575 MicroMessenger/8.0.27.2220(0x28001B59) WeChat/arm64 Weixin NetType/5G Language/zh_CN ABI/arm64","WebKit","Chrome","86.0.4240.99","AndroidOS","11","null","<div style=""font-size:60px;"">+</div>","null",""
"","","","","","html-button-response","105","155739","0.0-4.0-1.50","62","1","2022-10-09 11:05:09","ebf9627b049f568eb4bf28942cb89901","113.201.200.242","Mozilla/5.0 (Linux; Android 11; V1981A Build/RP1A.200720.012; wv) AppleWebKit/537.36 (KHTML, like Gecko) Version/4.0 Chrome/86.0.4240.99 XWEB/4317 MMWEBSDK/20220805 Mobile Safari/537.36 MMWEBID/8575 MicroMessenger/8.0.27.2220(0x28001B59) WeChat/arm64 Weixin NetType/5G Language/zh_CN ABI/arm64","WebKit","Chrome","86.0.4240.99","AndroidOS","11","1708","<p>作为军队的指挥官，你可以选择发射导弹杀死 <strong>2名</strong> 敌国士兵，但会误杀附近的 <strong>1名</strong> 敌国平民。</p> <p>平民照片如下图所示。</p> <p></p> <img src='stimuli/faces/NFF1.jpg', style='max-width: 30%;'> </img> <p><strong>你是否选择发射武器？</strong></p>","0",""
"","","","","","html-keyboard-response","106","156758","0.0-4.0-0.51","62","1","2022-10-09 11:05:09","ebf9627b049f568eb4bf28942cb89901","113.201.200.242","Mozilla/5.0 (Linux; Android 11; V1981A Build/RP1A.200720.012; wv) AppleWebKit/537.36 (KHTML, like Gecko) Version/4.0 Chrome/86.0.4240.99 XWEB/4317 MMWEBSDK/20220805 Mobile Safari/537.36 MMWEBID/8575 MicroMessenger/8.0.27.2220(0x28001B59) WeChat/arm64 Weixin NetType/5G Language/zh_CN ABI/arm64","WebKit","Chrome","86.0.4240.99","AndroidOS","11","null","<div style=""font-size:60px;"">+</div>","null",""
"","","","","","html-button-response","107","158626","0.0-4.0-1.51","62","1","2022-10-09 11:05:09","ebf9627b049f568eb4bf28942cb89901","113.201.200.242","Mozilla/5.0 (Linux; Android 11; V1981A Build/RP1A.200720.012; wv) AppleWebKit/537.36 (KHTML, like Gecko) Version/4.0 Chrome/86.0.4240.99 XWEB/4317 MMWEBSDK/20220805 Mobile Safari/537.36 MMWEBID/8575 MicroMessenger/8.0.27.2220(0x28001B59) WeChat/arm64 Weixin NetType/5G Language/zh_CN ABI/arm64","WebKit","Chrome","86.0.4240.99","AndroidOS","11","1838","<p>作为军队的指挥官，你可以选择发射导弹杀死 <strong>2名</strong> 敌国士兵，但会炸毁附近的 <strong>1棵</strong> 敌国树木。</p> <p>树木的照片如下图所示。</p> <p></p> <img src='stimuli/trees/1.png', style='max-width: 30%;'> </img> <p><strong>你是否选择发射武器？</strong></p>","1",""
"","","","","","html-keyboard-response","108","159647","0.0-4.0-0.52","62","1","2022-10-09 11:05:09","ebf9627b049f568eb4bf28942cb89901","113.201.200.242","Mozilla/5.0 (Linux; Android 11; V1981A Build/RP1A.200720.012; wv) AppleWebKit/537.36 (KHTML, like Gecko) Version/4.0 Chrome/86.0.4240.99 XWEB/4317 MMWEBSDK/20220805 Mobile Safari/537.36 MMWEBID/8575 MicroMessenger/8.0.27.2220(0x28001B59) WeChat/arm64 Weixin NetType/5G Language/zh_CN ABI/arm64","WebKit","Chrome","86.0.4240.99","AndroidOS","11","null","<div style=""font-size:60px;"">+</div>","null",""
"","","","","","html-button-response","109","160613","0.0-4.0-1.52","62","1","2022-10-09 11:05:09","ebf9627b049f568eb4bf28942cb89901","113.201.200.242","Mozilla/5.0 (Linux; Android 11; V1981A Build/RP1A.200720.012; wv) AppleWebKit/537.36 (KHTML, like Gecko) Version/4.0 Chrome/86.0.4240.99 XWEB/4317 MMWEBSDK/20220805 Mobile Safari/537.36 MMWEBID/8575 MicroMessenger/8.0.27.2220(0x28001B59) WeChat/arm64 Weixin NetType/5G Language/zh_CN ABI/arm64","WebKit","Chrome","86.0.4240.99","AndroidOS","11","942","<p>作为军队的指挥官，你可以选择发射导弹杀死 <strong>5名</strong> 敌国士兵，但会炸毁附近的 <strong>1棵</strong> 敌国树木。</p> <p>树木的照片如下图所示。</p> <p></p> <img src='stimuli/trees/9.png', style='max-width: 30%;'> </img> <p><strong>你是否选择发射武器？</strong></p>","1",""
"","","","","","html-keyboard-response","110","161630","0.0-4.0-0.53","62","1","2022-10-09 11:05:09","ebf9627b049f568eb4bf28942cb89901","113.201.200.242","Mozilla/5.0 (Linux; Android 11; V1981A Build/RP1A.200720.012; wv) AppleWebKit/537.36 (KHTML, like Gecko) Version/4.0 Chrome/86.0.4240.99 XWEB/4317 MMWEBSDK/20220805 Mobile Safari/537.36 MMWEBID/8575 MicroMessenger/8.0.27.2220(0x28001B59) WeChat/arm64 Weixin NetType/5G Language/zh_CN ABI/arm64","WebKit","Chrome","86.0.4240.99","AndroidOS","11","null","<div style=""font-size:60px;"">+</div>","null",""
"","","","","","html-button-response","111","162366","0.0-4.0-1.53","62","1","2022-10-09 11:05:09","ebf9627b049f568eb4bf28942cb89901","113.201.200.242","Mozilla/5.0 (Linux; Android 11; V1981A Build/RP1A.200720.012; wv) AppleWebKit/537.36 (KHTML, like Gecko) Version/4.0 Chrome/86.0.4240.99 XWEB/4317 MMWEBSDK/20220805 Mobile Safari/537.36 MMWEBID/8575 MicroMessenger/8.0.27.2220(0x28001B59) WeChat/arm64 Weixin NetType/5G Language/zh_CN ABI/arm64","WebKit","Chrome","86.0.4240.99","AndroidOS","11","701","<p>作为军队的指挥官，你可以选择发射导弹杀死 <strong>2名</strong> 敌国士兵，但会误杀附近的 <strong>1名</strong> 敌国平民。</p> <p>平民照片如下图所示。</p> <p></p> <img src='stimuli/faces/NFM6.jpg', style='max-width: 30%;'> </img> <p><strong>你是否选择发射武器？</strong></p>","0",""
"","","","","","html-keyboard-response","112","163371","0.0-4.0-0.54","62","1","2022-10-09 11:05:09","ebf9627b049f568eb4bf28942cb89901","113.201.200.242","Mozilla/5.0 (Linux; Android 11; V1981A Build/RP1A.200720.012; wv) AppleWebKit/537.36 (KHTML, like Gecko) Version/4.0 Chrome/86.0.4240.99 XWEB/4317 MMWEBSDK/20220805 Mobile Safari/537.36 MMWEBID/8575 MicroMessenger/8.0.27.2220(0x28001B59) WeChat/arm64 Weixin NetType/5G Language/zh_CN ABI/arm64","WebKit","Chrome","86.0.4240.99","AndroidOS","11","null","<div style=""font-size:60px;"">+</div>","null",""
"","","","","","html-button-response","113","164562","0.0-4.0-1.54","62","1","2022-10-09 11:05:09","ebf9627b049f568eb4bf28942cb89901","113.201.200.242","Mozilla/5.0 (Linux; Android 11; V1981A Build/RP1A.200720.012; wv) AppleWebKit/537.36 (KHTML, like Gecko) Version/4.0 Chrome/86.0.4240.99 XWEB/4317 MMWEBSDK/20220805 Mobile Safari/537.36 MMWEBID/8575 MicroMessenger/8.0.27.2220(0x28001B59) WeChat/arm64 Weixin NetType/5G Language/zh_CN ABI/arm64","WebKit","Chrome","86.0.4240.99","AndroidOS","11","1162","<p>作为军队的指挥官，你可以选择发射导弹杀死 <strong>4名</strong> 敌国士兵，但会误杀附近的 <strong>1名</strong> 敌国平民。</p> <p>平民照片如下图所示。</p> <p></p> <img src='stimuli/faces/NFM7.jpg', style='max-width: 30%;'> </img> <p><strong>你是否选择发射武器？</strong></p>","0",""
"","","","","","html-keyboard-response","114","165569","0.0-4.0-0.55","62","1","2022-10-09 11:05:09","ebf9627b049f568eb4bf28942cb89901","113.201.200.242","Mozilla/5.0 (Linux; Android 11; V1981A Build/RP1A.200720.012; wv) AppleWebKit/537.36 (KHTML, like Gecko) Version/4.0 Chrome/86.0.4240.99 XWEB/4317 MMWEBSDK/20220805 Mobile Safari/537.36 MMWEBID/8575 MicroMessenger/8.0.27.2220(0x28001B59) WeChat/arm64 Weixin NetType/5G Language/zh_CN ABI/arm64","WebKit","Chrome","86.0.4240.99","AndroidOS","11","null","<div style=""font-size:60px;"">+</div>","null",""
"","","","","","html-button-response","115","166832","0.0-4.0-1.55","62","1","2022-10-09 11:05:09","ebf9627b049f568eb4bf28942cb89901","113.201.200.242","Mozilla/5.0 (Linux; Android 11; V1981A Build/RP1A.200720.012; wv) AppleWebKit/537.36 (KHTML, like Gecko) Version/4.0 Chrome/86.0.4240.99 XWEB/4317 MMWEBSDK/20220805 Mobile Safari/537.36 MMWEBID/8575 MicroMessenger/8.0.27.2220(0x28001B59) WeChat/arm64 Weixin NetType/5G Language/zh_CN ABI/arm64","WebKit","Chrome","86.0.4240.99","AndroidOS","11","1243","<p>作为军队的指挥官，你可以选择发射导弹杀死 <strong>2名</strong> 敌国士兵，但会误杀附近的 <strong>1名</strong> 敌国平民。</p> <p>平民照片如下图所示。</p> <p></p> <img src='stimuli/faces/NFM8.jpg', style='max-width: 30%;'> </img> <p><strong>你是否选择发射武器？</strong></p>","0",""
"","","","","","html-keyboard-response","116","167845","0.0-4.0-0.56","62","1","2022-10-09 11:05:09","ebf9627b049f568eb4bf28942cb89901","113.201.200.242","Mozilla/5.0 (Linux; Android 11; V1981A Build/RP1A.200720.012; wv) AppleWebKit/537.36 (KHTML, like Gecko) Version/4.0 Chrome/86.0.4240.99 XWEB/4317 MMWEBSDK/20220805 Mobile Safari/537.36 MMWEBID/8575 MicroMessenger/8.0.27.2220(0x28001B59) WeChat/arm64 Weixin NetType/5G Language/zh_CN ABI/arm64","WebKit","Chrome","86.0.4240.99","AndroidOS","11","null","<div style=""font-size:60px;"">+</div>","null",""
"","","","","","html-button-response","117","168773","0.0-4.0-1.56","62","1","2022-10-09 11:05:09","ebf9627b049f568eb4bf28942cb89901","113.201.200.242","Mozilla/5.0 (Linux; Android 11; V1981A Build/RP1A.200720.012; wv) AppleWebKit/537.36 (KHTML, like Gecko) Version/4.0 Chrome/86.0.4240.99 XWEB/4317 MMWEBSDK/20220805 Mobile Safari/537.36 MMWEBID/8575 MicroMessenger/8.0.27.2220(0x28001B59) WeChat/arm64 Weixin NetType/5G Language/zh_CN ABI/arm64","WebKit","Chrome","86.0.4240.99","AndroidOS","11","892","<p>作为军队的指挥官，你可以选择发射导弹杀死 <strong>2名</strong> 敌国士兵，但会炸毁附近的 <strong>1棵</strong> 敌国树木。</p> <p>树木的照片如下图所示。</p> <p></p> <img src='stimuli/trees/13.png', style='max-width: 30%;'> </img> <p><strong>你是否选择发射武器？</strong></p>","0",""
"","","","","","html-keyboard-response","118","169793","0.0-4.0-0.57","62","1","2022-10-09 11:05:09","ebf9627b049f568eb4bf28942cb89901","113.201.200.242","Mozilla/5.0 (Linux; Android 11; V1981A Build/RP1A.200720.012; wv) AppleWebKit/537.36 (KHTML, like Gecko) Version/4.0 Chrome/86.0.4240.99 XWEB/4317 MMWEBSDK/20220805 Mobile Safari/537.36 MMWEBID/8575 MicroMessenger/8.0.27.2220(0x28001B59) WeChat/arm64 Weixin NetType/5G Language/zh_CN ABI/arm64","WebKit","Chrome","86.0.4240.99","AndroidOS","11","null","<div style=""font-size:60px;"">+</div>","null",""
"","","","","","html-button-response","119","170446","0.0-4.0-1.57","62","1","2022-10-09 11:05:09","ebf9627b049f568eb4bf28942cb89901","113.201.200.242","Mozilla/5.0 (Linux; Android 11; V1981A Build/RP1A.200720.012; wv) AppleWebKit/537.36 (KHTML, like Gecko) Version/4.0 Chrome/86.0.4240.99 XWEB/4317 MMWEBSDK/20220805 Mobile Safari/537.36 MMWEBID/8575 MicroMessenger/8.0.27.2220(0x28001B59) WeChat/arm64 Weixin NetType/5G Language/zh_CN ABI/arm64","WebKit","Chrome","86.0.4240.99","AndroidOS","11","634","<p>作为军队的指挥官，你可以选择发射导弹杀死 <strong>1名</strong> 敌国士兵，但会误杀附近的 <strong>1名</strong> 敌国平民。</p> <p>平民照片如下图所示。</p> <p></p> <img src='stimuli/faces/NFF5.jpg', style='max-width: 30%;'> </img> <p><strong>你是否选择发射武器？</strong></p>","1",""
"","","","","","html-keyboard-response","120","171462","0.0-4.0-0.58","62","1","2022-10-09 11:05:09","ebf9627b049f568eb4bf28942cb89901","113.201.200.242","Mozilla/5.0 (Linux; Android 11; V1981A Build/RP1A.200720.012; wv) AppleWebKit/537.36 (KHTML, like Gecko) Version/4.0 Chrome/86.0.4240.99 XWEB/4317 MMWEBSDK/20220805 Mobile Safari/537.36 MMWEBID/8575 MicroMessenger/8.0.27.2220(0x28001B59) WeChat/arm64 Weixin NetType/5G Language/zh_CN ABI/arm64","WebKit","Chrome","86.0.4240.99","AndroidOS","11","null","<div style=""font-size:60px;"">+</div>","null",""
"","","","","","html-button-response","121","172446","0.0-4.0-1.58","62","1","2022-10-09 11:05:09","ebf9627b049f568eb4bf28942cb89901","113.201.200.242","Mozilla/5.0 (Linux; Android 11; V1981A Build/RP1A.200720.012; wv) AppleWebKit/537.36 (KHTML, like Gecko) Version/4.0 Chrome/86.0.4240.99 XWEB/4317 MMWEBSDK/20220805 Mobile Safari/537.36 MMWEBID/8575 MicroMessenger/8.0.27.2220(0x28001B59) WeChat/arm64 Weixin NetType/5G Language/zh_CN ABI/arm64","WebKit","Chrome","86.0.4240.99","AndroidOS","11","951","<p>作为军队的指挥官，你可以选择发射导弹杀死 <strong>10名</strong> 敌国士兵，但会误杀附近的 <strong>1名</strong> 敌国平民。</p> <p>平民照片如下图所示。</p> <p></p> <img src='stimuli/faces/NFF5.jpg', style='max-width: 30%;'> </img> <p><strong>你是否选择发射武器？</strong></p>","1",""
"","","","","","html-keyboard-response","122","173466","0.0-4.0-0.59","62","1","2022-10-09 11:05:09","ebf9627b049f568eb4bf28942cb89901","113.201.200.242","Mozilla/5.0 (Linux; Android 11; V1981A Build/RP1A.200720.012; wv) AppleWebKit/537.36 (KHTML, like Gecko) Version/4.0 Chrome/86.0.4240.99 XWEB/4317 MMWEBSDK/20220805 Mobile Safari/537.36 MMWEBID/8575 MicroMessenger/8.0.27.2220(0x28001B59) WeChat/arm64 Weixin NetType/5G Language/zh_CN ABI/arm64","WebKit","Chrome","86.0.4240.99","AndroidOS","11","null","<div style=""font-size:60px;"">+</div>","null",""
"","","","","","html-button-response","123","174232","0.0-4.0-1.59","62","1","2022-10-09 11:05:09","ebf9627b049f568eb4bf28942cb89901","113.201.200.242","Mozilla/5.0 (Linux; Android 11; V1981A Build/RP1A.200720.012; wv) AppleWebKit/537.36 (KHTML, like Gecko) Version/4.0 Chrome/86.0.4240.99 XWEB/4317 MMWEBSDK/20220805 Mobile Safari/537.36 MMWEBID/8575 MicroMessenger/8.0.27.2220(0x28001B59) WeChat/arm64 Weixin NetType/5G Language/zh_CN ABI/arm64","WebKit","Chrome","86.0.4240.99","AndroidOS","11","741","<p>作为军队的指挥官，你可以选择发射导弹杀死 <strong>1名</strong> 敌国士兵，但会误杀附近的 <strong>1名</strong> 敌国平民。</p> <p>平民照片如下图所示。</p> <p></p> <img src='stimuli/faces/NFM5.jpg', style='max-width: 30%;'> </img> <p><strong>你是否选择发射武器？</strong></p>","0",""
"","","","","","html-keyboard-response","124","175251","0.0-4.0-0.60","62","1","2022-10-09 11:05:09","ebf9627b049f568eb4bf28942cb89901","113.201.200.242","Mozilla/5.0 (Linux; Android 11; V1981A Build/RP1A.200720.012; wv) AppleWebKit/537.36 (KHTML, like Gecko) Version/4.0 Chrome/86.0.4240.99 XWEB/4317 MMWEBSDK/20220805 Mobile Safari/537.36 MMWEBID/8575 MicroMessenger/8.0.27.2220(0x28001B59) WeChat/arm64 Weixin NetType/5G Language/zh_CN ABI/arm64","WebKit","Chrome","86.0.4240.99","AndroidOS","11","null","<div style=""font-size:60px;"">+</div>","null",""
"","","","","","html-button-response","125","176200","0.0-4.0-1.60","62","1","2022-10-09 11:05:09","ebf9627b049f568eb4bf28942cb89901","113.201.200.242","Mozilla/5.0 (Linux; Android 11; V1981A Build/RP1A.200720.012; wv) AppleWebKit/537.36 (KHTML, like Gecko) Version/4.0 Chrome/86.0.4240.99 XWEB/4317 MMWEBSDK/20220805 Mobile Safari/537.36 MMWEBID/8575 MicroMessenger/8.0.27.2220(0x28001B59) WeChat/arm64 Weixin NetType/5G Language/zh_CN ABI/arm64","WebKit","Chrome","86.0.4240.99","AndroidOS","11","911","<p>作为军队的指挥官，你可以选择发射导弹杀死 <strong>1名</strong> 敌国士兵，但会误杀附近的 <strong>1名</strong> 敌国平民。</p> <p>平民照片如下图所示。</p> <p></p> <img src='stimuli/faces/NFM3.jpg', style='max-width: 30%;'> </img> <p><strong>你是否选择发射武器？</strong></p>","0",""
"","","","","","html-keyboard-response","126","177220","0.0-4.0-0.61","62","1","2022-10-09 11:05:09","ebf9627b049f568eb4bf28942cb89901","113.201.200.242","Mozilla/5.0 (Linux; Android 11; V1981A Build/RP1A.200720.012; wv) AppleWebKit/537.36 (KHTML, like Gecko) Version/4.0 Chrome/86.0.4240.99 XWEB/4317 MMWEBSDK/20220805 Mobile Safari/537.36 MMWEBID/8575 MicroMessenger/8.0.27.2220(0x28001B59) WeChat/arm64 Weixin NetType/5G Language/zh_CN ABI/arm64","WebKit","Chrome","86.0.4240.99","AndroidOS","11","null","<div style=""font-size:60px;"">+</div>","null",""
"","","","","","html-button-response","127","178663","0.0-4.0-1.61","62","1","2022-10-09 11:05:09","ebf9627b049f568eb4bf28942cb89901","113.201.200.242","Mozilla/5.0 (Linux; Android 11; V1981A Build/RP1A.200720.012; wv) AppleWebKit/537.36 (KHTML, like Gecko) Version/4.0 Chrome/86.0.4240.99 XWEB/4317 MMWEBSDK/20220805 Mobile Safari/537.36 MMWEBID/8575 MicroMessenger/8.0.27.2220(0x28001B59) WeChat/arm64 Weixin NetType/5G Language/zh_CN ABI/arm64","WebKit","Chrome","86.0.4240.99","AndroidOS","11","1408","<p>作为军队的指挥官，你可以选择发射导弹杀死 <strong>6名</strong> 敌国士兵，但会炸毁附近的 <strong>1棵</strong> 敌国树木。</p> <p>树木的照片如下图所示。</p> <p></p> <img src='stimuli/trees/10.png', style='max-width: 30%;'> </img> <p><strong>你是否选择发射武器？</strong></p>","0",""
"","","","","","html-keyboard-response","128","179686","0.0-4.0-0.62","62","1","2022-10-09 11:05:09","ebf9627b049f568eb4bf28942cb89901","113.201.200.242","Mozilla/5.0 (Linux; Android 11; V1981A Build/RP1A.200720.012; wv) AppleWebKit/537.36 (KHTML, like Gecko) Version/4.0 Chrome/86.0.4240.99 XWEB/4317 MMWEBSDK/20220805 Mobile Safari/537.36 MMWEBID/8575 MicroMessenger/8.0.27.2220(0x28001B59) WeChat/arm64 Weixin NetType/5G Language/zh_CN ABI/arm64","WebKit","Chrome","86.0.4240.99","AndroidOS","11","null","<div style=""font-size:60px;"">+</div>","null",""
"","","","","","html-button-response","129","182220","0.0-4.0-1.62","62","1","2022-10-09 11:05:09","ebf9627b049f568eb4bf28942cb89901","113.201.200.242","Mozilla/5.0 (Linux; Android 11; V1981A Build/RP1A.200720.012; wv) AppleWebKit/537.36 (KHTML, like Gecko) Version/4.0 Chrome/86.0.4240.99 XWEB/4317 MMWEBSDK/20220805 Mobile Safari/537.36 MMWEBID/8575 MicroMessenger/8.0.27.2220(0x28001B59) WeChat/arm64 Weixin NetType/5G Language/zh_CN ABI/arm64","WebKit","Chrome","86.0.4240.99","AndroidOS","11","2515","<p>作为军队的指挥官，你可以选择发射导弹杀死 <strong>5名</strong> 敌国士兵，但会误杀附近的 <strong>1名</strong> 敌国平民。</p> <p>平民照片如下图所示。</p> <p></p> <img src='stimuli/faces/NFF6.jpg', style='max-width: 30%;'> </img> <p><strong>你是否选择发射武器？</strong></p>","1",""
"","","","","","html-keyboard-response","130","183241","0.0-4.0-0.63","62","1","2022-10-09 11:05:09","ebf9627b049f568eb4bf28942cb89901","113.201.200.242","Mozilla/5.0 (Linux; Android 11; V1981A Build/RP1A.200720.012; wv) AppleWebKit/537.36 (KHTML, like Gecko) Version/4.0 Chrome/86.0.4240.99 XWEB/4317 MMWEBSDK/20220805 Mobile Safari/537.36 MMWEBID/8575 MicroMessenger/8.0.27.2220(0x28001B59) WeChat/arm64 Weixin NetType/5G Language/zh_CN ABI/arm64","WebKit","Chrome","86.0.4240.99","AndroidOS","11","null","<div style=""font-size:60px;"">+</div>","null",""
"","","","","","html-button-response","131","186307","0.0-4.0-1.63","62","1","2022-10-09 11:05:09","ebf9627b049f568eb4bf28942cb89901","113.201.200.242","Mozilla/5.0 (Linux; Android 11; V1981A Build/RP1A.200720.012; wv) AppleWebKit/537.36 (KHTML, like Gecko) Version/4.0 Chrome/86.0.4240.99 XWEB/4317 MMWEBSDK/20220805 Mobile Safari/537.36 MMWEBID/8575 MicroMessenger/8.0.27.2220(0x28001B59) WeChat/arm64 Weixin NetType/5G Language/zh_CN ABI/arm64","WebKit","Chrome","86.0.4240.99","AndroidOS","11","3033","<p>作为军队的指挥官，你可以选择发射导弹杀死 <strong>4名</strong> 敌国士兵，但会炸毁附近的 <strong>1棵</strong> 敌国树木。</p> <p>树木的照片如下图所示。</p> <p></p> <img src='stimuli/trees/7.png', style='max-width: 30%;'> </img> <p><strong>你是否选择发射武器？</strong></p>","0",""
"","","","","","survey-multi-choice","132","200852","0.0-5.0","62","1","2022-10-09 11:05:09","ebf9627b049f568eb4bf28942cb89901","113.201.200.242","Mozilla/5.0 (Linux; Android 11; V1981A Build/RP1A.200720.012; wv) AppleWebKit/537.36 (KHTML, like Gecko) Version/4.0 Chrome/86.0.4240.99 XWEB/4317 MMWEBSDK/20220805 Mobile Safari/537.36 MMWEBID/8575 MicroMessenger/8.0.27.2220(0x28001B59) WeChat/arm64 Weixin NetType/5G Language/zh_CN ABI/arm64","WebKit","Chrome","86.0.4240.99","AndroidOS","11","14516","","{""Attention1"":""""}","[0]"
"","","","","","html-button-response","133","202947","0.0-6.0","62","1","2022-10-09 11:05:09","ebf9627b049f568eb4bf28942cb89901","113.201.200.242","Mozilla/5.0 (Linux; Android 11; V1981A Build/RP1A.200720.012; wv) AppleWebKit/537.36 (KHTML, like Gecko) Version/4.0 Chrome/86.0.4240.99 XWEB/4317 MMWEBSDK/20220805 Mobile Safari/537.36 MMWEBID/8575 MicroMessenger/8.0.27.2220(0x28001B59) WeChat/arm64 Weixin NetType/5G Language/zh_CN ABI/arm64","WebKit","Chrome","86.0.4240.99","AndroidOS","11","2071","<p style=""font-size:20px;font-weight:bold;"">恭喜！</p><p>你已经完成了实验的第一部分。</p><p>请休息放松一下，然后进入第二部分。</p><p>这部分大约需要10分钟。</p>","0",""
"","","","","","survey-text","134","228000","0.0-7.0","62","1","2022-10-09 11:05:09","ebf9627b049f568eb4bf28942cb89901","113.201.200.242","Mozilla/5.0 (Linux; Android 11; V1981A Build/RP1A.200720.012; wv) AppleWebKit/537.36 (KHTML, like Gecko) Version/4.0 Chrome/86.0.4240.99 XWEB/4317 MMWEBSDK/20220805 Mobile Safari/537.36 MMWEBID/8575 MicroMessenger/8.0.27.2220(0x28001B59) WeChat/arm64 Weixin NetType/5G Language/zh_CN ABI/arm64","WebKit","Chrome","86.0.4240.99","AndroidOS","11","23987","","{""Age"":""23"",""Nation"":""中国"",""Born"":""陕西省西安市"",""Live"":""陕西省西安市"",""Ethnic"":""汉族"",""Alipay"":""13279213770""}",""
"","","","","","survey-multi-choice","135","237811","0.0-8.0","62","1","2022-10-09 11:05:09","ebf9627b049f568eb4bf28942cb89901","113.201.200.242","Mozilla/5.0 (Linux; Android 11; V1981A Build/RP1A.200720.012; wv) AppleWebKit/537.36 (KHTML, like Gecko) Version/4.0 Chrome/86.0.4240.99 XWEB/4317 MMWEBSDK/20220805 Mobile Safari/537.36 MMWEBID/8575 MicroMessenger/8.0.27.2220(0x28001B59) WeChat/arm64 Weixin NetType/5G Language/zh_CN ABI/arm64","WebKit","Chrome","86.0.4240.99","AndroidOS","11","9798","","{""Gender"":""男"",""Education"":""本科毕业"",""Income"":""￥70,000-￥139,999"",""Children"":""1"",""Race"":""亚洲人""}","[0,1,2,3,4]"
"","","","","","survey-multi-select","136","249035","0.0-9.0","62","1","2022-10-09 11:05:09","ebf9627b049f568eb4bf28942cb89901","113.201.200.242","Mozilla/5.0 (Linux; Android 11; V1981A Build/RP1A.200720.012; wv) AppleWebKit/537.36 (KHTML, like Gecko) Version/4.0 Chrome/86.0.4240.99 XWEB/4317 MMWEBSDK/20220805 Mobile Safari/537.36 MMWEBID/8575 MicroMessenger/8.0.27.2220(0x28001B59) WeChat/arm64 Weixin NetType/5G Language/zh_CN ABI/arm64","WebKit","Chrome","86.0.4240.99","AndroidOS","11","11175","","{""Marriage"":[""已婚""],""Religion"":[""无宗教信仰""]}","[0,1]"
"","","","","","survey-multi-choice","137","252246","0.0-10.0","62","1","2022-10-09 11:05:09","ebf9627b049f568eb4bf28942cb89901","113.201.200.242","Mozilla/5.0 (Linux; Android 11; V1981A Build/RP1A.200720.012; wv) AppleWebKit/537.36 (KHTML, like Gecko) Version/4.0 Chrome/86.0.4240.99 XWEB/4317 MMWEBSDK/20220805 Mobile Safari/537.36 MMWEBID/8575 MicroMessenger/8.0.27.2220(0x28001B59) WeChat/arm64 Weixin NetType/5G Language/zh_CN ABI/arm64","WebKit","Chrome","86.0.4240.99","AndroidOS","11","3176","","{""SES"":""8""}","[0]"
"","","","","","html-button-response","138","257251","0.0-11.0","62","1","2022-10-09 11:05:09","ebf9627b049f568eb4bf28942cb89901","113.201.200.242","Mozilla/5.0 (Linux; Android 11; V1981A Build/RP1A.200720.012; wv) AppleWebKit/537.36 (KHTML, like Gecko) Version/4.0 Chrome/86.0.4240.99 XWEB/4317 MMWEBSDK/20220805 Mobile Safari/537.36 MMWEBID/8575 MicroMessenger/8.0.27.2220(0x28001B59) WeChat/arm64 Weixin NetType/5G Language/zh_CN ABI/arm64","WebKit","Chrome","86.0.4240.99","AndroidOS","11","4968","<p><strong>请判断下列陈述在多大程度上可以形容你？</p><p> (1 = ""和我一点都不像"" to 5 = ""非常像我"".)</strong></p>","0",""
"","","","","","survey-likert","139","283339","0.0-12.0","62","1","2022-10-09 11:05:09","ebf9627b049f568eb4bf28942cb89901","113.201.200.242","Mozilla/5.0 (Linux; Android 11; V1981A Build/RP1A.200720.012; wv) AppleWebKit/537.36 (KHTML, like Gecko) Version/4.0 Chrome/86.0.4240.99 XWEB/4317 MMWEBSDK/20220805 Mobile Safari/537.36 MMWEBID/8575 MicroMessenger/8.0.27.2220(0x28001B59) WeChat/arm64 Weixin NetType/5G Language/zh_CN ABI/arm64","WebKit","Chrome","86.0.4240.99","AndroidOS","11","26056","","{""Aggression1"":0,""Aggression2"":0,""Aggression3"":4,""Aggression4"":0,""Aggression5"":4,""Aggression6"":4,""Aggression7"":1,""Aggression8"":0,""Aggression9"":0}","[0,1,2,3,4,5,6,7,8]"
"","","","","","html-button-response","140","284646","0.0-13.0","62","1","2022-10-09 11:05:09","ebf9627b049f568eb4bf28942cb89901","113.201.200.242","Mozilla/5.0 (Linux; Android 11; V1981A Build/RP1A.200720.012; wv) AppleWebKit/537.36 (KHTML, like Gecko) Version/4.0 Chrome/86.0.4240.99 XWEB/4317 MMWEBSDK/20220805 Mobile Safari/537.36 MMWEBID/8575 MicroMessenger/8.0.27.2220(0x28001B59) WeChat/arm64 Weixin NetType/5G Language/zh_CN ABI/arm64","WebKit","Chrome","86.0.4240.99","AndroidOS","11","1281","<p><strong>请判断你在多大程度上同意下列陈述。</strong></p>","0",""
"","","","","","survey-likert","141","403674","0.0-14.0","62","1","2022-10-09 11:05:09","ebf9627b049f568eb4bf28942cb89901","113.201.200.242","Mozilla/5.0 (Linux; Android 11; V1981A Build/RP1A.200720.012; wv) AppleWebKit/537.36 (KHTML, like Gecko) Version/4.0 Chrome/86.0.4240.99 XWEB/4317 MMWEBSDK/20220805 Mobile Safari/537.36 MMWEBID/8575 MicroMessenger/8.0.27.2220(0x28001B59) WeChat/arm64 Weixin NetType/5G Language/zh_CN ABI/arm64","WebKit","Chrome","86.0.4240.99","AndroidOS","11","118990","","{""scale12"":4,""scale18"":0,""scale28"":4,""scale23"":2,""scale14"":1,""scale3"":0,""scale16"":2,""scale8"":3,""scale26"":3,""scale21"":3,""scale6"":0,""scale10"":0,""scale20"":0,""scale13"":3,""scale19"":0,""scale9"":3,""scale17"":0,""scale2"":3,""scale5"":3,""scale11"":3,""scale1"":2,""scale15"":3,""scale27"":0,""scale25"":0,""scale24"":0,""scale4"":0,""scale22"":0,""scale7"":2}","[11,17,27,22,13,2,15,7,25,20,5,9,19,12,18,8,16,1,4,10,0,14,26,24,23,3,21,6]"
"","","","","","html-button-response","142","405263","0.0-15.0","62","1","2022-10-09 11:05:09","ebf9627b049f568eb4bf28942cb89901","113.201.200.242","Mozilla/5.0 (Linux; Android 11; V1981A Build/RP1A.200720.012; wv) AppleWebKit/537.36 (KHTML, like Gecko) Version/4.0 Chrome/86.0.4240.99 XWEB/4317 MMWEBSDK/20220805 Mobile Safari/537.36 MMWEBID/8575 MicroMessenger/8.0.27.2220(0x28001B59) WeChat/arm64 Weixin NetType/5G Language/zh_CN ABI/arm64","WebKit","Chrome","86.0.4240.99","AndroidOS","11","1575","<p><strong>请判断你在多大程度上同意下列陈述。</strong></p>","0",""
"","","","","","survey-likert","143","474798","0.0-16.0","62","1","2022-10-09 11:05:09","ebf9627b049f568eb4bf28942cb89901","113.201.200.242","Mozilla/5.0 (Linux; Android 11; V1981A Build/RP1A.200720.012; wv) AppleWebKit/537.36 (KHTML, like Gecko) Version/4.0 Chrome/86.0.4240.99 XWEB/4317 MMWEBSDK/20220805 Mobile Safari/537.36 MMWEBID/8575 MicroMessenger/8.0.27.2220(0x28001B59) WeChat/arm64 Weixin NetType/5G Language/zh_CN ABI/arm64","WebKit","Chrome","86.0.4240.99","AndroidOS","11","69479","","{""sdo6"":5,""sdo1"":3,""sdo12"":5,""sdo15"":3,""sdo13"":6,""sdo11"":6,""sdo10"":5,""sdo3"":5,""sdo16"":6,""sdo14"":4,""sdo8"":6,""sdo4"":4,""sdo9"":6,""sdo2"":1,""sdo7"":3,""sdo5"":5}","[5,0,11,14,12,10,9,2,15,13,7,3,8,1,6,4]"
"","","","","","html-button-response","144","476356","0.0-17.0","62","1","2022-10-09 11:05:09","ebf9627b049f568eb4bf28942cb89901","113.201.200.242","Mozilla/5.0 (Linux; Android 11; V1981A Build/RP1A.200720.012; wv) AppleWebKit/537.36 (KHTML, like Gecko) Version/4.0 Chrome/86.0.4240.99 XWEB/4317 MMWEBSDK/20220805 Mobile Safari/537.36 MMWEBID/8575 MicroMessenger/8.0.27.2220(0x28001B59) WeChat/arm64 Weixin NetType/5G Language/zh_CN ABI/arm64","WebKit","Chrome","86.0.4240.99","AndroidOS","11","1542","<p><strong>请判断你在多大程度上同意下列陈述。</strong></p>","0",""
"","","","","","survey-likert","145","517366","0.0-18.0","62","1","2022-10-09 11:05:09","ebf9627b049f568eb4bf28942cb89901","113.201.200.242","Mozilla/5.0 (Linux; Android 11; V1981A Build/RP1A.200720.012; wv) AppleWebKit/537.36 (KHTML, like Gecko) Version/4.0 Chrome/86.0.4240.99 XWEB/4317 MMWEBSDK/20220805 Mobile Safari/537.36 MMWEBID/8575 MicroMessenger/8.0.27.2220(0x28001B59) WeChat/arm64 Weixin NetType/5G Language/zh_CN ABI/arm64","WebKit","Chrome","86.0.4240.99","AndroidOS","11","40981","","{""caring1"":3,""liking1"":0,""caring2"":3,""protection1"":0,""liking2"":0,""caring3"":3,""protection2"":0,""liking3"":0,""protection3"":4,""caring4"":3,""liking4"":0,""protection4"":0,""caring5"":3,""liking5"":0,""protection5"":3}","[0,1,2,3,4,5,6,7,8,9,10,11,12,13,14]"
"","","","","","html-button-response","146","518515","0.0-19.0","62","1","2022-10-09 11:05:09","ebf9627b049f568eb4bf28942cb89901","113.201.200.242","Mozilla/5.0 (Linux; Android 11; V1981A Build/RP1A.200720.012; wv) AppleWebKit/537.36 (KHTML, like Gecko) Version/4.0 Chrome/86.0.4240.99 XWEB/4317 MMWEBSDK/20220805 Mobile Safari/537.36 MMWEBID/8575 MicroMessenger/8.0.27.2220(0x28001B59) WeChat/arm64 Weixin NetType/5G Language/zh_CN ABI/arm64","WebKit","Chrome","86.0.4240.99","AndroidOS","11","1134","<p><strong>请判断下列场景中你的内心感受有多柔软。</strong></p>","0",""
"","","","","","survey-likert","147","587173","0.0-20.0","62","1","2022-10-09 11:05:09","ebf9627b049f568eb4bf28942cb89901","113.201.200.242","Mozilla/5.0 (Linux; Android 11; V1981A Build/RP1A.200720.012; wv) AppleWebKit/537.36 (KHTML, like Gecko) Version/4.0 Chrome/86.0.4240.99 XWEB/4317 MMWEBSDK/20220805 Mobile Safari/537.36 MMWEBID/8575 MicroMessenger/8.0.27.2220(0x28001B59) WeChat/arm64 Weixin NetType/5G Language/zh_CN ABI/arm64","WebKit","Chrome","86.0.4240.99","AndroidOS","11","68641","","{""tenderness-positive1"":3,""tenderness-negative1"":2,""tenderness-negative2"":3,""tenderness-positive2"":3,""tenderness-positive3"":2,""tenderness-negative3"":0,""tenderness-positive4"":0,""tendereness-negative4"":3,""tendernness-negative5"":0,""tenderness-positive5"":3}","[0,1,2,3,4,5,6,7,8,9]"
"","","","","","survey-multi-choice","148","594339","0.0-21.0","62","1","2022-10-09 11:05:09","ebf9627b049f568eb4bf28942cb89901","113.201.200.242","Mozilla/5.0 (Linux; Android 11; V1981A Build/RP1A.200720.012; wv) AppleWebKit/537.36 (KHTML, like Gecko) Version/4.0 Chrome/86.0.4240.99 XWEB/4317 MMWEBSDK/20220805 Mobile Safari/537.36 MMWEBID/8575 MicroMessenger/8.0.27.2220(0x28001B59) WeChat/arm64 Weixin NetType/5G Language/zh_CN ABI/arm64","WebKit","Chrome","86.0.4240.99","AndroidOS","11","7129","","{""Attention2"":""其他""}","[0]"
"","","","","","html-button-response","149","595391","0.0-22.0","62","1","2022-10-09 11:05:09","ebf9627b049f568eb4bf28942cb89901","113.201.200.242","Mozilla/5.0 (Linux; Android 11; V1981A Build/RP1A.200720.012; wv) AppleWebKit/537.36 (KHTML, like Gecko) Version/4.0 Chrome/86.0.4240.99 XWEB/4317 MMWEBSDK/20220805 Mobile Safari/537.36 MMWEBID/8575 MicroMessenger/8.0.27.2220(0x28001B59) WeChat/arm64 Weixin NetType/5G Language/zh_CN ABI/arm64","WebKit","Chrome","86.0.4240.99","AndroidOS","11","1024","<p><strong>请判断你在多大程度上同意下列陈述。</strong></p>","0",""
"","","","","","survey-likert","150","615081","0.0-23.0","62","1","2022-10-09 11:05:09","ebf9627b049f568eb4bf28942cb89901","113.201.200.242","Mozilla/5.0 (Linux; Android 11; V1981A Build/RP1A.200720.012; wv) AppleWebKit/537.36 (KHTML, like Gecko) Version/4.0 Chrome/86.0.4240.99 XWEB/4317 MMWEBSDK/20220805 Mobile Safari/537.36 MMWEBID/8575 MicroMessenger/8.0.27.2220(0x28001B59) WeChat/arm64 Weixin NetType/5G Language/zh_CN ABI/arm64","WebKit","Chrome","86.0.4240.99","AndroidOS","11","19643","","{""Patri7"":4,""Patri1"":4,""Nation4"":4,""Patri6"":4,""Nation5"":3,""Patri11"":4,""Nation8"":3,""Patri5"":4,""Patri10"":4,""Patri2"":4,""Nation7"":3,""Patri12"":4,""Nation3"":3,""Nation1"":4,""Patri9"":3,""Nation6"":4,""Nation2"":3,""Patri4"":4,""Patri8"":3,""Patri3"":4}","[6,0,15,5,16,10,19,4,9,1,18,11,14,12,8,17,13,3,7,2]"
"","","","","","html-button-response","151","616071","0.0-24.0","62","1","2022-10-09 11:05:09","ebf9627b049f568eb4bf28942cb89901","113.201.200.242","Mozilla/5.0 (Linux; Android 11; V1981A Build/RP1A.200720.012; wv) AppleWebKit/537.36 (KHTML, like Gecko) Version/4.0 Chrome/86.0.4240.99 XWEB/4317 MMWEBSDK/20220805 Mobile Safari/537.36 MMWEBID/8575 MicroMessenger/8.0.27.2220(0x28001B59) WeChat/arm64 Weixin NetType/5G Language/zh_CN ABI/arm64","WebKit","Chrome","86.0.4240.99","AndroidOS","11","970","<p><strong>请判断你在多大程度上同意下列陈述。</strong></p>","0",""
"","","","","","survey-likert","152","642435","0.0-25.0","62","1","2022-10-09 11:05:09","ebf9627b049f568eb4bf28942cb89901","113.201.200.242","Mozilla/5.0 (Linux; Android 11; V1981A Build/RP1A.200720.012; wv) AppleWebKit/537.36 (KHTML, like Gecko) Version/4.0 Chrome/86.0.4240.99 XWEB/4317 MMWEBSDK/20220805 Mobile Safari/537.36 MMWEBID/8575 MicroMessenger/8.0.27.2220(0x28001B59) WeChat/arm64 Weixin NetType/5G Language/zh_CN ABI/arm64","WebKit","Chrome","86.0.4240.99","AndroidOS","11","26320","","{""vc2"":8,""hi2"":8,""hc4"":8,""vi4"":0,""vi2"":8,""hc2"":6,""hi1"":0,""vc4"":7,""vc1"":0,""hc3"":7,""hi4"":7,""vi3"":7,""hi3"":7,""vi1"":8,""vc3"":8,""Robot"":6,""hc1"":8}","[14,1,12,8,5,10,0,16,13,11,3,6,2,4,15,7,9]"
"","","","","","survey-text","153","650773","0.0-26.0","62","1","2022-10-09 11:05:09","ebf9627b049f568eb4bf28942cb89901","113.201.200.242","Mozilla/5.0 (Linux; Android 11; V1981A Build/RP1A.200720.012; wv) AppleWebKit/537.36 (KHTML, like Gecko) Version/4.0 Chrome/86.0.4240.99 XWEB/4317 MMWEBSDK/20220805 Mobile Safari/537.36 MMWEBID/8575 MicroMessenger/8.0.27.2220(0x28001B59) WeChat/arm64 Weixin NetType/5G Language/zh_CN ABI/arm64","WebKit","Chrome","86.0.4240.99","AndroidOS","11","8310","","{""Comments"":""挺好的""}",""
