"success","timeout","failed_images","failed_audio","failed_video","trial_type","trial_index","time_elapsed","internal_node_id","run_id","condition","recorded_at","source_code_version","ip","user_agent","device","browser","browser_version","platform","platform_version","rt","stimulus","response","question_order"
"true","false","[]","[]","[]","preload","0","1141","0.0-0.0","66","1","2022-10-09 11:06:17","ebf9627b049f568eb4bf28942cb89901","120.208.185.42","Mozilla/5.0 (Windows NT 10.0; Win64; x64) AppleWebKit/537.36 (KHTML, like Gecko) Chrome/104.0.5112.81 Safari/537.36 Edg/104.0.1293.54","WebKit","Edge","104.0.1293.54","Windows","10.0","","","",""
"true","","","","","fullscreen","1","23155","0.0-1.0","66","1","2022-10-09 11:06:17","ebf9627b049f568eb4bf28942cb89901","120.208.185.42","Mozilla/5.0 (Windows NT 10.0; Win64; x64) AppleWebKit/537.36 (KHTML, like Gecko) Chrome/104.0.5112.81 Safari/537.36 Edg/104.0.1293.54","WebKit","Edge","104.0.1293.54","Windows","10.0","","","",""
"","","","","","html-button-response","2","31472","0.0-2.0","66","1","2022-10-09 11:06:17","ebf9627b049f568eb4bf28942cb89901","120.208.185.42","Mozilla/5.0 (Windows NT 10.0; Win64; x64) AppleWebKit/537.36 (KHTML, like Gecko) Chrome/104.0.5112.81 Safari/537.36 Edg/104.0.1293.54","WebKit","Edge","104.0.1293.54","Windows","10.0","8313","<p style=""font-size:20px;font-weight:bold;"">实验知情同意书</p><p style=""text-align:left;""><strong>实验名称：</strong>社会冲突研究</p><p style=""text-align:left;""><strong>主要研究者：</strong>韩晓春副教授（北京师范大学心理学部）</p><p style=""text-align:left;""><strong>联系方式：</strong>发送邮件至xiaochun.han@bnu.edu.cn</p><p style=""text-align:left;""><strong>研究目的：</strong>研究旨在了解人类面对群体冲突时的决策方式，以及相关的心理学特质。实验调查大约需要20分钟。</p><p style=""text-align:left;""><strong>实验流程：</strong>实验包含两部分。第一部分呈现一系列群体冲突场景，请你决定如何对这些冲突进行反应，大约需要10分钟完成。第二部分包含一系列人口统计学信息收集和心理学问卷，大约需要10分钟完成。</p><p style=""text-align:left;""><strong>参加及退出规则：</strong>参加本实验完全取决于您的个人意愿。在参与过程中，您可以随时退出，并且不用承担任何后果。</p><p style=""text-align:left;""><strong>隐私：</strong>本实验完全匿名进行，不会收集您的姓名或其他能够识别您身份的信息。实验中收集的作答仅用作科学研究使用，可能会在学术期刊/书籍上发表，或者用于教学，您的数据未来可能会和其他研究者或实验室分享，但您的个人身份不会被识别。</p><p style=""text-align:left;""><strong>实验报酬：</strong>实验完成后，您将获得15元人民币报酬，以感谢您的时间和努力。调查问卷中包含几道题目用以测验您作答时的认真度。只有完成全部实验，并且正确回答认真度测验的被试才能获得实验报酬。实验报酬将通过支付宝转账发放。</p><p style=""text-align:left;font-size:20px;""><strong>如果您同意以上实验知情同意书的内容，请点击'同意并且开始实验'按钮；否则请关闭浏览器界面，退出实验。</strong></p>","0",""
"","","","","","html-button-response","3","32344","0.0-3.0","66","1","2022-10-09 11:06:17","ebf9627b049f568eb4bf28942cb89901","120.208.185.42","Mozilla/5.0 (Windows NT 10.0; Win64; x64) AppleWebKit/537.36 (KHTML, like Gecko) Chrome/104.0.5112.81 Safari/537.36 Edg/104.0.1293.54","WebKit","Edge","104.0.1293.54","Windows","10.0","870","<p ><strong>实验任务一：</strong></p><p>请想象你的国家与另一个国家发生了军事冲突。</p><p>你是国家军队的指挥官，你将如何在冲突中进行决策。</p><p>具体来说，作为军队指挥官，请你决定是否发射导弹进行打击。</p><p>接下来，你会面对一系列场景，请仔细阅读每个场景，然后进行决策。</p><p>这部分实验任务大约需要10分钟。</p><p><strong>实验过程中，请集中注意力。</strong></p>","0",""
"","","","","","html-keyboard-response","4","33345","0.0-4.0-0.0","66","1","2022-10-09 11:06:17","ebf9627b049f568eb4bf28942cb89901","120.208.185.42","Mozilla/5.0 (Windows NT 10.0; Win64; x64) AppleWebKit/537.36 (KHTML, like Gecko) Chrome/104.0.5112.81 Safari/537.36 Edg/104.0.1293.54","WebKit","Edge","104.0.1293.54","Windows","10.0","null","<div style=""font-size:60px;"">+</div>","null",""
"","","","","","html-button-response","5","34808","0.0-4.0-1.0","66","1","2022-10-09 11:06:17","ebf9627b049f568eb4bf28942cb89901","120.208.185.42","Mozilla/5.0 (Windows NT 10.0; Win64; x64) AppleWebKit/537.36 (KHTML, like Gecko) Chrome/104.0.5112.81 Safari/537.36 Edg/104.0.1293.54","WebKit","Edge","104.0.1293.54","Windows","10.0","1461","<p>作为军队的指挥官，你可以选择发射导弹杀死 <strong>1名</strong> 敌国士兵，但会炸毁附近的 <strong>1棵</strong> 敌国树木。</p> <p>树木的照片如下图所示。</p> <p></p> <img src='stimuli/trees/6.png', style='max-width: 30%;'> </img> <p><strong>你是否选择发射武器？</strong></p>","0",""
"","","","","","html-keyboard-response","6","35822","0.0-4.0-0.1","66","1","2022-10-09 11:06:17","ebf9627b049f568eb4bf28942cb89901","120.208.185.42","Mozilla/5.0 (Windows NT 10.0; Win64; x64) AppleWebKit/537.36 (KHTML, like Gecko) Chrome/104.0.5112.81 Safari/537.36 Edg/104.0.1293.54","WebKit","Edge","104.0.1293.54","Windows","10.0","null","<div style=""font-size:60px;"">+</div>","null",""
"","","","","","html-button-response","7","36368","0.0-4.0-1.1","66","1","2022-10-09 11:06:17","ebf9627b049f568eb4bf28942cb89901","120.208.185.42","Mozilla/5.0 (Windows NT 10.0; Win64; x64) AppleWebKit/537.36 (KHTML, like Gecko) Chrome/104.0.5112.81 Safari/537.36 Edg/104.0.1293.54","WebKit","Edge","104.0.1293.54","Windows","10.0","541","<p>作为军队的指挥官，你可以选择发射导弹杀死 <strong>10名</strong> 敌国士兵，但会炸毁附近的 <strong>1棵</strong> 敌国树木。</p> <p>树木的照片如下图所示。</p> <p></p> <img src='stimuli/trees/12.png', style='max-width: 30%;'> </img> <p><strong>你是否选择发射武器？</strong></p>","0",""
"","","","","","html-keyboard-response","8","37372","0.0-4.0-0.2","66","1","2022-10-09 11:06:17","ebf9627b049f568eb4bf28942cb89901","120.208.185.42","Mozilla/5.0 (Windows NT 10.0; Win64; x64) AppleWebKit/537.36 (KHTML, like Gecko) Chrome/104.0.5112.81 Safari/537.36 Edg/104.0.1293.54","WebKit","Edge","104.0.1293.54","Windows","10.0","null","<div style=""font-size:60px;"">+</div>","null",""
"","","","","","html-button-response","9","38184","0.0-4.0-1.2","66","1","2022-10-09 11:06:17","ebf9627b049f568eb4bf28942cb89901","120.208.185.42","Mozilla/5.0 (Windows NT 10.0; Win64; x64) AppleWebKit/537.36 (KHTML, like Gecko) Chrome/104.0.5112.81 Safari/537.36 Edg/104.0.1293.54","WebKit","Edge","104.0.1293.54","Windows","10.0","808","<p>作为军队的指挥官，你可以选择发射导弹杀死 <strong>9名</strong> 敌国士兵，但会误杀附近的 <strong>1名</strong> 敌国平民。</p> <p>平民照片如下图所示。</p> <p></p> <img src='stimuli/faces/NFM6.jpg', style='max-width: 30%;'> </img> <p><strong>你是否选择发射武器？</strong></p>","1",""
"","","","","","html-keyboard-response","10","39185","0.0-4.0-0.3","66","1","2022-10-09 11:06:17","ebf9627b049f568eb4bf28942cb89901","120.208.185.42","Mozilla/5.0 (Windows NT 10.0; Win64; x64) AppleWebKit/537.36 (KHTML, like Gecko) Chrome/104.0.5112.81 Safari/537.36 Edg/104.0.1293.54","WebKit","Edge","104.0.1293.54","Windows","10.0","null","<div style=""font-size:60px;"">+</div>","null",""
"","","","","","html-button-response","11","40160","0.0-4.0-1.3","66","1","2022-10-09 11:06:17","ebf9627b049f568eb4bf28942cb89901","120.208.185.42","Mozilla/5.0 (Windows NT 10.0; Win64; x64) AppleWebKit/537.36 (KHTML, like Gecko) Chrome/104.0.5112.81 Safari/537.36 Edg/104.0.1293.54","WebKit","Edge","104.0.1293.54","Windows","10.0","973","<p>作为军队的指挥官，你可以选择发射导弹杀死 <strong>10名</strong> 敌国士兵，但会炸毁附近的 <strong>1棵</strong> 敌国树木。</p> <p>树木的照片如下图所示。</p> <p></p> <img src='stimuli/trees/1.png', style='max-width: 30%;'> </img> <p><strong>你是否选择发射武器？</strong></p>","0",""
"","","","","","html-keyboard-response","12","41163","0.0-4.0-0.4","66","1","2022-10-09 11:06:17","ebf9627b049f568eb4bf28942cb89901","120.208.185.42","Mozilla/5.0 (Windows NT 10.0; Win64; x64) AppleWebKit/537.36 (KHTML, like Gecko) Chrome/104.0.5112.81 Safari/537.36 Edg/104.0.1293.54","WebKit","Edge","104.0.1293.54","Windows","10.0","null","<div style=""font-size:60px;"">+</div>","null",""
"","","","","","html-button-response","13","42265","0.0-4.0-1.4","66","1","2022-10-09 11:06:17","ebf9627b049f568eb4bf28942cb89901","120.208.185.42","Mozilla/5.0 (Windows NT 10.0; Win64; x64) AppleWebKit/537.36 (KHTML, like Gecko) Chrome/104.0.5112.81 Safari/537.36 Edg/104.0.1293.54","WebKit","Edge","104.0.1293.54","Windows","10.0","1098","<p>作为军队的指挥官，你可以选择发射导弹杀死 <strong>5名</strong> 敌国士兵，但会误杀附近的 <strong>1名</strong> 敌国平民。</p> <p>平民照片如下图所示。</p> <p></p> <img src='stimuli/faces/NFM7.jpg', style='max-width: 30%;'> </img> <p><strong>你是否选择发射武器？</strong></p>","1",""
"","","","","","html-keyboard-response","14","43267","0.0-4.0-0.5","66","1","2022-10-09 11:06:17","ebf9627b049f568eb4bf28942cb89901","120.208.185.42","Mozilla/5.0 (Windows NT 10.0; Win64; x64) AppleWebKit/537.36 (KHTML, like Gecko) Chrome/104.0.5112.81 Safari/537.36 Edg/104.0.1293.54","WebKit","Edge","104.0.1293.54","Windows","10.0","null","<div style=""font-size:60px;"">+</div>","null",""
"","","","","","html-button-response","15","44432","0.0-4.0-1.5","66","1","2022-10-09 11:06:17","ebf9627b049f568eb4bf28942cb89901","120.208.185.42","Mozilla/5.0 (Windows NT 10.0; Win64; x64) AppleWebKit/537.36 (KHTML, like Gecko) Chrome/104.0.5112.81 Safari/537.36 Edg/104.0.1293.54","WebKit","Edge","104.0.1293.54","Windows","10.0","1162","<p>作为军队的指挥官，你可以选择发射导弹杀死 <strong>9名</strong> 敌国士兵，但会误杀附近的 <strong>1名</strong> 敌国平民。</p> <p>平民照片如下图所示。</p> <p></p> <img src='stimuli/faces/NFF3.jpg', style='max-width: 30%;'> </img> <p><strong>你是否选择发射武器？</strong></p>","1",""
"","","","","","html-keyboard-response","16","45434","0.0-4.0-0.6","66","1","2022-10-09 11:06:17","ebf9627b049f568eb4bf28942cb89901","120.208.185.42","Mozilla/5.0 (Windows NT 10.0; Win64; x64) AppleWebKit/537.36 (KHTML, like Gecko) Chrome/104.0.5112.81 Safari/537.36 Edg/104.0.1293.54","WebKit","Edge","104.0.1293.54","Windows","10.0","null","<div style=""font-size:60px;"">+</div>","null",""
"","","","","","html-button-response","17","46392","0.0-4.0-1.6","66","1","2022-10-09 11:06:17","ebf9627b049f568eb4bf28942cb89901","120.208.185.42","Mozilla/5.0 (Windows NT 10.0; Win64; x64) AppleWebKit/537.36 (KHTML, like Gecko) Chrome/104.0.5112.81 Safari/537.36 Edg/104.0.1293.54","WebKit","Edge","104.0.1293.54","Windows","10.0","953","<p>作为军队的指挥官，你可以选择发射导弹杀死 <strong>5名</strong> 敌国士兵，但会炸毁附近的 <strong>1棵</strong> 敌国树木。</p> <p>树木的照片如下图所示。</p> <p></p> <img src='stimuli/trees/1.png', style='max-width: 30%;'> </img> <p><strong>你是否选择发射武器？</strong></p>","0",""
"","","","","","html-keyboard-response","18","47395","0.0-4.0-0.7","66","1","2022-10-09 11:06:17","ebf9627b049f568eb4bf28942cb89901","120.208.185.42","Mozilla/5.0 (Windows NT 10.0; Win64; x64) AppleWebKit/537.36 (KHTML, like Gecko) Chrome/104.0.5112.81 Safari/537.36 Edg/104.0.1293.54","WebKit","Edge","104.0.1293.54","Windows","10.0","null","<div style=""font-size:60px;"">+</div>","null",""
"","","","","","html-button-response","19","47993","0.0-4.0-1.7","66","1","2022-10-09 11:06:17","ebf9627b049f568eb4bf28942cb89901","120.208.185.42","Mozilla/5.0 (Windows NT 10.0; Win64; x64) AppleWebKit/537.36 (KHTML, like Gecko) Chrome/104.0.5112.81 Safari/537.36 Edg/104.0.1293.54","WebKit","Edge","104.0.1293.54","Windows","10.0","596","<p>作为军队的指挥官，你可以选择发射导弹杀死 <strong>10名</strong> 敌国士兵，但会炸毁附近的 <strong>1棵</strong> 敌国树木。</p> <p>树木的照片如下图所示。</p> <p></p> <img src='stimuli/trees/13.png', style='max-width: 30%;'> </img> <p><strong>你是否选择发射武器？</strong></p>","0",""
"","","","","","html-keyboard-response","20","49003","0.0-4.0-0.8","66","1","2022-10-09 11:06:17","ebf9627b049f568eb4bf28942cb89901","120.208.185.42","Mozilla/5.0 (Windows NT 10.0; Win64; x64) AppleWebKit/537.36 (KHTML, like Gecko) Chrome/104.0.5112.81 Safari/537.36 Edg/104.0.1293.54","WebKit","Edge","104.0.1293.54","Windows","10.0","null","<div style=""font-size:60px;"">+</div>","null",""
"","","","","","html-button-response","21","49881","0.0-4.0-1.8","66","1","2022-10-09 11:06:17","ebf9627b049f568eb4bf28942cb89901","120.208.185.42","Mozilla/5.0 (Windows NT 10.0; Win64; x64) AppleWebKit/537.36 (KHTML, like Gecko) Chrome/104.0.5112.81 Safari/537.36 Edg/104.0.1293.54","WebKit","Edge","104.0.1293.54","Windows","10.0","876","<p>作为军队的指挥官，你可以选择发射导弹杀死 <strong>9名</strong> 敌国士兵，但会误杀附近的 <strong>1名</strong> 敌国平民。</p> <p>平民照片如下图所示。</p> <p></p> <img src='stimuli/faces/NFM8.jpg', style='max-width: 30%;'> </img> <p><strong>你是否选择发射武器？</strong></p>","1",""
"","","","","","html-keyboard-response","22","50893","0.0-4.0-0.9","66","1","2022-10-09 11:06:17","ebf9627b049f568eb4bf28942cb89901","120.208.185.42","Mozilla/5.0 (Windows NT 10.0; Win64; x64) AppleWebKit/537.36 (KHTML, like Gecko) Chrome/104.0.5112.81 Safari/537.36 Edg/104.0.1293.54","WebKit","Edge","104.0.1293.54","Windows","10.0","null","<div style=""font-size:60px;"">+</div>","null",""
"","","","","","html-button-response","23","51888","0.0-4.0-1.9","66","1","2022-10-09 11:06:17","ebf9627b049f568eb4bf28942cb89901","120.208.185.42","Mozilla/5.0 (Windows NT 10.0; Win64; x64) AppleWebKit/537.36 (KHTML, like Gecko) Chrome/104.0.5112.81 Safari/537.36 Edg/104.0.1293.54","WebKit","Edge","104.0.1293.54","Windows","10.0","993","<p>作为军队的指挥官，你可以选择发射导弹杀死 <strong>3名</strong> 敌国士兵，但会误杀附近的 <strong>1名</strong> 敌国平民。</p> <p>平民照片如下图所示。</p> <p></p> <img src='stimuli/faces/NFF8.jpg', style='max-width: 30%;'> </img> <p><strong>你是否选择发射武器？</strong></p>","1",""
"","","","","","html-keyboard-response","24","52890","0.0-4.0-0.10","66","1","2022-10-09 11:06:17","ebf9627b049f568eb4bf28942cb89901","120.208.185.42","Mozilla/5.0 (Windows NT 10.0; Win64; x64) AppleWebKit/537.36 (KHTML, like Gecko) Chrome/104.0.5112.81 Safari/537.36 Edg/104.0.1293.54","WebKit","Edge","104.0.1293.54","Windows","10.0","null","<div style=""font-size:60px;"">+</div>","null",""
"","","","","","html-button-response","25","54512","0.0-4.0-1.10","66","1","2022-10-09 11:06:17","ebf9627b049f568eb4bf28942cb89901","120.208.185.42","Mozilla/5.0 (Windows NT 10.0; Win64; x64) AppleWebKit/537.36 (KHTML, like Gecko) Chrome/104.0.5112.81 Safari/537.36 Edg/104.0.1293.54","WebKit","Edge","104.0.1293.54","Windows","10.0","1619","<p>作为军队的指挥官，你可以选择发射导弹杀死 <strong>1名</strong> 敌国士兵，但会误杀附近的 <strong>1名</strong> 敌国平民。</p> <p>平民照片如下图所示。</p> <p></p> <img src='stimuli/faces/NFM8.jpg', style='max-width: 30%;'> </img> <p><strong>你是否选择发射武器？</strong></p>","1",""
"","","","","","html-keyboard-response","26","55523","0.0-4.0-0.11","66","1","2022-10-09 11:06:17","ebf9627b049f568eb4bf28942cb89901","120.208.185.42","Mozilla/5.0 (Windows NT 10.0; Win64; x64) AppleWebKit/537.36 (KHTML, like Gecko) Chrome/104.0.5112.81 Safari/537.36 Edg/104.0.1293.54","WebKit","Edge","104.0.1293.54","Windows","10.0","null","<div style=""font-size:60px;"">+</div>","null",""
"","","","","","html-button-response","27","56521","0.0-4.0-1.11","66","1","2022-10-09 11:06:17","ebf9627b049f568eb4bf28942cb89901","120.208.185.42","Mozilla/5.0 (Windows NT 10.0; Win64; x64) AppleWebKit/537.36 (KHTML, like Gecko) Chrome/104.0.5112.81 Safari/537.36 Edg/104.0.1293.54","WebKit","Edge","104.0.1293.54","Windows","10.0","994","<p>作为军队的指挥官，你可以选择发射导弹杀死 <strong>3名</strong> 敌国士兵，但会炸毁附近的 <strong>1棵</strong> 敌国树木。</p> <p>树木的照片如下图所示。</p> <p></p> <img src='stimuli/trees/5.png', style='max-width: 30%;'> </img> <p><strong>你是否选择发射武器？</strong></p>","0",""
"","","","","","html-keyboard-response","28","57523","0.0-4.0-0.12","66","1","2022-10-09 11:06:17","ebf9627b049f568eb4bf28942cb89901","120.208.185.42","Mozilla/5.0 (Windows NT 10.0; Win64; x64) AppleWebKit/537.36 (KHTML, like Gecko) Chrome/104.0.5112.81 Safari/537.36 Edg/104.0.1293.54","WebKit","Edge","104.0.1293.54","Windows","10.0","null","<div style=""font-size:60px;"">+</div>","null",""
"","","","","","html-button-response","29","58281","0.0-4.0-1.12","66","1","2022-10-09 11:06:17","ebf9627b049f568eb4bf28942cb89901","120.208.185.42","Mozilla/5.0 (Windows NT 10.0; Win64; x64) AppleWebKit/537.36 (KHTML, like Gecko) Chrome/104.0.5112.81 Safari/537.36 Edg/104.0.1293.54","WebKit","Edge","104.0.1293.54","Windows","10.0","755","<p>作为军队的指挥官，你可以选择发射导弹杀死 <strong>4名</strong> 敌国士兵，但会误杀附近的 <strong>1名</strong> 敌国平民。</p> <p>平民照片如下图所示。</p> <p></p> <img src='stimuli/faces/NFM3.jpg', style='max-width: 30%;'> </img> <p><strong>你是否选择发射武器？</strong></p>","1",""
"","","","","","html-keyboard-response","30","59290","0.0-4.0-0.13","66","1","2022-10-09 11:06:17","ebf9627b049f568eb4bf28942cb89901","120.208.185.42","Mozilla/5.0 (Windows NT 10.0; Win64; x64) AppleWebKit/537.36 (KHTML, like Gecko) Chrome/104.0.5112.81 Safari/537.36 Edg/104.0.1293.54","WebKit","Edge","104.0.1293.54","Windows","10.0","null","<div style=""font-size:60px;"">+</div>","null",""
"","","","","","html-button-response","31","60297","0.0-4.0-1.13","66","1","2022-10-09 11:06:17","ebf9627b049f568eb4bf28942cb89901","120.208.185.42","Mozilla/5.0 (Windows NT 10.0; Win64; x64) AppleWebKit/537.36 (KHTML, like Gecko) Chrome/104.0.5112.81 Safari/537.36 Edg/104.0.1293.54","WebKit","Edge","104.0.1293.54","Windows","10.0","1004","<p>作为军队的指挥官，你可以选择发射导弹杀死 <strong>9名</strong> 敌国士兵，但会误杀附近的 <strong>1名</strong> 敌国平民。</p> <p>平民照片如下图所示。</p> <p></p> <img src='stimuli/faces/NFM3.jpg', style='max-width: 30%;'> </img> <p><strong>你是否选择发射武器？</strong></p>","1",""
"","","","","","html-keyboard-response","32","61299","0.0-4.0-0.14","66","1","2022-10-09 11:06:17","ebf9627b049f568eb4bf28942cb89901","120.208.185.42","Mozilla/5.0 (Windows NT 10.0; Win64; x64) AppleWebKit/537.36 (KHTML, like Gecko) Chrome/104.0.5112.81 Safari/537.36 Edg/104.0.1293.54","WebKit","Edge","104.0.1293.54","Windows","10.0","null","<div style=""font-size:60px;"">+</div>","null",""
"","","","","","html-button-response","33","62977","0.0-4.0-1.14","66","1","2022-10-09 11:06:17","ebf9627b049f568eb4bf28942cb89901","120.208.185.42","Mozilla/5.0 (Windows NT 10.0; Win64; x64) AppleWebKit/537.36 (KHTML, like Gecko) Chrome/104.0.5112.81 Safari/537.36 Edg/104.0.1293.54","WebKit","Edge","104.0.1293.54","Windows","10.0","1676","<p>作为军队的指挥官，你可以选择发射导弹杀死 <strong>2名</strong> 敌国士兵，但会炸毁附近的 <strong>1棵</strong> 敌国树木。</p> <p>树木的照片如下图所示。</p> <p></p> <img src='stimuli/trees/13.png', style='max-width: 30%;'> </img> <p><strong>你是否选择发射武器？</strong></p>","0",""
"","","","","","html-keyboard-response","34","63991","0.0-4.0-0.15","66","1","2022-10-09 11:06:17","ebf9627b049f568eb4bf28942cb89901","120.208.185.42","Mozilla/5.0 (Windows NT 10.0; Win64; x64) AppleWebKit/537.36 (KHTML, like Gecko) Chrome/104.0.5112.81 Safari/537.36 Edg/104.0.1293.54","WebKit","Edge","104.0.1293.54","Windows","10.0","null","<div style=""font-size:60px;"">+</div>","null",""
"","","","","","html-button-response","35","162921","0.0-4.0-1.15","66","1","2022-10-09 11:06:17","ebf9627b049f568eb4bf28942cb89901","120.208.185.42","Mozilla/5.0 (Windows NT 10.0; Win64; x64) AppleWebKit/537.36 (KHTML, like Gecko) Chrome/104.0.5112.81 Safari/537.36 Edg/104.0.1293.54","WebKit","Edge","104.0.1293.54","Windows","10.0","98927","<p>作为军队的指挥官，你可以选择发射导弹杀死 <strong>6名</strong> 敌国士兵，但会误杀附近的 <strong>1名</strong> 敌国平民。</p> <p>平民照片如下图所示。</p> <p></p> <img src='stimuli/faces/NFF6.jpg', style='max-width: 30%;'> </img> <p><strong>你是否选择发射武器？</strong></p>","1",""
"","","","","","html-keyboard-response","36","163923","0.0-4.0-0.16","66","1","2022-10-09 11:06:17","ebf9627b049f568eb4bf28942cb89901","120.208.185.42","Mozilla/5.0 (Windows NT 10.0; Win64; x64) AppleWebKit/537.36 (KHTML, like Gecko) Chrome/104.0.5112.81 Safari/537.36 Edg/104.0.1293.54","WebKit","Edge","104.0.1293.54","Windows","10.0","null","<div style=""font-size:60px;"">+</div>","null",""
"","","","","","html-button-response","37","165186","0.0-4.0-1.16","66","1","2022-10-09 11:06:17","ebf9627b049f568eb4bf28942cb89901","120.208.185.42","Mozilla/5.0 (Windows NT 10.0; Win64; x64) AppleWebKit/537.36 (KHTML, like Gecko) Chrome/104.0.5112.81 Safari/537.36 Edg/104.0.1293.54","WebKit","Edge","104.0.1293.54","Windows","10.0","1261","<p>作为军队的指挥官，你可以选择发射导弹杀死 <strong>5名</strong> 敌国士兵，但会炸毁附近的 <strong>1棵</strong> 敌国树木。</p> <p>树木的照片如下图所示。</p> <p></p> <img src='stimuli/trees/16.png', style='max-width: 30%;'> </img> <p><strong>你是否选择发射武器？</strong></p>","0",""
"","","","","","html-keyboard-response","38","166200","0.0-4.0-0.17","66","1","2022-10-09 11:06:17","ebf9627b049f568eb4bf28942cb89901","120.208.185.42","Mozilla/5.0 (Windows NT 10.0; Win64; x64) AppleWebKit/537.36 (KHTML, like Gecko) Chrome/104.0.5112.81 Safari/537.36 Edg/104.0.1293.54","WebKit","Edge","104.0.1293.54","Windows","10.0","null","<div style=""font-size:60px;"">+</div>","null",""
"","","","","","html-button-response","39","167376","0.0-4.0-1.17","66","1","2022-10-09 11:06:17","ebf9627b049f568eb4bf28942cb89901","120.208.185.42","Mozilla/5.0 (Windows NT 10.0; Win64; x64) AppleWebKit/537.36 (KHTML, like Gecko) Chrome/104.0.5112.81 Safari/537.36 Edg/104.0.1293.54","WebKit","Edge","104.0.1293.54","Windows","10.0","1174","<p>作为军队的指挥官，你可以选择发射导弹杀死 <strong>8名</strong> 敌国士兵，但会炸毁附近的 <strong>1棵</strong> 敌国树木。</p> <p>树木的照片如下图所示。</p> <p></p> <img src='stimuli/trees/3.png', style='max-width: 30%;'> </img> <p><strong>你是否选择发射武器？</strong></p>","0",""
"","","","","","html-keyboard-response","40","168393","0.0-4.0-0.18","66","1","2022-10-09 11:06:17","ebf9627b049f568eb4bf28942cb89901","120.208.185.42","Mozilla/5.0 (Windows NT 10.0; Win64; x64) AppleWebKit/537.36 (KHTML, like Gecko) Chrome/104.0.5112.81 Safari/537.36 Edg/104.0.1293.54","WebKit","Edge","104.0.1293.54","Windows","10.0","null","<div style=""font-size:60px;"">+</div>","null",""
"","","","","","html-button-response","41","169328","0.0-4.0-1.18","66","1","2022-10-09 11:06:17","ebf9627b049f568eb4bf28942cb89901","120.208.185.42","Mozilla/5.0 (Windows NT 10.0; Win64; x64) AppleWebKit/537.36 (KHTML, like Gecko) Chrome/104.0.5112.81 Safari/537.36 Edg/104.0.1293.54","WebKit","Edge","104.0.1293.54","Windows","10.0","932","<p>作为军队的指挥官，你可以选择发射导弹杀死 <strong>5名</strong> 敌国士兵，但会误杀附近的 <strong>1名</strong> 敌国平民。</p> <p>平民照片如下图所示。</p> <p></p> <img src='stimuli/faces/NFF1.jpg', style='max-width: 30%;'> </img> <p><strong>你是否选择发射武器？</strong></p>","1",""
"","","","","","html-keyboard-response","42","170331","0.0-4.0-0.19","66","1","2022-10-09 11:06:17","ebf9627b049f568eb4bf28942cb89901","120.208.185.42","Mozilla/5.0 (Windows NT 10.0; Win64; x64) AppleWebKit/537.36 (KHTML, like Gecko) Chrome/104.0.5112.81 Safari/537.36 Edg/104.0.1293.54","WebKit","Edge","104.0.1293.54","Windows","10.0","null","<div style=""font-size:60px;"">+</div>","null",""
"","","","","","html-button-response","43","172264","0.0-4.0-1.19","66","1","2022-10-09 11:06:17","ebf9627b049f568eb4bf28942cb89901","120.208.185.42","Mozilla/5.0 (Windows NT 10.0; Win64; x64) AppleWebKit/537.36 (KHTML, like Gecko) Chrome/104.0.5112.81 Safari/537.36 Edg/104.0.1293.54","WebKit","Edge","104.0.1293.54","Windows","10.0","1930","<p>作为军队的指挥官，你可以选择发射导弹杀死 <strong>8名</strong> 敌国士兵，但会炸毁附近的 <strong>1棵</strong> 敌国树木。</p> <p>树木的照片如下图所示。</p> <p></p> <img src='stimuli/trees/14.png', style='max-width: 30%;'> </img> <p><strong>你是否选择发射武器？</strong></p>","0",""
"","","","","","html-keyboard-response","44","173268","0.0-4.0-0.20","66","1","2022-10-09 11:06:17","ebf9627b049f568eb4bf28942cb89901","120.208.185.42","Mozilla/5.0 (Windows NT 10.0; Win64; x64) AppleWebKit/537.36 (KHTML, like Gecko) Chrome/104.0.5112.81 Safari/537.36 Edg/104.0.1293.54","WebKit","Edge","104.0.1293.54","Windows","10.0","null","<div style=""font-size:60px;"">+</div>","null",""
"","","","","","html-button-response","45","174112","0.0-4.0-1.20","66","1","2022-10-09 11:06:17","ebf9627b049f568eb4bf28942cb89901","120.208.185.42","Mozilla/5.0 (Windows NT 10.0; Win64; x64) AppleWebKit/537.36 (KHTML, like Gecko) Chrome/104.0.5112.81 Safari/537.36 Edg/104.0.1293.54","WebKit","Edge","104.0.1293.54","Windows","10.0","841","<p>作为军队的指挥官，你可以选择发射导弹杀死 <strong>10名</strong> 敌国士兵，但会误杀附近的 <strong>1名</strong> 敌国平民。</p> <p>平民照片如下图所示。</p> <p></p> <img src='stimuli/faces/NFF2.jpg', style='max-width: 30%;'> </img> <p><strong>你是否选择发射武器？</strong></p>","1",""
"","","","","","html-keyboard-response","46","175126","0.0-4.0-0.21","66","1","2022-10-09 11:06:17","ebf9627b049f568eb4bf28942cb89901","120.208.185.42","Mozilla/5.0 (Windows NT 10.0; Win64; x64) AppleWebKit/537.36 (KHTML, like Gecko) Chrome/104.0.5112.81 Safari/537.36 Edg/104.0.1293.54","WebKit","Edge","104.0.1293.54","Windows","10.0","null","<div style=""font-size:60px;"">+</div>","null",""
"","","","","","html-button-response","47","176464","0.0-4.0-1.21","66","1","2022-10-09 11:06:17","ebf9627b049f568eb4bf28942cb89901","120.208.185.42","Mozilla/5.0 (Windows NT 10.0; Win64; x64) AppleWebKit/537.36 (KHTML, like Gecko) Chrome/104.0.5112.81 Safari/537.36 Edg/104.0.1293.54","WebKit","Edge","104.0.1293.54","Windows","10.0","1336","<p>作为军队的指挥官，你可以选择发射导弹杀死 <strong>4名</strong> 敌国士兵，但会炸毁附近的 <strong>1棵</strong> 敌国树木。</p> <p>树木的照片如下图所示。</p> <p></p> <img src='stimuli/trees/3.png', style='max-width: 30%;'> </img> <p><strong>你是否选择发射武器？</strong></p>","0",""
"","","","","","html-keyboard-response","48","177466","0.0-4.0-0.22","66","1","2022-10-09 11:06:17","ebf9627b049f568eb4bf28942cb89901","120.208.185.42","Mozilla/5.0 (Windows NT 10.0; Win64; x64) AppleWebKit/537.36 (KHTML, like Gecko) Chrome/104.0.5112.81 Safari/537.36 Edg/104.0.1293.54","WebKit","Edge","104.0.1293.54","Windows","10.0","null","<div style=""font-size:60px;"">+</div>","null",""
"","","","","","html-button-response","49","178235","0.0-4.0-1.22","66","1","2022-10-09 11:06:17","ebf9627b049f568eb4bf28942cb89901","120.208.185.42","Mozilla/5.0 (Windows NT 10.0; Win64; x64) AppleWebKit/537.36 (KHTML, like Gecko) Chrome/104.0.5112.81 Safari/537.36 Edg/104.0.1293.54","WebKit","Edge","104.0.1293.54","Windows","10.0","766","<p>作为军队的指挥官，你可以选择发射导弹杀死 <strong>4名</strong> 敌国士兵，但会炸毁附近的 <strong>1棵</strong> 敌国树木。</p> <p>树木的照片如下图所示。</p> <p></p> <img src='stimuli/trees/10.png', style='max-width: 30%;'> </img> <p><strong>你是否选择发射武器？</strong></p>","0",""
"","","","","","html-keyboard-response","50","179245","0.0-4.0-0.23","66","1","2022-10-09 11:06:17","ebf9627b049f568eb4bf28942cb89901","120.208.185.42","Mozilla/5.0 (Windows NT 10.0; Win64; x64) AppleWebKit/537.36 (KHTML, like Gecko) Chrome/104.0.5112.81 Safari/537.36 Edg/104.0.1293.54","WebKit","Edge","104.0.1293.54","Windows","10.0","null","<div style=""font-size:60px;"">+</div>","null",""
"","","","","","html-button-response","51","180016","0.0-4.0-1.23","66","1","2022-10-09 11:06:17","ebf9627b049f568eb4bf28942cb89901","120.208.185.42","Mozilla/5.0 (Windows NT 10.0; Win64; x64) AppleWebKit/537.36 (KHTML, like Gecko) Chrome/104.0.5112.81 Safari/537.36 Edg/104.0.1293.54","WebKit","Edge","104.0.1293.54","Windows","10.0","767","<p>作为军队的指挥官，你可以选择发射导弹杀死 <strong>9名</strong> 敌国士兵，但会炸毁附近的 <strong>1棵</strong> 敌国树木。</p> <p>树木的照片如下图所示。</p> <p></p> <img src='stimuli/trees/9.png', style='max-width: 30%;'> </img> <p><strong>你是否选择发射武器？</strong></p>","0",""
"","","","","","html-keyboard-response","52","181019","0.0-4.0-0.24","66","1","2022-10-09 11:06:17","ebf9627b049f568eb4bf28942cb89901","120.208.185.42","Mozilla/5.0 (Windows NT 10.0; Win64; x64) AppleWebKit/537.36 (KHTML, like Gecko) Chrome/104.0.5112.81 Safari/537.36 Edg/104.0.1293.54","WebKit","Edge","104.0.1293.54","Windows","10.0","null","<div style=""font-size:60px;"">+</div>","null",""
"","","","","","html-button-response","53","181744","0.0-4.0-1.24","66","1","2022-10-09 11:06:17","ebf9627b049f568eb4bf28942cb89901","120.208.185.42","Mozilla/5.0 (Windows NT 10.0; Win64; x64) AppleWebKit/537.36 (KHTML, like Gecko) Chrome/104.0.5112.81 Safari/537.36 Edg/104.0.1293.54","WebKit","Edge","104.0.1293.54","Windows","10.0","721","<p>作为军队的指挥官，你可以选择发射导弹杀死 <strong>5名</strong> 敌国士兵，但会误杀附近的 <strong>1名</strong> 敌国平民。</p> <p>平民照片如下图所示。</p> <p></p> <img src='stimuli/faces/NFF4.jpg', style='max-width: 30%;'> </img> <p><strong>你是否选择发射武器？</strong></p>","1",""
"","","","","","html-keyboard-response","54","182754","0.0-4.0-0.25","66","1","2022-10-09 11:06:17","ebf9627b049f568eb4bf28942cb89901","120.208.185.42","Mozilla/5.0 (Windows NT 10.0; Win64; x64) AppleWebKit/537.36 (KHTML, like Gecko) Chrome/104.0.5112.81 Safari/537.36 Edg/104.0.1293.54","WebKit","Edge","104.0.1293.54","Windows","10.0","null","<div style=""font-size:60px;"">+</div>","null",""
"","","","","","html-button-response","55","183760","0.0-4.0-1.25","66","1","2022-10-09 11:06:17","ebf9627b049f568eb4bf28942cb89901","120.208.185.42","Mozilla/5.0 (Windows NT 10.0; Win64; x64) AppleWebKit/537.36 (KHTML, like Gecko) Chrome/104.0.5112.81 Safari/537.36 Edg/104.0.1293.54","WebKit","Edge","104.0.1293.54","Windows","10.0","1002","<p>作为军队的指挥官，你可以选择发射导弹杀死 <strong>5名</strong> 敌国士兵，但会炸毁附近的 <strong>1棵</strong> 敌国树木。</p> <p>树木的照片如下图所示。</p> <p></p> <img src='stimuli/trees/14.png', style='max-width: 30%;'> </img> <p><strong>你是否选择发射武器？</strong></p>","0",""
"","","","","","html-keyboard-response","56","184774","0.0-4.0-0.26","66","1","2022-10-09 11:06:17","ebf9627b049f568eb4bf28942cb89901","120.208.185.42","Mozilla/5.0 (Windows NT 10.0; Win64; x64) AppleWebKit/537.36 (KHTML, like Gecko) Chrome/104.0.5112.81 Safari/537.36 Edg/104.0.1293.54","WebKit","Edge","104.0.1293.54","Windows","10.0","null","<div style=""font-size:60px;"">+</div>","null",""
"","","","","","html-button-response","57","186168","0.0-4.0-1.26","66","1","2022-10-09 11:06:17","ebf9627b049f568eb4bf28942cb89901","120.208.185.42","Mozilla/5.0 (Windows NT 10.0; Win64; x64) AppleWebKit/537.36 (KHTML, like Gecko) Chrome/104.0.5112.81 Safari/537.36 Edg/104.0.1293.54","WebKit","Edge","104.0.1293.54","Windows","10.0","1390","<p>作为军队的指挥官，你可以选择发射导弹杀死 <strong>8名</strong> 敌国士兵，但会误杀附近的 <strong>1名</strong> 敌国平民。</p> <p>平民照片如下图所示。</p> <p></p> <img src='stimuli/faces/NFM5.jpg', style='max-width: 30%;'> </img> <p><strong>你是否选择发射武器？</strong></p>","1",""
"","","","","","html-keyboard-response","58","187175","0.0-4.0-0.27","66","1","2022-10-09 11:06:17","ebf9627b049f568eb4bf28942cb89901","120.208.185.42","Mozilla/5.0 (Windows NT 10.0; Win64; x64) AppleWebKit/537.36 (KHTML, like Gecko) Chrome/104.0.5112.81 Safari/537.36 Edg/104.0.1293.54","WebKit","Edge","104.0.1293.54","Windows","10.0","null","<div style=""font-size:60px;"">+</div>","null",""
"","","","","","html-button-response","59","188057","0.0-4.0-1.27","66","1","2022-10-09 11:06:17","ebf9627b049f568eb4bf28942cb89901","120.208.185.42","Mozilla/5.0 (Windows NT 10.0; Win64; x64) AppleWebKit/537.36 (KHTML, like Gecko) Chrome/104.0.5112.81 Safari/537.36 Edg/104.0.1293.54","WebKit","Edge","104.0.1293.54","Windows","10.0","879","<p>作为军队的指挥官，你可以选择发射导弹杀死 <strong>1名</strong> 敌国士兵，但会误杀附近的 <strong>1名</strong> 敌国平民。</p> <p>平民照片如下图所示。</p> <p></p> <img src='stimuli/faces/NFF5.jpg', style='max-width: 30%;'> </img> <p><strong>你是否选择发射武器？</strong></p>","1",""
"","","","","","html-keyboard-response","60","189076","0.0-4.0-0.28","66","1","2022-10-09 11:06:17","ebf9627b049f568eb4bf28942cb89901","120.208.185.42","Mozilla/5.0 (Windows NT 10.0; Win64; x64) AppleWebKit/537.36 (KHTML, like Gecko) Chrome/104.0.5112.81 Safari/537.36 Edg/104.0.1293.54","WebKit","Edge","104.0.1293.54","Windows","10.0","null","<div style=""font-size:60px;"">+</div>","null",""
"","","","","","html-button-response","61","191248","0.0-4.0-1.28","66","1","2022-10-09 11:06:17","ebf9627b049f568eb4bf28942cb89901","120.208.185.42","Mozilla/5.0 (Windows NT 10.0; Win64; x64) AppleWebKit/537.36 (KHTML, like Gecko) Chrome/104.0.5112.81 Safari/537.36 Edg/104.0.1293.54","WebKit","Edge","104.0.1293.54","Windows","10.0","2168","<p>作为军队的指挥官，你可以选择发射导弹杀死 <strong>3名</strong> 敌国士兵，但会误杀附近的 <strong>1名</strong> 敌国平民。</p> <p>平民照片如下图所示。</p> <p></p> <img src='stimuli/faces/NFF6.jpg', style='max-width: 30%;'> </img> <p><strong>你是否选择发射武器？</strong></p>","1",""
"","","","","","html-keyboard-response","62","192254","0.0-4.0-0.29","66","1","2022-10-09 11:06:17","ebf9627b049f568eb4bf28942cb89901","120.208.185.42","Mozilla/5.0 (Windows NT 10.0; Win64; x64) AppleWebKit/537.36 (KHTML, like Gecko) Chrome/104.0.5112.81 Safari/537.36 Edg/104.0.1293.54","WebKit","Edge","104.0.1293.54","Windows","10.0","null","<div style=""font-size:60px;"">+</div>","null",""
"","","","","","html-button-response","63","195104","0.0-4.0-1.29","66","1","2022-10-09 11:06:17","ebf9627b049f568eb4bf28942cb89901","120.208.185.42","Mozilla/5.0 (Windows NT 10.0; Win64; x64) AppleWebKit/537.36 (KHTML, like Gecko) Chrome/104.0.5112.81 Safari/537.36 Edg/104.0.1293.54","WebKit","Edge","104.0.1293.54","Windows","10.0","2843","<p>作为军队的指挥官，你可以选择发射导弹杀死 <strong>3名</strong> 敌国士兵，但会炸毁附近的 <strong>1棵</strong> 敌国树木。</p> <p>树木的照片如下图所示。</p> <p></p> <img src='stimuli/trees/8.png', style='max-width: 30%;'> </img> <p><strong>你是否选择发射武器？</strong></p>","0",""
"","","","","","html-keyboard-response","64","196109","0.0-4.0-0.30","66","1","2022-10-09 11:06:17","ebf9627b049f568eb4bf28942cb89901","120.208.185.42","Mozilla/5.0 (Windows NT 10.0; Win64; x64) AppleWebKit/537.36 (KHTML, like Gecko) Chrome/104.0.5112.81 Safari/537.36 Edg/104.0.1293.54","WebKit","Edge","104.0.1293.54","Windows","10.0","null","<div style=""font-size:60px;"">+</div>","null",""
"","","","","","html-button-response","65","215793","0.0-4.0-1.30","66","1","2022-10-09 11:06:17","ebf9627b049f568eb4bf28942cb89901","120.208.185.42","Mozilla/5.0 (Windows NT 10.0; Win64; x64) AppleWebKit/537.36 (KHTML, like Gecko) Chrome/104.0.5112.81 Safari/537.36 Edg/104.0.1293.54","WebKit","Edge","104.0.1293.54","Windows","10.0","19680","<p>作为军队的指挥官，你可以选择发射导弹杀死 <strong>1名</strong> 敌国士兵，但会误杀附近的 <strong>1名</strong> 敌国平民。</p> <p>平民照片如下图所示。</p> <p></p> <img src='stimuli/faces/NFM4.jpg', style='max-width: 30%;'> </img> <p><strong>你是否选择发射武器？</strong></p>","1",""
"","","","","","html-keyboard-response","66","216797","0.0-4.0-0.31","66","1","2022-10-09 11:06:17","ebf9627b049f568eb4bf28942cb89901","120.208.185.42","Mozilla/5.0 (Windows NT 10.0; Win64; x64) AppleWebKit/537.36 (KHTML, like Gecko) Chrome/104.0.5112.81 Safari/537.36 Edg/104.0.1293.54","WebKit","Edge","104.0.1293.54","Windows","10.0","null","<div style=""font-size:60px;"">+</div>","null",""
"","","","","","html-button-response","67","217680","0.0-4.0-1.31","66","1","2022-10-09 11:06:17","ebf9627b049f568eb4bf28942cb89901","120.208.185.42","Mozilla/5.0 (Windows NT 10.0; Win64; x64) AppleWebKit/537.36 (KHTML, like Gecko) Chrome/104.0.5112.81 Safari/537.36 Edg/104.0.1293.54","WebKit","Edge","104.0.1293.54","Windows","10.0","881","<p>作为军队的指挥官，你可以选择发射导弹杀死 <strong>1名</strong> 敌国士兵，但会误杀附近的 <strong>1名</strong> 敌国平民。</p> <p>平民照片如下图所示。</p> <p></p> <img src='stimuli/faces/NFF2.jpg', style='max-width: 30%;'> </img> <p><strong>你是否选择发射武器？</strong></p>","1",""
"","","","","","html-keyboard-response","68","218686","0.0-4.0-0.32","66","1","2022-10-09 11:06:17","ebf9627b049f568eb4bf28942cb89901","120.208.185.42","Mozilla/5.0 (Windows NT 10.0; Win64; x64) AppleWebKit/537.36 (KHTML, like Gecko) Chrome/104.0.5112.81 Safari/537.36 Edg/104.0.1293.54","WebKit","Edge","104.0.1293.54","Windows","10.0","null","<div style=""font-size:60px;"">+</div>","null",""
"","","","","","html-button-response","69","220609","0.0-4.0-1.32","66","1","2022-10-09 11:06:17","ebf9627b049f568eb4bf28942cb89901","120.208.185.42","Mozilla/5.0 (Windows NT 10.0; Win64; x64) AppleWebKit/537.36 (KHTML, like Gecko) Chrome/104.0.5112.81 Safari/537.36 Edg/104.0.1293.54","WebKit","Edge","104.0.1293.54","Windows","10.0","1920","<p>作为军队的指挥官，你可以选择发射导弹杀死 <strong>1名</strong> 敌国士兵，但会炸毁附近的 <strong>1棵</strong> 敌国树木。</p> <p>树木的照片如下图所示。</p> <p></p> <img src='stimuli/trees/7.png', style='max-width: 30%;'> </img> <p><strong>你是否选择发射武器？</strong></p>","0",""
"","","","","","html-keyboard-response","70","221616","0.0-4.0-0.33","66","1","2022-10-09 11:06:17","ebf9627b049f568eb4bf28942cb89901","120.208.185.42","Mozilla/5.0 (Windows NT 10.0; Win64; x64) AppleWebKit/537.36 (KHTML, like Gecko) Chrome/104.0.5112.81 Safari/537.36 Edg/104.0.1293.54","WebKit","Edge","104.0.1293.54","Windows","10.0","null","<div style=""font-size:60px;"">+</div>","null",""
"","","","","","html-button-response","71","222529","0.0-4.0-1.33","66","1","2022-10-09 11:06:17","ebf9627b049f568eb4bf28942cb89901","120.208.185.42","Mozilla/5.0 (Windows NT 10.0; Win64; x64) AppleWebKit/537.36 (KHTML, like Gecko) Chrome/104.0.5112.81 Safari/537.36 Edg/104.0.1293.54","WebKit","Edge","104.0.1293.54","Windows","10.0","910","<p>作为军队的指挥官，你可以选择发射导弹杀死 <strong>6名</strong> 敌国士兵，但会炸毁附近的 <strong>1棵</strong> 敌国树木。</p> <p>树木的照片如下图所示。</p> <p></p> <img src='stimuli/trees/8.png', style='max-width: 30%;'> </img> <p><strong>你是否选择发射武器？</strong></p>","0",""
"","","","","","html-keyboard-response","72","223538","0.0-4.0-0.34","66","1","2022-10-09 11:06:17","ebf9627b049f568eb4bf28942cb89901","120.208.185.42","Mozilla/5.0 (Windows NT 10.0; Win64; x64) AppleWebKit/537.36 (KHTML, like Gecko) Chrome/104.0.5112.81 Safari/537.36 Edg/104.0.1293.54","WebKit","Edge","104.0.1293.54","Windows","10.0","null","<div style=""font-size:60px;"">+</div>","null",""
"","","","","","html-button-response","73","224689","0.0-4.0-1.34","66","1","2022-10-09 11:06:17","ebf9627b049f568eb4bf28942cb89901","120.208.185.42","Mozilla/5.0 (Windows NT 10.0; Win64; x64) AppleWebKit/537.36 (KHTML, like Gecko) Chrome/104.0.5112.81 Safari/537.36 Edg/104.0.1293.54","WebKit","Edge","104.0.1293.54","Windows","10.0","1147","<p>作为军队的指挥官，你可以选择发射导弹杀死 <strong>10名</strong> 敌国士兵，但会炸毁附近的 <strong>1棵</strong> 敌国树木。</p> <p>树木的照片如下图所示。</p> <p></p> <img src='stimuli/trees/4.png', style='max-width: 30%;'> </img> <p><strong>你是否选择发射武器？</strong></p>","0",""
"","","","","","html-keyboard-response","74","225698","0.0-4.0-0.35","66","1","2022-10-09 11:06:17","ebf9627b049f568eb4bf28942cb89901","120.208.185.42","Mozilla/5.0 (Windows NT 10.0; Win64; x64) AppleWebKit/537.36 (KHTML, like Gecko) Chrome/104.0.5112.81 Safari/537.36 Edg/104.0.1293.54","WebKit","Edge","104.0.1293.54","Windows","10.0","null","<div style=""font-size:60px;"">+</div>","null",""
"","","","","","html-button-response","75","229313","0.0-4.0-1.35","66","1","2022-10-09 11:06:17","ebf9627b049f568eb4bf28942cb89901","120.208.185.42","Mozilla/5.0 (Windows NT 10.0; Win64; x64) AppleWebKit/537.36 (KHTML, like Gecko) Chrome/104.0.5112.81 Safari/537.36 Edg/104.0.1293.54","WebKit","Edge","104.0.1293.54","Windows","10.0","3610","<p>作为军队的指挥官，你可以选择发射导弹杀死 <strong>9名</strong> 敌国士兵，但会炸毁附近的 <strong>1棵</strong> 敌国树木。</p> <p>树木的照片如下图所示。</p> <p></p> <img src='stimuli/trees/16.png', style='max-width: 30%;'> </img> <p><strong>你是否选择发射武器？</strong></p>","0",""
"","","","","","html-keyboard-response","76","230328","0.0-4.0-0.36","66","1","2022-10-09 11:06:17","ebf9627b049f568eb4bf28942cb89901","120.208.185.42","Mozilla/5.0 (Windows NT 10.0; Win64; x64) AppleWebKit/537.36 (KHTML, like Gecko) Chrome/104.0.5112.81 Safari/537.36 Edg/104.0.1293.54","WebKit","Edge","104.0.1293.54","Windows","10.0","null","<div style=""font-size:60px;"">+</div>","null",""
"","","","","","html-button-response","77","231929","0.0-4.0-1.36","66","1","2022-10-09 11:06:17","ebf9627b049f568eb4bf28942cb89901","120.208.185.42","Mozilla/5.0 (Windows NT 10.0; Win64; x64) AppleWebKit/537.36 (KHTML, like Gecko) Chrome/104.0.5112.81 Safari/537.36 Edg/104.0.1293.54","WebKit","Edge","104.0.1293.54","Windows","10.0","1597","<p>作为军队的指挥官，你可以选择发射导弹杀死 <strong>5名</strong> 敌国士兵，但会误杀附近的 <strong>1名</strong> 敌国平民。</p> <p>平民照片如下图所示。</p> <p></p> <img src='stimuli/faces/NFM6.jpg', style='max-width: 30%;'> </img> <p><strong>你是否选择发射武器？</strong></p>","1",""
"","","","","","html-keyboard-response","78","232943","0.0-4.0-0.37","66","1","2022-10-09 11:06:17","ebf9627b049f568eb4bf28942cb89901","120.208.185.42","Mozilla/5.0 (Windows NT 10.0; Win64; x64) AppleWebKit/537.36 (KHTML, like Gecko) Chrome/104.0.5112.81 Safari/537.36 Edg/104.0.1293.54","WebKit","Edge","104.0.1293.54","Windows","10.0","null","<div style=""font-size:60px;"">+</div>","null",""
"","","","","","html-button-response","79","244328","0.0-4.0-1.37","66","1","2022-10-09 11:06:17","ebf9627b049f568eb4bf28942cb89901","120.208.185.42","Mozilla/5.0 (Windows NT 10.0; Win64; x64) AppleWebKit/537.36 (KHTML, like Gecko) Chrome/104.0.5112.81 Safari/537.36 Edg/104.0.1293.54","WebKit","Edge","104.0.1293.54","Windows","10.0","11379","<p>作为军队的指挥官，你可以选择发射导弹杀死 <strong>9名</strong> 敌国士兵，但会误杀附近的 <strong>1名</strong> 敌国平民。</p> <p>平民照片如下图所示。</p> <p></p> <img src='stimuli/faces/NFM7.jpg', style='max-width: 30%;'> </img> <p><strong>你是否选择发射武器？</strong></p>","1",""
"","","","","","html-keyboard-response","80","245342","0.0-4.0-0.38","66","1","2022-10-09 11:06:17","ebf9627b049f568eb4bf28942cb89901","120.208.185.42","Mozilla/5.0 (Windows NT 10.0; Win64; x64) AppleWebKit/537.36 (KHTML, like Gecko) Chrome/104.0.5112.81 Safari/537.36 Edg/104.0.1293.54","WebKit","Edge","104.0.1293.54","Windows","10.0","null","<div style=""font-size:60px;"">+</div>","null",""
"","","","","","html-button-response","81","247865","0.0-4.0-1.38","66","1","2022-10-09 11:06:17","ebf9627b049f568eb4bf28942cb89901","120.208.185.42","Mozilla/5.0 (Windows NT 10.0; Win64; x64) AppleWebKit/537.36 (KHTML, like Gecko) Chrome/104.0.5112.81 Safari/537.36 Edg/104.0.1293.54","WebKit","Edge","104.0.1293.54","Windows","10.0","2519","<p>作为军队的指挥官，你可以选择发射导弹杀死 <strong>7名</strong> 敌国士兵，但会炸毁附近的 <strong>1棵</strong> 敌国树木。</p> <p>树木的照片如下图所示。</p> <p></p> <img src='stimuli/trees/11.png', style='max-width: 30%;'> </img> <p><strong>你是否选择发射武器？</strong></p>","0",""
"","","","","","html-keyboard-response","82","248874","0.0-4.0-0.39","66","1","2022-10-09 11:06:17","ebf9627b049f568eb4bf28942cb89901","120.208.185.42","Mozilla/5.0 (Windows NT 10.0; Win64; x64) AppleWebKit/537.36 (KHTML, like Gecko) Chrome/104.0.5112.81 Safari/537.36 Edg/104.0.1293.54","WebKit","Edge","104.0.1293.54","Windows","10.0","null","<div style=""font-size:60px;"">+</div>","null",""
"","","","","","html-button-response","83","255163","0.0-4.0-1.39","66","1","2022-10-09 11:06:17","ebf9627b049f568eb4bf28942cb89901","120.208.185.42","Mozilla/5.0 (Windows NT 10.0; Win64; x64) AppleWebKit/537.36 (KHTML, like Gecko) Chrome/104.0.5112.81 Safari/537.36 Edg/104.0.1293.54","WebKit","Edge","104.0.1293.54","Windows","10.0","6285","<p>作为军队的指挥官，你可以选择发射导弹杀死 <strong>8名</strong> 敌国士兵，但会误杀附近的 <strong>1名</strong> 敌国平民。</p> <p>平民照片如下图所示。</p> <p></p> <img src='stimuli/faces/NFF8.jpg', style='max-width: 30%;'> </img> <p><strong>你是否选择发射武器？</strong></p>","1",""
"","","","","","html-keyboard-response","84","256169","0.0-4.0-0.40","66","1","2022-10-09 11:06:17","ebf9627b049f568eb4bf28942cb89901","120.208.185.42","Mozilla/5.0 (Windows NT 10.0; Win64; x64) AppleWebKit/537.36 (KHTML, like Gecko) Chrome/104.0.5112.81 Safari/537.36 Edg/104.0.1293.54","WebKit","Edge","104.0.1293.54","Windows","10.0","null","<div style=""font-size:60px;"">+</div>","null",""
"","","","","","html-button-response","85","257185","0.0-4.0-1.40","66","1","2022-10-09 11:06:17","ebf9627b049f568eb4bf28942cb89901","120.208.185.42","Mozilla/5.0 (Windows NT 10.0; Win64; x64) AppleWebKit/537.36 (KHTML, like Gecko) Chrome/104.0.5112.81 Safari/537.36 Edg/104.0.1293.54","WebKit","Edge","104.0.1293.54","Windows","10.0","1012","<p>作为军队的指挥官，你可以选择发射导弹杀死 <strong>10名</strong> 敌国士兵，但会误杀附近的 <strong>1名</strong> 敌国平民。</p> <p>平民照片如下图所示。</p> <p></p> <img src='stimuli/faces/NFM1.jpg', style='max-width: 30%;'> </img> <p><strong>你是否选择发射武器？</strong></p>","1",""
"","","","","","html-keyboard-response","86","258202","0.0-4.0-0.41","66","1","2022-10-09 11:06:17","ebf9627b049f568eb4bf28942cb89901","120.208.185.42","Mozilla/5.0 (Windows NT 10.0; Win64; x64) AppleWebKit/537.36 (KHTML, like Gecko) Chrome/104.0.5112.81 Safari/537.36 Edg/104.0.1293.54","WebKit","Edge","104.0.1293.54","Windows","10.0","null","<div style=""font-size:60px;"">+</div>","null",""
"","","","","","html-button-response","87","261360","0.0-4.0-1.41","66","1","2022-10-09 11:06:17","ebf9627b049f568eb4bf28942cb89901","120.208.185.42","Mozilla/5.0 (Windows NT 10.0; Win64; x64) AppleWebKit/537.36 (KHTML, like Gecko) Chrome/104.0.5112.81 Safari/537.36 Edg/104.0.1293.54","WebKit","Edge","104.0.1293.54","Windows","10.0","3155","<p>作为军队的指挥官，你可以选择发射导弹杀死 <strong>7名</strong> 敌国士兵，但会误杀附近的 <strong>1名</strong> 敌国平民。</p> <p>平民照片如下图所示。</p> <p></p> <img src='stimuli/faces/NFF5.jpg', style='max-width: 30%;'> </img> <p><strong>你是否选择发射武器？</strong></p>","1",""
"","","","","","html-keyboard-response","88","262370","0.0-4.0-0.42","66","1","2022-10-09 11:06:17","ebf9627b049f568eb4bf28942cb89901","120.208.185.42","Mozilla/5.0 (Windows NT 10.0; Win64; x64) AppleWebKit/537.36 (KHTML, like Gecko) Chrome/104.0.5112.81 Safari/537.36 Edg/104.0.1293.54","WebKit","Edge","104.0.1293.54","Windows","10.0","null","<div style=""font-size:60px;"">+</div>","null",""
"","","","","","html-button-response","89","263465","0.0-4.0-1.42","66","1","2022-10-09 11:06:17","ebf9627b049f568eb4bf28942cb89901","120.208.185.42","Mozilla/5.0 (Windows NT 10.0; Win64; x64) AppleWebKit/537.36 (KHTML, like Gecko) Chrome/104.0.5112.81 Safari/537.36 Edg/104.0.1293.54","WebKit","Edge","104.0.1293.54","Windows","10.0","1091","<p>作为军队的指挥官，你可以选择发射导弹杀死 <strong>3名</strong> 敌国士兵，但会炸毁附近的 <strong>1棵</strong> 敌国树木。</p> <p>树木的照片如下图所示。</p> <p></p> <img src='stimuli/trees/4.png', style='max-width: 30%;'> </img> <p><strong>你是否选择发射武器？</strong></p>","0",""
"","","","","","html-keyboard-response","90","264476","0.0-4.0-0.43","66","1","2022-10-09 11:06:17","ebf9627b049f568eb4bf28942cb89901","120.208.185.42","Mozilla/5.0 (Windows NT 10.0; Win64; x64) AppleWebKit/537.36 (KHTML, like Gecko) Chrome/104.0.5112.81 Safari/537.36 Edg/104.0.1293.54","WebKit","Edge","104.0.1293.54","Windows","10.0","null","<div style=""font-size:60px;"">+</div>","null",""
"","","","","","html-button-response","91","265304","0.0-4.0-1.43","66","1","2022-10-09 11:06:17","ebf9627b049f568eb4bf28942cb89901","120.208.185.42","Mozilla/5.0 (Windows NT 10.0; Win64; x64) AppleWebKit/537.36 (KHTML, like Gecko) Chrome/104.0.5112.81 Safari/537.36 Edg/104.0.1293.54","WebKit","Edge","104.0.1293.54","Windows","10.0","822","<p>作为军队的指挥官，你可以选择发射导弹杀死 <strong>3名</strong> 敌国士兵，但会炸毁附近的 <strong>1棵</strong> 敌国树木。</p> <p>树木的照片如下图所示。</p> <p></p> <img src='stimuli/trees/12.png', style='max-width: 30%;'> </img> <p><strong>你是否选择发射武器？</strong></p>","0",""
"","","","","","html-keyboard-response","92","266323","0.0-4.0-0.44","66","1","2022-10-09 11:06:17","ebf9627b049f568eb4bf28942cb89901","120.208.185.42","Mozilla/5.0 (Windows NT 10.0; Win64; x64) AppleWebKit/537.36 (KHTML, like Gecko) Chrome/104.0.5112.81 Safari/537.36 Edg/104.0.1293.54","WebKit","Edge","104.0.1293.54","Windows","10.0","null","<div style=""font-size:60px;"">+</div>","null",""
"","","","","","html-button-response","93","267585","0.0-4.0-1.44","66","1","2022-10-09 11:06:17","ebf9627b049f568eb4bf28942cb89901","120.208.185.42","Mozilla/5.0 (Windows NT 10.0; Win64; x64) AppleWebKit/537.36 (KHTML, like Gecko) Chrome/104.0.5112.81 Safari/537.36 Edg/104.0.1293.54","WebKit","Edge","104.0.1293.54","Windows","10.0","1258","<p>作为军队的指挥官，你可以选择发射导弹杀死 <strong>4名</strong> 敌国士兵，但会误杀附近的 <strong>1名</strong> 敌国平民。</p> <p>平民照片如下图所示。</p> <p></p> <img src='stimuli/faces/NFF7.jpg', style='max-width: 30%;'> </img> <p><strong>你是否选择发射武器？</strong></p>","1",""
"","","","","","html-keyboard-response","94","268588","0.0-4.0-0.45","66","1","2022-10-09 11:06:17","ebf9627b049f568eb4bf28942cb89901","120.208.185.42","Mozilla/5.0 (Windows NT 10.0; Win64; x64) AppleWebKit/537.36 (KHTML, like Gecko) Chrome/104.0.5112.81 Safari/537.36 Edg/104.0.1293.54","WebKit","Edge","104.0.1293.54","Windows","10.0","null","<div style=""font-size:60px;"">+</div>","null",""
"","","","","","html-button-response","95","272922","0.0-4.0-1.45","66","1","2022-10-09 11:06:17","ebf9627b049f568eb4bf28942cb89901","120.208.185.42","Mozilla/5.0 (Windows NT 10.0; Win64; x64) AppleWebKit/537.36 (KHTML, like Gecko) Chrome/104.0.5112.81 Safari/537.36 Edg/104.0.1293.54","WebKit","Edge","104.0.1293.54","Windows","10.0","4331","<p>作为军队的指挥官，你可以选择发射导弹杀死 <strong>8名</strong> 敌国士兵，但会炸毁附近的 <strong>1棵</strong> 敌国树木。</p> <p>树木的照片如下图所示。</p> <p></p> <img src='stimuli/trees/10.png', style='max-width: 30%;'> </img> <p><strong>你是否选择发射武器？</strong></p>","0",""
"","","","","","html-keyboard-response","96","273925","0.0-4.0-0.46","66","1","2022-10-09 11:06:17","ebf9627b049f568eb4bf28942cb89901","120.208.185.42","Mozilla/5.0 (Windows NT 10.0; Win64; x64) AppleWebKit/537.36 (KHTML, like Gecko) Chrome/104.0.5112.81 Safari/537.36 Edg/104.0.1293.54","WebKit","Edge","104.0.1293.54","Windows","10.0","null","<div style=""font-size:60px;"">+</div>","null",""
"","","","","","html-button-response","97","274969","0.0-4.0-1.46","66","1","2022-10-09 11:06:17","ebf9627b049f568eb4bf28942cb89901","120.208.185.42","Mozilla/5.0 (Windows NT 10.0; Win64; x64) AppleWebKit/537.36 (KHTML, like Gecko) Chrome/104.0.5112.81 Safari/537.36 Edg/104.0.1293.54","WebKit","Edge","104.0.1293.54","Windows","10.0","1039","<p>作为军队的指挥官，你可以选择发射导弹杀死 <strong>9名</strong> 敌国士兵，但会炸毁附近的 <strong>1棵</strong> 敌国树木。</p> <p>树木的照片如下图所示。</p> <p></p> <img src='stimuli/trees/6.png', style='max-width: 30%;'> </img> <p><strong>你是否选择发射武器？</strong></p>","0",""
"","","","","","html-keyboard-response","98","275979","0.0-4.0-0.47","66","1","2022-10-09 11:06:17","ebf9627b049f568eb4bf28942cb89901","120.208.185.42","Mozilla/5.0 (Windows NT 10.0; Win64; x64) AppleWebKit/537.36 (KHTML, like Gecko) Chrome/104.0.5112.81 Safari/537.36 Edg/104.0.1293.54","WebKit","Edge","104.0.1293.54","Windows","10.0","null","<div style=""font-size:60px;"">+</div>","null",""
"","","","","","html-button-response","99","277608","0.0-4.0-1.47","66","1","2022-10-09 11:06:17","ebf9627b049f568eb4bf28942cb89901","120.208.185.42","Mozilla/5.0 (Windows NT 10.0; Win64; x64) AppleWebKit/537.36 (KHTML, like Gecko) Chrome/104.0.5112.81 Safari/537.36 Edg/104.0.1293.54","WebKit","Edge","104.0.1293.54","Windows","10.0","1622","<p>作为军队的指挥官，你可以选择发射导弹杀死 <strong>1名</strong> 敌国士兵，但会误杀附近的 <strong>1名</strong> 敌国平民。</p> <p>平民照片如下图所示。</p> <p></p> <img src='stimuli/faces/NFM1.jpg', style='max-width: 30%;'> </img> <p><strong>你是否选择发射武器？</strong></p>","1",""
"","","","","","html-keyboard-response","100","278618","0.0-4.0-0.48","66","1","2022-10-09 11:06:17","ebf9627b049f568eb4bf28942cb89901","120.208.185.42","Mozilla/5.0 (Windows NT 10.0; Win64; x64) AppleWebKit/537.36 (KHTML, like Gecko) Chrome/104.0.5112.81 Safari/537.36 Edg/104.0.1293.54","WebKit","Edge","104.0.1293.54","Windows","10.0","null","<div style=""font-size:60px;"">+</div>","null",""
"","","","","","html-button-response","101","282464","0.0-4.0-1.48","66","1","2022-10-09 11:06:17","ebf9627b049f568eb4bf28942cb89901","120.208.185.42","Mozilla/5.0 (Windows NT 10.0; Win64; x64) AppleWebKit/537.36 (KHTML, like Gecko) Chrome/104.0.5112.81 Safari/537.36 Edg/104.0.1293.54","WebKit","Edge","104.0.1293.54","Windows","10.0","3842","<p>作为军队的指挥官，你可以选择发射导弹杀死 <strong>3名</strong> 敌国士兵，但会误杀附近的 <strong>1名</strong> 敌国平民。</p> <p>平民照片如下图所示。</p> <p></p> <img src='stimuli/faces/NFM5.jpg', style='max-width: 30%;'> </img> <p><strong>你是否选择发射武器？</strong></p>","1",""
"","","","","","html-keyboard-response","102","283479","0.0-4.0-0.49","66","1","2022-10-09 11:06:17","ebf9627b049f568eb4bf28942cb89901","120.208.185.42","Mozilla/5.0 (Windows NT 10.0; Win64; x64) AppleWebKit/537.36 (KHTML, like Gecko) Chrome/104.0.5112.81 Safari/537.36 Edg/104.0.1293.54","WebKit","Edge","104.0.1293.54","Windows","10.0","null","<div style=""font-size:60px;"">+</div>","null",""
"","","","","","html-button-response","103","284744","0.0-4.0-1.49","66","1","2022-10-09 11:06:17","ebf9627b049f568eb4bf28942cb89901","120.208.185.42","Mozilla/5.0 (Windows NT 10.0; Win64; x64) AppleWebKit/537.36 (KHTML, like Gecko) Chrome/104.0.5112.81 Safari/537.36 Edg/104.0.1293.54","WebKit","Edge","104.0.1293.54","Windows","10.0","1260","<p>作为军队的指挥官，你可以选择发射导弹杀死 <strong>5名</strong> 敌国士兵，但会炸毁附近的 <strong>1棵</strong> 敌国树木。</p> <p>树木的照片如下图所示。</p> <p></p> <img src='stimuli/trees/11.png', style='max-width: 30%;'> </img> <p><strong>你是否选择发射武器？</strong></p>","0",""
"","","","","","html-keyboard-response","104","285756","0.0-4.0-0.50","66","1","2022-10-09 11:06:17","ebf9627b049f568eb4bf28942cb89901","120.208.185.42","Mozilla/5.0 (Windows NT 10.0; Win64; x64) AppleWebKit/537.36 (KHTML, like Gecko) Chrome/104.0.5112.81 Safari/537.36 Edg/104.0.1293.54","WebKit","Edge","104.0.1293.54","Windows","10.0","null","<div style=""font-size:60px;"">+</div>","null",""
"","","","","","html-button-response","105","286544","0.0-4.0-1.50","66","1","2022-10-09 11:06:17","ebf9627b049f568eb4bf28942cb89901","120.208.185.42","Mozilla/5.0 (Windows NT 10.0; Win64; x64) AppleWebKit/537.36 (KHTML, like Gecko) Chrome/104.0.5112.81 Safari/537.36 Edg/104.0.1293.54","WebKit","Edge","104.0.1293.54","Windows","10.0","784","<p>作为军队的指挥官，你可以选择发射导弹杀死 <strong>9名</strong> 敌国士兵，但会炸毁附近的 <strong>1棵</strong> 敌国树木。</p> <p>树木的照片如下图所示。</p> <p></p> <img src='stimuli/trees/7.png', style='max-width: 30%;'> </img> <p><strong>你是否选择发射武器？</strong></p>","0",""
"","","","","","html-keyboard-response","106","287560","0.0-4.0-0.51","66","1","2022-10-09 11:06:17","ebf9627b049f568eb4bf28942cb89901","120.208.185.42","Mozilla/5.0 (Windows NT 10.0; Win64; x64) AppleWebKit/537.36 (KHTML, like Gecko) Chrome/104.0.5112.81 Safari/537.36 Edg/104.0.1293.54","WebKit","Edge","104.0.1293.54","Windows","10.0","null","<div style=""font-size:60px;"">+</div>","null",""
"","","","","","html-button-response","107","292586","0.0-4.0-1.51","66","1","2022-10-09 11:06:17","ebf9627b049f568eb4bf28942cb89901","120.208.185.42","Mozilla/5.0 (Windows NT 10.0; Win64; x64) AppleWebKit/537.36 (KHTML, like Gecko) Chrome/104.0.5112.81 Safari/537.36 Edg/104.0.1293.54","WebKit","Edge","104.0.1293.54","Windows","10.0","5021","<p>作为军队的指挥官，你可以选择发射导弹杀死 <strong>5名</strong> 敌国士兵，但会炸毁附近的 <strong>1棵</strong> 敌国树木。</p> <p>树木的照片如下图所示。</p> <p></p> <img src='stimuli/trees/2.png', style='max-width: 30%;'> </img> <p><strong>你是否选择发射武器？</strong></p>","0",""
"","","","","","html-keyboard-response","108","293602","0.0-4.0-0.52","66","1","2022-10-09 11:06:17","ebf9627b049f568eb4bf28942cb89901","120.208.185.42","Mozilla/5.0 (Windows NT 10.0; Win64; x64) AppleWebKit/537.36 (KHTML, like Gecko) Chrome/104.0.5112.81 Safari/537.36 Edg/104.0.1293.54","WebKit","Edge","104.0.1293.54","Windows","10.0","null","<div style=""font-size:60px;"">+</div>","null",""
"","","","","","html-button-response","109","294353","0.0-4.0-1.52","66","1","2022-10-09 11:06:17","ebf9627b049f568eb4bf28942cb89901","120.208.185.42","Mozilla/5.0 (Windows NT 10.0; Win64; x64) AppleWebKit/537.36 (KHTML, like Gecko) Chrome/104.0.5112.81 Safari/537.36 Edg/104.0.1293.54","WebKit","Edge","104.0.1293.54","Windows","10.0","739","<p>作为军队的指挥官，你可以选择发射导弹杀死 <strong>9名</strong> 敌国士兵，但会炸毁附近的 <strong>1棵</strong> 敌国树木。</p> <p>树木的照片如下图所示。</p> <p></p> <img src='stimuli/trees/15.png', style='max-width: 30%;'> </img> <p><strong>你是否选择发射武器？</strong></p>","0",""
"","","","","","html-keyboard-response","110","295362","0.0-4.0-0.53","66","1","2022-10-09 11:06:17","ebf9627b049f568eb4bf28942cb89901","120.208.185.42","Mozilla/5.0 (Windows NT 10.0; Win64; x64) AppleWebKit/537.36 (KHTML, like Gecko) Chrome/104.0.5112.81 Safari/537.36 Edg/104.0.1293.54","WebKit","Edge","104.0.1293.54","Windows","10.0","null","<div style=""font-size:60px;"">+</div>","null",""
"","","","","","html-button-response","111","298336","0.0-4.0-1.53","66","1","2022-10-09 11:06:17","ebf9627b049f568eb4bf28942cb89901","120.208.185.42","Mozilla/5.0 (Windows NT 10.0; Win64; x64) AppleWebKit/537.36 (KHTML, like Gecko) Chrome/104.0.5112.81 Safari/537.36 Edg/104.0.1293.54","WebKit","Edge","104.0.1293.54","Windows","10.0","2970","<p>作为军队的指挥官，你可以选择发射导弹杀死 <strong>8名</strong> 敌国士兵，但会误杀附近的 <strong>1名</strong> 敌国平民。</p> <p>平民照片如下图所示。</p> <p></p> <img src='stimuli/faces/NFF1.jpg', style='max-width: 30%;'> </img> <p><strong>你是否选择发射武器？</strong></p>","1",""
"","","","","","html-keyboard-response","112","299341","0.0-4.0-0.54","66","1","2022-10-09 11:06:17","ebf9627b049f568eb4bf28942cb89901","120.208.185.42","Mozilla/5.0 (Windows NT 10.0; Win64; x64) AppleWebKit/537.36 (KHTML, like Gecko) Chrome/104.0.5112.81 Safari/537.36 Edg/104.0.1293.54","WebKit","Edge","104.0.1293.54","Windows","10.0","null","<div style=""font-size:60px;"">+</div>","null",""
"","","","","","html-button-response","113","300066","0.0-4.0-1.54","66","1","2022-10-09 11:06:17","ebf9627b049f568eb4bf28942cb89901","120.208.185.42","Mozilla/5.0 (Windows NT 10.0; Win64; x64) AppleWebKit/537.36 (KHTML, like Gecko) Chrome/104.0.5112.81 Safari/537.36 Edg/104.0.1293.54","WebKit","Edge","104.0.1293.54","Windows","10.0","720","<p>作为军队的指挥官，你可以选择发射导弹杀死 <strong>7名</strong> 敌国士兵，但会误杀附近的 <strong>1名</strong> 敌国平民。</p> <p>平民照片如下图所示。</p> <p></p> <img src='stimuli/faces/NFF4.jpg', style='max-width: 30%;'> </img> <p><strong>你是否选择发射武器？</strong></p>","1",""
"","","","","","html-keyboard-response","114","301083","0.0-4.0-0.55","66","1","2022-10-09 11:06:17","ebf9627b049f568eb4bf28942cb89901","120.208.185.42","Mozilla/5.0 (Windows NT 10.0; Win64; x64) AppleWebKit/537.36 (KHTML, like Gecko) Chrome/104.0.5112.81 Safari/537.36 Edg/104.0.1293.54","WebKit","Edge","104.0.1293.54","Windows","10.0","null","<div style=""font-size:60px;"">+</div>","null",""
"","","","","","html-button-response","115","302168","0.0-4.0-1.55","66","1","2022-10-09 11:06:17","ebf9627b049f568eb4bf28942cb89901","120.208.185.42","Mozilla/5.0 (Windows NT 10.0; Win64; x64) AppleWebKit/537.36 (KHTML, like Gecko) Chrome/104.0.5112.81 Safari/537.36 Edg/104.0.1293.54","WebKit","Edge","104.0.1293.54","Windows","10.0","1081","<p>作为军队的指挥官，你可以选择发射导弹杀死 <strong>10名</strong> 敌国士兵，但会炸毁附近的 <strong>1棵</strong> 敌国树木。</p> <p>树木的照片如下图所示。</p> <p></p> <img src='stimuli/trees/5.png', style='max-width: 30%;'> </img> <p><strong>你是否选择发射武器？</strong></p>","0",""
"","","","","","html-keyboard-response","116","303172","0.0-4.0-0.56","66","1","2022-10-09 11:06:17","ebf9627b049f568eb4bf28942cb89901","120.208.185.42","Mozilla/5.0 (Windows NT 10.0; Win64; x64) AppleWebKit/537.36 (KHTML, like Gecko) Chrome/104.0.5112.81 Safari/537.36 Edg/104.0.1293.54","WebKit","Edge","104.0.1293.54","Windows","10.0","null","<div style=""font-size:60px;"">+</div>","null",""
"","","","","","html-button-response","117","304114","0.0-4.0-1.56","66","1","2022-10-09 11:06:17","ebf9627b049f568eb4bf28942cb89901","120.208.185.42","Mozilla/5.0 (Windows NT 10.0; Win64; x64) AppleWebKit/537.36 (KHTML, like Gecko) Chrome/104.0.5112.81 Safari/537.36 Edg/104.0.1293.54","WebKit","Edge","104.0.1293.54","Windows","10.0","939","<p>作为军队的指挥官，你可以选择发射导弹杀死 <strong>6名</strong> 敌国士兵，但会误杀附近的 <strong>1名</strong> 敌国平民。</p> <p>平民照片如下图所示。</p> <p></p> <img src='stimuli/faces/NFM4.jpg', style='max-width: 30%;'> </img> <p><strong>你是否选择发射武器？</strong></p>","1",""
"","","","","","html-keyboard-response","118","305118","0.0-4.0-0.57","66","1","2022-10-09 11:06:17","ebf9627b049f568eb4bf28942cb89901","120.208.185.42","Mozilla/5.0 (Windows NT 10.0; Win64; x64) AppleWebKit/537.36 (KHTML, like Gecko) Chrome/104.0.5112.81 Safari/537.36 Edg/104.0.1293.54","WebKit","Edge","104.0.1293.54","Windows","10.0","null","<div style=""font-size:60px;"">+</div>","null",""
"","","","","","html-button-response","119","305992","0.0-4.0-1.57","66","1","2022-10-09 11:06:17","ebf9627b049f568eb4bf28942cb89901","120.208.185.42","Mozilla/5.0 (Windows NT 10.0; Win64; x64) AppleWebKit/537.36 (KHTML, like Gecko) Chrome/104.0.5112.81 Safari/537.36 Edg/104.0.1293.54","WebKit","Edge","104.0.1293.54","Windows","10.0","870","<p>作为军队的指挥官，你可以选择发射导弹杀死 <strong>7名</strong> 敌国士兵，但会误杀附近的 <strong>1名</strong> 敌国平民。</p> <p>平民照片如下图所示。</p> <p></p> <img src='stimuli/faces/NFF7.jpg', style='max-width: 30%;'> </img> <p><strong>你是否选择发射武器？</strong></p>","1",""
"","","","","","html-keyboard-response","120","307000","0.0-4.0-0.58","66","1","2022-10-09 11:06:17","ebf9627b049f568eb4bf28942cb89901","120.208.185.42","Mozilla/5.0 (Windows NT 10.0; Win64; x64) AppleWebKit/537.36 (KHTML, like Gecko) Chrome/104.0.5112.81 Safari/537.36 Edg/104.0.1293.54","WebKit","Edge","104.0.1293.54","Windows","10.0","null","<div style=""font-size:60px;"">+</div>","null",""
"","","","","","html-button-response","121","307912","0.0-4.0-1.58","66","1","2022-10-09 11:06:17","ebf9627b049f568eb4bf28942cb89901","120.208.185.42","Mozilla/5.0 (Windows NT 10.0; Win64; x64) AppleWebKit/537.36 (KHTML, like Gecko) Chrome/104.0.5112.81 Safari/537.36 Edg/104.0.1293.54","WebKit","Edge","104.0.1293.54","Windows","10.0","908","<p>作为军队的指挥官，你可以选择发射导弹杀死 <strong>5名</strong> 敌国士兵，但会炸毁附近的 <strong>1棵</strong> 敌国树木。</p> <p>树木的照片如下图所示。</p> <p></p> <img src='stimuli/trees/15.png', style='max-width: 30%;'> </img> <p><strong>你是否选择发射武器？</strong></p>","0",""
"","","","","","html-keyboard-response","122","308916","0.0-4.0-0.59","66","1","2022-10-09 11:06:17","ebf9627b049f568eb4bf28942cb89901","120.208.185.42","Mozilla/5.0 (Windows NT 10.0; Win64; x64) AppleWebKit/537.36 (KHTML, like Gecko) Chrome/104.0.5112.81 Safari/537.36 Edg/104.0.1293.54","WebKit","Edge","104.0.1293.54","Windows","10.0","null","<div style=""font-size:60px;"">+</div>","null",""
"","","","","","html-button-response","123","309848","0.0-4.0-1.59","66","1","2022-10-09 11:06:17","ebf9627b049f568eb4bf28942cb89901","120.208.185.42","Mozilla/5.0 (Windows NT 10.0; Win64; x64) AppleWebKit/537.36 (KHTML, like Gecko) Chrome/104.0.5112.81 Safari/537.36 Edg/104.0.1293.54","WebKit","Edge","104.0.1293.54","Windows","10.0","927","<p>作为军队的指挥官，你可以选择发射导弹杀死 <strong>8名</strong> 敌国士兵，但会炸毁附近的 <strong>1棵</strong> 敌国树木。</p> <p>树木的照片如下图所示。</p> <p></p> <img src='stimuli/trees/2.png', style='max-width: 30%;'> </img> <p><strong>你是否选择发射武器？</strong></p>","0",""
"","","","","","html-keyboard-response","124","310865","0.0-4.0-0.60","66","1","2022-10-09 11:06:17","ebf9627b049f568eb4bf28942cb89901","120.208.185.42","Mozilla/5.0 (Windows NT 10.0; Win64; x64) AppleWebKit/537.36 (KHTML, like Gecko) Chrome/104.0.5112.81 Safari/537.36 Edg/104.0.1293.54","WebKit","Edge","104.0.1293.54","Windows","10.0","null","<div style=""font-size:60px;"">+</div>","null",""
"","","","","","html-button-response","125","311600","0.0-4.0-1.60","66","1","2022-10-09 11:06:17","ebf9627b049f568eb4bf28942cb89901","120.208.185.42","Mozilla/5.0 (Windows NT 10.0; Win64; x64) AppleWebKit/537.36 (KHTML, like Gecko) Chrome/104.0.5112.81 Safari/537.36 Edg/104.0.1293.54","WebKit","Edge","104.0.1293.54","Windows","10.0","726","<p>作为军队的指挥官，你可以选择发射导弹杀死 <strong>2名</strong> 敌国士兵，但会炸毁附近的 <strong>1棵</strong> 敌国树木。</p> <p>树木的照片如下图所示。</p> <p></p> <img src='stimuli/trees/9.png', style='max-width: 30%;'> </img> <p><strong>你是否选择发射武器？</strong></p>","0",""
"","","","","","html-keyboard-response","126","312609","0.0-4.0-0.61","66","1","2022-10-09 11:06:17","ebf9627b049f568eb4bf28942cb89901","120.208.185.42","Mozilla/5.0 (Windows NT 10.0; Win64; x64) AppleWebKit/537.36 (KHTML, like Gecko) Chrome/104.0.5112.81 Safari/537.36 Edg/104.0.1293.54","WebKit","Edge","104.0.1293.54","Windows","10.0","null","<div style=""font-size:60px;"">+</div>","null",""
"","","","","","html-button-response","127","313464","0.0-4.0-1.61","66","1","2022-10-09 11:06:17","ebf9627b049f568eb4bf28942cb89901","120.208.185.42","Mozilla/5.0 (Windows NT 10.0; Win64; x64) AppleWebKit/537.36 (KHTML, like Gecko) Chrome/104.0.5112.81 Safari/537.36 Edg/104.0.1293.54","WebKit","Edge","104.0.1293.54","Windows","10.0","850","<p>作为军队的指挥官，你可以选择发射导弹杀死 <strong>1名</strong> 敌国士兵，但会误杀附近的 <strong>1名</strong> 敌国平民。</p> <p>平民照片如下图所示。</p> <p></p> <img src='stimuli/faces/NFF3.jpg', style='max-width: 30%;'> </img> <p><strong>你是否选择发射武器？</strong></p>","1",""
"","","","","","html-keyboard-response","128","314472","0.0-4.0-0.62","66","1","2022-10-09 11:06:17","ebf9627b049f568eb4bf28942cb89901","120.208.185.42","Mozilla/5.0 (Windows NT 10.0; Win64; x64) AppleWebKit/537.36 (KHTML, like Gecko) Chrome/104.0.5112.81 Safari/537.36 Edg/104.0.1293.54","WebKit","Edge","104.0.1293.54","Windows","10.0","null","<div style=""font-size:60px;"">+</div>","null",""
"","","","","","html-button-response","129","315585","0.0-4.0-1.62","66","1","2022-10-09 11:06:17","ebf9627b049f568eb4bf28942cb89901","120.208.185.42","Mozilla/5.0 (Windows NT 10.0; Win64; x64) AppleWebKit/537.36 (KHTML, like Gecko) Chrome/104.0.5112.81 Safari/537.36 Edg/104.0.1293.54","WebKit","Edge","104.0.1293.54","Windows","10.0","1108","<p>作为军队的指挥官，你可以选择发射导弹杀死 <strong>9名</strong> 敌国士兵，但会误杀附近的 <strong>1名</strong> 敌国平民。</p> <p>平民照片如下图所示。</p> <p></p> <img src='stimuli/faces/NFM2.jpg', style='max-width: 30%;'> </img> <p><strong>你是否选择发射武器？</strong></p>","1",""
"","","","","","html-keyboard-response","130","316594","0.0-4.0-0.63","66","1","2022-10-09 11:06:17","ebf9627b049f568eb4bf28942cb89901","120.208.185.42","Mozilla/5.0 (Windows NT 10.0; Win64; x64) AppleWebKit/537.36 (KHTML, like Gecko) Chrome/104.0.5112.81 Safari/537.36 Edg/104.0.1293.54","WebKit","Edge","104.0.1293.54","Windows","10.0","null","<div style=""font-size:60px;"">+</div>","null",""
"","","","","","html-button-response","131","317328","0.0-4.0-1.63","66","1","2022-10-09 11:06:17","ebf9627b049f568eb4bf28942cb89901","120.208.185.42","Mozilla/5.0 (Windows NT 10.0; Win64; x64) AppleWebKit/537.36 (KHTML, like Gecko) Chrome/104.0.5112.81 Safari/537.36 Edg/104.0.1293.54","WebKit","Edge","104.0.1293.54","Windows","10.0","730","<p>作为军队的指挥官，你可以选择发射导弹杀死 <strong>3名</strong> 敌国士兵，但会误杀附近的 <strong>1名</strong> 敌国平民。</p> <p>平民照片如下图所示。</p> <p></p> <img src='stimuli/faces/NFM2.jpg', style='max-width: 30%;'> </img> <p><strong>你是否选择发射武器？</strong></p>","1",""
"","","","","","survey-multi-choice","132","321624","0.0-5.0","66","1","2022-10-09 11:06:17","ebf9627b049f568eb4bf28942cb89901","120.208.185.42","Mozilla/5.0 (Windows NT 10.0; Win64; x64) AppleWebKit/537.36 (KHTML, like Gecko) Chrome/104.0.5112.81 Safari/537.36 Edg/104.0.1293.54","WebKit","Edge","104.0.1293.54","Windows","10.0","4291","","{""Attention1"":""""}","[0]"
"","","","","","html-button-response","133","323368","0.0-6.0","66","1","2022-10-09 11:06:17","ebf9627b049f568eb4bf28942cb89901","120.208.185.42","Mozilla/5.0 (Windows NT 10.0; Win64; x64) AppleWebKit/537.36 (KHTML, like Gecko) Chrome/104.0.5112.81 Safari/537.36 Edg/104.0.1293.54","WebKit","Edge","104.0.1293.54","Windows","10.0","1736","<p style=""font-size:20px;font-weight:bold;"">恭喜！</p><p>你已经完成了实验的第一部分。</p><p>请休息放松一下，然后进入第二部分。</p><p>这部分大约需要10分钟。</p>","0",""
"","","","","","survey-text","134","356841","0.0-7.0","66","1","2022-10-09 11:06:17","ebf9627b049f568eb4bf28942cb89901","120.208.185.42","Mozilla/5.0 (Windows NT 10.0; Win64; x64) AppleWebKit/537.36 (KHTML, like Gecko) Chrome/104.0.5112.81 Safari/537.36 Edg/104.0.1293.54","WebKit","Edge","104.0.1293.54","Windows","10.0","32459","","{""Age"":""24"",""Nation"":""中国"",""Born"":""山西省"",""Live"":""山西省"",""Ethnic"":""汉族"",""Alipay"":""18536384695""}",""
"","","","","","survey-multi-choice","135","385001","0.0-8.0","66","1","2022-10-09 11:06:17","ebf9627b049f568eb4bf28942cb89901","120.208.185.42","Mozilla/5.0 (Windows NT 10.0; Win64; x64) AppleWebKit/537.36 (KHTML, like Gecko) Chrome/104.0.5112.81 Safari/537.36 Edg/104.0.1293.54","WebKit","Edge","104.0.1293.54","Windows","10.0","28155","","{""Gender"":""男"",""Education"":""本科毕业"",""Income"":""￥140,000-￥269,999"",""Children"":""0"",""Race"":""亚洲人""}","[0,1,2,3,4]"
"","","","","","survey-multi-select","136","393073","0.0-9.0","66","1","2022-10-09 11:06:17","ebf9627b049f568eb4bf28942cb89901","120.208.185.42","Mozilla/5.0 (Windows NT 10.0; Win64; x64) AppleWebKit/537.36 (KHTML, like Gecko) Chrome/104.0.5112.81 Safari/537.36 Edg/104.0.1293.54","WebKit","Edge","104.0.1293.54","Windows","10.0","8055","","{""Marriage"":[""未婚""],""Religion"":[""无宗教信仰""]}","[0,1]"
"","","","","","survey-multi-choice","137","397393","0.0-10.0","66","1","2022-10-09 11:06:17","ebf9627b049f568eb4bf28942cb89901","120.208.185.42","Mozilla/5.0 (Windows NT 10.0; Win64; x64) AppleWebKit/537.36 (KHTML, like Gecko) Chrome/104.0.5112.81 Safari/537.36 Edg/104.0.1293.54","WebKit","Edge","104.0.1293.54","Windows","10.0","4313","","{""SES"":""4""}","[0]"
"","","","","","html-button-response","138","399064","0.0-11.0","66","1","2022-10-09 11:06:17","ebf9627b049f568eb4bf28942cb89901","120.208.185.42","Mozilla/5.0 (Windows NT 10.0; Win64; x64) AppleWebKit/537.36 (KHTML, like Gecko) Chrome/104.0.5112.81 Safari/537.36 Edg/104.0.1293.54","WebKit","Edge","104.0.1293.54","Windows","10.0","1665","<p><strong>请判断下列陈述在多大程度上可以形容你？</p><p> (1 = ""和我一点都不像"" to 5 = ""非常像我"".)</strong></p>","0",""
"","","","","","survey-likert","139","423434","0.0-12.0","66","1","2022-10-09 11:06:17","ebf9627b049f568eb4bf28942cb89901","120.208.185.42","Mozilla/5.0 (Windows NT 10.0; Win64; x64) AppleWebKit/537.36 (KHTML, like Gecko) Chrome/104.0.5112.81 Safari/537.36 Edg/104.0.1293.54","WebKit","Edge","104.0.1293.54","Windows","10.0","24364","","{""Aggression1"":0,""Aggression2"":0,""Aggression3"":3,""Aggression4"":0,""Aggression5"":3,""Aggression6"":4,""Aggression7"":1,""Aggression8"":0,""Aggression9"":0}","[0,1,2,3,4,5,6,7,8]"
"","","","","","html-button-response","140","424856","0.0-13.0","66","1","2022-10-09 11:06:17","ebf9627b049f568eb4bf28942cb89901","120.208.185.42","Mozilla/5.0 (Windows NT 10.0; Win64; x64) AppleWebKit/537.36 (KHTML, like Gecko) Chrome/104.0.5112.81 Safari/537.36 Edg/104.0.1293.54","WebKit","Edge","104.0.1293.54","Windows","10.0","1416","<p><strong>请判断你在多大程度上同意下列陈述。</strong></p>","0",""
"","","","","","survey-likert","141","716114","0.0-14.0","66","1","2022-10-09 11:06:17","ebf9627b049f568eb4bf28942cb89901","120.208.185.42","Mozilla/5.0 (Windows NT 10.0; Win64; x64) AppleWebKit/537.36 (KHTML, like Gecko) Chrome/104.0.5112.81 Safari/537.36 Edg/104.0.1293.54","WebKit","Edge","104.0.1293.54","Windows","10.0","291252","","{""scale2"":3,""scale4"":0,""scale9"":4,""scale25"":4,""scale18"":0,""scale5"":3,""scale8"":4,""scale3"":3,""scale16"":4,""scale6"":2,""scale17"":1,""scale19"":4,""scale22"":2,""scale7"":0,""scale1"":0,""scale10"":1,""scale11"":4,""scale28"":4,""scale12"":0,""scale26"":4,""scale20"":3,""scale13"":0,""scale24"":0,""scale14"":0,""scale23"":4,""scale15"":0,""scale21"":4,""scale27"":0}","[1,3,8,24,17,4,7,2,15,5,16,18,21,6,0,9,10,27,11,25,19,12,23,13,22,14,20,26]"
"","","","","","html-button-response","142","717568","0.0-15.0","66","1","2022-10-09 11:06:17","ebf9627b049f568eb4bf28942cb89901","120.208.185.42","Mozilla/5.0 (Windows NT 10.0; Win64; x64) AppleWebKit/537.36 (KHTML, like Gecko) Chrome/104.0.5112.81 Safari/537.36 Edg/104.0.1293.54","WebKit","Edge","104.0.1293.54","Windows","10.0","1447","<p><strong>请判断你在多大程度上同意下列陈述。</strong></p>","0",""
"","","","","","survey-likert","143","753714","0.0-16.0","66","1","2022-10-09 11:06:17","ebf9627b049f568eb4bf28942cb89901","120.208.185.42","Mozilla/5.0 (Windows NT 10.0; Win64; x64) AppleWebKit/537.36 (KHTML, like Gecko) Chrome/104.0.5112.81 Safari/537.36 Edg/104.0.1293.54","WebKit","Edge","104.0.1293.54","Windows","10.0","36141","","{""sdo15"":6,""sdo13"":6,""sdo7"":0,""sdo16"":6,""sdo8"":0,""sdo11"":6,""sdo14"":6,""sdo9"":6,""sdo6"":0,""sdo1"":0,""sdo12"":6,""sdo2"":0,""sdo3"":0,""sdo10"":6,""sdo5"":0,""sdo4"":0}","[14,12,6,15,7,10,13,8,5,0,11,1,2,9,4,3]"
"","","","","","html-button-response","144","754808","0.0-17.0","66","1","2022-10-09 11:06:17","ebf9627b049f568eb4bf28942cb89901","120.208.185.42","Mozilla/5.0 (Windows NT 10.0; Win64; x64) AppleWebKit/537.36 (KHTML, like Gecko) Chrome/104.0.5112.81 Safari/537.36 Edg/104.0.1293.54","WebKit","Edge","104.0.1293.54","Windows","10.0","1087","<p><strong>请判断你在多大程度上同意下列陈述。</strong></p>","0",""
"","","","","","survey-likert","145","781713","0.0-18.0","66","1","2022-10-09 11:06:17","ebf9627b049f568eb4bf28942cb89901","120.208.185.42","Mozilla/5.0 (Windows NT 10.0; Win64; x64) AppleWebKit/537.36 (KHTML, like Gecko) Chrome/104.0.5112.81 Safari/537.36 Edg/104.0.1293.54","WebKit","Edge","104.0.1293.54","Windows","10.0","26900","","{""caring1"":4,""liking1"":0,""caring2"":4,""protection1"":3,""liking2"":0,""caring3"":4,""protection2"":3,""liking3"":0,""protection3"":4,""caring4"":4,""liking4"":0,""protection4"":4,""caring5"":4,""liking5"":0,""protection5"":3}","[0,1,2,3,4,5,6,7,8,9,10,11,12,13,14]"
"","","","","","html-button-response","146","782768","0.0-19.0","66","1","2022-10-09 11:06:17","ebf9627b049f568eb4bf28942cb89901","120.208.185.42","Mozilla/5.0 (Windows NT 10.0; Win64; x64) AppleWebKit/537.36 (KHTML, like Gecko) Chrome/104.0.5112.81 Safari/537.36 Edg/104.0.1293.54","WebKit","Edge","104.0.1293.54","Windows","10.0","1047","<p><strong>请判断下列场景中你的内心感受有多柔软。</strong></p>","0",""
"","","","","","survey-likert","147","795761","0.0-20.0","66","1","2022-10-09 11:06:17","ebf9627b049f568eb4bf28942cb89901","120.208.185.42","Mozilla/5.0 (Windows NT 10.0; Win64; x64) AppleWebKit/537.36 (KHTML, like Gecko) Chrome/104.0.5112.81 Safari/537.36 Edg/104.0.1293.54","WebKit","Edge","104.0.1293.54","Windows","10.0","12988","","{""tenderness-positive1"":4,""tenderness-negative1"":3,""tenderness-negative2"":4,""tenderness-positive2"":3,""tenderness-positive3"":3,""tenderness-negative3"":3,""tenderness-positive4"":4,""tendereness-negative4"":4,""tendernness-negative5"":3,""tenderness-positive5"":4}","[0,1,2,3,4,5,6,7,8,9]"
"","","","","","survey-multi-choice","148","802312","0.0-21.0","66","1","2022-10-09 11:06:17","ebf9627b049f568eb4bf28942cb89901","120.208.185.42","Mozilla/5.0 (Windows NT 10.0; Win64; x64) AppleWebKit/537.36 (KHTML, like Gecko) Chrome/104.0.5112.81 Safari/537.36 Edg/104.0.1293.54","WebKit","Edge","104.0.1293.54","Windows","10.0","6544","","{""Attention2"":""其他""}","[0]"
"","","","","","html-button-response","149","803160","0.0-22.0","66","1","2022-10-09 11:06:17","ebf9627b049f568eb4bf28942cb89901","120.208.185.42","Mozilla/5.0 (Windows NT 10.0; Win64; x64) AppleWebKit/537.36 (KHTML, like Gecko) Chrome/104.0.5112.81 Safari/537.36 Edg/104.0.1293.54","WebKit","Edge","104.0.1293.54","Windows","10.0","841","<p><strong>请判断你在多大程度上同意下列陈述。</strong></p>","0",""
"","","","","","survey-likert","150","867666","0.0-23.0","66","1","2022-10-09 11:06:17","ebf9627b049f568eb4bf28942cb89901","120.208.185.42","Mozilla/5.0 (Windows NT 10.0; Win64; x64) AppleWebKit/537.36 (KHTML, like Gecko) Chrome/104.0.5112.81 Safari/537.36 Edg/104.0.1293.54","WebKit","Edge","104.0.1293.54","Windows","10.0","64500","","{""Patri8"":4,""Patri9"":0,""Nation7"":4,""Nation3"":3,""Nation6"":4,""Nation5"":4,""Patri7"":4,""Nation1"":4,""Patri10"":0,""Patri11"":0,""Nation8"":0,""Patri5"":4,""Patri6"":0,""Nation4"":3,""Patri12"":0,""Patri3"":4,""Nation2"":4,""Patri1"":4,""Patri4"":4,""Patri2"":4}","[7,8,18,14,17,16,6,12,9,10,19,4,5,15,11,2,13,0,3,1]"
"","","","","","html-button-response","151","868832","0.0-24.0","66","1","2022-10-09 11:06:17","ebf9627b049f568eb4bf28942cb89901","120.208.185.42","Mozilla/5.0 (Windows NT 10.0; Win64; x64) AppleWebKit/537.36 (KHTML, like Gecko) Chrome/104.0.5112.81 Safari/537.36 Edg/104.0.1293.54","WebKit","Edge","104.0.1293.54","Windows","10.0","1159","<p><strong>请判断你在多大程度上同意下列陈述。</strong></p>","0",""
"","","","","","survey-likert","152","905603","0.0-25.0","66","1","2022-10-09 11:06:17","ebf9627b049f568eb4bf28942cb89901","120.208.185.42","Mozilla/5.0 (Windows NT 10.0; Win64; x64) AppleWebKit/537.36 (KHTML, like Gecko) Chrome/104.0.5112.81 Safari/537.36 Edg/104.0.1293.54","WebKit","Edge","104.0.1293.54","Windows","10.0","36764","","{""hc4"":8,""hi4"":2,""vc1"":8,""vc3"":8,""vc4"":8,""Robot"":6,""hi1"":4,""vi2"":2,""hc2"":8,""hi2"":5,""hc1"":8,""vi3"":8,""vi4"":0,""hi3"":0,""hc3"":8,""vi1"":0,""vc2"":8}","[12,3,13,15,16,7,0,5,10,1,9,6,8,2,11,4,14]"
"","","","","","survey-text","153","923921","0.0-26.0","66","1","2022-10-09 11:06:17","ebf9627b049f568eb4bf28942cb89901","120.208.185.42","Mozilla/5.0 (Windows NT 10.0; Win64; x64) AppleWebKit/537.36 (KHTML, like Gecko) Chrome/104.0.5112.81 Safari/537.36 Edg/104.0.1293.54","WebKit","Edge","104.0.1293.54","Windows","10.0","18278","","{""Comments"":""问题很全面，实验很好。""}",""
"","","","","","html-button-response","154","924832","0.0-27.0","66","1","2022-10-09 11:06:17","ebf9627b049f568eb4bf28942cb89901","120.208.185.42","Mozilla/5.0 (Windows NT 10.0; Win64; x64) AppleWebKit/537.36 (KHTML, like Gecko) Chrome/104.0.5112.81 Safari/537.36 Edg/104.0.1293.54","WebKit","Edge","104.0.1293.54","Windows","10.0","905","<strong><p>恭喜你完成了实验！</p><p>感谢您的参与。</p></strong>","0",""
