"success","timeout","failed_images","failed_audio","failed_video","trial_type","trial_index","time_elapsed","internal_node_id","run_id","condition","recorded_at","source_code_version","ip","user_agent","device","browser","browser_version","platform","platform_version","rt","stimulus","response","question_order"
"true","false","[]","[]","[]","preload","0","1089","0.0-0.0","70","1","2022-10-09 11:09:08","ebf9627b049f568eb4bf28942cb89901","116.149.206.125","Mozilla/5.0 (Linux; U; Android 11; zh-cn; M2012K11AC Build/RKQ1.200826.002) AppleWebKit/537.36 (KHTML, like Gecko) Version/4.0 Chrome/89.0.4389.116 Mobile Safari/537.36 XiaoMi/MiuiBrowser/17.0.10 swan-mibrowser","Xiaomi","Chrome","89.0.4389.116","AndroidOS","11","","","",""
"true","","","","","fullscreen","1","3109","0.0-1.0","70","1","2022-10-09 11:09:08","ebf9627b049f568eb4bf28942cb89901","116.149.206.125","Mozilla/5.0 (Linux; U; Android 11; zh-cn; M2012K11AC Build/RKQ1.200826.002) AppleWebKit/537.36 (KHTML, like Gecko) Version/4.0 Chrome/89.0.4389.116 Mobile Safari/537.36 XiaoMi/MiuiBrowser/17.0.10 swan-mibrowser","Xiaomi","Chrome","89.0.4389.116","AndroidOS","11","","","",""
"","","","","","html-button-response","2","6507","0.0-2.0","70","1","2022-10-09 11:09:08","ebf9627b049f568eb4bf28942cb89901","116.149.206.125","Mozilla/5.0 (Linux; U; Android 11; zh-cn; M2012K11AC Build/RKQ1.200826.002) AppleWebKit/537.36 (KHTML, like Gecko) Version/4.0 Chrome/89.0.4389.116 Mobile Safari/537.36 XiaoMi/MiuiBrowser/17.0.10 swan-mibrowser","Xiaomi","Chrome","89.0.4389.116","AndroidOS","11","3390","<p style=""font-size:20px;font-weight:bold;"">实验知情同意书</p><p style=""text-align:left;""><strong>实验名称：</strong>社会冲突研究</p><p style=""text-align:left;""><strong>主要研究者：</strong>韩晓春副教授（北京师范大学心理学部）</p><p style=""text-align:left;""><strong>联系方式：</strong>发送邮件至xiaochun.han@bnu.edu.cn</p><p style=""text-align:left;""><strong>研究目的：</strong>研究旨在了解人类面对群体冲突时的决策方式，以及相关的心理学特质。实验调查大约需要20分钟。</p><p style=""text-align:left;""><strong>实验流程：</strong>实验包含两部分。第一部分呈现一系列群体冲突场景，请你决定如何对这些冲突进行反应，大约需要10分钟完成。第二部分包含一系列人口统计学信息收集和心理学问卷，大约需要10分钟完成。</p><p style=""text-align:left;""><strong>参加及退出规则：</strong>参加本实验完全取决于您的个人意愿。在参与过程中，您可以随时退出，并且不用承担任何后果。</p><p style=""text-align:left;""><strong>隐私：</strong>本实验完全匿名进行，不会收集您的姓名或其他能够识别您身份的信息。实验中收集的作答仅用作科学研究使用，可能会在学术期刊/书籍上发表，或者用于教学，您的数据未来可能会和其他研究者或实验室分享，但您的个人身份不会被识别。</p><p style=""text-align:left;""><strong>实验报酬：</strong>实验完成后，您将获得15元人民币报酬，以感谢您的时间和努力。调查问卷中包含几道题目用以测验您作答时的认真度。只有完成全部实验，并且正确回答认真度测验的被试才能获得实验报酬。实验报酬将通过支付宝转账发放。</p><p style=""text-align:left;font-size:20px;""><strong>如果您同意以上实验知情同意书的内容，请点击'同意并且开始实验'按钮；否则请关闭浏览器界面，退出实验。</strong></p>","0",""
"","","","","","html-button-response","3","9509","0.0-3.0","70","1","2022-10-09 11:09:08","ebf9627b049f568eb4bf28942cb89901","116.149.206.125","Mozilla/5.0 (Linux; U; Android 11; zh-cn; M2012K11AC Build/RKQ1.200826.002) AppleWebKit/537.36 (KHTML, like Gecko) Version/4.0 Chrome/89.0.4389.116 Mobile Safari/537.36 XiaoMi/MiuiBrowser/17.0.10 swan-mibrowser","Xiaomi","Chrome","89.0.4389.116","AndroidOS","11","2988","<p ><strong>实验任务一：</strong></p><p>请想象你的国家与另一个国家发生了军事冲突。</p><p>你是国家军队的指挥官，你将如何在冲突中进行决策。</p><p>具体来说，作为军队指挥官，请你决定是否发射导弹进行打击。</p><p>接下来，你会面对一系列场景，请仔细阅读每个场景，然后进行决策。</p><p>这部分实验任务大约需要10分钟。</p><p><strong>实验过程中，请集中注意力。</strong></p>","0",""
"","","","","","html-keyboard-response","4","10511","0.0-4.0-0.0","70","1","2022-10-09 11:09:08","ebf9627b049f568eb4bf28942cb89901","116.149.206.125","Mozilla/5.0 (Linux; U; Android 11; zh-cn; M2012K11AC Build/RKQ1.200826.002) AppleWebKit/537.36 (KHTML, like Gecko) Version/4.0 Chrome/89.0.4389.116 Mobile Safari/537.36 XiaoMi/MiuiBrowser/17.0.10 swan-mibrowser","Xiaomi","Chrome","89.0.4389.116","AndroidOS","11","null","<div style=""font-size:60px;"">+</div>","null",""
"","","","","","html-button-response","5","19075","0.0-4.0-1.0","70","1","2022-10-09 11:09:08","ebf9627b049f568eb4bf28942cb89901","116.149.206.125","Mozilla/5.0 (Linux; U; Android 11; zh-cn; M2012K11AC Build/RKQ1.200826.002) AppleWebKit/537.36 (KHTML, like Gecko) Version/4.0 Chrome/89.0.4389.116 Mobile Safari/537.36 XiaoMi/MiuiBrowser/17.0.10 swan-mibrowser","Xiaomi","Chrome","89.0.4389.116","AndroidOS","11","8557","<p>作为军队的指挥官，你可以选择发射导弹杀死 <strong>5名</strong> 敌国士兵，但会炸毁附近的 <strong>1棵</strong> 敌国树木。</p> <p>树木的照片如下图所示。</p> <p></p> <img src='stimuli/trees/10.png', style='max-width: 30%;'> </img> <p><strong>你是否选择发射武器？</strong></p>","1",""
"","","","","","html-keyboard-response","6","20089","0.0-4.0-0.1","70","1","2022-10-09 11:09:08","ebf9627b049f568eb4bf28942cb89901","116.149.206.125","Mozilla/5.0 (Linux; U; Android 11; zh-cn; M2012K11AC Build/RKQ1.200826.002) AppleWebKit/537.36 (KHTML, like Gecko) Version/4.0 Chrome/89.0.4389.116 Mobile Safari/537.36 XiaoMi/MiuiBrowser/17.0.10 swan-mibrowser","Xiaomi","Chrome","89.0.4389.116","AndroidOS","11","null","<div style=""font-size:60px;"">+</div>","null",""
"","","","","","html-button-response","7","24038","0.0-4.0-1.1","70","1","2022-10-09 11:09:08","ebf9627b049f568eb4bf28942cb89901","116.149.206.125","Mozilla/5.0 (Linux; U; Android 11; zh-cn; M2012K11AC Build/RKQ1.200826.002) AppleWebKit/537.36 (KHTML, like Gecko) Version/4.0 Chrome/89.0.4389.116 Mobile Safari/537.36 XiaoMi/MiuiBrowser/17.0.10 swan-mibrowser","Xiaomi","Chrome","89.0.4389.116","AndroidOS","11","3934","<p>作为军队的指挥官，你可以选择发射导弹杀死 <strong>7名</strong> 敌国士兵，但会误杀附近的 <strong>1名</strong> 敌国平民。</p> <p>平民照片如下图所示。</p> <p></p> <img src='stimuli/faces/NFF5.jpg', style='max-width: 30%;'> </img> <p><strong>你是否选择发射武器？</strong></p>","1",""
"","","","","","html-keyboard-response","8","25045","0.0-4.0-0.2","70","1","2022-10-09 11:09:08","ebf9627b049f568eb4bf28942cb89901","116.149.206.125","Mozilla/5.0 (Linux; U; Android 11; zh-cn; M2012K11AC Build/RKQ1.200826.002) AppleWebKit/537.36 (KHTML, like Gecko) Version/4.0 Chrome/89.0.4389.116 Mobile Safari/537.36 XiaoMi/MiuiBrowser/17.0.10 swan-mibrowser","Xiaomi","Chrome","89.0.4389.116","AndroidOS","11","null","<div style=""font-size:60px;"">+</div>","null",""
"","","","","","html-button-response","9","26952","0.0-4.0-1.2","70","1","2022-10-09 11:09:08","ebf9627b049f568eb4bf28942cb89901","116.149.206.125","Mozilla/5.0 (Linux; U; Android 11; zh-cn; M2012K11AC Build/RKQ1.200826.002) AppleWebKit/537.36 (KHTML, like Gecko) Version/4.0 Chrome/89.0.4389.116 Mobile Safari/537.36 XiaoMi/MiuiBrowser/17.0.10 swan-mibrowser","Xiaomi","Chrome","89.0.4389.116","AndroidOS","11","1896","<p>作为军队的指挥官，你可以选择发射导弹杀死 <strong>8名</strong> 敌国士兵，但会误杀附近的 <strong>1名</strong> 敌国平民。</p> <p>平民照片如下图所示。</p> <p></p> <img src='stimuli/faces/NFF7.jpg', style='max-width: 30%;'> </img> <p><strong>你是否选择发射武器？</strong></p>","0",""
"","","","","","html-keyboard-response","10","27961","0.0-4.0-0.3","70","1","2022-10-09 11:09:08","ebf9627b049f568eb4bf28942cb89901","116.149.206.125","Mozilla/5.0 (Linux; U; Android 11; zh-cn; M2012K11AC Build/RKQ1.200826.002) AppleWebKit/537.36 (KHTML, like Gecko) Version/4.0 Chrome/89.0.4389.116 Mobile Safari/537.36 XiaoMi/MiuiBrowser/17.0.10 swan-mibrowser","Xiaomi","Chrome","89.0.4389.116","AndroidOS","11","null","<div style=""font-size:60px;"">+</div>","null",""
"","","","","","html-button-response","11","28777","0.0-4.0-1.3","70","1","2022-10-09 11:09:08","ebf9627b049f568eb4bf28942cb89901","116.149.206.125","Mozilla/5.0 (Linux; U; Android 11; zh-cn; M2012K11AC Build/RKQ1.200826.002) AppleWebKit/537.36 (KHTML, like Gecko) Version/4.0 Chrome/89.0.4389.116 Mobile Safari/537.36 XiaoMi/MiuiBrowser/17.0.10 swan-mibrowser","Xiaomi","Chrome","89.0.4389.116","AndroidOS","11","802","<p>作为军队的指挥官，你可以选择发射导弹杀死 <strong>3名</strong> 敌国士兵，但会炸毁附近的 <strong>1棵</strong> 敌国树木。</p> <p>树木的照片如下图所示。</p> <p></p> <img src='stimuli/trees/4.png', style='max-width: 30%;'> </img> <p><strong>你是否选择发射武器？</strong></p>","1",""
"","","","","","html-keyboard-response","12","29788","0.0-4.0-0.4","70","1","2022-10-09 11:09:08","ebf9627b049f568eb4bf28942cb89901","116.149.206.125","Mozilla/5.0 (Linux; U; Android 11; zh-cn; M2012K11AC Build/RKQ1.200826.002) AppleWebKit/537.36 (KHTML, like Gecko) Version/4.0 Chrome/89.0.4389.116 Mobile Safari/537.36 XiaoMi/MiuiBrowser/17.0.10 swan-mibrowser","Xiaomi","Chrome","89.0.4389.116","AndroidOS","11","null","<div style=""font-size:60px;"">+</div>","null",""
"","","","","","html-button-response","13","30760","0.0-4.0-1.4","70","1","2022-10-09 11:09:08","ebf9627b049f568eb4bf28942cb89901","116.149.206.125","Mozilla/5.0 (Linux; U; Android 11; zh-cn; M2012K11AC Build/RKQ1.200826.002) AppleWebKit/537.36 (KHTML, like Gecko) Version/4.0 Chrome/89.0.4389.116 Mobile Safari/537.36 XiaoMi/MiuiBrowser/17.0.10 swan-mibrowser","Xiaomi","Chrome","89.0.4389.116","AndroidOS","11","959","<p>作为军队的指挥官，你可以选择发射导弹杀死 <strong>1名</strong> 敌国士兵，但会误杀附近的 <strong>1名</strong> 敌国平民。</p> <p>平民照片如下图所示。</p> <p></p> <img src='stimuli/faces/NFM4.jpg', style='max-width: 30%;'> </img> <p><strong>你是否选择发射武器？</strong></p>","1",""
"","","","","","html-keyboard-response","14","31775","0.0-4.0-0.5","70","1","2022-10-09 11:09:08","ebf9627b049f568eb4bf28942cb89901","116.149.206.125","Mozilla/5.0 (Linux; U; Android 11; zh-cn; M2012K11AC Build/RKQ1.200826.002) AppleWebKit/537.36 (KHTML, like Gecko) Version/4.0 Chrome/89.0.4389.116 Mobile Safari/537.36 XiaoMi/MiuiBrowser/17.0.10 swan-mibrowser","Xiaomi","Chrome","89.0.4389.116","AndroidOS","11","null","<div style=""font-size:60px;"">+</div>","null",""
"","","","","","html-button-response","15","32782","0.0-4.0-1.5","70","1","2022-10-09 11:09:08","ebf9627b049f568eb4bf28942cb89901","116.149.206.125","Mozilla/5.0 (Linux; U; Android 11; zh-cn; M2012K11AC Build/RKQ1.200826.002) AppleWebKit/537.36 (KHTML, like Gecko) Version/4.0 Chrome/89.0.4389.116 Mobile Safari/537.36 XiaoMi/MiuiBrowser/17.0.10 swan-mibrowser","Xiaomi","Chrome","89.0.4389.116","AndroidOS","11","994","<p>作为军队的指挥官，你可以选择发射导弹杀死 <strong>8名</strong> 敌国士兵，但会炸毁附近的 <strong>1棵</strong> 敌国树木。</p> <p>树木的照片如下图所示。</p> <p></p> <img src='stimuli/trees/8.png', style='max-width: 30%;'> </img> <p><strong>你是否选择发射武器？</strong></p>","0",""
"","","","","","html-keyboard-response","16","33791","0.0-4.0-0.6","70","1","2022-10-09 11:09:08","ebf9627b049f568eb4bf28942cb89901","116.149.206.125","Mozilla/5.0 (Linux; U; Android 11; zh-cn; M2012K11AC Build/RKQ1.200826.002) AppleWebKit/537.36 (KHTML, like Gecko) Version/4.0 Chrome/89.0.4389.116 Mobile Safari/537.36 XiaoMi/MiuiBrowser/17.0.10 swan-mibrowser","Xiaomi","Chrome","89.0.4389.116","AndroidOS","11","null","<div style=""font-size:60px;"">+</div>","null",""
"","","","","","html-button-response","17","34514","0.0-4.0-1.6","70","1","2022-10-09 11:09:08","ebf9627b049f568eb4bf28942cb89901","116.149.206.125","Mozilla/5.0 (Linux; U; Android 11; zh-cn; M2012K11AC Build/RKQ1.200826.002) AppleWebKit/537.36 (KHTML, like Gecko) Version/4.0 Chrome/89.0.4389.116 Mobile Safari/537.36 XiaoMi/MiuiBrowser/17.0.10 swan-mibrowser","Xiaomi","Chrome","89.0.4389.116","AndroidOS","11","711","<p>作为军队的指挥官，你可以选择发射导弹杀死 <strong>7名</strong> 敌国士兵，但会炸毁附近的 <strong>1棵</strong> 敌国树木。</p> <p>树木的照片如下图所示。</p> <p></p> <img src='stimuli/trees/1.png', style='max-width: 30%;'> </img> <p><strong>你是否选择发射武器？</strong></p>","1",""
"","","","","","html-keyboard-response","18","35524","0.0-4.0-0.7","70","1","2022-10-09 11:09:08","ebf9627b049f568eb4bf28942cb89901","116.149.206.125","Mozilla/5.0 (Linux; U; Android 11; zh-cn; M2012K11AC Build/RKQ1.200826.002) AppleWebKit/537.36 (KHTML, like Gecko) Version/4.0 Chrome/89.0.4389.116 Mobile Safari/537.36 XiaoMi/MiuiBrowser/17.0.10 swan-mibrowser","Xiaomi","Chrome","89.0.4389.116","AndroidOS","11","null","<div style=""font-size:60px;"">+</div>","null",""
"","","","","","html-button-response","19","36531","0.0-4.0-1.7","70","1","2022-10-09 11:09:08","ebf9627b049f568eb4bf28942cb89901","116.149.206.125","Mozilla/5.0 (Linux; U; Android 11; zh-cn; M2012K11AC Build/RKQ1.200826.002) AppleWebKit/537.36 (KHTML, like Gecko) Version/4.0 Chrome/89.0.4389.116 Mobile Safari/537.36 XiaoMi/MiuiBrowser/17.0.10 swan-mibrowser","Xiaomi","Chrome","89.0.4389.116","AndroidOS","11","982","<p>作为军队的指挥官，你可以选择发射导弹杀死 <strong>9名</strong> 敌国士兵，但会误杀附近的 <strong>1名</strong> 敌国平民。</p> <p>平民照片如下图所示。</p> <p></p> <img src='stimuli/faces/NFM2.jpg', style='max-width: 30%;'> </img> <p><strong>你是否选择发射武器？</strong></p>","1",""
"","","","","","html-keyboard-response","20","37540","0.0-4.0-0.8","70","1","2022-10-09 11:09:08","ebf9627b049f568eb4bf28942cb89901","116.149.206.125","Mozilla/5.0 (Linux; U; Android 11; zh-cn; M2012K11AC Build/RKQ1.200826.002) AppleWebKit/537.36 (KHTML, like Gecko) Version/4.0 Chrome/89.0.4389.116 Mobile Safari/537.36 XiaoMi/MiuiBrowser/17.0.10 swan-mibrowser","Xiaomi","Chrome","89.0.4389.116","AndroidOS","11","null","<div style=""font-size:60px;"">+</div>","null",""
"","","","","","html-button-response","21","38390","0.0-4.0-1.8","70","1","2022-10-09 11:09:08","ebf9627b049f568eb4bf28942cb89901","116.149.206.125","Mozilla/5.0 (Linux; U; Android 11; zh-cn; M2012K11AC Build/RKQ1.200826.002) AppleWebKit/537.36 (KHTML, like Gecko) Version/4.0 Chrome/89.0.4389.116 Mobile Safari/537.36 XiaoMi/MiuiBrowser/17.0.10 swan-mibrowser","Xiaomi","Chrome","89.0.4389.116","AndroidOS","11","836","<p>作为军队的指挥官，你可以选择发射导弹杀死 <strong>1名</strong> 敌国士兵，但会炸毁附近的 <strong>1棵</strong> 敌国树木。</p> <p>树木的照片如下图所示。</p> <p></p> <img src='stimuli/trees/11.png', style='max-width: 30%;'> </img> <p><strong>你是否选择发射武器？</strong></p>","0",""
"","","","","","html-keyboard-response","22","39401","0.0-4.0-0.9","70","1","2022-10-09 11:09:08","ebf9627b049f568eb4bf28942cb89901","116.149.206.125","Mozilla/5.0 (Linux; U; Android 11; zh-cn; M2012K11AC Build/RKQ1.200826.002) AppleWebKit/537.36 (KHTML, like Gecko) Version/4.0 Chrome/89.0.4389.116 Mobile Safari/537.36 XiaoMi/MiuiBrowser/17.0.10 swan-mibrowser","Xiaomi","Chrome","89.0.4389.116","AndroidOS","11","null","<div style=""font-size:60px;"">+</div>","null",""
"","","","","","html-button-response","23","40247","0.0-4.0-1.9","70","1","2022-10-09 11:09:08","ebf9627b049f568eb4bf28942cb89901","116.149.206.125","Mozilla/5.0 (Linux; U; Android 11; zh-cn; M2012K11AC Build/RKQ1.200826.002) AppleWebKit/537.36 (KHTML, like Gecko) Version/4.0 Chrome/89.0.4389.116 Mobile Safari/537.36 XiaoMi/MiuiBrowser/17.0.10 swan-mibrowser","Xiaomi","Chrome","89.0.4389.116","AndroidOS","11","832","<p>作为军队的指挥官，你可以选择发射导弹杀死 <strong>5名</strong> 敌国士兵，但会误杀附近的 <strong>1名</strong> 敌国平民。</p> <p>平民照片如下图所示。</p> <p></p> <img src='stimuli/faces/NFF1.jpg', style='max-width: 30%;'> </img> <p><strong>你是否选择发射武器？</strong></p>","1",""
"","","","","","html-keyboard-response","24","41260","0.0-4.0-0.10","70","1","2022-10-09 11:09:08","ebf9627b049f568eb4bf28942cb89901","116.149.206.125","Mozilla/5.0 (Linux; U; Android 11; zh-cn; M2012K11AC Build/RKQ1.200826.002) AppleWebKit/537.36 (KHTML, like Gecko) Version/4.0 Chrome/89.0.4389.116 Mobile Safari/537.36 XiaoMi/MiuiBrowser/17.0.10 swan-mibrowser","Xiaomi","Chrome","89.0.4389.116","AndroidOS","11","null","<div style=""font-size:60px;"">+</div>","null",""
"","","","","","html-button-response","25","42101","0.0-4.0-1.10","70","1","2022-10-09 11:09:08","ebf9627b049f568eb4bf28942cb89901","116.149.206.125","Mozilla/5.0 (Linux; U; Android 11; zh-cn; M2012K11AC Build/RKQ1.200826.002) AppleWebKit/537.36 (KHTML, like Gecko) Version/4.0 Chrome/89.0.4389.116 Mobile Safari/537.36 XiaoMi/MiuiBrowser/17.0.10 swan-mibrowser","Xiaomi","Chrome","89.0.4389.116","AndroidOS","11","825","<p>作为军队的指挥官，你可以选择发射导弹杀死 <strong>7名</strong> 敌国士兵，但会炸毁附近的 <strong>1棵</strong> 敌国树木。</p> <p>树木的照片如下图所示。</p> <p></p> <img src='stimuli/trees/6.png', style='max-width: 30%;'> </img> <p><strong>你是否选择发射武器？</strong></p>","1",""
"","","","","","html-keyboard-response","26","43112","0.0-4.0-0.11","70","1","2022-10-09 11:09:08","ebf9627b049f568eb4bf28942cb89901","116.149.206.125","Mozilla/5.0 (Linux; U; Android 11; zh-cn; M2012K11AC Build/RKQ1.200826.002) AppleWebKit/537.36 (KHTML, like Gecko) Version/4.0 Chrome/89.0.4389.116 Mobile Safari/537.36 XiaoMi/MiuiBrowser/17.0.10 swan-mibrowser","Xiaomi","Chrome","89.0.4389.116","AndroidOS","11","null","<div style=""font-size:60px;"">+</div>","null",""
"","","","","","html-button-response","27","43902","0.0-4.0-1.11","70","1","2022-10-09 11:09:08","ebf9627b049f568eb4bf28942cb89901","116.149.206.125","Mozilla/5.0 (Linux; U; Android 11; zh-cn; M2012K11AC Build/RKQ1.200826.002) AppleWebKit/537.36 (KHTML, like Gecko) Version/4.0 Chrome/89.0.4389.116 Mobile Safari/537.36 XiaoMi/MiuiBrowser/17.0.10 swan-mibrowser","Xiaomi","Chrome","89.0.4389.116","AndroidOS","11","776","<p>作为军队的指挥官，你可以选择发射导弹杀死 <strong>6名</strong> 敌国士兵，但会误杀附近的 <strong>1名</strong> 敌国平民。</p> <p>平民照片如下图所示。</p> <p></p> <img src='stimuli/faces/NFM5.jpg', style='max-width: 30%;'> </img> <p><strong>你是否选择发射武器？</strong></p>","0",""
"","","","","","html-keyboard-response","28","44914","0.0-4.0-0.12","70","1","2022-10-09 11:09:08","ebf9627b049f568eb4bf28942cb89901","116.149.206.125","Mozilla/5.0 (Linux; U; Android 11; zh-cn; M2012K11AC Build/RKQ1.200826.002) AppleWebKit/537.36 (KHTML, like Gecko) Version/4.0 Chrome/89.0.4389.116 Mobile Safari/537.36 XiaoMi/MiuiBrowser/17.0.10 swan-mibrowser","Xiaomi","Chrome","89.0.4389.116","AndroidOS","11","null","<div style=""font-size:60px;"">+</div>","null",""
"","","","","","html-button-response","29","45855","0.0-4.0-1.12","70","1","2022-10-09 11:09:08","ebf9627b049f568eb4bf28942cb89901","116.149.206.125","Mozilla/5.0 (Linux; U; Android 11; zh-cn; M2012K11AC Build/RKQ1.200826.002) AppleWebKit/537.36 (KHTML, like Gecko) Version/4.0 Chrome/89.0.4389.116 Mobile Safari/537.36 XiaoMi/MiuiBrowser/17.0.10 swan-mibrowser","Xiaomi","Chrome","89.0.4389.116","AndroidOS","11","925","<p>作为军队的指挥官，你可以选择发射导弹杀死 <strong>9名</strong> 敌国士兵，但会炸毁附近的 <strong>1棵</strong> 敌国树木。</p> <p>树木的照片如下图所示。</p> <p></p> <img src='stimuli/trees/15.png', style='max-width: 30%;'> </img> <p><strong>你是否选择发射武器？</strong></p>","1",""
"","","","","","html-keyboard-response","30","46870","0.0-4.0-0.13","70","1","2022-10-09 11:09:08","ebf9627b049f568eb4bf28942cb89901","116.149.206.125","Mozilla/5.0 (Linux; U; Android 11; zh-cn; M2012K11AC Build/RKQ1.200826.002) AppleWebKit/537.36 (KHTML, like Gecko) Version/4.0 Chrome/89.0.4389.116 Mobile Safari/537.36 XiaoMi/MiuiBrowser/17.0.10 swan-mibrowser","Xiaomi","Chrome","89.0.4389.116","AndroidOS","11","null","<div style=""font-size:60px;"">+</div>","null",""
"","","","","","html-button-response","31","48163","0.0-4.0-1.13","70","1","2022-10-09 11:09:08","ebf9627b049f568eb4bf28942cb89901","116.149.206.125","Mozilla/5.0 (Linux; U; Android 11; zh-cn; M2012K11AC Build/RKQ1.200826.002) AppleWebKit/537.36 (KHTML, like Gecko) Version/4.0 Chrome/89.0.4389.116 Mobile Safari/537.36 XiaoMi/MiuiBrowser/17.0.10 swan-mibrowser","Xiaomi","Chrome","89.0.4389.116","AndroidOS","11","1273","<p>作为军队的指挥官，你可以选择发射导弹杀死 <strong>5名</strong> 敌国士兵，但会误杀附近的 <strong>1名</strong> 敌国平民。</p> <p>平民照片如下图所示。</p> <p></p> <img src='stimuli/faces/NFM5.jpg', style='max-width: 30%;'> </img> <p><strong>你是否选择发射武器？</strong></p>","1",""
"","","","","","html-keyboard-response","32","49178","0.0-4.0-0.14","70","1","2022-10-09 11:09:08","ebf9627b049f568eb4bf28942cb89901","116.149.206.125","Mozilla/5.0 (Linux; U; Android 11; zh-cn; M2012K11AC Build/RKQ1.200826.002) AppleWebKit/537.36 (KHTML, like Gecko) Version/4.0 Chrome/89.0.4389.116 Mobile Safari/537.36 XiaoMi/MiuiBrowser/17.0.10 swan-mibrowser","Xiaomi","Chrome","89.0.4389.116","AndroidOS","11","null","<div style=""font-size:60px;"">+</div>","null",""
"","","","","","html-button-response","33","50303","0.0-4.0-1.14","70","1","2022-10-09 11:09:08","ebf9627b049f568eb4bf28942cb89901","116.149.206.125","Mozilla/5.0 (Linux; U; Android 11; zh-cn; M2012K11AC Build/RKQ1.200826.002) AppleWebKit/537.36 (KHTML, like Gecko) Version/4.0 Chrome/89.0.4389.116 Mobile Safari/537.36 XiaoMi/MiuiBrowser/17.0.10 swan-mibrowser","Xiaomi","Chrome","89.0.4389.116","AndroidOS","11","1105","<p>作为军队的指挥官，你可以选择发射导弹杀死 <strong>6名</strong> 敌国士兵，但会误杀附近的 <strong>1名</strong> 敌国平民。</p> <p>平民照片如下图所示。</p> <p></p> <img src='stimuli/faces/NFF4.jpg', style='max-width: 30%;'> </img> <p><strong>你是否选择发射武器？</strong></p>","0",""
"","","","","","html-keyboard-response","34","51316","0.0-4.0-0.15","70","1","2022-10-09 11:09:08","ebf9627b049f568eb4bf28942cb89901","116.149.206.125","Mozilla/5.0 (Linux; U; Android 11; zh-cn; M2012K11AC Build/RKQ1.200826.002) AppleWebKit/537.36 (KHTML, like Gecko) Version/4.0 Chrome/89.0.4389.116 Mobile Safari/537.36 XiaoMi/MiuiBrowser/17.0.10 swan-mibrowser","Xiaomi","Chrome","89.0.4389.116","AndroidOS","11","null","<div style=""font-size:60px;"">+</div>","null",""
"","","","","","html-button-response","35","52163","0.0-4.0-1.15","70","1","2022-10-09 11:09:08","ebf9627b049f568eb4bf28942cb89901","116.149.206.125","Mozilla/5.0 (Linux; U; Android 11; zh-cn; M2012K11AC Build/RKQ1.200826.002) AppleWebKit/537.36 (KHTML, like Gecko) Version/4.0 Chrome/89.0.4389.116 Mobile Safari/537.36 XiaoMi/MiuiBrowser/17.0.10 swan-mibrowser","Xiaomi","Chrome","89.0.4389.116","AndroidOS","11","825","<p>作为军队的指挥官，你可以选择发射导弹杀死 <strong>10名</strong> 敌国士兵，但会炸毁附近的 <strong>1棵</strong> 敌国树木。</p> <p>树木的照片如下图所示。</p> <p></p> <img src='stimuli/trees/12.png', style='max-width: 30%;'> </img> <p><strong>你是否选择发射武器？</strong></p>","1",""
"","","","","","html-keyboard-response","36","53178","0.0-4.0-0.16","70","1","2022-10-09 11:09:08","ebf9627b049f568eb4bf28942cb89901","116.149.206.125","Mozilla/5.0 (Linux; U; Android 11; zh-cn; M2012K11AC Build/RKQ1.200826.002) AppleWebKit/537.36 (KHTML, like Gecko) Version/4.0 Chrome/89.0.4389.116 Mobile Safari/537.36 XiaoMi/MiuiBrowser/17.0.10 swan-mibrowser","Xiaomi","Chrome","89.0.4389.116","AndroidOS","11","null","<div style=""font-size:60px;"">+</div>","null",""
"","","","","","html-button-response","37","53966","0.0-4.0-1.16","70","1","2022-10-09 11:09:08","ebf9627b049f568eb4bf28942cb89901","116.149.206.125","Mozilla/5.0 (Linux; U; Android 11; zh-cn; M2012K11AC Build/RKQ1.200826.002) AppleWebKit/537.36 (KHTML, like Gecko) Version/4.0 Chrome/89.0.4389.116 Mobile Safari/537.36 XiaoMi/MiuiBrowser/17.0.10 swan-mibrowser","Xiaomi","Chrome","89.0.4389.116","AndroidOS","11","771","<p>作为军队的指挥官，你可以选择发射导弹杀死 <strong>8名</strong> 敌国士兵，但会炸毁附近的 <strong>1棵</strong> 敌国树木。</p> <p>树木的照片如下图所示。</p> <p></p> <img src='stimuli/trees/13.png', style='max-width: 30%;'> </img> <p><strong>你是否选择发射武器？</strong></p>","0",""
"","","","","","html-keyboard-response","38","54982","0.0-4.0-0.17","70","1","2022-10-09 11:09:08","ebf9627b049f568eb4bf28942cb89901","116.149.206.125","Mozilla/5.0 (Linux; U; Android 11; zh-cn; M2012K11AC Build/RKQ1.200826.002) AppleWebKit/537.36 (KHTML, like Gecko) Version/4.0 Chrome/89.0.4389.116 Mobile Safari/537.36 XiaoMi/MiuiBrowser/17.0.10 swan-mibrowser","Xiaomi","Chrome","89.0.4389.116","AndroidOS","11","null","<div style=""font-size:60px;"">+</div>","null",""
"","","","","","html-button-response","39","56021","0.0-4.0-1.17","70","1","2022-10-09 11:09:08","ebf9627b049f568eb4bf28942cb89901","116.149.206.125","Mozilla/5.0 (Linux; U; Android 11; zh-cn; M2012K11AC Build/RKQ1.200826.002) AppleWebKit/537.36 (KHTML, like Gecko) Version/4.0 Chrome/89.0.4389.116 Mobile Safari/537.36 XiaoMi/MiuiBrowser/17.0.10 swan-mibrowser","Xiaomi","Chrome","89.0.4389.116","AndroidOS","11","1020","<p>作为军队的指挥官，你可以选择发射导弹杀死 <strong>9名</strong> 敌国士兵，但会炸毁附近的 <strong>1棵</strong> 敌国树木。</p> <p>树木的照片如下图所示。</p> <p></p> <img src='stimuli/trees/3.png', style='max-width: 30%;'> </img> <p><strong>你是否选择发射武器？</strong></p>","1",""
"","","","","","html-keyboard-response","40","57037","0.0-4.0-0.18","70","1","2022-10-09 11:09:08","ebf9627b049f568eb4bf28942cb89901","116.149.206.125","Mozilla/5.0 (Linux; U; Android 11; zh-cn; M2012K11AC Build/RKQ1.200826.002) AppleWebKit/537.36 (KHTML, like Gecko) Version/4.0 Chrome/89.0.4389.116 Mobile Safari/537.36 XiaoMi/MiuiBrowser/17.0.10 swan-mibrowser","Xiaomi","Chrome","89.0.4389.116","AndroidOS","11","null","<div style=""font-size:60px;"">+</div>","null",""
"","","","","","html-button-response","41","58158","0.0-4.0-1.18","70","1","2022-10-09 11:09:08","ebf9627b049f568eb4bf28942cb89901","116.149.206.125","Mozilla/5.0 (Linux; U; Android 11; zh-cn; M2012K11AC Build/RKQ1.200826.002) AppleWebKit/537.36 (KHTML, like Gecko) Version/4.0 Chrome/89.0.4389.116 Mobile Safari/537.36 XiaoMi/MiuiBrowser/17.0.10 swan-mibrowser","Xiaomi","Chrome","89.0.4389.116","AndroidOS","11","1105","<p>作为军队的指挥官，你可以选择发射导弹杀死 <strong>1名</strong> 敌国士兵，但会炸毁附近的 <strong>1棵</strong> 敌国树木。</p> <p>树木的照片如下图所示。</p> <p></p> <img src='stimuli/trees/1.png', style='max-width: 30%;'> </img> <p><strong>你是否选择发射武器？</strong></p>","1",""
"","","","","","html-keyboard-response","42","59168","0.0-4.0-0.19","70","1","2022-10-09 11:09:08","ebf9627b049f568eb4bf28942cb89901","116.149.206.125","Mozilla/5.0 (Linux; U; Android 11; zh-cn; M2012K11AC Build/RKQ1.200826.002) AppleWebKit/537.36 (KHTML, like Gecko) Version/4.0 Chrome/89.0.4389.116 Mobile Safari/537.36 XiaoMi/MiuiBrowser/17.0.10 swan-mibrowser","Xiaomi","Chrome","89.0.4389.116","AndroidOS","11","null","<div style=""font-size:60px;"">+</div>","null",""
"","","","","","html-button-response","43","60082","0.0-4.0-1.19","70","1","2022-10-09 11:09:08","ebf9627b049f568eb4bf28942cb89901","116.149.206.125","Mozilla/5.0 (Linux; U; Android 11; zh-cn; M2012K11AC Build/RKQ1.200826.002) AppleWebKit/537.36 (KHTML, like Gecko) Version/4.0 Chrome/89.0.4389.116 Mobile Safari/537.36 XiaoMi/MiuiBrowser/17.0.10 swan-mibrowser","Xiaomi","Chrome","89.0.4389.116","AndroidOS","11","892","<p>作为军队的指挥官，你可以选择发射导弹杀死 <strong>3名</strong> 敌国士兵，但会炸毁附近的 <strong>1棵</strong> 敌国树木。</p> <p>树木的照片如下图所示。</p> <p></p> <img src='stimuli/trees/15.png', style='max-width: 30%;'> </img> <p><strong>你是否选择发射武器？</strong></p>","1",""
"","","","","","html-keyboard-response","44","61097","0.0-4.0-0.20","70","1","2022-10-09 11:09:08","ebf9627b049f568eb4bf28942cb89901","116.149.206.125","Mozilla/5.0 (Linux; U; Android 11; zh-cn; M2012K11AC Build/RKQ1.200826.002) AppleWebKit/537.36 (KHTML, like Gecko) Version/4.0 Chrome/89.0.4389.116 Mobile Safari/537.36 XiaoMi/MiuiBrowser/17.0.10 swan-mibrowser","Xiaomi","Chrome","89.0.4389.116","AndroidOS","11","null","<div style=""font-size:60px;"">+</div>","null",""
"","","","","","html-button-response","45","62027","0.0-4.0-1.20","70","1","2022-10-09 11:09:08","ebf9627b049f568eb4bf28942cb89901","116.149.206.125","Mozilla/5.0 (Linux; U; Android 11; zh-cn; M2012K11AC Build/RKQ1.200826.002) AppleWebKit/537.36 (KHTML, like Gecko) Version/4.0 Chrome/89.0.4389.116 Mobile Safari/537.36 XiaoMi/MiuiBrowser/17.0.10 swan-mibrowser","Xiaomi","Chrome","89.0.4389.116","AndroidOS","11","910","<p>作为军队的指挥官，你可以选择发射导弹杀死 <strong>6名</strong> 敌国士兵，但会误杀附近的 <strong>1名</strong> 敌国平民。</p> <p>平民照片如下图所示。</p> <p></p> <img src='stimuli/faces/NFF2.jpg', style='max-width: 30%;'> </img> <p><strong>你是否选择发射武器？</strong></p>","1",""
"","","","","","html-keyboard-response","46","63045","0.0-4.0-0.21","70","1","2022-10-09 11:09:08","ebf9627b049f568eb4bf28942cb89901","116.149.206.125","Mozilla/5.0 (Linux; U; Android 11; zh-cn; M2012K11AC Build/RKQ1.200826.002) AppleWebKit/537.36 (KHTML, like Gecko) Version/4.0 Chrome/89.0.4389.116 Mobile Safari/537.36 XiaoMi/MiuiBrowser/17.0.10 swan-mibrowser","Xiaomi","Chrome","89.0.4389.116","AndroidOS","11","null","<div style=""font-size:60px;"">+</div>","null",""
"","","","","","html-button-response","47","64074","0.0-4.0-1.21","70","1","2022-10-09 11:09:08","ebf9627b049f568eb4bf28942cb89901","116.149.206.125","Mozilla/5.0 (Linux; U; Android 11; zh-cn; M2012K11AC Build/RKQ1.200826.002) AppleWebKit/537.36 (KHTML, like Gecko) Version/4.0 Chrome/89.0.4389.116 Mobile Safari/537.36 XiaoMi/MiuiBrowser/17.0.10 swan-mibrowser","Xiaomi","Chrome","89.0.4389.116","AndroidOS","11","1006","<p>作为军队的指挥官，你可以选择发射导弹杀死 <strong>3名</strong> 敌国士兵，但会误杀附近的 <strong>1名</strong> 敌国平民。</p> <p>平民照片如下图所示。</p> <p></p> <img src='stimuli/faces/NFM1.jpg', style='max-width: 30%;'> </img> <p><strong>你是否选择发射武器？</strong></p>","1",""
"","","","","","html-keyboard-response","48","65087","0.0-4.0-0.22","70","1","2022-10-09 11:09:08","ebf9627b049f568eb4bf28942cb89901","116.149.206.125","Mozilla/5.0 (Linux; U; Android 11; zh-cn; M2012K11AC Build/RKQ1.200826.002) AppleWebKit/537.36 (KHTML, like Gecko) Version/4.0 Chrome/89.0.4389.116 Mobile Safari/537.36 XiaoMi/MiuiBrowser/17.0.10 swan-mibrowser","Xiaomi","Chrome","89.0.4389.116","AndroidOS","11","null","<div style=""font-size:60px;"">+</div>","null",""
"","","","","","html-button-response","49","66104","0.0-4.0-1.22","70","1","2022-10-09 11:09:08","ebf9627b049f568eb4bf28942cb89901","116.149.206.125","Mozilla/5.0 (Linux; U; Android 11; zh-cn; M2012K11AC Build/RKQ1.200826.002) AppleWebKit/537.36 (KHTML, like Gecko) Version/4.0 Chrome/89.0.4389.116 Mobile Safari/537.36 XiaoMi/MiuiBrowser/17.0.10 swan-mibrowser","Xiaomi","Chrome","89.0.4389.116","AndroidOS","11","994","<p>作为军队的指挥官，你可以选择发射导弹杀死 <strong>6名</strong> 敌国士兵，但会炸毁附近的 <strong>1棵</strong> 敌国树木。</p> <p>树木的照片如下图所示。</p> <p></p> <img src='stimuli/trees/2.png', style='max-width: 30%;'> </img> <p><strong>你是否选择发射武器？</strong></p>","1",""
"","","","","","html-keyboard-response","50","67153","0.0-4.0-0.23","70","1","2022-10-09 11:09:08","ebf9627b049f568eb4bf28942cb89901","116.149.206.125","Mozilla/5.0 (Linux; U; Android 11; zh-cn; M2012K11AC Build/RKQ1.200826.002) AppleWebKit/537.36 (KHTML, like Gecko) Version/4.0 Chrome/89.0.4389.116 Mobile Safari/537.36 XiaoMi/MiuiBrowser/17.0.10 swan-mibrowser","Xiaomi","Chrome","89.0.4389.116","AndroidOS","11","null","<div style=""font-size:60px;"">+</div>","null",""
"","","","","","html-button-response","51","67883","0.0-4.0-1.23","70","1","2022-10-09 11:09:08","ebf9627b049f568eb4bf28942cb89901","116.149.206.125","Mozilla/5.0 (Linux; U; Android 11; zh-cn; M2012K11AC Build/RKQ1.200826.002) AppleWebKit/537.36 (KHTML, like Gecko) Version/4.0 Chrome/89.0.4389.116 Mobile Safari/537.36 XiaoMi/MiuiBrowser/17.0.10 swan-mibrowser","Xiaomi","Chrome","89.0.4389.116","AndroidOS","11","709","<p>作为军队的指挥官，你可以选择发射导弹杀死 <strong>5名</strong> 敌国士兵，但会炸毁附近的 <strong>1棵</strong> 敌国树木。</p> <p>树木的照片如下图所示。</p> <p></p> <img src='stimuli/trees/3.png', style='max-width: 30%;'> </img> <p><strong>你是否选择发射武器？</strong></p>","1",""
"","","","","","html-keyboard-response","52","68902","0.0-4.0-0.24","70","1","2022-10-09 11:09:08","ebf9627b049f568eb4bf28942cb89901","116.149.206.125","Mozilla/5.0 (Linux; U; Android 11; zh-cn; M2012K11AC Build/RKQ1.200826.002) AppleWebKit/537.36 (KHTML, like Gecko) Version/4.0 Chrome/89.0.4389.116 Mobile Safari/537.36 XiaoMi/MiuiBrowser/17.0.10 swan-mibrowser","Xiaomi","Chrome","89.0.4389.116","AndroidOS","11","null","<div style=""font-size:60px;"">+</div>","null",""
"","","","","","html-button-response","53","69729","0.0-4.0-1.24","70","1","2022-10-09 11:09:08","ebf9627b049f568eb4bf28942cb89901","116.149.206.125","Mozilla/5.0 (Linux; U; Android 11; zh-cn; M2012K11AC Build/RKQ1.200826.002) AppleWebKit/537.36 (KHTML, like Gecko) Version/4.0 Chrome/89.0.4389.116 Mobile Safari/537.36 XiaoMi/MiuiBrowser/17.0.10 swan-mibrowser","Xiaomi","Chrome","89.0.4389.116","AndroidOS","11","801","<p>作为军队的指挥官，你可以选择发射导弹杀死 <strong>7名</strong> 敌国士兵，但会误杀附近的 <strong>1名</strong> 敌国平民。</p> <p>平民照片如下图所示。</p> <p></p> <img src='stimuli/faces/NFM6.jpg', style='max-width: 30%;'> </img> <p><strong>你是否选择发射武器？</strong></p>","1",""
"","","","","","html-keyboard-response","54","70748","0.0-4.0-0.25","70","1","2022-10-09 11:09:08","ebf9627b049f568eb4bf28942cb89901","116.149.206.125","Mozilla/5.0 (Linux; U; Android 11; zh-cn; M2012K11AC Build/RKQ1.200826.002) AppleWebKit/537.36 (KHTML, like Gecko) Version/4.0 Chrome/89.0.4389.116 Mobile Safari/537.36 XiaoMi/MiuiBrowser/17.0.10 swan-mibrowser","Xiaomi","Chrome","89.0.4389.116","AndroidOS","11","null","<div style=""font-size:60px;"">+</div>","null",""
"","","","","","html-button-response","55","71729","0.0-4.0-1.25","70","1","2022-10-09 11:09:08","ebf9627b049f568eb4bf28942cb89901","116.149.206.125","Mozilla/5.0 (Linux; U; Android 11; zh-cn; M2012K11AC Build/RKQ1.200826.002) AppleWebKit/537.36 (KHTML, like Gecko) Version/4.0 Chrome/89.0.4389.116 Mobile Safari/537.36 XiaoMi/MiuiBrowser/17.0.10 swan-mibrowser","Xiaomi","Chrome","89.0.4389.116","AndroidOS","11","961","<p>作为军队的指挥官，你可以选择发射导弹杀死 <strong>4名</strong> 敌国士兵，但会误杀附近的 <strong>1名</strong> 敌国平民。</p> <p>平民照片如下图所示。</p> <p></p> <img src='stimuli/faces/NFF6.jpg', style='max-width: 30%;'> </img> <p><strong>你是否选择发射武器？</strong></p>","1",""
"","","","","","html-keyboard-response","56","72747","0.0-4.0-0.26","70","1","2022-10-09 11:09:08","ebf9627b049f568eb4bf28942cb89901","116.149.206.125","Mozilla/5.0 (Linux; U; Android 11; zh-cn; M2012K11AC Build/RKQ1.200826.002) AppleWebKit/537.36 (KHTML, like Gecko) Version/4.0 Chrome/89.0.4389.116 Mobile Safari/537.36 XiaoMi/MiuiBrowser/17.0.10 swan-mibrowser","Xiaomi","Chrome","89.0.4389.116","AndroidOS","11","null","<div style=""font-size:60px;"">+</div>","null",""
"","","","","","html-button-response","57","73432","0.0-4.0-1.26","70","1","2022-10-09 11:09:08","ebf9627b049f568eb4bf28942cb89901","116.149.206.125","Mozilla/5.0 (Linux; U; Android 11; zh-cn; M2012K11AC Build/RKQ1.200826.002) AppleWebKit/537.36 (KHTML, like Gecko) Version/4.0 Chrome/89.0.4389.116 Mobile Safari/537.36 XiaoMi/MiuiBrowser/17.0.10 swan-mibrowser","Xiaomi","Chrome","89.0.4389.116","AndroidOS","11","669","<p>作为军队的指挥官，你可以选择发射导弹杀死 <strong>5名</strong> 敌国士兵，但会炸毁附近的 <strong>1棵</strong> 敌国树木。</p> <p>树木的照片如下图所示。</p> <p></p> <img src='stimuli/trees/12.png', style='max-width: 30%;'> </img> <p><strong>你是否选择发射武器？</strong></p>","1",""
"","","","","","html-keyboard-response","58","74447","0.0-4.0-0.27","70","1","2022-10-09 11:09:08","ebf9627b049f568eb4bf28942cb89901","116.149.206.125","Mozilla/5.0 (Linux; U; Android 11; zh-cn; M2012K11AC Build/RKQ1.200826.002) AppleWebKit/537.36 (KHTML, like Gecko) Version/4.0 Chrome/89.0.4389.116 Mobile Safari/537.36 XiaoMi/MiuiBrowser/17.0.10 swan-mibrowser","Xiaomi","Chrome","89.0.4389.116","AndroidOS","11","null","<div style=""font-size:60px;"">+</div>","null",""
"","","","","","html-button-response","59","75414","0.0-4.0-1.27","70","1","2022-10-09 11:09:08","ebf9627b049f568eb4bf28942cb89901","116.149.206.125","Mozilla/5.0 (Linux; U; Android 11; zh-cn; M2012K11AC Build/RKQ1.200826.002) AppleWebKit/537.36 (KHTML, like Gecko) Version/4.0 Chrome/89.0.4389.116 Mobile Safari/537.36 XiaoMi/MiuiBrowser/17.0.10 swan-mibrowser","Xiaomi","Chrome","89.0.4389.116","AndroidOS","11","944","<p>作为军队的指挥官，你可以选择发射导弹杀死 <strong>5名</strong> 敌国士兵，但会误杀附近的 <strong>1名</strong> 敌国平民。</p> <p>平民照片如下图所示。</p> <p></p> <img src='stimuli/faces/NFF8.jpg', style='max-width: 30%;'> </img> <p><strong>你是否选择发射武器？</strong></p>","1",""
"","","","","","html-keyboard-response","60","76433","0.0-4.0-0.28","70","1","2022-10-09 11:09:08","ebf9627b049f568eb4bf28942cb89901","116.149.206.125","Mozilla/5.0 (Linux; U; Android 11; zh-cn; M2012K11AC Build/RKQ1.200826.002) AppleWebKit/537.36 (KHTML, like Gecko) Version/4.0 Chrome/89.0.4389.116 Mobile Safari/537.36 XiaoMi/MiuiBrowser/17.0.10 swan-mibrowser","Xiaomi","Chrome","89.0.4389.116","AndroidOS","11","null","<div style=""font-size:60px;"">+</div>","null",""
"","","","","","html-button-response","61","77394","0.0-4.0-1.28","70","1","2022-10-09 11:09:08","ebf9627b049f568eb4bf28942cb89901","116.149.206.125","Mozilla/5.0 (Linux; U; Android 11; zh-cn; M2012K11AC Build/RKQ1.200826.002) AppleWebKit/537.36 (KHTML, like Gecko) Version/4.0 Chrome/89.0.4389.116 Mobile Safari/537.36 XiaoMi/MiuiBrowser/17.0.10 swan-mibrowser","Xiaomi","Chrome","89.0.4389.116","AndroidOS","11","938","<p>作为军队的指挥官，你可以选择发射导弹杀死 <strong>2名</strong> 敌国士兵，但会误杀附近的 <strong>1名</strong> 敌国平民。</p> <p>平民照片如下图所示。</p> <p></p> <img src='stimuli/faces/NFF4.jpg', style='max-width: 30%;'> </img> <p><strong>你是否选择发射武器？</strong></p>","0",""
"","","","","","html-keyboard-response","62","78413","0.0-4.0-0.29","70","1","2022-10-09 11:09:08","ebf9627b049f568eb4bf28942cb89901","116.149.206.125","Mozilla/5.0 (Linux; U; Android 11; zh-cn; M2012K11AC Build/RKQ1.200826.002) AppleWebKit/537.36 (KHTML, like Gecko) Version/4.0 Chrome/89.0.4389.116 Mobile Safari/537.36 XiaoMi/MiuiBrowser/17.0.10 swan-mibrowser","Xiaomi","Chrome","89.0.4389.116","AndroidOS","11","null","<div style=""font-size:60px;"">+</div>","null",""
"","","","","","html-button-response","63","79380","0.0-4.0-1.29","70","1","2022-10-09 11:09:08","ebf9627b049f568eb4bf28942cb89901","116.149.206.125","Mozilla/5.0 (Linux; U; Android 11; zh-cn; M2012K11AC Build/RKQ1.200826.002) AppleWebKit/537.36 (KHTML, like Gecko) Version/4.0 Chrome/89.0.4389.116 Mobile Safari/537.36 XiaoMi/MiuiBrowser/17.0.10 swan-mibrowser","Xiaomi","Chrome","89.0.4389.116","AndroidOS","11","950","<p>作为军队的指挥官，你可以选择发射导弹杀死 <strong>4名</strong> 敌国士兵，但会炸毁附近的 <strong>1棵</strong> 敌国树木。</p> <p>树木的照片如下图所示。</p> <p></p> <img src='stimuli/trees/9.png', style='max-width: 30%;'> </img> <p><strong>你是否选择发射武器？</strong></p>","1",""
"","","","","","html-keyboard-response","64","80397","0.0-4.0-0.30","70","1","2022-10-09 11:09:08","ebf9627b049f568eb4bf28942cb89901","116.149.206.125","Mozilla/5.0 (Linux; U; Android 11; zh-cn; M2012K11AC Build/RKQ1.200826.002) AppleWebKit/537.36 (KHTML, like Gecko) Version/4.0 Chrome/89.0.4389.116 Mobile Safari/537.36 XiaoMi/MiuiBrowser/17.0.10 swan-mibrowser","Xiaomi","Chrome","89.0.4389.116","AndroidOS","11","null","<div style=""font-size:60px;"">+</div>","null",""
"","","","","","html-button-response","65","81304","0.0-4.0-1.30","70","1","2022-10-09 11:09:08","ebf9627b049f568eb4bf28942cb89901","116.149.206.125","Mozilla/5.0 (Linux; U; Android 11; zh-cn; M2012K11AC Build/RKQ1.200826.002) AppleWebKit/537.36 (KHTML, like Gecko) Version/4.0 Chrome/89.0.4389.116 Mobile Safari/537.36 XiaoMi/MiuiBrowser/17.0.10 swan-mibrowser","Xiaomi","Chrome","89.0.4389.116","AndroidOS","11","882","<p>作为军队的指挥官，你可以选择发射导弹杀死 <strong>4名</strong> 敌国士兵，但会炸毁附近的 <strong>1棵</strong> 敌国树木。</p> <p>树木的照片如下图所示。</p> <p></p> <img src='stimuli/trees/6.png', style='max-width: 30%;'> </img> <p><strong>你是否选择发射武器？</strong></p>","1",""
"","","","","","html-keyboard-response","66","82321","0.0-4.0-0.31","70","1","2022-10-09 11:09:08","ebf9627b049f568eb4bf28942cb89901","116.149.206.125","Mozilla/5.0 (Linux; U; Android 11; zh-cn; M2012K11AC Build/RKQ1.200826.002) AppleWebKit/537.36 (KHTML, like Gecko) Version/4.0 Chrome/89.0.4389.116 Mobile Safari/537.36 XiaoMi/MiuiBrowser/17.0.10 swan-mibrowser","Xiaomi","Chrome","89.0.4389.116","AndroidOS","11","null","<div style=""font-size:60px;"">+</div>","null",""
"","","","","","html-button-response","67","83193","0.0-4.0-1.31","70","1","2022-10-09 11:09:08","ebf9627b049f568eb4bf28942cb89901","116.149.206.125","Mozilla/5.0 (Linux; U; Android 11; zh-cn; M2012K11AC Build/RKQ1.200826.002) AppleWebKit/537.36 (KHTML, like Gecko) Version/4.0 Chrome/89.0.4389.116 Mobile Safari/537.36 XiaoMi/MiuiBrowser/17.0.10 swan-mibrowser","Xiaomi","Chrome","89.0.4389.116","AndroidOS","11","848","<p>作为军队的指挥官，你可以选择发射导弹杀死 <strong>5名</strong> 敌国士兵，但会误杀附近的 <strong>1名</strong> 敌国平民。</p> <p>平民照片如下图所示。</p> <p></p> <img src='stimuli/faces/NFM8.jpg', style='max-width: 30%;'> </img> <p><strong>你是否选择发射武器？</strong></p>","1",""
"","","","","","html-keyboard-response","68","84209","0.0-4.0-0.32","70","1","2022-10-09 11:09:08","ebf9627b049f568eb4bf28942cb89901","116.149.206.125","Mozilla/5.0 (Linux; U; Android 11; zh-cn; M2012K11AC Build/RKQ1.200826.002) AppleWebKit/537.36 (KHTML, like Gecko) Version/4.0 Chrome/89.0.4389.116 Mobile Safari/537.36 XiaoMi/MiuiBrowser/17.0.10 swan-mibrowser","Xiaomi","Chrome","89.0.4389.116","AndroidOS","11","null","<div style=""font-size:60px;"">+</div>","null",""
"","","","","","html-button-response","69","85205","0.0-4.0-1.32","70","1","2022-10-09 11:09:08","ebf9627b049f568eb4bf28942cb89901","116.149.206.125","Mozilla/5.0 (Linux; U; Android 11; zh-cn; M2012K11AC Build/RKQ1.200826.002) AppleWebKit/537.36 (KHTML, like Gecko) Version/4.0 Chrome/89.0.4389.116 Mobile Safari/537.36 XiaoMi/MiuiBrowser/17.0.10 swan-mibrowser","Xiaomi","Chrome","89.0.4389.116","AndroidOS","11","972","<p>作为军队的指挥官，你可以选择发射导弹杀死 <strong>4名</strong> 敌国士兵，但会炸毁附近的 <strong>1棵</strong> 敌国树木。</p> <p>树木的照片如下图所示。</p> <p></p> <img src='stimuli/trees/7.png', style='max-width: 30%;'> </img> <p><strong>你是否选择发射武器？</strong></p>","1",""
"","","","","","html-keyboard-response","70","86226","0.0-4.0-0.33","70","1","2022-10-09 11:09:08","ebf9627b049f568eb4bf28942cb89901","116.149.206.125","Mozilla/5.0 (Linux; U; Android 11; zh-cn; M2012K11AC Build/RKQ1.200826.002) AppleWebKit/537.36 (KHTML, like Gecko) Version/4.0 Chrome/89.0.4389.116 Mobile Safari/537.36 XiaoMi/MiuiBrowser/17.0.10 swan-mibrowser","Xiaomi","Chrome","89.0.4389.116","AndroidOS","11","null","<div style=""font-size:60px;"">+</div>","null",""
"","","","","","html-button-response","71","87142","0.0-4.0-1.33","70","1","2022-10-09 11:09:08","ebf9627b049f568eb4bf28942cb89901","116.149.206.125","Mozilla/5.0 (Linux; U; Android 11; zh-cn; M2012K11AC Build/RKQ1.200826.002) AppleWebKit/537.36 (KHTML, like Gecko) Version/4.0 Chrome/89.0.4389.116 Mobile Safari/537.36 XiaoMi/MiuiBrowser/17.0.10 swan-mibrowser","Xiaomi","Chrome","89.0.4389.116","AndroidOS","11","886","<p>作为军队的指挥官，你可以选择发射导弹杀死 <strong>6名</strong> 敌国士兵，但会误杀附近的 <strong>1名</strong> 敌国平民。</p> <p>平民照片如下图所示。</p> <p></p> <img src='stimuli/faces/NFM7.jpg', style='max-width: 30%;'> </img> <p><strong>你是否选择发射武器？</strong></p>","0",""
"","","","","","html-keyboard-response","72","88160","0.0-4.0-0.34","70","1","2022-10-09 11:09:08","ebf9627b049f568eb4bf28942cb89901","116.149.206.125","Mozilla/5.0 (Linux; U; Android 11; zh-cn; M2012K11AC Build/RKQ1.200826.002) AppleWebKit/537.36 (KHTML, like Gecko) Version/4.0 Chrome/89.0.4389.116 Mobile Safari/537.36 XiaoMi/MiuiBrowser/17.0.10 swan-mibrowser","Xiaomi","Chrome","89.0.4389.116","AndroidOS","11","null","<div style=""font-size:60px;"">+</div>","null",""
"","","","","","html-button-response","73","89151","0.0-4.0-1.34","70","1","2022-10-09 11:09:08","ebf9627b049f568eb4bf28942cb89901","116.149.206.125","Mozilla/5.0 (Linux; U; Android 11; zh-cn; M2012K11AC Build/RKQ1.200826.002) AppleWebKit/537.36 (KHTML, like Gecko) Version/4.0 Chrome/89.0.4389.116 Mobile Safari/537.36 XiaoMi/MiuiBrowser/17.0.10 swan-mibrowser","Xiaomi","Chrome","89.0.4389.116","AndroidOS","11","968","<p>作为军队的指挥官，你可以选择发射导弹杀死 <strong>7名</strong> 敌国士兵，但会误杀附近的 <strong>1名</strong> 敌国平民。</p> <p>平民照片如下图所示。</p> <p></p> <img src='stimuli/faces/NFF1.jpg', style='max-width: 30%;'> </img> <p><strong>你是否选择发射武器？</strong></p>","1",""
"","","","","","html-keyboard-response","74","90177","0.0-4.0-0.35","70","1","2022-10-09 11:09:08","ebf9627b049f568eb4bf28942cb89901","116.149.206.125","Mozilla/5.0 (Linux; U; Android 11; zh-cn; M2012K11AC Build/RKQ1.200826.002) AppleWebKit/537.36 (KHTML, like Gecko) Version/4.0 Chrome/89.0.4389.116 Mobile Safari/537.36 XiaoMi/MiuiBrowser/17.0.10 swan-mibrowser","Xiaomi","Chrome","89.0.4389.116","AndroidOS","11","null","<div style=""font-size:60px;"">+</div>","null",""
"","","","","","html-button-response","75","91014","0.0-4.0-1.35","70","1","2022-10-09 11:09:08","ebf9627b049f568eb4bf28942cb89901","116.149.206.125","Mozilla/5.0 (Linux; U; Android 11; zh-cn; M2012K11AC Build/RKQ1.200826.002) AppleWebKit/537.36 (KHTML, like Gecko) Version/4.0 Chrome/89.0.4389.116 Mobile Safari/537.36 XiaoMi/MiuiBrowser/17.0.10 swan-mibrowser","Xiaomi","Chrome","89.0.4389.116","AndroidOS","11","815","<p>作为军队的指挥官，你可以选择发射导弹杀死 <strong>1名</strong> 敌国士兵，但会误杀附近的 <strong>1名</strong> 敌国平民。</p> <p>平民照片如下图所示。</p> <p></p> <img src='stimuli/faces/NFF3.jpg', style='max-width: 30%;'> </img> <p><strong>你是否选择发射武器？</strong></p>","1",""
"","","","","","html-keyboard-response","76","92031","0.0-4.0-0.36","70","1","2022-10-09 11:09:08","ebf9627b049f568eb4bf28942cb89901","116.149.206.125","Mozilla/5.0 (Linux; U; Android 11; zh-cn; M2012K11AC Build/RKQ1.200826.002) AppleWebKit/537.36 (KHTML, like Gecko) Version/4.0 Chrome/89.0.4389.116 Mobile Safari/537.36 XiaoMi/MiuiBrowser/17.0.10 swan-mibrowser","Xiaomi","Chrome","89.0.4389.116","AndroidOS","11","null","<div style=""font-size:60px;"">+</div>","null",""
"","","","","","html-button-response","77","92947","0.0-4.0-1.36","70","1","2022-10-09 11:09:08","ebf9627b049f568eb4bf28942cb89901","116.149.206.125","Mozilla/5.0 (Linux; U; Android 11; zh-cn; M2012K11AC Build/RKQ1.200826.002) AppleWebKit/537.36 (KHTML, like Gecko) Version/4.0 Chrome/89.0.4389.116 Mobile Safari/537.36 XiaoMi/MiuiBrowser/17.0.10 swan-mibrowser","Xiaomi","Chrome","89.0.4389.116","AndroidOS","11","894","<p>作为军队的指挥官，你可以选择发射导弹杀死 <strong>6名</strong> 敌国士兵，但会炸毁附近的 <strong>1棵</strong> 敌国树木。</p> <p>树木的照片如下图所示。</p> <p></p> <img src='stimuli/trees/4.png', style='max-width: 30%;'> </img> <p><strong>你是否选择发射武器？</strong></p>","0",""
"","","","","","html-keyboard-response","78","93970","0.0-4.0-0.37","70","1","2022-10-09 11:09:08","ebf9627b049f568eb4bf28942cb89901","116.149.206.125","Mozilla/5.0 (Linux; U; Android 11; zh-cn; M2012K11AC Build/RKQ1.200826.002) AppleWebKit/537.36 (KHTML, like Gecko) Version/4.0 Chrome/89.0.4389.116 Mobile Safari/537.36 XiaoMi/MiuiBrowser/17.0.10 swan-mibrowser","Xiaomi","Chrome","89.0.4389.116","AndroidOS","11","null","<div style=""font-size:60px;"">+</div>","null",""
"","","","","","html-button-response","79","94904","0.0-4.0-1.37","70","1","2022-10-09 11:09:08","ebf9627b049f568eb4bf28942cb89901","116.149.206.125","Mozilla/5.0 (Linux; U; Android 11; zh-cn; M2012K11AC Build/RKQ1.200826.002) AppleWebKit/537.36 (KHTML, like Gecko) Version/4.0 Chrome/89.0.4389.116 Mobile Safari/537.36 XiaoMi/MiuiBrowser/17.0.10 swan-mibrowser","Xiaomi","Chrome","89.0.4389.116","AndroidOS","11","908","<p>作为军队的指挥官，你可以选择发射导弹杀死 <strong>3名</strong> 敌国士兵，但会炸毁附近的 <strong>1棵</strong> 敌国树木。</p> <p>树木的照片如下图所示。</p> <p></p> <img src='stimuli/trees/8.png', style='max-width: 30%;'> </img> <p><strong>你是否选择发射武器？</strong></p>","1",""
"","","","","","html-keyboard-response","80","95924","0.0-4.0-0.38","70","1","2022-10-09 11:09:08","ebf9627b049f568eb4bf28942cb89901","116.149.206.125","Mozilla/5.0 (Linux; U; Android 11; zh-cn; M2012K11AC Build/RKQ1.200826.002) AppleWebKit/537.36 (KHTML, like Gecko) Version/4.0 Chrome/89.0.4389.116 Mobile Safari/537.36 XiaoMi/MiuiBrowser/17.0.10 swan-mibrowser","Xiaomi","Chrome","89.0.4389.116","AndroidOS","11","null","<div style=""font-size:60px;"">+</div>","null",""
"","","","","","html-button-response","81","98858","0.0-4.0-1.38","70","1","2022-10-09 11:09:08","ebf9627b049f568eb4bf28942cb89901","116.149.206.125","Mozilla/5.0 (Linux; U; Android 11; zh-cn; M2012K11AC Build/RKQ1.200826.002) AppleWebKit/537.36 (KHTML, like Gecko) Version/4.0 Chrome/89.0.4389.116 Mobile Safari/537.36 XiaoMi/MiuiBrowser/17.0.10 swan-mibrowser","Xiaomi","Chrome","89.0.4389.116","AndroidOS","11","2902","<p>作为军队的指挥官，你可以选择发射导弹杀死 <strong>10名</strong> 敌国士兵，但会炸毁附近的 <strong>1棵</strong> 敌国树木。</p> <p>树木的照片如下图所示。</p> <p></p> <img src='stimuli/trees/16.png', style='max-width: 30%;'> </img> <p><strong>你是否选择发射武器？</strong></p>","1",""
"","","","","","html-keyboard-response","82","99877","0.0-4.0-0.39","70","1","2022-10-09 11:09:08","ebf9627b049f568eb4bf28942cb89901","116.149.206.125","Mozilla/5.0 (Linux; U; Android 11; zh-cn; M2012K11AC Build/RKQ1.200826.002) AppleWebKit/537.36 (KHTML, like Gecko) Version/4.0 Chrome/89.0.4389.116 Mobile Safari/537.36 XiaoMi/MiuiBrowser/17.0.10 swan-mibrowser","Xiaomi","Chrome","89.0.4389.116","AndroidOS","11","null","<div style=""font-size:60px;"">+</div>","null",""
"","","","","","html-button-response","83","100767","0.0-4.0-1.39","70","1","2022-10-09 11:09:08","ebf9627b049f568eb4bf28942cb89901","116.149.206.125","Mozilla/5.0 (Linux; U; Android 11; zh-cn; M2012K11AC Build/RKQ1.200826.002) AppleWebKit/537.36 (KHTML, like Gecko) Version/4.0 Chrome/89.0.4389.116 Mobile Safari/537.36 XiaoMi/MiuiBrowser/17.0.10 swan-mibrowser","Xiaomi","Chrome","89.0.4389.116","AndroidOS","11","867","<p>作为军队的指挥官，你可以选择发射导弹杀死 <strong>2名</strong> 敌国士兵，但会误杀附近的 <strong>1名</strong> 敌国平民。</p> <p>平民照片如下图所示。</p> <p></p> <img src='stimuli/faces/NFF7.jpg', style='max-width: 30%;'> </img> <p><strong>你是否选择发射武器？</strong></p>","1",""
"","","","","","html-keyboard-response","84","101789","0.0-4.0-0.40","70","1","2022-10-09 11:09:08","ebf9627b049f568eb4bf28942cb89901","116.149.206.125","Mozilla/5.0 (Linux; U; Android 11; zh-cn; M2012K11AC Build/RKQ1.200826.002) AppleWebKit/537.36 (KHTML, like Gecko) Version/4.0 Chrome/89.0.4389.116 Mobile Safari/537.36 XiaoMi/MiuiBrowser/17.0.10 swan-mibrowser","Xiaomi","Chrome","89.0.4389.116","AndroidOS","11","null","<div style=""font-size:60px;"">+</div>","null",""
"","","","","","html-button-response","85","102555","0.0-4.0-1.40","70","1","2022-10-09 11:09:08","ebf9627b049f568eb4bf28942cb89901","116.149.206.125","Mozilla/5.0 (Linux; U; Android 11; zh-cn; M2012K11AC Build/RKQ1.200826.002) AppleWebKit/537.36 (KHTML, like Gecko) Version/4.0 Chrome/89.0.4389.116 Mobile Safari/537.36 XiaoMi/MiuiBrowser/17.0.10 swan-mibrowser","Xiaomi","Chrome","89.0.4389.116","AndroidOS","11","741","<p>作为军队的指挥官，你可以选择发射导弹杀死 <strong>5名</strong> 敌国士兵，但会炸毁附近的 <strong>1棵</strong> 敌国树木。</p> <p>树木的照片如下图所示。</p> <p></p> <img src='stimuli/trees/5.png', style='max-width: 30%;'> </img> <p><strong>你是否选择发射武器？</strong></p>","1",""
"","","","","","html-keyboard-response","86","103589","0.0-4.0-0.41","70","1","2022-10-09 11:09:08","ebf9627b049f568eb4bf28942cb89901","116.149.206.125","Mozilla/5.0 (Linux; U; Android 11; zh-cn; M2012K11AC Build/RKQ1.200826.002) AppleWebKit/537.36 (KHTML, like Gecko) Version/4.0 Chrome/89.0.4389.116 Mobile Safari/537.36 XiaoMi/MiuiBrowser/17.0.10 swan-mibrowser","Xiaomi","Chrome","89.0.4389.116","AndroidOS","11","null","<div style=""font-size:60px;"">+</div>","null",""
"","","","","","html-button-response","87","104536","0.0-4.0-1.41","70","1","2022-10-09 11:09:08","ebf9627b049f568eb4bf28942cb89901","116.149.206.125","Mozilla/5.0 (Linux; U; Android 11; zh-cn; M2012K11AC Build/RKQ1.200826.002) AppleWebKit/537.36 (KHTML, like Gecko) Version/4.0 Chrome/89.0.4389.116 Mobile Safari/537.36 XiaoMi/MiuiBrowser/17.0.10 swan-mibrowser","Xiaomi","Chrome","89.0.4389.116","AndroidOS","11","899","<p>作为军队的指挥官，你可以选择发射导弹杀死 <strong>7名</strong> 敌国士兵，但会误杀附近的 <strong>1名</strong> 敌国平民。</p> <p>平民照片如下图所示。</p> <p></p> <img src='stimuli/faces/NFM3.jpg', style='max-width: 30%;'> </img> <p><strong>你是否选择发射武器？</strong></p>","0",""
"","","","","","html-keyboard-response","88","105568","0.0-4.0-0.42","70","1","2022-10-09 11:09:08","ebf9627b049f568eb4bf28942cb89901","116.149.206.125","Mozilla/5.0 (Linux; U; Android 11; zh-cn; M2012K11AC Build/RKQ1.200826.002) AppleWebKit/537.36 (KHTML, like Gecko) Version/4.0 Chrome/89.0.4389.116 Mobile Safari/537.36 XiaoMi/MiuiBrowser/17.0.10 swan-mibrowser","Xiaomi","Chrome","89.0.4389.116","AndroidOS","11","null","<div style=""font-size:60px;"">+</div>","null",""
"","","","","","html-button-response","89","106349","0.0-4.0-1.42","70","1","2022-10-09 11:09:08","ebf9627b049f568eb4bf28942cb89901","116.149.206.125","Mozilla/5.0 (Linux; U; Android 11; zh-cn; M2012K11AC Build/RKQ1.200826.002) AppleWebKit/537.36 (KHTML, like Gecko) Version/4.0 Chrome/89.0.4389.116 Mobile Safari/537.36 XiaoMi/MiuiBrowser/17.0.10 swan-mibrowser","Xiaomi","Chrome","89.0.4389.116","AndroidOS","11","731","<p>作为军队的指挥官，你可以选择发射导弹杀死 <strong>6名</strong> 敌国士兵，但会误杀附近的 <strong>1名</strong> 敌国平民。</p> <p>平民照片如下图所示。</p> <p></p> <img src='stimuli/faces/NFM8.jpg', style='max-width: 30%;'> </img> <p><strong>你是否选择发射武器？</strong></p>","1",""
"","","","","","html-keyboard-response","90","107389","0.0-4.0-0.43","70","1","2022-10-09 11:09:08","ebf9627b049f568eb4bf28942cb89901","116.149.206.125","Mozilla/5.0 (Linux; U; Android 11; zh-cn; M2012K11AC Build/RKQ1.200826.002) AppleWebKit/537.36 (KHTML, like Gecko) Version/4.0 Chrome/89.0.4389.116 Mobile Safari/537.36 XiaoMi/MiuiBrowser/17.0.10 swan-mibrowser","Xiaomi","Chrome","89.0.4389.116","AndroidOS","11","null","<div style=""font-size:60px;"">+</div>","null",""
"","","","","","html-button-response","91","108394","0.0-4.0-1.43","70","1","2022-10-09 11:09:08","ebf9627b049f568eb4bf28942cb89901","116.149.206.125","Mozilla/5.0 (Linux; U; Android 11; zh-cn; M2012K11AC Build/RKQ1.200826.002) AppleWebKit/537.36 (KHTML, like Gecko) Version/4.0 Chrome/89.0.4389.116 Mobile Safari/537.36 XiaoMi/MiuiBrowser/17.0.10 swan-mibrowser","Xiaomi","Chrome","89.0.4389.116","AndroidOS","11","952","<p>作为军队的指挥官，你可以选择发射导弹杀死 <strong>8名</strong> 敌国士兵，但会误杀附近的 <strong>1名</strong> 敌国平民。</p> <p>平民照片如下图所示。</p> <p></p> <img src='stimuli/faces/NFM1.jpg', style='max-width: 30%;'> </img> <p><strong>你是否选择发射武器？</strong></p>","1",""
"","","","","","html-keyboard-response","92","109417","0.0-4.0-0.44","70","1","2022-10-09 11:09:08","ebf9627b049f568eb4bf28942cb89901","116.149.206.125","Mozilla/5.0 (Linux; U; Android 11; zh-cn; M2012K11AC Build/RKQ1.200826.002) AppleWebKit/537.36 (KHTML, like Gecko) Version/4.0 Chrome/89.0.4389.116 Mobile Safari/537.36 XiaoMi/MiuiBrowser/17.0.10 swan-mibrowser","Xiaomi","Chrome","89.0.4389.116","AndroidOS","11","null","<div style=""font-size:60px;"">+</div>","null",""
"","","","","","html-button-response","93","110252","0.0-4.0-1.44","70","1","2022-10-09 11:09:08","ebf9627b049f568eb4bf28942cb89901","116.149.206.125","Mozilla/5.0 (Linux; U; Android 11; zh-cn; M2012K11AC Build/RKQ1.200826.002) AppleWebKit/537.36 (KHTML, like Gecko) Version/4.0 Chrome/89.0.4389.116 Mobile Safari/537.36 XiaoMi/MiuiBrowser/17.0.10 swan-mibrowser","Xiaomi","Chrome","89.0.4389.116","AndroidOS","11","802","<p>作为军队的指挥官，你可以选择发射导弹杀死 <strong>5名</strong> 敌国士兵，但会误杀附近的 <strong>1名</strong> 敌国平民。</p> <p>平民照片如下图所示。</p> <p></p> <img src='stimuli/faces/NFF5.jpg', style='max-width: 30%;'> </img> <p><strong>你是否选择发射武器？</strong></p>","1",""
"","","","","","html-keyboard-response","94","111277","0.0-4.0-0.45","70","1","2022-10-09 11:09:08","ebf9627b049f568eb4bf28942cb89901","116.149.206.125","Mozilla/5.0 (Linux; U; Android 11; zh-cn; M2012K11AC Build/RKQ1.200826.002) AppleWebKit/537.36 (KHTML, like Gecko) Version/4.0 Chrome/89.0.4389.116 Mobile Safari/537.36 XiaoMi/MiuiBrowser/17.0.10 swan-mibrowser","Xiaomi","Chrome","89.0.4389.116","AndroidOS","11","null","<div style=""font-size:60px;"">+</div>","null",""
"","","","","","html-button-response","95","112663","0.0-4.0-1.45","70","1","2022-10-09 11:09:08","ebf9627b049f568eb4bf28942cb89901","116.149.206.125","Mozilla/5.0 (Linux; U; Android 11; zh-cn; M2012K11AC Build/RKQ1.200826.002) AppleWebKit/537.36 (KHTML, like Gecko) Version/4.0 Chrome/89.0.4389.116 Mobile Safari/537.36 XiaoMi/MiuiBrowser/17.0.10 swan-mibrowser","Xiaomi","Chrome","89.0.4389.116","AndroidOS","11","1332","<p>作为军队的指挥官，你可以选择发射导弹杀死 <strong>1名</strong> 敌国士兵，但会误杀附近的 <strong>1名</strong> 敌国平民。</p> <p>平民照片如下图所示。</p> <p></p> <img src='stimuli/faces/NFM7.jpg', style='max-width: 30%;'> </img> <p><strong>你是否选择发射武器？</strong></p>","1",""
"","","","","","html-keyboard-response","96","113682","0.0-4.0-0.46","70","1","2022-10-09 11:09:08","ebf9627b049f568eb4bf28942cb89901","116.149.206.125","Mozilla/5.0 (Linux; U; Android 11; zh-cn; M2012K11AC Build/RKQ1.200826.002) AppleWebKit/537.36 (KHTML, like Gecko) Version/4.0 Chrome/89.0.4389.116 Mobile Safari/537.36 XiaoMi/MiuiBrowser/17.0.10 swan-mibrowser","Xiaomi","Chrome","89.0.4389.116","AndroidOS","11","null","<div style=""font-size:60px;"">+</div>","null",""
"","","","","","html-button-response","97","114609","0.0-4.0-1.46","70","1","2022-10-09 11:09:08","ebf9627b049f568eb4bf28942cb89901","116.149.206.125","Mozilla/5.0 (Linux; U; Android 11; zh-cn; M2012K11AC Build/RKQ1.200826.002) AppleWebKit/537.36 (KHTML, like Gecko) Version/4.0 Chrome/89.0.4389.116 Mobile Safari/537.36 XiaoMi/MiuiBrowser/17.0.10 swan-mibrowser","Xiaomi","Chrome","89.0.4389.116","AndroidOS","11","875","<p>作为军队的指挥官，你可以选择发射导弹杀死 <strong>9名</strong> 敌国士兵，但会炸毁附近的 <strong>1棵</strong> 敌国树木。</p> <p>树木的照片如下图所示。</p> <p></p> <img src='stimuli/trees/11.png', style='max-width: 30%;'> </img> <p><strong>你是否选择发射武器？</strong></p>","1",""
"","","","","","html-keyboard-response","98","115635","0.0-4.0-0.47","70","1","2022-10-09 11:09:08","ebf9627b049f568eb4bf28942cb89901","116.149.206.125","Mozilla/5.0 (Linux; U; Android 11; zh-cn; M2012K11AC Build/RKQ1.200826.002) AppleWebKit/537.36 (KHTML, like Gecko) Version/4.0 Chrome/89.0.4389.116 Mobile Safari/537.36 XiaoMi/MiuiBrowser/17.0.10 swan-mibrowser","Xiaomi","Chrome","89.0.4389.116","AndroidOS","11","null","<div style=""font-size:60px;"">+</div>","null",""
"","","","","","html-button-response","99","116508","0.0-4.0-1.47","70","1","2022-10-09 11:09:08","ebf9627b049f568eb4bf28942cb89901","116.149.206.125","Mozilla/5.0 (Linux; U; Android 11; zh-cn; M2012K11AC Build/RKQ1.200826.002) AppleWebKit/537.36 (KHTML, like Gecko) Version/4.0 Chrome/89.0.4389.116 Mobile Safari/537.36 XiaoMi/MiuiBrowser/17.0.10 swan-mibrowser","Xiaomi","Chrome","89.0.4389.116","AndroidOS","11","820","<p>作为军队的指挥官，你可以选择发射导弹杀死 <strong>5名</strong> 敌国士兵，但会误杀附近的 <strong>1名</strong> 敌国平民。</p> <p>平民照片如下图所示。</p> <p></p> <img src='stimuli/faces/NFM2.jpg', style='max-width: 30%;'> </img> <p><strong>你是否选择发射武器？</strong></p>","1",""
"","","","","","html-keyboard-response","100","117531","0.0-4.0-0.48","70","1","2022-10-09 11:09:08","ebf9627b049f568eb4bf28942cb89901","116.149.206.125","Mozilla/5.0 (Linux; U; Android 11; zh-cn; M2012K11AC Build/RKQ1.200826.002) AppleWebKit/537.36 (KHTML, like Gecko) Version/4.0 Chrome/89.0.4389.116 Mobile Safari/537.36 XiaoMi/MiuiBrowser/17.0.10 swan-mibrowser","Xiaomi","Chrome","89.0.4389.116","AndroidOS","11","null","<div style=""font-size:60px;"">+</div>","null",""
"","","","","","html-button-response","101","118337","0.0-4.0-1.48","70","1","2022-10-09 11:09:08","ebf9627b049f568eb4bf28942cb89901","116.149.206.125","Mozilla/5.0 (Linux; U; Android 11; zh-cn; M2012K11AC Build/RKQ1.200826.002) AppleWebKit/537.36 (KHTML, like Gecko) Version/4.0 Chrome/89.0.4389.116 Mobile Safari/537.36 XiaoMi/MiuiBrowser/17.0.10 swan-mibrowser","Xiaomi","Chrome","89.0.4389.116","AndroidOS","11","750","<p>作为军队的指挥官，你可以选择发射导弹杀死 <strong>9名</strong> 敌国士兵，但会炸毁附近的 <strong>1棵</strong> 敌国树木。</p> <p>树木的照片如下图所示。</p> <p></p> <img src='stimuli/trees/9.png', style='max-width: 30%;'> </img> <p><strong>你是否选择发射武器？</strong></p>","1",""
"","","","","","html-keyboard-response","102","119373","0.0-4.0-0.49","70","1","2022-10-09 11:09:08","ebf9627b049f568eb4bf28942cb89901","116.149.206.125","Mozilla/5.0 (Linux; U; Android 11; zh-cn; M2012K11AC Build/RKQ1.200826.002) AppleWebKit/537.36 (KHTML, like Gecko) Version/4.0 Chrome/89.0.4389.116 Mobile Safari/537.36 XiaoMi/MiuiBrowser/17.0.10 swan-mibrowser","Xiaomi","Chrome","89.0.4389.116","AndroidOS","11","null","<div style=""font-size:60px;"">+</div>","null",""
"","","","","","html-button-response","103","120245","0.0-4.0-1.49","70","1","2022-10-09 11:09:08","ebf9627b049f568eb4bf28942cb89901","116.149.206.125","Mozilla/5.0 (Linux; U; Android 11; zh-cn; M2012K11AC Build/RKQ1.200826.002) AppleWebKit/537.36 (KHTML, like Gecko) Version/4.0 Chrome/89.0.4389.116 Mobile Safari/537.36 XiaoMi/MiuiBrowser/17.0.10 swan-mibrowser","Xiaomi","Chrome","89.0.4389.116","AndroidOS","11","835","<p>作为军队的指挥官，你可以选择发射导弹杀死 <strong>4名</strong> 敌国士兵，但会炸毁附近的 <strong>1棵</strong> 敌国树木。</p> <p>树木的照片如下图所示。</p> <p></p> <img src='stimuli/trees/14.png', style='max-width: 30%;'> </img> <p><strong>你是否选择发射武器？</strong></p>","0",""
"","","","","","html-keyboard-response","104","121265","0.0-4.0-0.50","70","1","2022-10-09 11:09:08","ebf9627b049f568eb4bf28942cb89901","116.149.206.125","Mozilla/5.0 (Linux; U; Android 11; zh-cn; M2012K11AC Build/RKQ1.200826.002) AppleWebKit/537.36 (KHTML, like Gecko) Version/4.0 Chrome/89.0.4389.116 Mobile Safari/537.36 XiaoMi/MiuiBrowser/17.0.10 swan-mibrowser","Xiaomi","Chrome","89.0.4389.116","AndroidOS","11","null","<div style=""font-size:60px;"">+</div>","null",""
"","","","","","html-button-response","105","122161","0.0-4.0-1.50","70","1","2022-10-09 11:09:08","ebf9627b049f568eb4bf28942cb89901","116.149.206.125","Mozilla/5.0 (Linux; U; Android 11; zh-cn; M2012K11AC Build/RKQ1.200826.002) AppleWebKit/537.36 (KHTML, like Gecko) Version/4.0 Chrome/89.0.4389.116 Mobile Safari/537.36 XiaoMi/MiuiBrowser/17.0.10 swan-mibrowser","Xiaomi","Chrome","89.0.4389.116","AndroidOS","11","841","<p>作为军队的指挥官，你可以选择发射导弹杀死 <strong>9名</strong> 敌国士兵，但会炸毁附近的 <strong>1棵</strong> 敌国树木。</p> <p>树木的照片如下图所示。</p> <p></p> <img src='stimuli/trees/5.png', style='max-width: 30%;'> </img> <p><strong>你是否选择发射武器？</strong></p>","1",""
"","","","","","html-keyboard-response","106","123201","0.0-4.0-0.51","70","1","2022-10-09 11:09:08","ebf9627b049f568eb4bf28942cb89901","116.149.206.125","Mozilla/5.0 (Linux; U; Android 11; zh-cn; M2012K11AC Build/RKQ1.200826.002) AppleWebKit/537.36 (KHTML, like Gecko) Version/4.0 Chrome/89.0.4389.116 Mobile Safari/537.36 XiaoMi/MiuiBrowser/17.0.10 swan-mibrowser","Xiaomi","Chrome","89.0.4389.116","AndroidOS","11","null","<div style=""font-size:60px;"">+</div>","null",""
"","","","","","html-button-response","107","123996","0.0-4.0-1.51","70","1","2022-10-09 11:09:08","ebf9627b049f568eb4bf28942cb89901","116.149.206.125","Mozilla/5.0 (Linux; U; Android 11; zh-cn; M2012K11AC Build/RKQ1.200826.002) AppleWebKit/537.36 (KHTML, like Gecko) Version/4.0 Chrome/89.0.4389.116 Mobile Safari/537.36 XiaoMi/MiuiBrowser/17.0.10 swan-mibrowser","Xiaomi","Chrome","89.0.4389.116","AndroidOS","11","741","<p>作为军队的指挥官，你可以选择发射导弹杀死 <strong>7名</strong> 敌国士兵，但会误杀附近的 <strong>1名</strong> 敌国平民。</p> <p>平民照片如下图所示。</p> <p></p> <img src='stimuli/faces/NFF6.jpg', style='max-width: 30%;'> </img> <p><strong>你是否选择发射武器？</strong></p>","1",""
"","","","","","html-keyboard-response","108","125022","0.0-4.0-0.52","70","1","2022-10-09 11:09:08","ebf9627b049f568eb4bf28942cb89901","116.149.206.125","Mozilla/5.0 (Linux; U; Android 11; zh-cn; M2012K11AC Build/RKQ1.200826.002) AppleWebKit/537.36 (KHTML, like Gecko) Version/4.0 Chrome/89.0.4389.116 Mobile Safari/537.36 XiaoMi/MiuiBrowser/17.0.10 swan-mibrowser","Xiaomi","Chrome","89.0.4389.116","AndroidOS","11","null","<div style=""font-size:60px;"">+</div>","null",""
"","","","","","html-button-response","109","125806","0.0-4.0-1.52","70","1","2022-10-09 11:09:08","ebf9627b049f568eb4bf28942cb89901","116.149.206.125","Mozilla/5.0 (Linux; U; Android 11; zh-cn; M2012K11AC Build/RKQ1.200826.002) AppleWebKit/537.36 (KHTML, like Gecko) Version/4.0 Chrome/89.0.4389.116 Mobile Safari/537.36 XiaoMi/MiuiBrowser/17.0.10 swan-mibrowser","Xiaomi","Chrome","89.0.4389.116","AndroidOS","11","728","<p>作为军队的指挥官，你可以选择发射导弹杀死 <strong>8名</strong> 敌国士兵，但会误杀附近的 <strong>1名</strong> 敌国平民。</p> <p>平民照片如下图所示。</p> <p></p> <img src='stimuli/faces/NFM4.jpg', style='max-width: 30%;'> </img> <p><strong>你是否选择发射武器？</strong></p>","1",""
"","","","","","html-keyboard-response","110","126833","0.0-4.0-0.53","70","1","2022-10-09 11:09:08","ebf9627b049f568eb4bf28942cb89901","116.149.206.125","Mozilla/5.0 (Linux; U; Android 11; zh-cn; M2012K11AC Build/RKQ1.200826.002) AppleWebKit/537.36 (KHTML, like Gecko) Version/4.0 Chrome/89.0.4389.116 Mobile Safari/537.36 XiaoMi/MiuiBrowser/17.0.10 swan-mibrowser","Xiaomi","Chrome","89.0.4389.116","AndroidOS","11","null","<div style=""font-size:60px;"">+</div>","null",""
"","","","","","html-button-response","111","127710","0.0-4.0-1.53","70","1","2022-10-09 11:09:08","ebf9627b049f568eb4bf28942cb89901","116.149.206.125","Mozilla/5.0 (Linux; U; Android 11; zh-cn; M2012K11AC Build/RKQ1.200826.002) AppleWebKit/537.36 (KHTML, like Gecko) Version/4.0 Chrome/89.0.4389.116 Mobile Safari/537.36 XiaoMi/MiuiBrowser/17.0.10 swan-mibrowser","Xiaomi","Chrome","89.0.4389.116","AndroidOS","11","847","<p>作为军队的指挥官，你可以选择发射导弹杀死 <strong>2名</strong> 敌国士兵，但会炸毁附近的 <strong>1棵</strong> 敌国树木。</p> <p>树木的照片如下图所示。</p> <p></p> <img src='stimuli/trees/2.png', style='max-width: 30%;'> </img> <p><strong>你是否选择发射武器？</strong></p>","1",""
"","","","","","html-keyboard-response","112","128750","0.0-4.0-0.54","70","1","2022-10-09 11:09:08","ebf9627b049f568eb4bf28942cb89901","116.149.206.125","Mozilla/5.0 (Linux; U; Android 11; zh-cn; M2012K11AC Build/RKQ1.200826.002) AppleWebKit/537.36 (KHTML, like Gecko) Version/4.0 Chrome/89.0.4389.116 Mobile Safari/537.36 XiaoMi/MiuiBrowser/17.0.10 swan-mibrowser","Xiaomi","Chrome","89.0.4389.116","AndroidOS","11","null","<div style=""font-size:60px;"">+</div>","null",""
"","","","","","html-button-response","113","129715","0.0-4.0-1.54","70","1","2022-10-09 11:09:08","ebf9627b049f568eb4bf28942cb89901","116.149.206.125","Mozilla/5.0 (Linux; U; Android 11; zh-cn; M2012K11AC Build/RKQ1.200826.002) AppleWebKit/537.36 (KHTML, like Gecko) Version/4.0 Chrome/89.0.4389.116 Mobile Safari/537.36 XiaoMi/MiuiBrowser/17.0.10 swan-mibrowser","Xiaomi","Chrome","89.0.4389.116","AndroidOS","11","906","<p>作为军队的指挥官，你可以选择发射导弹杀死 <strong>9名</strong> 敌国士兵，但会误杀附近的 <strong>1名</strong> 敌国平民。</p> <p>平民照片如下图所示。</p> <p></p> <img src='stimuli/faces/NFF3.jpg', style='max-width: 30%;'> </img> <p><strong>你是否选择发射武器？</strong></p>","1",""
"","","","","","html-keyboard-response","114","130757","0.0-4.0-0.55","70","1","2022-10-09 11:09:08","ebf9627b049f568eb4bf28942cb89901","116.149.206.125","Mozilla/5.0 (Linux; U; Android 11; zh-cn; M2012K11AC Build/RKQ1.200826.002) AppleWebKit/537.36 (KHTML, like Gecko) Version/4.0 Chrome/89.0.4389.116 Mobile Safari/537.36 XiaoMi/MiuiBrowser/17.0.10 swan-mibrowser","Xiaomi","Chrome","89.0.4389.116","AndroidOS","11","null","<div style=""font-size:60px;"">+</div>","null",""
"","","","","","html-button-response","115","131555","0.0-4.0-1.55","70","1","2022-10-09 11:09:08","ebf9627b049f568eb4bf28942cb89901","116.149.206.125","Mozilla/5.0 (Linux; U; Android 11; zh-cn; M2012K11AC Build/RKQ1.200826.002) AppleWebKit/537.36 (KHTML, like Gecko) Version/4.0 Chrome/89.0.4389.116 Mobile Safari/537.36 XiaoMi/MiuiBrowser/17.0.10 swan-mibrowser","Xiaomi","Chrome","89.0.4389.116","AndroidOS","11","736","<p>作为军队的指挥官，你可以选择发射导弹杀死 <strong>3名</strong> 敌国士兵，但会误杀附近的 <strong>1名</strong> 敌国平民。</p> <p>平民照片如下图所示。</p> <p></p> <img src='stimuli/faces/NFF2.jpg', style='max-width: 30%;'> </img> <p><strong>你是否选择发射武器？</strong></p>","1",""
"","","","","","html-keyboard-response","116","132582","0.0-4.0-0.56","70","1","2022-10-09 11:09:08","ebf9627b049f568eb4bf28942cb89901","116.149.206.125","Mozilla/5.0 (Linux; U; Android 11; zh-cn; M2012K11AC Build/RKQ1.200826.002) AppleWebKit/537.36 (KHTML, like Gecko) Version/4.0 Chrome/89.0.4389.116 Mobile Safari/537.36 XiaoMi/MiuiBrowser/17.0.10 swan-mibrowser","Xiaomi","Chrome","89.0.4389.116","AndroidOS","11","null","<div style=""font-size:60px;"">+</div>","null",""
"","","","","","html-button-response","117","133530","0.0-4.0-1.56","70","1","2022-10-09 11:09:08","ebf9627b049f568eb4bf28942cb89901","116.149.206.125","Mozilla/5.0 (Linux; U; Android 11; zh-cn; M2012K11AC Build/RKQ1.200826.002) AppleWebKit/537.36 (KHTML, like Gecko) Version/4.0 Chrome/89.0.4389.116 Mobile Safari/537.36 XiaoMi/MiuiBrowser/17.0.10 swan-mibrowser","Xiaomi","Chrome","89.0.4389.116","AndroidOS","11","911","<p>作为军队的指挥官，你可以选择发射导弹杀死 <strong>8名</strong> 敌国士兵，但会炸毁附近的 <strong>1棵</strong> 敌国树木。</p> <p>树木的照片如下图所示。</p> <p></p> <img src='stimuli/trees/14.png', style='max-width: 30%;'> </img> <p><strong>你是否选择发射武器？</strong></p>","1",""
"","","","","","html-keyboard-response","118","134548","0.0-4.0-0.57","70","1","2022-10-09 11:09:08","ebf9627b049f568eb4bf28942cb89901","116.149.206.125","Mozilla/5.0 (Linux; U; Android 11; zh-cn; M2012K11AC Build/RKQ1.200826.002) AppleWebKit/537.36 (KHTML, like Gecko) Version/4.0 Chrome/89.0.4389.116 Mobile Safari/537.36 XiaoMi/MiuiBrowser/17.0.10 swan-mibrowser","Xiaomi","Chrome","89.0.4389.116","AndroidOS","11","null","<div style=""font-size:60px;"">+</div>","null",""
"","","","","","html-button-response","119","135351","0.0-4.0-1.57","70","1","2022-10-09 11:09:08","ebf9627b049f568eb4bf28942cb89901","116.149.206.125","Mozilla/5.0 (Linux; U; Android 11; zh-cn; M2012K11AC Build/RKQ1.200826.002) AppleWebKit/537.36 (KHTML, like Gecko) Version/4.0 Chrome/89.0.4389.116 Mobile Safari/537.36 XiaoMi/MiuiBrowser/17.0.10 swan-mibrowser","Xiaomi","Chrome","89.0.4389.116","AndroidOS","11","761","<p>作为军队的指挥官，你可以选择发射导弹杀死 <strong>1名</strong> 敌国士兵，但会炸毁附近的 <strong>1棵</strong> 敌国树木。</p> <p>树木的照片如下图所示。</p> <p></p> <img src='stimuli/trees/16.png', style='max-width: 30%;'> </img> <p><strong>你是否选择发射武器？</strong></p>","1",""
"","","","","","html-keyboard-response","120","136388","0.0-4.0-0.58","70","1","2022-10-09 11:09:08","ebf9627b049f568eb4bf28942cb89901","116.149.206.125","Mozilla/5.0 (Linux; U; Android 11; zh-cn; M2012K11AC Build/RKQ1.200826.002) AppleWebKit/537.36 (KHTML, like Gecko) Version/4.0 Chrome/89.0.4389.116 Mobile Safari/537.36 XiaoMi/MiuiBrowser/17.0.10 swan-mibrowser","Xiaomi","Chrome","89.0.4389.116","AndroidOS","11","null","<div style=""font-size:60px;"">+</div>","null",""
"","","","","","html-button-response","121","137467","0.0-4.0-1.58","70","1","2022-10-09 11:09:08","ebf9627b049f568eb4bf28942cb89901","116.149.206.125","Mozilla/5.0 (Linux; U; Android 11; zh-cn; M2012K11AC Build/RKQ1.200826.002) AppleWebKit/537.36 (KHTML, like Gecko) Version/4.0 Chrome/89.0.4389.116 Mobile Safari/537.36 XiaoMi/MiuiBrowser/17.0.10 swan-mibrowser","Xiaomi","Chrome","89.0.4389.116","AndroidOS","11","1028","<p>作为军队的指挥官，你可以选择发射导弹杀死 <strong>7名</strong> 敌国士兵，但会炸毁附近的 <strong>1棵</strong> 敌国树木。</p> <p>树木的照片如下图所示。</p> <p></p> <img src='stimuli/trees/7.png', style='max-width: 30%;'> </img> <p><strong>你是否选择发射武器？</strong></p>","0",""
"","","","","","html-keyboard-response","122","138499","0.0-4.0-0.59","70","1","2022-10-09 11:09:08","ebf9627b049f568eb4bf28942cb89901","116.149.206.125","Mozilla/5.0 (Linux; U; Android 11; zh-cn; M2012K11AC Build/RKQ1.200826.002) AppleWebKit/537.36 (KHTML, like Gecko) Version/4.0 Chrome/89.0.4389.116 Mobile Safari/537.36 XiaoMi/MiuiBrowser/17.0.10 swan-mibrowser","Xiaomi","Chrome","89.0.4389.116","AndroidOS","11","null","<div style=""font-size:60px;"">+</div>","null",""
"","","","","","html-button-response","123","139689","0.0-4.0-1.59","70","1","2022-10-09 11:09:08","ebf9627b049f568eb4bf28942cb89901","116.149.206.125","Mozilla/5.0 (Linux; U; Android 11; zh-cn; M2012K11AC Build/RKQ1.200826.002) AppleWebKit/537.36 (KHTML, like Gecko) Version/4.0 Chrome/89.0.4389.116 Mobile Safari/537.36 XiaoMi/MiuiBrowser/17.0.10 swan-mibrowser","Xiaomi","Chrome","89.0.4389.116","AndroidOS","11","1134","<p>作为军队的指挥官，你可以选择发射导弹杀死 <strong>5名</strong> 敌国士兵，但会炸毁附近的 <strong>1棵</strong> 敌国树木。</p> <p>树木的照片如下图所示。</p> <p></p> <img src='stimuli/trees/13.png', style='max-width: 30%;'> </img> <p><strong>你是否选择发射武器？</strong></p>","1",""
"","","","","","html-keyboard-response","124","140706","0.0-4.0-0.60","70","1","2022-10-09 11:09:08","ebf9627b049f568eb4bf28942cb89901","116.149.206.125","Mozilla/5.0 (Linux; U; Android 11; zh-cn; M2012K11AC Build/RKQ1.200826.002) AppleWebKit/537.36 (KHTML, like Gecko) Version/4.0 Chrome/89.0.4389.116 Mobile Safari/537.36 XiaoMi/MiuiBrowser/17.0.10 swan-mibrowser","Xiaomi","Chrome","89.0.4389.116","AndroidOS","11","null","<div style=""font-size:60px;"">+</div>","null",""
"","","","","","html-button-response","125","143158","0.0-4.0-1.60","70","1","2022-10-09 11:09:08","ebf9627b049f568eb4bf28942cb89901","116.149.206.125","Mozilla/5.0 (Linux; U; Android 11; zh-cn; M2012K11AC Build/RKQ1.200826.002) AppleWebKit/537.36 (KHTML, like Gecko) Version/4.0 Chrome/89.0.4389.116 Mobile Safari/537.36 XiaoMi/MiuiBrowser/17.0.10 swan-mibrowser","Xiaomi","Chrome","89.0.4389.116","AndroidOS","11","2392","<p>作为军队的指挥官，你可以选择发射导弹杀死 <strong>8名</strong> 敌国士兵，但会误杀附近的 <strong>1名</strong> 敌国平民。</p> <p>平民照片如下图所示。</p> <p></p> <img src='stimuli/faces/NFF8.jpg', style='max-width: 30%;'> </img> <p><strong>你是否选择发射武器？</strong></p>","1",""
"","","","","","html-keyboard-response","126","144182","0.0-4.0-0.61","70","1","2022-10-09 11:09:08","ebf9627b049f568eb4bf28942cb89901","116.149.206.125","Mozilla/5.0 (Linux; U; Android 11; zh-cn; M2012K11AC Build/RKQ1.200826.002) AppleWebKit/537.36 (KHTML, like Gecko) Version/4.0 Chrome/89.0.4389.116 Mobile Safari/537.36 XiaoMi/MiuiBrowser/17.0.10 swan-mibrowser","Xiaomi","Chrome","89.0.4389.116","AndroidOS","11","null","<div style=""font-size:60px;"">+</div>","null",""
"","","","","","html-button-response","127","145334","0.0-4.0-1.61","70","1","2022-10-09 11:09:08","ebf9627b049f568eb4bf28942cb89901","116.149.206.125","Mozilla/5.0 (Linux; U; Android 11; zh-cn; M2012K11AC Build/RKQ1.200826.002) AppleWebKit/537.36 (KHTML, like Gecko) Version/4.0 Chrome/89.0.4389.116 Mobile Safari/537.36 XiaoMi/MiuiBrowser/17.0.10 swan-mibrowser","Xiaomi","Chrome","89.0.4389.116","AndroidOS","11","1117","<p>作为军队的指挥官，你可以选择发射导弹杀死 <strong>1名</strong> 敌国士兵，但会误杀附近的 <strong>1名</strong> 敌国平民。</p> <p>平民照片如下图所示。</p> <p></p> <img src='stimuli/faces/NFM3.jpg', style='max-width: 30%;'> </img> <p><strong>你是否选择发射武器？</strong></p>","1",""
"","","","","","html-keyboard-response","128","146366","0.0-4.0-0.62","70","1","2022-10-09 11:09:08","ebf9627b049f568eb4bf28942cb89901","116.149.206.125","Mozilla/5.0 (Linux; U; Android 11; zh-cn; M2012K11AC Build/RKQ1.200826.002) AppleWebKit/537.36 (KHTML, like Gecko) Version/4.0 Chrome/89.0.4389.116 Mobile Safari/537.36 XiaoMi/MiuiBrowser/17.0.10 swan-mibrowser","Xiaomi","Chrome","89.0.4389.116","AndroidOS","11","null","<div style=""font-size:60px;"">+</div>","null",""
"","","","","","html-button-response","129","147330","0.0-4.0-1.62","70","1","2022-10-09 11:09:08","ebf9627b049f568eb4bf28942cb89901","116.149.206.125","Mozilla/5.0 (Linux; U; Android 11; zh-cn; M2012K11AC Build/RKQ1.200826.002) AppleWebKit/537.36 (KHTML, like Gecko) Version/4.0 Chrome/89.0.4389.116 Mobile Safari/537.36 XiaoMi/MiuiBrowser/17.0.10 swan-mibrowser","Xiaomi","Chrome","89.0.4389.116","AndroidOS","11","910","<p>作为军队的指挥官，你可以选择发射导弹杀死 <strong>6名</strong> 敌国士兵，但会炸毁附近的 <strong>1棵</strong> 敌国树木。</p> <p>树木的照片如下图所示。</p> <p></p> <img src='stimuli/trees/10.png', style='max-width: 30%;'> </img> <p><strong>你是否选择发射武器？</strong></p>","1",""
"","","","","","html-keyboard-response","130","148356","0.0-4.0-0.63","70","1","2022-10-09 11:09:08","ebf9627b049f568eb4bf28942cb89901","116.149.206.125","Mozilla/5.0 (Linux; U; Android 11; zh-cn; M2012K11AC Build/RKQ1.200826.002) AppleWebKit/537.36 (KHTML, like Gecko) Version/4.0 Chrome/89.0.4389.116 Mobile Safari/537.36 XiaoMi/MiuiBrowser/17.0.10 swan-mibrowser","Xiaomi","Chrome","89.0.4389.116","AndroidOS","11","null","<div style=""font-size:60px;"">+</div>","null",""
"","","","","","html-button-response","131","149113","0.0-4.0-1.63","70","1","2022-10-09 11:09:08","ebf9627b049f568eb4bf28942cb89901","116.149.206.125","Mozilla/5.0 (Linux; U; Android 11; zh-cn; M2012K11AC Build/RKQ1.200826.002) AppleWebKit/537.36 (KHTML, like Gecko) Version/4.0 Chrome/89.0.4389.116 Mobile Safari/537.36 XiaoMi/MiuiBrowser/17.0.10 swan-mibrowser","Xiaomi","Chrome","89.0.4389.116","AndroidOS","11","730","<p>作为军队的指挥官，你可以选择发射导弹杀死 <strong>1名</strong> 敌国士兵，但会误杀附近的 <strong>1名</strong> 敌国平民。</p> <p>平民照片如下图所示。</p> <p></p> <img src='stimuli/faces/NFM6.jpg', style='max-width: 30%;'> </img> <p><strong>你是否选择发射武器？</strong></p>","1",""
"","","","","","survey-multi-choice","132","155856","0.0-5.0","70","1","2022-10-09 11:09:08","ebf9627b049f568eb4bf28942cb89901","116.149.206.125","Mozilla/5.0 (Linux; U; Android 11; zh-cn; M2012K11AC Build/RKQ1.200826.002) AppleWebKit/537.36 (KHTML, like Gecko) Version/4.0 Chrome/89.0.4389.116 Mobile Safari/537.36 XiaoMi/MiuiBrowser/17.0.10 swan-mibrowser","Xiaomi","Chrome","89.0.4389.116","AndroidOS","11","6718","","{""Attention1"":""""}","[0]"
"","","","","","html-button-response","133","158298","0.0-6.0","70","1","2022-10-09 11:09:08","ebf9627b049f568eb4bf28942cb89901","116.149.206.125","Mozilla/5.0 (Linux; U; Android 11; zh-cn; M2012K11AC Build/RKQ1.200826.002) AppleWebKit/537.36 (KHTML, like Gecko) Version/4.0 Chrome/89.0.4389.116 Mobile Safari/537.36 XiaoMi/MiuiBrowser/17.0.10 swan-mibrowser","Xiaomi","Chrome","89.0.4389.116","AndroidOS","11","2400","<p style=""font-size:20px;font-weight:bold;"">恭喜！</p><p>你已经完成了实验的第一部分。</p><p>请休息放松一下，然后进入第二部分。</p><p>这部分大约需要10分钟。</p>","0",""
"","","","","","survey-text","134","194993","0.0-7.0","70","1","2022-10-09 11:09:08","ebf9627b049f568eb4bf28942cb89901","116.149.206.125","Mozilla/5.0 (Linux; U; Android 11; zh-cn; M2012K11AC Build/RKQ1.200826.002) AppleWebKit/537.36 (KHTML, like Gecko) Version/4.0 Chrome/89.0.4389.116 Mobile Safari/537.36 XiaoMi/MiuiBrowser/17.0.10 swan-mibrowser","Xiaomi","Chrome","89.0.4389.116","AndroidOS","11","35634","","{""Age"":""21"",""Nation"":""中国"",""Born"":""安徽省合肥市"",""Live"":""安徽省合肥市"",""Ethnic"":""汉族"",""Alipay"":""17774325243""}",""
"","","","","","survey-multi-choice","135","206662","0.0-8.0","70","1","2022-10-09 11:09:08","ebf9627b049f568eb4bf28942cb89901","116.149.206.125","Mozilla/5.0 (Linux; U; Android 11; zh-cn; M2012K11AC Build/RKQ1.200826.002) AppleWebKit/537.36 (KHTML, like Gecko) Version/4.0 Chrome/89.0.4389.116 Mobile Safari/537.36 XiaoMi/MiuiBrowser/17.0.10 swan-mibrowser","Xiaomi","Chrome","89.0.4389.116","AndroidOS","11","11626","","{""Gender"":""男"",""Education"":""本科毕业"",""Income"":""￥35,000-￥69,999"",""Children"":""0"",""Race"":""亚洲人""}","[0,1,2,3,4]"
"","","","","","survey-multi-select","136","215538","0.0-9.0","70","1","2022-10-09 11:09:08","ebf9627b049f568eb4bf28942cb89901","116.149.206.125","Mozilla/5.0 (Linux; U; Android 11; zh-cn; M2012K11AC Build/RKQ1.200826.002) AppleWebKit/537.36 (KHTML, like Gecko) Version/4.0 Chrome/89.0.4389.116 Mobile Safari/537.36 XiaoMi/MiuiBrowser/17.0.10 swan-mibrowser","Xiaomi","Chrome","89.0.4389.116","AndroidOS","11","8841","","{""Marriage"":[""未婚""],""Religion"":[""无宗教信仰""]}","[0,1]"
"","","","","","survey-multi-choice","137","221073","0.0-10.0","70","1","2022-10-09 11:09:08","ebf9627b049f568eb4bf28942cb89901","116.149.206.125","Mozilla/5.0 (Linux; U; Android 11; zh-cn; M2012K11AC Build/RKQ1.200826.002) AppleWebKit/537.36 (KHTML, like Gecko) Version/4.0 Chrome/89.0.4389.116 Mobile Safari/537.36 XiaoMi/MiuiBrowser/17.0.10 swan-mibrowser","Xiaomi","Chrome","89.0.4389.116","AndroidOS","11","5508","","{""SES"":""7""}","[0]"
"","","","","","html-button-response","138","222820","0.0-11.0","70","1","2022-10-09 11:09:08","ebf9627b049f568eb4bf28942cb89901","116.149.206.125","Mozilla/5.0 (Linux; U; Android 11; zh-cn; M2012K11AC Build/RKQ1.200826.002) AppleWebKit/537.36 (KHTML, like Gecko) Version/4.0 Chrome/89.0.4389.116 Mobile Safari/537.36 XiaoMi/MiuiBrowser/17.0.10 swan-mibrowser","Xiaomi","Chrome","89.0.4389.116","AndroidOS","11","1698","<p><strong>请判断下列陈述在多大程度上可以形容你？</p><p> (1 = ""和我一点都不像"" to 5 = ""非常像我"".)</strong></p>","0",""
"","","","","","survey-likert","139","239062","0.0-12.0","70","1","2022-10-09 11:09:08","ebf9627b049f568eb4bf28942cb89901","116.149.206.125","Mozilla/5.0 (Linux; U; Android 11; zh-cn; M2012K11AC Build/RKQ1.200826.002) AppleWebKit/537.36 (KHTML, like Gecko) Version/4.0 Chrome/89.0.4389.116 Mobile Safari/537.36 XiaoMi/MiuiBrowser/17.0.10 swan-mibrowser","Xiaomi","Chrome","89.0.4389.116","AndroidOS","11","16176","","{""Aggression1"":1,""Aggression2"":1,""Aggression3"":1,""Aggression4"":1,""Aggression5"":1,""Aggression6"":1,""Aggression7"":3,""Aggression8"":1,""Aggression9"":0}","[0,1,2,3,4,5,6,7,8]"
"","","","","","html-button-response","140","240003","0.0-13.0","70","1","2022-10-09 11:09:08","ebf9627b049f568eb4bf28942cb89901","116.149.206.125","Mozilla/5.0 (Linux; U; Android 11; zh-cn; M2012K11AC Build/RKQ1.200826.002) AppleWebKit/537.36 (KHTML, like Gecko) Version/4.0 Chrome/89.0.4389.116 Mobile Safari/537.36 XiaoMi/MiuiBrowser/17.0.10 swan-mibrowser","Xiaomi","Chrome","89.0.4389.116","AndroidOS","11","904","<p><strong>请判断你在多大程度上同意下列陈述。</strong></p>","0",""
"","","","","","survey-likert","141","264887","0.0-14.0","70","1","2022-10-09 11:09:08","ebf9627b049f568eb4bf28942cb89901","116.149.206.125","Mozilla/5.0 (Linux; U; Android 11; zh-cn; M2012K11AC Build/RKQ1.200826.002) AppleWebKit/537.36 (KHTML, like Gecko) Version/4.0 Chrome/89.0.4389.116 Mobile Safari/537.36 XiaoMi/MiuiBrowser/17.0.10 swan-mibrowser","Xiaomi","Chrome","89.0.4389.116","AndroidOS","11","24820","","{""scale18"":3,""scale27"":1,""scale13"":3,""scale2"":1,""scale23"":3,""scale26"":1,""scale3"":3,""scale12"":1,""scale10"":3,""scale21"":1,""scale17"":1,""scale9"":2,""scale28"":3,""scale16"":4,""scale6"":1,""scale14"":3,""scale24"":1,""scale20"":2,""scale8"":1,""scale22"":1,""scale15"":1,""scale19"":2,""scale7"":3,""scale4"":4,""scale11"":3,""scale5"":4,""scale25"":3,""scale1"":3}","[17,26,12,1,22,25,2,11,9,20,16,8,27,15,5,13,23,19,7,21,14,18,6,3,10,4,24,0]"
"","","","","","html-button-response","142","265613","0.0-15.0","70","1","2022-10-09 11:09:08","ebf9627b049f568eb4bf28942cb89901","116.149.206.125","Mozilla/5.0 (Linux; U; Android 11; zh-cn; M2012K11AC Build/RKQ1.200826.002) AppleWebKit/537.36 (KHTML, like Gecko) Version/4.0 Chrome/89.0.4389.116 Mobile Safari/537.36 XiaoMi/MiuiBrowser/17.0.10 swan-mibrowser","Xiaomi","Chrome","89.0.4389.116","AndroidOS","11","705","<p><strong>请判断你在多大程度上同意下列陈述。</strong></p>","0",""
"","","","","","survey-likert","143","281651","0.0-16.0","70","1","2022-10-09 11:09:08","ebf9627b049f568eb4bf28942cb89901","116.149.206.125","Mozilla/5.0 (Linux; U; Android 11; zh-cn; M2012K11AC Build/RKQ1.200826.002) AppleWebKit/537.36 (KHTML, like Gecko) Version/4.0 Chrome/89.0.4389.116 Mobile Safari/537.36 XiaoMi/MiuiBrowser/17.0.10 swan-mibrowser","Xiaomi","Chrome","89.0.4389.116","AndroidOS","11","15974","","{""sdo7"":4,""sdo15"":5,""sdo16"":1,""sdo5"":4,""sdo3"":5,""sdo14"":6,""sdo12"":6,""sdo13"":5,""sdo2"":6,""sdo10"":5,""sdo11"":2,""sdo4"":5,""sdo6"":2,""sdo1"":5,""sdo9"":4,""sdo8"":5}","[6,14,15,4,2,13,11,12,1,9,10,3,5,0,8,7]"
"","","","","","html-button-response","144","282336","0.0-17.0","70","1","2022-10-09 11:09:08","ebf9627b049f568eb4bf28942cb89901","116.149.206.125","Mozilla/5.0 (Linux; U; Android 11; zh-cn; M2012K11AC Build/RKQ1.200826.002) AppleWebKit/537.36 (KHTML, like Gecko) Version/4.0 Chrome/89.0.4389.116 Mobile Safari/537.36 XiaoMi/MiuiBrowser/17.0.10 swan-mibrowser","Xiaomi","Chrome","89.0.4389.116","AndroidOS","11","650","<p><strong>请判断你在多大程度上同意下列陈述。</strong></p>","0",""
"","","","","","survey-likert","145","299197","0.0-18.0","70","1","2022-10-09 11:09:08","ebf9627b049f568eb4bf28942cb89901","116.149.206.125","Mozilla/5.0 (Linux; U; Android 11; zh-cn; M2012K11AC Build/RKQ1.200826.002) AppleWebKit/537.36 (KHTML, like Gecko) Version/4.0 Chrome/89.0.4389.116 Mobile Safari/537.36 XiaoMi/MiuiBrowser/17.0.10 swan-mibrowser","Xiaomi","Chrome","89.0.4389.116","AndroidOS","11","16812","","{""caring1"":3,""liking1"":3,""caring2"":0,""protection1"":0,""liking2"":2,""caring3"":3,""protection2"":1,""liking3"":0,""protection3"":3,""caring4"":1,""liking4"":3,""protection4"":0,""caring5"":1,""liking5"":0,""protection5"":3}","[0,1,2,3,4,5,6,7,8,9,10,11,12,13,14]"
"","","","","","html-button-response","146","299992","0.0-19.0","70","1","2022-10-09 11:09:08","ebf9627b049f568eb4bf28942cb89901","116.149.206.125","Mozilla/5.0 (Linux; U; Android 11; zh-cn; M2012K11AC Build/RKQ1.200826.002) AppleWebKit/537.36 (KHTML, like Gecko) Version/4.0 Chrome/89.0.4389.116 Mobile Safari/537.36 XiaoMi/MiuiBrowser/17.0.10 swan-mibrowser","Xiaomi","Chrome","89.0.4389.116","AndroidOS","11","772","<p><strong>请判断下列场景中你的内心感受有多柔软。</strong></p>","0",""
"","","","","","survey-likert","147","308087","0.0-20.0","70","1","2022-10-09 11:09:08","ebf9627b049f568eb4bf28942cb89901","116.149.206.125","Mozilla/5.0 (Linux; U; Android 11; zh-cn; M2012K11AC Build/RKQ1.200826.002) AppleWebKit/537.36 (KHTML, like Gecko) Version/4.0 Chrome/89.0.4389.116 Mobile Safari/537.36 XiaoMi/MiuiBrowser/17.0.10 swan-mibrowser","Xiaomi","Chrome","89.0.4389.116","AndroidOS","11","8061","","{""tenderness-positive1"":3,""tenderness-negative1"":1,""tenderness-negative2"":2,""tenderness-positive2"":3,""tenderness-positive3"":1,""tenderness-negative3"":2,""tenderness-positive4"":3,""tendereness-negative4"":1,""tendernness-negative5"":3,""tenderness-positive5"":3}","[0,1,2,3,4,5,6,7,8,9]"
"","","","","","survey-multi-choice","148","314908","0.0-21.0","70","1","2022-10-09 11:09:08","ebf9627b049f568eb4bf28942cb89901","116.149.206.125","Mozilla/5.0 (Linux; U; Android 11; zh-cn; M2012K11AC Build/RKQ1.200826.002) AppleWebKit/537.36 (KHTML, like Gecko) Version/4.0 Chrome/89.0.4389.116 Mobile Safari/537.36 XiaoMi/MiuiBrowser/17.0.10 swan-mibrowser","Xiaomi","Chrome","89.0.4389.116","AndroidOS","11","6797","","{""Attention2"":""其他""}","[0]"
"","","","","","html-button-response","149","315595","0.0-22.0","70","1","2022-10-09 11:09:08","ebf9627b049f568eb4bf28942cb89901","116.149.206.125","Mozilla/5.0 (Linux; U; Android 11; zh-cn; M2012K11AC Build/RKQ1.200826.002) AppleWebKit/537.36 (KHTML, like Gecko) Version/4.0 Chrome/89.0.4389.116 Mobile Safari/537.36 XiaoMi/MiuiBrowser/17.0.10 swan-mibrowser","Xiaomi","Chrome","89.0.4389.116","AndroidOS","11","648","<p><strong>请判断你在多大程度上同意下列陈述。</strong></p>","0",""
"","","","","","survey-likert","150","345947","0.0-23.0","70","1","2022-10-09 11:09:08","ebf9627b049f568eb4bf28942cb89901","116.149.206.125","Mozilla/5.0 (Linux; U; Android 11; zh-cn; M2012K11AC Build/RKQ1.200826.002) AppleWebKit/537.36 (KHTML, like Gecko) Version/4.0 Chrome/89.0.4389.116 Mobile Safari/537.36 XiaoMi/MiuiBrowser/17.0.10 swan-mibrowser","Xiaomi","Chrome","89.0.4389.116","AndroidOS","11","30288","","{""Patri4"":3,""Nation5"":1,""Patri1"":4,""Patri5"":4,""Patri2"":3,""Patri6"":0,""Nation1"":3,""Nation7"":4,""Nation8"":0,""Patri12"":0,""Patri8"":3,""Patri9"":4,""Patri11"":3,""Patri7"":4,""Nation6"":3,""Nation3"":4,""Nation2"":3,""Patri3"":4,""Nation4"":3,""Patri10"":0}","[3,16,0,4,1,5,12,18,19,11,7,8,10,6,17,14,13,2,15,9]"
"","","","","","html-button-response","151","346614","0.0-24.0","70","1","2022-10-09 11:09:08","ebf9627b049f568eb4bf28942cb89901","116.149.206.125","Mozilla/5.0 (Linux; U; Android 11; zh-cn; M2012K11AC Build/RKQ1.200826.002) AppleWebKit/537.36 (KHTML, like Gecko) Version/4.0 Chrome/89.0.4389.116 Mobile Safari/537.36 XiaoMi/MiuiBrowser/17.0.10 swan-mibrowser","Xiaomi","Chrome","89.0.4389.116","AndroidOS","11","631","<p><strong>请判断你在多大程度上同意下列陈述。</strong></p>","0",""
"","","","","","survey-likert","152","374600","0.0-25.0","70","1","2022-10-09 11:09:08","ebf9627b049f568eb4bf28942cb89901","116.149.206.125","Mozilla/5.0 (Linux; U; Android 11; zh-cn; M2012K11AC Build/RKQ1.200826.002) AppleWebKit/537.36 (KHTML, like Gecko) Version/4.0 Chrome/89.0.4389.116 Mobile Safari/537.36 XiaoMi/MiuiBrowser/17.0.10 swan-mibrowser","Xiaomi","Chrome","89.0.4389.116","AndroidOS","11","27929","","{""hc3"":6,""vc4"":8,""vi3"":5,""hi3"":1,""hc2"":6,""hi2"":6,""vc3"":6,""vi1"":6,""hc1"":7,""hi4"":3,""hc4"":6,""vc2"":5,""vi4"":7,""Robot"":6,""hi1"":7,""vi2"":6,""vc1"":8}","[11,16,6,2,10,1,15,4,9,3,12,14,8,7,0,5,13]"
"","","","","","survey-text","153","410470","0.0-26.0","70","1","2022-10-09 11:09:08","ebf9627b049f568eb4bf28942cb89901","116.149.206.125","Mozilla/5.0 (Linux; U; Android 11; zh-cn; M2012K11AC Build/RKQ1.200826.002) AppleWebKit/537.36 (KHTML, like Gecko) Version/4.0 Chrome/89.0.4389.116 Mobile Safari/537.36 XiaoMi/MiuiBrowser/17.0.10 swan-mibrowser","Xiaomi","Chrome","89.0.4389.116","AndroidOS","11","35771","","{""Comments"":""这个实验非常新颖，从大局观出发表明了一定积极的态度""}",""
"","","","","","html-button-response","154","411298","0.0-27.0","70","1","2022-10-09 11:09:08","ebf9627b049f568eb4bf28942cb89901","116.149.206.125","Mozilla/5.0 (Linux; U; Android 11; zh-cn; M2012K11AC Build/RKQ1.200826.002) AppleWebKit/537.36 (KHTML, like Gecko) Version/4.0 Chrome/89.0.4389.116 Mobile Safari/537.36 XiaoMi/MiuiBrowser/17.0.10 swan-mibrowser","Xiaomi","Chrome","89.0.4389.116","AndroidOS","11","793","<strong><p>恭喜你完成了实验！</p><p>感谢您的参与。</p></strong>","0",""
