"success","timeout","failed_images","failed_audio","failed_video","trial_type","trial_index","time_elapsed","internal_node_id","run_id","condition","recorded_at","source_code_version","ip","user_agent","device","browser","browser_version","platform","platform_version","rt","stimulus","response","question_order"
"true","false","[]","[]","[]","preload","0","1732","0.0-0.0","79","1","2022-10-09 11:22:51","ebf9627b049f568eb4bf28942cb89901","39.144.57.246","Mozilla/5.0 (Windows NT 10.0; WOW64) AppleWebKit/537.36 (KHTML, like Gecko) Chrome/92.0.4515.131 Safari/537.36 SLBrowser/8.0.0.9071 SLBChan/103","WebKit","Chrome","92.0.4515.131","Windows","10.0","","","",""
"true","","","","","fullscreen","1","16991","0.0-1.0","79","1","2022-10-09 11:22:51","ebf9627b049f568eb4bf28942cb89901","39.144.57.246","Mozilla/5.0 (Windows NT 10.0; WOW64) AppleWebKit/537.36 (KHTML, like Gecko) Chrome/92.0.4515.131 Safari/537.36 SLBrowser/8.0.0.9071 SLBChan/103","WebKit","Chrome","92.0.4515.131","Windows","10.0","","","",""
"","","","","","html-button-response","2","32176","0.0-2.0","79","1","2022-10-09 11:22:51","ebf9627b049f568eb4bf28942cb89901","39.144.57.246","Mozilla/5.0 (Windows NT 10.0; WOW64) AppleWebKit/537.36 (KHTML, like Gecko) Chrome/92.0.4515.131 Safari/537.36 SLBrowser/8.0.0.9071 SLBChan/103","WebKit","Chrome","92.0.4515.131","Windows","10.0","15183","<p style=""font-size:20px;font-weight:bold;"">实验知情同意书</p><p style=""text-align:left;""><strong>实验名称：</strong>社会冲突研究</p><p style=""text-align:left;""><strong>主要研究者：</strong>韩晓春副教授（北京师范大学心理学部）</p><p style=""text-align:left;""><strong>联系方式：</strong>发送邮件至xiaochun.han@bnu.edu.cn</p><p style=""text-align:left;""><strong>研究目的：</strong>研究旨在了解人类面对群体冲突时的决策方式，以及相关的心理学特质。实验调查大约需要20分钟。</p><p style=""text-align:left;""><strong>实验流程：</strong>实验包含两部分。第一部分呈现一系列群体冲突场景，请你决定如何对这些冲突进行反应，大约需要10分钟完成。第二部分包含一系列人口统计学信息收集和心理学问卷，大约需要10分钟完成。</p><p style=""text-align:left;""><strong>参加及退出规则：</strong>参加本实验完全取决于您的个人意愿。在参与过程中，您可以随时退出，并且不用承担任何后果。</p><p style=""text-align:left;""><strong>隐私：</strong>本实验完全匿名进行，不会收集您的姓名或其他能够识别您身份的信息。实验中收集的作答仅用作科学研究使用，可能会在学术期刊/书籍上发表，或者用于教学，您的数据未来可能会和其他研究者或实验室分享，但您的个人身份不会被识别。</p><p style=""text-align:left;""><strong>实验报酬：</strong>实验完成后，您将获得15元人民币报酬，以感谢您的时间和努力。调查问卷中包含几道题目用以测验您作答时的认真度。只有完成全部实验，并且正确回答认真度测验的被试才能获得实验报酬。实验报酬将通过支付宝转账发放。</p><p style=""text-align:left;font-size:20px;""><strong>如果您同意以上实验知情同意书的内容，请点击'同意并且开始实验'按钮；否则请关闭浏览器界面，退出实验。</strong></p>","0",""
"","","","","","html-button-response","3","41830","0.0-3.0","79","1","2022-10-09 11:22:51","ebf9627b049f568eb4bf28942cb89901","39.144.57.246","Mozilla/5.0 (Windows NT 10.0; WOW64) AppleWebKit/537.36 (KHTML, like Gecko) Chrome/92.0.4515.131 Safari/537.36 SLBrowser/8.0.0.9071 SLBChan/103","WebKit","Chrome","92.0.4515.131","Windows","10.0","9651","<p ><strong>实验任务一：</strong></p><p>请想象你的国家与另一个国家发生了军事冲突。</p><p>你是国家军队的指挥官，你将如何在冲突中进行决策。</p><p>具体来说，作为军队指挥官，请你决定是否发射导弹进行打击。</p><p>接下来，你会面对一系列场景，请仔细阅读每个场景，然后进行决策。</p><p>这部分实验任务大约需要10分钟。</p><p><strong>实验过程中，请集中注意力。</strong></p>","0",""
"","","","","","html-keyboard-response","4","42832","0.0-4.0-0.0","79","1","2022-10-09 11:22:51","ebf9627b049f568eb4bf28942cb89901","39.144.57.246","Mozilla/5.0 (Windows NT 10.0; WOW64) AppleWebKit/537.36 (KHTML, like Gecko) Chrome/92.0.4515.131 Safari/537.36 SLBrowser/8.0.0.9071 SLBChan/103","WebKit","Chrome","92.0.4515.131","Windows","10.0","null","<div style=""font-size:60px;"">+</div>","null",""
"","","","","","html-button-response","5","45198","0.0-4.0-1.0","79","1","2022-10-09 11:22:51","ebf9627b049f568eb4bf28942cb89901","39.144.57.246","Mozilla/5.0 (Windows NT 10.0; WOW64) AppleWebKit/537.36 (KHTML, like Gecko) Chrome/92.0.4515.131 Safari/537.36 SLBrowser/8.0.0.9071 SLBChan/103","WebKit","Chrome","92.0.4515.131","Windows","10.0","2362","<p>作为军队的指挥官，你可以选择发射导弹杀死 <strong>10名</strong> 敌国士兵，但会误杀附近的 <strong>1名</strong> 敌国平民。</p> <p>平民照片如下图所示。</p> <p></p> <img src='stimuli/faces/NFM7.jpg', style='max-width: 30%;'> </img> <p><strong>你是否选择发射武器？</strong></p>","0",""
"","","","","","html-keyboard-response","6","46204","0.0-4.0-0.1","79","1","2022-10-09 11:22:51","ebf9627b049f568eb4bf28942cb89901","39.144.57.246","Mozilla/5.0 (Windows NT 10.0; WOW64) AppleWebKit/537.36 (KHTML, like Gecko) Chrome/92.0.4515.131 Safari/537.36 SLBrowser/8.0.0.9071 SLBChan/103","WebKit","Chrome","92.0.4515.131","Windows","10.0","null","<div style=""font-size:60px;"">+</div>","null",""
"","","","","","html-button-response","7","50295","0.0-4.0-1.1","79","1","2022-10-09 11:22:51","ebf9627b049f568eb4bf28942cb89901","39.144.57.246","Mozilla/5.0 (Windows NT 10.0; WOW64) AppleWebKit/537.36 (KHTML, like Gecko) Chrome/92.0.4515.131 Safari/537.36 SLBrowser/8.0.0.9071 SLBChan/103","WebKit","Chrome","92.0.4515.131","Windows","10.0","4089","<p>作为军队的指挥官，你可以选择发射导弹杀死 <strong>1名</strong> 敌国士兵，但会误杀附近的 <strong>1名</strong> 敌国平民。</p> <p>平民照片如下图所示。</p> <p></p> <img src='stimuli/faces/NFF3.jpg', style='max-width: 30%;'> </img> <p><strong>你是否选择发射武器？</strong></p>","1",""
"","","","","","html-keyboard-response","8","51310","0.0-4.0-0.2","79","1","2022-10-09 11:22:51","ebf9627b049f568eb4bf28942cb89901","39.144.57.246","Mozilla/5.0 (Windows NT 10.0; WOW64) AppleWebKit/537.36 (KHTML, like Gecko) Chrome/92.0.4515.131 Safari/537.36 SLBrowser/8.0.0.9071 SLBChan/103","WebKit","Chrome","92.0.4515.131","Windows","10.0","null","<div style=""font-size:60px;"">+</div>","null",""
"","","","","","html-button-response","9","54767","0.0-4.0-1.2","79","1","2022-10-09 11:22:51","ebf9627b049f568eb4bf28942cb89901","39.144.57.246","Mozilla/5.0 (Windows NT 10.0; WOW64) AppleWebKit/537.36 (KHTML, like Gecko) Chrome/92.0.4515.131 Safari/537.36 SLBrowser/8.0.0.9071 SLBChan/103","WebKit","Chrome","92.0.4515.131","Windows","10.0","3454","<p>作为军队的指挥官，你可以选择发射导弹杀死 <strong>3名</strong> 敌国士兵，但会炸毁附近的 <strong>1棵</strong> 敌国树木。</p> <p>树木的照片如下图所示。</p> <p></p> <img src='stimuli/trees/12.png', style='max-width: 30%;'> </img> <p><strong>你是否选择发射武器？</strong></p>","0",""
"","","","","","html-keyboard-response","10","55789","0.0-4.0-0.3","79","1","2022-10-09 11:22:51","ebf9627b049f568eb4bf28942cb89901","39.144.57.246","Mozilla/5.0 (Windows NT 10.0; WOW64) AppleWebKit/537.36 (KHTML, like Gecko) Chrome/92.0.4515.131 Safari/537.36 SLBrowser/8.0.0.9071 SLBChan/103","WebKit","Chrome","92.0.4515.131","Windows","10.0","null","<div style=""font-size:60px;"">+</div>","null",""
"","","","","","html-button-response","11","57834","0.0-4.0-1.3","79","1","2022-10-09 11:22:51","ebf9627b049f568eb4bf28942cb89901","39.144.57.246","Mozilla/5.0 (Windows NT 10.0; WOW64) AppleWebKit/537.36 (KHTML, like Gecko) Chrome/92.0.4515.131 Safari/537.36 SLBrowser/8.0.0.9071 SLBChan/103","WebKit","Chrome","92.0.4515.131","Windows","10.0","2042","<p>作为军队的指挥官，你可以选择发射导弹杀死 <strong>9名</strong> 敌国士兵，但会炸毁附近的 <strong>1棵</strong> 敌国树木。</p> <p>树木的照片如下图所示。</p> <p></p> <img src='stimuli/trees/6.png', style='max-width: 30%;'> </img> <p><strong>你是否选择发射武器？</strong></p>","0",""
"","","","","","html-keyboard-response","12","58839","0.0-4.0-0.4","79","1","2022-10-09 11:22:51","ebf9627b049f568eb4bf28942cb89901","39.144.57.246","Mozilla/5.0 (Windows NT 10.0; WOW64) AppleWebKit/537.36 (KHTML, like Gecko) Chrome/92.0.4515.131 Safari/537.36 SLBrowser/8.0.0.9071 SLBChan/103","WebKit","Chrome","92.0.4515.131","Windows","10.0","null","<div style=""font-size:60px;"">+</div>","null",""
"","","","","","html-button-response","13","60186","0.0-4.0-1.4","79","1","2022-10-09 11:22:51","ebf9627b049f568eb4bf28942cb89901","39.144.57.246","Mozilla/5.0 (Windows NT 10.0; WOW64) AppleWebKit/537.36 (KHTML, like Gecko) Chrome/92.0.4515.131 Safari/537.36 SLBrowser/8.0.0.9071 SLBChan/103","WebKit","Chrome","92.0.4515.131","Windows","10.0","1343","<p>作为军队的指挥官，你可以选择发射导弹杀死 <strong>3名</strong> 敌国士兵，但会误杀附近的 <strong>1名</strong> 敌国平民。</p> <p>平民照片如下图所示。</p> <p></p> <img src='stimuli/faces/NFF2.jpg', style='max-width: 30%;'> </img> <p><strong>你是否选择发射武器？</strong></p>","1",""
"","","","","","html-keyboard-response","14","61194","0.0-4.0-0.5","79","1","2022-10-09 11:22:51","ebf9627b049f568eb4bf28942cb89901","39.144.57.246","Mozilla/5.0 (Windows NT 10.0; WOW64) AppleWebKit/537.36 (KHTML, like Gecko) Chrome/92.0.4515.131 Safari/537.36 SLBrowser/8.0.0.9071 SLBChan/103","WebKit","Chrome","92.0.4515.131","Windows","10.0","null","<div style=""font-size:60px;"">+</div>","null",""
"","","","","","html-button-response","15","62486","0.0-4.0-1.5","79","1","2022-10-09 11:22:51","ebf9627b049f568eb4bf28942cb89901","39.144.57.246","Mozilla/5.0 (Windows NT 10.0; WOW64) AppleWebKit/537.36 (KHTML, like Gecko) Chrome/92.0.4515.131 Safari/537.36 SLBrowser/8.0.0.9071 SLBChan/103","WebKit","Chrome","92.0.4515.131","Windows","10.0","1287","<p>作为军队的指挥官，你可以选择发射导弹杀死 <strong>6名</strong> 敌国士兵，但会炸毁附近的 <strong>1棵</strong> 敌国树木。</p> <p>树木的照片如下图所示。</p> <p></p> <img src='stimuli/trees/5.png', style='max-width: 30%;'> </img> <p><strong>你是否选择发射武器？</strong></p>","0",""
"","","","","","html-keyboard-response","16","63496","0.0-4.0-0.6","79","1","2022-10-09 11:22:51","ebf9627b049f568eb4bf28942cb89901","39.144.57.246","Mozilla/5.0 (Windows NT 10.0; WOW64) AppleWebKit/537.36 (KHTML, like Gecko) Chrome/92.0.4515.131 Safari/537.36 SLBrowser/8.0.0.9071 SLBChan/103","WebKit","Chrome","92.0.4515.131","Windows","10.0","null","<div style=""font-size:60px;"">+</div>","null",""
"","","","","","html-button-response","17","64412","0.0-4.0-1.6","79","1","2022-10-09 11:22:51","ebf9627b049f568eb4bf28942cb89901","39.144.57.246","Mozilla/5.0 (Windows NT 10.0; WOW64) AppleWebKit/537.36 (KHTML, like Gecko) Chrome/92.0.4515.131 Safari/537.36 SLBrowser/8.0.0.9071 SLBChan/103","WebKit","Chrome","92.0.4515.131","Windows","10.0","914","<p>作为军队的指挥官，你可以选择发射导弹杀死 <strong>7名</strong> 敌国士兵，但会误杀附近的 <strong>1名</strong> 敌国平民。</p> <p>平民照片如下图所示。</p> <p></p> <img src='stimuli/faces/NFM3.jpg', style='max-width: 30%;'> </img> <p><strong>你是否选择发射武器？</strong></p>","1",""
"","","","","","html-keyboard-response","18","65415","0.0-4.0-0.7","79","1","2022-10-09 11:22:51","ebf9627b049f568eb4bf28942cb89901","39.144.57.246","Mozilla/5.0 (Windows NT 10.0; WOW64) AppleWebKit/537.36 (KHTML, like Gecko) Chrome/92.0.4515.131 Safari/537.36 SLBrowser/8.0.0.9071 SLBChan/103","WebKit","Chrome","92.0.4515.131","Windows","10.0","null","<div style=""font-size:60px;"">+</div>","null",""
"","","","","","html-button-response","19","66080","0.0-4.0-1.7","79","1","2022-10-09 11:22:51","ebf9627b049f568eb4bf28942cb89901","39.144.57.246","Mozilla/5.0 (Windows NT 10.0; WOW64) AppleWebKit/537.36 (KHTML, like Gecko) Chrome/92.0.4515.131 Safari/537.36 SLBrowser/8.0.0.9071 SLBChan/103","WebKit","Chrome","92.0.4515.131","Windows","10.0","663","<p>作为军队的指挥官，你可以选择发射导弹杀死 <strong>3名</strong> 敌国士兵，但会误杀附近的 <strong>1名</strong> 敌国平民。</p> <p>平民照片如下图所示。</p> <p></p> <img src='stimuli/faces/NFF5.jpg', style='max-width: 30%;'> </img> <p><strong>你是否选择发射武器？</strong></p>","1",""
"","","","","","html-keyboard-response","20","67086","0.0-4.0-0.8","79","1","2022-10-09 11:22:51","ebf9627b049f568eb4bf28942cb89901","39.144.57.246","Mozilla/5.0 (Windows NT 10.0; WOW64) AppleWebKit/537.36 (KHTML, like Gecko) Chrome/92.0.4515.131 Safari/537.36 SLBrowser/8.0.0.9071 SLBChan/103","WebKit","Chrome","92.0.4515.131","Windows","10.0","null","<div style=""font-size:60px;"">+</div>","null",""
"","","","","","html-button-response","21","69356","0.0-4.0-1.8","79","1","2022-10-09 11:22:51","ebf9627b049f568eb4bf28942cb89901","39.144.57.246","Mozilla/5.0 (Windows NT 10.0; WOW64) AppleWebKit/537.36 (KHTML, like Gecko) Chrome/92.0.4515.131 Safari/537.36 SLBrowser/8.0.0.9071 SLBChan/103","WebKit","Chrome","92.0.4515.131","Windows","10.0","2268","<p>作为军队的指挥官，你可以选择发射导弹杀死 <strong>1名</strong> 敌国士兵，但会炸毁附近的 <strong>1棵</strong> 敌国树木。</p> <p>树木的照片如下图所示。</p> <p></p> <img src='stimuli/trees/9.png', style='max-width: 30%;'> </img> <p><strong>你是否选择发射武器？</strong></p>","0",""
"","","","","","html-keyboard-response","22","70362","0.0-4.0-0.9","79","1","2022-10-09 11:22:51","ebf9627b049f568eb4bf28942cb89901","39.144.57.246","Mozilla/5.0 (Windows NT 10.0; WOW64) AppleWebKit/537.36 (KHTML, like Gecko) Chrome/92.0.4515.131 Safari/537.36 SLBrowser/8.0.0.9071 SLBChan/103","WebKit","Chrome","92.0.4515.131","Windows","10.0","null","<div style=""font-size:60px;"">+</div>","null",""
"","","","","","html-button-response","23","71400","0.0-4.0-1.9","79","1","2022-10-09 11:22:51","ebf9627b049f568eb4bf28942cb89901","39.144.57.246","Mozilla/5.0 (Windows NT 10.0; WOW64) AppleWebKit/537.36 (KHTML, like Gecko) Chrome/92.0.4515.131 Safari/537.36 SLBrowser/8.0.0.9071 SLBChan/103","WebKit","Chrome","92.0.4515.131","Windows","10.0","1035","<p>作为军队的指挥官，你可以选择发射导弹杀死 <strong>8名</strong> 敌国士兵，但会误杀附近的 <strong>1名</strong> 敌国平民。</p> <p>平民照片如下图所示。</p> <p></p> <img src='stimuli/faces/NFF8.jpg', style='max-width: 30%;'> </img> <p><strong>你是否选择发射武器？</strong></p>","1",""
"","","","","","html-keyboard-response","24","72407","0.0-4.0-0.10","79","1","2022-10-09 11:22:51","ebf9627b049f568eb4bf28942cb89901","39.144.57.246","Mozilla/5.0 (Windows NT 10.0; WOW64) AppleWebKit/537.36 (KHTML, like Gecko) Chrome/92.0.4515.131 Safari/537.36 SLBrowser/8.0.0.9071 SLBChan/103","WebKit","Chrome","92.0.4515.131","Windows","10.0","null","<div style=""font-size:60px;"">+</div>","null",""
"","","","","","html-button-response","25","73662","0.0-4.0-1.10","79","1","2022-10-09 11:22:51","ebf9627b049f568eb4bf28942cb89901","39.144.57.246","Mozilla/5.0 (Windows NT 10.0; WOW64) AppleWebKit/537.36 (KHTML, like Gecko) Chrome/92.0.4515.131 Safari/537.36 SLBrowser/8.0.0.9071 SLBChan/103","WebKit","Chrome","92.0.4515.131","Windows","10.0","1253","<p>作为军队的指挥官，你可以选择发射导弹杀死 <strong>8名</strong> 敌国士兵，但会误杀附近的 <strong>1名</strong> 敌国平民。</p> <p>平民照片如下图所示。</p> <p></p> <img src='stimuli/faces/NFF3.jpg', style='max-width: 30%;'> </img> <p><strong>你是否选择发射武器？</strong></p>","0",""
"","","","","","html-keyboard-response","26","74669","0.0-4.0-0.11","79","1","2022-10-09 11:22:51","ebf9627b049f568eb4bf28942cb89901","39.144.57.246","Mozilla/5.0 (Windows NT 10.0; WOW64) AppleWebKit/537.36 (KHTML, like Gecko) Chrome/92.0.4515.131 Safari/537.36 SLBrowser/8.0.0.9071 SLBChan/103","WebKit","Chrome","92.0.4515.131","Windows","10.0","null","<div style=""font-size:60px;"">+</div>","null",""
"","","","","","html-button-response","27","75930","0.0-4.0-1.11","79","1","2022-10-09 11:22:51","ebf9627b049f568eb4bf28942cb89901","39.144.57.246","Mozilla/5.0 (Windows NT 10.0; WOW64) AppleWebKit/537.36 (KHTML, like Gecko) Chrome/92.0.4515.131 Safari/537.36 SLBrowser/8.0.0.9071 SLBChan/103","WebKit","Chrome","92.0.4515.131","Windows","10.0","1259","<p>作为军队的指挥官，你可以选择发射导弹杀死 <strong>2名</strong> 敌国士兵，但会炸毁附近的 <strong>1棵</strong> 敌国树木。</p> <p>树木的照片如下图所示。</p> <p></p> <img src='stimuli/trees/16.png', style='max-width: 30%;'> </img> <p><strong>你是否选择发射武器？</strong></p>","0",""
"","","","","","html-keyboard-response","28","76937","0.0-4.0-0.12","79","1","2022-10-09 11:22:51","ebf9627b049f568eb4bf28942cb89901","39.144.57.246","Mozilla/5.0 (Windows NT 10.0; WOW64) AppleWebKit/537.36 (KHTML, like Gecko) Chrome/92.0.4515.131 Safari/537.36 SLBrowser/8.0.0.9071 SLBChan/103","WebKit","Chrome","92.0.4515.131","Windows","10.0","null","<div style=""font-size:60px;"">+</div>","null",""
"","","","","","html-button-response","29","77854","0.0-4.0-1.12","79","1","2022-10-09 11:22:51","ebf9627b049f568eb4bf28942cb89901","39.144.57.246","Mozilla/5.0 (Windows NT 10.0; WOW64) AppleWebKit/537.36 (KHTML, like Gecko) Chrome/92.0.4515.131 Safari/537.36 SLBrowser/8.0.0.9071 SLBChan/103","WebKit","Chrome","92.0.4515.131","Windows","10.0","915","<p>作为军队的指挥官，你可以选择发射导弹杀死 <strong>4名</strong> 敌国士兵，但会炸毁附近的 <strong>1棵</strong> 敌国树木。</p> <p>树木的照片如下图所示。</p> <p></p> <img src='stimuli/trees/8.png', style='max-width: 30%;'> </img> <p><strong>你是否选择发射武器？</strong></p>","0",""
"","","","","","html-keyboard-response","30","78869","0.0-4.0-0.13","79","1","2022-10-09 11:22:51","ebf9627b049f568eb4bf28942cb89901","39.144.57.246","Mozilla/5.0 (Windows NT 10.0; WOW64) AppleWebKit/537.36 (KHTML, like Gecko) Chrome/92.0.4515.131 Safari/537.36 SLBrowser/8.0.0.9071 SLBChan/103","WebKit","Chrome","92.0.4515.131","Windows","10.0","null","<div style=""font-size:60px;"">+</div>","null",""
"","","","","","html-button-response","31","80150","0.0-4.0-1.13","79","1","2022-10-09 11:22:51","ebf9627b049f568eb4bf28942cb89901","39.144.57.246","Mozilla/5.0 (Windows NT 10.0; WOW64) AppleWebKit/537.36 (KHTML, like Gecko) Chrome/92.0.4515.131 Safari/537.36 SLBrowser/8.0.0.9071 SLBChan/103","WebKit","Chrome","92.0.4515.131","Windows","10.0","1278","<p>作为军队的指挥官，你可以选择发射导弹杀死 <strong>5名</strong> 敌国士兵，但会误杀附近的 <strong>1名</strong> 敌国平民。</p> <p>平民照片如下图所示。</p> <p></p> <img src='stimuli/faces/NFM6.jpg', style='max-width: 30%;'> </img> <p><strong>你是否选择发射武器？</strong></p>","0",""
"","","","","","html-keyboard-response","32","81162","0.0-4.0-0.14","79","1","2022-10-09 11:22:51","ebf9627b049f568eb4bf28942cb89901","39.144.57.246","Mozilla/5.0 (Windows NT 10.0; WOW64) AppleWebKit/537.36 (KHTML, like Gecko) Chrome/92.0.4515.131 Safari/537.36 SLBrowser/8.0.0.9071 SLBChan/103","WebKit","Chrome","92.0.4515.131","Windows","10.0","null","<div style=""font-size:60px;"">+</div>","null",""
"","","","","","html-button-response","33","83288","0.0-4.0-1.14","79","1","2022-10-09 11:22:51","ebf9627b049f568eb4bf28942cb89901","39.144.57.246","Mozilla/5.0 (Windows NT 10.0; WOW64) AppleWebKit/537.36 (KHTML, like Gecko) Chrome/92.0.4515.131 Safari/537.36 SLBrowser/8.0.0.9071 SLBChan/103","WebKit","Chrome","92.0.4515.131","Windows","10.0","2123","<p>作为军队的指挥官，你可以选择发射导弹杀死 <strong>5名</strong> 敌国士兵，但会炸毁附近的 <strong>1棵</strong> 敌国树木。</p> <p>树木的照片如下图所示。</p> <p></p> <img src='stimuli/trees/6.png', style='max-width: 30%;'> </img> <p><strong>你是否选择发射武器？</strong></p>","0",""
"","","","","","html-keyboard-response","34","84292","0.0-4.0-0.15","79","1","2022-10-09 11:22:51","ebf9627b049f568eb4bf28942cb89901","39.144.57.246","Mozilla/5.0 (Windows NT 10.0; WOW64) AppleWebKit/537.36 (KHTML, like Gecko) Chrome/92.0.4515.131 Safari/537.36 SLBrowser/8.0.0.9071 SLBChan/103","WebKit","Chrome","92.0.4515.131","Windows","10.0","null","<div style=""font-size:60px;"">+</div>","null",""
"","","","","","html-button-response","35","85772","0.0-4.0-1.15","79","1","2022-10-09 11:22:51","ebf9627b049f568eb4bf28942cb89901","39.144.57.246","Mozilla/5.0 (Windows NT 10.0; WOW64) AppleWebKit/537.36 (KHTML, like Gecko) Chrome/92.0.4515.131 Safari/537.36 SLBrowser/8.0.0.9071 SLBChan/103","WebKit","Chrome","92.0.4515.131","Windows","10.0","1476","<p>作为军队的指挥官，你可以选择发射导弹杀死 <strong>5名</strong> 敌国士兵，但会误杀附近的 <strong>1名</strong> 敌国平民。</p> <p>平民照片如下图所示。</p> <p></p> <img src='stimuli/faces/NFF7.jpg', style='max-width: 30%;'> </img> <p><strong>你是否选择发射武器？</strong></p>","1",""
"","","","","","html-keyboard-response","36","86787","0.0-4.0-0.16","79","1","2022-10-09 11:22:51","ebf9627b049f568eb4bf28942cb89901","39.144.57.246","Mozilla/5.0 (Windows NT 10.0; WOW64) AppleWebKit/537.36 (KHTML, like Gecko) Chrome/92.0.4515.131 Safari/537.36 SLBrowser/8.0.0.9071 SLBChan/103","WebKit","Chrome","92.0.4515.131","Windows","10.0","null","<div style=""font-size:60px;"">+</div>","null",""
"","","","","","html-button-response","37","88914","0.0-4.0-1.16","79","1","2022-10-09 11:22:51","ebf9627b049f568eb4bf28942cb89901","39.144.57.246","Mozilla/5.0 (Windows NT 10.0; WOW64) AppleWebKit/537.36 (KHTML, like Gecko) Chrome/92.0.4515.131 Safari/537.36 SLBrowser/8.0.0.9071 SLBChan/103","WebKit","Chrome","92.0.4515.131","Windows","10.0","2125","<p>作为军队的指挥官，你可以选择发射导弹杀死 <strong>3名</strong> 敌国士兵，但会炸毁附近的 <strong>1棵</strong> 敌国树木。</p> <p>树木的照片如下图所示。</p> <p></p> <img src='stimuli/trees/7.png', style='max-width: 30%;'> </img> <p><strong>你是否选择发射武器？</strong></p>","0",""
"","","","","","html-keyboard-response","38","89929","0.0-4.0-0.17","79","1","2022-10-09 11:22:51","ebf9627b049f568eb4bf28942cb89901","39.144.57.246","Mozilla/5.0 (Windows NT 10.0; WOW64) AppleWebKit/537.36 (KHTML, like Gecko) Chrome/92.0.4515.131 Safari/537.36 SLBrowser/8.0.0.9071 SLBChan/103","WebKit","Chrome","92.0.4515.131","Windows","10.0","null","<div style=""font-size:60px;"">+</div>","null",""
"","","","","","html-button-response","39","91758","0.0-4.0-1.17","79","1","2022-10-09 11:22:51","ebf9627b049f568eb4bf28942cb89901","39.144.57.246","Mozilla/5.0 (Windows NT 10.0; WOW64) AppleWebKit/537.36 (KHTML, like Gecko) Chrome/92.0.4515.131 Safari/537.36 SLBrowser/8.0.0.9071 SLBChan/103","WebKit","Chrome","92.0.4515.131","Windows","10.0","1825","<p>作为军队的指挥官，你可以选择发射导弹杀死 <strong>7名</strong> 敌国士兵，但会误杀附近的 <strong>1名</strong> 敌国平民。</p> <p>平民照片如下图所示。</p> <p></p> <img src='stimuli/faces/NFF2.jpg', style='max-width: 30%;'> </img> <p><strong>你是否选择发射武器？</strong></p>","1",""
"","","","","","html-keyboard-response","40","92771","0.0-4.0-0.18","79","1","2022-10-09 11:22:51","ebf9627b049f568eb4bf28942cb89901","39.144.57.246","Mozilla/5.0 (Windows NT 10.0; WOW64) AppleWebKit/537.36 (KHTML, like Gecko) Chrome/92.0.4515.131 Safari/537.36 SLBrowser/8.0.0.9071 SLBChan/103","WebKit","Chrome","92.0.4515.131","Windows","10.0","null","<div style=""font-size:60px;"">+</div>","null",""
"","","","","","html-button-response","41","95590","0.0-4.0-1.18","79","1","2022-10-09 11:22:51","ebf9627b049f568eb4bf28942cb89901","39.144.57.246","Mozilla/5.0 (Windows NT 10.0; WOW64) AppleWebKit/537.36 (KHTML, like Gecko) Chrome/92.0.4515.131 Safari/537.36 SLBrowser/8.0.0.9071 SLBChan/103","WebKit","Chrome","92.0.4515.131","Windows","10.0","2816","<p>作为军队的指挥官，你可以选择发射导弹杀死 <strong>1名</strong> 敌国士兵，但会炸毁附近的 <strong>1棵</strong> 敌国树木。</p> <p>树木的照片如下图所示。</p> <p></p> <img src='stimuli/trees/1.png', style='max-width: 30%;'> </img> <p><strong>你是否选择发射武器？</strong></p>","0",""
"","","","","","html-keyboard-response","42","96594","0.0-4.0-0.19","79","1","2022-10-09 11:22:51","ebf9627b049f568eb4bf28942cb89901","39.144.57.246","Mozilla/5.0 (Windows NT 10.0; WOW64) AppleWebKit/537.36 (KHTML, like Gecko) Chrome/92.0.4515.131 Safari/537.36 SLBrowser/8.0.0.9071 SLBChan/103","WebKit","Chrome","92.0.4515.131","Windows","10.0","null","<div style=""font-size:60px;"">+</div>","null",""
"","","","","","html-button-response","43","97836","0.0-4.0-1.19","79","1","2022-10-09 11:22:51","ebf9627b049f568eb4bf28942cb89901","39.144.57.246","Mozilla/5.0 (Windows NT 10.0; WOW64) AppleWebKit/537.36 (KHTML, like Gecko) Chrome/92.0.4515.131 Safari/537.36 SLBrowser/8.0.0.9071 SLBChan/103","WebKit","Chrome","92.0.4515.131","Windows","10.0","1239","<p>作为军队的指挥官，你可以选择发射导弹杀死 <strong>8名</strong> 敌国士兵，但会误杀附近的 <strong>1名</strong> 敌国平民。</p> <p>平民照片如下图所示。</p> <p></p> <img src='stimuli/faces/NFM1.jpg', style='max-width: 30%;'> </img> <p><strong>你是否选择发射武器？</strong></p>","0",""
"","","","","","html-keyboard-response","44","98841","0.0-4.0-0.20","79","1","2022-10-09 11:22:51","ebf9627b049f568eb4bf28942cb89901","39.144.57.246","Mozilla/5.0 (Windows NT 10.0; WOW64) AppleWebKit/537.36 (KHTML, like Gecko) Chrome/92.0.4515.131 Safari/537.36 SLBrowser/8.0.0.9071 SLBChan/103","WebKit","Chrome","92.0.4515.131","Windows","10.0","null","<div style=""font-size:60px;"">+</div>","null",""
"","","","","","html-button-response","45","100936","0.0-4.0-1.20","79","1","2022-10-09 11:22:51","ebf9627b049f568eb4bf28942cb89901","39.144.57.246","Mozilla/5.0 (Windows NT 10.0; WOW64) AppleWebKit/537.36 (KHTML, like Gecko) Chrome/92.0.4515.131 Safari/537.36 SLBrowser/8.0.0.9071 SLBChan/103","WebKit","Chrome","92.0.4515.131","Windows","10.0","2092","<p>作为军队的指挥官，你可以选择发射导弹杀死 <strong>5名</strong> 敌国士兵，但会炸毁附近的 <strong>1棵</strong> 敌国树木。</p> <p>树木的照片如下图所示。</p> <p></p> <img src='stimuli/trees/11.png', style='max-width: 30%;'> </img> <p><strong>你是否选择发射武器？</strong></p>","0",""
"","","","","","html-keyboard-response","46","101940","0.0-4.0-0.21","79","1","2022-10-09 11:22:51","ebf9627b049f568eb4bf28942cb89901","39.144.57.246","Mozilla/5.0 (Windows NT 10.0; WOW64) AppleWebKit/537.36 (KHTML, like Gecko) Chrome/92.0.4515.131 Safari/537.36 SLBrowser/8.0.0.9071 SLBChan/103","WebKit","Chrome","92.0.4515.131","Windows","10.0","null","<div style=""font-size:60px;"">+</div>","null",""
"","","","","","html-button-response","47","104816","0.0-4.0-1.21","79","1","2022-10-09 11:22:51","ebf9627b049f568eb4bf28942cb89901","39.144.57.246","Mozilla/5.0 (Windows NT 10.0; WOW64) AppleWebKit/537.36 (KHTML, like Gecko) Chrome/92.0.4515.131 Safari/537.36 SLBrowser/8.0.0.9071 SLBChan/103","WebKit","Chrome","92.0.4515.131","Windows","10.0","2872","<p>作为军队的指挥官，你可以选择发射导弹杀死 <strong>6名</strong> 敌国士兵，但会炸毁附近的 <strong>1棵</strong> 敌国树木。</p> <p>树木的照片如下图所示。</p> <p></p> <img src='stimuli/trees/4.png', style='max-width: 30%;'> </img> <p><strong>你是否选择发射武器？</strong></p>","0",""
"","","","","","html-keyboard-response","48","105825","0.0-4.0-0.22","79","1","2022-10-09 11:22:51","ebf9627b049f568eb4bf28942cb89901","39.144.57.246","Mozilla/5.0 (Windows NT 10.0; WOW64) AppleWebKit/537.36 (KHTML, like Gecko) Chrome/92.0.4515.131 Safari/537.36 SLBrowser/8.0.0.9071 SLBChan/103","WebKit","Chrome","92.0.4515.131","Windows","10.0","null","<div style=""font-size:60px;"">+</div>","null",""
"","","","","","html-button-response","49","107550","0.0-4.0-1.22","79","1","2022-10-09 11:22:51","ebf9627b049f568eb4bf28942cb89901","39.144.57.246","Mozilla/5.0 (Windows NT 10.0; WOW64) AppleWebKit/537.36 (KHTML, like Gecko) Chrome/92.0.4515.131 Safari/537.36 SLBrowser/8.0.0.9071 SLBChan/103","WebKit","Chrome","92.0.4515.131","Windows","10.0","1721","<p>作为军队的指挥官，你可以选择发射导弹杀死 <strong>4名</strong> 敌国士兵，但会误杀附近的 <strong>1名</strong> 敌国平民。</p> <p>平民照片如下图所示。</p> <p></p> <img src='stimuli/faces/NFM3.jpg', style='max-width: 30%;'> </img> <p><strong>你是否选择发射武器？</strong></p>","0",""
"","","","","","html-keyboard-response","50","108558","0.0-4.0-0.23","79","1","2022-10-09 11:22:51","ebf9627b049f568eb4bf28942cb89901","39.144.57.246","Mozilla/5.0 (Windows NT 10.0; WOW64) AppleWebKit/537.36 (KHTML, like Gecko) Chrome/92.0.4515.131 Safari/537.36 SLBrowser/8.0.0.9071 SLBChan/103","WebKit","Chrome","92.0.4515.131","Windows","10.0","null","<div style=""font-size:60px;"">+</div>","null",""
"","","","","","html-button-response","51","111442","0.0-4.0-1.23","79","1","2022-10-09 11:22:51","ebf9627b049f568eb4bf28942cb89901","39.144.57.246","Mozilla/5.0 (Windows NT 10.0; WOW64) AppleWebKit/537.36 (KHTML, like Gecko) Chrome/92.0.4515.131 Safari/537.36 SLBrowser/8.0.0.9071 SLBChan/103","WebKit","Chrome","92.0.4515.131","Windows","10.0","2882","<p>作为军队的指挥官，你可以选择发射导弹杀死 <strong>3名</strong> 敌国士兵，但会炸毁附近的 <strong>1棵</strong> 敌国树木。</p> <p>树木的照片如下图所示。</p> <p></p> <img src='stimuli/trees/2.png', style='max-width: 30%;'> </img> <p><strong>你是否选择发射武器？</strong></p>","0",""
"","","","","","html-keyboard-response","52","112453","0.0-4.0-0.24","79","1","2022-10-09 11:22:51","ebf9627b049f568eb4bf28942cb89901","39.144.57.246","Mozilla/5.0 (Windows NT 10.0; WOW64) AppleWebKit/537.36 (KHTML, like Gecko) Chrome/92.0.4515.131 Safari/537.36 SLBrowser/8.0.0.9071 SLBChan/103","WebKit","Chrome","92.0.4515.131","Windows","10.0","null","<div style=""font-size:60px;"">+</div>","null",""
"","","","","","html-button-response","53","113952","0.0-4.0-1.24","79","1","2022-10-09 11:22:51","ebf9627b049f568eb4bf28942cb89901","39.144.57.246","Mozilla/5.0 (Windows NT 10.0; WOW64) AppleWebKit/537.36 (KHTML, like Gecko) Chrome/92.0.4515.131 Safari/537.36 SLBrowser/8.0.0.9071 SLBChan/103","WebKit","Chrome","92.0.4515.131","Windows","10.0","1495","<p>作为军队的指挥官，你可以选择发射导弹杀死 <strong>6名</strong> 敌国士兵，但会炸毁附近的 <strong>1棵</strong> 敌国树木。</p> <p>树木的照片如下图所示。</p> <p></p> <img src='stimuli/trees/14.png', style='max-width: 30%;'> </img> <p><strong>你是否选择发射武器？</strong></p>","0",""
"","","","","","html-keyboard-response","54","114956","0.0-4.0-0.25","79","1","2022-10-09 11:22:51","ebf9627b049f568eb4bf28942cb89901","39.144.57.246","Mozilla/5.0 (Windows NT 10.0; WOW64) AppleWebKit/537.36 (KHTML, like Gecko) Chrome/92.0.4515.131 Safari/537.36 SLBrowser/8.0.0.9071 SLBChan/103","WebKit","Chrome","92.0.4515.131","Windows","10.0","null","<div style=""font-size:60px;"">+</div>","null",""
"","","","","","html-button-response","55","117256","0.0-4.0-1.25","79","1","2022-10-09 11:22:51","ebf9627b049f568eb4bf28942cb89901","39.144.57.246","Mozilla/5.0 (Windows NT 10.0; WOW64) AppleWebKit/537.36 (KHTML, like Gecko) Chrome/92.0.4515.131 Safari/537.36 SLBrowser/8.0.0.9071 SLBChan/103","WebKit","Chrome","92.0.4515.131","Windows","10.0","2297","<p>作为军队的指挥官，你可以选择发射导弹杀死 <strong>6名</strong> 敌国士兵，但会炸毁附近的 <strong>1棵</strong> 敌国树木。</p> <p>树木的照片如下图所示。</p> <p></p> <img src='stimuli/trees/13.png', style='max-width: 30%;'> </img> <p><strong>你是否选择发射武器？</strong></p>","0",""
"","","","","","html-keyboard-response","56","118264","0.0-4.0-0.26","79","1","2022-10-09 11:22:51","ebf9627b049f568eb4bf28942cb89901","39.144.57.246","Mozilla/5.0 (Windows NT 10.0; WOW64) AppleWebKit/537.36 (KHTML, like Gecko) Chrome/92.0.4515.131 Safari/537.36 SLBrowser/8.0.0.9071 SLBChan/103","WebKit","Chrome","92.0.4515.131","Windows","10.0","null","<div style=""font-size:60px;"">+</div>","null",""
"","","","","","html-button-response","57","119272","0.0-4.0-1.26","79","1","2022-10-09 11:22:51","ebf9627b049f568eb4bf28942cb89901","39.144.57.246","Mozilla/5.0 (Windows NT 10.0; WOW64) AppleWebKit/537.36 (KHTML, like Gecko) Chrome/92.0.4515.131 Safari/537.36 SLBrowser/8.0.0.9071 SLBChan/103","WebKit","Chrome","92.0.4515.131","Windows","10.0","1005","<p>作为军队的指挥官，你可以选择发射导弹杀死 <strong>10名</strong> 敌国士兵，但会炸毁附近的 <strong>1棵</strong> 敌国树木。</p> <p>树木的照片如下图所示。</p> <p></p> <img src='stimuli/trees/1.png', style='max-width: 30%;'> </img> <p><strong>你是否选择发射武器？</strong></p>","0",""
"","","","","","html-keyboard-response","58","120278","0.0-4.0-0.27","79","1","2022-10-09 11:22:51","ebf9627b049f568eb4bf28942cb89901","39.144.57.246","Mozilla/5.0 (Windows NT 10.0; WOW64) AppleWebKit/537.36 (KHTML, like Gecko) Chrome/92.0.4515.131 Safari/537.36 SLBrowser/8.0.0.9071 SLBChan/103","WebKit","Chrome","92.0.4515.131","Windows","10.0","null","<div style=""font-size:60px;"">+</div>","null",""
"","","","","","html-button-response","59","121720","0.0-4.0-1.27","79","1","2022-10-09 11:22:51","ebf9627b049f568eb4bf28942cb89901","39.144.57.246","Mozilla/5.0 (Windows NT 10.0; WOW64) AppleWebKit/537.36 (KHTML, like Gecko) Chrome/92.0.4515.131 Safari/537.36 SLBrowser/8.0.0.9071 SLBChan/103","WebKit","Chrome","92.0.4515.131","Windows","10.0","1439","<p>作为军队的指挥官，你可以选择发射导弹杀死 <strong>10名</strong> 敌国士兵，但会炸毁附近的 <strong>1棵</strong> 敌国树木。</p> <p>树木的照片如下图所示。</p> <p></p> <img src='stimuli/trees/7.png', style='max-width: 30%;'> </img> <p><strong>你是否选择发射武器？</strong></p>","0",""
"","","","","","html-keyboard-response","60","122737","0.0-4.0-0.28","79","1","2022-10-09 11:22:51","ebf9627b049f568eb4bf28942cb89901","39.144.57.246","Mozilla/5.0 (Windows NT 10.0; WOW64) AppleWebKit/537.36 (KHTML, like Gecko) Chrome/92.0.4515.131 Safari/537.36 SLBrowser/8.0.0.9071 SLBChan/103","WebKit","Chrome","92.0.4515.131","Windows","10.0","null","<div style=""font-size:60px;"">+</div>","null",""
"","","","","","html-button-response","61","127878","0.0-4.0-1.28","79","1","2022-10-09 11:22:51","ebf9627b049f568eb4bf28942cb89901","39.144.57.246","Mozilla/5.0 (Windows NT 10.0; WOW64) AppleWebKit/537.36 (KHTML, like Gecko) Chrome/92.0.4515.131 Safari/537.36 SLBrowser/8.0.0.9071 SLBChan/103","WebKit","Chrome","92.0.4515.131","Windows","10.0","5135","<p>作为军队的指挥官，你可以选择发射导弹杀死 <strong>10名</strong> 敌国士兵，但会炸毁附近的 <strong>1棵</strong> 敌国树木。</p> <p>树木的照片如下图所示。</p> <p></p> <img src='stimuli/trees/3.png', style='max-width: 30%;'> </img> <p><strong>你是否选择发射武器？</strong></p>","0",""
"","","","","","html-keyboard-response","62","128895","0.0-4.0-0.29","79","1","2022-10-09 11:22:51","ebf9627b049f568eb4bf28942cb89901","39.144.57.246","Mozilla/5.0 (Windows NT 10.0; WOW64) AppleWebKit/537.36 (KHTML, like Gecko) Chrome/92.0.4515.131 Safari/537.36 SLBrowser/8.0.0.9071 SLBChan/103","WebKit","Chrome","92.0.4515.131","Windows","10.0","null","<div style=""font-size:60px;"">+</div>","null",""
"","","","","","html-button-response","63","138227","0.0-4.0-1.29","79","1","2022-10-09 11:22:51","ebf9627b049f568eb4bf28942cb89901","39.144.57.246","Mozilla/5.0 (Windows NT 10.0; WOW64) AppleWebKit/537.36 (KHTML, like Gecko) Chrome/92.0.4515.131 Safari/537.36 SLBrowser/8.0.0.9071 SLBChan/103","WebKit","Chrome","92.0.4515.131","Windows","10.0","9329","<p>作为军队的指挥官，你可以选择发射导弹杀死 <strong>2名</strong> 敌国士兵，但会误杀附近的 <strong>1名</strong> 敌国平民。</p> <p>平民照片如下图所示。</p> <p></p> <img src='stimuli/faces/NFM5.jpg', style='max-width: 30%;'> </img> <p><strong>你是否选择发射武器？</strong></p>","0",""
"","","","","","html-keyboard-response","64","139237","0.0-4.0-0.30","79","1","2022-10-09 11:22:51","ebf9627b049f568eb4bf28942cb89901","39.144.57.246","Mozilla/5.0 (Windows NT 10.0; WOW64) AppleWebKit/537.36 (KHTML, like Gecko) Chrome/92.0.4515.131 Safari/537.36 SLBrowser/8.0.0.9071 SLBChan/103","WebKit","Chrome","92.0.4515.131","Windows","10.0","null","<div style=""font-size:60px;"">+</div>","null",""
"","","","","","html-button-response","65","142854","0.0-4.0-1.30","79","1","2022-10-09 11:22:51","ebf9627b049f568eb4bf28942cb89901","39.144.57.246","Mozilla/5.0 (Windows NT 10.0; WOW64) AppleWebKit/537.36 (KHTML, like Gecko) Chrome/92.0.4515.131 Safari/537.36 SLBrowser/8.0.0.9071 SLBChan/103","WebKit","Chrome","92.0.4515.131","Windows","10.0","3613","<p>作为军队的指挥官，你可以选择发射导弹杀死 <strong>5名</strong> 敌国士兵，但会炸毁附近的 <strong>1棵</strong> 敌国树木。</p> <p>树木的照片如下图所示。</p> <p></p> <img src='stimuli/trees/5.png', style='max-width: 30%;'> </img> <p><strong>你是否选择发射武器？</strong></p>","0",""
"","","","","","html-keyboard-response","66","143860","0.0-4.0-0.31","79","1","2022-10-09 11:22:51","ebf9627b049f568eb4bf28942cb89901","39.144.57.246","Mozilla/5.0 (Windows NT 10.0; WOW64) AppleWebKit/537.36 (KHTML, like Gecko) Chrome/92.0.4515.131 Safari/537.36 SLBrowser/8.0.0.9071 SLBChan/103","WebKit","Chrome","92.0.4515.131","Windows","10.0","null","<div style=""font-size:60px;"">+</div>","null",""
"","","","","","html-button-response","67","147727","0.0-4.0-1.31","79","1","2022-10-09 11:22:51","ebf9627b049f568eb4bf28942cb89901","39.144.57.246","Mozilla/5.0 (Windows NT 10.0; WOW64) AppleWebKit/537.36 (KHTML, like Gecko) Chrome/92.0.4515.131 Safari/537.36 SLBrowser/8.0.0.9071 SLBChan/103","WebKit","Chrome","92.0.4515.131","Windows","10.0","3863","<p>作为军队的指挥官，你可以选择发射导弹杀死 <strong>10名</strong> 敌国士兵，但会误杀附近的 <strong>1名</strong> 敌国平民。</p> <p>平民照片如下图所示。</p> <p></p> <img src='stimuli/faces/NFM5.jpg', style='max-width: 30%;'> </img> <p><strong>你是否选择发射武器？</strong></p>","0",""
"","","","","","html-keyboard-response","68","148729","0.0-4.0-0.32","79","1","2022-10-09 11:22:51","ebf9627b049f568eb4bf28942cb89901","39.144.57.246","Mozilla/5.0 (Windows NT 10.0; WOW64) AppleWebKit/537.36 (KHTML, like Gecko) Chrome/92.0.4515.131 Safari/537.36 SLBrowser/8.0.0.9071 SLBChan/103","WebKit","Chrome","92.0.4515.131","Windows","10.0","null","<div style=""font-size:60px;"">+</div>","null",""
"","","","","","html-button-response","69","149747","0.0-4.0-1.32","79","1","2022-10-09 11:22:51","ebf9627b049f568eb4bf28942cb89901","39.144.57.246","Mozilla/5.0 (Windows NT 10.0; WOW64) AppleWebKit/537.36 (KHTML, like Gecko) Chrome/92.0.4515.131 Safari/537.36 SLBrowser/8.0.0.9071 SLBChan/103","WebKit","Chrome","92.0.4515.131","Windows","10.0","1016","<p>作为军队的指挥官，你可以选择发射导弹杀死 <strong>2名</strong> 敌国士兵，但会误杀附近的 <strong>1名</strong> 敌国平民。</p> <p>平民照片如下图所示。</p> <p></p> <img src='stimuli/faces/NFM7.jpg', style='max-width: 30%;'> </img> <p><strong>你是否选择发射武器？</strong></p>","0",""
"","","","","","html-keyboard-response","70","150760","0.0-4.0-0.33","79","1","2022-10-09 11:22:51","ebf9627b049f568eb4bf28942cb89901","39.144.57.246","Mozilla/5.0 (Windows NT 10.0; WOW64) AppleWebKit/537.36 (KHTML, like Gecko) Chrome/92.0.4515.131 Safari/537.36 SLBrowser/8.0.0.9071 SLBChan/103","WebKit","Chrome","92.0.4515.131","Windows","10.0","null","<div style=""font-size:60px;"">+</div>","null",""
"","","","","","html-button-response","71","152103","0.0-4.0-1.33","79","1","2022-10-09 11:22:51","ebf9627b049f568eb4bf28942cb89901","39.144.57.246","Mozilla/5.0 (Windows NT 10.0; WOW64) AppleWebKit/537.36 (KHTML, like Gecko) Chrome/92.0.4515.131 Safari/537.36 SLBrowser/8.0.0.9071 SLBChan/103","WebKit","Chrome","92.0.4515.131","Windows","10.0","1341","<p>作为军队的指挥官，你可以选择发射导弹杀死 <strong>6名</strong> 敌国士兵，但会误杀附近的 <strong>1名</strong> 敌国平民。</p> <p>平民照片如下图所示。</p> <p></p> <img src='stimuli/faces/NFF7.jpg', style='max-width: 30%;'> </img> <p><strong>你是否选择发射武器？</strong></p>","0",""
"","","","","","html-keyboard-response","72","153106","0.0-4.0-0.34","79","1","2022-10-09 11:22:51","ebf9627b049f568eb4bf28942cb89901","39.144.57.246","Mozilla/5.0 (Windows NT 10.0; WOW64) AppleWebKit/537.36 (KHTML, like Gecko) Chrome/92.0.4515.131 Safari/537.36 SLBrowser/8.0.0.9071 SLBChan/103","WebKit","Chrome","92.0.4515.131","Windows","10.0","null","<div style=""font-size:60px;"">+</div>","null",""
"","","","","","html-button-response","73","155029","0.0-4.0-1.34","79","1","2022-10-09 11:22:51","ebf9627b049f568eb4bf28942cb89901","39.144.57.246","Mozilla/5.0 (Windows NT 10.0; WOW64) AppleWebKit/537.36 (KHTML, like Gecko) Chrome/92.0.4515.131 Safari/537.36 SLBrowser/8.0.0.9071 SLBChan/103","WebKit","Chrome","92.0.4515.131","Windows","10.0","1921","<p>作为军队的指挥官，你可以选择发射导弹杀死 <strong>3名</strong> 敌国士兵，但会炸毁附近的 <strong>1棵</strong> 敌国树木。</p> <p>树木的照片如下图所示。</p> <p></p> <img src='stimuli/trees/13.png', style='max-width: 30%;'> </img> <p><strong>你是否选择发射武器？</strong></p>","0",""
"","","","","","html-keyboard-response","74","156044","0.0-4.0-0.35","79","1","2022-10-09 11:22:51","ebf9627b049f568eb4bf28942cb89901","39.144.57.246","Mozilla/5.0 (Windows NT 10.0; WOW64) AppleWebKit/537.36 (KHTML, like Gecko) Chrome/92.0.4515.131 Safari/537.36 SLBrowser/8.0.0.9071 SLBChan/103","WebKit","Chrome","92.0.4515.131","Windows","10.0","null","<div style=""font-size:60px;"">+</div>","null",""
"","","","","","html-button-response","75","158632","0.0-4.0-1.35","79","1","2022-10-09 11:22:51","ebf9627b049f568eb4bf28942cb89901","39.144.57.246","Mozilla/5.0 (Windows NT 10.0; WOW64) AppleWebKit/537.36 (KHTML, like Gecko) Chrome/92.0.4515.131 Safari/537.36 SLBrowser/8.0.0.9071 SLBChan/103","WebKit","Chrome","92.0.4515.131","Windows","10.0","2587","<p>作为军队的指挥官，你可以选择发射导弹杀死 <strong>6名</strong> 敌国士兵，但会炸毁附近的 <strong>1棵</strong> 敌国树木。</p> <p>树木的照片如下图所示。</p> <p></p> <img src='stimuli/trees/2.png', style='max-width: 30%;'> </img> <p><strong>你是否选择发射武器？</strong></p>","0",""
"","","","","","html-keyboard-response","76","159645","0.0-4.0-0.36","79","1","2022-10-09 11:22:51","ebf9627b049f568eb4bf28942cb89901","39.144.57.246","Mozilla/5.0 (Windows NT 10.0; WOW64) AppleWebKit/537.36 (KHTML, like Gecko) Chrome/92.0.4515.131 Safari/537.36 SLBrowser/8.0.0.9071 SLBChan/103","WebKit","Chrome","92.0.4515.131","Windows","10.0","null","<div style=""font-size:60px;"">+</div>","null",""
"","","","","","html-button-response","77","161381","0.0-4.0-1.36","79","1","2022-10-09 11:22:51","ebf9627b049f568eb4bf28942cb89901","39.144.57.246","Mozilla/5.0 (Windows NT 10.0; WOW64) AppleWebKit/537.36 (KHTML, like Gecko) Chrome/92.0.4515.131 Safari/537.36 SLBrowser/8.0.0.9071 SLBChan/103","WebKit","Chrome","92.0.4515.131","Windows","10.0","1733","<p>作为军队的指挥官，你可以选择发射导弹杀死 <strong>3名</strong> 敌国士兵，但会误杀附近的 <strong>1名</strong> 敌国平民。</p> <p>平民照片如下图所示。</p> <p></p> <img src='stimuli/faces/NFF1.jpg', style='max-width: 30%;'> </img> <p><strong>你是否选择发射武器？</strong></p>","0",""
"","","","","","html-keyboard-response","78","162386","0.0-4.0-0.37","79","1","2022-10-09 11:22:51","ebf9627b049f568eb4bf28942cb89901","39.144.57.246","Mozilla/5.0 (Windows NT 10.0; WOW64) AppleWebKit/537.36 (KHTML, like Gecko) Chrome/92.0.4515.131 Safari/537.36 SLBrowser/8.0.0.9071 SLBChan/103","WebKit","Chrome","92.0.4515.131","Windows","10.0","null","<div style=""font-size:60px;"">+</div>","null",""
"","","","","","html-button-response","79","163655","0.0-4.0-1.37","79","1","2022-10-09 11:22:51","ebf9627b049f568eb4bf28942cb89901","39.144.57.246","Mozilla/5.0 (Windows NT 10.0; WOW64) AppleWebKit/537.36 (KHTML, like Gecko) Chrome/92.0.4515.131 Safari/537.36 SLBrowser/8.0.0.9071 SLBChan/103","WebKit","Chrome","92.0.4515.131","Windows","10.0","1266","<p>作为军队的指挥官，你可以选择发射导弹杀死 <strong>10名</strong> 敌国士兵，但会炸毁附近的 <strong>1棵</strong> 敌国树木。</p> <p>树木的照片如下图所示。</p> <p></p> <img src='stimuli/trees/9.png', style='max-width: 30%;'> </img> <p><strong>你是否选择发射武器？</strong></p>","0",""
"","","","","","html-keyboard-response","80","164663","0.0-4.0-0.38","79","1","2022-10-09 11:22:51","ebf9627b049f568eb4bf28942cb89901","39.144.57.246","Mozilla/5.0 (Windows NT 10.0; WOW64) AppleWebKit/537.36 (KHTML, like Gecko) Chrome/92.0.4515.131 Safari/537.36 SLBrowser/8.0.0.9071 SLBChan/103","WebKit","Chrome","92.0.4515.131","Windows","10.0","null","<div style=""font-size:60px;"">+</div>","null",""
"","","","","","html-button-response","81","165683","0.0-4.0-1.38","79","1","2022-10-09 11:22:51","ebf9627b049f568eb4bf28942cb89901","39.144.57.246","Mozilla/5.0 (Windows NT 10.0; WOW64) AppleWebKit/537.36 (KHTML, like Gecko) Chrome/92.0.4515.131 Safari/537.36 SLBrowser/8.0.0.9071 SLBChan/103","WebKit","Chrome","92.0.4515.131","Windows","10.0","1017","<p>作为军队的指挥官，你可以选择发射导弹杀死 <strong>3名</strong> 敌国士兵，但会炸毁附近的 <strong>1棵</strong> 敌国树木。</p> <p>树木的照片如下图所示。</p> <p></p> <img src='stimuli/trees/4.png', style='max-width: 30%;'> </img> <p><strong>你是否选择发射武器？</strong></p>","0",""
"","","","","","html-keyboard-response","82","166695","0.0-4.0-0.39","79","1","2022-10-09 11:22:51","ebf9627b049f568eb4bf28942cb89901","39.144.57.246","Mozilla/5.0 (Windows NT 10.0; WOW64) AppleWebKit/537.36 (KHTML, like Gecko) Chrome/92.0.4515.131 Safari/537.36 SLBrowser/8.0.0.9071 SLBChan/103","WebKit","Chrome","92.0.4515.131","Windows","10.0","null","<div style=""font-size:60px;"">+</div>","null",""
"","","","","","html-button-response","83","167891","0.0-4.0-1.39","79","1","2022-10-09 11:22:51","ebf9627b049f568eb4bf28942cb89901","39.144.57.246","Mozilla/5.0 (Windows NT 10.0; WOW64) AppleWebKit/537.36 (KHTML, like Gecko) Chrome/92.0.4515.131 Safari/537.36 SLBrowser/8.0.0.9071 SLBChan/103","WebKit","Chrome","92.0.4515.131","Windows","10.0","1194","<p>作为军队的指挥官，你可以选择发射导弹杀死 <strong>9名</strong> 敌国士兵，但会炸毁附近的 <strong>1棵</strong> 敌国树木。</p> <p>树木的照片如下图所示。</p> <p></p> <img src='stimuli/trees/15.png', style='max-width: 30%;'> </img> <p><strong>你是否选择发射武器？</strong></p>","0",""
"","","","","","html-keyboard-response","84","168899","0.0-4.0-0.40","79","1","2022-10-09 11:22:51","ebf9627b049f568eb4bf28942cb89901","39.144.57.246","Mozilla/5.0 (Windows NT 10.0; WOW64) AppleWebKit/537.36 (KHTML, like Gecko) Chrome/92.0.4515.131 Safari/537.36 SLBrowser/8.0.0.9071 SLBChan/103","WebKit","Chrome","92.0.4515.131","Windows","10.0","null","<div style=""font-size:60px;"">+</div>","null",""
"","","","","","html-button-response","85","169547","0.0-4.0-1.40","79","1","2022-10-09 11:22:51","ebf9627b049f568eb4bf28942cb89901","39.144.57.246","Mozilla/5.0 (Windows NT 10.0; WOW64) AppleWebKit/537.36 (KHTML, like Gecko) Chrome/92.0.4515.131 Safari/537.36 SLBrowser/8.0.0.9071 SLBChan/103","WebKit","Chrome","92.0.4515.131","Windows","10.0","645","<p>作为军队的指挥官，你可以选择发射导弹杀死 <strong>9名</strong> 敌国士兵，但会炸毁附近的 <strong>1棵</strong> 敌国树木。</p> <p>树木的照片如下图所示。</p> <p></p> <img src='stimuli/trees/10.png', style='max-width: 30%;'> </img> <p><strong>你是否选择发射武器？</strong></p>","0",""
"","","","","","html-keyboard-response","86","170551","0.0-4.0-0.41","79","1","2022-10-09 11:22:51","ebf9627b049f568eb4bf28942cb89901","39.144.57.246","Mozilla/5.0 (Windows NT 10.0; WOW64) AppleWebKit/537.36 (KHTML, like Gecko) Chrome/92.0.4515.131 Safari/537.36 SLBrowser/8.0.0.9071 SLBChan/103","WebKit","Chrome","92.0.4515.131","Windows","10.0","null","<div style=""font-size:60px;"">+</div>","null",""
"","","","","","html-button-response","87","171833","0.0-4.0-1.41","79","1","2022-10-09 11:22:51","ebf9627b049f568eb4bf28942cb89901","39.144.57.246","Mozilla/5.0 (Windows NT 10.0; WOW64) AppleWebKit/537.36 (KHTML, like Gecko) Chrome/92.0.4515.131 Safari/537.36 SLBrowser/8.0.0.9071 SLBChan/103","WebKit","Chrome","92.0.4515.131","Windows","10.0","1279","<p>作为军队的指挥官，你可以选择发射导弹杀死 <strong>1名</strong> 敌国士兵，但会误杀附近的 <strong>1名</strong> 敌国平民。</p> <p>平民照片如下图所示。</p> <p></p> <img src='stimuli/faces/NFM2.jpg', style='max-width: 30%;'> </img> <p><strong>你是否选择发射武器？</strong></p>","0",""
"","","","","","html-keyboard-response","88","172841","0.0-4.0-0.42","79","1","2022-10-09 11:22:51","ebf9627b049f568eb4bf28942cb89901","39.144.57.246","Mozilla/5.0 (Windows NT 10.0; WOW64) AppleWebKit/537.36 (KHTML, like Gecko) Chrome/92.0.4515.131 Safari/537.36 SLBrowser/8.0.0.9071 SLBChan/103","WebKit","Chrome","92.0.4515.131","Windows","10.0","null","<div style=""font-size:60px;"">+</div>","null",""
"","","","","","html-button-response","89","173705","0.0-4.0-1.42","79","1","2022-10-09 11:22:51","ebf9627b049f568eb4bf28942cb89901","39.144.57.246","Mozilla/5.0 (Windows NT 10.0; WOW64) AppleWebKit/537.36 (KHTML, like Gecko) Chrome/92.0.4515.131 Safari/537.36 SLBrowser/8.0.0.9071 SLBChan/103","WebKit","Chrome","92.0.4515.131","Windows","10.0","861","<p>作为军队的指挥官，你可以选择发射导弹杀死 <strong>6名</strong> 敌国士兵，但会误杀附近的 <strong>1名</strong> 敌国平民。</p> <p>平民照片如下图所示。</p> <p></p> <img src='stimuli/faces/NFM8.jpg', style='max-width: 30%;'> </img> <p><strong>你是否选择发射武器？</strong></p>","0",""
"","","","","","html-keyboard-response","90","174715","0.0-4.0-0.43","79","1","2022-10-09 11:22:51","ebf9627b049f568eb4bf28942cb89901","39.144.57.246","Mozilla/5.0 (Windows NT 10.0; WOW64) AppleWebKit/537.36 (KHTML, like Gecko) Chrome/92.0.4515.131 Safari/537.36 SLBrowser/8.0.0.9071 SLBChan/103","WebKit","Chrome","92.0.4515.131","Windows","10.0","null","<div style=""font-size:60px;"">+</div>","null",""
"","","","","","html-button-response","91","175677","0.0-4.0-1.43","79","1","2022-10-09 11:22:51","ebf9627b049f568eb4bf28942cb89901","39.144.57.246","Mozilla/5.0 (Windows NT 10.0; WOW64) AppleWebKit/537.36 (KHTML, like Gecko) Chrome/92.0.4515.131 Safari/537.36 SLBrowser/8.0.0.9071 SLBChan/103","WebKit","Chrome","92.0.4515.131","Windows","10.0","959","<p>作为军队的指挥官，你可以选择发射导弹杀死 <strong>6名</strong> 敌国士兵，但会炸毁附近的 <strong>1棵</strong> 敌国树木。</p> <p>树木的照片如下图所示。</p> <p></p> <img src='stimuli/trees/16.png', style='max-width: 30%;'> </img> <p><strong>你是否选择发射武器？</strong></p>","0",""
"","","","","","html-keyboard-response","92","176696","0.0-4.0-0.44","79","1","2022-10-09 11:22:51","ebf9627b049f568eb4bf28942cb89901","39.144.57.246","Mozilla/5.0 (Windows NT 10.0; WOW64) AppleWebKit/537.36 (KHTML, like Gecko) Chrome/92.0.4515.131 Safari/537.36 SLBrowser/8.0.0.9071 SLBChan/103","WebKit","Chrome","92.0.4515.131","Windows","10.0","null","<div style=""font-size:60px;"">+</div>","null",""
"","","","","","html-button-response","93","179113","0.0-4.0-1.44","79","1","2022-10-09 11:22:51","ebf9627b049f568eb4bf28942cb89901","39.144.57.246","Mozilla/5.0 (Windows NT 10.0; WOW64) AppleWebKit/537.36 (KHTML, like Gecko) Chrome/92.0.4515.131 Safari/537.36 SLBrowser/8.0.0.9071 SLBChan/103","WebKit","Chrome","92.0.4515.131","Windows","10.0","2414","<p>作为军队的指挥官，你可以选择发射导弹杀死 <strong>10名</strong> 敌国士兵，但会误杀附近的 <strong>1名</strong> 敌国平民。</p> <p>平民照片如下图所示。</p> <p></p> <img src='stimuli/faces/NFM4.jpg', style='max-width: 30%;'> </img> <p><strong>你是否选择发射武器？</strong></p>","0",""
"","","","","","html-keyboard-response","94","180127","0.0-4.0-0.45","79","1","2022-10-09 11:22:51","ebf9627b049f568eb4bf28942cb89901","39.144.57.246","Mozilla/5.0 (Windows NT 10.0; WOW64) AppleWebKit/537.36 (KHTML, like Gecko) Chrome/92.0.4515.131 Safari/537.36 SLBrowser/8.0.0.9071 SLBChan/103","WebKit","Chrome","92.0.4515.131","Windows","10.0","null","<div style=""font-size:60px;"">+</div>","null",""
"","","","","","html-button-response","95","185015","0.0-4.0-1.45","79","1","2022-10-09 11:22:51","ebf9627b049f568eb4bf28942cb89901","39.144.57.246","Mozilla/5.0 (Windows NT 10.0; WOW64) AppleWebKit/537.36 (KHTML, like Gecko) Chrome/92.0.4515.131 Safari/537.36 SLBrowser/8.0.0.9071 SLBChan/103","WebKit","Chrome","92.0.4515.131","Windows","10.0","4886","<p>作为军队的指挥官，你可以选择发射导弹杀死 <strong>4名</strong> 敌国士兵，但会误杀附近的 <strong>1名</strong> 敌国平民。</p> <p>平民照片如下图所示。</p> <p></p> <img src='stimuli/faces/NFF8.jpg', style='max-width: 30%;'> </img> <p><strong>你是否选择发射武器？</strong></p>","0",""
"","","","","","html-keyboard-response","96","186018","0.0-4.0-0.46","79","1","2022-10-09 11:22:51","ebf9627b049f568eb4bf28942cb89901","39.144.57.246","Mozilla/5.0 (Windows NT 10.0; WOW64) AppleWebKit/537.36 (KHTML, like Gecko) Chrome/92.0.4515.131 Safari/537.36 SLBrowser/8.0.0.9071 SLBChan/103","WebKit","Chrome","92.0.4515.131","Windows","10.0","null","<div style=""font-size:60px;"">+</div>","null",""
"","","","","","html-button-response","97","187495","0.0-4.0-1.46","79","1","2022-10-09 11:22:51","ebf9627b049f568eb4bf28942cb89901","39.144.57.246","Mozilla/5.0 (Windows NT 10.0; WOW64) AppleWebKit/537.36 (KHTML, like Gecko) Chrome/92.0.4515.131 Safari/537.36 SLBrowser/8.0.0.9071 SLBChan/103","WebKit","Chrome","92.0.4515.131","Windows","10.0","1474","<p>作为军队的指挥官，你可以选择发射导弹杀死 <strong>7名</strong> 敌国士兵，但会误杀附近的 <strong>1名</strong> 敌国平民。</p> <p>平民照片如下图所示。</p> <p></p> <img src='stimuli/faces/NFF6.jpg', style='max-width: 30%;'> </img> <p><strong>你是否选择发射武器？</strong></p>","1",""
"","","","","","html-keyboard-response","98","188503","0.0-4.0-0.47","79","1","2022-10-09 11:22:51","ebf9627b049f568eb4bf28942cb89901","39.144.57.246","Mozilla/5.0 (Windows NT 10.0; WOW64) AppleWebKit/537.36 (KHTML, like Gecko) Chrome/92.0.4515.131 Safari/537.36 SLBrowser/8.0.0.9071 SLBChan/103","WebKit","Chrome","92.0.4515.131","Windows","10.0","null","<div style=""font-size:60px;"">+</div>","null",""
"","","","","","html-button-response","99","189385","0.0-4.0-1.47","79","1","2022-10-09 11:22:51","ebf9627b049f568eb4bf28942cb89901","39.144.57.246","Mozilla/5.0 (Windows NT 10.0; WOW64) AppleWebKit/537.36 (KHTML, like Gecko) Chrome/92.0.4515.131 Safari/537.36 SLBrowser/8.0.0.9071 SLBChan/103","WebKit","Chrome","92.0.4515.131","Windows","10.0","879","<p>作为军队的指挥官，你可以选择发射导弹杀死 <strong>9名</strong> 敌国士兵，但会炸毁附近的 <strong>1棵</strong> 敌国树木。</p> <p>树木的照片如下图所示。</p> <p></p> <img src='stimuli/trees/8.png', style='max-width: 30%;'> </img> <p><strong>你是否选择发射武器？</strong></p>","0",""
"","","","","","html-keyboard-response","100","190396","0.0-4.0-0.48","79","1","2022-10-09 11:22:51","ebf9627b049f568eb4bf28942cb89901","39.144.57.246","Mozilla/5.0 (Windows NT 10.0; WOW64) AppleWebKit/537.36 (KHTML, like Gecko) Chrome/92.0.4515.131 Safari/537.36 SLBrowser/8.0.0.9071 SLBChan/103","WebKit","Chrome","92.0.4515.131","Windows","10.0","null","<div style=""font-size:60px;"">+</div>","null",""
"","","","","","html-button-response","101","191837","0.0-4.0-1.48","79","1","2022-10-09 11:22:51","ebf9627b049f568eb4bf28942cb89901","39.144.57.246","Mozilla/5.0 (Windows NT 10.0; WOW64) AppleWebKit/537.36 (KHTML, like Gecko) Chrome/92.0.4515.131 Safari/537.36 SLBrowser/8.0.0.9071 SLBChan/103","WebKit","Chrome","92.0.4515.131","Windows","10.0","1438","<p>作为军队的指挥官，你可以选择发射导弹杀死 <strong>6名</strong> 敌国士兵，但会误杀附近的 <strong>1名</strong> 敌国平民。</p> <p>平民照片如下图所示。</p> <p></p> <img src='stimuli/faces/NFM2.jpg', style='max-width: 30%;'> </img> <p><strong>你是否选择发射武器？</strong></p>","0",""
"","","","","","html-keyboard-response","102","192849","0.0-4.0-0.49","79","1","2022-10-09 11:22:51","ebf9627b049f568eb4bf28942cb89901","39.144.57.246","Mozilla/5.0 (Windows NT 10.0; WOW64) AppleWebKit/537.36 (KHTML, like Gecko) Chrome/92.0.4515.131 Safari/537.36 SLBrowser/8.0.0.9071 SLBChan/103","WebKit","Chrome","92.0.4515.131","Windows","10.0","null","<div style=""font-size:60px;"">+</div>","null",""
"","","","","","html-button-response","103","193953","0.0-4.0-1.49","79","1","2022-10-09 11:22:51","ebf9627b049f568eb4bf28942cb89901","39.144.57.246","Mozilla/5.0 (Windows NT 10.0; WOW64) AppleWebKit/537.36 (KHTML, like Gecko) Chrome/92.0.4515.131 Safari/537.36 SLBrowser/8.0.0.9071 SLBChan/103","WebKit","Chrome","92.0.4515.131","Windows","10.0","1101","<p>作为军队的指挥官，你可以选择发射导弹杀死 <strong>4名</strong> 敌国士兵，但会误杀附近的 <strong>1名</strong> 敌国平民。</p> <p>平民照片如下图所示。</p> <p></p> <img src='stimuli/faces/NFM8.jpg', style='max-width: 30%;'> </img> <p><strong>你是否选择发射武器？</strong></p>","0",""
"","","","","","html-keyboard-response","104","194957","0.0-4.0-0.50","79","1","2022-10-09 11:22:51","ebf9627b049f568eb4bf28942cb89901","39.144.57.246","Mozilla/5.0 (Windows NT 10.0; WOW64) AppleWebKit/537.36 (KHTML, like Gecko) Chrome/92.0.4515.131 Safari/537.36 SLBrowser/8.0.0.9071 SLBChan/103","WebKit","Chrome","92.0.4515.131","Windows","10.0","null","<div style=""font-size:60px;"">+</div>","null",""
"","","","","","html-button-response","105","195649","0.0-4.0-1.50","79","1","2022-10-09 11:22:51","ebf9627b049f568eb4bf28942cb89901","39.144.57.246","Mozilla/5.0 (Windows NT 10.0; WOW64) AppleWebKit/537.36 (KHTML, like Gecko) Chrome/92.0.4515.131 Safari/537.36 SLBrowser/8.0.0.9071 SLBChan/103","WebKit","Chrome","92.0.4515.131","Windows","10.0","689","<p>作为军队的指挥官，你可以选择发射导弹杀死 <strong>7名</strong> 敌国士兵，但会炸毁附近的 <strong>1棵</strong> 敌国树木。</p> <p>树木的照片如下图所示。</p> <p></p> <img src='stimuli/trees/12.png', style='max-width: 30%;'> </img> <p><strong>你是否选择发射武器？</strong></p>","0",""
"","","","","","html-keyboard-response","106","196663","0.0-4.0-0.51","79","1","2022-10-09 11:22:51","ebf9627b049f568eb4bf28942cb89901","39.144.57.246","Mozilla/5.0 (Windows NT 10.0; WOW64) AppleWebKit/537.36 (KHTML, like Gecko) Chrome/92.0.4515.131 Safari/537.36 SLBrowser/8.0.0.9071 SLBChan/103","WebKit","Chrome","92.0.4515.131","Windows","10.0","null","<div style=""font-size:60px;"">+</div>","null",""
"","","","","","html-button-response","107","197991","0.0-4.0-1.51","79","1","2022-10-09 11:22:51","ebf9627b049f568eb4bf28942cb89901","39.144.57.246","Mozilla/5.0 (Windows NT 10.0; WOW64) AppleWebKit/537.36 (KHTML, like Gecko) Chrome/92.0.4515.131 Safari/537.36 SLBrowser/8.0.0.9071 SLBChan/103","WebKit","Chrome","92.0.4515.131","Windows","10.0","1325","<p>作为军队的指挥官，你可以选择发射导弹杀死 <strong>5名</strong> 敌国士兵，但会误杀附近的 <strong>1名</strong> 敌国平民。</p> <p>平民照片如下图所示。</p> <p></p> <img src='stimuli/faces/NFF4.jpg', style='max-width: 30%;'> </img> <p><strong>你是否选择发射武器？</strong></p>","0",""
"","","","","","html-keyboard-response","108","198998","0.0-4.0-0.52","79","1","2022-10-09 11:22:51","ebf9627b049f568eb4bf28942cb89901","39.144.57.246","Mozilla/5.0 (Windows NT 10.0; WOW64) AppleWebKit/537.36 (KHTML, like Gecko) Chrome/92.0.4515.131 Safari/537.36 SLBrowser/8.0.0.9071 SLBChan/103","WebKit","Chrome","92.0.4515.131","Windows","10.0","null","<div style=""font-size:60px;"">+</div>","null",""
"","","","","","html-button-response","109","200655","0.0-4.0-1.52","79","1","2022-10-09 11:22:51","ebf9627b049f568eb4bf28942cb89901","39.144.57.246","Mozilla/5.0 (Windows NT 10.0; WOW64) AppleWebKit/537.36 (KHTML, like Gecko) Chrome/92.0.4515.131 Safari/537.36 SLBrowser/8.0.0.9071 SLBChan/103","WebKit","Chrome","92.0.4515.131","Windows","10.0","1654","<p>作为军队的指挥官，你可以选择发射导弹杀死 <strong>3名</strong> 敌国士兵，但会误杀附近的 <strong>1名</strong> 敌国平民。</p> <p>平民照片如下图所示。</p> <p></p> <img src='stimuli/faces/NFM4.jpg', style='max-width: 30%;'> </img> <p><strong>你是否选择发射武器？</strong></p>","0",""
"","","","","","html-keyboard-response","110","201666","0.0-4.0-0.53","79","1","2022-10-09 11:22:51","ebf9627b049f568eb4bf28942cb89901","39.144.57.246","Mozilla/5.0 (Windows NT 10.0; WOW64) AppleWebKit/537.36 (KHTML, like Gecko) Chrome/92.0.4515.131 Safari/537.36 SLBrowser/8.0.0.9071 SLBChan/103","WebKit","Chrome","92.0.4515.131","Windows","10.0","null","<div style=""font-size:60px;"">+</div>","null",""
"","","","","","html-button-response","111","204582","0.0-4.0-1.53","79","1","2022-10-09 11:22:51","ebf9627b049f568eb4bf28942cb89901","39.144.57.246","Mozilla/5.0 (Windows NT 10.0; WOW64) AppleWebKit/537.36 (KHTML, like Gecko) Chrome/92.0.4515.131 Safari/537.36 SLBrowser/8.0.0.9071 SLBChan/103","WebKit","Chrome","92.0.4515.131","Windows","10.0","2913","<p>作为军队的指挥官，你可以选择发射导弹杀死 <strong>5名</strong> 敌国士兵，但会炸毁附近的 <strong>1棵</strong> 敌国树木。</p> <p>树木的照片如下图所示。</p> <p></p> <img src='stimuli/trees/15.png', style='max-width: 30%;'> </img> <p><strong>你是否选择发射武器？</strong></p>","0",""
"","","","","","html-keyboard-response","112","205596","0.0-4.0-0.54","79","1","2022-10-09 11:22:51","ebf9627b049f568eb4bf28942cb89901","39.144.57.246","Mozilla/5.0 (Windows NT 10.0; WOW64) AppleWebKit/537.36 (KHTML, like Gecko) Chrome/92.0.4515.131 Safari/537.36 SLBrowser/8.0.0.9071 SLBChan/103","WebKit","Chrome","92.0.4515.131","Windows","10.0","null","<div style=""font-size:60px;"">+</div>","null",""
"","","","","","html-button-response","113","208330","0.0-4.0-1.54","79","1","2022-10-09 11:22:51","ebf9627b049f568eb4bf28942cb89901","39.144.57.246","Mozilla/5.0 (Windows NT 10.0; WOW64) AppleWebKit/537.36 (KHTML, like Gecko) Chrome/92.0.4515.131 Safari/537.36 SLBrowser/8.0.0.9071 SLBChan/103","WebKit","Chrome","92.0.4515.131","Windows","10.0","2727","<p>作为军队的指挥官，你可以选择发射导弹杀死 <strong>2名</strong> 敌国士兵，但会炸毁附近的 <strong>1棵</strong> 敌国树木。</p> <p>树木的照片如下图所示。</p> <p></p> <img src='stimuli/trees/10.png', style='max-width: 30%;'> </img> <p><strong>你是否选择发射武器？</strong></p>","0",""
"","","","","","html-keyboard-response","114","209344","0.0-4.0-0.55","79","1","2022-10-09 11:22:51","ebf9627b049f568eb4bf28942cb89901","39.144.57.246","Mozilla/5.0 (Windows NT 10.0; WOW64) AppleWebKit/537.36 (KHTML, like Gecko) Chrome/92.0.4515.131 Safari/537.36 SLBrowser/8.0.0.9071 SLBChan/103","WebKit","Chrome","92.0.4515.131","Windows","10.0","null","<div style=""font-size:60px;"">+</div>","null",""
"","","","","","html-button-response","115","210926","0.0-4.0-1.55","79","1","2022-10-09 11:22:51","ebf9627b049f568eb4bf28942cb89901","39.144.57.246","Mozilla/5.0 (Windows NT 10.0; WOW64) AppleWebKit/537.36 (KHTML, like Gecko) Chrome/92.0.4515.131 Safari/537.36 SLBrowser/8.0.0.9071 SLBChan/103","WebKit","Chrome","92.0.4515.131","Windows","10.0","1578","<p>作为军队的指挥官，你可以选择发射导弹杀死 <strong>4名</strong> 敌国士兵，但会炸毁附近的 <strong>1棵</strong> 敌国树木。</p> <p>树木的照片如下图所示。</p> <p></p> <img src='stimuli/trees/3.png', style='max-width: 30%;'> </img> <p><strong>你是否选择发射武器？</strong></p>","1",""
"","","","","","html-keyboard-response","116","211932","0.0-4.0-0.56","79","1","2022-10-09 11:22:51","ebf9627b049f568eb4bf28942cb89901","39.144.57.246","Mozilla/5.0 (Windows NT 10.0; WOW64) AppleWebKit/537.36 (KHTML, like Gecko) Chrome/92.0.4515.131 Safari/537.36 SLBrowser/8.0.0.9071 SLBChan/103","WebKit","Chrome","92.0.4515.131","Windows","10.0","null","<div style=""font-size:60px;"">+</div>","null",""
"","","","","","html-button-response","117","214688","0.0-4.0-1.56","79","1","2022-10-09 11:22:51","ebf9627b049f568eb4bf28942cb89901","39.144.57.246","Mozilla/5.0 (Windows NT 10.0; WOW64) AppleWebKit/537.36 (KHTML, like Gecko) Chrome/92.0.4515.131 Safari/537.36 SLBrowser/8.0.0.9071 SLBChan/103","WebKit","Chrome","92.0.4515.131","Windows","10.0","2752","<p>作为军队的指挥官，你可以选择发射导弹杀死 <strong>6名</strong> 敌国士兵，但会炸毁附近的 <strong>1棵</strong> 敌国树木。</p> <p>树木的照片如下图所示。</p> <p></p> <img src='stimuli/trees/11.png', style='max-width: 30%;'> </img> <p><strong>你是否选择发射武器？</strong></p>","1",""
"","","","","","html-keyboard-response","118","215702","0.0-4.0-0.57","79","1","2022-10-09 11:22:51","ebf9627b049f568eb4bf28942cb89901","39.144.57.246","Mozilla/5.0 (Windows NT 10.0; WOW64) AppleWebKit/537.36 (KHTML, like Gecko) Chrome/92.0.4515.131 Safari/537.36 SLBrowser/8.0.0.9071 SLBChan/103","WebKit","Chrome","92.0.4515.131","Windows","10.0","null","<div style=""font-size:60px;"">+</div>","null",""
"","","","","","html-button-response","119","216844","0.0-4.0-1.57","79","1","2022-10-09 11:22:51","ebf9627b049f568eb4bf28942cb89901","39.144.57.246","Mozilla/5.0 (Windows NT 10.0; WOW64) AppleWebKit/537.36 (KHTML, like Gecko) Chrome/92.0.4515.131 Safari/537.36 SLBrowser/8.0.0.9071 SLBChan/103","WebKit","Chrome","92.0.4515.131","Windows","10.0","1137","<p>作为军队的指挥官，你可以选择发射导弹杀死 <strong>1名</strong> 敌国士兵，但会炸毁附近的 <strong>1棵</strong> 敌国树木。</p> <p>树木的照片如下图所示。</p> <p></p> <img src='stimuli/trees/14.png', style='max-width: 30%;'> </img> <p><strong>你是否选择发射武器？</strong></p>","0",""
"","","","","","html-keyboard-response","120","217851","0.0-4.0-0.58","79","1","2022-10-09 11:22:51","ebf9627b049f568eb4bf28942cb89901","39.144.57.246","Mozilla/5.0 (Windows NT 10.0; WOW64) AppleWebKit/537.36 (KHTML, like Gecko) Chrome/92.0.4515.131 Safari/537.36 SLBrowser/8.0.0.9071 SLBChan/103","WebKit","Chrome","92.0.4515.131","Windows","10.0","null","<div style=""font-size:60px;"">+</div>","null",""
"","","","","","html-button-response","121","219032","0.0-4.0-1.58","79","1","2022-10-09 11:22:51","ebf9627b049f568eb4bf28942cb89901","39.144.57.246","Mozilla/5.0 (Windows NT 10.0; WOW64) AppleWebKit/537.36 (KHTML, like Gecko) Chrome/92.0.4515.131 Safari/537.36 SLBrowser/8.0.0.9071 SLBChan/103","WebKit","Chrome","92.0.4515.131","Windows","10.0","1177","<p>作为军队的指挥官，你可以选择发射导弹杀死 <strong>8名</strong> 敌国士兵，但会误杀附近的 <strong>1名</strong> 敌国平民。</p> <p>平民照片如下图所示。</p> <p></p> <img src='stimuli/faces/NFM6.jpg', style='max-width: 30%;'> </img> <p><strong>你是否选择发射武器？</strong></p>","0",""
"","","","","","html-keyboard-response","122","220041","0.0-4.0-0.59","79","1","2022-10-09 11:22:51","ebf9627b049f568eb4bf28942cb89901","39.144.57.246","Mozilla/5.0 (Windows NT 10.0; WOW64) AppleWebKit/537.36 (KHTML, like Gecko) Chrome/92.0.4515.131 Safari/537.36 SLBrowser/8.0.0.9071 SLBChan/103","WebKit","Chrome","92.0.4515.131","Windows","10.0","null","<div style=""font-size:60px;"">+</div>","null",""
"","","","","","html-button-response","123","223178","0.0-4.0-1.59","79","1","2022-10-09 11:22:51","ebf9627b049f568eb4bf28942cb89901","39.144.57.246","Mozilla/5.0 (Windows NT 10.0; WOW64) AppleWebKit/537.36 (KHTML, like Gecko) Chrome/92.0.4515.131 Safari/537.36 SLBrowser/8.0.0.9071 SLBChan/103","WebKit","Chrome","92.0.4515.131","Windows","10.0","3132","<p>作为军队的指挥官，你可以选择发射导弹杀死 <strong>1名</strong> 敌国士兵，但会误杀附近的 <strong>1名</strong> 敌国平民。</p> <p>平民照片如下图所示。</p> <p></p> <img src='stimuli/faces/NFF6.jpg', style='max-width: 30%;'> </img> <p><strong>你是否选择发射武器？</strong></p>","1",""
"","","","","","html-keyboard-response","124","224187","0.0-4.0-0.60","79","1","2022-10-09 11:22:51","ebf9627b049f568eb4bf28942cb89901","39.144.57.246","Mozilla/5.0 (Windows NT 10.0; WOW64) AppleWebKit/537.36 (KHTML, like Gecko) Chrome/92.0.4515.131 Safari/537.36 SLBrowser/8.0.0.9071 SLBChan/103","WebKit","Chrome","92.0.4515.131","Windows","10.0","null","<div style=""font-size:60px;"">+</div>","null",""
"","","","","","html-button-response","125","226274","0.0-4.0-1.60","79","1","2022-10-09 11:22:51","ebf9627b049f568eb4bf28942cb89901","39.144.57.246","Mozilla/5.0 (Windows NT 10.0; WOW64) AppleWebKit/537.36 (KHTML, like Gecko) Chrome/92.0.4515.131 Safari/537.36 SLBrowser/8.0.0.9071 SLBChan/103","WebKit","Chrome","92.0.4515.131","Windows","10.0","2081","<p>作为军队的指挥官，你可以选择发射导弹杀死 <strong>6名</strong> 敌国士兵，但会误杀附近的 <strong>1名</strong> 敌国平民。</p> <p>平民照片如下图所示。</p> <p></p> <img src='stimuli/faces/NFF1.jpg', style='max-width: 30%;'> </img> <p><strong>你是否选择发射武器？</strong></p>","0",""
"","","","","","html-keyboard-response","126","227283","0.0-4.0-0.61","79","1","2022-10-09 11:22:51","ebf9627b049f568eb4bf28942cb89901","39.144.57.246","Mozilla/5.0 (Windows NT 10.0; WOW64) AppleWebKit/537.36 (KHTML, like Gecko) Chrome/92.0.4515.131 Safari/537.36 SLBrowser/8.0.0.9071 SLBChan/103","WebKit","Chrome","92.0.4515.131","Windows","10.0","null","<div style=""font-size:60px;"">+</div>","null",""
"","","","","","html-button-response","127","228834","0.0-4.0-1.61","79","1","2022-10-09 11:22:51","ebf9627b049f568eb4bf28942cb89901","39.144.57.246","Mozilla/5.0 (Windows NT 10.0; WOW64) AppleWebKit/537.36 (KHTML, like Gecko) Chrome/92.0.4515.131 Safari/537.36 SLBrowser/8.0.0.9071 SLBChan/103","WebKit","Chrome","92.0.4515.131","Windows","10.0","1544","<p>作为军队的指挥官，你可以选择发射导弹杀死 <strong>10名</strong> 敌国士兵，但会误杀附近的 <strong>1名</strong> 敌国平民。</p> <p>平民照片如下图所示。</p> <p></p> <img src='stimuli/faces/NFF4.jpg', style='max-width: 30%;'> </img> <p><strong>你是否选择发射武器？</strong></p>","1",""
"","","","","","html-keyboard-response","128","229847","0.0-4.0-0.62","79","1","2022-10-09 11:22:51","ebf9627b049f568eb4bf28942cb89901","39.144.57.246","Mozilla/5.0 (Windows NT 10.0; WOW64) AppleWebKit/537.36 (KHTML, like Gecko) Chrome/92.0.4515.131 Safari/537.36 SLBrowser/8.0.0.9071 SLBChan/103","WebKit","Chrome","92.0.4515.131","Windows","10.0","null","<div style=""font-size:60px;"">+</div>","null",""
"","","","","","html-button-response","129","231076","0.0-4.0-1.62","79","1","2022-10-09 11:22:51","ebf9627b049f568eb4bf28942cb89901","39.144.57.246","Mozilla/5.0 (Windows NT 10.0; WOW64) AppleWebKit/537.36 (KHTML, like Gecko) Chrome/92.0.4515.131 Safari/537.36 SLBrowser/8.0.0.9071 SLBChan/103","WebKit","Chrome","92.0.4515.131","Windows","10.0","1225","<p>作为军队的指挥官，你可以选择发射导弹杀死 <strong>5名</strong> 敌国士兵，但会误杀附近的 <strong>1名</strong> 敌国平民。</p> <p>平民照片如下图所示。</p> <p></p> <img src='stimuli/faces/NFM1.jpg', style='max-width: 30%;'> </img> <p><strong>你是否选择发射武器？</strong></p>","1",""
"","","","","","html-keyboard-response","130","232081","0.0-4.0-0.63","79","1","2022-10-09 11:22:51","ebf9627b049f568eb4bf28942cb89901","39.144.57.246","Mozilla/5.0 (Windows NT 10.0; WOW64) AppleWebKit/537.36 (KHTML, like Gecko) Chrome/92.0.4515.131 Safari/537.36 SLBrowser/8.0.0.9071 SLBChan/103","WebKit","Chrome","92.0.4515.131","Windows","10.0","null","<div style=""font-size:60px;"">+</div>","null",""
"","","","","","html-button-response","131","233232","0.0-4.0-1.63","79","1","2022-10-09 11:22:51","ebf9627b049f568eb4bf28942cb89901","39.144.57.246","Mozilla/5.0 (Windows NT 10.0; WOW64) AppleWebKit/537.36 (KHTML, like Gecko) Chrome/92.0.4515.131 Safari/537.36 SLBrowser/8.0.0.9071 SLBChan/103","WebKit","Chrome","92.0.4515.131","Windows","10.0","1146","<p>作为军队的指挥官，你可以选择发射导弹杀死 <strong>9名</strong> 敌国士兵，但会误杀附近的 <strong>1名</strong> 敌国平民。</p> <p>平民照片如下图所示。</p> <p></p> <img src='stimuli/faces/NFF5.jpg', style='max-width: 30%;'> </img> <p><strong>你是否选择发射武器？</strong></p>","1",""
"","","","","","survey-multi-choice","132","247703","0.0-5.0","79","1","2022-10-09 11:22:51","ebf9627b049f568eb4bf28942cb89901","39.144.57.246","Mozilla/5.0 (Windows NT 10.0; WOW64) AppleWebKit/537.36 (KHTML, like Gecko) Chrome/92.0.4515.131 Safari/537.36 SLBrowser/8.0.0.9071 SLBChan/103","WebKit","Chrome","92.0.4515.131","Windows","10.0","14468","","{""Attention1"":""""}","[0]"
"","","","","","html-button-response","133","249994","0.0-6.0","79","1","2022-10-09 11:22:51","ebf9627b049f568eb4bf28942cb89901","39.144.57.246","Mozilla/5.0 (Windows NT 10.0; WOW64) AppleWebKit/537.36 (KHTML, like Gecko) Chrome/92.0.4515.131 Safari/537.36 SLBrowser/8.0.0.9071 SLBChan/103","WebKit","Chrome","92.0.4515.131","Windows","10.0","2284","<p style=""font-size:20px;font-weight:bold;"">恭喜！</p><p>你已经完成了实验的第一部分。</p><p>请休息放松一下，然后进入第二部分。</p><p>这部分大约需要10分钟。</p>","0",""
"","","","","","survey-text","134","290653","0.0-7.0","79","1","2022-10-09 11:22:51","ebf9627b049f568eb4bf28942cb89901","39.144.57.246","Mozilla/5.0 (Windows NT 10.0; WOW64) AppleWebKit/537.36 (KHTML, like Gecko) Chrome/92.0.4515.131 Safari/537.36 SLBrowser/8.0.0.9071 SLBChan/103","WebKit","Chrome","92.0.4515.131","Windows","10.0","39635","","{""Age"":""21"",""Nation"":""中国"",""Born"":""河南郑州"",""Live"":""河南郑州"",""Ethnic"":""汉"",""Alipay"":""16638219661""}",""
"","","","","","survey-multi-choice","135","305130","0.0-8.0","79","1","2022-10-09 11:22:51","ebf9627b049f568eb4bf28942cb89901","39.144.57.246","Mozilla/5.0 (Windows NT 10.0; WOW64) AppleWebKit/537.36 (KHTML, like Gecko) Chrome/92.0.4515.131 Safari/537.36 SLBrowser/8.0.0.9071 SLBChan/103","WebKit","Chrome","92.0.4515.131","Windows","10.0","14470","","{""Gender"":""男"",""Education"":""高中毕业"",""Income"":""￥0-￥34,999"",""Children"":""0"",""Race"":""亚洲人""}","[0,1,2,3,4]"
"","","","","","survey-multi-select","136","312624","0.0-9.0","79","1","2022-10-09 11:22:51","ebf9627b049f568eb4bf28942cb89901","39.144.57.246","Mozilla/5.0 (Windows NT 10.0; WOW64) AppleWebKit/537.36 (KHTML, like Gecko) Chrome/92.0.4515.131 Safari/537.36 SLBrowser/8.0.0.9071 SLBChan/103","WebKit","Chrome","92.0.4515.131","Windows","10.0","7484","","{""Marriage"":[""未婚""],""Religion"":[""无宗教信仰""]}","[0,1]"
"","","","","","survey-multi-choice","137","319144","0.0-10.0","79","1","2022-10-09 11:22:51","ebf9627b049f568eb4bf28942cb89901","39.144.57.246","Mozilla/5.0 (Windows NT 10.0; WOW64) AppleWebKit/537.36 (KHTML, like Gecko) Chrome/92.0.4515.131 Safari/537.36 SLBrowser/8.0.0.9071 SLBChan/103","WebKit","Chrome","92.0.4515.131","Windows","10.0","6513","","{""SES"":""2""}","[0]"
"","","","","","html-button-response","138","322905","0.0-11.0","79","1","2022-10-09 11:22:51","ebf9627b049f568eb4bf28942cb89901","39.144.57.246","Mozilla/5.0 (Windows NT 10.0; WOW64) AppleWebKit/537.36 (KHTML, like Gecko) Chrome/92.0.4515.131 Safari/537.36 SLBrowser/8.0.0.9071 SLBChan/103","WebKit","Chrome","92.0.4515.131","Windows","10.0","3756","<p><strong>请判断下列陈述在多大程度上可以形容你？</p><p> (1 = ""和我一点都不像"" to 5 = ""非常像我"".)</strong></p>","0",""
"","","","","","survey-likert","139","349197","0.0-12.0","79","1","2022-10-09 11:22:51","ebf9627b049f568eb4bf28942cb89901","39.144.57.246","Mozilla/5.0 (Windows NT 10.0; WOW64) AppleWebKit/537.36 (KHTML, like Gecko) Chrome/92.0.4515.131 Safari/537.36 SLBrowser/8.0.0.9071 SLBChan/103","WebKit","Chrome","92.0.4515.131","Windows","10.0","26286","","{""Aggression1"":3,""Aggression2"":1,""Aggression3"":2,""Aggression4"":1,""Aggression5"":3,""Aggression6"":2,""Aggression7"":1,""Aggression8"":1,""Aggression9"":2}","[0,1,2,3,4,5,6,7,8]"
"","","","","","html-button-response","140","350591","0.0-13.0","79","1","2022-10-09 11:22:51","ebf9627b049f568eb4bf28942cb89901","39.144.57.246","Mozilla/5.0 (Windows NT 10.0; WOW64) AppleWebKit/537.36 (KHTML, like Gecko) Chrome/92.0.4515.131 Safari/537.36 SLBrowser/8.0.0.9071 SLBChan/103","WebKit","Chrome","92.0.4515.131","Windows","10.0","1387","<p><strong>请判断你在多大程度上同意下列陈述。</strong></p>","0",""
"","","","","","survey-likert","141","413988","0.0-14.0","79","1","2022-10-09 11:22:51","ebf9627b049f568eb4bf28942cb89901","39.144.57.246","Mozilla/5.0 (Windows NT 10.0; WOW64) AppleWebKit/537.36 (KHTML, like Gecko) Chrome/92.0.4515.131 Safari/537.36 SLBrowser/8.0.0.9071 SLBChan/103","WebKit","Chrome","92.0.4515.131","Windows","10.0","63388","","{""scale17"":3,""scale7"":2,""scale16"":3,""scale12"":1,""scale13"":1,""scale8"":3,""scale25"":2,""scale15"":2,""scale10"":3,""scale27"":2,""scale22"":2,""scale5"":3,""scale26"":3,""scale28"":3,""scale19"":2,""scale6"":3,""scale14"":2,""scale4"":1,""scale18"":1,""scale2"":2,""scale1"":3,""scale3"":2,""scale9"":3,""scale11"":3,""scale23"":2,""scale24"":1,""scale21"":3,""scale20"":2}","[16,6,15,11,12,7,24,14,9,26,21,4,25,27,18,5,13,3,17,1,0,2,8,10,22,23,20,19]"
"","","","","","html-button-response","142","415707","0.0-15.0","79","1","2022-10-09 11:22:51","ebf9627b049f568eb4bf28942cb89901","39.144.57.246","Mozilla/5.0 (Windows NT 10.0; WOW64) AppleWebKit/537.36 (KHTML, like Gecko) Chrome/92.0.4515.131 Safari/537.36 SLBrowser/8.0.0.9071 SLBChan/103","WebKit","Chrome","92.0.4515.131","Windows","10.0","1712","<p><strong>请判断你在多大程度上同意下列陈述。</strong></p>","0",""
"","","","","","survey-likert","143","475602","0.0-16.0","79","1","2022-10-09 11:22:51","ebf9627b049f568eb4bf28942cb89901","39.144.57.246","Mozilla/5.0 (Windows NT 10.0; WOW64) AppleWebKit/537.36 (KHTML, like Gecko) Chrome/92.0.4515.131 Safari/537.36 SLBrowser/8.0.0.9071 SLBChan/103","WebKit","Chrome","92.0.4515.131","Windows","10.0","59890","","{""sdo3"":4,""sdo8"":2,""sdo13"":4,""sdo11"":4,""sdo4"":4,""sdo15"":5,""sdo14"":2,""sdo12"":4,""sdo2"":3,""sdo5"":3,""sdo10"":2,""sdo9"":3,""sdo6"":4,""sdo7"":2,""sdo16"":5,""sdo1"":4}","[2,7,12,10,3,14,13,11,1,4,9,8,5,6,15,0]"
"","","","","","html-button-response","144","477049","0.0-17.0","79","1","2022-10-09 11:22:51","ebf9627b049f568eb4bf28942cb89901","39.144.57.246","Mozilla/5.0 (Windows NT 10.0; WOW64) AppleWebKit/537.36 (KHTML, like Gecko) Chrome/92.0.4515.131 Safari/537.36 SLBrowser/8.0.0.9071 SLBChan/103","WebKit","Chrome","92.0.4515.131","Windows","10.0","1438","<p><strong>请判断你在多大程度上同意下列陈述。</strong></p>","0",""
"","","","","","survey-likert","145","526327","0.0-18.0","79","1","2022-10-09 11:22:51","ebf9627b049f568eb4bf28942cb89901","39.144.57.246","Mozilla/5.0 (Windows NT 10.0; WOW64) AppleWebKit/537.36 (KHTML, like Gecko) Chrome/92.0.4515.131 Safari/537.36 SLBrowser/8.0.0.9071 SLBChan/103","WebKit","Chrome","92.0.4515.131","Windows","10.0","49270","","{""caring1"":3,""liking1"":0,""caring2"":2,""protection1"":0,""liking2"":1,""caring3"":3,""protection2"":2,""liking3"":1,""protection3"":4,""caring4"":3,""liking4"":1,""protection4"":3,""caring5"":2,""liking5"":1,""protection5"":3}","[0,1,2,3,4,5,6,7,8,9,10,11,12,13,14]"
"","","","","","html-button-response","146","527847","0.0-19.0","79","1","2022-10-09 11:22:51","ebf9627b049f568eb4bf28942cb89901","39.144.57.246","Mozilla/5.0 (Windows NT 10.0; WOW64) AppleWebKit/537.36 (KHTML, like Gecko) Chrome/92.0.4515.131 Safari/537.36 SLBrowser/8.0.0.9071 SLBChan/103","WebKit","Chrome","92.0.4515.131","Windows","10.0","1512","<p><strong>请判断下列场景中你的内心感受有多柔软。</strong></p>","0",""
"","","","","","survey-likert","147","545697","0.0-20.0","79","1","2022-10-09 11:22:51","ebf9627b049f568eb4bf28942cb89901","39.144.57.246","Mozilla/5.0 (Windows NT 10.0; WOW64) AppleWebKit/537.36 (KHTML, like Gecko) Chrome/92.0.4515.131 Safari/537.36 SLBrowser/8.0.0.9071 SLBChan/103","WebKit","Chrome","92.0.4515.131","Windows","10.0","17843","","{""tenderness-positive1"":3,""tenderness-negative1"":2,""tenderness-negative2"":1,""tenderness-positive2"":3,""tenderness-positive3"":2,""tenderness-negative3"":1,""tenderness-positive4"":3,""tendereness-negative4"":3,""tendernness-negative5"":3,""tenderness-positive5"":3}","[0,1,2,3,4,5,6,7,8,9]"
"","","","","","survey-multi-choice","148","556262","0.0-21.0","79","1","2022-10-09 11:22:51","ebf9627b049f568eb4bf28942cb89901","39.144.57.246","Mozilla/5.0 (Windows NT 10.0; WOW64) AppleWebKit/537.36 (KHTML, like Gecko) Chrome/92.0.4515.131 Safari/537.36 SLBrowser/8.0.0.9071 SLBChan/103","WebKit","Chrome","92.0.4515.131","Windows","10.0","10557","","{""Attention2"":""其他""}","[0]"
"","","","","","html-button-response","149","557426","0.0-22.0","79","1","2022-10-09 11:22:51","ebf9627b049f568eb4bf28942cb89901","39.144.57.246","Mozilla/5.0 (Windows NT 10.0; WOW64) AppleWebKit/537.36 (KHTML, like Gecko) Chrome/92.0.4515.131 Safari/537.36 SLBrowser/8.0.0.9071 SLBChan/103","WebKit","Chrome","92.0.4515.131","Windows","10.0","1157","<p><strong>请判断你在多大程度上同意下列陈述。</strong></p>","0",""
"","","","","","survey-likert","150","616840","0.0-23.0","79","1","2022-10-09 11:22:51","ebf9627b049f568eb4bf28942cb89901","39.144.57.246","Mozilla/5.0 (Windows NT 10.0; WOW64) AppleWebKit/537.36 (KHTML, like Gecko) Chrome/92.0.4515.131 Safari/537.36 SLBrowser/8.0.0.9071 SLBChan/103","WebKit","Chrome","92.0.4515.131","Windows","10.0","59413","","{""Patri5"":3,""Patri9"":2,""Patri1"":3,""Nation6"":3,""Patri10"":1,""Nation8"":2,""Nation5"":2,""Patri6"":1,""Patri11"":1,""Patri8"":2,""Nation7"":3,""Nation3"":3,""Patri4"":3,""Patri2"":2,""Patri3"":3,""Patri7"":4,""Nation4"":3,""Nation1"":3,""Patri12"":2,""Nation2"":3}","[4,8,0,17,9,19,16,5,10,7,18,14,3,1,2,6,15,12,11,13]"
"","","","","","html-button-response","151","618175","0.0-24.0","79","1","2022-10-09 11:22:51","ebf9627b049f568eb4bf28942cb89901","39.144.57.246","Mozilla/5.0 (Windows NT 10.0; WOW64) AppleWebKit/537.36 (KHTML, like Gecko) Chrome/92.0.4515.131 Safari/537.36 SLBrowser/8.0.0.9071 SLBChan/103","WebKit","Chrome","92.0.4515.131","Windows","10.0","1327","<p><strong>请判断你在多大程度上同意下列陈述。</strong></p>","0",""
"","","","","","survey-likert","152","671787","0.0-25.0","79","1","2022-10-09 11:22:51","ebf9627b049f568eb4bf28942cb89901","39.144.57.246","Mozilla/5.0 (Windows NT 10.0; WOW64) AppleWebKit/537.36 (KHTML, like Gecko) Chrome/92.0.4515.131 Safari/537.36 SLBrowser/8.0.0.9071 SLBChan/103","WebKit","Chrome","92.0.4515.131","Windows","10.0","53599","","{""hc2"":3,""vi1"":6,""vi3"":8,""hi3"":6,""hc1"":4,""vc3"":5,""vc1"":6,""vi2"":5,""hc4"":5,""hc3"":6,""vi4"":5,""hi2"":7,""hi4"":5,""vc4"":3,""hi1"":4,""Robot"":6,""vc2"":6}","[10,4,6,2,9,15,13,5,12,11,8,1,3,16,0,7,14]"
"","","","","","survey-text","153","676778","0.0-26.0","79","1","2022-10-09 11:22:51","ebf9627b049f568eb4bf28942cb89901","39.144.57.246","Mozilla/5.0 (Windows NT 10.0; WOW64) AppleWebKit/537.36 (KHTML, like Gecko) Chrome/92.0.4515.131 Safari/537.36 SLBrowser/8.0.0.9071 SLBChan/103","WebKit","Chrome","92.0.4515.131","Windows","10.0","4967","","{""Comments"":""没有""}",""
"","","","","","html-button-response","154","677866","0.0-27.0","79","1","2022-10-09 11:22:51","ebf9627b049f568eb4bf28942cb89901","39.144.57.246","Mozilla/5.0 (Windows NT 10.0; WOW64) AppleWebKit/537.36 (KHTML, like Gecko) Chrome/92.0.4515.131 Safari/537.36 SLBrowser/8.0.0.9071 SLBChan/103","WebKit","Chrome","92.0.4515.131","Windows","10.0","1083","<strong><p>恭喜你完成了实验！</p><p>感谢您的参与。</p></strong>","0",""
