"success","timeout","failed_images","failed_audio","failed_video","trial_type","trial_index","time_elapsed","internal_node_id","run_id","condition","recorded_at","source_code_version","ip","user_agent","device","browser","browser_version","platform","platform_version","rt","stimulus","response","question_order"
"true","false","[]","[]","[]","preload","0","3187","0.0-0.0","8","1","2022-10-07 05:58:19","ebf9627b049f568eb4bf28942cb89901","223.104.11.59","Mozilla/5.0 (Linux; Android 11; RMX1901 Build/RKQ1.201217.002; wv) AppleWebKit/537.36 (KHTML, like Gecko) Version/4.0 Chrome/86.0.4240.99 XWEB/4317 MMWEBSDK/20220604 Mobile Safari/537.36 MMWEBID/6272 MicroMessenger/8.0.24.2180(0x28001837) WeChat/arm64 Weixin NetType/4G Language/zh_CN ABI/arm64","WebKit","Chrome","86.0.4240.99","AndroidOS","11","","","",""
"true","","","","","fullscreen","1","5335","0.0-1.0","8","1","2022-10-07 05:58:19","ebf9627b049f568eb4bf28942cb89901","223.104.11.59","Mozilla/5.0 (Linux; Android 11; RMX1901 Build/RKQ1.201217.002; wv) AppleWebKit/537.36 (KHTML, like Gecko) Version/4.0 Chrome/86.0.4240.99 XWEB/4317 MMWEBSDK/20220604 Mobile Safari/537.36 MMWEBID/6272 MicroMessenger/8.0.24.2180(0x28001837) WeChat/arm64 Weixin NetType/4G Language/zh_CN ABI/arm64","WebKit","Chrome","86.0.4240.99","AndroidOS","11","","","",""
"","","","","","html-button-response","2","11446","0.0-2.0","8","1","2022-10-07 05:58:19","ebf9627b049f568eb4bf28942cb89901","223.104.11.59","Mozilla/5.0 (Linux; Android 11; RMX1901 Build/RKQ1.201217.002; wv) AppleWebKit/537.36 (KHTML, like Gecko) Version/4.0 Chrome/86.0.4240.99 XWEB/4317 MMWEBSDK/20220604 Mobile Safari/537.36 MMWEBID/6272 MicroMessenger/8.0.24.2180(0x28001837) WeChat/arm64 Weixin NetType/4G Language/zh_CN ABI/arm64","WebKit","Chrome","86.0.4240.99","AndroidOS","11","6094","<p style=""font-size:20px;font-weight:bold;"">实验知情同意书</p><p style=""text-align:left;""><strong>实验名称：</strong>社会冲突研究</p><p style=""text-align:left;""><strong>主要研究者：</strong>韩晓春副教授（北京师范大学心理学部）</p><p style=""text-align:left;""><strong>联系方式：</strong>发送邮件至xiaochun.han@bnu.edu.cn</p><p style=""text-align:left;""><strong>研究目的：</strong>研究旨在了解人类面对群体冲突时的决策方式，以及相关的心理学特质。实验调查大约需要20分钟。</p><p style=""text-align:left;""><strong>实验流程：</strong>实验包含两部分。第一部分呈现一系列群体冲突场景，请你决定如何对这些冲突进行反应，大约需要10分钟完成。第二部分包含一系列人口统计学信息收集和心理学问卷，大约需要10分钟完成。</p><p style=""text-align:left;""><strong>参加及退出规则：</strong>参加本实验完全取决于您的个人意愿。在参与过程中，您可以随时退出，并且不用承担任何后果。</p><p style=""text-align:left;""><strong>隐私：</strong>本实验完全匿名进行，不会收集您的姓名或其他能够识别您身份的信息。实验中收集的作答仅用作科学研究使用，可能会在学术期刊/书籍上发表，或者用于教学，您的数据未来可能会和其他研究者或实验室分享，但您的个人身份不会被识别。</p><p style=""text-align:left;""><strong>实验报酬：</strong>实验完成后，您将获得15元人民币报酬，以感谢您的时间和努力。调查问卷中包含几道题目用以测验您作答时的认真度。只有完成全部实验，并且正确回答认真度测验的被试才能获得实验报酬。实验报酬将通过支付宝转账发放。</p><p style=""text-align:left;font-size:20px;""><strong>如果您同意以上实验知情同意书的内容，请点击'同意并且开始实验'按钮；否则请关闭浏览器界面，退出实验。</strong></p>","0",""
"","","","","","html-button-response","3","16736","0.0-3.0","8","1","2022-10-07 05:58:19","ebf9627b049f568eb4bf28942cb89901","223.104.11.59","Mozilla/5.0 (Linux; Android 11; RMX1901 Build/RKQ1.201217.002; wv) AppleWebKit/537.36 (KHTML, like Gecko) Version/4.0 Chrome/86.0.4240.99 XWEB/4317 MMWEBSDK/20220604 Mobile Safari/537.36 MMWEBID/6272 MicroMessenger/8.0.24.2180(0x28001837) WeChat/arm64 Weixin NetType/4G Language/zh_CN ABI/arm64","WebKit","Chrome","86.0.4240.99","AndroidOS","11","5276","<p ><strong>实验任务一：</strong></p><p>请想象你的国家与另一个国家发生了军事冲突。</p><p>你是国家军队的指挥官，你将如何在冲突中进行决策。</p><p>具体来说，作为军队指挥官，请你决定是否发射导弹进行打击。</p><p>接下来，你会面对一系列场景，请仔细阅读每个场景，然后进行决策。</p><p>这部分实验任务大约需要10分钟。</p><p><strong>实验过程中，请集中注意力。</strong></p>","0",""
"","","","","","html-keyboard-response","4","17749","0.0-4.0-0.0","8","1","2022-10-07 05:58:19","ebf9627b049f568eb4bf28942cb89901","223.104.11.59","Mozilla/5.0 (Linux; Android 11; RMX1901 Build/RKQ1.201217.002; wv) AppleWebKit/537.36 (KHTML, like Gecko) Version/4.0 Chrome/86.0.4240.99 XWEB/4317 MMWEBSDK/20220604 Mobile Safari/537.36 MMWEBID/6272 MicroMessenger/8.0.24.2180(0x28001837) WeChat/arm64 Weixin NetType/4G Language/zh_CN ABI/arm64","WebKit","Chrome","86.0.4240.99","AndroidOS","11","null","<div style=""font-size:60px;"">+</div>","null",""
"","","","","","html-button-response","5","24341","0.0-4.0-1.0","8","1","2022-10-07 05:58:19","ebf9627b049f568eb4bf28942cb89901","223.104.11.59","Mozilla/5.0 (Linux; Android 11; RMX1901 Build/RKQ1.201217.002; wv) AppleWebKit/537.36 (KHTML, like Gecko) Version/4.0 Chrome/86.0.4240.99 XWEB/4317 MMWEBSDK/20220604 Mobile Safari/537.36 MMWEBID/6272 MicroMessenger/8.0.24.2180(0x28001837) WeChat/arm64 Weixin NetType/4G Language/zh_CN ABI/arm64","WebKit","Chrome","86.0.4240.99","AndroidOS","11","6570","<p>作为军队的指挥官，你可以选择发射导弹杀死 <strong>3名</strong> 敌国士兵，但会误杀附近的 <strong>1名</strong> 敌国平民。</p> <p>平民照片如下图所示。</p> <p></p> <img src='stimuli/faces/NFF2.jpg', style='max-width: 30%;'> </img> <p><strong>你是否选择发射武器？</strong></p>","0",""
"","","","","","html-keyboard-response","6","25357","0.0-4.0-0.1","8","1","2022-10-07 05:58:19","ebf9627b049f568eb4bf28942cb89901","223.104.11.59","Mozilla/5.0 (Linux; Android 11; RMX1901 Build/RKQ1.201217.002; wv) AppleWebKit/537.36 (KHTML, like Gecko) Version/4.0 Chrome/86.0.4240.99 XWEB/4317 MMWEBSDK/20220604 Mobile Safari/537.36 MMWEBID/6272 MicroMessenger/8.0.24.2180(0x28001837) WeChat/arm64 Weixin NetType/4G Language/zh_CN ABI/arm64","WebKit","Chrome","86.0.4240.99","AndroidOS","11","null","<div style=""font-size:60px;"">+</div>","null",""
"","","","","","html-button-response","7","28661","0.0-4.0-1.1","8","1","2022-10-07 05:58:19","ebf9627b049f568eb4bf28942cb89901","223.104.11.59","Mozilla/5.0 (Linux; Android 11; RMX1901 Build/RKQ1.201217.002; wv) AppleWebKit/537.36 (KHTML, like Gecko) Version/4.0 Chrome/86.0.4240.99 XWEB/4317 MMWEBSDK/20220604 Mobile Safari/537.36 MMWEBID/6272 MicroMessenger/8.0.24.2180(0x28001837) WeChat/arm64 Weixin NetType/4G Language/zh_CN ABI/arm64","WebKit","Chrome","86.0.4240.99","AndroidOS","11","3282","<p>作为军队的指挥官，你可以选择发射导弹杀死 <strong>9名</strong> 敌国士兵，但会误杀附近的 <strong>1名</strong> 敌国平民。</p> <p>平民照片如下图所示。</p> <p></p> <img src='stimuli/faces/NFM2.jpg', style='max-width: 30%;'> </img> <p><strong>你是否选择发射武器？</strong></p>","0",""
"","","","","","html-keyboard-response","8","29676","0.0-4.0-0.2","8","1","2022-10-07 05:58:19","ebf9627b049f568eb4bf28942cb89901","223.104.11.59","Mozilla/5.0 (Linux; Android 11; RMX1901 Build/RKQ1.201217.002; wv) AppleWebKit/537.36 (KHTML, like Gecko) Version/4.0 Chrome/86.0.4240.99 XWEB/4317 MMWEBSDK/20220604 Mobile Safari/537.36 MMWEBID/6272 MicroMessenger/8.0.24.2180(0x28001837) WeChat/arm64 Weixin NetType/4G Language/zh_CN ABI/arm64","WebKit","Chrome","86.0.4240.99","AndroidOS","11","null","<div style=""font-size:60px;"">+</div>","null",""
"","","","","","html-button-response","9","31473","0.0-4.0-1.2","8","1","2022-10-07 05:58:19","ebf9627b049f568eb4bf28942cb89901","223.104.11.59","Mozilla/5.0 (Linux; Android 11; RMX1901 Build/RKQ1.201217.002; wv) AppleWebKit/537.36 (KHTML, like Gecko) Version/4.0 Chrome/86.0.4240.99 XWEB/4317 MMWEBSDK/20220604 Mobile Safari/537.36 MMWEBID/6272 MicroMessenger/8.0.24.2180(0x28001837) WeChat/arm64 Weixin NetType/4G Language/zh_CN ABI/arm64","WebKit","Chrome","86.0.4240.99","AndroidOS","11","1767","<p>作为军队的指挥官，你可以选择发射导弹杀死 <strong>3名</strong> 敌国士兵，但会炸毁附近的 <strong>1棵</strong> 敌国树木。</p> <p>树木的照片如下图所示。</p> <p></p> <img src='stimuli/trees/10.png', style='max-width: 30%;'> </img> <p><strong>你是否选择发射武器？</strong></p>","0",""
"","","","","","html-keyboard-response","10","32491","0.0-4.0-0.3","8","1","2022-10-07 05:58:19","ebf9627b049f568eb4bf28942cb89901","223.104.11.59","Mozilla/5.0 (Linux; Android 11; RMX1901 Build/RKQ1.201217.002; wv) AppleWebKit/537.36 (KHTML, like Gecko) Version/4.0 Chrome/86.0.4240.99 XWEB/4317 MMWEBSDK/20220604 Mobile Safari/537.36 MMWEBID/6272 MicroMessenger/8.0.24.2180(0x28001837) WeChat/arm64 Weixin NetType/4G Language/zh_CN ABI/arm64","WebKit","Chrome","86.0.4240.99","AndroidOS","11","null","<div style=""font-size:60px;"">+</div>","null",""
"","","","","","html-button-response","11","36172","0.0-4.0-1.3","8","1","2022-10-07 05:58:19","ebf9627b049f568eb4bf28942cb89901","223.104.11.59","Mozilla/5.0 (Linux; Android 11; RMX1901 Build/RKQ1.201217.002; wv) AppleWebKit/537.36 (KHTML, like Gecko) Version/4.0 Chrome/86.0.4240.99 XWEB/4317 MMWEBSDK/20220604 Mobile Safari/537.36 MMWEBID/6272 MicroMessenger/8.0.24.2180(0x28001837) WeChat/arm64 Weixin NetType/4G Language/zh_CN ABI/arm64","WebKit","Chrome","86.0.4240.99","AndroidOS","11","3657","<p>作为军队的指挥官，你可以选择发射导弹杀死 <strong>7名</strong> 敌国士兵，但会误杀附近的 <strong>1名</strong> 敌国平民。</p> <p>平民照片如下图所示。</p> <p></p> <img src='stimuli/faces/NFF6.jpg', style='max-width: 30%;'> </img> <p><strong>你是否选择发射武器？</strong></p>","0",""
"","","","","","html-keyboard-response","12","37187","0.0-4.0-0.4","8","1","2022-10-07 05:58:19","ebf9627b049f568eb4bf28942cb89901","223.104.11.59","Mozilla/5.0 (Linux; Android 11; RMX1901 Build/RKQ1.201217.002; wv) AppleWebKit/537.36 (KHTML, like Gecko) Version/4.0 Chrome/86.0.4240.99 XWEB/4317 MMWEBSDK/20220604 Mobile Safari/537.36 MMWEBID/6272 MicroMessenger/8.0.24.2180(0x28001837) WeChat/arm64 Weixin NetType/4G Language/zh_CN ABI/arm64","WebKit","Chrome","86.0.4240.99","AndroidOS","11","null","<div style=""font-size:60px;"">+</div>","null",""
"","","","","","html-button-response","13","38811","0.0-4.0-1.4","8","1","2022-10-07 05:58:19","ebf9627b049f568eb4bf28942cb89901","223.104.11.59","Mozilla/5.0 (Linux; Android 11; RMX1901 Build/RKQ1.201217.002; wv) AppleWebKit/537.36 (KHTML, like Gecko) Version/4.0 Chrome/86.0.4240.99 XWEB/4317 MMWEBSDK/20220604 Mobile Safari/537.36 MMWEBID/6272 MicroMessenger/8.0.24.2180(0x28001837) WeChat/arm64 Weixin NetType/4G Language/zh_CN ABI/arm64","WebKit","Chrome","86.0.4240.99","AndroidOS","11","1590","<p>作为军队的指挥官，你可以选择发射导弹杀死 <strong>9名</strong> 敌国士兵，但会炸毁附近的 <strong>1棵</strong> 敌国树木。</p> <p>树木的照片如下图所示。</p> <p></p> <img src='stimuli/trees/2.png', style='max-width: 30%;'> </img> <p><strong>你是否选择发射武器？</strong></p>","0",""
"","","","","","html-keyboard-response","14","39826","0.0-4.0-0.5","8","1","2022-10-07 05:58:19","ebf9627b049f568eb4bf28942cb89901","223.104.11.59","Mozilla/5.0 (Linux; Android 11; RMX1901 Build/RKQ1.201217.002; wv) AppleWebKit/537.36 (KHTML, like Gecko) Version/4.0 Chrome/86.0.4240.99 XWEB/4317 MMWEBSDK/20220604 Mobile Safari/537.36 MMWEBID/6272 MicroMessenger/8.0.24.2180(0x28001837) WeChat/arm64 Weixin NetType/4G Language/zh_CN ABI/arm64","WebKit","Chrome","86.0.4240.99","AndroidOS","11","null","<div style=""font-size:60px;"">+</div>","null",""
"","","","","","html-button-response","15","41603","0.0-4.0-1.5","8","1","2022-10-07 05:58:19","ebf9627b049f568eb4bf28942cb89901","223.104.11.59","Mozilla/5.0 (Linux; Android 11; RMX1901 Build/RKQ1.201217.002; wv) AppleWebKit/537.36 (KHTML, like Gecko) Version/4.0 Chrome/86.0.4240.99 XWEB/4317 MMWEBSDK/20220604 Mobile Safari/537.36 MMWEBID/6272 MicroMessenger/8.0.24.2180(0x28001837) WeChat/arm64 Weixin NetType/4G Language/zh_CN ABI/arm64","WebKit","Chrome","86.0.4240.99","AndroidOS","11","1752","<p>作为军队的指挥官，你可以选择发射导弹杀死 <strong>1名</strong> 敌国士兵，但会误杀附近的 <strong>1名</strong> 敌国平民。</p> <p>平民照片如下图所示。</p> <p></p> <img src='stimuli/faces/NFF1.jpg', style='max-width: 30%;'> </img> <p><strong>你是否选择发射武器？</strong></p>","1",""
"","","","","","html-keyboard-response","16","42611","0.0-4.0-0.6","8","1","2022-10-07 05:58:19","ebf9627b049f568eb4bf28942cb89901","223.104.11.59","Mozilla/5.0 (Linux; Android 11; RMX1901 Build/RKQ1.201217.002; wv) AppleWebKit/537.36 (KHTML, like Gecko) Version/4.0 Chrome/86.0.4240.99 XWEB/4317 MMWEBSDK/20220604 Mobile Safari/537.36 MMWEBID/6272 MicroMessenger/8.0.24.2180(0x28001837) WeChat/arm64 Weixin NetType/4G Language/zh_CN ABI/arm64","WebKit","Chrome","86.0.4240.99","AndroidOS","11","null","<div style=""font-size:60px;"">+</div>","null",""
"","","","","","html-button-response","17","44022","0.0-4.0-1.6","8","1","2022-10-07 05:58:19","ebf9627b049f568eb4bf28942cb89901","223.104.11.59","Mozilla/5.0 (Linux; Android 11; RMX1901 Build/RKQ1.201217.002; wv) AppleWebKit/537.36 (KHTML, like Gecko) Version/4.0 Chrome/86.0.4240.99 XWEB/4317 MMWEBSDK/20220604 Mobile Safari/537.36 MMWEBID/6272 MicroMessenger/8.0.24.2180(0x28001837) WeChat/arm64 Weixin NetType/4G Language/zh_CN ABI/arm64","WebKit","Chrome","86.0.4240.99","AndroidOS","11","1391","<p>作为军队的指挥官，你可以选择发射导弹杀死 <strong>4名</strong> 敌国士兵，但会炸毁附近的 <strong>1棵</strong> 敌国树木。</p> <p>树木的照片如下图所示。</p> <p></p> <img src='stimuli/trees/3.png', style='max-width: 30%;'> </img> <p><strong>你是否选择发射武器？</strong></p>","0",""
"","","","","","html-keyboard-response","18","45032","0.0-4.0-0.7","8","1","2022-10-07 05:58:19","ebf9627b049f568eb4bf28942cb89901","223.104.11.59","Mozilla/5.0 (Linux; Android 11; RMX1901 Build/RKQ1.201217.002; wv) AppleWebKit/537.36 (KHTML, like Gecko) Version/4.0 Chrome/86.0.4240.99 XWEB/4317 MMWEBSDK/20220604 Mobile Safari/537.36 MMWEBID/6272 MicroMessenger/8.0.24.2180(0x28001837) WeChat/arm64 Weixin NetType/4G Language/zh_CN ABI/arm64","WebKit","Chrome","86.0.4240.99","AndroidOS","11","null","<div style=""font-size:60px;"">+</div>","null",""
"","","","","","html-button-response","19","56369","0.0-4.0-1.7","8","1","2022-10-07 05:58:19","ebf9627b049f568eb4bf28942cb89901","223.104.11.59","Mozilla/5.0 (Linux; Android 11; RMX1901 Build/RKQ1.201217.002; wv) AppleWebKit/537.36 (KHTML, like Gecko) Version/4.0 Chrome/86.0.4240.99 XWEB/4317 MMWEBSDK/20220604 Mobile Safari/537.36 MMWEBID/6272 MicroMessenger/8.0.24.2180(0x28001837) WeChat/arm64 Weixin NetType/4G Language/zh_CN ABI/arm64","WebKit","Chrome","86.0.4240.99","AndroidOS","11","11324","<p>作为军队的指挥官，你可以选择发射导弹杀死 <strong>8名</strong> 敌国士兵，但会误杀附近的 <strong>1名</strong> 敌国平民。</p> <p>平民照片如下图所示。</p> <p></p> <img src='stimuli/faces/NFM1.jpg', style='max-width: 30%;'> </img> <p><strong>你是否选择发射武器？</strong></p>","0",""
"","","","","","html-keyboard-response","20","57384","0.0-4.0-0.8","8","1","2022-10-07 05:58:19","ebf9627b049f568eb4bf28942cb89901","223.104.11.59","Mozilla/5.0 (Linux; Android 11; RMX1901 Build/RKQ1.201217.002; wv) AppleWebKit/537.36 (KHTML, like Gecko) Version/4.0 Chrome/86.0.4240.99 XWEB/4317 MMWEBSDK/20220604 Mobile Safari/537.36 MMWEBID/6272 MicroMessenger/8.0.24.2180(0x28001837) WeChat/arm64 Weixin NetType/4G Language/zh_CN ABI/arm64","WebKit","Chrome","86.0.4240.99","AndroidOS","11","null","<div style=""font-size:60px;"">+</div>","null",""
"","","","","","html-button-response","21","70794","0.0-4.0-1.8","8","1","2022-10-07 05:58:19","ebf9627b049f568eb4bf28942cb89901","223.104.11.59","Mozilla/5.0 (Linux; Android 11; RMX1901 Build/RKQ1.201217.002; wv) AppleWebKit/537.36 (KHTML, like Gecko) Version/4.0 Chrome/86.0.4240.99 XWEB/4317 MMWEBSDK/20220604 Mobile Safari/537.36 MMWEBID/6272 MicroMessenger/8.0.24.2180(0x28001837) WeChat/arm64 Weixin NetType/4G Language/zh_CN ABI/arm64","WebKit","Chrome","86.0.4240.99","AndroidOS","11","13385","<p>作为军队的指挥官，你可以选择发射导弹杀死 <strong>7名</strong> 敌国士兵，但会炸毁附近的 <strong>1棵</strong> 敌国树木。</p> <p>树木的照片如下图所示。</p> <p></p> <img src='stimuli/trees/7.png', style='max-width: 30%;'> </img> <p><strong>你是否选择发射武器？</strong></p>","0",""
"","","","","","html-keyboard-response","22","71807","0.0-4.0-0.9","8","1","2022-10-07 05:58:19","ebf9627b049f568eb4bf28942cb89901","223.104.11.59","Mozilla/5.0 (Linux; Android 11; RMX1901 Build/RKQ1.201217.002; wv) AppleWebKit/537.36 (KHTML, like Gecko) Version/4.0 Chrome/86.0.4240.99 XWEB/4317 MMWEBSDK/20220604 Mobile Safari/537.36 MMWEBID/6272 MicroMessenger/8.0.24.2180(0x28001837) WeChat/arm64 Weixin NetType/4G Language/zh_CN ABI/arm64","WebKit","Chrome","86.0.4240.99","AndroidOS","11","null","<div style=""font-size:60px;"">+</div>","null",""
"","","","","","html-button-response","23","94627","0.0-4.0-1.9","8","1","2022-10-07 05:58:19","ebf9627b049f568eb4bf28942cb89901","223.104.11.59","Mozilla/5.0 (Linux; Android 11; RMX1901 Build/RKQ1.201217.002; wv) AppleWebKit/537.36 (KHTML, like Gecko) Version/4.0 Chrome/86.0.4240.99 XWEB/4317 MMWEBSDK/20220604 Mobile Safari/537.36 MMWEBID/6272 MicroMessenger/8.0.24.2180(0x28001837) WeChat/arm64 Weixin NetType/4G Language/zh_CN ABI/arm64","WebKit","Chrome","86.0.4240.99","AndroidOS","11","22794","<p>作为军队的指挥官，你可以选择发射导弹杀死 <strong>4名</strong> 敌国士兵，但会炸毁附近的 <strong>1棵</strong> 敌国树木。</p> <p>树木的照片如下图所示。</p> <p></p> <img src='stimuli/trees/5.png', style='max-width: 30%;'> </img> <p><strong>你是否选择发射武器？</strong></p>","0",""
"","","","","","html-keyboard-response","24","95645","0.0-4.0-0.10","8","1","2022-10-07 05:58:19","ebf9627b049f568eb4bf28942cb89901","223.104.11.59","Mozilla/5.0 (Linux; Android 11; RMX1901 Build/RKQ1.201217.002; wv) AppleWebKit/537.36 (KHTML, like Gecko) Version/4.0 Chrome/86.0.4240.99 XWEB/4317 MMWEBSDK/20220604 Mobile Safari/537.36 MMWEBID/6272 MicroMessenger/8.0.24.2180(0x28001837) WeChat/arm64 Weixin NetType/4G Language/zh_CN ABI/arm64","WebKit","Chrome","86.0.4240.99","AndroidOS","11","null","<div style=""font-size:60px;"">+</div>","null",""
"","","","","","html-button-response","25","118464","0.0-4.0-1.10","8","1","2022-10-07 05:58:19","ebf9627b049f568eb4bf28942cb89901","223.104.11.59","Mozilla/5.0 (Linux; Android 11; RMX1901 Build/RKQ1.201217.002; wv) AppleWebKit/537.36 (KHTML, like Gecko) Version/4.0 Chrome/86.0.4240.99 XWEB/4317 MMWEBSDK/20220604 Mobile Safari/537.36 MMWEBID/6272 MicroMessenger/8.0.24.2180(0x28001837) WeChat/arm64 Weixin NetType/4G Language/zh_CN ABI/arm64","WebKit","Chrome","86.0.4240.99","AndroidOS","11","22802","<p>作为军队的指挥官，你可以选择发射导弹杀死 <strong>5名</strong> 敌国士兵，但会误杀附近的 <strong>1名</strong> 敌国平民。</p> <p>平民照片如下图所示。</p> <p></p> <img src='stimuli/faces/NFM2.jpg', style='max-width: 30%;'> </img> <p><strong>你是否选择发射武器？</strong></p>","0",""
"","","","","","html-keyboard-response","26","119477","0.0-4.0-0.11","8","1","2022-10-07 05:58:19","ebf9627b049f568eb4bf28942cb89901","223.104.11.59","Mozilla/5.0 (Linux; Android 11; RMX1901 Build/RKQ1.201217.002; wv) AppleWebKit/537.36 (KHTML, like Gecko) Version/4.0 Chrome/86.0.4240.99 XWEB/4317 MMWEBSDK/20220604 Mobile Safari/537.36 MMWEBID/6272 MicroMessenger/8.0.24.2180(0x28001837) WeChat/arm64 Weixin NetType/4G Language/zh_CN ABI/arm64","WebKit","Chrome","86.0.4240.99","AndroidOS","11","null","<div style=""font-size:60px;"">+</div>","null",""
"","","","","","html-button-response","27","120534","0.0-4.0-1.11","8","1","2022-10-07 05:58:19","ebf9627b049f568eb4bf28942cb89901","223.104.11.59","Mozilla/5.0 (Linux; Android 11; RMX1901 Build/RKQ1.201217.002; wv) AppleWebKit/537.36 (KHTML, like Gecko) Version/4.0 Chrome/86.0.4240.99 XWEB/4317 MMWEBSDK/20220604 Mobile Safari/537.36 MMWEBID/6272 MicroMessenger/8.0.24.2180(0x28001837) WeChat/arm64 Weixin NetType/4G Language/zh_CN ABI/arm64","WebKit","Chrome","86.0.4240.99","AndroidOS","11","1030","<p>作为军队的指挥官，你可以选择发射导弹杀死 <strong>8名</strong> 敌国士兵，但会炸毁附近的 <strong>1棵</strong> 敌国树木。</p> <p>树木的照片如下图所示。</p> <p></p> <img src='stimuli/trees/9.png', style='max-width: 30%;'> </img> <p><strong>你是否选择发射武器？</strong></p>","0",""
"","","","","","html-keyboard-response","28","121550","0.0-4.0-0.12","8","1","2022-10-07 05:58:19","ebf9627b049f568eb4bf28942cb89901","223.104.11.59","Mozilla/5.0 (Linux; Android 11; RMX1901 Build/RKQ1.201217.002; wv) AppleWebKit/537.36 (KHTML, like Gecko) Version/4.0 Chrome/86.0.4240.99 XWEB/4317 MMWEBSDK/20220604 Mobile Safari/537.36 MMWEBID/6272 MicroMessenger/8.0.24.2180(0x28001837) WeChat/arm64 Weixin NetType/4G Language/zh_CN ABI/arm64","WebKit","Chrome","86.0.4240.99","AndroidOS","11","null","<div style=""font-size:60px;"">+</div>","null",""
"","","","","","html-button-response","29","122746","0.0-4.0-1.12","8","1","2022-10-07 05:58:19","ebf9627b049f568eb4bf28942cb89901","223.104.11.59","Mozilla/5.0 (Linux; Android 11; RMX1901 Build/RKQ1.201217.002; wv) AppleWebKit/537.36 (KHTML, like Gecko) Version/4.0 Chrome/86.0.4240.99 XWEB/4317 MMWEBSDK/20220604 Mobile Safari/537.36 MMWEBID/6272 MicroMessenger/8.0.24.2180(0x28001837) WeChat/arm64 Weixin NetType/4G Language/zh_CN ABI/arm64","WebKit","Chrome","86.0.4240.99","AndroidOS","11","1172","<p>作为军队的指挥官，你可以选择发射导弹杀死 <strong>10名</strong> 敌国士兵，但会炸毁附近的 <strong>1棵</strong> 敌国树木。</p> <p>树木的照片如下图所示。</p> <p></p> <img src='stimuli/trees/6.png', style='max-width: 30%;'> </img> <p><strong>你是否选择发射武器？</strong></p>","0",""
"","","","","","html-keyboard-response","30","123768","0.0-4.0-0.13","8","1","2022-10-07 05:58:19","ebf9627b049f568eb4bf28942cb89901","223.104.11.59","Mozilla/5.0 (Linux; Android 11; RMX1901 Build/RKQ1.201217.002; wv) AppleWebKit/537.36 (KHTML, like Gecko) Version/4.0 Chrome/86.0.4240.99 XWEB/4317 MMWEBSDK/20220604 Mobile Safari/537.36 MMWEBID/6272 MicroMessenger/8.0.24.2180(0x28001837) WeChat/arm64 Weixin NetType/4G Language/zh_CN ABI/arm64","WebKit","Chrome","86.0.4240.99","AndroidOS","11","null","<div style=""font-size:60px;"">+</div>","null",""
"","","","","","html-button-response","31","125652","0.0-4.0-1.13","8","1","2022-10-07 05:58:19","ebf9627b049f568eb4bf28942cb89901","223.104.11.59","Mozilla/5.0 (Linux; Android 11; RMX1901 Build/RKQ1.201217.002; wv) AppleWebKit/537.36 (KHTML, like Gecko) Version/4.0 Chrome/86.0.4240.99 XWEB/4317 MMWEBSDK/20220604 Mobile Safari/537.36 MMWEBID/6272 MicroMessenger/8.0.24.2180(0x28001837) WeChat/arm64 Weixin NetType/4G Language/zh_CN ABI/arm64","WebKit","Chrome","86.0.4240.99","AndroidOS","11","1858","<p>作为军队的指挥官，你可以选择发射导弹杀死 <strong>5名</strong> 敌国士兵，但会炸毁附近的 <strong>1棵</strong> 敌国树木。</p> <p>树木的照片如下图所示。</p> <p></p> <img src='stimuli/trees/7.png', style='max-width: 30%;'> </img> <p><strong>你是否选择发射武器？</strong></p>","0",""
"","","","","","html-keyboard-response","32","126671","0.0-4.0-0.14","8","1","2022-10-07 05:58:19","ebf9627b049f568eb4bf28942cb89901","223.104.11.59","Mozilla/5.0 (Linux; Android 11; RMX1901 Build/RKQ1.201217.002; wv) AppleWebKit/537.36 (KHTML, like Gecko) Version/4.0 Chrome/86.0.4240.99 XWEB/4317 MMWEBSDK/20220604 Mobile Safari/537.36 MMWEBID/6272 MicroMessenger/8.0.24.2180(0x28001837) WeChat/arm64 Weixin NetType/4G Language/zh_CN ABI/arm64","WebKit","Chrome","86.0.4240.99","AndroidOS","11","null","<div style=""font-size:60px;"">+</div>","null",""
"","","","","","html-button-response","33","210351","0.0-4.0-1.14","8","1","2022-10-07 05:58:19","ebf9627b049f568eb4bf28942cb89901","223.104.11.59","Mozilla/5.0 (Linux; Android 11; RMX1901 Build/RKQ1.201217.002; wv) AppleWebKit/537.36 (KHTML, like Gecko) Version/4.0 Chrome/86.0.4240.99 XWEB/4317 MMWEBSDK/20220604 Mobile Safari/537.36 MMWEBID/6272 MicroMessenger/8.0.24.2180(0x28001837) WeChat/arm64 Weixin NetType/4G Language/zh_CN ABI/arm64","WebKit","Chrome","86.0.4240.99","AndroidOS","11","83654","<p>作为军队的指挥官，你可以选择发射导弹杀死 <strong>3名</strong> 敌国士兵，但会炸毁附近的 <strong>1棵</strong> 敌国树木。</p> <p>树木的照片如下图所示。</p> <p></p> <img src='stimuli/trees/14.png', style='max-width: 30%;'> </img> <p><strong>你是否选择发射武器？</strong></p>","0",""
"","","","","","html-keyboard-response","34","211365","0.0-4.0-0.15","8","1","2022-10-07 05:58:19","ebf9627b049f568eb4bf28942cb89901","223.104.11.59","Mozilla/5.0 (Linux; Android 11; RMX1901 Build/RKQ1.201217.002; wv) AppleWebKit/537.36 (KHTML, like Gecko) Version/4.0 Chrome/86.0.4240.99 XWEB/4317 MMWEBSDK/20220604 Mobile Safari/537.36 MMWEBID/6272 MicroMessenger/8.0.24.2180(0x28001837) WeChat/arm64 Weixin NetType/4G Language/zh_CN ABI/arm64","WebKit","Chrome","86.0.4240.99","AndroidOS","11","null","<div style=""font-size:60px;"">+</div>","null",""
"","","","","","html-button-response","35","221847","0.0-4.0-1.15","8","1","2022-10-07 05:58:19","ebf9627b049f568eb4bf28942cb89901","223.104.11.59","Mozilla/5.0 (Linux; Android 11; RMX1901 Build/RKQ1.201217.002; wv) AppleWebKit/537.36 (KHTML, like Gecko) Version/4.0 Chrome/86.0.4240.99 XWEB/4317 MMWEBSDK/20220604 Mobile Safari/537.36 MMWEBID/6272 MicroMessenger/8.0.24.2180(0x28001837) WeChat/arm64 Weixin NetType/4G Language/zh_CN ABI/arm64","WebKit","Chrome","86.0.4240.99","AndroidOS","11","10457","<p>作为军队的指挥官，你可以选择发射导弹杀死 <strong>9名</strong> 敌国士兵，但会误杀附近的 <strong>1名</strong> 敌国平民。</p> <p>平民照片如下图所示。</p> <p></p> <img src='stimuli/faces/NFF4.jpg', style='max-width: 30%;'> </img> <p><strong>你是否选择发射武器？</strong></p>","0",""
"","","","","","html-keyboard-response","36","222863","0.0-4.0-0.16","8","1","2022-10-07 05:58:19","ebf9627b049f568eb4bf28942cb89901","223.104.11.59","Mozilla/5.0 (Linux; Android 11; RMX1901 Build/RKQ1.201217.002; wv) AppleWebKit/537.36 (KHTML, like Gecko) Version/4.0 Chrome/86.0.4240.99 XWEB/4317 MMWEBSDK/20220604 Mobile Safari/537.36 MMWEBID/6272 MicroMessenger/8.0.24.2180(0x28001837) WeChat/arm64 Weixin NetType/4G Language/zh_CN ABI/arm64","WebKit","Chrome","86.0.4240.99","AndroidOS","11","null","<div style=""font-size:60px;"">+</div>","null",""
"","","","","","html-button-response","37","224089","0.0-4.0-1.16","8","1","2022-10-07 05:58:19","ebf9627b049f568eb4bf28942cb89901","223.104.11.59","Mozilla/5.0 (Linux; Android 11; RMX1901 Build/RKQ1.201217.002; wv) AppleWebKit/537.36 (KHTML, like Gecko) Version/4.0 Chrome/86.0.4240.99 XWEB/4317 MMWEBSDK/20220604 Mobile Safari/537.36 MMWEBID/6272 MicroMessenger/8.0.24.2180(0x28001837) WeChat/arm64 Weixin NetType/4G Language/zh_CN ABI/arm64","WebKit","Chrome","86.0.4240.99","AndroidOS","11","1195","<p>作为军队的指挥官，你可以选择发射导弹杀死 <strong>3名</strong> 敌国士兵，但会炸毁附近的 <strong>1棵</strong> 敌国树木。</p> <p>树木的照片如下图所示。</p> <p></p> <img src='stimuli/trees/8.png', style='max-width: 30%;'> </img> <p><strong>你是否选择发射武器？</strong></p>","0",""
"","","","","","html-keyboard-response","38","225106","0.0-4.0-0.17","8","1","2022-10-07 05:58:19","ebf9627b049f568eb4bf28942cb89901","223.104.11.59","Mozilla/5.0 (Linux; Android 11; RMX1901 Build/RKQ1.201217.002; wv) AppleWebKit/537.36 (KHTML, like Gecko) Version/4.0 Chrome/86.0.4240.99 XWEB/4317 MMWEBSDK/20220604 Mobile Safari/537.36 MMWEBID/6272 MicroMessenger/8.0.24.2180(0x28001837) WeChat/arm64 Weixin NetType/4G Language/zh_CN ABI/arm64","WebKit","Chrome","86.0.4240.99","AndroidOS","11","null","<div style=""font-size:60px;"">+</div>","null",""
"","","","","","html-button-response","39","285088","0.0-4.0-1.17","8","1","2022-10-07 05:58:19","ebf9627b049f568eb4bf28942cb89901","223.104.11.59","Mozilla/5.0 (Linux; Android 11; RMX1901 Build/RKQ1.201217.002; wv) AppleWebKit/537.36 (KHTML, like Gecko) Version/4.0 Chrome/86.0.4240.99 XWEB/4317 MMWEBSDK/20220604 Mobile Safari/537.36 MMWEBID/6272 MicroMessenger/8.0.24.2180(0x28001837) WeChat/arm64 Weixin NetType/4G Language/zh_CN ABI/arm64","WebKit","Chrome","86.0.4240.99","AndroidOS","11","59952","<p>作为军队的指挥官，你可以选择发射导弹杀死 <strong>7名</strong> 敌国士兵，但会误杀附近的 <strong>1名</strong> 敌国平民。</p> <p>平民照片如下图所示。</p> <p></p> <img src='stimuli/faces/NFM3.jpg', style='max-width: 30%;'> </img> <p><strong>你是否选择发射武器？</strong></p>","0",""
"","","","","","html-keyboard-response","40","286101","0.0-4.0-0.18","8","1","2022-10-07 05:58:19","ebf9627b049f568eb4bf28942cb89901","223.104.11.59","Mozilla/5.0 (Linux; Android 11; RMX1901 Build/RKQ1.201217.002; wv) AppleWebKit/537.36 (KHTML, like Gecko) Version/4.0 Chrome/86.0.4240.99 XWEB/4317 MMWEBSDK/20220604 Mobile Safari/537.36 MMWEBID/6272 MicroMessenger/8.0.24.2180(0x28001837) WeChat/arm64 Weixin NetType/4G Language/zh_CN ABI/arm64","WebKit","Chrome","86.0.4240.99","AndroidOS","11","null","<div style=""font-size:60px;"">+</div>","null",""
"","","","","","html-button-response","41","287192","0.0-4.0-1.18","8","1","2022-10-07 05:58:19","ebf9627b049f568eb4bf28942cb89901","223.104.11.59","Mozilla/5.0 (Linux; Android 11; RMX1901 Build/RKQ1.201217.002; wv) AppleWebKit/537.36 (KHTML, like Gecko) Version/4.0 Chrome/86.0.4240.99 XWEB/4317 MMWEBSDK/20220604 Mobile Safari/537.36 MMWEBID/6272 MicroMessenger/8.0.24.2180(0x28001837) WeChat/arm64 Weixin NetType/4G Language/zh_CN ABI/arm64","WebKit","Chrome","86.0.4240.99","AndroidOS","11","1063","<p>作为军队的指挥官，你可以选择发射导弹杀死 <strong>9名</strong> 敌国士兵，但会炸毁附近的 <strong>1棵</strong> 敌国树木。</p> <p>树木的照片如下图所示。</p> <p></p> <img src='stimuli/trees/15.png', style='max-width: 30%;'> </img> <p><strong>你是否选择发射武器？</strong></p>","0",""
"","","","","","html-keyboard-response","42","288211","0.0-4.0-0.19","8","1","2022-10-07 05:58:19","ebf9627b049f568eb4bf28942cb89901","223.104.11.59","Mozilla/5.0 (Linux; Android 11; RMX1901 Build/RKQ1.201217.002; wv) AppleWebKit/537.36 (KHTML, like Gecko) Version/4.0 Chrome/86.0.4240.99 XWEB/4317 MMWEBSDK/20220604 Mobile Safari/537.36 MMWEBID/6272 MicroMessenger/8.0.24.2180(0x28001837) WeChat/arm64 Weixin NetType/4G Language/zh_CN ABI/arm64","WebKit","Chrome","86.0.4240.99","AndroidOS","11","null","<div style=""font-size:60px;"">+</div>","null",""
"","","","","","html-button-response","43","295415","0.0-4.0-1.19","8","1","2022-10-07 05:58:19","ebf9627b049f568eb4bf28942cb89901","223.104.11.59","Mozilla/5.0 (Linux; Android 11; RMX1901 Build/RKQ1.201217.002; wv) AppleWebKit/537.36 (KHTML, like Gecko) Version/4.0 Chrome/86.0.4240.99 XWEB/4317 MMWEBSDK/20220604 Mobile Safari/537.36 MMWEBID/6272 MicroMessenger/8.0.24.2180(0x28001837) WeChat/arm64 Weixin NetType/4G Language/zh_CN ABI/arm64","WebKit","Chrome","86.0.4240.99","AndroidOS","11","7180","<p>作为军队的指挥官，你可以选择发射导弹杀死 <strong>9名</strong> 敌国士兵，但会误杀附近的 <strong>1名</strong> 敌国平民。</p> <p>平民照片如下图所示。</p> <p></p> <img src='stimuli/faces/NFM8.jpg', style='max-width: 30%;'> </img> <p><strong>你是否选择发射武器？</strong></p>","0",""
"","","","","","html-keyboard-response","44","296426","0.0-4.0-0.20","8","1","2022-10-07 05:58:19","ebf9627b049f568eb4bf28942cb89901","223.104.11.59","Mozilla/5.0 (Linux; Android 11; RMX1901 Build/RKQ1.201217.002; wv) AppleWebKit/537.36 (KHTML, like Gecko) Version/4.0 Chrome/86.0.4240.99 XWEB/4317 MMWEBSDK/20220604 Mobile Safari/537.36 MMWEBID/6272 MicroMessenger/8.0.24.2180(0x28001837) WeChat/arm64 Weixin NetType/4G Language/zh_CN ABI/arm64","WebKit","Chrome","86.0.4240.99","AndroidOS","11","null","<div style=""font-size:60px;"">+</div>","null",""
"","","","","","html-button-response","45","383418","0.0-4.0-1.20","8","1","2022-10-07 05:58:19","ebf9627b049f568eb4bf28942cb89901","223.104.11.59","Mozilla/5.0 (Linux; Android 11; RMX1901 Build/RKQ1.201217.002; wv) AppleWebKit/537.36 (KHTML, like Gecko) Version/4.0 Chrome/86.0.4240.99 XWEB/4317 MMWEBSDK/20220604 Mobile Safari/537.36 MMWEBID/6272 MicroMessenger/8.0.24.2180(0x28001837) WeChat/arm64 Weixin NetType/4G Language/zh_CN ABI/arm64","WebKit","Chrome","86.0.4240.99","AndroidOS","11","86958","<p>作为军队的指挥官，你可以选择发射导弹杀死 <strong>1名</strong> 敌国士兵，但会误杀附近的 <strong>1名</strong> 敌国平民。</p> <p>平民照片如下图所示。</p> <p></p> <img src='stimuli/faces/NFF4.jpg', style='max-width: 30%;'> </img> <p><strong>你是否选择发射武器？</strong></p>","1",""
"","","","","","html-keyboard-response","46","384440","0.0-4.0-0.21","8","1","2022-10-07 05:58:19","ebf9627b049f568eb4bf28942cb89901","223.104.11.59","Mozilla/5.0 (Linux; Android 11; RMX1901 Build/RKQ1.201217.002; wv) AppleWebKit/537.36 (KHTML, like Gecko) Version/4.0 Chrome/86.0.4240.99 XWEB/4317 MMWEBSDK/20220604 Mobile Safari/537.36 MMWEBID/6272 MicroMessenger/8.0.24.2180(0x28001837) WeChat/arm64 Weixin NetType/4G Language/zh_CN ABI/arm64","WebKit","Chrome","86.0.4240.99","AndroidOS","11","null","<div style=""font-size:60px;"">+</div>","null",""
"","","","","","html-button-response","47","444720","0.0-4.0-1.21","8","1","2022-10-07 05:58:19","ebf9627b049f568eb4bf28942cb89901","223.104.11.59","Mozilla/5.0 (Linux; Android 11; RMX1901 Build/RKQ1.201217.002; wv) AppleWebKit/537.36 (KHTML, like Gecko) Version/4.0 Chrome/86.0.4240.99 XWEB/4317 MMWEBSDK/20220604 Mobile Safari/537.36 MMWEBID/6272 MicroMessenger/8.0.24.2180(0x28001837) WeChat/arm64 Weixin NetType/4G Language/zh_CN ABI/arm64","WebKit","Chrome","86.0.4240.99","AndroidOS","11","60249","<p>作为军队的指挥官，你可以选择发射导弹杀死 <strong>6名</strong> 敌国士兵，但会误杀附近的 <strong>1名</strong> 敌国平民。</p> <p>平民照片如下图所示。</p> <p></p> <img src='stimuli/faces/NFF7.jpg', style='max-width: 30%;'> </img> <p><strong>你是否选择发射武器？</strong></p>","0",""
"","","","","","html-keyboard-response","48","445734","0.0-4.0-0.22","8","1","2022-10-07 05:58:19","ebf9627b049f568eb4bf28942cb89901","223.104.11.59","Mozilla/5.0 (Linux; Android 11; RMX1901 Build/RKQ1.201217.002; wv) AppleWebKit/537.36 (KHTML, like Gecko) Version/4.0 Chrome/86.0.4240.99 XWEB/4317 MMWEBSDK/20220604 Mobile Safari/537.36 MMWEBID/6272 MicroMessenger/8.0.24.2180(0x28001837) WeChat/arm64 Weixin NetType/4G Language/zh_CN ABI/arm64","WebKit","Chrome","86.0.4240.99","AndroidOS","11","null","<div style=""font-size:60px;"">+</div>","null",""
"","","","","","html-button-response","49","446731","0.0-4.0-1.22","8","1","2022-10-07 05:58:19","ebf9627b049f568eb4bf28942cb89901","223.104.11.59","Mozilla/5.0 (Linux; Android 11; RMX1901 Build/RKQ1.201217.002; wv) AppleWebKit/537.36 (KHTML, like Gecko) Version/4.0 Chrome/86.0.4240.99 XWEB/4317 MMWEBSDK/20220604 Mobile Safari/537.36 MMWEBID/6272 MicroMessenger/8.0.24.2180(0x28001837) WeChat/arm64 Weixin NetType/4G Language/zh_CN ABI/arm64","WebKit","Chrome","86.0.4240.99","AndroidOS","11","969","<p>作为军队的指挥官，你可以选择发射导弹杀死 <strong>3名</strong> 敌国士兵，但会炸毁附近的 <strong>1棵</strong> 敌国树木。</p> <p>树木的照片如下图所示。</p> <p></p> <img src='stimuli/trees/9.png', style='max-width: 30%;'> </img> <p><strong>你是否选择发射武器？</strong></p>","0",""
"","","","","","html-keyboard-response","50","447741","0.0-4.0-0.23","8","1","2022-10-07 05:58:19","ebf9627b049f568eb4bf28942cb89901","223.104.11.59","Mozilla/5.0 (Linux; Android 11; RMX1901 Build/RKQ1.201217.002; wv) AppleWebKit/537.36 (KHTML, like Gecko) Version/4.0 Chrome/86.0.4240.99 XWEB/4317 MMWEBSDK/20220604 Mobile Safari/537.36 MMWEBID/6272 MicroMessenger/8.0.24.2180(0x28001837) WeChat/arm64 Weixin NetType/4G Language/zh_CN ABI/arm64","WebKit","Chrome","86.0.4240.99","AndroidOS","11","null","<div style=""font-size:60px;"">+</div>","null",""
"","","","","","html-button-response","51","448438","0.0-4.0-1.23","8","1","2022-10-07 05:58:19","ebf9627b049f568eb4bf28942cb89901","223.104.11.59","Mozilla/5.0 (Linux; Android 11; RMX1901 Build/RKQ1.201217.002; wv) AppleWebKit/537.36 (KHTML, like Gecko) Version/4.0 Chrome/86.0.4240.99 XWEB/4317 MMWEBSDK/20220604 Mobile Safari/537.36 MMWEBID/6272 MicroMessenger/8.0.24.2180(0x28001837) WeChat/arm64 Weixin NetType/4G Language/zh_CN ABI/arm64","WebKit","Chrome","86.0.4240.99","AndroidOS","11","671","<p>作为军队的指挥官，你可以选择发射导弹杀死 <strong>9名</strong> 敌国士兵，但会炸毁附近的 <strong>1棵</strong> 敌国树木。</p> <p>树木的照片如下图所示。</p> <p></p> <img src='stimuli/trees/4.png', style='max-width: 30%;'> </img> <p><strong>你是否选择发射武器？</strong></p>","0",""
"","","","","","html-keyboard-response","52","449454","0.0-4.0-0.24","8","1","2022-10-07 05:58:19","ebf9627b049f568eb4bf28942cb89901","223.104.11.59","Mozilla/5.0 (Linux; Android 11; RMX1901 Build/RKQ1.201217.002; wv) AppleWebKit/537.36 (KHTML, like Gecko) Version/4.0 Chrome/86.0.4240.99 XWEB/4317 MMWEBSDK/20220604 Mobile Safari/537.36 MMWEBID/6272 MicroMessenger/8.0.24.2180(0x28001837) WeChat/arm64 Weixin NetType/4G Language/zh_CN ABI/arm64","WebKit","Chrome","86.0.4240.99","AndroidOS","11","null","<div style=""font-size:60px;"">+</div>","null",""
"","","","","","html-button-response","53","450450","0.0-4.0-1.24","8","1","2022-10-07 05:58:19","ebf9627b049f568eb4bf28942cb89901","223.104.11.59","Mozilla/5.0 (Linux; Android 11; RMX1901 Build/RKQ1.201217.002; wv) AppleWebKit/537.36 (KHTML, like Gecko) Version/4.0 Chrome/86.0.4240.99 XWEB/4317 MMWEBSDK/20220604 Mobile Safari/537.36 MMWEBID/6272 MicroMessenger/8.0.24.2180(0x28001837) WeChat/arm64 Weixin NetType/4G Language/zh_CN ABI/arm64","WebKit","Chrome","86.0.4240.99","AndroidOS","11","955","<p>作为军队的指挥官，你可以选择发射导弹杀死 <strong>5名</strong> 敌国士兵，但会误杀附近的 <strong>1名</strong> 敌国平民。</p> <p>平民照片如下图所示。</p> <p></p> <img src='stimuli/faces/NFF8.jpg', style='max-width: 30%;'> </img> <p><strong>你是否选择发射武器？</strong></p>","0",""
"","","","","","html-keyboard-response","54","451478","0.0-4.0-0.25","8","1","2022-10-07 05:58:19","ebf9627b049f568eb4bf28942cb89901","223.104.11.59","Mozilla/5.0 (Linux; Android 11; RMX1901 Build/RKQ1.201217.002; wv) AppleWebKit/537.36 (KHTML, like Gecko) Version/4.0 Chrome/86.0.4240.99 XWEB/4317 MMWEBSDK/20220604 Mobile Safari/537.36 MMWEBID/6272 MicroMessenger/8.0.24.2180(0x28001837) WeChat/arm64 Weixin NetType/4G Language/zh_CN ABI/arm64","WebKit","Chrome","86.0.4240.99","AndroidOS","11","null","<div style=""font-size:60px;"">+</div>","null",""
"","","","","","html-button-response","55","452532","0.0-4.0-1.25","8","1","2022-10-07 05:58:19","ebf9627b049f568eb4bf28942cb89901","223.104.11.59","Mozilla/5.0 (Linux; Android 11; RMX1901 Build/RKQ1.201217.002; wv) AppleWebKit/537.36 (KHTML, like Gecko) Version/4.0 Chrome/86.0.4240.99 XWEB/4317 MMWEBSDK/20220604 Mobile Safari/537.36 MMWEBID/6272 MicroMessenger/8.0.24.2180(0x28001837) WeChat/arm64 Weixin NetType/4G Language/zh_CN ABI/arm64","WebKit","Chrome","86.0.4240.99","AndroidOS","11","1014","<p>作为军队的指挥官，你可以选择发射导弹杀死 <strong>2名</strong> 敌国士兵，但会误杀附近的 <strong>1名</strong> 敌国平民。</p> <p>平民照片如下图所示。</p> <p></p> <img src='stimuli/faces/NFM6.jpg', style='max-width: 30%;'> </img> <p><strong>你是否选择发射武器？</strong></p>","1",""
"","","","","","html-keyboard-response","56","453544","0.0-4.0-0.26","8","1","2022-10-07 05:58:19","ebf9627b049f568eb4bf28942cb89901","223.104.11.59","Mozilla/5.0 (Linux; Android 11; RMX1901 Build/RKQ1.201217.002; wv) AppleWebKit/537.36 (KHTML, like Gecko) Version/4.0 Chrome/86.0.4240.99 XWEB/4317 MMWEBSDK/20220604 Mobile Safari/537.36 MMWEBID/6272 MicroMessenger/8.0.24.2180(0x28001837) WeChat/arm64 Weixin NetType/4G Language/zh_CN ABI/arm64","WebKit","Chrome","86.0.4240.99","AndroidOS","11","null","<div style=""font-size:60px;"">+</div>","null",""
"","","","","","html-button-response","57","454314","0.0-4.0-1.26","8","1","2022-10-07 05:58:19","ebf9627b049f568eb4bf28942cb89901","223.104.11.59","Mozilla/5.0 (Linux; Android 11; RMX1901 Build/RKQ1.201217.002; wv) AppleWebKit/537.36 (KHTML, like Gecko) Version/4.0 Chrome/86.0.4240.99 XWEB/4317 MMWEBSDK/20220604 Mobile Safari/537.36 MMWEBID/6272 MicroMessenger/8.0.24.2180(0x28001837) WeChat/arm64 Weixin NetType/4G Language/zh_CN ABI/arm64","WebKit","Chrome","86.0.4240.99","AndroidOS","11","736","<p>作为军队的指挥官，你可以选择发射导弹杀死 <strong>5名</strong> 敌国士兵，但会误杀附近的 <strong>1名</strong> 敌国平民。</p> <p>平民照片如下图所示。</p> <p></p> <img src='stimuli/faces/NFM5.jpg', style='max-width: 30%;'> </img> <p><strong>你是否选择发射武器？</strong></p>","0",""
"","","","","","html-keyboard-response","58","455330","0.0-4.0-0.27","8","1","2022-10-07 05:58:19","ebf9627b049f568eb4bf28942cb89901","223.104.11.59","Mozilla/5.0 (Linux; Android 11; RMX1901 Build/RKQ1.201217.002; wv) AppleWebKit/537.36 (KHTML, like Gecko) Version/4.0 Chrome/86.0.4240.99 XWEB/4317 MMWEBSDK/20220604 Mobile Safari/537.36 MMWEBID/6272 MicroMessenger/8.0.24.2180(0x28001837) WeChat/arm64 Weixin NetType/4G Language/zh_CN ABI/arm64","WebKit","Chrome","86.0.4240.99","AndroidOS","11","null","<div style=""font-size:60px;"">+</div>","null",""
"","","","","","html-button-response","59","456284","0.0-4.0-1.27","8","1","2022-10-07 05:58:19","ebf9627b049f568eb4bf28942cb89901","223.104.11.59","Mozilla/5.0 (Linux; Android 11; RMX1901 Build/RKQ1.201217.002; wv) AppleWebKit/537.36 (KHTML, like Gecko) Version/4.0 Chrome/86.0.4240.99 XWEB/4317 MMWEBSDK/20220604 Mobile Safari/537.36 MMWEBID/6272 MicroMessenger/8.0.24.2180(0x28001837) WeChat/arm64 Weixin NetType/4G Language/zh_CN ABI/arm64","WebKit","Chrome","86.0.4240.99","AndroidOS","11","924","<p>作为军队的指挥官，你可以选择发射导弹杀死 <strong>7名</strong> 敌国士兵，但会误杀附近的 <strong>1名</strong> 敌国平民。</p> <p>平民照片如下图所示。</p> <p></p> <img src='stimuli/faces/NFM5.jpg', style='max-width: 30%;'> </img> <p><strong>你是否选择发射武器？</strong></p>","0",""
"","","","","","html-keyboard-response","60","457300","0.0-4.0-0.28","8","1","2022-10-07 05:58:19","ebf9627b049f568eb4bf28942cb89901","223.104.11.59","Mozilla/5.0 (Linux; Android 11; RMX1901 Build/RKQ1.201217.002; wv) AppleWebKit/537.36 (KHTML, like Gecko) Version/4.0 Chrome/86.0.4240.99 XWEB/4317 MMWEBSDK/20220604 Mobile Safari/537.36 MMWEBID/6272 MicroMessenger/8.0.24.2180(0x28001837) WeChat/arm64 Weixin NetType/4G Language/zh_CN ABI/arm64","WebKit","Chrome","86.0.4240.99","AndroidOS","11","null","<div style=""font-size:60px;"">+</div>","null",""
"","","","","","html-button-response","61","457761","0.0-4.0-1.28","8","1","2022-10-07 05:58:19","ebf9627b049f568eb4bf28942cb89901","223.104.11.59","Mozilla/5.0 (Linux; Android 11; RMX1901 Build/RKQ1.201217.002; wv) AppleWebKit/537.36 (KHTML, like Gecko) Version/4.0 Chrome/86.0.4240.99 XWEB/4317 MMWEBSDK/20220604 Mobile Safari/537.36 MMWEBID/6272 MicroMessenger/8.0.24.2180(0x28001837) WeChat/arm64 Weixin NetType/4G Language/zh_CN ABI/arm64","WebKit","Chrome","86.0.4240.99","AndroidOS","11","429","<p>作为军队的指挥官，你可以选择发射导弹杀死 <strong>3名</strong> 敌国士兵，但会炸毁附近的 <strong>1棵</strong> 敌国树木。</p> <p>树木的照片如下图所示。</p> <p></p> <img src='stimuli/trees/13.png', style='max-width: 30%;'> </img> <p><strong>你是否选择发射武器？</strong></p>","0",""
"","","","","","html-keyboard-response","62","458781","0.0-4.0-0.29","8","1","2022-10-07 05:58:19","ebf9627b049f568eb4bf28942cb89901","223.104.11.59","Mozilla/5.0 (Linux; Android 11; RMX1901 Build/RKQ1.201217.002; wv) AppleWebKit/537.36 (KHTML, like Gecko) Version/4.0 Chrome/86.0.4240.99 XWEB/4317 MMWEBSDK/20220604 Mobile Safari/537.36 MMWEBID/6272 MicroMessenger/8.0.24.2180(0x28001837) WeChat/arm64 Weixin NetType/4G Language/zh_CN ABI/arm64","WebKit","Chrome","86.0.4240.99","AndroidOS","11","null","<div style=""font-size:60px;"">+</div>","null",""
"","","","","","html-button-response","63","459560","0.0-4.0-1.29","8","1","2022-10-07 05:58:19","ebf9627b049f568eb4bf28942cb89901","223.104.11.59","Mozilla/5.0 (Linux; Android 11; RMX1901 Build/RKQ1.201217.002; wv) AppleWebKit/537.36 (KHTML, like Gecko) Version/4.0 Chrome/86.0.4240.99 XWEB/4317 MMWEBSDK/20220604 Mobile Safari/537.36 MMWEBID/6272 MicroMessenger/8.0.24.2180(0x28001837) WeChat/arm64 Weixin NetType/4G Language/zh_CN ABI/arm64","WebKit","Chrome","86.0.4240.99","AndroidOS","11","744","<p>作为军队的指挥官，你可以选择发射导弹杀死 <strong>1名</strong> 敌国士兵，但会炸毁附近的 <strong>1棵</strong> 敌国树木。</p> <p>树木的照片如下图所示。</p> <p></p> <img src='stimuli/trees/2.png', style='max-width: 30%;'> </img> <p><strong>你是否选择发射武器？</strong></p>","0",""
"","","","","","html-keyboard-response","64","460575","0.0-4.0-0.30","8","1","2022-10-07 05:58:19","ebf9627b049f568eb4bf28942cb89901","223.104.11.59","Mozilla/5.0 (Linux; Android 11; RMX1901 Build/RKQ1.201217.002; wv) AppleWebKit/537.36 (KHTML, like Gecko) Version/4.0 Chrome/86.0.4240.99 XWEB/4317 MMWEBSDK/20220604 Mobile Safari/537.36 MMWEBID/6272 MicroMessenger/8.0.24.2180(0x28001837) WeChat/arm64 Weixin NetType/4G Language/zh_CN ABI/arm64","WebKit","Chrome","86.0.4240.99","AndroidOS","11","null","<div style=""font-size:60px;"">+</div>","null",""
"","","","","","html-button-response","65","461714","0.0-4.0-1.30","8","1","2022-10-07 05:58:19","ebf9627b049f568eb4bf28942cb89901","223.104.11.59","Mozilla/5.0 (Linux; Android 11; RMX1901 Build/RKQ1.201217.002; wv) AppleWebKit/537.36 (KHTML, like Gecko) Version/4.0 Chrome/86.0.4240.99 XWEB/4317 MMWEBSDK/20220604 Mobile Safari/537.36 MMWEBID/6272 MicroMessenger/8.0.24.2180(0x28001837) WeChat/arm64 Weixin NetType/4G Language/zh_CN ABI/arm64","WebKit","Chrome","86.0.4240.99","AndroidOS","11","1104","<p>作为军队的指挥官，你可以选择发射导弹杀死 <strong>4名</strong> 敌国士兵，但会误杀附近的 <strong>1名</strong> 敌国平民。</p> <p>平民照片如下图所示。</p> <p></p> <img src='stimuli/faces/NFF6.jpg', style='max-width: 30%;'> </img> <p><strong>你是否选择发射武器？</strong></p>","0",""
"","","","","","html-keyboard-response","66","462733","0.0-4.0-0.31","8","1","2022-10-07 05:58:19","ebf9627b049f568eb4bf28942cb89901","223.104.11.59","Mozilla/5.0 (Linux; Android 11; RMX1901 Build/RKQ1.201217.002; wv) AppleWebKit/537.36 (KHTML, like Gecko) Version/4.0 Chrome/86.0.4240.99 XWEB/4317 MMWEBSDK/20220604 Mobile Safari/537.36 MMWEBID/6272 MicroMessenger/8.0.24.2180(0x28001837) WeChat/arm64 Weixin NetType/4G Language/zh_CN ABI/arm64","WebKit","Chrome","86.0.4240.99","AndroidOS","11","null","<div style=""font-size:60px;"">+</div>","null",""
"","","","","","html-button-response","67","463870","0.0-4.0-1.31","8","1","2022-10-07 05:58:19","ebf9627b049f568eb4bf28942cb89901","223.104.11.59","Mozilla/5.0 (Linux; Android 11; RMX1901 Build/RKQ1.201217.002; wv) AppleWebKit/537.36 (KHTML, like Gecko) Version/4.0 Chrome/86.0.4240.99 XWEB/4317 MMWEBSDK/20220604 Mobile Safari/537.36 MMWEBID/6272 MicroMessenger/8.0.24.2180(0x28001837) WeChat/arm64 Weixin NetType/4G Language/zh_CN ABI/arm64","WebKit","Chrome","86.0.4240.99","AndroidOS","11","1106","<p>作为军队的指挥官，你可以选择发射导弹杀死 <strong>10名</strong> 敌国士兵，但会误杀附近的 <strong>1名</strong> 敌国平民。</p> <p>平民照片如下图所示。</p> <p></p> <img src='stimuli/faces/NFM7.jpg', style='max-width: 30%;'> </img> <p><strong>你是否选择发射武器？</strong></p>","0",""
"","","","","","html-keyboard-response","68","464889","0.0-4.0-0.32","8","1","2022-10-07 05:58:19","ebf9627b049f568eb4bf28942cb89901","223.104.11.59","Mozilla/5.0 (Linux; Android 11; RMX1901 Build/RKQ1.201217.002; wv) AppleWebKit/537.36 (KHTML, like Gecko) Version/4.0 Chrome/86.0.4240.99 XWEB/4317 MMWEBSDK/20220604 Mobile Safari/537.36 MMWEBID/6272 MicroMessenger/8.0.24.2180(0x28001837) WeChat/arm64 Weixin NetType/4G Language/zh_CN ABI/arm64","WebKit","Chrome","86.0.4240.99","AndroidOS","11","null","<div style=""font-size:60px;"">+</div>","null",""
"","","","","","html-button-response","69","465400","0.0-4.0-1.32","8","1","2022-10-07 05:58:19","ebf9627b049f568eb4bf28942cb89901","223.104.11.59","Mozilla/5.0 (Linux; Android 11; RMX1901 Build/RKQ1.201217.002; wv) AppleWebKit/537.36 (KHTML, like Gecko) Version/4.0 Chrome/86.0.4240.99 XWEB/4317 MMWEBSDK/20220604 Mobile Safari/537.36 MMWEBID/6272 MicroMessenger/8.0.24.2180(0x28001837) WeChat/arm64 Weixin NetType/4G Language/zh_CN ABI/arm64","WebKit","Chrome","86.0.4240.99","AndroidOS","11","476","<p>作为军队的指挥官，你可以选择发射导弹杀死 <strong>9名</strong> 敌国士兵，但会误杀附近的 <strong>1名</strong> 敌国平民。</p> <p>平民照片如下图所示。</p> <p></p> <img src='stimuli/faces/NFF5.jpg', style='max-width: 30%;'> </img> <p><strong>你是否选择发射武器？</strong></p>","0",""
"","","","","","html-keyboard-response","70","466423","0.0-4.0-0.33","8","1","2022-10-07 05:58:19","ebf9627b049f568eb4bf28942cb89901","223.104.11.59","Mozilla/5.0 (Linux; Android 11; RMX1901 Build/RKQ1.201217.002; wv) AppleWebKit/537.36 (KHTML, like Gecko) Version/4.0 Chrome/86.0.4240.99 XWEB/4317 MMWEBSDK/20220604 Mobile Safari/537.36 MMWEBID/6272 MicroMessenger/8.0.24.2180(0x28001837) WeChat/arm64 Weixin NetType/4G Language/zh_CN ABI/arm64","WebKit","Chrome","86.0.4240.99","AndroidOS","11","null","<div style=""font-size:60px;"">+</div>","null",""
"","","","","","html-button-response","71","467015","0.0-4.0-1.33","8","1","2022-10-07 05:58:19","ebf9627b049f568eb4bf28942cb89901","223.104.11.59","Mozilla/5.0 (Linux; Android 11; RMX1901 Build/RKQ1.201217.002; wv) AppleWebKit/537.36 (KHTML, like Gecko) Version/4.0 Chrome/86.0.4240.99 XWEB/4317 MMWEBSDK/20220604 Mobile Safari/537.36 MMWEBID/6272 MicroMessenger/8.0.24.2180(0x28001837) WeChat/arm64 Weixin NetType/4G Language/zh_CN ABI/arm64","WebKit","Chrome","86.0.4240.99","AndroidOS","11","555","<p>作为军队的指挥官，你可以选择发射导弹杀死 <strong>10名</strong> 敌国士兵，但会误杀附近的 <strong>1名</strong> 敌国平民。</p> <p>平民照片如下图所示。</p> <p></p> <img src='stimuli/faces/NFF2.jpg', style='max-width: 30%;'> </img> <p><strong>你是否选择发射武器？</strong></p>","0",""
"","","","","","html-keyboard-response","72","468033","0.0-4.0-0.34","8","1","2022-10-07 05:58:19","ebf9627b049f568eb4bf28942cb89901","223.104.11.59","Mozilla/5.0 (Linux; Android 11; RMX1901 Build/RKQ1.201217.002; wv) AppleWebKit/537.36 (KHTML, like Gecko) Version/4.0 Chrome/86.0.4240.99 XWEB/4317 MMWEBSDK/20220604 Mobile Safari/537.36 MMWEBID/6272 MicroMessenger/8.0.24.2180(0x28001837) WeChat/arm64 Weixin NetType/4G Language/zh_CN ABI/arm64","WebKit","Chrome","86.0.4240.99","AndroidOS","11","null","<div style=""font-size:60px;"">+</div>","null",""
"","","","","","html-button-response","73","468728","0.0-4.0-1.34","8","1","2022-10-07 05:58:19","ebf9627b049f568eb4bf28942cb89901","223.104.11.59","Mozilla/5.0 (Linux; Android 11; RMX1901 Build/RKQ1.201217.002; wv) AppleWebKit/537.36 (KHTML, like Gecko) Version/4.0 Chrome/86.0.4240.99 XWEB/4317 MMWEBSDK/20220604 Mobile Safari/537.36 MMWEBID/6272 MicroMessenger/8.0.24.2180(0x28001837) WeChat/arm64 Weixin NetType/4G Language/zh_CN ABI/arm64","WebKit","Chrome","86.0.4240.99","AndroidOS","11","658","<p>作为军队的指挥官，你可以选择发射导弹杀死 <strong>7名</strong> 敌国士兵，但会误杀附近的 <strong>1名</strong> 敌国平民。</p> <p>平民照片如下图所示。</p> <p></p> <img src='stimuli/faces/NFM6.jpg', style='max-width: 30%;'> </img> <p><strong>你是否选择发射武器？</strong></p>","0",""
"","","","","","html-keyboard-response","74","469750","0.0-4.0-0.35","8","1","2022-10-07 05:58:19","ebf9627b049f568eb4bf28942cb89901","223.104.11.59","Mozilla/5.0 (Linux; Android 11; RMX1901 Build/RKQ1.201217.002; wv) AppleWebKit/537.36 (KHTML, like Gecko) Version/4.0 Chrome/86.0.4240.99 XWEB/4317 MMWEBSDK/20220604 Mobile Safari/537.36 MMWEBID/6272 MicroMessenger/8.0.24.2180(0x28001837) WeChat/arm64 Weixin NetType/4G Language/zh_CN ABI/arm64","WebKit","Chrome","86.0.4240.99","AndroidOS","11","null","<div style=""font-size:60px;"">+</div>","null",""
"","","","","","html-button-response","75","470503","0.0-4.0-1.35","8","1","2022-10-07 05:58:19","ebf9627b049f568eb4bf28942cb89901","223.104.11.59","Mozilla/5.0 (Linux; Android 11; RMX1901 Build/RKQ1.201217.002; wv) AppleWebKit/537.36 (KHTML, like Gecko) Version/4.0 Chrome/86.0.4240.99 XWEB/4317 MMWEBSDK/20220604 Mobile Safari/537.36 MMWEBID/6272 MicroMessenger/8.0.24.2180(0x28001837) WeChat/arm64 Weixin NetType/4G Language/zh_CN ABI/arm64","WebKit","Chrome","86.0.4240.99","AndroidOS","11","713","<p>作为军队的指挥官，你可以选择发射导弹杀死 <strong>9名</strong> 敌国士兵，但会炸毁附近的 <strong>1棵</strong> 敌国树木。</p> <p>树木的照片如下图所示。</p> <p></p> <img src='stimuli/trees/14.png', style='max-width: 30%;'> </img> <p><strong>你是否选择发射武器？</strong></p>","0",""
"","","","","","html-keyboard-response","76","471525","0.0-4.0-0.36","8","1","2022-10-07 05:58:19","ebf9627b049f568eb4bf28942cb89901","223.104.11.59","Mozilla/5.0 (Linux; Android 11; RMX1901 Build/RKQ1.201217.002; wv) AppleWebKit/537.36 (KHTML, like Gecko) Version/4.0 Chrome/86.0.4240.99 XWEB/4317 MMWEBSDK/20220604 Mobile Safari/537.36 MMWEBID/6272 MicroMessenger/8.0.24.2180(0x28001837) WeChat/arm64 Weixin NetType/4G Language/zh_CN ABI/arm64","WebKit","Chrome","86.0.4240.99","AndroidOS","11","null","<div style=""font-size:60px;"">+</div>","null",""
"","","","","","html-button-response","77","472512","0.0-4.0-1.36","8","1","2022-10-07 05:58:19","ebf9627b049f568eb4bf28942cb89901","223.104.11.59","Mozilla/5.0 (Linux; Android 11; RMX1901 Build/RKQ1.201217.002; wv) AppleWebKit/537.36 (KHTML, like Gecko) Version/4.0 Chrome/86.0.4240.99 XWEB/4317 MMWEBSDK/20220604 Mobile Safari/537.36 MMWEBID/6272 MicroMessenger/8.0.24.2180(0x28001837) WeChat/arm64 Weixin NetType/4G Language/zh_CN ABI/arm64","WebKit","Chrome","86.0.4240.99","AndroidOS","11","951","<p>作为军队的指挥官，你可以选择发射导弹杀死 <strong>4名</strong> 敌国士兵，但会炸毁附近的 <strong>1棵</strong> 敌国树木。</p> <p>树木的照片如下图所示。</p> <p></p> <img src='stimuli/trees/16.png', style='max-width: 30%;'> </img> <p><strong>你是否选择发射武器？</strong></p>","0",""
"","","","","","html-keyboard-response","78","473530","0.0-4.0-0.37","8","1","2022-10-07 05:58:19","ebf9627b049f568eb4bf28942cb89901","223.104.11.59","Mozilla/5.0 (Linux; Android 11; RMX1901 Build/RKQ1.201217.002; wv) AppleWebKit/537.36 (KHTML, like Gecko) Version/4.0 Chrome/86.0.4240.99 XWEB/4317 MMWEBSDK/20220604 Mobile Safari/537.36 MMWEBID/6272 MicroMessenger/8.0.24.2180(0x28001837) WeChat/arm64 Weixin NetType/4G Language/zh_CN ABI/arm64","WebKit","Chrome","86.0.4240.99","AndroidOS","11","null","<div style=""font-size:60px;"">+</div>","null",""
"","","","","","html-button-response","79","474060","0.0-4.0-1.37","8","1","2022-10-07 05:58:19","ebf9627b049f568eb4bf28942cb89901","223.104.11.59","Mozilla/5.0 (Linux; Android 11; RMX1901 Build/RKQ1.201217.002; wv) AppleWebKit/537.36 (KHTML, like Gecko) Version/4.0 Chrome/86.0.4240.99 XWEB/4317 MMWEBSDK/20220604 Mobile Safari/537.36 MMWEBID/6272 MicroMessenger/8.0.24.2180(0x28001837) WeChat/arm64 Weixin NetType/4G Language/zh_CN ABI/arm64","WebKit","Chrome","86.0.4240.99","AndroidOS","11","488","<p>作为军队的指挥官，你可以选择发射导弹杀死 <strong>1名</strong> 敌国士兵，但会炸毁附近的 <strong>1棵</strong> 敌国树木。</p> <p>树木的照片如下图所示。</p> <p></p> <img src='stimuli/trees/1.png', style='max-width: 30%;'> </img> <p><strong>你是否选择发射武器？</strong></p>","0",""
"","","","","","html-keyboard-response","80","475082","0.0-4.0-0.38","8","1","2022-10-07 05:58:19","ebf9627b049f568eb4bf28942cb89901","223.104.11.59","Mozilla/5.0 (Linux; Android 11; RMX1901 Build/RKQ1.201217.002; wv) AppleWebKit/537.36 (KHTML, like Gecko) Version/4.0 Chrome/86.0.4240.99 XWEB/4317 MMWEBSDK/20220604 Mobile Safari/537.36 MMWEBID/6272 MicroMessenger/8.0.24.2180(0x28001837) WeChat/arm64 Weixin NetType/4G Language/zh_CN ABI/arm64","WebKit","Chrome","86.0.4240.99","AndroidOS","11","null","<div style=""font-size:60px;"">+</div>","null",""
"","","","","","html-button-response","81","476149","0.0-4.0-1.38","8","1","2022-10-07 05:58:19","ebf9627b049f568eb4bf28942cb89901","223.104.11.59","Mozilla/5.0 (Linux; Android 11; RMX1901 Build/RKQ1.201217.002; wv) AppleWebKit/537.36 (KHTML, like Gecko) Version/4.0 Chrome/86.0.4240.99 XWEB/4317 MMWEBSDK/20220604 Mobile Safari/537.36 MMWEBID/6272 MicroMessenger/8.0.24.2180(0x28001837) WeChat/arm64 Weixin NetType/4G Language/zh_CN ABI/arm64","WebKit","Chrome","86.0.4240.99","AndroidOS","11","1034","<p>作为军队的指挥官，你可以选择发射导弹杀死 <strong>7名</strong> 敌国士兵，但会炸毁附近的 <strong>1棵</strong> 敌国树木。</p> <p>树木的照片如下图所示。</p> <p></p> <img src='stimuli/trees/5.png', style='max-width: 30%;'> </img> <p><strong>你是否选择发射武器？</strong></p>","0",""
"","","","","","html-keyboard-response","82","477171","0.0-4.0-0.39","8","1","2022-10-07 05:58:19","ebf9627b049f568eb4bf28942cb89901","223.104.11.59","Mozilla/5.0 (Linux; Android 11; RMX1901 Build/RKQ1.201217.002; wv) AppleWebKit/537.36 (KHTML, like Gecko) Version/4.0 Chrome/86.0.4240.99 XWEB/4317 MMWEBSDK/20220604 Mobile Safari/537.36 MMWEBID/6272 MicroMessenger/8.0.24.2180(0x28001837) WeChat/arm64 Weixin NetType/4G Language/zh_CN ABI/arm64","WebKit","Chrome","86.0.4240.99","AndroidOS","11","null","<div style=""font-size:60px;"">+</div>","null",""
"","","","","","html-button-response","83","482357","0.0-4.0-1.39","8","1","2022-10-07 05:58:19","ebf9627b049f568eb4bf28942cb89901","223.104.11.59","Mozilla/5.0 (Linux; Android 11; RMX1901 Build/RKQ1.201217.002; wv) AppleWebKit/537.36 (KHTML, like Gecko) Version/4.0 Chrome/86.0.4240.99 XWEB/4317 MMWEBSDK/20220604 Mobile Safari/537.36 MMWEBID/6272 MicroMessenger/8.0.24.2180(0x28001837) WeChat/arm64 Weixin NetType/4G Language/zh_CN ABI/arm64","WebKit","Chrome","86.0.4240.99","AndroidOS","11","5146","<p>作为军队的指挥官，你可以选择发射导弹杀死 <strong>7名</strong> 敌国士兵，但会炸毁附近的 <strong>1棵</strong> 敌国树木。</p> <p>树木的照片如下图所示。</p> <p></p> <img src='stimuli/trees/10.png', style='max-width: 30%;'> </img> <p><strong>你是否选择发射武器？</strong></p>","0",""
"","","","","","html-keyboard-response","84","483377","0.0-4.0-0.40","8","1","2022-10-07 05:58:19","ebf9627b049f568eb4bf28942cb89901","223.104.11.59","Mozilla/5.0 (Linux; Android 11; RMX1901 Build/RKQ1.201217.002; wv) AppleWebKit/537.36 (KHTML, like Gecko) Version/4.0 Chrome/86.0.4240.99 XWEB/4317 MMWEBSDK/20220604 Mobile Safari/537.36 MMWEBID/6272 MicroMessenger/8.0.24.2180(0x28001837) WeChat/arm64 Weixin NetType/4G Language/zh_CN ABI/arm64","WebKit","Chrome","86.0.4240.99","AndroidOS","11","null","<div style=""font-size:60px;"">+</div>","null",""
"","","","","","html-button-response","85","484065","0.0-4.0-1.40","8","1","2022-10-07 05:58:19","ebf9627b049f568eb4bf28942cb89901","223.104.11.59","Mozilla/5.0 (Linux; Android 11; RMX1901 Build/RKQ1.201217.002; wv) AppleWebKit/537.36 (KHTML, like Gecko) Version/4.0 Chrome/86.0.4240.99 XWEB/4317 MMWEBSDK/20220604 Mobile Safari/537.36 MMWEBID/6272 MicroMessenger/8.0.24.2180(0x28001837) WeChat/arm64 Weixin NetType/4G Language/zh_CN ABI/arm64","WebKit","Chrome","86.0.4240.99","AndroidOS","11","648","<p>作为军队的指挥官，你可以选择发射导弹杀死 <strong>6名</strong> 敌国士兵，但会误杀附近的 <strong>1名</strong> 敌国平民。</p> <p>平民照片如下图所示。</p> <p></p> <img src='stimuli/faces/NFF3.jpg', style='max-width: 30%;'> </img> <p><strong>你是否选择发射武器？</strong></p>","0",""
"","","","","","html-keyboard-response","86","485088","0.0-4.0-0.41","8","1","2022-10-07 05:58:19","ebf9627b049f568eb4bf28942cb89901","223.104.11.59","Mozilla/5.0 (Linux; Android 11; RMX1901 Build/RKQ1.201217.002; wv) AppleWebKit/537.36 (KHTML, like Gecko) Version/4.0 Chrome/86.0.4240.99 XWEB/4317 MMWEBSDK/20220604 Mobile Safari/537.36 MMWEBID/6272 MicroMessenger/8.0.24.2180(0x28001837) WeChat/arm64 Weixin NetType/4G Language/zh_CN ABI/arm64","WebKit","Chrome","86.0.4240.99","AndroidOS","11","null","<div style=""font-size:60px;"">+</div>","null",""
"","","","","","html-button-response","87","486660","0.0-4.0-1.41","8","1","2022-10-07 05:58:19","ebf9627b049f568eb4bf28942cb89901","223.104.11.59","Mozilla/5.0 (Linux; Android 11; RMX1901 Build/RKQ1.201217.002; wv) AppleWebKit/537.36 (KHTML, like Gecko) Version/4.0 Chrome/86.0.4240.99 XWEB/4317 MMWEBSDK/20220604 Mobile Safari/537.36 MMWEBID/6272 MicroMessenger/8.0.24.2180(0x28001837) WeChat/arm64 Weixin NetType/4G Language/zh_CN ABI/arm64","WebKit","Chrome","86.0.4240.99","AndroidOS","11","1530","<p>作为军队的指挥官，你可以选择发射导弹杀死 <strong>5名</strong> 敌国士兵，但会炸毁附近的 <strong>1棵</strong> 敌国树木。</p> <p>树木的照片如下图所示。</p> <p></p> <img src='stimuli/trees/11.png', style='max-width: 30%;'> </img> <p><strong>你是否选择发射武器？</strong></p>","0",""
"","","","","","html-keyboard-response","88","487686","0.0-4.0-0.42","8","1","2022-10-07 05:58:19","ebf9627b049f568eb4bf28942cb89901","223.104.11.59","Mozilla/5.0 (Linux; Android 11; RMX1901 Build/RKQ1.201217.002; wv) AppleWebKit/537.36 (KHTML, like Gecko) Version/4.0 Chrome/86.0.4240.99 XWEB/4317 MMWEBSDK/20220604 Mobile Safari/537.36 MMWEBID/6272 MicroMessenger/8.0.24.2180(0x28001837) WeChat/arm64 Weixin NetType/4G Language/zh_CN ABI/arm64","WebKit","Chrome","86.0.4240.99","AndroidOS","11","null","<div style=""font-size:60px;"">+</div>","null",""
"","","","","","html-button-response","89","494422","0.0-4.0-1.42","8","1","2022-10-07 05:58:19","ebf9627b049f568eb4bf28942cb89901","223.104.11.59","Mozilla/5.0 (Linux; Android 11; RMX1901 Build/RKQ1.201217.002; wv) AppleWebKit/537.36 (KHTML, like Gecko) Version/4.0 Chrome/86.0.4240.99 XWEB/4317 MMWEBSDK/20220604 Mobile Safari/537.36 MMWEBID/6272 MicroMessenger/8.0.24.2180(0x28001837) WeChat/arm64 Weixin NetType/4G Language/zh_CN ABI/arm64","WebKit","Chrome","86.0.4240.99","AndroidOS","11","6698","<p>作为军队的指挥官，你可以选择发射导弹杀死 <strong>9名</strong> 敌国士兵，但会炸毁附近的 <strong>1棵</strong> 敌国树木。</p> <p>树木的照片如下图所示。</p> <p></p> <img src='stimuli/trees/1.png', style='max-width: 30%;'> </img> <p><strong>你是否选择发射武器？</strong></p>","0",""
"","","","","","html-keyboard-response","90","495445","0.0-4.0-0.43","8","1","2022-10-07 05:58:19","ebf9627b049f568eb4bf28942cb89901","223.104.11.59","Mozilla/5.0 (Linux; Android 11; RMX1901 Build/RKQ1.201217.002; wv) AppleWebKit/537.36 (KHTML, like Gecko) Version/4.0 Chrome/86.0.4240.99 XWEB/4317 MMWEBSDK/20220604 Mobile Safari/537.36 MMWEBID/6272 MicroMessenger/8.0.24.2180(0x28001837) WeChat/arm64 Weixin NetType/4G Language/zh_CN ABI/arm64","WebKit","Chrome","86.0.4240.99","AndroidOS","11","null","<div style=""font-size:60px;"">+</div>","null",""
"","","","","","html-button-response","91","498325","0.0-4.0-1.43","8","1","2022-10-07 05:58:19","ebf9627b049f568eb4bf28942cb89901","223.104.11.59","Mozilla/5.0 (Linux; Android 11; RMX1901 Build/RKQ1.201217.002; wv) AppleWebKit/537.36 (KHTML, like Gecko) Version/4.0 Chrome/86.0.4240.99 XWEB/4317 MMWEBSDK/20220604 Mobile Safari/537.36 MMWEBID/6272 MicroMessenger/8.0.24.2180(0x28001837) WeChat/arm64 Weixin NetType/4G Language/zh_CN ABI/arm64","WebKit","Chrome","86.0.4240.99","AndroidOS","11","2845","<p>作为军队的指挥官，你可以选择发射导弹杀死 <strong>9名</strong> 敌国士兵，但会炸毁附近的 <strong>1棵</strong> 敌国树木。</p> <p>树木的照片如下图所示。</p> <p></p> <img src='stimuli/trees/3.png', style='max-width: 30%;'> </img> <p><strong>你是否选择发射武器？</strong></p>","0",""
"","","","","","html-keyboard-response","92","499354","0.0-4.0-0.44","8","1","2022-10-07 05:58:19","ebf9627b049f568eb4bf28942cb89901","223.104.11.59","Mozilla/5.0 (Linux; Android 11; RMX1901 Build/RKQ1.201217.002; wv) AppleWebKit/537.36 (KHTML, like Gecko) Version/4.0 Chrome/86.0.4240.99 XWEB/4317 MMWEBSDK/20220604 Mobile Safari/537.36 MMWEBID/6272 MicroMessenger/8.0.24.2180(0x28001837) WeChat/arm64 Weixin NetType/4G Language/zh_CN ABI/arm64","WebKit","Chrome","86.0.4240.99","AndroidOS","11","null","<div style=""font-size:60px;"">+</div>","null",""
"","","","","","html-button-response","93","500069","0.0-4.0-1.44","8","1","2022-10-07 05:58:19","ebf9627b049f568eb4bf28942cb89901","223.104.11.59","Mozilla/5.0 (Linux; Android 11; RMX1901 Build/RKQ1.201217.002; wv) AppleWebKit/537.36 (KHTML, like Gecko) Version/4.0 Chrome/86.0.4240.99 XWEB/4317 MMWEBSDK/20220604 Mobile Safari/537.36 MMWEBID/6272 MicroMessenger/8.0.24.2180(0x28001837) WeChat/arm64 Weixin NetType/4G Language/zh_CN ABI/arm64","WebKit","Chrome","86.0.4240.99","AndroidOS","11","681","<p>作为军队的指挥官，你可以选择发射导弹杀死 <strong>8名</strong> 敌国士兵，但会炸毁附近的 <strong>1棵</strong> 敌国树木。</p> <p>树木的照片如下图所示。</p> <p></p> <img src='stimuli/trees/8.png', style='max-width: 30%;'> </img> <p><strong>你是否选择发射武器？</strong></p>","0",""
"","","","","","html-keyboard-response","94","501097","0.0-4.0-0.45","8","1","2022-10-07 05:58:19","ebf9627b049f568eb4bf28942cb89901","223.104.11.59","Mozilla/5.0 (Linux; Android 11; RMX1901 Build/RKQ1.201217.002; wv) AppleWebKit/537.36 (KHTML, like Gecko) Version/4.0 Chrome/86.0.4240.99 XWEB/4317 MMWEBSDK/20220604 Mobile Safari/537.36 MMWEBID/6272 MicroMessenger/8.0.24.2180(0x28001837) WeChat/arm64 Weixin NetType/4G Language/zh_CN ABI/arm64","WebKit","Chrome","86.0.4240.99","AndroidOS","11","null","<div style=""font-size:60px;"">+</div>","null",""
"","","","","","html-button-response","95","501560","0.0-4.0-1.45","8","1","2022-10-07 05:58:19","ebf9627b049f568eb4bf28942cb89901","223.104.11.59","Mozilla/5.0 (Linux; Android 11; RMX1901 Build/RKQ1.201217.002; wv) AppleWebKit/537.36 (KHTML, like Gecko) Version/4.0 Chrome/86.0.4240.99 XWEB/4317 MMWEBSDK/20220604 Mobile Safari/537.36 MMWEBID/6272 MicroMessenger/8.0.24.2180(0x28001837) WeChat/arm64 Weixin NetType/4G Language/zh_CN ABI/arm64","WebKit","Chrome","86.0.4240.99","AndroidOS","11","421","<p>作为军队的指挥官，你可以选择发射导弹杀死 <strong>1名</strong> 敌国士兵，但会误杀附近的 <strong>1名</strong> 敌国平民。</p> <p>平民照片如下图所示。</p> <p></p> <img src='stimuli/faces/NFF3.jpg', style='max-width: 30%;'> </img> <p><strong>你是否选择发射武器？</strong></p>","0",""
"","","","","","html-keyboard-response","96","502583","0.0-4.0-0.46","8","1","2022-10-07 05:58:19","ebf9627b049f568eb4bf28942cb89901","223.104.11.59","Mozilla/5.0 (Linux; Android 11; RMX1901 Build/RKQ1.201217.002; wv) AppleWebKit/537.36 (KHTML, like Gecko) Version/4.0 Chrome/86.0.4240.99 XWEB/4317 MMWEBSDK/20220604 Mobile Safari/537.36 MMWEBID/6272 MicroMessenger/8.0.24.2180(0x28001837) WeChat/arm64 Weixin NetType/4G Language/zh_CN ABI/arm64","WebKit","Chrome","86.0.4240.99","AndroidOS","11","null","<div style=""font-size:60px;"">+</div>","null",""
"","","","","","html-button-response","97","503234","0.0-4.0-1.46","8","1","2022-10-07 05:58:19","ebf9627b049f568eb4bf28942cb89901","223.104.11.59","Mozilla/5.0 (Linux; Android 11; RMX1901 Build/RKQ1.201217.002; wv) AppleWebKit/537.36 (KHTML, like Gecko) Version/4.0 Chrome/86.0.4240.99 XWEB/4317 MMWEBSDK/20220604 Mobile Safari/537.36 MMWEBID/6272 MicroMessenger/8.0.24.2180(0x28001837) WeChat/arm64 Weixin NetType/4G Language/zh_CN ABI/arm64","WebKit","Chrome","86.0.4240.99","AndroidOS","11","615","<p>作为军队的指挥官，你可以选择发射导弹杀死 <strong>5名</strong> 敌国士兵，但会炸毁附近的 <strong>1棵</strong> 敌国树木。</p> <p>树木的照片如下图所示。</p> <p></p> <img src='stimuli/trees/4.png', style='max-width: 30%;'> </img> <p><strong>你是否选择发射武器？</strong></p>","0",""
"","","","","","html-keyboard-response","98","504261","0.0-4.0-0.47","8","1","2022-10-07 05:58:19","ebf9627b049f568eb4bf28942cb89901","223.104.11.59","Mozilla/5.0 (Linux; Android 11; RMX1901 Build/RKQ1.201217.002; wv) AppleWebKit/537.36 (KHTML, like Gecko) Version/4.0 Chrome/86.0.4240.99 XWEB/4317 MMWEBSDK/20220604 Mobile Safari/537.36 MMWEBID/6272 MicroMessenger/8.0.24.2180(0x28001837) WeChat/arm64 Weixin NetType/4G Language/zh_CN ABI/arm64","WebKit","Chrome","86.0.4240.99","AndroidOS","11","null","<div style=""font-size:60px;"">+</div>","null",""
"","","","","","html-button-response","99","504822","0.0-4.0-1.47","8","1","2022-10-07 05:58:19","ebf9627b049f568eb4bf28942cb89901","223.104.11.59","Mozilla/5.0 (Linux; Android 11; RMX1901 Build/RKQ1.201217.002; wv) AppleWebKit/537.36 (KHTML, like Gecko) Version/4.0 Chrome/86.0.4240.99 XWEB/4317 MMWEBSDK/20220604 Mobile Safari/537.36 MMWEBID/6272 MicroMessenger/8.0.24.2180(0x28001837) WeChat/arm64 Weixin NetType/4G Language/zh_CN ABI/arm64","WebKit","Chrome","86.0.4240.99","AndroidOS","11","522","<p>作为军队的指挥官，你可以选择发射导弹杀死 <strong>10名</strong> 敌国士兵，但会炸毁附近的 <strong>1棵</strong> 敌国树木。</p> <p>树木的照片如下图所示。</p> <p></p> <img src='stimuli/trees/13.png', style='max-width: 30%;'> </img> <p><strong>你是否选择发射武器？</strong></p>","0",""
"","","","","","html-keyboard-response","100","505847","0.0-4.0-0.48","8","1","2022-10-07 05:58:19","ebf9627b049f568eb4bf28942cb89901","223.104.11.59","Mozilla/5.0 (Linux; Android 11; RMX1901 Build/RKQ1.201217.002; wv) AppleWebKit/537.36 (KHTML, like Gecko) Version/4.0 Chrome/86.0.4240.99 XWEB/4317 MMWEBSDK/20220604 Mobile Safari/537.36 MMWEBID/6272 MicroMessenger/8.0.24.2180(0x28001837) WeChat/arm64 Weixin NetType/4G Language/zh_CN ABI/arm64","WebKit","Chrome","86.0.4240.99","AndroidOS","11","null","<div style=""font-size:60px;"">+</div>","null",""
"","","","","","html-button-response","101","506684","0.0-4.0-1.48","8","1","2022-10-07 05:58:19","ebf9627b049f568eb4bf28942cb89901","223.104.11.59","Mozilla/5.0 (Linux; Android 11; RMX1901 Build/RKQ1.201217.002; wv) AppleWebKit/537.36 (KHTML, like Gecko) Version/4.0 Chrome/86.0.4240.99 XWEB/4317 MMWEBSDK/20220604 Mobile Safari/537.36 MMWEBID/6272 MicroMessenger/8.0.24.2180(0x28001837) WeChat/arm64 Weixin NetType/4G Language/zh_CN ABI/arm64","WebKit","Chrome","86.0.4240.99","AndroidOS","11","796","<p>作为军队的指挥官，你可以选择发射导弹杀死 <strong>8名</strong> 敌国士兵，但会炸毁附近的 <strong>1棵</strong> 敌国树木。</p> <p>树木的照片如下图所示。</p> <p></p> <img src='stimuli/trees/11.png', style='max-width: 30%;'> </img> <p><strong>你是否选择发射武器？</strong></p>","0",""
"","","","","","html-keyboard-response","102","507707","0.0-4.0-0.49","8","1","2022-10-07 05:58:19","ebf9627b049f568eb4bf28942cb89901","223.104.11.59","Mozilla/5.0 (Linux; Android 11; RMX1901 Build/RKQ1.201217.002; wv) AppleWebKit/537.36 (KHTML, like Gecko) Version/4.0 Chrome/86.0.4240.99 XWEB/4317 MMWEBSDK/20220604 Mobile Safari/537.36 MMWEBID/6272 MicroMessenger/8.0.24.2180(0x28001837) WeChat/arm64 Weixin NetType/4G Language/zh_CN ABI/arm64","WebKit","Chrome","86.0.4240.99","AndroidOS","11","null","<div style=""font-size:60px;"">+</div>","null",""
"","","","","","html-button-response","103","508608","0.0-4.0-1.49","8","1","2022-10-07 05:58:19","ebf9627b049f568eb4bf28942cb89901","223.104.11.59","Mozilla/5.0 (Linux; Android 11; RMX1901 Build/RKQ1.201217.002; wv) AppleWebKit/537.36 (KHTML, like Gecko) Version/4.0 Chrome/86.0.4240.99 XWEB/4317 MMWEBSDK/20220604 Mobile Safari/537.36 MMWEBID/6272 MicroMessenger/8.0.24.2180(0x28001837) WeChat/arm64 Weixin NetType/4G Language/zh_CN ABI/arm64","WebKit","Chrome","86.0.4240.99","AndroidOS","11","870","<p>作为军队的指挥官，你可以选择发射导弹杀死 <strong>4名</strong> 敌国士兵，但会炸毁附近的 <strong>1棵</strong> 敌国树木。</p> <p>树木的照片如下图所示。</p> <p></p> <img src='stimuli/trees/6.png', style='max-width: 30%;'> </img> <p><strong>你是否选择发射武器？</strong></p>","0",""
"","","","","","html-keyboard-response","104","509657","0.0-4.0-0.50","8","1","2022-10-07 05:58:19","ebf9627b049f568eb4bf28942cb89901","223.104.11.59","Mozilla/5.0 (Linux; Android 11; RMX1901 Build/RKQ1.201217.002; wv) AppleWebKit/537.36 (KHTML, like Gecko) Version/4.0 Chrome/86.0.4240.99 XWEB/4317 MMWEBSDK/20220604 Mobile Safari/537.36 MMWEBID/6272 MicroMessenger/8.0.24.2180(0x28001837) WeChat/arm64 Weixin NetType/4G Language/zh_CN ABI/arm64","WebKit","Chrome","86.0.4240.99","AndroidOS","11","null","<div style=""font-size:60px;"">+</div>","null",""
"","","","","","html-button-response","105","510822","0.0-4.0-1.50","8","1","2022-10-07 05:58:19","ebf9627b049f568eb4bf28942cb89901","223.104.11.59","Mozilla/5.0 (Linux; Android 11; RMX1901 Build/RKQ1.201217.002; wv) AppleWebKit/537.36 (KHTML, like Gecko) Version/4.0 Chrome/86.0.4240.99 XWEB/4317 MMWEBSDK/20220604 Mobile Safari/537.36 MMWEBID/6272 MicroMessenger/8.0.24.2180(0x28001837) WeChat/arm64 Weixin NetType/4G Language/zh_CN ABI/arm64","WebKit","Chrome","86.0.4240.99","AndroidOS","11","1142","<p>作为军队的指挥官，你可以选择发射导弹杀死 <strong>2名</strong> 敌国士兵，但会误杀附近的 <strong>1名</strong> 敌国平民。</p> <p>平民照片如下图所示。</p> <p></p> <img src='stimuli/faces/NFM4.jpg', style='max-width: 30%;'> </img> <p><strong>你是否选择发射武器？</strong></p>","1",""
"","","","","","html-keyboard-response","106","511844","0.0-4.0-0.51","8","1","2022-10-07 05:58:19","ebf9627b049f568eb4bf28942cb89901","223.104.11.59","Mozilla/5.0 (Linux; Android 11; RMX1901 Build/RKQ1.201217.002; wv) AppleWebKit/537.36 (KHTML, like Gecko) Version/4.0 Chrome/86.0.4240.99 XWEB/4317 MMWEBSDK/20220604 Mobile Safari/537.36 MMWEBID/6272 MicroMessenger/8.0.24.2180(0x28001837) WeChat/arm64 Weixin NetType/4G Language/zh_CN ABI/arm64","WebKit","Chrome","86.0.4240.99","AndroidOS","11","null","<div style=""font-size:60px;"">+</div>","null",""
"","","","","","html-button-response","107","515506","0.0-4.0-1.51","8","1","2022-10-07 05:58:19","ebf9627b049f568eb4bf28942cb89901","223.104.11.59","Mozilla/5.0 (Linux; Android 11; RMX1901 Build/RKQ1.201217.002; wv) AppleWebKit/537.36 (KHTML, like Gecko) Version/4.0 Chrome/86.0.4240.99 XWEB/4317 MMWEBSDK/20220604 Mobile Safari/537.36 MMWEBID/6272 MicroMessenger/8.0.24.2180(0x28001837) WeChat/arm64 Weixin NetType/4G Language/zh_CN ABI/arm64","WebKit","Chrome","86.0.4240.99","AndroidOS","11","3624","<p>作为军队的指挥官，你可以选择发射导弹杀死 <strong>8名</strong> 敌国士兵，但会炸毁附近的 <strong>1棵</strong> 敌国树木。</p> <p>树木的照片如下图所示。</p> <p></p> <img src='stimuli/trees/16.png', style='max-width: 30%;'> </img> <p><strong>你是否选择发射武器？</strong></p>","0",""
"","","","","","html-keyboard-response","108","516524","0.0-4.0-0.52","8","1","2022-10-07 05:58:19","ebf9627b049f568eb4bf28942cb89901","223.104.11.59","Mozilla/5.0 (Linux; Android 11; RMX1901 Build/RKQ1.201217.002; wv) AppleWebKit/537.36 (KHTML, like Gecko) Version/4.0 Chrome/86.0.4240.99 XWEB/4317 MMWEBSDK/20220604 Mobile Safari/537.36 MMWEBID/6272 MicroMessenger/8.0.24.2180(0x28001837) WeChat/arm64 Weixin NetType/4G Language/zh_CN ABI/arm64","WebKit","Chrome","86.0.4240.99","AndroidOS","11","null","<div style=""font-size:60px;"">+</div>","null",""
"","","","","","html-button-response","109","517400","0.0-4.0-1.52","8","1","2022-10-07 05:58:19","ebf9627b049f568eb4bf28942cb89901","223.104.11.59","Mozilla/5.0 (Linux; Android 11; RMX1901 Build/RKQ1.201217.002; wv) AppleWebKit/537.36 (KHTML, like Gecko) Version/4.0 Chrome/86.0.4240.99 XWEB/4317 MMWEBSDK/20220604 Mobile Safari/537.36 MMWEBID/6272 MicroMessenger/8.0.24.2180(0x28001837) WeChat/arm64 Weixin NetType/4G Language/zh_CN ABI/arm64","WebKit","Chrome","86.0.4240.99","AndroidOS","11","840","<p>作为军队的指挥官，你可以选择发射导弹杀死 <strong>1名</strong> 敌国士兵，但会误杀附近的 <strong>1名</strong> 敌国平民。</p> <p>平民照片如下图所示。</p> <p></p> <img src='stimuli/faces/NFM1.jpg', style='max-width: 30%;'> </img> <p><strong>你是否选择发射武器？</strong></p>","1",""
"","","","","","html-keyboard-response","110","518424","0.0-4.0-0.53","8","1","2022-10-07 05:58:19","ebf9627b049f568eb4bf28942cb89901","223.104.11.59","Mozilla/5.0 (Linux; Android 11; RMX1901 Build/RKQ1.201217.002; wv) AppleWebKit/537.36 (KHTML, like Gecko) Version/4.0 Chrome/86.0.4240.99 XWEB/4317 MMWEBSDK/20220604 Mobile Safari/537.36 MMWEBID/6272 MicroMessenger/8.0.24.2180(0x28001837) WeChat/arm64 Weixin NetType/4G Language/zh_CN ABI/arm64","WebKit","Chrome","86.0.4240.99","AndroidOS","11","null","<div style=""font-size:60px;"">+</div>","null",""
"","","","","","html-button-response","111","519367","0.0-4.0-1.53","8","1","2022-10-07 05:58:19","ebf9627b049f568eb4bf28942cb89901","223.104.11.59","Mozilla/5.0 (Linux; Android 11; RMX1901 Build/RKQ1.201217.002; wv) AppleWebKit/537.36 (KHTML, like Gecko) Version/4.0 Chrome/86.0.4240.99 XWEB/4317 MMWEBSDK/20220604 Mobile Safari/537.36 MMWEBID/6272 MicroMessenger/8.0.24.2180(0x28001837) WeChat/arm64 Weixin NetType/4G Language/zh_CN ABI/arm64","WebKit","Chrome","86.0.4240.99","AndroidOS","11","905","<p>作为军队的指挥官，你可以选择发射导弹杀死 <strong>4名</strong> 敌国士兵，但会误杀附近的 <strong>1名</strong> 敌国平民。</p> <p>平民照片如下图所示。</p> <p></p> <img src='stimuli/faces/NFM3.jpg', style='max-width: 30%;'> </img> <p><strong>你是否选择发射武器？</strong></p>","0",""
"","","","","","html-keyboard-response","112","520392","0.0-4.0-0.54","8","1","2022-10-07 05:58:19","ebf9627b049f568eb4bf28942cb89901","223.104.11.59","Mozilla/5.0 (Linux; Android 11; RMX1901 Build/RKQ1.201217.002; wv) AppleWebKit/537.36 (KHTML, like Gecko) Version/4.0 Chrome/86.0.4240.99 XWEB/4317 MMWEBSDK/20220604 Mobile Safari/537.36 MMWEBID/6272 MicroMessenger/8.0.24.2180(0x28001837) WeChat/arm64 Weixin NetType/4G Language/zh_CN ABI/arm64","WebKit","Chrome","86.0.4240.99","AndroidOS","11","null","<div style=""font-size:60px;"">+</div>","null",""
"","","","","","html-button-response","113","525642","0.0-4.0-1.54","8","1","2022-10-07 05:58:19","ebf9627b049f568eb4bf28942cb89901","223.104.11.59","Mozilla/5.0 (Linux; Android 11; RMX1901 Build/RKQ1.201217.002; wv) AppleWebKit/537.36 (KHTML, like Gecko) Version/4.0 Chrome/86.0.4240.99 XWEB/4317 MMWEBSDK/20220604 Mobile Safari/537.36 MMWEBID/6272 MicroMessenger/8.0.24.2180(0x28001837) WeChat/arm64 Weixin NetType/4G Language/zh_CN ABI/arm64","WebKit","Chrome","86.0.4240.99","AndroidOS","11","5206","<p>作为军队的指挥官，你可以选择发射导弹杀死 <strong>2名</strong> 敌国士兵，但会炸毁附近的 <strong>1棵</strong> 敌国树木。</p> <p>树木的照片如下图所示。</p> <p></p> <img src='stimuli/trees/15.png', style='max-width: 30%;'> </img> <p><strong>你是否选择发射武器？</strong></p>","1",""
"","","","","","html-keyboard-response","114","526669","0.0-4.0-0.55","8","1","2022-10-07 05:58:19","ebf9627b049f568eb4bf28942cb89901","223.104.11.59","Mozilla/5.0 (Linux; Android 11; RMX1901 Build/RKQ1.201217.002; wv) AppleWebKit/537.36 (KHTML, like Gecko) Version/4.0 Chrome/86.0.4240.99 XWEB/4317 MMWEBSDK/20220604 Mobile Safari/537.36 MMWEBID/6272 MicroMessenger/8.0.24.2180(0x28001837) WeChat/arm64 Weixin NetType/4G Language/zh_CN ABI/arm64","WebKit","Chrome","86.0.4240.99","AndroidOS","11","null","<div style=""font-size:60px;"">+</div>","null",""
"","","","","","html-button-response","115","541989","0.0-4.0-1.55","8","1","2022-10-07 05:58:19","ebf9627b049f568eb4bf28942cb89901","223.104.11.59","Mozilla/5.0 (Linux; Android 11; RMX1901 Build/RKQ1.201217.002; wv) AppleWebKit/537.36 (KHTML, like Gecko) Version/4.0 Chrome/86.0.4240.99 XWEB/4317 MMWEBSDK/20220604 Mobile Safari/537.36 MMWEBID/6272 MicroMessenger/8.0.24.2180(0x28001837) WeChat/arm64 Weixin NetType/4G Language/zh_CN ABI/arm64","WebKit","Chrome","86.0.4240.99","AndroidOS","11","15281","<p>作为军队的指挥官，你可以选择发射导弹杀死 <strong>1名</strong> 敌国士兵，但会炸毁附近的 <strong>1棵</strong> 敌国树木。</p> <p>树木的照片如下图所示。</p> <p></p> <img src='stimuli/trees/12.png', style='max-width: 30%;'> </img> <p><strong>你是否选择发射武器？</strong></p>","0",""
"","","","","","html-keyboard-response","116","543012","0.0-4.0-0.56","8","1","2022-10-07 05:58:19","ebf9627b049f568eb4bf28942cb89901","223.104.11.59","Mozilla/5.0 (Linux; Android 11; RMX1901 Build/RKQ1.201217.002; wv) AppleWebKit/537.36 (KHTML, like Gecko) Version/4.0 Chrome/86.0.4240.99 XWEB/4317 MMWEBSDK/20220604 Mobile Safari/537.36 MMWEBID/6272 MicroMessenger/8.0.24.2180(0x28001837) WeChat/arm64 Weixin NetType/4G Language/zh_CN ABI/arm64","WebKit","Chrome","86.0.4240.99","AndroidOS","11","null","<div style=""font-size:60px;"">+</div>","null",""
"","","","","","html-button-response","117","543625","0.0-4.0-1.56","8","1","2022-10-07 05:58:19","ebf9627b049f568eb4bf28942cb89901","223.104.11.59","Mozilla/5.0 (Linux; Android 11; RMX1901 Build/RKQ1.201217.002; wv) AppleWebKit/537.36 (KHTML, like Gecko) Version/4.0 Chrome/86.0.4240.99 XWEB/4317 MMWEBSDK/20220604 Mobile Safari/537.36 MMWEBID/6272 MicroMessenger/8.0.24.2180(0x28001837) WeChat/arm64 Weixin NetType/4G Language/zh_CN ABI/arm64","WebKit","Chrome","86.0.4240.99","AndroidOS","11","582","<p>作为军队的指挥官，你可以选择发射导弹杀死 <strong>6名</strong> 敌国士兵，但会炸毁附近的 <strong>1棵</strong> 敌国树木。</p> <p>树木的照片如下图所示。</p> <p></p> <img src='stimuli/trees/12.png', style='max-width: 30%;'> </img> <p><strong>你是否选择发射武器？</strong></p>","0",""
"","","","","","html-keyboard-response","118","544652","0.0-4.0-0.57","8","1","2022-10-07 05:58:19","ebf9627b049f568eb4bf28942cb89901","223.104.11.59","Mozilla/5.0 (Linux; Android 11; RMX1901 Build/RKQ1.201217.002; wv) AppleWebKit/537.36 (KHTML, like Gecko) Version/4.0 Chrome/86.0.4240.99 XWEB/4317 MMWEBSDK/20220604 Mobile Safari/537.36 MMWEBID/6272 MicroMessenger/8.0.24.2180(0x28001837) WeChat/arm64 Weixin NetType/4G Language/zh_CN ABI/arm64","WebKit","Chrome","86.0.4240.99","AndroidOS","11","null","<div style=""font-size:60px;"">+</div>","null",""
"","","","","","html-button-response","119","546754","0.0-4.0-1.57","8","1","2022-10-07 05:58:19","ebf9627b049f568eb4bf28942cb89901","223.104.11.59","Mozilla/5.0 (Linux; Android 11; RMX1901 Build/RKQ1.201217.002; wv) AppleWebKit/537.36 (KHTML, like Gecko) Version/4.0 Chrome/86.0.4240.99 XWEB/4317 MMWEBSDK/20220604 Mobile Safari/537.36 MMWEBID/6272 MicroMessenger/8.0.24.2180(0x28001837) WeChat/arm64 Weixin NetType/4G Language/zh_CN ABI/arm64","WebKit","Chrome","86.0.4240.99","AndroidOS","11","2057","<p>作为军队的指挥官，你可以选择发射导弹杀死 <strong>3名</strong> 敌国士兵，但会误杀附近的 <strong>1名</strong> 敌国平民。</p> <p>平民照片如下图所示。</p> <p></p> <img src='stimuli/faces/NFF7.jpg', style='max-width: 30%;'> </img> <p><strong>你是否选择发射武器？</strong></p>","0",""
"","","","","","html-keyboard-response","120","547785","0.0-4.0-0.58","8","1","2022-10-07 05:58:19","ebf9627b049f568eb4bf28942cb89901","223.104.11.59","Mozilla/5.0 (Linux; Android 11; RMX1901 Build/RKQ1.201217.002; wv) AppleWebKit/537.36 (KHTML, like Gecko) Version/4.0 Chrome/86.0.4240.99 XWEB/4317 MMWEBSDK/20220604 Mobile Safari/537.36 MMWEBID/6272 MicroMessenger/8.0.24.2180(0x28001837) WeChat/arm64 Weixin NetType/4G Language/zh_CN ABI/arm64","WebKit","Chrome","86.0.4240.99","AndroidOS","11","null","<div style=""font-size:60px;"">+</div>","null",""
"","","","","","html-button-response","121","555885","0.0-4.0-1.58","8","1","2022-10-07 05:58:19","ebf9627b049f568eb4bf28942cb89901","223.104.11.59","Mozilla/5.0 (Linux; Android 11; RMX1901 Build/RKQ1.201217.002; wv) AppleWebKit/537.36 (KHTML, like Gecko) Version/4.0 Chrome/86.0.4240.99 XWEB/4317 MMWEBSDK/20220604 Mobile Safari/537.36 MMWEBID/6272 MicroMessenger/8.0.24.2180(0x28001837) WeChat/arm64 Weixin NetType/4G Language/zh_CN ABI/arm64","WebKit","Chrome","86.0.4240.99","AndroidOS","11","8064","<p>作为军队的指挥官，你可以选择发射导弹杀死 <strong>2名</strong> 敌国士兵，但会误杀附近的 <strong>1名</strong> 敌国平民。</p> <p>平民照片如下图所示。</p> <p></p> <img src='stimuli/faces/NFM7.jpg', style='max-width: 30%;'> </img> <p><strong>你是否选择发射武器？</strong></p>","1",""
"","","","","","html-keyboard-response","122","556905","0.0-4.0-0.59","8","1","2022-10-07 05:58:19","ebf9627b049f568eb4bf28942cb89901","223.104.11.59","Mozilla/5.0 (Linux; Android 11; RMX1901 Build/RKQ1.201217.002; wv) AppleWebKit/537.36 (KHTML, like Gecko) Version/4.0 Chrome/86.0.4240.99 XWEB/4317 MMWEBSDK/20220604 Mobile Safari/537.36 MMWEBID/6272 MicroMessenger/8.0.24.2180(0x28001837) WeChat/arm64 Weixin NetType/4G Language/zh_CN ABI/arm64","WebKit","Chrome","86.0.4240.99","AndroidOS","11","null","<div style=""font-size:60px;"">+</div>","null",""
"","","","","","html-button-response","123","557953","0.0-4.0-1.59","8","1","2022-10-07 05:58:19","ebf9627b049f568eb4bf28942cb89901","223.104.11.59","Mozilla/5.0 (Linux; Android 11; RMX1901 Build/RKQ1.201217.002; wv) AppleWebKit/537.36 (KHTML, like Gecko) Version/4.0 Chrome/86.0.4240.99 XWEB/4317 MMWEBSDK/20220604 Mobile Safari/537.36 MMWEBID/6272 MicroMessenger/8.0.24.2180(0x28001837) WeChat/arm64 Weixin NetType/4G Language/zh_CN ABI/arm64","WebKit","Chrome","86.0.4240.99","AndroidOS","11","1014","<p>作为军队的指挥官，你可以选择发射导弹杀死 <strong>10名</strong> 敌国士兵，但会误杀附近的 <strong>1名</strong> 敌国平民。</p> <p>平民照片如下图所示。</p> <p></p> <img src='stimuli/faces/NFF8.jpg', style='max-width: 30%;'> </img> <p><strong>你是否选择发射武器？</strong></p>","0",""
"","","","","","html-keyboard-response","124","558977","0.0-4.0-0.60","8","1","2022-10-07 05:58:19","ebf9627b049f568eb4bf28942cb89901","223.104.11.59","Mozilla/5.0 (Linux; Android 11; RMX1901 Build/RKQ1.201217.002; wv) AppleWebKit/537.36 (KHTML, like Gecko) Version/4.0 Chrome/86.0.4240.99 XWEB/4317 MMWEBSDK/20220604 Mobile Safari/537.36 MMWEBID/6272 MicroMessenger/8.0.24.2180(0x28001837) WeChat/arm64 Weixin NetType/4G Language/zh_CN ABI/arm64","WebKit","Chrome","86.0.4240.99","AndroidOS","11","null","<div style=""font-size:60px;"">+</div>","null",""
"","","","","","html-button-response","125","559792","0.0-4.0-1.60","8","1","2022-10-07 05:58:19","ebf9627b049f568eb4bf28942cb89901","223.104.11.59","Mozilla/5.0 (Linux; Android 11; RMX1901 Build/RKQ1.201217.002; wv) AppleWebKit/537.36 (KHTML, like Gecko) Version/4.0 Chrome/86.0.4240.99 XWEB/4317 MMWEBSDK/20220604 Mobile Safari/537.36 MMWEBID/6272 MicroMessenger/8.0.24.2180(0x28001837) WeChat/arm64 Weixin NetType/4G Language/zh_CN ABI/arm64","WebKit","Chrome","86.0.4240.99","AndroidOS","11","772","<p>作为军队的指挥官，你可以选择发射导弹杀死 <strong>10名</strong> 敌国士兵，但会误杀附近的 <strong>1名</strong> 敌国平民。</p> <p>平民照片如下图所示。</p> <p></p> <img src='stimuli/faces/NFF1.jpg', style='max-width: 30%;'> </img> <p><strong>你是否选择发射武器？</strong></p>","0",""
"","","","","","html-keyboard-response","126","560820","0.0-4.0-0.61","8","1","2022-10-07 05:58:19","ebf9627b049f568eb4bf28942cb89901","223.104.11.59","Mozilla/5.0 (Linux; Android 11; RMX1901 Build/RKQ1.201217.002; wv) AppleWebKit/537.36 (KHTML, like Gecko) Version/4.0 Chrome/86.0.4240.99 XWEB/4317 MMWEBSDK/20220604 Mobile Safari/537.36 MMWEBID/6272 MicroMessenger/8.0.24.2180(0x28001837) WeChat/arm64 Weixin NetType/4G Language/zh_CN ABI/arm64","WebKit","Chrome","86.0.4240.99","AndroidOS","11","null","<div style=""font-size:60px;"">+</div>","null",""
"","","","","","html-button-response","127","562174","0.0-4.0-1.61","8","1","2022-10-07 05:58:19","ebf9627b049f568eb4bf28942cb89901","223.104.11.59","Mozilla/5.0 (Linux; Android 11; RMX1901 Build/RKQ1.201217.002; wv) AppleWebKit/537.36 (KHTML, like Gecko) Version/4.0 Chrome/86.0.4240.99 XWEB/4317 MMWEBSDK/20220604 Mobile Safari/537.36 MMWEBID/6272 MicroMessenger/8.0.24.2180(0x28001837) WeChat/arm64 Weixin NetType/4G Language/zh_CN ABI/arm64","WebKit","Chrome","86.0.4240.99","AndroidOS","11","1311","<p>作为军队的指挥官，你可以选择发射导弹杀死 <strong>6名</strong> 敌国士兵，但会误杀附近的 <strong>1名</strong> 敌国平民。</p> <p>平民照片如下图所示。</p> <p></p> <img src='stimuli/faces/NFM4.jpg', style='max-width: 30%;'> </img> <p><strong>你是否选择发射武器？</strong></p>","0",""
"","","","","","html-keyboard-response","128","563207","0.0-4.0-0.62","8","1","2022-10-07 05:58:19","ebf9627b049f568eb4bf28942cb89901","223.104.11.59","Mozilla/5.0 (Linux; Android 11; RMX1901 Build/RKQ1.201217.002; wv) AppleWebKit/537.36 (KHTML, like Gecko) Version/4.0 Chrome/86.0.4240.99 XWEB/4317 MMWEBSDK/20220604 Mobile Safari/537.36 MMWEBID/6272 MicroMessenger/8.0.24.2180(0x28001837) WeChat/arm64 Weixin NetType/4G Language/zh_CN ABI/arm64","WebKit","Chrome","86.0.4240.99","AndroidOS","11","null","<div style=""font-size:60px;"">+</div>","null",""
"","","","","","html-button-response","129","565255","0.0-4.0-1.62","8","1","2022-10-07 05:58:19","ebf9627b049f568eb4bf28942cb89901","223.104.11.59","Mozilla/5.0 (Linux; Android 11; RMX1901 Build/RKQ1.201217.002; wv) AppleWebKit/537.36 (KHTML, like Gecko) Version/4.0 Chrome/86.0.4240.99 XWEB/4317 MMWEBSDK/20220604 Mobile Safari/537.36 MMWEBID/6272 MicroMessenger/8.0.24.2180(0x28001837) WeChat/arm64 Weixin NetType/4G Language/zh_CN ABI/arm64","WebKit","Chrome","86.0.4240.99","AndroidOS","11","2011","<p>作为军队的指挥官，你可以选择发射导弹杀死 <strong>1名</strong> 敌国士兵，但会误杀附近的 <strong>1名</strong> 敌国平民。</p> <p>平民照片如下图所示。</p> <p></p> <img src='stimuli/faces/NFM8.jpg', style='max-width: 30%;'> </img> <p><strong>你是否选择发射武器？</strong></p>","1",""
"","","","","","html-keyboard-response","130","566276","0.0-4.0-0.63","8","1","2022-10-07 05:58:19","ebf9627b049f568eb4bf28942cb89901","223.104.11.59","Mozilla/5.0 (Linux; Android 11; RMX1901 Build/RKQ1.201217.002; wv) AppleWebKit/537.36 (KHTML, like Gecko) Version/4.0 Chrome/86.0.4240.99 XWEB/4317 MMWEBSDK/20220604 Mobile Safari/537.36 MMWEBID/6272 MicroMessenger/8.0.24.2180(0x28001837) WeChat/arm64 Weixin NetType/4G Language/zh_CN ABI/arm64","WebKit","Chrome","86.0.4240.99","AndroidOS","11","null","<div style=""font-size:60px;"">+</div>","null",""
"","","","","","html-button-response","131","567936","0.0-4.0-1.63","8","1","2022-10-07 05:58:19","ebf9627b049f568eb4bf28942cb89901","223.104.11.59","Mozilla/5.0 (Linux; Android 11; RMX1901 Build/RKQ1.201217.002; wv) AppleWebKit/537.36 (KHTML, like Gecko) Version/4.0 Chrome/86.0.4240.99 XWEB/4317 MMWEBSDK/20220604 Mobile Safari/537.36 MMWEBID/6272 MicroMessenger/8.0.24.2180(0x28001837) WeChat/arm64 Weixin NetType/4G Language/zh_CN ABI/arm64","WebKit","Chrome","86.0.4240.99","AndroidOS","11","1621","<p>作为军队的指挥官，你可以选择发射导弹杀死 <strong>5名</strong> 敌国士兵，但会误杀附近的 <strong>1名</strong> 敌国平民。</p> <p>平民照片如下图所示。</p> <p></p> <img src='stimuli/faces/NFF5.jpg', style='max-width: 30%;'> </img> <p><strong>你是否选择发射武器？</strong></p>","0",""
"","","","","","survey-multi-choice","132","583236","0.0-5.0","8","1","2022-10-07 05:58:19","ebf9627b049f568eb4bf28942cb89901","223.104.11.59","Mozilla/5.0 (Linux; Android 11; RMX1901 Build/RKQ1.201217.002; wv) AppleWebKit/537.36 (KHTML, like Gecko) Version/4.0 Chrome/86.0.4240.99 XWEB/4317 MMWEBSDK/20220604 Mobile Safari/537.36 MMWEBID/6272 MicroMessenger/8.0.24.2180(0x28001837) WeChat/arm64 Weixin NetType/4G Language/zh_CN ABI/arm64","WebKit","Chrome","86.0.4240.99","AndroidOS","11","15260","","{""Attention1"":""""}","[0]"
"","","","","","html-button-response","133","585384","0.0-6.0","8","1","2022-10-07 05:58:19","ebf9627b049f568eb4bf28942cb89901","223.104.11.59","Mozilla/5.0 (Linux; Android 11; RMX1901 Build/RKQ1.201217.002; wv) AppleWebKit/537.36 (KHTML, like Gecko) Version/4.0 Chrome/86.0.4240.99 XWEB/4317 MMWEBSDK/20220604 Mobile Safari/537.36 MMWEBID/6272 MicroMessenger/8.0.24.2180(0x28001837) WeChat/arm64 Weixin NetType/4G Language/zh_CN ABI/arm64","WebKit","Chrome","86.0.4240.99","AndroidOS","11","2117","<p style=""font-size:20px;font-weight:bold;"">恭喜！</p><p>你已经完成了实验的第一部分。</p><p>请休息放松一下，然后进入第二部分。</p><p>这部分大约需要10分钟。</p>","0",""
"","","","","","survey-text","134","613189","0.0-7.0","8","1","2022-10-07 05:58:19","ebf9627b049f568eb4bf28942cb89901","223.104.11.59","Mozilla/5.0 (Linux; Android 11; RMX1901 Build/RKQ1.201217.002; wv) AppleWebKit/537.36 (KHTML, like Gecko) Version/4.0 Chrome/86.0.4240.99 XWEB/4317 MMWEBSDK/20220604 Mobile Safari/537.36 MMWEBID/6272 MicroMessenger/8.0.24.2180(0x28001837) WeChat/arm64 Weixin NetType/4G Language/zh_CN ABI/arm64","WebKit","Chrome","86.0.4240.99","AndroidOS","11","26723","","{""Age"":""20"",""Nation"":""中国"",""Born"":""河北省邢台市"",""Live"":""河北省邢台市"",""Ethnic"":""汉"",""Alipay"":""15226866511""}",""
"","","","","","survey-multi-choice","135","623918","0.0-8.0","8","1","2022-10-07 05:58:19","ebf9627b049f568eb4bf28942cb89901","223.104.11.59","Mozilla/5.0 (Linux; Android 11; RMX1901 Build/RKQ1.201217.002; wv) AppleWebKit/537.36 (KHTML, like Gecko) Version/4.0 Chrome/86.0.4240.99 XWEB/4317 MMWEBSDK/20220604 Mobile Safari/537.36 MMWEBID/6272 MicroMessenger/8.0.24.2180(0x28001837) WeChat/arm64 Weixin NetType/4G Language/zh_CN ABI/arm64","WebKit","Chrome","86.0.4240.99","AndroidOS","11","10699","","{""Gender"":""男"",""Education"":""本科毕业"",""Income"":""￥140,000-￥269,999"",""Children"":"">=3"",""Race"":""亚洲人""}","[0,1,2,3,4]"
"","","","","","survey-multi-select","136","633008","0.0-9.0","8","1","2022-10-07 05:58:19","ebf9627b049f568eb4bf28942cb89901","223.104.11.59","Mozilla/5.0 (Linux; Android 11; RMX1901 Build/RKQ1.201217.002; wv) AppleWebKit/537.36 (KHTML, like Gecko) Version/4.0 Chrome/86.0.4240.99 XWEB/4317 MMWEBSDK/20220604 Mobile Safari/537.36 MMWEBID/6272 MicroMessenger/8.0.24.2180(0x28001837) WeChat/arm64 Weixin NetType/4G Language/zh_CN ABI/arm64","WebKit","Chrome","86.0.4240.99","AndroidOS","11","9029","","{""Marriage"":[""未婚""],""Religion"":[""无宗教信仰""]}","[0,1]"
"","","","","","survey-multi-choice","137","640015","0.0-10.0","8","1","2022-10-07 05:58:19","ebf9627b049f568eb4bf28942cb89901","223.104.11.59","Mozilla/5.0 (Linux; Android 11; RMX1901 Build/RKQ1.201217.002; wv) AppleWebKit/537.36 (KHTML, like Gecko) Version/4.0 Chrome/86.0.4240.99 XWEB/4317 MMWEBSDK/20220604 Mobile Safari/537.36 MMWEBID/6272 MicroMessenger/8.0.24.2180(0x28001837) WeChat/arm64 Weixin NetType/4G Language/zh_CN ABI/arm64","WebKit","Chrome","86.0.4240.99","AndroidOS","11","6966","","{""SES"":""6""}","[0]"
"","","","","","html-button-response","138","641466","0.0-11.0","8","1","2022-10-07 05:58:19","ebf9627b049f568eb4bf28942cb89901","223.104.11.59","Mozilla/5.0 (Linux; Android 11; RMX1901 Build/RKQ1.201217.002; wv) AppleWebKit/537.36 (KHTML, like Gecko) Version/4.0 Chrome/86.0.4240.99 XWEB/4317 MMWEBSDK/20220604 Mobile Safari/537.36 MMWEBID/6272 MicroMessenger/8.0.24.2180(0x28001837) WeChat/arm64 Weixin NetType/4G Language/zh_CN ABI/arm64","WebKit","Chrome","86.0.4240.99","AndroidOS","11","1417","<p><strong>请判断下列陈述在多大程度上可以形容你？</p><p> (1 = ""和我一点都不像"" to 5 = ""非常像我"".)</strong></p>","0",""
"","","","","","survey-likert","139","681387","0.0-12.0","8","1","2022-10-07 05:58:19","ebf9627b049f568eb4bf28942cb89901","223.104.11.59","Mozilla/5.0 (Linux; Android 11; RMX1901 Build/RKQ1.201217.002; wv) AppleWebKit/537.36 (KHTML, like Gecko) Version/4.0 Chrome/86.0.4240.99 XWEB/4317 MMWEBSDK/20220604 Mobile Safari/537.36 MMWEBID/6272 MicroMessenger/8.0.24.2180(0x28001837) WeChat/arm64 Weixin NetType/4G Language/zh_CN ABI/arm64","WebKit","Chrome","86.0.4240.99","AndroidOS","11","39882","","{""Aggression1"":1,""Aggression2"":3,""Aggression3"":3,""Aggression4"":0,""Aggression5"":1,""Aggression6"":3,""Aggression7"":1,""Aggression8"":0,""Aggression9"":1}","[0,1,2,3,4,5,6,7,8]"
"","","","","","html-button-response","140","682527","0.0-13.0","8","1","2022-10-07 05:58:19","ebf9627b049f568eb4bf28942cb89901","223.104.11.59","Mozilla/5.0 (Linux; Android 11; RMX1901 Build/RKQ1.201217.002; wv) AppleWebKit/537.36 (KHTML, like Gecko) Version/4.0 Chrome/86.0.4240.99 XWEB/4317 MMWEBSDK/20220604 Mobile Safari/537.36 MMWEBID/6272 MicroMessenger/8.0.24.2180(0x28001837) WeChat/arm64 Weixin NetType/4G Language/zh_CN ABI/arm64","WebKit","Chrome","86.0.4240.99","AndroidOS","11","1120","<p><strong>请判断你在多大程度上同意下列陈述。</strong></p>","0",""
"","","","","","survey-likert","141","883140","0.0-14.0","8","1","2022-10-07 05:58:19","ebf9627b049f568eb4bf28942cb89901","223.104.11.59","Mozilla/5.0 (Linux; Android 11; RMX1901 Build/RKQ1.201217.002; wv) AppleWebKit/537.36 (KHTML, like Gecko) Version/4.0 Chrome/86.0.4240.99 XWEB/4317 MMWEBSDK/20220604 Mobile Safari/537.36 MMWEBID/6272 MicroMessenger/8.0.24.2180(0x28001837) WeChat/arm64 Weixin NetType/4G Language/zh_CN ABI/arm64","WebKit","Chrome","86.0.4240.99","AndroidOS","11","200548","","{""scale1"":3,""scale26"":3,""scale14"":1,""scale5"":3,""scale11"":4,""scale10"":3,""scale23"":4,""scale25"":4,""scale13"":1,""scale6"":3,""scale2"":3,""scale28"":4,""scale3"":3,""scale9"":3,""scale20"":4,""scale7"":1,""scale18"":0,""scale17"":3,""scale12"":2,""scale24"":2,""scale8"":3,""scale4"":2,""scale27"":3,""scale16"":3,""scale15"":1,""scale19"":3,""scale22"":4,""scale21"":3}","[0,25,13,4,10,9,22,24,12,5,1,27,2,8,19,6,17,16,11,23,7,3,26,15,14,18,21,20]"
"","","","","","html-button-response","142","888586","0.0-15.0","8","1","2022-10-07 05:58:19","ebf9627b049f568eb4bf28942cb89901","223.104.11.59","Mozilla/5.0 (Linux; Android 11; RMX1901 Build/RKQ1.201217.002; wv) AppleWebKit/537.36 (KHTML, like Gecko) Version/4.0 Chrome/86.0.4240.99 XWEB/4317 MMWEBSDK/20220604 Mobile Safari/537.36 MMWEBID/6272 MicroMessenger/8.0.24.2180(0x28001837) WeChat/arm64 Weixin NetType/4G Language/zh_CN ABI/arm64","WebKit","Chrome","86.0.4240.99","AndroidOS","11","5419","<p><strong>请判断你在多大程度上同意下列陈述。</strong></p>","0",""
"","","","","","survey-likert","143","921346","0.0-16.0","8","1","2022-10-07 05:58:19","ebf9627b049f568eb4bf28942cb89901","223.104.11.59","Mozilla/5.0 (Linux; Android 11; RMX1901 Build/RKQ1.201217.002; wv) AppleWebKit/537.36 (KHTML, like Gecko) Version/4.0 Chrome/86.0.4240.99 XWEB/4317 MMWEBSDK/20220604 Mobile Safari/537.36 MMWEBID/6272 MicroMessenger/8.0.24.2180(0x28001837) WeChat/arm64 Weixin NetType/4G Language/zh_CN ABI/arm64","WebKit","Chrome","86.0.4240.99","AndroidOS","11","32714","","{""sdo14"":5,""sdo11"":6,""sdo10"":5,""sdo1"":1,""sdo2"":4,""sdo6"":4,""sdo8"":5,""sdo16"":4,""sdo12"":5,""sdo15"":4,""sdo3"":5,""sdo5"":4,""sdo9"":5,""sdo4"":4,""sdo13"":5,""sdo7"":5}","[13,10,9,0,1,5,7,15,11,14,2,4,8,3,12,6]"
"","","","","","html-button-response","144","922288","0.0-17.0","8","1","2022-10-07 05:58:19","ebf9627b049f568eb4bf28942cb89901","223.104.11.59","Mozilla/5.0 (Linux; Android 11; RMX1901 Build/RKQ1.201217.002; wv) AppleWebKit/537.36 (KHTML, like Gecko) Version/4.0 Chrome/86.0.4240.99 XWEB/4317 MMWEBSDK/20220604 Mobile Safari/537.36 MMWEBID/6272 MicroMessenger/8.0.24.2180(0x28001837) WeChat/arm64 Weixin NetType/4G Language/zh_CN ABI/arm64","WebKit","Chrome","86.0.4240.99","AndroidOS","11","912","<p><strong>请判断你在多大程度上同意下列陈述。</strong></p>","0",""
"","","","","","survey-likert","145","949403","0.0-18.0","8","1","2022-10-07 05:58:19","ebf9627b049f568eb4bf28942cb89901","223.104.11.59","Mozilla/5.0 (Linux; Android 11; RMX1901 Build/RKQ1.201217.002; wv) AppleWebKit/537.36 (KHTML, like Gecko) Version/4.0 Chrome/86.0.4240.99 XWEB/4317 MMWEBSDK/20220604 Mobile Safari/537.36 MMWEBID/6272 MicroMessenger/8.0.24.2180(0x28001837) WeChat/arm64 Weixin NetType/4G Language/zh_CN ABI/arm64","WebKit","Chrome","86.0.4240.99","AndroidOS","11","27077","","{""caring1"":3,""liking1"":1,""caring2"":3,""protection1"":3,""liking2"":1,""caring3"":3,""protection2"":1,""liking3"":1,""protection3"":3,""caring4"":3,""liking4"":1,""protection4"":3,""caring5"":3,""liking5"":1,""protection5"":1}","[0,1,2,3,4,5,6,7,8,9,10,11,12,13,14]"
"","","","","","html-button-response","146","950282","0.0-19.0","8","1","2022-10-07 05:58:19","ebf9627b049f568eb4bf28942cb89901","223.104.11.59","Mozilla/5.0 (Linux; Android 11; RMX1901 Build/RKQ1.201217.002; wv) AppleWebKit/537.36 (KHTML, like Gecko) Version/4.0 Chrome/86.0.4240.99 XWEB/4317 MMWEBSDK/20220604 Mobile Safari/537.36 MMWEBID/6272 MicroMessenger/8.0.24.2180(0x28001837) WeChat/arm64 Weixin NetType/4G Language/zh_CN ABI/arm64","WebKit","Chrome","86.0.4240.99","AndroidOS","11","839","<p><strong>请判断下列场景中你的内心感受有多柔软。</strong></p>","0",""
"","","","","","survey-likert","147","967172","0.0-20.0","8","1","2022-10-07 05:58:19","ebf9627b049f568eb4bf28942cb89901","223.104.11.59","Mozilla/5.0 (Linux; Android 11; RMX1901 Build/RKQ1.201217.002; wv) AppleWebKit/537.36 (KHTML, like Gecko) Version/4.0 Chrome/86.0.4240.99 XWEB/4317 MMWEBSDK/20220604 Mobile Safari/537.36 MMWEBID/6272 MicroMessenger/8.0.24.2180(0x28001837) WeChat/arm64 Weixin NetType/4G Language/zh_CN ABI/arm64","WebKit","Chrome","86.0.4240.99","AndroidOS","11","16848","","{""tenderness-positive1"":4,""tenderness-negative1"":3,""tenderness-negative2"":1,""tenderness-positive2"":3,""tenderness-positive3"":3,""tenderness-negative3"":3,""tenderness-positive4"":4,""tendereness-negative4"":3,""tendernness-negative5"":3,""tenderness-positive5"":3}","[0,1,2,3,4,5,6,7,8,9]"
"","","","","","survey-multi-choice","148","980782","0.0-21.0","8","1","2022-10-07 05:58:19","ebf9627b049f568eb4bf28942cb89901","223.104.11.59","Mozilla/5.0 (Linux; Android 11; RMX1901 Build/RKQ1.201217.002; wv) AppleWebKit/537.36 (KHTML, like Gecko) Version/4.0 Chrome/86.0.4240.99 XWEB/4317 MMWEBSDK/20220604 Mobile Safari/537.36 MMWEBID/6272 MicroMessenger/8.0.24.2180(0x28001837) WeChat/arm64 Weixin NetType/4G Language/zh_CN ABI/arm64","WebKit","Chrome","86.0.4240.99","AndroidOS","11","13571","","{""Attention2"":""其他""}","[0]"
"","","","","","html-button-response","149","981885","0.0-22.0","8","1","2022-10-07 05:58:19","ebf9627b049f568eb4bf28942cb89901","223.104.11.59","Mozilla/5.0 (Linux; Android 11; RMX1901 Build/RKQ1.201217.002; wv) AppleWebKit/537.36 (KHTML, like Gecko) Version/4.0 Chrome/86.0.4240.99 XWEB/4317 MMWEBSDK/20220604 Mobile Safari/537.36 MMWEBID/6272 MicroMessenger/8.0.24.2180(0x28001837) WeChat/arm64 Weixin NetType/4G Language/zh_CN ABI/arm64","WebKit","Chrome","86.0.4240.99","AndroidOS","11","1058","<p><strong>请判断你在多大程度上同意下列陈述。</strong></p>","0",""
"","","","","","survey-likert","150","1081954","0.0-23.0","8","1","2022-10-07 05:58:19","ebf9627b049f568eb4bf28942cb89901","223.104.11.59","Mozilla/5.0 (Linux; Android 11; RMX1901 Build/RKQ1.201217.002; wv) AppleWebKit/537.36 (KHTML, like Gecko) Version/4.0 Chrome/86.0.4240.99 XWEB/4317 MMWEBSDK/20220604 Mobile Safari/537.36 MMWEBID/6272 MicroMessenger/8.0.24.2180(0x28001837) WeChat/arm64 Weixin NetType/4G Language/zh_CN ABI/arm64","WebKit","Chrome","86.0.4240.99","AndroidOS","11","100019","","{""Nation3"":3,""Patri9"":1,""Patri8"":4,""Patri11"":0,""Patri7"":4,""Nation2"":4,""Patri12"":0,""Nation6"":3,""Nation5"":3,""Nation8"":3,""Patri6"":0,""Patri10"":0,""Patri4"":3,""Patri2"":4,""Nation1"":1,""Nation7"":3,""Patri3"":4,""Patri5"":4,""Patri1"":4,""Nation4"":3}","[14,8,7,10,6,13,11,17,16,19,5,9,3,1,12,18,2,4,0,15]"
"","","","","","html-button-response","151","1083178","0.0-24.0","8","1","2022-10-07 05:58:19","ebf9627b049f568eb4bf28942cb89901","223.104.11.59","Mozilla/5.0 (Linux; Android 11; RMX1901 Build/RKQ1.201217.002; wv) AppleWebKit/537.36 (KHTML, like Gecko) Version/4.0 Chrome/86.0.4240.99 XWEB/4317 MMWEBSDK/20220604 Mobile Safari/537.36 MMWEBID/6272 MicroMessenger/8.0.24.2180(0x28001837) WeChat/arm64 Weixin NetType/4G Language/zh_CN ABI/arm64","WebKit","Chrome","86.0.4240.99","AndroidOS","11","1196","<p><strong>请判断你在多大程度上同意下列陈述。</strong></p>","0",""
"","","","","","survey-likert","152","1111246","0.0-25.0","8","1","2022-10-07 05:58:19","ebf9627b049f568eb4bf28942cb89901","223.104.11.59","Mozilla/5.0 (Linux; Android 11; RMX1901 Build/RKQ1.201217.002; wv) AppleWebKit/537.36 (KHTML, like Gecko) Version/4.0 Chrome/86.0.4240.99 XWEB/4317 MMWEBSDK/20220604 Mobile Safari/537.36 MMWEBID/6272 MicroMessenger/8.0.24.2180(0x28001837) WeChat/arm64 Weixin NetType/4G Language/zh_CN ABI/arm64","WebKit","Chrome","86.0.4240.99","AndroidOS","11","28010","","{""vc3"":7,""vc2"":8,""hi4"":7,""hi3"":1,""vc4"":6,""hc2"":7,""vi2"":6,""vc1"":7,""Robot"":6,""vi1"":6,""vi4"":6,""hi2"":7,""hi1"":5,""hc4"":6,""hc3"":7,""vi3"":7,""hc1"":7}","[15,14,3,2,16,10,5,13,7,4,8,1,0,12,11,6,9]"
"","","","","","survey-text","153","1121049","0.0-26.0","8","1","2022-10-07 05:58:19","ebf9627b049f568eb4bf28942cb89901","223.104.11.59","Mozilla/5.0 (Linux; Android 11; RMX1901 Build/RKQ1.201217.002; wv) AppleWebKit/537.36 (KHTML, like Gecko) Version/4.0 Chrome/86.0.4240.99 XWEB/4317 MMWEBSDK/20220604 Mobile Safari/537.36 MMWEBID/6272 MicroMessenger/8.0.24.2180(0x28001837) WeChat/arm64 Weixin NetType/4G Language/zh_CN ABI/arm64","WebKit","Chrome","86.0.4240.99","AndroidOS","11","9778","","{""Comments"":""无""}",""
