"success","timeout","failed_images","failed_audio","failed_video","trial_type","trial_index","time_elapsed","internal_node_id","run_id","condition","recorded_at","source_code_version","ip","user_agent","device","browser","browser_version","platform","platform_version","rt","stimulus","response","question_order"
"true","false","[]","[]","[]","preload","0","872","0.0-0.0","82","1","2022-10-09 11:25:28","ebf9627b049f568eb4bf28942cb89901","120.208.185.42","Mozilla/5.0 (Windows NT 10.0; Win64; x64) AppleWebKit/537.36 (KHTML, like Gecko) Chrome/104.0.5112.81 Safari/537.36 Edg/104.0.1293.54","WebKit","Edge","104.0.1293.54","Windows","10.0","","","",""
"true","","","","","fullscreen","1","4696","0.0-1.0","82","1","2022-10-09 11:25:28","ebf9627b049f568eb4bf28942cb89901","120.208.185.42","Mozilla/5.0 (Windows NT 10.0; Win64; x64) AppleWebKit/537.36 (KHTML, like Gecko) Chrome/104.0.5112.81 Safari/537.36 Edg/104.0.1293.54","WebKit","Edge","104.0.1293.54","Windows","10.0","","","",""
"","","","","","html-button-response","2","6341","0.0-2.0","82","1","2022-10-09 11:25:28","ebf9627b049f568eb4bf28942cb89901","120.208.185.42","Mozilla/5.0 (Windows NT 10.0; Win64; x64) AppleWebKit/537.36 (KHTML, like Gecko) Chrome/104.0.5112.81 Safari/537.36 Edg/104.0.1293.54","WebKit","Edge","104.0.1293.54","Windows","10.0","1642","<p style=""font-size:20px;font-weight:bold;"">实验知情同意书</p><p style=""text-align:left;""><strong>实验名称：</strong>社会冲突研究</p><p style=""text-align:left;""><strong>主要研究者：</strong>韩晓春副教授（北京师范大学心理学部）</p><p style=""text-align:left;""><strong>联系方式：</strong>发送邮件至xiaochun.han@bnu.edu.cn</p><p style=""text-align:left;""><strong>研究目的：</strong>研究旨在了解人类面对群体冲突时的决策方式，以及相关的心理学特质。实验调查大约需要20分钟。</p><p style=""text-align:left;""><strong>实验流程：</strong>实验包含两部分。第一部分呈现一系列群体冲突场景，请你决定如何对这些冲突进行反应，大约需要10分钟完成。第二部分包含一系列人口统计学信息收集和心理学问卷，大约需要10分钟完成。</p><p style=""text-align:left;""><strong>参加及退出规则：</strong>参加本实验完全取决于您的个人意愿。在参与过程中，您可以随时退出，并且不用承担任何后果。</p><p style=""text-align:left;""><strong>隐私：</strong>本实验完全匿名进行，不会收集您的姓名或其他能够识别您身份的信息。实验中收集的作答仅用作科学研究使用，可能会在学术期刊/书籍上发表，或者用于教学，您的数据未来可能会和其他研究者或实验室分享，但您的个人身份不会被识别。</p><p style=""text-align:left;""><strong>实验报酬：</strong>实验完成后，您将获得15元人民币报酬，以感谢您的时间和努力。调查问卷中包含几道题目用以测验您作答时的认真度。只有完成全部实验，并且正确回答认真度测验的被试才能获得实验报酬。实验报酬将通过支付宝转账发放。</p><p style=""text-align:left;font-size:20px;""><strong>如果您同意以上实验知情同意书的内容，请点击'同意并且开始实验'按钮；否则请关闭浏览器界面，退出实验。</strong></p>","0",""
"","","","","","html-button-response","3","7526","0.0-3.0","82","1","2022-10-09 11:25:28","ebf9627b049f568eb4bf28942cb89901","120.208.185.42","Mozilla/5.0 (Windows NT 10.0; Win64; x64) AppleWebKit/537.36 (KHTML, like Gecko) Chrome/104.0.5112.81 Safari/537.36 Edg/104.0.1293.54","WebKit","Edge","104.0.1293.54","Windows","10.0","1183","<p ><strong>实验任务一：</strong></p><p>请想象你的国家与另一个国家发生了军事冲突。</p><p>你是国家军队的指挥官，你将如何在冲突中进行决策。</p><p>具体来说，作为军队指挥官，请你决定是否发射导弹进行打击。</p><p>接下来，你会面对一系列场景，请仔细阅读每个场景，然后进行决策。</p><p>这部分实验任务大约需要10分钟。</p><p><strong>实验过程中，请集中注意力。</strong></p>","0",""
"","","","","","html-keyboard-response","4","8527","0.0-4.0-0.0","82","1","2022-10-09 11:25:28","ebf9627b049f568eb4bf28942cb89901","120.208.185.42","Mozilla/5.0 (Windows NT 10.0; Win64; x64) AppleWebKit/537.36 (KHTML, like Gecko) Chrome/104.0.5112.81 Safari/537.36 Edg/104.0.1293.54","WebKit","Edge","104.0.1293.54","Windows","10.0","null","<div style=""font-size:60px;"">+</div>","null",""
"","","","","","html-button-response","5","9951","0.0-4.0-1.0","82","1","2022-10-09 11:25:28","ebf9627b049f568eb4bf28942cb89901","120.208.185.42","Mozilla/5.0 (Windows NT 10.0; Win64; x64) AppleWebKit/537.36 (KHTML, like Gecko) Chrome/104.0.5112.81 Safari/537.36 Edg/104.0.1293.54","WebKit","Edge","104.0.1293.54","Windows","10.0","1420","<p>作为军队的指挥官，你可以选择发射导弹杀死 <strong>6名</strong> 敌国士兵，但会误杀附近的 <strong>1名</strong> 敌国平民。</p> <p>平民照片如下图所示。</p> <p></p> <img src='stimuli/faces/NFF2.jpg', style='max-width: 30%;'> </img> <p><strong>你是否选择发射武器？</strong></p>","1",""
"","","","","","html-keyboard-response","6","10963","0.0-4.0-0.1","82","1","2022-10-09 11:25:28","ebf9627b049f568eb4bf28942cb89901","120.208.185.42","Mozilla/5.0 (Windows NT 10.0; Win64; x64) AppleWebKit/537.36 (KHTML, like Gecko) Chrome/104.0.5112.81 Safari/537.36 Edg/104.0.1293.54","WebKit","Edge","104.0.1293.54","Windows","10.0","null","<div style=""font-size:60px;"">+</div>","null",""
"","","","","","html-button-response","7","12116","0.0-4.0-1.1","82","1","2022-10-09 11:25:28","ebf9627b049f568eb4bf28942cb89901","120.208.185.42","Mozilla/5.0 (Windows NT 10.0; Win64; x64) AppleWebKit/537.36 (KHTML, like Gecko) Chrome/104.0.5112.81 Safari/537.36 Edg/104.0.1293.54","WebKit","Edge","104.0.1293.54","Windows","10.0","1149","<p>作为军队的指挥官，你可以选择发射导弹杀死 <strong>10名</strong> 敌国士兵，但会炸毁附近的 <strong>1棵</strong> 敌国树木。</p> <p>树木的照片如下图所示。</p> <p></p> <img src='stimuli/trees/16.png', style='max-width: 30%;'> </img> <p><strong>你是否选择发射武器？</strong></p>","0",""
"","","","","","html-keyboard-response","8","13125","0.0-4.0-0.2","82","1","2022-10-09 11:25:28","ebf9627b049f568eb4bf28942cb89901","120.208.185.42","Mozilla/5.0 (Windows NT 10.0; Win64; x64) AppleWebKit/537.36 (KHTML, like Gecko) Chrome/104.0.5112.81 Safari/537.36 Edg/104.0.1293.54","WebKit","Edge","104.0.1293.54","Windows","10.0","null","<div style=""font-size:60px;"">+</div>","null",""
"","","","","","html-button-response","9","17775","0.0-4.0-1.2","82","1","2022-10-09 11:25:28","ebf9627b049f568eb4bf28942cb89901","120.208.185.42","Mozilla/5.0 (Windows NT 10.0; Win64; x64) AppleWebKit/537.36 (KHTML, like Gecko) Chrome/104.0.5112.81 Safari/537.36 Edg/104.0.1293.54","WebKit","Edge","104.0.1293.54","Windows","10.0","4646","<p>作为军队的指挥官，你可以选择发射导弹杀死 <strong>5名</strong> 敌国士兵，但会误杀附近的 <strong>1名</strong> 敌国平民。</p> <p>平民照片如下图所示。</p> <p></p> <img src='stimuli/faces/NFM5.jpg', style='max-width: 30%;'> </img> <p><strong>你是否选择发射武器？</strong></p>","1",""
"","","","","","html-keyboard-response","10","18780","0.0-4.0-0.3","82","1","2022-10-09 11:25:28","ebf9627b049f568eb4bf28942cb89901","120.208.185.42","Mozilla/5.0 (Windows NT 10.0; Win64; x64) AppleWebKit/537.36 (KHTML, like Gecko) Chrome/104.0.5112.81 Safari/537.36 Edg/104.0.1293.54","WebKit","Edge","104.0.1293.54","Windows","10.0","null","<div style=""font-size:60px;"">+</div>","null",""
"","","","","","html-button-response","11","20036","0.0-4.0-1.3","82","1","2022-10-09 11:25:28","ebf9627b049f568eb4bf28942cb89901","120.208.185.42","Mozilla/5.0 (Windows NT 10.0; Win64; x64) AppleWebKit/537.36 (KHTML, like Gecko) Chrome/104.0.5112.81 Safari/537.36 Edg/104.0.1293.54","WebKit","Edge","104.0.1293.54","Windows","10.0","1254","<p>作为军队的指挥官，你可以选择发射导弹杀死 <strong>3名</strong> 敌国士兵，但会误杀附近的 <strong>1名</strong> 敌国平民。</p> <p>平民照片如下图所示。</p> <p></p> <img src='stimuli/faces/NFM7.jpg', style='max-width: 30%;'> </img> <p><strong>你是否选择发射武器？</strong></p>","1",""
"","","","","","html-keyboard-response","12","21046","0.0-4.0-0.4","82","1","2022-10-09 11:25:28","ebf9627b049f568eb4bf28942cb89901","120.208.185.42","Mozilla/5.0 (Windows NT 10.0; Win64; x64) AppleWebKit/537.36 (KHTML, like Gecko) Chrome/104.0.5112.81 Safari/537.36 Edg/104.0.1293.54","WebKit","Edge","104.0.1293.54","Windows","10.0","null","<div style=""font-size:60px;"">+</div>","null",""
"","","","","","html-button-response","13","33901","0.0-4.0-1.4","82","1","2022-10-09 11:25:28","ebf9627b049f568eb4bf28942cb89901","120.208.185.42","Mozilla/5.0 (Windows NT 10.0; Win64; x64) AppleWebKit/537.36 (KHTML, like Gecko) Chrome/104.0.5112.81 Safari/537.36 Edg/104.0.1293.54","WebKit","Edge","104.0.1293.54","Windows","10.0","12853","<p>作为军队的指挥官，你可以选择发射导弹杀死 <strong>1名</strong> 敌国士兵，但会炸毁附近的 <strong>1棵</strong> 敌国树木。</p> <p>树木的照片如下图所示。</p> <p></p> <img src='stimuli/trees/10.png', style='max-width: 30%;'> </img> <p><strong>你是否选择发射武器？</strong></p>","0",""
"","","","","","html-keyboard-response","14","34907","0.0-4.0-0.5","82","1","2022-10-09 11:25:28","ebf9627b049f568eb4bf28942cb89901","120.208.185.42","Mozilla/5.0 (Windows NT 10.0; Win64; x64) AppleWebKit/537.36 (KHTML, like Gecko) Chrome/104.0.5112.81 Safari/537.36 Edg/104.0.1293.54","WebKit","Edge","104.0.1293.54","Windows","10.0","null","<div style=""font-size:60px;"">+</div>","null",""
"","","","","","html-button-response","15","36493","0.0-4.0-1.5","82","1","2022-10-09 11:25:28","ebf9627b049f568eb4bf28942cb89901","120.208.185.42","Mozilla/5.0 (Windows NT 10.0; Win64; x64) AppleWebKit/537.36 (KHTML, like Gecko) Chrome/104.0.5112.81 Safari/537.36 Edg/104.0.1293.54","WebKit","Edge","104.0.1293.54","Windows","10.0","1581","<p>作为军队的指挥官，你可以选择发射导弹杀死 <strong>8名</strong> 敌国士兵，但会误杀附近的 <strong>1名</strong> 敌国平民。</p> <p>平民照片如下图所示。</p> <p></p> <img src='stimuli/faces/NFM6.jpg', style='max-width: 30%;'> </img> <p><strong>你是否选择发射武器？</strong></p>","1",""
"","","","","","html-keyboard-response","16","37510","0.0-4.0-0.6","82","1","2022-10-09 11:25:28","ebf9627b049f568eb4bf28942cb89901","120.208.185.42","Mozilla/5.0 (Windows NT 10.0; Win64; x64) AppleWebKit/537.36 (KHTML, like Gecko) Chrome/104.0.5112.81 Safari/537.36 Edg/104.0.1293.54","WebKit","Edge","104.0.1293.54","Windows","10.0","null","<div style=""font-size:60px;"">+</div>","null",""
"","","","","","html-button-response","17","41917","0.0-4.0-1.6","82","1","2022-10-09 11:25:28","ebf9627b049f568eb4bf28942cb89901","120.208.185.42","Mozilla/5.0 (Windows NT 10.0; Win64; x64) AppleWebKit/537.36 (KHTML, like Gecko) Chrome/104.0.5112.81 Safari/537.36 Edg/104.0.1293.54","WebKit","Edge","104.0.1293.54","Windows","10.0","4404","<p>作为军队的指挥官，你可以选择发射导弹杀死 <strong>7名</strong> 敌国士兵，但会误杀附近的 <strong>1名</strong> 敌国平民。</p> <p>平民照片如下图所示。</p> <p></p> <img src='stimuli/faces/NFM3.jpg', style='max-width: 30%;'> </img> <p><strong>你是否选择发射武器？</strong></p>","1",""
"","","","","","html-keyboard-response","18","42930","0.0-4.0-0.7","82","1","2022-10-09 11:25:28","ebf9627b049f568eb4bf28942cb89901","120.208.185.42","Mozilla/5.0 (Windows NT 10.0; Win64; x64) AppleWebKit/537.36 (KHTML, like Gecko) Chrome/104.0.5112.81 Safari/537.36 Edg/104.0.1293.54","WebKit","Edge","104.0.1293.54","Windows","10.0","null","<div style=""font-size:60px;"">+</div>","null",""
"","","","","","html-button-response","19","44006","0.0-4.0-1.7","82","1","2022-10-09 11:25:28","ebf9627b049f568eb4bf28942cb89901","120.208.185.42","Mozilla/5.0 (Windows NT 10.0; Win64; x64) AppleWebKit/537.36 (KHTML, like Gecko) Chrome/104.0.5112.81 Safari/537.36 Edg/104.0.1293.54","WebKit","Edge","104.0.1293.54","Windows","10.0","1074","<p>作为军队的指挥官，你可以选择发射导弹杀死 <strong>6名</strong> 敌国士兵，但会炸毁附近的 <strong>1棵</strong> 敌国树木。</p> <p>树木的照片如下图所示。</p> <p></p> <img src='stimuli/trees/6.png', style='max-width: 30%;'> </img> <p><strong>你是否选择发射武器？</strong></p>","0",""
"","","","","","html-keyboard-response","20","45013","0.0-4.0-0.8","82","1","2022-10-09 11:25:28","ebf9627b049f568eb4bf28942cb89901","120.208.185.42","Mozilla/5.0 (Windows NT 10.0; Win64; x64) AppleWebKit/537.36 (KHTML, like Gecko) Chrome/104.0.5112.81 Safari/537.36 Edg/104.0.1293.54","WebKit","Edge","104.0.1293.54","Windows","10.0","null","<div style=""font-size:60px;"">+</div>","null",""
"","","","","","html-button-response","21","48901","0.0-4.0-1.8","82","1","2022-10-09 11:25:28","ebf9627b049f568eb4bf28942cb89901","120.208.185.42","Mozilla/5.0 (Windows NT 10.0; Win64; x64) AppleWebKit/537.36 (KHTML, like Gecko) Chrome/104.0.5112.81 Safari/537.36 Edg/104.0.1293.54","WebKit","Edge","104.0.1293.54","Windows","10.0","3886","<p>作为军队的指挥官，你可以选择发射导弹杀死 <strong>10名</strong> 敌国士兵，但会误杀附近的 <strong>1名</strong> 敌国平民。</p> <p>平民照片如下图所示。</p> <p></p> <img src='stimuli/faces/NFM1.jpg', style='max-width: 30%;'> </img> <p><strong>你是否选择发射武器？</strong></p>","1",""
"","","","","","html-keyboard-response","22","49917","0.0-4.0-0.9","82","1","2022-10-09 11:25:28","ebf9627b049f568eb4bf28942cb89901","120.208.185.42","Mozilla/5.0 (Windows NT 10.0; Win64; x64) AppleWebKit/537.36 (KHTML, like Gecko) Chrome/104.0.5112.81 Safari/537.36 Edg/104.0.1293.54","WebKit","Edge","104.0.1293.54","Windows","10.0","null","<div style=""font-size:60px;"">+</div>","null",""
"","","","","","html-button-response","23","50653","0.0-4.0-1.9","82","1","2022-10-09 11:25:28","ebf9627b049f568eb4bf28942cb89901","120.208.185.42","Mozilla/5.0 (Windows NT 10.0; Win64; x64) AppleWebKit/537.36 (KHTML, like Gecko) Chrome/104.0.5112.81 Safari/537.36 Edg/104.0.1293.54","WebKit","Edge","104.0.1293.54","Windows","10.0","732","<p>作为军队的指挥官，你可以选择发射导弹杀死 <strong>5名</strong> 敌国士兵，但会误杀附近的 <strong>1名</strong> 敌国平民。</p> <p>平民照片如下图所示。</p> <p></p> <img src='stimuli/faces/NFF4.jpg', style='max-width: 30%;'> </img> <p><strong>你是否选择发射武器？</strong></p>","1",""
"","","","","","html-keyboard-response","24","51660","0.0-4.0-0.10","82","1","2022-10-09 11:25:28","ebf9627b049f568eb4bf28942cb89901","120.208.185.42","Mozilla/5.0 (Windows NT 10.0; Win64; x64) AppleWebKit/537.36 (KHTML, like Gecko) Chrome/104.0.5112.81 Safari/537.36 Edg/104.0.1293.54","WebKit","Edge","104.0.1293.54","Windows","10.0","null","<div style=""font-size:60px;"">+</div>","null",""
"","","","","","html-button-response","25","52749","0.0-4.0-1.10","82","1","2022-10-09 11:25:28","ebf9627b049f568eb4bf28942cb89901","120.208.185.42","Mozilla/5.0 (Windows NT 10.0; Win64; x64) AppleWebKit/537.36 (KHTML, like Gecko) Chrome/104.0.5112.81 Safari/537.36 Edg/104.0.1293.54","WebKit","Edge","104.0.1293.54","Windows","10.0","1087","<p>作为军队的指挥官，你可以选择发射导弹杀死 <strong>10名</strong> 敌国士兵，但会炸毁附近的 <strong>1棵</strong> 敌国树木。</p> <p>树木的照片如下图所示。</p> <p></p> <img src='stimuli/trees/15.png', style='max-width: 30%;'> </img> <p><strong>你是否选择发射武器？</strong></p>","0",""
"","","","","","html-keyboard-response","26","53756","0.0-4.0-0.11","82","1","2022-10-09 11:25:28","ebf9627b049f568eb4bf28942cb89901","120.208.185.42","Mozilla/5.0 (Windows NT 10.0; Win64; x64) AppleWebKit/537.36 (KHTML, like Gecko) Chrome/104.0.5112.81 Safari/537.36 Edg/104.0.1293.54","WebKit","Edge","104.0.1293.54","Windows","10.0","null","<div style=""font-size:60px;"">+</div>","null",""
"","","","","","html-button-response","27","56725","0.0-4.0-1.11","82","1","2022-10-09 11:25:28","ebf9627b049f568eb4bf28942cb89901","120.208.185.42","Mozilla/5.0 (Windows NT 10.0; Win64; x64) AppleWebKit/537.36 (KHTML, like Gecko) Chrome/104.0.5112.81 Safari/537.36 Edg/104.0.1293.54","WebKit","Edge","104.0.1293.54","Windows","10.0","2967","<p>作为军队的指挥官，你可以选择发射导弹杀死 <strong>4名</strong> 敌国士兵，但会炸毁附近的 <strong>1棵</strong> 敌国树木。</p> <p>树木的照片如下图所示。</p> <p></p> <img src='stimuli/trees/7.png', style='max-width: 30%;'> </img> <p><strong>你是否选择发射武器？</strong></p>","0",""
"","","","","","html-keyboard-response","28","57731","0.0-4.0-0.12","82","1","2022-10-09 11:25:28","ebf9627b049f568eb4bf28942cb89901","120.208.185.42","Mozilla/5.0 (Windows NT 10.0; Win64; x64) AppleWebKit/537.36 (KHTML, like Gecko) Chrome/104.0.5112.81 Safari/537.36 Edg/104.0.1293.54","WebKit","Edge","104.0.1293.54","Windows","10.0","null","<div style=""font-size:60px;"">+</div>","null",""
"","","","","","html-button-response","29","59709","0.0-4.0-1.12","82","1","2022-10-09 11:25:28","ebf9627b049f568eb4bf28942cb89901","120.208.185.42","Mozilla/5.0 (Windows NT 10.0; Win64; x64) AppleWebKit/537.36 (KHTML, like Gecko) Chrome/104.0.5112.81 Safari/537.36 Edg/104.0.1293.54","WebKit","Edge","104.0.1293.54","Windows","10.0","1975","<p>作为军队的指挥官，你可以选择发射导弹杀死 <strong>9名</strong> 敌国士兵，但会炸毁附近的 <strong>1棵</strong> 敌国树木。</p> <p>树木的照片如下图所示。</p> <p></p> <img src='stimuli/trees/12.png', style='max-width: 30%;'> </img> <p><strong>你是否选择发射武器？</strong></p>","0",""
"","","","","","html-keyboard-response","30","60724","0.0-4.0-0.13","82","1","2022-10-09 11:25:28","ebf9627b049f568eb4bf28942cb89901","120.208.185.42","Mozilla/5.0 (Windows NT 10.0; Win64; x64) AppleWebKit/537.36 (KHTML, like Gecko) Chrome/104.0.5112.81 Safari/537.36 Edg/104.0.1293.54","WebKit","Edge","104.0.1293.54","Windows","10.0","null","<div style=""font-size:60px;"">+</div>","null",""
"","","","","","html-button-response","31","61589","0.0-4.0-1.13","82","1","2022-10-09 11:25:28","ebf9627b049f568eb4bf28942cb89901","120.208.185.42","Mozilla/5.0 (Windows NT 10.0; Win64; x64) AppleWebKit/537.36 (KHTML, like Gecko) Chrome/104.0.5112.81 Safari/537.36 Edg/104.0.1293.54","WebKit","Edge","104.0.1293.54","Windows","10.0","860","<p>作为军队的指挥官，你可以选择发射导弹杀死 <strong>7名</strong> 敌国士兵，但会误杀附近的 <strong>1名</strong> 敌国平民。</p> <p>平民照片如下图所示。</p> <p></p> <img src='stimuli/faces/NFF8.jpg', style='max-width: 30%;'> </img> <p><strong>你是否选择发射武器？</strong></p>","1",""
"","","","","","html-keyboard-response","32","62605","0.0-4.0-0.14","82","1","2022-10-09 11:25:28","ebf9627b049f568eb4bf28942cb89901","120.208.185.42","Mozilla/5.0 (Windows NT 10.0; Win64; x64) AppleWebKit/537.36 (KHTML, like Gecko) Chrome/104.0.5112.81 Safari/537.36 Edg/104.0.1293.54","WebKit","Edge","104.0.1293.54","Windows","10.0","null","<div style=""font-size:60px;"">+</div>","null",""
"","","","","","html-button-response","33","68453","0.0-4.0-1.14","82","1","2022-10-09 11:25:28","ebf9627b049f568eb4bf28942cb89901","120.208.185.42","Mozilla/5.0 (Windows NT 10.0; Win64; x64) AppleWebKit/537.36 (KHTML, like Gecko) Chrome/104.0.5112.81 Safari/537.36 Edg/104.0.1293.54","WebKit","Edge","104.0.1293.54","Windows","10.0","5844","<p>作为军队的指挥官，你可以选择发射导弹杀死 <strong>8名</strong> 敌国士兵，但会炸毁附近的 <strong>1棵</strong> 敌国树木。</p> <p>树木的照片如下图所示。</p> <p></p> <img src='stimuli/trees/11.png', style='max-width: 30%;'> </img> <p><strong>你是否选择发射武器？</strong></p>","0",""
"","","","","","html-keyboard-response","34","69455","0.0-4.0-0.15","82","1","2022-10-09 11:25:28","ebf9627b049f568eb4bf28942cb89901","120.208.185.42","Mozilla/5.0 (Windows NT 10.0; Win64; x64) AppleWebKit/537.36 (KHTML, like Gecko) Chrome/104.0.5112.81 Safari/537.36 Edg/104.0.1293.54","WebKit","Edge","104.0.1293.54","Windows","10.0","null","<div style=""font-size:60px;"">+</div>","null",""
"","","","","","html-button-response","35","72094","0.0-4.0-1.15","82","1","2022-10-09 11:25:28","ebf9627b049f568eb4bf28942cb89901","120.208.185.42","Mozilla/5.0 (Windows NT 10.0; Win64; x64) AppleWebKit/537.36 (KHTML, like Gecko) Chrome/104.0.5112.81 Safari/537.36 Edg/104.0.1293.54","WebKit","Edge","104.0.1293.54","Windows","10.0","2637","<p>作为军队的指挥官，你可以选择发射导弹杀死 <strong>9名</strong> 敌国士兵，但会误杀附近的 <strong>1名</strong> 敌国平民。</p> <p>平民照片如下图所示。</p> <p></p> <img src='stimuli/faces/NFF3.jpg', style='max-width: 30%;'> </img> <p><strong>你是否选择发射武器？</strong></p>","1",""
"","","","","","html-keyboard-response","36","73102","0.0-4.0-0.16","82","1","2022-10-09 11:25:28","ebf9627b049f568eb4bf28942cb89901","120.208.185.42","Mozilla/5.0 (Windows NT 10.0; Win64; x64) AppleWebKit/537.36 (KHTML, like Gecko) Chrome/104.0.5112.81 Safari/537.36 Edg/104.0.1293.54","WebKit","Edge","104.0.1293.54","Windows","10.0","null","<div style=""font-size:60px;"">+</div>","null",""
"","","","","","html-button-response","37","74085","0.0-4.0-1.16","82","1","2022-10-09 11:25:28","ebf9627b049f568eb4bf28942cb89901","120.208.185.42","Mozilla/5.0 (Windows NT 10.0; Win64; x64) AppleWebKit/537.36 (KHTML, like Gecko) Chrome/104.0.5112.81 Safari/537.36 Edg/104.0.1293.54","WebKit","Edge","104.0.1293.54","Windows","10.0","980","<p>作为军队的指挥官，你可以选择发射导弹杀死 <strong>3名</strong> 敌国士兵，但会误杀附近的 <strong>1名</strong> 敌国平民。</p> <p>平民照片如下图所示。</p> <p></p> <img src='stimuli/faces/NFM8.jpg', style='max-width: 30%;'> </img> <p><strong>你是否选择发射武器？</strong></p>","1",""
"","","","","","html-keyboard-response","38","75097","0.0-4.0-0.17","82","1","2022-10-09 11:25:28","ebf9627b049f568eb4bf28942cb89901","120.208.185.42","Mozilla/5.0 (Windows NT 10.0; Win64; x64) AppleWebKit/537.36 (KHTML, like Gecko) Chrome/104.0.5112.81 Safari/537.36 Edg/104.0.1293.54","WebKit","Edge","104.0.1293.54","Windows","10.0","null","<div style=""font-size:60px;"">+</div>","null",""
"","","","","","html-button-response","39","75709","0.0-4.0-1.17","82","1","2022-10-09 11:25:28","ebf9627b049f568eb4bf28942cb89901","120.208.185.42","Mozilla/5.0 (Windows NT 10.0; Win64; x64) AppleWebKit/537.36 (KHTML, like Gecko) Chrome/104.0.5112.81 Safari/537.36 Edg/104.0.1293.54","WebKit","Edge","104.0.1293.54","Windows","10.0","610","<p>作为军队的指挥官，你可以选择发射导弹杀死 <strong>1名</strong> 敌国士兵，但会误杀附近的 <strong>1名</strong> 敌国平民。</p> <p>平民照片如下图所示。</p> <p></p> <img src='stimuli/faces/NFF7.jpg', style='max-width: 30%;'> </img> <p><strong>你是否选择发射武器？</strong></p>","1",""
"","","","","","html-keyboard-response","40","76721","0.0-4.0-0.18","82","1","2022-10-09 11:25:28","ebf9627b049f568eb4bf28942cb89901","120.208.185.42","Mozilla/5.0 (Windows NT 10.0; Win64; x64) AppleWebKit/537.36 (KHTML, like Gecko) Chrome/104.0.5112.81 Safari/537.36 Edg/104.0.1293.54","WebKit","Edge","104.0.1293.54","Windows","10.0","null","<div style=""font-size:60px;"">+</div>","null",""
"","","","","","html-button-response","41","77557","0.0-4.0-1.18","82","1","2022-10-09 11:25:28","ebf9627b049f568eb4bf28942cb89901","120.208.185.42","Mozilla/5.0 (Windows NT 10.0; Win64; x64) AppleWebKit/537.36 (KHTML, like Gecko) Chrome/104.0.5112.81 Safari/537.36 Edg/104.0.1293.54","WebKit","Edge","104.0.1293.54","Windows","10.0","832","<p>作为军队的指挥官，你可以选择发射导弹杀死 <strong>9名</strong> 敌国士兵，但会炸毁附近的 <strong>1棵</strong> 敌国树木。</p> <p>树木的照片如下图所示。</p> <p></p> <img src='stimuli/trees/9.png', style='max-width: 30%;'> </img> <p><strong>你是否选择发射武器？</strong></p>","0",""
"","","","","","html-keyboard-response","42","78560","0.0-4.0-0.19","82","1","2022-10-09 11:25:28","ebf9627b049f568eb4bf28942cb89901","120.208.185.42","Mozilla/5.0 (Windows NT 10.0; Win64; x64) AppleWebKit/537.36 (KHTML, like Gecko) Chrome/104.0.5112.81 Safari/537.36 Edg/104.0.1293.54","WebKit","Edge","104.0.1293.54","Windows","10.0","null","<div style=""font-size:60px;"">+</div>","null",""
"","","","","","html-button-response","43","79421","0.0-4.0-1.19","82","1","2022-10-09 11:25:28","ebf9627b049f568eb4bf28942cb89901","120.208.185.42","Mozilla/5.0 (Windows NT 10.0; Win64; x64) AppleWebKit/537.36 (KHTML, like Gecko) Chrome/104.0.5112.81 Safari/537.36 Edg/104.0.1293.54","WebKit","Edge","104.0.1293.54","Windows","10.0","859","<p>作为军队的指挥官，你可以选择发射导弹杀死 <strong>2名</strong> 敌国士兵，但会误杀附近的 <strong>1名</strong> 敌国平民。</p> <p>平民照片如下图所示。</p> <p></p> <img src='stimuli/faces/NFF8.jpg', style='max-width: 30%;'> </img> <p><strong>你是否选择发射武器？</strong></p>","1",""
"","","","","","html-keyboard-response","44","80428","0.0-4.0-0.20","82","1","2022-10-09 11:25:28","ebf9627b049f568eb4bf28942cb89901","120.208.185.42","Mozilla/5.0 (Windows NT 10.0; Win64; x64) AppleWebKit/537.36 (KHTML, like Gecko) Chrome/104.0.5112.81 Safari/537.36 Edg/104.0.1293.54","WebKit","Edge","104.0.1293.54","Windows","10.0","null","<div style=""font-size:60px;"">+</div>","null",""
"","","","","","html-button-response","45","83550","0.0-4.0-1.20","82","1","2022-10-09 11:25:28","ebf9627b049f568eb4bf28942cb89901","120.208.185.42","Mozilla/5.0 (Windows NT 10.0; Win64; x64) AppleWebKit/537.36 (KHTML, like Gecko) Chrome/104.0.5112.81 Safari/537.36 Edg/104.0.1293.54","WebKit","Edge","104.0.1293.54","Windows","10.0","3119","<p>作为军队的指挥官，你可以选择发射导弹杀死 <strong>2名</strong> 敌国士兵，但会炸毁附近的 <strong>1棵</strong> 敌国树木。</p> <p>树木的照片如下图所示。</p> <p></p> <img src='stimuli/trees/2.png', style='max-width: 30%;'> </img> <p><strong>你是否选择发射武器？</strong></p>","0",""
"","","","","","html-keyboard-response","46","84553","0.0-4.0-0.21","82","1","2022-10-09 11:25:28","ebf9627b049f568eb4bf28942cb89901","120.208.185.42","Mozilla/5.0 (Windows NT 10.0; Win64; x64) AppleWebKit/537.36 (KHTML, like Gecko) Chrome/104.0.5112.81 Safari/537.36 Edg/104.0.1293.54","WebKit","Edge","104.0.1293.54","Windows","10.0","null","<div style=""font-size:60px;"">+</div>","null",""
"","","","","","html-button-response","47","85613","0.0-4.0-1.21","82","1","2022-10-09 11:25:28","ebf9627b049f568eb4bf28942cb89901","120.208.185.42","Mozilla/5.0 (Windows NT 10.0; Win64; x64) AppleWebKit/537.36 (KHTML, like Gecko) Chrome/104.0.5112.81 Safari/537.36 Edg/104.0.1293.54","WebKit","Edge","104.0.1293.54","Windows","10.0","1057","<p>作为军队的指挥官，你可以选择发射导弹杀死 <strong>9名</strong> 敌国士兵，但会误杀附近的 <strong>1名</strong> 敌国平民。</p> <p>平民照片如下图所示。</p> <p></p> <img src='stimuli/faces/NFF4.jpg', style='max-width: 30%;'> </img> <p><strong>你是否选择发射武器？</strong></p>","1",""
"","","","","","html-keyboard-response","48","86623","0.0-4.0-0.22","82","1","2022-10-09 11:25:28","ebf9627b049f568eb4bf28942cb89901","120.208.185.42","Mozilla/5.0 (Windows NT 10.0; Win64; x64) AppleWebKit/537.36 (KHTML, like Gecko) Chrome/104.0.5112.81 Safari/537.36 Edg/104.0.1293.54","WebKit","Edge","104.0.1293.54","Windows","10.0","null","<div style=""font-size:60px;"">+</div>","null",""
"","","","","","html-button-response","49","88005","0.0-4.0-1.22","82","1","2022-10-09 11:25:28","ebf9627b049f568eb4bf28942cb89901","120.208.185.42","Mozilla/5.0 (Windows NT 10.0; Win64; x64) AppleWebKit/537.36 (KHTML, like Gecko) Chrome/104.0.5112.81 Safari/537.36 Edg/104.0.1293.54","WebKit","Edge","104.0.1293.54","Windows","10.0","1379","<p>作为军队的指挥官，你可以选择发射导弹杀死 <strong>7名</strong> 敌国士兵，但会炸毁附近的 <strong>1棵</strong> 敌国树木。</p> <p>树木的照片如下图所示。</p> <p></p> <img src='stimuli/trees/14.png', style='max-width: 30%;'> </img> <p><strong>你是否选择发射武器？</strong></p>","0",""
"","","","","","html-keyboard-response","50","89007","0.0-4.0-0.23","82","1","2022-10-09 11:25:28","ebf9627b049f568eb4bf28942cb89901","120.208.185.42","Mozilla/5.0 (Windows NT 10.0; Win64; x64) AppleWebKit/537.36 (KHTML, like Gecko) Chrome/104.0.5112.81 Safari/537.36 Edg/104.0.1293.54","WebKit","Edge","104.0.1293.54","Windows","10.0","null","<div style=""font-size:60px;"">+</div>","null",""
"","","","","","html-button-response","51","89805","0.0-4.0-1.23","82","1","2022-10-09 11:25:28","ebf9627b049f568eb4bf28942cb89901","120.208.185.42","Mozilla/5.0 (Windows NT 10.0; Win64; x64) AppleWebKit/537.36 (KHTML, like Gecko) Chrome/104.0.5112.81 Safari/537.36 Edg/104.0.1293.54","WebKit","Edge","104.0.1293.54","Windows","10.0","795","<p>作为军队的指挥官，你可以选择发射导弹杀死 <strong>2名</strong> 敌国士兵，但会炸毁附近的 <strong>1棵</strong> 敌国树木。</p> <p>树木的照片如下图所示。</p> <p></p> <img src='stimuli/trees/6.png', style='max-width: 30%;'> </img> <p><strong>你是否选择发射武器？</strong></p>","0",""
"","","","","","html-keyboard-response","52","90807","0.0-4.0-0.24","82","1","2022-10-09 11:25:28","ebf9627b049f568eb4bf28942cb89901","120.208.185.42","Mozilla/5.0 (Windows NT 10.0; Win64; x64) AppleWebKit/537.36 (KHTML, like Gecko) Chrome/104.0.5112.81 Safari/537.36 Edg/104.0.1293.54","WebKit","Edge","104.0.1293.54","Windows","10.0","null","<div style=""font-size:60px;"">+</div>","null",""
"","","","","","html-button-response","53","91773","0.0-4.0-1.24","82","1","2022-10-09 11:25:28","ebf9627b049f568eb4bf28942cb89901","120.208.185.42","Mozilla/5.0 (Windows NT 10.0; Win64; x64) AppleWebKit/537.36 (KHTML, like Gecko) Chrome/104.0.5112.81 Safari/537.36 Edg/104.0.1293.54","WebKit","Edge","104.0.1293.54","Windows","10.0","961","<p>作为军队的指挥官，你可以选择发射导弹杀死 <strong>10名</strong> 敌国士兵，但会炸毁附近的 <strong>1棵</strong> 敌国树木。</p> <p>树木的照片如下图所示。</p> <p></p> <img src='stimuli/trees/3.png', style='max-width: 30%;'> </img> <p><strong>你是否选择发射武器？</strong></p>","0",""
"","","","","","html-keyboard-response","54","92784","0.0-4.0-0.25","82","1","2022-10-09 11:25:28","ebf9627b049f568eb4bf28942cb89901","120.208.185.42","Mozilla/5.0 (Windows NT 10.0; Win64; x64) AppleWebKit/537.36 (KHTML, like Gecko) Chrome/104.0.5112.81 Safari/537.36 Edg/104.0.1293.54","WebKit","Edge","104.0.1293.54","Windows","10.0","null","<div style=""font-size:60px;"">+</div>","null",""
"","","","","","html-button-response","55","94053","0.0-4.0-1.25","82","1","2022-10-09 11:25:28","ebf9627b049f568eb4bf28942cb89901","120.208.185.42","Mozilla/5.0 (Windows NT 10.0; Win64; x64) AppleWebKit/537.36 (KHTML, like Gecko) Chrome/104.0.5112.81 Safari/537.36 Edg/104.0.1293.54","WebKit","Edge","104.0.1293.54","Windows","10.0","1266","<p>作为军队的指挥官，你可以选择发射导弹杀死 <strong>8名</strong> 敌国士兵，但会炸毁附近的 <strong>1棵</strong> 敌国树木。</p> <p>树木的照片如下图所示。</p> <p></p> <img src='stimuli/trees/10.png', style='max-width: 30%;'> </img> <p><strong>你是否选择发射武器？</strong></p>","0",""
"","","","","","html-keyboard-response","56","95057","0.0-4.0-0.26","82","1","2022-10-09 11:25:28","ebf9627b049f568eb4bf28942cb89901","120.208.185.42","Mozilla/5.0 (Windows NT 10.0; Win64; x64) AppleWebKit/537.36 (KHTML, like Gecko) Chrome/104.0.5112.81 Safari/537.36 Edg/104.0.1293.54","WebKit","Edge","104.0.1293.54","Windows","10.0","null","<div style=""font-size:60px;"">+</div>","null",""
"","","","","","html-button-response","57","95869","0.0-4.0-1.26","82","1","2022-10-09 11:25:28","ebf9627b049f568eb4bf28942cb89901","120.208.185.42","Mozilla/5.0 (Windows NT 10.0; Win64; x64) AppleWebKit/537.36 (KHTML, like Gecko) Chrome/104.0.5112.81 Safari/537.36 Edg/104.0.1293.54","WebKit","Edge","104.0.1293.54","Windows","10.0","810","<p>作为军队的指挥官，你可以选择发射导弹杀死 <strong>5名</strong> 敌国士兵，但会误杀附近的 <strong>1名</strong> 敌国平民。</p> <p>平民照片如下图所示。</p> <p></p> <img src='stimuli/faces/NFM3.jpg', style='max-width: 30%;'> </img> <p><strong>你是否选择发射武器？</strong></p>","1",""
"","","","","","html-keyboard-response","58","96872","0.0-4.0-0.27","82","1","2022-10-09 11:25:28","ebf9627b049f568eb4bf28942cb89901","120.208.185.42","Mozilla/5.0 (Windows NT 10.0; Win64; x64) AppleWebKit/537.36 (KHTML, like Gecko) Chrome/104.0.5112.81 Safari/537.36 Edg/104.0.1293.54","WebKit","Edge","104.0.1293.54","Windows","10.0","null","<div style=""font-size:60px;"">+</div>","null",""
"","","","","","html-button-response","59","97877","0.0-4.0-1.27","82","1","2022-10-09 11:25:28","ebf9627b049f568eb4bf28942cb89901","120.208.185.42","Mozilla/5.0 (Windows NT 10.0; Win64; x64) AppleWebKit/537.36 (KHTML, like Gecko) Chrome/104.0.5112.81 Safari/537.36 Edg/104.0.1293.54","WebKit","Edge","104.0.1293.54","Windows","10.0","1002","<p>作为军队的指挥官，你可以选择发射导弹杀死 <strong>8名</strong> 敌国士兵，但会炸毁附近的 <strong>1棵</strong> 敌国树木。</p> <p>树木的照片如下图所示。</p> <p></p> <img src='stimuli/trees/2.png', style='max-width: 30%;'> </img> <p><strong>你是否选择发射武器？</strong></p>","0",""
"","","","","","html-keyboard-response","60","98891","0.0-4.0-0.28","82","1","2022-10-09 11:25:28","ebf9627b049f568eb4bf28942cb89901","120.208.185.42","Mozilla/5.0 (Windows NT 10.0; Win64; x64) AppleWebKit/537.36 (KHTML, like Gecko) Chrome/104.0.5112.81 Safari/537.36 Edg/104.0.1293.54","WebKit","Edge","104.0.1293.54","Windows","10.0","null","<div style=""font-size:60px;"">+</div>","null",""
"","","","","","html-button-response","61","99661","0.0-4.0-1.28","82","1","2022-10-09 11:25:28","ebf9627b049f568eb4bf28942cb89901","120.208.185.42","Mozilla/5.0 (Windows NT 10.0; Win64; x64) AppleWebKit/537.36 (KHTML, like Gecko) Chrome/104.0.5112.81 Safari/537.36 Edg/104.0.1293.54","WebKit","Edge","104.0.1293.54","Windows","10.0","767","<p>作为军队的指挥官，你可以选择发射导弹杀死 <strong>3名</strong> 敌国士兵，但会炸毁附近的 <strong>1棵</strong> 敌国树木。</p> <p>树木的照片如下图所示。</p> <p></p> <img src='stimuli/trees/1.png', style='max-width: 30%;'> </img> <p><strong>你是否选择发射武器？</strong></p>","0",""
"","","","","","html-keyboard-response","62","100667","0.0-4.0-0.29","82","1","2022-10-09 11:25:28","ebf9627b049f568eb4bf28942cb89901","120.208.185.42","Mozilla/5.0 (Windows NT 10.0; Win64; x64) AppleWebKit/537.36 (KHTML, like Gecko) Chrome/104.0.5112.81 Safari/537.36 Edg/104.0.1293.54","WebKit","Edge","104.0.1293.54","Windows","10.0","null","<div style=""font-size:60px;"">+</div>","null",""
"","","","","","html-button-response","63","101238","0.0-4.0-1.29","82","1","2022-10-09 11:25:28","ebf9627b049f568eb4bf28942cb89901","120.208.185.42","Mozilla/5.0 (Windows NT 10.0; Win64; x64) AppleWebKit/537.36 (KHTML, like Gecko) Chrome/104.0.5112.81 Safari/537.36 Edg/104.0.1293.54","WebKit","Edge","104.0.1293.54","Windows","10.0","568","<p>作为军队的指挥官，你可以选择发射导弹杀死 <strong>7名</strong> 敌国士兵，但会炸毁附近的 <strong>1棵</strong> 敌国树木。</p> <p>树木的照片如下图所示。</p> <p></p> <img src='stimuli/trees/7.png', style='max-width: 30%;'> </img> <p><strong>你是否选择发射武器？</strong></p>","0",""
"","","","","","html-keyboard-response","64","102242","0.0-4.0-0.30","82","1","2022-10-09 11:25:28","ebf9627b049f568eb4bf28942cb89901","120.208.185.42","Mozilla/5.0 (Windows NT 10.0; Win64; x64) AppleWebKit/537.36 (KHTML, like Gecko) Chrome/104.0.5112.81 Safari/537.36 Edg/104.0.1293.54","WebKit","Edge","104.0.1293.54","Windows","10.0","null","<div style=""font-size:60px;"">+</div>","null",""
"","","","","","html-button-response","65","102869","0.0-4.0-1.30","82","1","2022-10-09 11:25:28","ebf9627b049f568eb4bf28942cb89901","120.208.185.42","Mozilla/5.0 (Windows NT 10.0; Win64; x64) AppleWebKit/537.36 (KHTML, like Gecko) Chrome/104.0.5112.81 Safari/537.36 Edg/104.0.1293.54","WebKit","Edge","104.0.1293.54","Windows","10.0","624","<p>作为军队的指挥官，你可以选择发射导弹杀死 <strong>3名</strong> 敌国士兵，但会炸毁附近的 <strong>1棵</strong> 敌国树木。</p> <p>树木的照片如下图所示。</p> <p></p> <img src='stimuli/trees/3.png', style='max-width: 30%;'> </img> <p><strong>你是否选择发射武器？</strong></p>","0",""
"","","","","","html-keyboard-response","66","103887","0.0-4.0-0.31","82","1","2022-10-09 11:25:28","ebf9627b049f568eb4bf28942cb89901","120.208.185.42","Mozilla/5.0 (Windows NT 10.0; Win64; x64) AppleWebKit/537.36 (KHTML, like Gecko) Chrome/104.0.5112.81 Safari/537.36 Edg/104.0.1293.54","WebKit","Edge","104.0.1293.54","Windows","10.0","null","<div style=""font-size:60px;"">+</div>","null",""
"","","","","","html-button-response","67","104517","0.0-4.0-1.31","82","1","2022-10-09 11:25:28","ebf9627b049f568eb4bf28942cb89901","120.208.185.42","Mozilla/5.0 (Windows NT 10.0; Win64; x64) AppleWebKit/537.36 (KHTML, like Gecko) Chrome/104.0.5112.81 Safari/537.36 Edg/104.0.1293.54","WebKit","Edge","104.0.1293.54","Windows","10.0","627","<p>作为军队的指挥官，你可以选择发射导弹杀死 <strong>7名</strong> 敌国士兵，但会炸毁附近的 <strong>1棵</strong> 敌国树木。</p> <p>树木的照片如下图所示。</p> <p></p> <img src='stimuli/trees/1.png', style='max-width: 30%;'> </img> <p><strong>你是否选择发射武器？</strong></p>","0",""
"","","","","","html-keyboard-response","68","105520","0.0-4.0-0.32","82","1","2022-10-09 11:25:28","ebf9627b049f568eb4bf28942cb89901","120.208.185.42","Mozilla/5.0 (Windows NT 10.0; Win64; x64) AppleWebKit/537.36 (KHTML, like Gecko) Chrome/104.0.5112.81 Safari/537.36 Edg/104.0.1293.54","WebKit","Edge","104.0.1293.54","Windows","10.0","null","<div style=""font-size:60px;"">+</div>","null",""
"","","","","","html-button-response","69","106101","0.0-4.0-1.32","82","1","2022-10-09 11:25:28","ebf9627b049f568eb4bf28942cb89901","120.208.185.42","Mozilla/5.0 (Windows NT 10.0; Win64; x64) AppleWebKit/537.36 (KHTML, like Gecko) Chrome/104.0.5112.81 Safari/537.36 Edg/104.0.1293.54","WebKit","Edge","104.0.1293.54","Windows","10.0","579","<p>作为军队的指挥官，你可以选择发射导弹杀死 <strong>9名</strong> 敌国士兵，但会误杀附近的 <strong>1名</strong> 敌国平民。</p> <p>平民照片如下图所示。</p> <p></p> <img src='stimuli/faces/NFF7.jpg', style='max-width: 30%;'> </img> <p><strong>你是否选择发射武器？</strong></p>","1",""
"","","","","","html-keyboard-response","70","107114","0.0-4.0-0.33","82","1","2022-10-09 11:25:28","ebf9627b049f568eb4bf28942cb89901","120.208.185.42","Mozilla/5.0 (Windows NT 10.0; Win64; x64) AppleWebKit/537.36 (KHTML, like Gecko) Chrome/104.0.5112.81 Safari/537.36 Edg/104.0.1293.54","WebKit","Edge","104.0.1293.54","Windows","10.0","null","<div style=""font-size:60px;"">+</div>","null",""
"","","","","","html-button-response","71","107853","0.0-4.0-1.33","82","1","2022-10-09 11:25:28","ebf9627b049f568eb4bf28942cb89901","120.208.185.42","Mozilla/5.0 (Windows NT 10.0; Win64; x64) AppleWebKit/537.36 (KHTML, like Gecko) Chrome/104.0.5112.81 Safari/537.36 Edg/104.0.1293.54","WebKit","Edge","104.0.1293.54","Windows","10.0","734","<p>作为军队的指挥官，你可以选择发射导弹杀死 <strong>1名</strong> 敌国士兵，但会误杀附近的 <strong>1名</strong> 敌国平民。</p> <p>平民照片如下图所示。</p> <p></p> <img src='stimuli/faces/NFF3.jpg', style='max-width: 30%;'> </img> <p><strong>你是否选择发射武器？</strong></p>","1",""
"","","","","","html-keyboard-response","72","108862","0.0-4.0-0.34","82","1","2022-10-09 11:25:28","ebf9627b049f568eb4bf28942cb89901","120.208.185.42","Mozilla/5.0 (Windows NT 10.0; Win64; x64) AppleWebKit/537.36 (KHTML, like Gecko) Chrome/104.0.5112.81 Safari/537.36 Edg/104.0.1293.54","WebKit","Edge","104.0.1293.54","Windows","10.0","null","<div style=""font-size:60px;"">+</div>","null",""
"","","","","","html-button-response","73","109845","0.0-4.0-1.34","82","1","2022-10-09 11:25:28","ebf9627b049f568eb4bf28942cb89901","120.208.185.42","Mozilla/5.0 (Windows NT 10.0; Win64; x64) AppleWebKit/537.36 (KHTML, like Gecko) Chrome/104.0.5112.81 Safari/537.36 Edg/104.0.1293.54","WebKit","Edge","104.0.1293.54","Windows","10.0","979","<p>作为军队的指挥官，你可以选择发射导弹杀死 <strong>7名</strong> 敌国士兵，但会炸毁附近的 <strong>1棵</strong> 敌国树木。</p> <p>树木的照片如下图所示。</p> <p></p> <img src='stimuli/trees/8.png', style='max-width: 30%;'> </img> <p><strong>你是否选择发射武器？</strong></p>","0",""
"","","","","","html-keyboard-response","74","110854","0.0-4.0-0.35","82","1","2022-10-09 11:25:28","ebf9627b049f568eb4bf28942cb89901","120.208.185.42","Mozilla/5.0 (Windows NT 10.0; Win64; x64) AppleWebKit/537.36 (KHTML, like Gecko) Chrome/104.0.5112.81 Safari/537.36 Edg/104.0.1293.54","WebKit","Edge","104.0.1293.54","Windows","10.0","null","<div style=""font-size:60px;"">+</div>","null",""
"","","","","","html-button-response","75","111645","0.0-4.0-1.35","82","1","2022-10-09 11:25:28","ebf9627b049f568eb4bf28942cb89901","120.208.185.42","Mozilla/5.0 (Windows NT 10.0; Win64; x64) AppleWebKit/537.36 (KHTML, like Gecko) Chrome/104.0.5112.81 Safari/537.36 Edg/104.0.1293.54","WebKit","Edge","104.0.1293.54","Windows","10.0","788","<p>作为军队的指挥官，你可以选择发射导弹杀死 <strong>9名</strong> 敌国士兵，但会误杀附近的 <strong>1名</strong> 敌国平民。</p> <p>平民照片如下图所示。</p> <p></p> <img src='stimuli/faces/NFM5.jpg', style='max-width: 30%;'> </img> <p><strong>你是否选择发射武器？</strong></p>","1",""
"","","","","","html-keyboard-response","76","112649","0.0-4.0-0.36","82","1","2022-10-09 11:25:28","ebf9627b049f568eb4bf28942cb89901","120.208.185.42","Mozilla/5.0 (Windows NT 10.0; Win64; x64) AppleWebKit/537.36 (KHTML, like Gecko) Chrome/104.0.5112.81 Safari/537.36 Edg/104.0.1293.54","WebKit","Edge","104.0.1293.54","Windows","10.0","null","<div style=""font-size:60px;"">+</div>","null",""
"","","","","","html-button-response","77","113701","0.0-4.0-1.36","82","1","2022-10-09 11:25:28","ebf9627b049f568eb4bf28942cb89901","120.208.185.42","Mozilla/5.0 (Windows NT 10.0; Win64; x64) AppleWebKit/537.36 (KHTML, like Gecko) Chrome/104.0.5112.81 Safari/537.36 Edg/104.0.1293.54","WebKit","Edge","104.0.1293.54","Windows","10.0","1050","<p>作为军队的指挥官，你可以选择发射导弹杀死 <strong>3名</strong> 敌国士兵，但会误杀附近的 <strong>1名</strong> 敌国平民。</p> <p>平民照片如下图所示。</p> <p></p> <img src='stimuli/faces/NFM2.jpg', style='max-width: 30%;'> </img> <p><strong>你是否选择发射武器？</strong></p>","1",""
"","","","","","html-keyboard-response","78","114714","0.0-4.0-0.37","82","1","2022-10-09 11:25:28","ebf9627b049f568eb4bf28942cb89901","120.208.185.42","Mozilla/5.0 (Windows NT 10.0; Win64; x64) AppleWebKit/537.36 (KHTML, like Gecko) Chrome/104.0.5112.81 Safari/537.36 Edg/104.0.1293.54","WebKit","Edge","104.0.1293.54","Windows","10.0","null","<div style=""font-size:60px;"">+</div>","null",""
"","","","","","html-button-response","79","115453","0.0-4.0-1.37","82","1","2022-10-09 11:25:28","ebf9627b049f568eb4bf28942cb89901","120.208.185.42","Mozilla/5.0 (Windows NT 10.0; Win64; x64) AppleWebKit/537.36 (KHTML, like Gecko) Chrome/104.0.5112.81 Safari/537.36 Edg/104.0.1293.54","WebKit","Edge","104.0.1293.54","Windows","10.0","733","<p>作为军队的指挥官，你可以选择发射导弹杀死 <strong>6名</strong> 敌国士兵，但会炸毁附近的 <strong>1棵</strong> 敌国树木。</p> <p>树木的照片如下图所示。</p> <p></p> <img src='stimuli/trees/5.png', style='max-width: 30%;'> </img> <p><strong>你是否选择发射武器？</strong></p>","0",""
"","","","","","html-keyboard-response","80","116468","0.0-4.0-0.38","82","1","2022-10-09 11:25:28","ebf9627b049f568eb4bf28942cb89901","120.208.185.42","Mozilla/5.0 (Windows NT 10.0; Win64; x64) AppleWebKit/537.36 (KHTML, like Gecko) Chrome/104.0.5112.81 Safari/537.36 Edg/104.0.1293.54","WebKit","Edge","104.0.1293.54","Windows","10.0","null","<div style=""font-size:60px;"">+</div>","null",""
"","","","","","html-button-response","81","116957","0.0-4.0-1.38","82","1","2022-10-09 11:25:28","ebf9627b049f568eb4bf28942cb89901","120.208.185.42","Mozilla/5.0 (Windows NT 10.0; Win64; x64) AppleWebKit/537.36 (KHTML, like Gecko) Chrome/104.0.5112.81 Safari/537.36 Edg/104.0.1293.54","WebKit","Edge","104.0.1293.54","Windows","10.0","486","<p>作为军队的指挥官，你可以选择发射导弹杀死 <strong>3名</strong> 敌国士兵，但会炸毁附近的 <strong>1棵</strong> 敌国树木。</p> <p>树木的照片如下图所示。</p> <p></p> <img src='stimuli/trees/5.png', style='max-width: 30%;'> </img> <p><strong>你是否选择发射武器？</strong></p>","0",""
"","","","","","html-keyboard-response","82","117968","0.0-4.0-0.39","82","1","2022-10-09 11:25:28","ebf9627b049f568eb4bf28942cb89901","120.208.185.42","Mozilla/5.0 (Windows NT 10.0; Win64; x64) AppleWebKit/537.36 (KHTML, like Gecko) Chrome/104.0.5112.81 Safari/537.36 Edg/104.0.1293.54","WebKit","Edge","104.0.1293.54","Windows","10.0","null","<div style=""font-size:60px;"">+</div>","null",""
"","","","","","html-button-response","83","118669","0.0-4.0-1.39","82","1","2022-10-09 11:25:28","ebf9627b049f568eb4bf28942cb89901","120.208.185.42","Mozilla/5.0 (Windows NT 10.0; Win64; x64) AppleWebKit/537.36 (KHTML, like Gecko) Chrome/104.0.5112.81 Safari/537.36 Edg/104.0.1293.54","WebKit","Edge","104.0.1293.54","Windows","10.0","697","<p>作为军队的指挥官，你可以选择发射导弹杀死 <strong>6名</strong> 敌国士兵，但会误杀附近的 <strong>1名</strong> 敌国平民。</p> <p>平民照片如下图所示。</p> <p></p> <img src='stimuli/faces/NFM8.jpg', style='max-width: 30%;'> </img> <p><strong>你是否选择发射武器？</strong></p>","1",""
"","","","","","html-keyboard-response","84","119675","0.0-4.0-0.40","82","1","2022-10-09 11:25:28","ebf9627b049f568eb4bf28942cb89901","120.208.185.42","Mozilla/5.0 (Windows NT 10.0; Win64; x64) AppleWebKit/537.36 (KHTML, like Gecko) Chrome/104.0.5112.81 Safari/537.36 Edg/104.0.1293.54","WebKit","Edge","104.0.1293.54","Windows","10.0","null","<div style=""font-size:60px;"">+</div>","null",""
"","","","","","html-button-response","85","120237","0.0-4.0-1.40","82","1","2022-10-09 11:25:28","ebf9627b049f568eb4bf28942cb89901","120.208.185.42","Mozilla/5.0 (Windows NT 10.0; Win64; x64) AppleWebKit/537.36 (KHTML, like Gecko) Chrome/104.0.5112.81 Safari/537.36 Edg/104.0.1293.54","WebKit","Edge","104.0.1293.54","Windows","10.0","558","<p>作为军队的指挥官，你可以选择发射导弹杀死 <strong>2名</strong> 敌国士兵，但会误杀附近的 <strong>1名</strong> 敌国平民。</p> <p>平民照片如下图所示。</p> <p></p> <img src='stimuli/faces/NFM6.jpg', style='max-width: 30%;'> </img> <p><strong>你是否选择发射武器？</strong></p>","1",""
"","","","","","html-keyboard-response","86","121249","0.0-4.0-0.41","82","1","2022-10-09 11:25:28","ebf9627b049f568eb4bf28942cb89901","120.208.185.42","Mozilla/5.0 (Windows NT 10.0; Win64; x64) AppleWebKit/537.36 (KHTML, like Gecko) Chrome/104.0.5112.81 Safari/537.36 Edg/104.0.1293.54","WebKit","Edge","104.0.1293.54","Windows","10.0","null","<div style=""font-size:60px;"">+</div>","null",""
"","","","","","html-button-response","87","122077","0.0-4.0-1.41","82","1","2022-10-09 11:25:28","ebf9627b049f568eb4bf28942cb89901","120.208.185.42","Mozilla/5.0 (Windows NT 10.0; Win64; x64) AppleWebKit/537.36 (KHTML, like Gecko) Chrome/104.0.5112.81 Safari/537.36 Edg/104.0.1293.54","WebKit","Edge","104.0.1293.54","Windows","10.0","825","<p>作为军队的指挥官，你可以选择发射导弹杀死 <strong>4名</strong> 敌国士兵，但会炸毁附近的 <strong>1棵</strong> 敌国树木。</p> <p>树木的照片如下图所示。</p> <p></p> <img src='stimuli/trees/14.png', style='max-width: 30%;'> </img> <p><strong>你是否选择发射武器？</strong></p>","0",""
"","","","","","html-keyboard-response","88","123087","0.0-4.0-0.42","82","1","2022-10-09 11:25:28","ebf9627b049f568eb4bf28942cb89901","120.208.185.42","Mozilla/5.0 (Windows NT 10.0; Win64; x64) AppleWebKit/537.36 (KHTML, like Gecko) Chrome/104.0.5112.81 Safari/537.36 Edg/104.0.1293.54","WebKit","Edge","104.0.1293.54","Windows","10.0","null","<div style=""font-size:60px;"">+</div>","null",""
"","","","","","html-button-response","89","123709","0.0-4.0-1.42","82","1","2022-10-09 11:25:28","ebf9627b049f568eb4bf28942cb89901","120.208.185.42","Mozilla/5.0 (Windows NT 10.0; Win64; x64) AppleWebKit/537.36 (KHTML, like Gecko) Chrome/104.0.5112.81 Safari/537.36 Edg/104.0.1293.54","WebKit","Edge","104.0.1293.54","Windows","10.0","619","<p>作为军队的指挥官，你可以选择发射导弹杀死 <strong>6名</strong> 敌国士兵，但会误杀附近的 <strong>1名</strong> 敌国平民。</p> <p>平民照片如下图所示。</p> <p></p> <img src='stimuli/faces/NFF6.jpg', style='max-width: 30%;'> </img> <p><strong>你是否选择发射武器？</strong></p>","1",""
"","","","","","html-keyboard-response","90","124713","0.0-4.0-0.43","82","1","2022-10-09 11:25:28","ebf9627b049f568eb4bf28942cb89901","120.208.185.42","Mozilla/5.0 (Windows NT 10.0; Win64; x64) AppleWebKit/537.36 (KHTML, like Gecko) Chrome/104.0.5112.81 Safari/537.36 Edg/104.0.1293.54","WebKit","Edge","104.0.1293.54","Windows","10.0","null","<div style=""font-size:60px;"">+</div>","null",""
"","","","","","html-button-response","91","125405","0.0-4.0-1.43","82","1","2022-10-09 11:25:28","ebf9627b049f568eb4bf28942cb89901","120.208.185.42","Mozilla/5.0 (Windows NT 10.0; Win64; x64) AppleWebKit/537.36 (KHTML, like Gecko) Chrome/104.0.5112.81 Safari/537.36 Edg/104.0.1293.54","WebKit","Edge","104.0.1293.54","Windows","10.0","689","<p>作为军队的指挥官，你可以选择发射导弹杀死 <strong>5名</strong> 敌国士兵，但会炸毁附近的 <strong>1棵</strong> 敌国树木。</p> <p>树木的照片如下图所示。</p> <p></p> <img src='stimuli/trees/16.png', style='max-width: 30%;'> </img> <p><strong>你是否选择发射武器？</strong></p>","0",""
"","","","","","html-keyboard-response","92","126408","0.0-4.0-0.44","82","1","2022-10-09 11:25:28","ebf9627b049f568eb4bf28942cb89901","120.208.185.42","Mozilla/5.0 (Windows NT 10.0; Win64; x64) AppleWebKit/537.36 (KHTML, like Gecko) Chrome/104.0.5112.81 Safari/537.36 Edg/104.0.1293.54","WebKit","Edge","104.0.1293.54","Windows","10.0","null","<div style=""font-size:60px;"">+</div>","null",""
"","","","","","html-button-response","93","127109","0.0-4.0-1.44","82","1","2022-10-09 11:25:28","ebf9627b049f568eb4bf28942cb89901","120.208.185.42","Mozilla/5.0 (Windows NT 10.0; Win64; x64) AppleWebKit/537.36 (KHTML, like Gecko) Chrome/104.0.5112.81 Safari/537.36 Edg/104.0.1293.54","WebKit","Edge","104.0.1293.54","Windows","10.0","693","<p>作为军队的指挥官，你可以选择发射导弹杀死 <strong>8名</strong> 敌国士兵，但会误杀附近的 <strong>1名</strong> 敌国平民。</p> <p>平民照片如下图所示。</p> <p></p> <img src='stimuli/faces/NFF5.jpg', style='max-width: 30%;'> </img> <p><strong>你是否选择发射武器？</strong></p>","1",""
"","","","","","html-keyboard-response","94","128116","0.0-4.0-0.45","82","1","2022-10-09 11:25:28","ebf9627b049f568eb4bf28942cb89901","120.208.185.42","Mozilla/5.0 (Windows NT 10.0; Win64; x64) AppleWebKit/537.36 (KHTML, like Gecko) Chrome/104.0.5112.81 Safari/537.36 Edg/104.0.1293.54","WebKit","Edge","104.0.1293.54","Windows","10.0","null","<div style=""font-size:60px;"">+</div>","null",""
"","","","","","html-button-response","95","128981","0.0-4.0-1.45","82","1","2022-10-09 11:25:28","ebf9627b049f568eb4bf28942cb89901","120.208.185.42","Mozilla/5.0 (Windows NT 10.0; Win64; x64) AppleWebKit/537.36 (KHTML, like Gecko) Chrome/104.0.5112.81 Safari/537.36 Edg/104.0.1293.54","WebKit","Edge","104.0.1293.54","Windows","10.0","857","<p>作为军队的指挥官，你可以选择发射导弹杀死 <strong>2名</strong> 敌国士兵，但会误杀附近的 <strong>1名</strong> 敌国平民。</p> <p>平民照片如下图所示。</p> <p></p> <img src='stimuli/faces/NFM1.jpg', style='max-width: 30%;'> </img> <p><strong>你是否选择发射武器？</strong></p>","1",""
"","","","","","html-keyboard-response","96","129989","0.0-4.0-0.46","82","1","2022-10-09 11:25:28","ebf9627b049f568eb4bf28942cb89901","120.208.185.42","Mozilla/5.0 (Windows NT 10.0; Win64; x64) AppleWebKit/537.36 (KHTML, like Gecko) Chrome/104.0.5112.81 Safari/537.36 Edg/104.0.1293.54","WebKit","Edge","104.0.1293.54","Windows","10.0","null","<div style=""font-size:60px;"">+</div>","null",""
"","","","","","html-button-response","97","130557","0.0-4.0-1.46","82","1","2022-10-09 11:25:28","ebf9627b049f568eb4bf28942cb89901","120.208.185.42","Mozilla/5.0 (Windows NT 10.0; Win64; x64) AppleWebKit/537.36 (KHTML, like Gecko) Chrome/104.0.5112.81 Safari/537.36 Edg/104.0.1293.54","WebKit","Edge","104.0.1293.54","Windows","10.0","563","<p>作为军队的指挥官，你可以选择发射导弹杀死 <strong>3名</strong> 敌国士兵，但会误杀附近的 <strong>1名</strong> 敌国平民。</p> <p>平民照片如下图所示。</p> <p></p> <img src='stimuli/faces/NFF2.jpg', style='max-width: 30%;'> </img> <p><strong>你是否选择发射武器？</strong></p>","1",""
"","","","","","html-keyboard-response","98","131570","0.0-4.0-0.47","82","1","2022-10-09 11:25:28","ebf9627b049f568eb4bf28942cb89901","120.208.185.42","Mozilla/5.0 (Windows NT 10.0; Win64; x64) AppleWebKit/537.36 (KHTML, like Gecko) Chrome/104.0.5112.81 Safari/537.36 Edg/104.0.1293.54","WebKit","Edge","104.0.1293.54","Windows","10.0","null","<div style=""font-size:60px;"">+</div>","null",""
"","","","","","html-button-response","99","132629","0.0-4.0-1.47","82","1","2022-10-09 11:25:28","ebf9627b049f568eb4bf28942cb89901","120.208.185.42","Mozilla/5.0 (Windows NT 10.0; Win64; x64) AppleWebKit/537.36 (KHTML, like Gecko) Chrome/104.0.5112.81 Safari/537.36 Edg/104.0.1293.54","WebKit","Edge","104.0.1293.54","Windows","10.0","1054","<p>作为军队的指挥官，你可以选择发射导弹杀死 <strong>7名</strong> 敌国士兵，但会误杀附近的 <strong>1名</strong> 敌国平民。</p> <p>平民照片如下图所示。</p> <p></p> <img src='stimuli/faces/NFM4.jpg', style='max-width: 30%;'> </img> <p><strong>你是否选择发射武器？</strong></p>","1",""
"","","","","","html-keyboard-response","100","133642","0.0-4.0-0.48","82","1","2022-10-09 11:25:28","ebf9627b049f568eb4bf28942cb89901","120.208.185.42","Mozilla/5.0 (Windows NT 10.0; Win64; x64) AppleWebKit/537.36 (KHTML, like Gecko) Chrome/104.0.5112.81 Safari/537.36 Edg/104.0.1293.54","WebKit","Edge","104.0.1293.54","Windows","10.0","null","<div style=""font-size:60px;"">+</div>","null",""
"","","","","","html-button-response","101","134581","0.0-4.0-1.48","82","1","2022-10-09 11:25:28","ebf9627b049f568eb4bf28942cb89901","120.208.185.42","Mozilla/5.0 (Windows NT 10.0; Win64; x64) AppleWebKit/537.36 (KHTML, like Gecko) Chrome/104.0.5112.81 Safari/537.36 Edg/104.0.1293.54","WebKit","Edge","104.0.1293.54","Windows","10.0","935","<p>作为军队的指挥官，你可以选择发射导弹杀死 <strong>1名</strong> 敌国士兵，但会炸毁附近的 <strong>1棵</strong> 敌国树木。</p> <p>树木的照片如下图所示。</p> <p></p> <img src='stimuli/trees/4.png', style='max-width: 30%;'> </img> <p><strong>你是否选择发射武器？</strong></p>","0",""
"","","","","","html-keyboard-response","102","135594","0.0-4.0-0.49","82","1","2022-10-09 11:25:28","ebf9627b049f568eb4bf28942cb89901","120.208.185.42","Mozilla/5.0 (Windows NT 10.0; Win64; x64) AppleWebKit/537.36 (KHTML, like Gecko) Chrome/104.0.5112.81 Safari/537.36 Edg/104.0.1293.54","WebKit","Edge","104.0.1293.54","Windows","10.0","null","<div style=""font-size:60px;"">+</div>","null",""
"","","","","","html-button-response","103","136245","0.0-4.0-1.49","82","1","2022-10-09 11:25:28","ebf9627b049f568eb4bf28942cb89901","120.208.185.42","Mozilla/5.0 (Windows NT 10.0; Win64; x64) AppleWebKit/537.36 (KHTML, like Gecko) Chrome/104.0.5112.81 Safari/537.36 Edg/104.0.1293.54","WebKit","Edge","104.0.1293.54","Windows","10.0","642","<p>作为军队的指挥官，你可以选择发射导弹杀死 <strong>3名</strong> 敌国士兵，但会炸毁附近的 <strong>1棵</strong> 敌国树木。</p> <p>树木的照片如下图所示。</p> <p></p> <img src='stimuli/trees/9.png', style='max-width: 30%;'> </img> <p><strong>你是否选择发射武器？</strong></p>","0",""
"","","","","","html-keyboard-response","104","137249","0.0-4.0-0.50","82","1","2022-10-09 11:25:28","ebf9627b049f568eb4bf28942cb89901","120.208.185.42","Mozilla/5.0 (Windows NT 10.0; Win64; x64) AppleWebKit/537.36 (KHTML, like Gecko) Chrome/104.0.5112.81 Safari/537.36 Edg/104.0.1293.54","WebKit","Edge","104.0.1293.54","Windows","10.0","null","<div style=""font-size:60px;"">+</div>","null",""
"","","","","","html-button-response","105","138037","0.0-4.0-1.50","82","1","2022-10-09 11:25:28","ebf9627b049f568eb4bf28942cb89901","120.208.185.42","Mozilla/5.0 (Windows NT 10.0; Win64; x64) AppleWebKit/537.36 (KHTML, like Gecko) Chrome/104.0.5112.81 Safari/537.36 Edg/104.0.1293.54","WebKit","Edge","104.0.1293.54","Windows","10.0","784","<p>作为军队的指挥官，你可以选择发射导弹杀死 <strong>10名</strong> 敌国士兵，但会误杀附近的 <strong>1名</strong> 敌国平民。</p> <p>平民照片如下图所示。</p> <p></p> <img src='stimuli/faces/NFM7.jpg', style='max-width: 30%;'> </img> <p><strong>你是否选择发射武器？</strong></p>","1",""
"","","","","","html-keyboard-response","106","139049","0.0-4.0-0.51","82","1","2022-10-09 11:25:28","ebf9627b049f568eb4bf28942cb89901","120.208.185.42","Mozilla/5.0 (Windows NT 10.0; Win64; x64) AppleWebKit/537.36 (KHTML, like Gecko) Chrome/104.0.5112.81 Safari/537.36 Edg/104.0.1293.54","WebKit","Edge","104.0.1293.54","Windows","10.0","null","<div style=""font-size:60px;"">+</div>","null",""
"","","","","","html-button-response","107","139829","0.0-4.0-1.51","82","1","2022-10-09 11:25:28","ebf9627b049f568eb4bf28942cb89901","120.208.185.42","Mozilla/5.0 (Windows NT 10.0; Win64; x64) AppleWebKit/537.36 (KHTML, like Gecko) Chrome/104.0.5112.81 Safari/537.36 Edg/104.0.1293.54","WebKit","Edge","104.0.1293.54","Windows","10.0","770","<p>作为军队的指挥官，你可以选择发射导弹杀死 <strong>5名</strong> 敌国士兵，但会炸毁附近的 <strong>1棵</strong> 敌国树木。</p> <p>树木的照片如下图所示。</p> <p></p> <img src='stimuli/trees/15.png', style='max-width: 30%;'> </img> <p><strong>你是否选择发射武器？</strong></p>","0",""
"","","","","","html-keyboard-response","108","140833","0.0-4.0-0.52","82","1","2022-10-09 11:25:28","ebf9627b049f568eb4bf28942cb89901","120.208.185.42","Mozilla/5.0 (Windows NT 10.0; Win64; x64) AppleWebKit/537.36 (KHTML, like Gecko) Chrome/104.0.5112.81 Safari/537.36 Edg/104.0.1293.54","WebKit","Edge","104.0.1293.54","Windows","10.0","null","<div style=""font-size:60px;"">+</div>","null",""
"","","","","","html-button-response","109","141893","0.0-4.0-1.52","82","1","2022-10-09 11:25:28","ebf9627b049f568eb4bf28942cb89901","120.208.185.42","Mozilla/5.0 (Windows NT 10.0; Win64; x64) AppleWebKit/537.36 (KHTML, like Gecko) Chrome/104.0.5112.81 Safari/537.36 Edg/104.0.1293.54","WebKit","Edge","104.0.1293.54","Windows","10.0","1054","<p>作为军队的指挥官，你可以选择发射导弹杀死 <strong>4名</strong> 敌国士兵，但会误杀附近的 <strong>1名</strong> 敌国平民。</p> <p>平民照片如下图所示。</p> <p></p> <img src='stimuli/faces/NFF6.jpg', style='max-width: 30%;'> </img> <p><strong>你是否选择发射武器？</strong></p>","1",""
"","","","","","html-keyboard-response","110","142912","0.0-4.0-0.53","82","1","2022-10-09 11:25:28","ebf9627b049f568eb4bf28942cb89901","120.208.185.42","Mozilla/5.0 (Windows NT 10.0; Win64; x64) AppleWebKit/537.36 (KHTML, like Gecko) Chrome/104.0.5112.81 Safari/537.36 Edg/104.0.1293.54","WebKit","Edge","104.0.1293.54","Windows","10.0","null","<div style=""font-size:60px;"">+</div>","null",""
"","","","","","html-button-response","111","143926","0.0-4.0-1.53","82","1","2022-10-09 11:25:28","ebf9627b049f568eb4bf28942cb89901","120.208.185.42","Mozilla/5.0 (Windows NT 10.0; Win64; x64) AppleWebKit/537.36 (KHTML, like Gecko) Chrome/104.0.5112.81 Safari/537.36 Edg/104.0.1293.54","WebKit","Edge","104.0.1293.54","Windows","10.0","1007","<p>作为军队的指挥官，你可以选择发射导弹杀死 <strong>4名</strong> 敌国士兵，但会炸毁附近的 <strong>1棵</strong> 敌国树木。</p> <p>树木的照片如下图所示。</p> <p></p> <img src='stimuli/trees/11.png', style='max-width: 30%;'> </img> <p><strong>你是否选择发射武器？</strong></p>","0",""
"","","","","","html-keyboard-response","112","144929","0.0-4.0-0.54","82","1","2022-10-09 11:25:28","ebf9627b049f568eb4bf28942cb89901","120.208.185.42","Mozilla/5.0 (Windows NT 10.0; Win64; x64) AppleWebKit/537.36 (KHTML, like Gecko) Chrome/104.0.5112.81 Safari/537.36 Edg/104.0.1293.54","WebKit","Edge","104.0.1293.54","Windows","10.0","null","<div style=""font-size:60px;"">+</div>","null",""
"","","","","","html-button-response","113","145812","0.0-4.0-1.54","82","1","2022-10-09 11:25:28","ebf9627b049f568eb4bf28942cb89901","120.208.185.42","Mozilla/5.0 (Windows NT 10.0; Win64; x64) AppleWebKit/537.36 (KHTML, like Gecko) Chrome/104.0.5112.81 Safari/537.36 Edg/104.0.1293.54","WebKit","Edge","104.0.1293.54","Windows","10.0","880","<p>作为军队的指挥官，你可以选择发射导弹杀死 <strong>6名</strong> 敌国士兵，但会误杀附近的 <strong>1名</strong> 敌国平民。</p> <p>平民照片如下图所示。</p> <p></p> <img src='stimuli/faces/NFM2.jpg', style='max-width: 30%;'> </img> <p><strong>你是否选择发射武器？</strong></p>","1",""
"","","","","","html-keyboard-response","114","146830","0.0-4.0-0.55","82","1","2022-10-09 11:25:28","ebf9627b049f568eb4bf28942cb89901","120.208.185.42","Mozilla/5.0 (Windows NT 10.0; Win64; x64) AppleWebKit/537.36 (KHTML, like Gecko) Chrome/104.0.5112.81 Safari/537.36 Edg/104.0.1293.54","WebKit","Edge","104.0.1293.54","Windows","10.0","null","<div style=""font-size:60px;"">+</div>","null",""
"","","","","","html-button-response","115","147333","0.0-4.0-1.55","82","1","2022-10-09 11:25:28","ebf9627b049f568eb4bf28942cb89901","120.208.185.42","Mozilla/5.0 (Windows NT 10.0; Win64; x64) AppleWebKit/537.36 (KHTML, like Gecko) Chrome/104.0.5112.81 Safari/537.36 Edg/104.0.1293.54","WebKit","Edge","104.0.1293.54","Windows","10.0","495","<p>作为军队的指挥官，你可以选择发射导弹杀死 <strong>4名</strong> 敌国士兵，但会误杀附近的 <strong>1名</strong> 敌国平民。</p> <p>平民照片如下图所示。</p> <p></p> <img src='stimuli/faces/NFM4.jpg', style='max-width: 30%;'> </img> <p><strong>你是否选择发射武器？</strong></p>","1",""
"","","","","","html-keyboard-response","116","148342","0.0-4.0-0.56","82","1","2022-10-09 11:25:28","ebf9627b049f568eb4bf28942cb89901","120.208.185.42","Mozilla/5.0 (Windows NT 10.0; Win64; x64) AppleWebKit/537.36 (KHTML, like Gecko) Chrome/104.0.5112.81 Safari/537.36 Edg/104.0.1293.54","WebKit","Edge","104.0.1293.54","Windows","10.0","null","<div style=""font-size:60px;"">+</div>","null",""
"","","","","","html-button-response","117","148917","0.0-4.0-1.56","82","1","2022-10-09 11:25:28","ebf9627b049f568eb4bf28942cb89901","120.208.185.42","Mozilla/5.0 (Windows NT 10.0; Win64; x64) AppleWebKit/537.36 (KHTML, like Gecko) Chrome/104.0.5112.81 Safari/537.36 Edg/104.0.1293.54","WebKit","Edge","104.0.1293.54","Windows","10.0","571","<p>作为军队的指挥官，你可以选择发射导弹杀死 <strong>5名</strong> 敌国士兵，但会误杀附近的 <strong>1名</strong> 敌国平民。</p> <p>平民照片如下图所示。</p> <p></p> <img src='stimuli/faces/NFF1.jpg', style='max-width: 30%;'> </img> <p><strong>你是否选择发射武器？</strong></p>","1",""
"","","","","","html-keyboard-response","118","149926","0.0-4.0-0.57","82","1","2022-10-09 11:25:28","ebf9627b049f568eb4bf28942cb89901","120.208.185.42","Mozilla/5.0 (Windows NT 10.0; Win64; x64) AppleWebKit/537.36 (KHTML, like Gecko) Chrome/104.0.5112.81 Safari/537.36 Edg/104.0.1293.54","WebKit","Edge","104.0.1293.54","Windows","10.0","null","<div style=""font-size:60px;"">+</div>","null",""
"","","","","","html-button-response","119","154637","0.0-4.0-1.57","82","1","2022-10-09 11:25:28","ebf9627b049f568eb4bf28942cb89901","120.208.185.42","Mozilla/5.0 (Windows NT 10.0; Win64; x64) AppleWebKit/537.36 (KHTML, like Gecko) Chrome/104.0.5112.81 Safari/537.36 Edg/104.0.1293.54","WebKit","Edge","104.0.1293.54","Windows","10.0","4704","<p>作为军队的指挥官，你可以选择发射导弹杀死 <strong>1名</strong> 敌国士兵，但会炸毁附近的 <strong>1棵</strong> 敌国树木。</p> <p>树木的照片如下图所示。</p> <p></p> <img src='stimuli/trees/13.png', style='max-width: 30%;'> </img> <p><strong>你是否选择发射武器？</strong></p>","0",""
"","","","","","html-keyboard-response","120","155649","0.0-4.0-0.58","82","1","2022-10-09 11:25:28","ebf9627b049f568eb4bf28942cb89901","120.208.185.42","Mozilla/5.0 (Windows NT 10.0; Win64; x64) AppleWebKit/537.36 (KHTML, like Gecko) Chrome/104.0.5112.81 Safari/537.36 Edg/104.0.1293.54","WebKit","Edge","104.0.1293.54","Windows","10.0","null","<div style=""font-size:60px;"">+</div>","null",""
"","","","","","html-button-response","121","156309","0.0-4.0-1.58","82","1","2022-10-09 11:25:28","ebf9627b049f568eb4bf28942cb89901","120.208.185.42","Mozilla/5.0 (Windows NT 10.0; Win64; x64) AppleWebKit/537.36 (KHTML, like Gecko) Chrome/104.0.5112.81 Safari/537.36 Edg/104.0.1293.54","WebKit","Edge","104.0.1293.54","Windows","10.0","652","<p>作为军队的指挥官，你可以选择发射导弹杀死 <strong>1名</strong> 敌国士兵，但会炸毁附近的 <strong>1棵</strong> 敌国树木。</p> <p>树木的照片如下图所示。</p> <p></p> <img src='stimuli/trees/12.png', style='max-width: 30%;'> </img> <p><strong>你是否选择发射武器？</strong></p>","0",""
"","","","","","html-keyboard-response","122","157317","0.0-4.0-0.59","82","1","2022-10-09 11:25:28","ebf9627b049f568eb4bf28942cb89901","120.208.185.42","Mozilla/5.0 (Windows NT 10.0; Win64; x64) AppleWebKit/537.36 (KHTML, like Gecko) Chrome/104.0.5112.81 Safari/537.36 Edg/104.0.1293.54","WebKit","Edge","104.0.1293.54","Windows","10.0","null","<div style=""font-size:60px;"">+</div>","null",""
"","","","","","html-button-response","123","157949","0.0-4.0-1.59","82","1","2022-10-09 11:25:28","ebf9627b049f568eb4bf28942cb89901","120.208.185.42","Mozilla/5.0 (Windows NT 10.0; Win64; x64) AppleWebKit/537.36 (KHTML, like Gecko) Chrome/104.0.5112.81 Safari/537.36 Edg/104.0.1293.54","WebKit","Edge","104.0.1293.54","Windows","10.0","629","<p>作为军队的指挥官，你可以选择发射导弹杀死 <strong>4名</strong> 敌国士兵，但会误杀附近的 <strong>1名</strong> 敌国平民。</p> <p>平民照片如下图所示。</p> <p></p> <img src='stimuli/faces/NFF5.jpg', style='max-width: 30%;'> </img> <p><strong>你是否选择发射武器？</strong></p>","1",""
"","","","","","html-keyboard-response","124","158953","0.0-4.0-0.60","82","1","2022-10-09 11:25:28","ebf9627b049f568eb4bf28942cb89901","120.208.185.42","Mozilla/5.0 (Windows NT 10.0; Win64; x64) AppleWebKit/537.36 (KHTML, like Gecko) Chrome/104.0.5112.81 Safari/537.36 Edg/104.0.1293.54","WebKit","Edge","104.0.1293.54","Windows","10.0","null","<div style=""font-size:60px;"">+</div>","null",""
"","","","","","html-button-response","125","160029","0.0-4.0-1.60","82","1","2022-10-09 11:25:28","ebf9627b049f568eb4bf28942cb89901","120.208.185.42","Mozilla/5.0 (Windows NT 10.0; Win64; x64) AppleWebKit/537.36 (KHTML, like Gecko) Chrome/104.0.5112.81 Safari/537.36 Edg/104.0.1293.54","WebKit","Edge","104.0.1293.54","Windows","10.0","1071","<p>作为军队的指挥官，你可以选择发射导弹杀死 <strong>8名</strong> 敌国士兵，但会炸毁附近的 <strong>1棵</strong> 敌国树木。</p> <p>树木的照片如下图所示。</p> <p></p> <img src='stimuli/trees/4.png', style='max-width: 30%;'> </img> <p><strong>你是否选择发射武器？</strong></p>","0",""
"","","","","","html-keyboard-response","126","161045","0.0-4.0-0.61","82","1","2022-10-09 11:25:28","ebf9627b049f568eb4bf28942cb89901","120.208.185.42","Mozilla/5.0 (Windows NT 10.0; Win64; x64) AppleWebKit/537.36 (KHTML, like Gecko) Chrome/104.0.5112.81 Safari/537.36 Edg/104.0.1293.54","WebKit","Edge","104.0.1293.54","Windows","10.0","null","<div style=""font-size:60px;"">+</div>","null",""
"","","","","","html-button-response","127","161533","0.0-4.0-1.61","82","1","2022-10-09 11:25:28","ebf9627b049f568eb4bf28942cb89901","120.208.185.42","Mozilla/5.0 (Windows NT 10.0; Win64; x64) AppleWebKit/537.36 (KHTML, like Gecko) Chrome/104.0.5112.81 Safari/537.36 Edg/104.0.1293.54","WebKit","Edge","104.0.1293.54","Windows","10.0","482","<p>作为军队的指挥官，你可以选择发射导弹杀死 <strong>4名</strong> 敌国士兵，但会炸毁附近的 <strong>1棵</strong> 敌国树木。</p> <p>树木的照片如下图所示。</p> <p></p> <img src='stimuli/trees/8.png', style='max-width: 30%;'> </img> <p><strong>你是否选择发射武器？</strong></p>","0",""
"","","","","","html-keyboard-response","128","162539","0.0-4.0-0.62","82","1","2022-10-09 11:25:28","ebf9627b049f568eb4bf28942cb89901","120.208.185.42","Mozilla/5.0 (Windows NT 10.0; Win64; x64) AppleWebKit/537.36 (KHTML, like Gecko) Chrome/104.0.5112.81 Safari/537.36 Edg/104.0.1293.54","WebKit","Edge","104.0.1293.54","Windows","10.0","null","<div style=""font-size:60px;"">+</div>","null",""
"","","","","","html-button-response","129","163086","0.0-4.0-1.62","82","1","2022-10-09 11:25:28","ebf9627b049f568eb4bf28942cb89901","120.208.185.42","Mozilla/5.0 (Windows NT 10.0; Win64; x64) AppleWebKit/537.36 (KHTML, like Gecko) Chrome/104.0.5112.81 Safari/537.36 Edg/104.0.1293.54","WebKit","Edge","104.0.1293.54","Windows","10.0","539","<p>作为军队的指挥官，你可以选择发射导弹杀死 <strong>8名</strong> 敌国士兵，但会炸毁附近的 <strong>1棵</strong> 敌国树木。</p> <p>树木的照片如下图所示。</p> <p></p> <img src='stimuli/trees/13.png', style='max-width: 30%;'> </img> <p><strong>你是否选择发射武器？</strong></p>","0",""
"","","","","","html-keyboard-response","130","164091","0.0-4.0-0.63","82","1","2022-10-09 11:25:28","ebf9627b049f568eb4bf28942cb89901","120.208.185.42","Mozilla/5.0 (Windows NT 10.0; Win64; x64) AppleWebKit/537.36 (KHTML, like Gecko) Chrome/104.0.5112.81 Safari/537.36 Edg/104.0.1293.54","WebKit","Edge","104.0.1293.54","Windows","10.0","null","<div style=""font-size:60px;"">+</div>","null",""
"","","","","","html-button-response","131","165133","0.0-4.0-1.63","82","1","2022-10-09 11:25:28","ebf9627b049f568eb4bf28942cb89901","120.208.185.42","Mozilla/5.0 (Windows NT 10.0; Win64; x64) AppleWebKit/537.36 (KHTML, like Gecko) Chrome/104.0.5112.81 Safari/537.36 Edg/104.0.1293.54","WebKit","Edge","104.0.1293.54","Windows","10.0","1038","<p>作为军队的指挥官，你可以选择发射导弹杀死 <strong>8名</strong> 敌国士兵，但会误杀附近的 <strong>1名</strong> 敌国平民。</p> <p>平民照片如下图所示。</p> <p></p> <img src='stimuli/faces/NFF1.jpg', style='max-width: 30%;'> </img> <p><strong>你是否选择发射武器？</strong></p>","1",""
"","","","","","survey-multi-choice","132","169589","0.0-5.0","82","1","2022-10-09 11:25:28","ebf9627b049f568eb4bf28942cb89901","120.208.185.42","Mozilla/5.0 (Windows NT 10.0; Win64; x64) AppleWebKit/537.36 (KHTML, like Gecko) Chrome/104.0.5112.81 Safari/537.36 Edg/104.0.1293.54","WebKit","Edge","104.0.1293.54","Windows","10.0","4450","","{""Attention1"":""""}","[0]"
"","","","","","html-button-response","133","170853","0.0-6.0","82","1","2022-10-09 11:25:28","ebf9627b049f568eb4bf28942cb89901","120.208.185.42","Mozilla/5.0 (Windows NT 10.0; Win64; x64) AppleWebKit/537.36 (KHTML, like Gecko) Chrome/104.0.5112.81 Safari/537.36 Edg/104.0.1293.54","WebKit","Edge","104.0.1293.54","Windows","10.0","1256","<p style=""font-size:20px;font-weight:bold;"">恭喜！</p><p>你已经完成了实验的第一部分。</p><p>请休息放松一下，然后进入第二部分。</p><p>这部分大约需要10分钟。</p>","0",""
"","","","","","survey-text","134","201637","0.0-7.0","82","1","2022-10-09 11:25:28","ebf9627b049f568eb4bf28942cb89901","120.208.185.42","Mozilla/5.0 (Windows NT 10.0; Win64; x64) AppleWebKit/537.36 (KHTML, like Gecko) Chrome/104.0.5112.81 Safari/537.36 Edg/104.0.1293.54","WebKit","Edge","104.0.1293.54","Windows","10.0","29755","","{""Age"":""22"",""Nation"":""中国"",""Born"":""山西省"",""Live"":""广东省"",""Ethnic"":""汉族"",""Alipay"":""15534481790""}",""
"","","","","","survey-multi-choice","135","211238","0.0-8.0","82","1","2022-10-09 11:25:28","ebf9627b049f568eb4bf28942cb89901","120.208.185.42","Mozilla/5.0 (Windows NT 10.0; Win64; x64) AppleWebKit/537.36 (KHTML, like Gecko) Chrome/104.0.5112.81 Safari/537.36 Edg/104.0.1293.54","WebKit","Edge","104.0.1293.54","Windows","10.0","9596","","{""Gender"":""女"",""Education"":""本科毕业"",""Income"":""￥140,000-￥269,999"",""Children"":""0"",""Race"":""亚洲人""}","[0,1,2,3,4]"
"","","","","","survey-multi-select","136","215728","0.0-9.0","82","1","2022-10-09 11:25:28","ebf9627b049f568eb4bf28942cb89901","120.208.185.42","Mozilla/5.0 (Windows NT 10.0; Win64; x64) AppleWebKit/537.36 (KHTML, like Gecko) Chrome/104.0.5112.81 Safari/537.36 Edg/104.0.1293.54","WebKit","Edge","104.0.1293.54","Windows","10.0","4475","","{""Marriage"":[""未婚""],""Religion"":[""无宗教信仰""]}","[0,1]"
"","","","","","survey-multi-choice","137","218055","0.0-10.0","82","1","2022-10-09 11:25:28","ebf9627b049f568eb4bf28942cb89901","120.208.185.42","Mozilla/5.0 (Windows NT 10.0; Win64; x64) AppleWebKit/537.36 (KHTML, like Gecko) Chrome/104.0.5112.81 Safari/537.36 Edg/104.0.1293.54","WebKit","Edge","104.0.1293.54","Windows","10.0","2321","","{""SES"":""5""}","[0]"
"","","","","","html-button-response","138","218837","0.0-11.0","82","1","2022-10-09 11:25:28","ebf9627b049f568eb4bf28942cb89901","120.208.185.42","Mozilla/5.0 (Windows NT 10.0; Win64; x64) AppleWebKit/537.36 (KHTML, like Gecko) Chrome/104.0.5112.81 Safari/537.36 Edg/104.0.1293.54","WebKit","Edge","104.0.1293.54","Windows","10.0","775","<p><strong>请判断下列陈述在多大程度上可以形容你？</p><p> (1 = ""和我一点都不像"" to 5 = ""非常像我"".)</strong></p>","0",""
"","","","","","survey-likert","139","246294","0.0-12.0","82","1","2022-10-09 11:25:28","ebf9627b049f568eb4bf28942cb89901","120.208.185.42","Mozilla/5.0 (Windows NT 10.0; Win64; x64) AppleWebKit/537.36 (KHTML, like Gecko) Chrome/104.0.5112.81 Safari/537.36 Edg/104.0.1293.54","WebKit","Edge","104.0.1293.54","Windows","10.0","27453","","{""Aggression1"":0,""Aggression2"":0,""Aggression3"":3,""Aggression4"":0,""Aggression5"":2,""Aggression6"":3,""Aggression7"":4,""Aggression8"":0,""Aggression9"":0}","[0,1,2,3,4,5,6,7,8]"
"","","","","","html-button-response","140","247438","0.0-13.0","82","1","2022-10-09 11:25:28","ebf9627b049f568eb4bf28942cb89901","120.208.185.42","Mozilla/5.0 (Windows NT 10.0; Win64; x64) AppleWebKit/537.36 (KHTML, like Gecko) Chrome/104.0.5112.81 Safari/537.36 Edg/104.0.1293.54","WebKit","Edge","104.0.1293.54","Windows","10.0","1138","<p><strong>请判断你在多大程度上同意下列陈述。</strong></p>","0",""
"","","","","","survey-likert","141","329712","0.0-14.0","82","1","2022-10-09 11:25:28","ebf9627b049f568eb4bf28942cb89901","120.208.185.42","Mozilla/5.0 (Windows NT 10.0; Win64; x64) AppleWebKit/537.36 (KHTML, like Gecko) Chrome/104.0.5112.81 Safari/537.36 Edg/104.0.1293.54","WebKit","Edge","104.0.1293.54","Windows","10.0","82269","","{""scale24"":0,""scale11"":4,""scale3"":0,""scale2"":3,""scale15"":0,""scale6"":3,""scale22"":0,""scale17"":3,""scale1"":0,""scale21"":4,""scale4"":0,""scale14"":0,""scale7"":0,""scale8"":4,""scale13"":0,""scale12"":0,""scale5"":4,""scale10"":0,""scale20"":3,""scale25"":4,""scale18"":0,""scale9"":4,""scale28"":4,""scale23"":4,""scale27"":0,""scale16"":3,""scale19"":4,""scale26"":4}","[23,10,2,1,14,5,21,16,0,20,3,13,6,7,12,11,4,9,19,24,17,8,27,22,26,15,18,25]"
"","","","","","html-button-response","142","346676","0.0-15.0","82","1","2022-10-09 11:25:28","ebf9627b049f568eb4bf28942cb89901","120.208.185.42","Mozilla/5.0 (Windows NT 10.0; Win64; x64) AppleWebKit/537.36 (KHTML, like Gecko) Chrome/104.0.5112.81 Safari/537.36 Edg/104.0.1293.54","WebKit","Edge","104.0.1293.54","Windows","10.0","16957","<p><strong>请判断你在多大程度上同意下列陈述。</strong></p>","0",""
"","","","","","survey-likert","143","427136","0.0-16.0","82","1","2022-10-09 11:25:28","ebf9627b049f568eb4bf28942cb89901","120.208.185.42","Mozilla/5.0 (Windows NT 10.0; Win64; x64) AppleWebKit/537.36 (KHTML, like Gecko) Chrome/104.0.5112.81 Safari/537.36 Edg/104.0.1293.54","WebKit","Edge","104.0.1293.54","Windows","10.0","80454","","{""sdo9"":6,""sdo10"":6,""sdo6"":0,""sdo13"":6,""sdo16"":6,""sdo14"":6,""sdo8"":0,""sdo4"":0,""sdo15"":6,""sdo7"":0,""sdo11"":6,""sdo5"":0,""sdo12"":6,""sdo1"":0,""sdo3"":0,""sdo2"":0}","[8,9,5,12,15,13,7,3,14,6,10,4,11,0,2,1]"
"","","","","","html-button-response","144","428013","0.0-17.0","82","1","2022-10-09 11:25:28","ebf9627b049f568eb4bf28942cb89901","120.208.185.42","Mozilla/5.0 (Windows NT 10.0; Win64; x64) AppleWebKit/537.36 (KHTML, like Gecko) Chrome/104.0.5112.81 Safari/537.36 Edg/104.0.1293.54","WebKit","Edge","104.0.1293.54","Windows","10.0","871","<p><strong>请判断你在多大程度上同意下列陈述。</strong></p>","0",""
"","","","","","survey-likert","145","452782","0.0-18.0","82","1","2022-10-09 11:25:28","ebf9627b049f568eb4bf28942cb89901","120.208.185.42","Mozilla/5.0 (Windows NT 10.0; Win64; x64) AppleWebKit/537.36 (KHTML, like Gecko) Chrome/104.0.5112.81 Safari/537.36 Edg/104.0.1293.54","WebKit","Edge","104.0.1293.54","Windows","10.0","24764","","{""caring1"":4,""liking1"":0,""caring2"":4,""protection1"":3,""liking2"":0,""caring3"":4,""protection2"":0,""liking3"":0,""protection3"":4,""caring4"":4,""liking4"":0,""protection4"":3,""caring5"":4,""liking5"":0,""protection5"":2}","[0,1,2,3,4,5,6,7,8,9,10,11,12,13,14]"
"","","","","","html-button-response","146","454165","0.0-19.0","82","1","2022-10-09 11:25:28","ebf9627b049f568eb4bf28942cb89901","120.208.185.42","Mozilla/5.0 (Windows NT 10.0; Win64; x64) AppleWebKit/537.36 (KHTML, like Gecko) Chrome/104.0.5112.81 Safari/537.36 Edg/104.0.1293.54","WebKit","Edge","104.0.1293.54","Windows","10.0","1375","<p><strong>请判断下列场景中你的内心感受有多柔软。</strong></p>","0",""
"","","","","","survey-likert","147","475078","0.0-20.0","82","1","2022-10-09 11:25:28","ebf9627b049f568eb4bf28942cb89901","120.208.185.42","Mozilla/5.0 (Windows NT 10.0; Win64; x64) AppleWebKit/537.36 (KHTML, like Gecko) Chrome/104.0.5112.81 Safari/537.36 Edg/104.0.1293.54","WebKit","Edge","104.0.1293.54","Windows","10.0","20909","","{""tenderness-positive1"":4,""tenderness-negative1"":4,""tenderness-negative2"":2,""tenderness-positive2"":4,""tenderness-positive3"":4,""tenderness-negative3"":3,""tenderness-positive4"":4,""tendereness-negative4"":3,""tendernness-negative5"":3,""tenderness-positive5"":4}","[0,1,2,3,4,5,6,7,8,9]"
"","","","","","survey-multi-choice","148","478269","0.0-21.0","82","1","2022-10-09 11:25:28","ebf9627b049f568eb4bf28942cb89901","120.208.185.42","Mozilla/5.0 (Windows NT 10.0; Win64; x64) AppleWebKit/537.36 (KHTML, like Gecko) Chrome/104.0.5112.81 Safari/537.36 Edg/104.0.1293.54","WebKit","Edge","104.0.1293.54","Windows","10.0","3183","","{""Attention2"":""其他""}","[0]"
"","","","","","html-button-response","149","479269","0.0-22.0","82","1","2022-10-09 11:25:28","ebf9627b049f568eb4bf28942cb89901","120.208.185.42","Mozilla/5.0 (Windows NT 10.0; Win64; x64) AppleWebKit/537.36 (KHTML, like Gecko) Chrome/104.0.5112.81 Safari/537.36 Edg/104.0.1293.54","WebKit","Edge","104.0.1293.54","Windows","10.0","991","<p><strong>请判断你在多大程度上同意下列陈述。</strong></p>","0",""
"","","","","","survey-likert","150","534935","0.0-23.0","82","1","2022-10-09 11:25:28","ebf9627b049f568eb4bf28942cb89901","120.208.185.42","Mozilla/5.0 (Windows NT 10.0; Win64; x64) AppleWebKit/537.36 (KHTML, like Gecko) Chrome/104.0.5112.81 Safari/537.36 Edg/104.0.1293.54","WebKit","Edge","104.0.1293.54","Windows","10.0","55659","","{""Patri10"":0,""Patri9"":0,""Nation1"":3,""Nation3"":1,""Patri2"":4,""Nation7"":4,""Patri1"":4,""Patri7"":4,""Nation8"":0,""Nation4"":3,""Patri3"":4,""Nation6"":4,""Patri8"":4,""Patri6"":0,""Patri11"":0,""Nation5"":4,""Patri12"":0,""Patri4"":4,""Nation2"":4,""Patri5"":4}","[9,8,12,14,1,18,0,6,19,15,2,17,7,5,10,16,11,3,13,4]"
"","","","","","html-button-response","151","536228","0.0-24.0","82","1","2022-10-09 11:25:28","ebf9627b049f568eb4bf28942cb89901","120.208.185.42","Mozilla/5.0 (Windows NT 10.0; Win64; x64) AppleWebKit/537.36 (KHTML, like Gecko) Chrome/104.0.5112.81 Safari/537.36 Edg/104.0.1293.54","WebKit","Edge","104.0.1293.54","Windows","10.0","1287","<p><strong>请判断你在多大程度上同意下列陈述。</strong></p>","0",""
"","","","","","survey-likert","152","582761","0.0-25.0","82","1","2022-10-09 11:25:28","ebf9627b049f568eb4bf28942cb89901","120.208.185.42","Mozilla/5.0 (Windows NT 10.0; Win64; x64) AppleWebKit/537.36 (KHTML, like Gecko) Chrome/104.0.5112.81 Safari/537.36 Edg/104.0.1293.54","WebKit","Edge","104.0.1293.54","Windows","10.0","46526","","{""vc4"":8,""hc3"":8,""vi4"":0,""vc1"":8,""vi3"":8,""hc1"":8,""hc4"":8,""hi3"":0,""hi2"":1,""vc3"":8,""vc2"":8,""Robot"":6,""hi4"":3,""hc2"":8,""vi1"":0,""hi1"":2,""vi2"":0}","[16,11,8,13,6,9,12,2,1,15,14,7,3,10,4,0,5]"
"","","","","","survey-text","153","605852","0.0-26.0","82","1","2022-10-09 11:25:28","ebf9627b049f568eb4bf28942cb89901","120.208.185.42","Mozilla/5.0 (Windows NT 10.0; Win64; x64) AppleWebKit/537.36 (KHTML, like Gecko) Chrome/104.0.5112.81 Safari/537.36 Edg/104.0.1293.54","WebKit","Edge","104.0.1293.54","Windows","10.0","23050","","{""Comments"":""没有好的建议，就是觉得实验很好。""}",""
"","","","","","html-button-response","154","606428","0.0-27.0","82","1","2022-10-09 11:25:28","ebf9627b049f568eb4bf28942cb89901","120.208.185.42","Mozilla/5.0 (Windows NT 10.0; Win64; x64) AppleWebKit/537.36 (KHTML, like Gecko) Chrome/104.0.5112.81 Safari/537.36 Edg/104.0.1293.54","WebKit","Edge","104.0.1293.54","Windows","10.0","572","<strong><p>恭喜你完成了实验！</p><p>感谢您的参与。</p></strong>","0",""
