"success","timeout","failed_images","failed_audio","failed_video","trial_type","trial_index","time_elapsed","internal_node_id","run_id","condition","recorded_at","source_code_version","ip","user_agent","device","browser","browser_version","platform","platform_version","rt","stimulus","response","question_order"
"true","false","[]","[]","[]","preload","0","2380","0.0-0.0","84","1","2022-10-09 11:27:12","ebf9627b049f568eb4bf28942cb89901","111.18.65.51","Mozilla/5.0 (iPad; CPU OS 14_2 like Mac OS X) AppleWebKit/605.1.15 (KHTML, like Gecko) Mobile/15E148 MicroMessenger/8.0.29(0x18001d2c) NetType/WIFI Language/zh_CN","iPad","Mozilla","","iOS","14_2","","","",""
"true","","","","","fullscreen","1","87870","0.0-1.0","84","1","2022-10-09 11:27:12","ebf9627b049f568eb4bf28942cb89901","111.18.65.51","Mozilla/5.0 (iPad; CPU OS 14_2 like Mac OS X) AppleWebKit/605.1.15 (KHTML, like Gecko) Mobile/15E148 MicroMessenger/8.0.29(0x18001d2c) NetType/WIFI Language/zh_CN","iPad","Mozilla","","iOS","14_2","","","",""
"","","","","","html-button-response","2","90084","0.0-2.0","84","1","2022-10-09 11:27:12","ebf9627b049f568eb4bf28942cb89901","111.18.65.51","Mozilla/5.0 (iPad; CPU OS 14_2 like Mac OS X) AppleWebKit/605.1.15 (KHTML, like Gecko) Mobile/15E148 MicroMessenger/8.0.29(0x18001d2c) NetType/WIFI Language/zh_CN","iPad","Mozilla","","iOS","14_2","2203","<p style=""font-size:20px;font-weight:bold;"">实验知情同意书</p><p style=""text-align:left;""><strong>实验名称：</strong>社会冲突研究</p><p style=""text-align:left;""><strong>主要研究者：</strong>韩晓春副教授（北京师范大学心理学部）</p><p style=""text-align:left;""><strong>联系方式：</strong>发送邮件至xiaochun.han@bnu.edu.cn</p><p style=""text-align:left;""><strong>研究目的：</strong>研究旨在了解人类面对群体冲突时的决策方式，以及相关的心理学特质。实验调查大约需要20分钟。</p><p style=""text-align:left;""><strong>实验流程：</strong>实验包含两部分。第一部分呈现一系列群体冲突场景，请你决定如何对这些冲突进行反应，大约需要10分钟完成。第二部分包含一系列人口统计学信息收集和心理学问卷，大约需要10分钟完成。</p><p style=""text-align:left;""><strong>参加及退出规则：</strong>参加本实验完全取决于您的个人意愿。在参与过程中，您可以随时退出，并且不用承担任何后果。</p><p style=""text-align:left;""><strong>隐私：</strong>本实验完全匿名进行，不会收集您的姓名或其他能够识别您身份的信息。实验中收集的作答仅用作科学研究使用，可能会在学术期刊/书籍上发表，或者用于教学，您的数据未来可能会和其他研究者或实验室分享，但您的个人身份不会被识别。</p><p style=""text-align:left;""><strong>实验报酬：</strong>实验完成后，您将获得15元人民币报酬，以感谢您的时间和努力。调查问卷中包含几道题目用以测验您作答时的认真度。只有完成全部实验，并且正确回答认真度测验的被试才能获得实验报酬。实验报酬将通过支付宝转账发放。</p><p style=""text-align:left;font-size:20px;""><strong>如果您同意以上实验知情同意书的内容，请点击'同意并且开始实验'按钮；否则请关闭浏览器界面，退出实验。</strong></p>","0",""
"","","","","","html-button-response","3","93720","0.0-3.0","84","1","2022-10-09 11:27:12","ebf9627b049f568eb4bf28942cb89901","111.18.65.51","Mozilla/5.0 (iPad; CPU OS 14_2 like Mac OS X) AppleWebKit/605.1.15 (KHTML, like Gecko) Mobile/15E148 MicroMessenger/8.0.29(0x18001d2c) NetType/WIFI Language/zh_CN","iPad","Mozilla","","iOS","14_2","3629","<p ><strong>实验任务一：</strong></p><p>请想象你的国家与另一个国家发生了军事冲突。</p><p>你是国家军队的指挥官，你将如何在冲突中进行决策。</p><p>具体来说，作为军队指挥官，请你决定是否发射导弹进行打击。</p><p>接下来，你会面对一系列场景，请仔细阅读每个场景，然后进行决策。</p><p>这部分实验任务大约需要10分钟。</p><p><strong>实验过程中，请集中注意力。</strong></p>","0",""
"","","","","","html-keyboard-response","4","94726","0.0-4.0-0.0","84","1","2022-10-09 11:27:12","ebf9627b049f568eb4bf28942cb89901","111.18.65.51","Mozilla/5.0 (iPad; CPU OS 14_2 like Mac OS X) AppleWebKit/605.1.15 (KHTML, like Gecko) Mobile/15E148 MicroMessenger/8.0.29(0x18001d2c) NetType/WIFI Language/zh_CN","iPad","Mozilla","","iOS","14_2","null","<div style=""font-size:60px;"">+</div>","null",""
"","","","","","html-button-response","5","102224","0.0-4.0-1.0","84","1","2022-10-09 11:27:12","ebf9627b049f568eb4bf28942cb89901","111.18.65.51","Mozilla/5.0 (iPad; CPU OS 14_2 like Mac OS X) AppleWebKit/605.1.15 (KHTML, like Gecko) Mobile/15E148 MicroMessenger/8.0.29(0x18001d2c) NetType/WIFI Language/zh_CN","iPad","Mozilla","","iOS","14_2","7489","<p>作为军队的指挥官，你可以选择发射导弹杀死 <strong>4名</strong> 敌国士兵，但会误杀附近的 <strong>1名</strong> 敌国平民。</p> <p>平民照片如下图所示。</p> <p></p> <img src='stimuli/faces/NFF3.jpg', style='max-width: 30%;'> </img> <p><strong>你是否选择发射武器？</strong></p>","0",""
"","","","","","html-keyboard-response","6","103230","0.0-4.0-0.1","84","1","2022-10-09 11:27:12","ebf9627b049f568eb4bf28942cb89901","111.18.65.51","Mozilla/5.0 (iPad; CPU OS 14_2 like Mac OS X) AppleWebKit/605.1.15 (KHTML, like Gecko) Mobile/15E148 MicroMessenger/8.0.29(0x18001d2c) NetType/WIFI Language/zh_CN","iPad","Mozilla","","iOS","14_2","null","<div style=""font-size:60px;"">+</div>","null",""
"","","","","","html-button-response","7","110802","0.0-4.0-1.1","84","1","2022-10-09 11:27:12","ebf9627b049f568eb4bf28942cb89901","111.18.65.51","Mozilla/5.0 (iPad; CPU OS 14_2 like Mac OS X) AppleWebKit/605.1.15 (KHTML, like Gecko) Mobile/15E148 MicroMessenger/8.0.29(0x18001d2c) NetType/WIFI Language/zh_CN","iPad","Mozilla","","iOS","14_2","7562","<p>作为军队的指挥官，你可以选择发射导弹杀死 <strong>4名</strong> 敌国士兵，但会炸毁附近的 <strong>1棵</strong> 敌国树木。</p> <p>树木的照片如下图所示。</p> <p></p> <img src='stimuli/trees/6.png', style='max-width: 30%;'> </img> <p><strong>你是否选择发射武器？</strong></p>","0",""
"","","","","","html-keyboard-response","8","111807","0.0-4.0-0.2","84","1","2022-10-09 11:27:12","ebf9627b049f568eb4bf28942cb89901","111.18.65.51","Mozilla/5.0 (iPad; CPU OS 14_2 like Mac OS X) AppleWebKit/605.1.15 (KHTML, like Gecko) Mobile/15E148 MicroMessenger/8.0.29(0x18001d2c) NetType/WIFI Language/zh_CN","iPad","Mozilla","","iOS","14_2","null","<div style=""font-size:60px;"">+</div>","null",""
"","","","","","html-button-response","9","118444","0.0-4.0-1.2","84","1","2022-10-09 11:27:12","ebf9627b049f568eb4bf28942cb89901","111.18.65.51","Mozilla/5.0 (iPad; CPU OS 14_2 like Mac OS X) AppleWebKit/605.1.15 (KHTML, like Gecko) Mobile/15E148 MicroMessenger/8.0.29(0x18001d2c) NetType/WIFI Language/zh_CN","iPad","Mozilla","","iOS","14_2","6627","<p>作为军队的指挥官，你可以选择发射导弹杀死 <strong>1名</strong> 敌国士兵，但会炸毁附近的 <strong>1棵</strong> 敌国树木。</p> <p>树木的照片如下图所示。</p> <p></p> <img src='stimuli/trees/16.png', style='max-width: 30%;'> </img> <p><strong>你是否选择发射武器？</strong></p>","0",""
"","","","","","html-keyboard-response","10","119449","0.0-4.0-0.3","84","1","2022-10-09 11:27:12","ebf9627b049f568eb4bf28942cb89901","111.18.65.51","Mozilla/5.0 (iPad; CPU OS 14_2 like Mac OS X) AppleWebKit/605.1.15 (KHTML, like Gecko) Mobile/15E148 MicroMessenger/8.0.29(0x18001d2c) NetType/WIFI Language/zh_CN","iPad","Mozilla","","iOS","14_2","null","<div style=""font-size:60px;"">+</div>","null",""
"","","","","","html-button-response","11","121711","0.0-4.0-1.3","84","1","2022-10-09 11:27:12","ebf9627b049f568eb4bf28942cb89901","111.18.65.51","Mozilla/5.0 (iPad; CPU OS 14_2 like Mac OS X) AppleWebKit/605.1.15 (KHTML, like Gecko) Mobile/15E148 MicroMessenger/8.0.29(0x18001d2c) NetType/WIFI Language/zh_CN","iPad","Mozilla","","iOS","14_2","2252","<p>作为军队的指挥官，你可以选择发射导弹杀死 <strong>6名</strong> 敌国士兵，但会炸毁附近的 <strong>1棵</strong> 敌国树木。</p> <p>树木的照片如下图所示。</p> <p></p> <img src='stimuli/trees/12.png', style='max-width: 30%;'> </img> <p><strong>你是否选择发射武器？</strong></p>","0",""
"","","","","","html-keyboard-response","12","122717","0.0-4.0-0.4","84","1","2022-10-09 11:27:12","ebf9627b049f568eb4bf28942cb89901","111.18.65.51","Mozilla/5.0 (iPad; CPU OS 14_2 like Mac OS X) AppleWebKit/605.1.15 (KHTML, like Gecko) Mobile/15E148 MicroMessenger/8.0.29(0x18001d2c) NetType/WIFI Language/zh_CN","iPad","Mozilla","","iOS","14_2","null","<div style=""font-size:60px;"">+</div>","null",""
"","","","","","html-button-response","13","137398","0.0-4.0-1.4","84","1","2022-10-09 11:27:12","ebf9627b049f568eb4bf28942cb89901","111.18.65.51","Mozilla/5.0 (iPad; CPU OS 14_2 like Mac OS X) AppleWebKit/605.1.15 (KHTML, like Gecko) Mobile/15E148 MicroMessenger/8.0.29(0x18001d2c) NetType/WIFI Language/zh_CN","iPad","Mozilla","","iOS","14_2","14669","<p>作为军队的指挥官，你可以选择发射导弹杀死 <strong>1名</strong> 敌国士兵，但会误杀附近的 <strong>1名</strong> 敌国平民。</p> <p>平民照片如下图所示。</p> <p></p> <img src='stimuli/faces/NFF5.jpg', style='max-width: 30%;'> </img> <p><strong>你是否选择发射武器？</strong></p>","1",""
"","","","","","html-keyboard-response","14","138404","0.0-4.0-0.5","84","1","2022-10-09 11:27:12","ebf9627b049f568eb4bf28942cb89901","111.18.65.51","Mozilla/5.0 (iPad; CPU OS 14_2 like Mac OS X) AppleWebKit/605.1.15 (KHTML, like Gecko) Mobile/15E148 MicroMessenger/8.0.29(0x18001d2c) NetType/WIFI Language/zh_CN","iPad","Mozilla","","iOS","14_2","null","<div style=""font-size:60px;"">+</div>","null",""
"","","","","","html-button-response","15","140809","0.0-4.0-1.5","84","1","2022-10-09 11:27:12","ebf9627b049f568eb4bf28942cb89901","111.18.65.51","Mozilla/5.0 (iPad; CPU OS 14_2 like Mac OS X) AppleWebKit/605.1.15 (KHTML, like Gecko) Mobile/15E148 MicroMessenger/8.0.29(0x18001d2c) NetType/WIFI Language/zh_CN","iPad","Mozilla","","iOS","14_2","2394","<p>作为军队的指挥官，你可以选择发射导弹杀死 <strong>4名</strong> 敌国士兵，但会炸毁附近的 <strong>1棵</strong> 敌国树木。</p> <p>树木的照片如下图所示。</p> <p></p> <img src='stimuli/trees/10.png', style='max-width: 30%;'> </img> <p><strong>你是否选择发射武器？</strong></p>","0",""
"","","","","","html-keyboard-response","16","141816","0.0-4.0-0.6","84","1","2022-10-09 11:27:12","ebf9627b049f568eb4bf28942cb89901","111.18.65.51","Mozilla/5.0 (iPad; CPU OS 14_2 like Mac OS X) AppleWebKit/605.1.15 (KHTML, like Gecko) Mobile/15E148 MicroMessenger/8.0.29(0x18001d2c) NetType/WIFI Language/zh_CN","iPad","Mozilla","","iOS","14_2","null","<div style=""font-size:60px;"">+</div>","null",""
"","","","","","html-button-response","17","145007","0.0-4.0-1.6","84","1","2022-10-09 11:27:12","ebf9627b049f568eb4bf28942cb89901","111.18.65.51","Mozilla/5.0 (iPad; CPU OS 14_2 like Mac OS X) AppleWebKit/605.1.15 (KHTML, like Gecko) Mobile/15E148 MicroMessenger/8.0.29(0x18001d2c) NetType/WIFI Language/zh_CN","iPad","Mozilla","","iOS","14_2","3178","<p>作为军队的指挥官，你可以选择发射导弹杀死 <strong>5名</strong> 敌国士兵，但会误杀附近的 <strong>1名</strong> 敌国平民。</p> <p>平民照片如下图所示。</p> <p></p> <img src='stimuli/faces/NFM8.jpg', style='max-width: 30%;'> </img> <p><strong>你是否选择发射武器？</strong></p>","0",""
"","","","","","html-keyboard-response","18","146014","0.0-4.0-0.7","84","1","2022-10-09 11:27:12","ebf9627b049f568eb4bf28942cb89901","111.18.65.51","Mozilla/5.0 (iPad; CPU OS 14_2 like Mac OS X) AppleWebKit/605.1.15 (KHTML, like Gecko) Mobile/15E148 MicroMessenger/8.0.29(0x18001d2c) NetType/WIFI Language/zh_CN","iPad","Mozilla","","iOS","14_2","null","<div style=""font-size:60px;"">+</div>","null",""
"","","","","","html-button-response","19","148822","0.0-4.0-1.7","84","1","2022-10-09 11:27:12","ebf9627b049f568eb4bf28942cb89901","111.18.65.51","Mozilla/5.0 (iPad; CPU OS 14_2 like Mac OS X) AppleWebKit/605.1.15 (KHTML, like Gecko) Mobile/15E148 MicroMessenger/8.0.29(0x18001d2c) NetType/WIFI Language/zh_CN","iPad","Mozilla","","iOS","14_2","2791","<p>作为军队的指挥官，你可以选择发射导弹杀死 <strong>8名</strong> 敌国士兵，但会炸毁附近的 <strong>1棵</strong> 敌国树木。</p> <p>树木的照片如下图所示。</p> <p></p> <img src='stimuli/trees/8.png', style='max-width: 30%;'> </img> <p><strong>你是否选择发射武器？</strong></p>","0",""
"","","","","","html-keyboard-response","20","149830","0.0-4.0-0.8","84","1","2022-10-09 11:27:12","ebf9627b049f568eb4bf28942cb89901","111.18.65.51","Mozilla/5.0 (iPad; CPU OS 14_2 like Mac OS X) AppleWebKit/605.1.15 (KHTML, like Gecko) Mobile/15E148 MicroMessenger/8.0.29(0x18001d2c) NetType/WIFI Language/zh_CN","iPad","Mozilla","","iOS","14_2","null","<div style=""font-size:60px;"">+</div>","null",""
"","","","","","html-button-response","21","151596","0.0-4.0-1.8","84","1","2022-10-09 11:27:12","ebf9627b049f568eb4bf28942cb89901","111.18.65.51","Mozilla/5.0 (iPad; CPU OS 14_2 like Mac OS X) AppleWebKit/605.1.15 (KHTML, like Gecko) Mobile/15E148 MicroMessenger/8.0.29(0x18001d2c) NetType/WIFI Language/zh_CN","iPad","Mozilla","","iOS","14_2","1752","<p>作为军队的指挥官，你可以选择发射导弹杀死 <strong>2名</strong> 敌国士兵，但会炸毁附近的 <strong>1棵</strong> 敌国树木。</p> <p>树木的照片如下图所示。</p> <p></p> <img src='stimuli/trees/11.png', style='max-width: 30%;'> </img> <p><strong>你是否选择发射武器？</strong></p>","0",""
"","","","","","html-keyboard-response","22","152602","0.0-4.0-0.9","84","1","2022-10-09 11:27:12","ebf9627b049f568eb4bf28942cb89901","111.18.65.51","Mozilla/5.0 (iPad; CPU OS 14_2 like Mac OS X) AppleWebKit/605.1.15 (KHTML, like Gecko) Mobile/15E148 MicroMessenger/8.0.29(0x18001d2c) NetType/WIFI Language/zh_CN","iPad","Mozilla","","iOS","14_2","null","<div style=""font-size:60px;"">+</div>","null",""
"","","","","","html-button-response","23","155590","0.0-4.0-1.9","84","1","2022-10-09 11:27:12","ebf9627b049f568eb4bf28942cb89901","111.18.65.51","Mozilla/5.0 (iPad; CPU OS 14_2 like Mac OS X) AppleWebKit/605.1.15 (KHTML, like Gecko) Mobile/15E148 MicroMessenger/8.0.29(0x18001d2c) NetType/WIFI Language/zh_CN","iPad","Mozilla","","iOS","14_2","2976","<p>作为军队的指挥官，你可以选择发射导弹杀死 <strong>10名</strong> 敌国士兵，但会误杀附近的 <strong>1名</strong> 敌国平民。</p> <p>平民照片如下图所示。</p> <p></p> <img src='stimuli/faces/NFF3.jpg', style='max-width: 30%;'> </img> <p><strong>你是否选择发射武器？</strong></p>","0",""
"","","","","","html-keyboard-response","24","156596","0.0-4.0-0.10","84","1","2022-10-09 11:27:12","ebf9627b049f568eb4bf28942cb89901","111.18.65.51","Mozilla/5.0 (iPad; CPU OS 14_2 like Mac OS X) AppleWebKit/605.1.15 (KHTML, like Gecko) Mobile/15E148 MicroMessenger/8.0.29(0x18001d2c) NetType/WIFI Language/zh_CN","iPad","Mozilla","","iOS","14_2","null","<div style=""font-size:60px;"">+</div>","null",""
"","","","","","html-button-response","25","157656","0.0-4.0-1.10","84","1","2022-10-09 11:27:12","ebf9627b049f568eb4bf28942cb89901","111.18.65.51","Mozilla/5.0 (iPad; CPU OS 14_2 like Mac OS X) AppleWebKit/605.1.15 (KHTML, like Gecko) Mobile/15E148 MicroMessenger/8.0.29(0x18001d2c) NetType/WIFI Language/zh_CN","iPad","Mozilla","","iOS","14_2","1047","<p>作为军队的指挥官，你可以选择发射导弹杀死 <strong>6名</strong> 敌国士兵，但会炸毁附近的 <strong>1棵</strong> 敌国树木。</p> <p>树木的照片如下图所示。</p> <p></p> <img src='stimuli/trees/1.png', style='max-width: 30%;'> </img> <p><strong>你是否选择发射武器？</strong></p>","0",""
"","","","","","html-keyboard-response","26","158663","0.0-4.0-0.11","84","1","2022-10-09 11:27:12","ebf9627b049f568eb4bf28942cb89901","111.18.65.51","Mozilla/5.0 (iPad; CPU OS 14_2 like Mac OS X) AppleWebKit/605.1.15 (KHTML, like Gecko) Mobile/15E148 MicroMessenger/8.0.29(0x18001d2c) NetType/WIFI Language/zh_CN","iPad","Mozilla","","iOS","14_2","null","<div style=""font-size:60px;"">+</div>","null",""
"","","","","","html-button-response","27","159690","0.0-4.0-1.11","84","1","2022-10-09 11:27:12","ebf9627b049f568eb4bf28942cb89901","111.18.65.51","Mozilla/5.0 (iPad; CPU OS 14_2 like Mac OS X) AppleWebKit/605.1.15 (KHTML, like Gecko) Mobile/15E148 MicroMessenger/8.0.29(0x18001d2c) NetType/WIFI Language/zh_CN","iPad","Mozilla","","iOS","14_2","1017","<p>作为军队的指挥官，你可以选择发射导弹杀死 <strong>8名</strong> 敌国士兵，但会炸毁附近的 <strong>1棵</strong> 敌国树木。</p> <p>树木的照片如下图所示。</p> <p></p> <img src='stimuli/trees/7.png', style='max-width: 30%;'> </img> <p><strong>你是否选择发射武器？</strong></p>","0",""
"","","","","","html-keyboard-response","28","160701","0.0-4.0-0.12","84","1","2022-10-09 11:27:12","ebf9627b049f568eb4bf28942cb89901","111.18.65.51","Mozilla/5.0 (iPad; CPU OS 14_2 like Mac OS X) AppleWebKit/605.1.15 (KHTML, like Gecko) Mobile/15E148 MicroMessenger/8.0.29(0x18001d2c) NetType/WIFI Language/zh_CN","iPad","Mozilla","","iOS","14_2","null","<div style=""font-size:60px;"">+</div>","null",""
"","","","","","html-button-response","29","162823","0.0-4.0-1.12","84","1","2022-10-09 11:27:12","ebf9627b049f568eb4bf28942cb89901","111.18.65.51","Mozilla/5.0 (iPad; CPU OS 14_2 like Mac OS X) AppleWebKit/605.1.15 (KHTML, like Gecko) Mobile/15E148 MicroMessenger/8.0.29(0x18001d2c) NetType/WIFI Language/zh_CN","iPad","Mozilla","","iOS","14_2","2105","<p>作为军队的指挥官，你可以选择发射导弹杀死 <strong>1名</strong> 敌国士兵，但会炸毁附近的 <strong>1棵</strong> 敌国树木。</p> <p>树木的照片如下图所示。</p> <p></p> <img src='stimuli/trees/2.png', style='max-width: 30%;'> </img> <p><strong>你是否选择发射武器？</strong></p>","0",""
"","","","","","html-keyboard-response","30","163830","0.0-4.0-0.13","84","1","2022-10-09 11:27:12","ebf9627b049f568eb4bf28942cb89901","111.18.65.51","Mozilla/5.0 (iPad; CPU OS 14_2 like Mac OS X) AppleWebKit/605.1.15 (KHTML, like Gecko) Mobile/15E148 MicroMessenger/8.0.29(0x18001d2c) NetType/WIFI Language/zh_CN","iPad","Mozilla","","iOS","14_2","null","<div style=""font-size:60px;"">+</div>","null",""
"","","","","","html-button-response","31","166319","0.0-4.0-1.13","84","1","2022-10-09 11:27:12","ebf9627b049f568eb4bf28942cb89901","111.18.65.51","Mozilla/5.0 (iPad; CPU OS 14_2 like Mac OS X) AppleWebKit/605.1.15 (KHTML, like Gecko) Mobile/15E148 MicroMessenger/8.0.29(0x18001d2c) NetType/WIFI Language/zh_CN","iPad","Mozilla","","iOS","14_2","2475","<p>作为军队的指挥官，你可以选择发射导弹杀死 <strong>7名</strong> 敌国士兵，但会误杀附近的 <strong>1名</strong> 敌国平民。</p> <p>平民照片如下图所示。</p> <p></p> <img src='stimuli/faces/NFF7.jpg', style='max-width: 30%;'> </img> <p><strong>你是否选择发射武器？</strong></p>","0",""
"","","","","","html-keyboard-response","32","167325","0.0-4.0-0.14","84","1","2022-10-09 11:27:12","ebf9627b049f568eb4bf28942cb89901","111.18.65.51","Mozilla/5.0 (iPad; CPU OS 14_2 like Mac OS X) AppleWebKit/605.1.15 (KHTML, like Gecko) Mobile/15E148 MicroMessenger/8.0.29(0x18001d2c) NetType/WIFI Language/zh_CN","iPad","Mozilla","","iOS","14_2","null","<div style=""font-size:60px;"">+</div>","null",""
"","","","","","html-button-response","33","168974","0.0-4.0-1.14","84","1","2022-10-09 11:27:12","ebf9627b049f568eb4bf28942cb89901","111.18.65.51","Mozilla/5.0 (iPad; CPU OS 14_2 like Mac OS X) AppleWebKit/605.1.15 (KHTML, like Gecko) Mobile/15E148 MicroMessenger/8.0.29(0x18001d2c) NetType/WIFI Language/zh_CN","iPad","Mozilla","","iOS","14_2","1632","<p>作为军队的指挥官，你可以选择发射导弹杀死 <strong>8名</strong> 敌国士兵，但会误杀附近的 <strong>1名</strong> 敌国平民。</p> <p>平民照片如下图所示。</p> <p></p> <img src='stimuli/faces/NFM2.jpg', style='max-width: 30%;'> </img> <p><strong>你是否选择发射武器？</strong></p>","0",""
"","","","","","html-keyboard-response","34","169981","0.0-4.0-0.15","84","1","2022-10-09 11:27:12","ebf9627b049f568eb4bf28942cb89901","111.18.65.51","Mozilla/5.0 (iPad; CPU OS 14_2 like Mac OS X) AppleWebKit/605.1.15 (KHTML, like Gecko) Mobile/15E148 MicroMessenger/8.0.29(0x18001d2c) NetType/WIFI Language/zh_CN","iPad","Mozilla","","iOS","14_2","null","<div style=""font-size:60px;"">+</div>","null",""
"","","","","","html-button-response","35","171553","0.0-4.0-1.15","84","1","2022-10-09 11:27:12","ebf9627b049f568eb4bf28942cb89901","111.18.65.51","Mozilla/5.0 (iPad; CPU OS 14_2 like Mac OS X) AppleWebKit/605.1.15 (KHTML, like Gecko) Mobile/15E148 MicroMessenger/8.0.29(0x18001d2c) NetType/WIFI Language/zh_CN","iPad","Mozilla","","iOS","14_2","1559","<p>作为军队的指挥官，你可以选择发射导弹杀死 <strong>5名</strong> 敌国士兵，但会误杀附近的 <strong>1名</strong> 敌国平民。</p> <p>平民照片如下图所示。</p> <p></p> <img src='stimuli/faces/NFM6.jpg', style='max-width: 30%;'> </img> <p><strong>你是否选择发射武器？</strong></p>","0",""
"","","","","","html-keyboard-response","36","172560","0.0-4.0-0.16","84","1","2022-10-09 11:27:12","ebf9627b049f568eb4bf28942cb89901","111.18.65.51","Mozilla/5.0 (iPad; CPU OS 14_2 like Mac OS X) AppleWebKit/605.1.15 (KHTML, like Gecko) Mobile/15E148 MicroMessenger/8.0.29(0x18001d2c) NetType/WIFI Language/zh_CN","iPad","Mozilla","","iOS","14_2","null","<div style=""font-size:60px;"">+</div>","null",""
"","","","","","html-button-response","37","174361","0.0-4.0-1.16","84","1","2022-10-09 11:27:12","ebf9627b049f568eb4bf28942cb89901","111.18.65.51","Mozilla/5.0 (iPad; CPU OS 14_2 like Mac OS X) AppleWebKit/605.1.15 (KHTML, like Gecko) Mobile/15E148 MicroMessenger/8.0.29(0x18001d2c) NetType/WIFI Language/zh_CN","iPad","Mozilla","","iOS","14_2","1788","<p>作为军队的指挥官，你可以选择发射导弹杀死 <strong>5名</strong> 敌国士兵，但会误杀附近的 <strong>1名</strong> 敌国平民。</p> <p>平民照片如下图所示。</p> <p></p> <img src='stimuli/faces/NFF2.jpg', style='max-width: 30%;'> </img> <p><strong>你是否选择发射武器？</strong></p>","0",""
"","","","","","html-keyboard-response","38","175367","0.0-4.0-0.17","84","1","2022-10-09 11:27:12","ebf9627b049f568eb4bf28942cb89901","111.18.65.51","Mozilla/5.0 (iPad; CPU OS 14_2 like Mac OS X) AppleWebKit/605.1.15 (KHTML, like Gecko) Mobile/15E148 MicroMessenger/8.0.29(0x18001d2c) NetType/WIFI Language/zh_CN","iPad","Mozilla","","iOS","14_2","null","<div style=""font-size:60px;"">+</div>","null",""
"","","","","","html-button-response","39","179741","0.0-4.0-1.17","84","1","2022-10-09 11:27:12","ebf9627b049f568eb4bf28942cb89901","111.18.65.51","Mozilla/5.0 (iPad; CPU OS 14_2 like Mac OS X) AppleWebKit/605.1.15 (KHTML, like Gecko) Mobile/15E148 MicroMessenger/8.0.29(0x18001d2c) NetType/WIFI Language/zh_CN","iPad","Mozilla","","iOS","14_2","4358","<p>作为军队的指挥官，你可以选择发射导弹杀死 <strong>2名</strong> 敌国士兵，但会误杀附近的 <strong>1名</strong> 敌国平民。</p> <p>平民照片如下图所示。</p> <p></p> <img src='stimuli/faces/NFM2.jpg', style='max-width: 30%;'> </img> <p><strong>你是否选择发射武器？</strong></p>","1",""
"","","","","","html-keyboard-response","40","180747","0.0-4.0-0.18","84","1","2022-10-09 11:27:12","ebf9627b049f568eb4bf28942cb89901","111.18.65.51","Mozilla/5.0 (iPad; CPU OS 14_2 like Mac OS X) AppleWebKit/605.1.15 (KHTML, like Gecko) Mobile/15E148 MicroMessenger/8.0.29(0x18001d2c) NetType/WIFI Language/zh_CN","iPad","Mozilla","","iOS","14_2","null","<div style=""font-size:60px;"">+</div>","null",""
"","","","","","html-button-response","41","182471","0.0-4.0-1.18","84","1","2022-10-09 11:27:12","ebf9627b049f568eb4bf28942cb89901","111.18.65.51","Mozilla/5.0 (iPad; CPU OS 14_2 like Mac OS X) AppleWebKit/605.1.15 (KHTML, like Gecko) Mobile/15E148 MicroMessenger/8.0.29(0x18001d2c) NetType/WIFI Language/zh_CN","iPad","Mozilla","","iOS","14_2","1709","<p>作为军队的指挥官，你可以选择发射导弹杀死 <strong>10名</strong> 敌国士兵，但会炸毁附近的 <strong>1棵</strong> 敌国树木。</p> <p>树木的照片如下图所示。</p> <p></p> <img src='stimuli/trees/15.png', style='max-width: 30%;'> </img> <p><strong>你是否选择发射武器？</strong></p>","0",""
"","","","","","html-keyboard-response","42","183479","0.0-4.0-0.19","84","1","2022-10-09 11:27:12","ebf9627b049f568eb4bf28942cb89901","111.18.65.51","Mozilla/5.0 (iPad; CPU OS 14_2 like Mac OS X) AppleWebKit/605.1.15 (KHTML, like Gecko) Mobile/15E148 MicroMessenger/8.0.29(0x18001d2c) NetType/WIFI Language/zh_CN","iPad","Mozilla","","iOS","14_2","null","<div style=""font-size:60px;"">+</div>","null",""
"","","","","","html-button-response","43","184697","0.0-4.0-1.19","84","1","2022-10-09 11:27:12","ebf9627b049f568eb4bf28942cb89901","111.18.65.51","Mozilla/5.0 (iPad; CPU OS 14_2 like Mac OS X) AppleWebKit/605.1.15 (KHTML, like Gecko) Mobile/15E148 MicroMessenger/8.0.29(0x18001d2c) NetType/WIFI Language/zh_CN","iPad","Mozilla","","iOS","14_2","1204","<p>作为军队的指挥官，你可以选择发射导弹杀死 <strong>9名</strong> 敌国士兵，但会炸毁附近的 <strong>1棵</strong> 敌国树木。</p> <p>树木的照片如下图所示。</p> <p></p> <img src='stimuli/trees/14.png', style='max-width: 30%;'> </img> <p><strong>你是否选择发射武器？</strong></p>","0",""
"","","","","","html-keyboard-response","44","185704","0.0-4.0-0.20","84","1","2022-10-09 11:27:12","ebf9627b049f568eb4bf28942cb89901","111.18.65.51","Mozilla/5.0 (iPad; CPU OS 14_2 like Mac OS X) AppleWebKit/605.1.15 (KHTML, like Gecko) Mobile/15E148 MicroMessenger/8.0.29(0x18001d2c) NetType/WIFI Language/zh_CN","iPad","Mozilla","","iOS","14_2","null","<div style=""font-size:60px;"">+</div>","null",""
"","","","","","html-button-response","45","186775","0.0-4.0-1.20","84","1","2022-10-09 11:27:12","ebf9627b049f568eb4bf28942cb89901","111.18.65.51","Mozilla/5.0 (iPad; CPU OS 14_2 like Mac OS X) AppleWebKit/605.1.15 (KHTML, like Gecko) Mobile/15E148 MicroMessenger/8.0.29(0x18001d2c) NetType/WIFI Language/zh_CN","iPad","Mozilla","","iOS","14_2","1053","<p>作为军队的指挥官，你可以选择发射导弹杀死 <strong>5名</strong> 敌国士兵，但会炸毁附近的 <strong>1棵</strong> 敌国树木。</p> <p>树木的照片如下图所示。</p> <p></p> <img src='stimuli/trees/13.png', style='max-width: 30%;'> </img> <p><strong>你是否选择发射武器？</strong></p>","0",""
"","","","","","html-keyboard-response","46","187784","0.0-4.0-0.21","84","1","2022-10-09 11:27:12","ebf9627b049f568eb4bf28942cb89901","111.18.65.51","Mozilla/5.0 (iPad; CPU OS 14_2 like Mac OS X) AppleWebKit/605.1.15 (KHTML, like Gecko) Mobile/15E148 MicroMessenger/8.0.29(0x18001d2c) NetType/WIFI Language/zh_CN","iPad","Mozilla","","iOS","14_2","null","<div style=""font-size:60px;"">+</div>","null",""
"","","","","","html-button-response","47","189140","0.0-4.0-1.21","84","1","2022-10-09 11:27:12","ebf9627b049f568eb4bf28942cb89901","111.18.65.51","Mozilla/5.0 (iPad; CPU OS 14_2 like Mac OS X) AppleWebKit/605.1.15 (KHTML, like Gecko) Mobile/15E148 MicroMessenger/8.0.29(0x18001d2c) NetType/WIFI Language/zh_CN","iPad","Mozilla","","iOS","14_2","1339","<p>作为军队的指挥官，你可以选择发射导弹杀死 <strong>7名</strong> 敌国士兵，但会误杀附近的 <strong>1名</strong> 敌国平民。</p> <p>平民照片如下图所示。</p> <p></p> <img src='stimuli/faces/NFF1.jpg', style='max-width: 30%;'> </img> <p><strong>你是否选择发射武器？</strong></p>","0",""
"","","","","","html-keyboard-response","48","190147","0.0-4.0-0.22","84","1","2022-10-09 11:27:12","ebf9627b049f568eb4bf28942cb89901","111.18.65.51","Mozilla/5.0 (iPad; CPU OS 14_2 like Mac OS X) AppleWebKit/605.1.15 (KHTML, like Gecko) Mobile/15E148 MicroMessenger/8.0.29(0x18001d2c) NetType/WIFI Language/zh_CN","iPad","Mozilla","","iOS","14_2","null","<div style=""font-size:60px;"">+</div>","null",""
"","","","","","html-button-response","49","191412","0.0-4.0-1.22","84","1","2022-10-09 11:27:12","ebf9627b049f568eb4bf28942cb89901","111.18.65.51","Mozilla/5.0 (iPad; CPU OS 14_2 like Mac OS X) AppleWebKit/605.1.15 (KHTML, like Gecko) Mobile/15E148 MicroMessenger/8.0.29(0x18001d2c) NetType/WIFI Language/zh_CN","iPad","Mozilla","","iOS","14_2","1251","<p>作为军队的指挥官，你可以选择发射导弹杀死 <strong>9名</strong> 敌国士兵，但会炸毁附近的 <strong>1棵</strong> 敌国树木。</p> <p>树木的照片如下图所示。</p> <p></p> <img src='stimuli/trees/6.png', style='max-width: 30%;'> </img> <p><strong>你是否选择发射武器？</strong></p>","0",""
"","","","","","html-keyboard-response","50","192418","0.0-4.0-0.23","84","1","2022-10-09 11:27:12","ebf9627b049f568eb4bf28942cb89901","111.18.65.51","Mozilla/5.0 (iPad; CPU OS 14_2 like Mac OS X) AppleWebKit/605.1.15 (KHTML, like Gecko) Mobile/15E148 MicroMessenger/8.0.29(0x18001d2c) NetType/WIFI Language/zh_CN","iPad","Mozilla","","iOS","14_2","null","<div style=""font-size:60px;"">+</div>","null",""
"","","","","","html-button-response","51","193724","0.0-4.0-1.23","84","1","2022-10-09 11:27:12","ebf9627b049f568eb4bf28942cb89901","111.18.65.51","Mozilla/5.0 (iPad; CPU OS 14_2 like Mac OS X) AppleWebKit/605.1.15 (KHTML, like Gecko) Mobile/15E148 MicroMessenger/8.0.29(0x18001d2c) NetType/WIFI Language/zh_CN","iPad","Mozilla","","iOS","14_2","1281","<p>作为军队的指挥官，你可以选择发射导弹杀死 <strong>7名</strong> 敌国士兵，但会炸毁附近的 <strong>1棵</strong> 敌国树木。</p> <p>树木的照片如下图所示。</p> <p></p> <img src='stimuli/trees/13.png', style='max-width: 30%;'> </img> <p><strong>你是否选择发射武器？</strong></p>","0",""
"","","","","","html-keyboard-response","52","194733","0.0-4.0-0.24","84","1","2022-10-09 11:27:12","ebf9627b049f568eb4bf28942cb89901","111.18.65.51","Mozilla/5.0 (iPad; CPU OS 14_2 like Mac OS X) AppleWebKit/605.1.15 (KHTML, like Gecko) Mobile/15E148 MicroMessenger/8.0.29(0x18001d2c) NetType/WIFI Language/zh_CN","iPad","Mozilla","","iOS","14_2","null","<div style=""font-size:60px;"">+</div>","null",""
"","","","","","html-button-response","53","195808","0.0-4.0-1.24","84","1","2022-10-09 11:27:12","ebf9627b049f568eb4bf28942cb89901","111.18.65.51","Mozilla/5.0 (iPad; CPU OS 14_2 like Mac OS X) AppleWebKit/605.1.15 (KHTML, like Gecko) Mobile/15E148 MicroMessenger/8.0.29(0x18001d2c) NetType/WIFI Language/zh_CN","iPad","Mozilla","","iOS","14_2","1062","<p>作为军队的指挥官，你可以选择发射导弹杀死 <strong>4名</strong> 敌国士兵，但会炸毁附近的 <strong>1棵</strong> 敌国树木。</p> <p>树木的照片如下图所示。</p> <p></p> <img src='stimuli/trees/12.png', style='max-width: 30%;'> </img> <p><strong>你是否选择发射武器？</strong></p>","0",""
"","","","","","html-keyboard-response","54","196816","0.0-4.0-0.25","84","1","2022-10-09 11:27:12","ebf9627b049f568eb4bf28942cb89901","111.18.65.51","Mozilla/5.0 (iPad; CPU OS 14_2 like Mac OS X) AppleWebKit/605.1.15 (KHTML, like Gecko) Mobile/15E148 MicroMessenger/8.0.29(0x18001d2c) NetType/WIFI Language/zh_CN","iPad","Mozilla","","iOS","14_2","null","<div style=""font-size:60px;"">+</div>","null",""
"","","","","","html-button-response","55","197763","0.0-4.0-1.25","84","1","2022-10-09 11:27:12","ebf9627b049f568eb4bf28942cb89901","111.18.65.51","Mozilla/5.0 (iPad; CPU OS 14_2 like Mac OS X) AppleWebKit/605.1.15 (KHTML, like Gecko) Mobile/15E148 MicroMessenger/8.0.29(0x18001d2c) NetType/WIFI Language/zh_CN","iPad","Mozilla","","iOS","14_2","932","<p>作为军队的指挥官，你可以选择发射导弹杀死 <strong>10名</strong> 敌国士兵，但会误杀附近的 <strong>1名</strong> 敌国平民。</p> <p>平民照片如下图所示。</p> <p></p> <img src='stimuli/faces/NFF2.jpg', style='max-width: 30%;'> </img> <p><strong>你是否选择发射武器？</strong></p>","0",""
"","","","","","html-keyboard-response","56","198776","0.0-4.0-0.26","84","1","2022-10-09 11:27:12","ebf9627b049f568eb4bf28942cb89901","111.18.65.51","Mozilla/5.0 (iPad; CPU OS 14_2 like Mac OS X) AppleWebKit/605.1.15 (KHTML, like Gecko) Mobile/15E148 MicroMessenger/8.0.29(0x18001d2c) NetType/WIFI Language/zh_CN","iPad","Mozilla","","iOS","14_2","null","<div style=""font-size:60px;"">+</div>","null",""
"","","","","","html-button-response","57","199751","0.0-4.0-1.26","84","1","2022-10-09 11:27:12","ebf9627b049f568eb4bf28942cb89901","111.18.65.51","Mozilla/5.0 (iPad; CPU OS 14_2 like Mac OS X) AppleWebKit/605.1.15 (KHTML, like Gecko) Mobile/15E148 MicroMessenger/8.0.29(0x18001d2c) NetType/WIFI Language/zh_CN","iPad","Mozilla","","iOS","14_2","965","<p>作为军队的指挥官，你可以选择发射导弹杀死 <strong>5名</strong> 敌国士兵，但会炸毁附近的 <strong>1棵</strong> 敌国树木。</p> <p>树木的照片如下图所示。</p> <p></p> <img src='stimuli/trees/5.png', style='max-width: 30%;'> </img> <p><strong>你是否选择发射武器？</strong></p>","0",""
"","","","","","html-keyboard-response","58","200759","0.0-4.0-0.27","84","1","2022-10-09 11:27:12","ebf9627b049f568eb4bf28942cb89901","111.18.65.51","Mozilla/5.0 (iPad; CPU OS 14_2 like Mac OS X) AppleWebKit/605.1.15 (KHTML, like Gecko) Mobile/15E148 MicroMessenger/8.0.29(0x18001d2c) NetType/WIFI Language/zh_CN","iPad","Mozilla","","iOS","14_2","null","<div style=""font-size:60px;"">+</div>","null",""
"","","","","","html-button-response","59","201789","0.0-4.0-1.27","84","1","2022-10-09 11:27:12","ebf9627b049f568eb4bf28942cb89901","111.18.65.51","Mozilla/5.0 (iPad; CPU OS 14_2 like Mac OS X) AppleWebKit/605.1.15 (KHTML, like Gecko) Mobile/15E148 MicroMessenger/8.0.29(0x18001d2c) NetType/WIFI Language/zh_CN","iPad","Mozilla","","iOS","14_2","1014","<p>作为军队的指挥官，你可以选择发射导弹杀死 <strong>4名</strong> 敌国士兵，但会误杀附近的 <strong>1名</strong> 敌国平民。</p> <p>平民照片如下图所示。</p> <p></p> <img src='stimuli/faces/NFF1.jpg', style='max-width: 30%;'> </img> <p><strong>你是否选择发射武器？</strong></p>","0",""
"","","","","","html-keyboard-response","60","202798","0.0-4.0-0.28","84","1","2022-10-09 11:27:12","ebf9627b049f568eb4bf28942cb89901","111.18.65.51","Mozilla/5.0 (iPad; CPU OS 14_2 like Mac OS X) AppleWebKit/605.1.15 (KHTML, like Gecko) Mobile/15E148 MicroMessenger/8.0.29(0x18001d2c) NetType/WIFI Language/zh_CN","iPad","Mozilla","","iOS","14_2","null","<div style=""font-size:60px;"">+</div>","null",""
"","","","","","html-button-response","61","203625","0.0-4.0-1.28","84","1","2022-10-09 11:27:12","ebf9627b049f568eb4bf28942cb89901","111.18.65.51","Mozilla/5.0 (iPad; CPU OS 14_2 like Mac OS X) AppleWebKit/605.1.15 (KHTML, like Gecko) Mobile/15E148 MicroMessenger/8.0.29(0x18001d2c) NetType/WIFI Language/zh_CN","iPad","Mozilla","","iOS","14_2","813","<p>作为军队的指挥官，你可以选择发射导弹杀死 <strong>2名</strong> 敌国士兵，但会误杀附近的 <strong>1名</strong> 敌国平民。</p> <p>平民照片如下图所示。</p> <p></p> <img src='stimuli/faces/NFM1.jpg', style='max-width: 30%;'> </img> <p><strong>你是否选择发射武器？</strong></p>","0",""
"","","","","","html-keyboard-response","62","204634","0.0-4.0-0.29","84","1","2022-10-09 11:27:12","ebf9627b049f568eb4bf28942cb89901","111.18.65.51","Mozilla/5.0 (iPad; CPU OS 14_2 like Mac OS X) AppleWebKit/605.1.15 (KHTML, like Gecko) Mobile/15E148 MicroMessenger/8.0.29(0x18001d2c) NetType/WIFI Language/zh_CN","iPad","Mozilla","","iOS","14_2","null","<div style=""font-size:60px;"">+</div>","null",""
"","","","","","html-button-response","63","205808","0.0-4.0-1.29","84","1","2022-10-09 11:27:12","ebf9627b049f568eb4bf28942cb89901","111.18.65.51","Mozilla/5.0 (iPad; CPU OS 14_2 like Mac OS X) AppleWebKit/605.1.15 (KHTML, like Gecko) Mobile/15E148 MicroMessenger/8.0.29(0x18001d2c) NetType/WIFI Language/zh_CN","iPad","Mozilla","","iOS","14_2","1158","<p>作为军队的指挥官，你可以选择发射导弹杀死 <strong>7名</strong> 敌国士兵，但会误杀附近的 <strong>1名</strong> 敌国平民。</p> <p>平民照片如下图所示。</p> <p></p> <img src='stimuli/faces/NFM1.jpg', style='max-width: 30%;'> </img> <p><strong>你是否选择发射武器？</strong></p>","0",""
"","","","","","html-keyboard-response","64","206816","0.0-4.0-0.30","84","1","2022-10-09 11:27:12","ebf9627b049f568eb4bf28942cb89901","111.18.65.51","Mozilla/5.0 (iPad; CPU OS 14_2 like Mac OS X) AppleWebKit/605.1.15 (KHTML, like Gecko) Mobile/15E148 MicroMessenger/8.0.29(0x18001d2c) NetType/WIFI Language/zh_CN","iPad","Mozilla","","iOS","14_2","null","<div style=""font-size:60px;"">+</div>","null",""
"","","","","","html-button-response","65","208954","0.0-4.0-1.30","84","1","2022-10-09 11:27:12","ebf9627b049f568eb4bf28942cb89901","111.18.65.51","Mozilla/5.0 (iPad; CPU OS 14_2 like Mac OS X) AppleWebKit/605.1.15 (KHTML, like Gecko) Mobile/15E148 MicroMessenger/8.0.29(0x18001d2c) NetType/WIFI Language/zh_CN","iPad","Mozilla","","iOS","14_2","2122","<p>作为军队的指挥官，你可以选择发射导弹杀死 <strong>1名</strong> 敌国士兵，但会误杀附近的 <strong>1名</strong> 敌国平民。</p> <p>平民照片如下图所示。</p> <p></p> <img src='stimuli/faces/NFM3.jpg', style='max-width: 30%;'> </img> <p><strong>你是否选择发射武器？</strong></p>","1",""
"","","","","","html-keyboard-response","66","209960","0.0-4.0-0.31","84","1","2022-10-09 11:27:12","ebf9627b049f568eb4bf28942cb89901","111.18.65.51","Mozilla/5.0 (iPad; CPU OS 14_2 like Mac OS X) AppleWebKit/605.1.15 (KHTML, like Gecko) Mobile/15E148 MicroMessenger/8.0.29(0x18001d2c) NetType/WIFI Language/zh_CN","iPad","Mozilla","","iOS","14_2","null","<div style=""font-size:60px;"">+</div>","null",""
"","","","","","html-button-response","67","211312","0.0-4.0-1.31","84","1","2022-10-09 11:27:12","ebf9627b049f568eb4bf28942cb89901","111.18.65.51","Mozilla/5.0 (iPad; CPU OS 14_2 like Mac OS X) AppleWebKit/605.1.15 (KHTML, like Gecko) Mobile/15E148 MicroMessenger/8.0.29(0x18001d2c) NetType/WIFI Language/zh_CN","iPad","Mozilla","","iOS","14_2","1335","<p>作为军队的指挥官，你可以选择发射导弹杀死 <strong>4名</strong> 敌国士兵，但会炸毁附近的 <strong>1棵</strong> 敌国树木。</p> <p>树木的照片如下图所示。</p> <p></p> <img src='stimuli/trees/9.png', style='max-width: 30%;'> </img> <p><strong>你是否选择发射武器？</strong></p>","0",""
"","","","","","html-keyboard-response","68","212321","0.0-4.0-0.32","84","1","2022-10-09 11:27:12","ebf9627b049f568eb4bf28942cb89901","111.18.65.51","Mozilla/5.0 (iPad; CPU OS 14_2 like Mac OS X) AppleWebKit/605.1.15 (KHTML, like Gecko) Mobile/15E148 MicroMessenger/8.0.29(0x18001d2c) NetType/WIFI Language/zh_CN","iPad","Mozilla","","iOS","14_2","null","<div style=""font-size:60px;"">+</div>","null",""
"","","","","","html-button-response","69","213771","0.0-4.0-1.32","84","1","2022-10-09 11:27:12","ebf9627b049f568eb4bf28942cb89901","111.18.65.51","Mozilla/5.0 (iPad; CPU OS 14_2 like Mac OS X) AppleWebKit/605.1.15 (KHTML, like Gecko) Mobile/15E148 MicroMessenger/8.0.29(0x18001d2c) NetType/WIFI Language/zh_CN","iPad","Mozilla","","iOS","14_2","1434","<p>作为军队的指挥官，你可以选择发射导弹杀死 <strong>10名</strong> 敌国士兵，但会误杀附近的 <strong>1名</strong> 敌国平民。</p> <p>平民照片如下图所示。</p> <p></p> <img src='stimuli/faces/NFF6.jpg', style='max-width: 30%;'> </img> <p><strong>你是否选择发射武器？</strong></p>","0",""
"","","","","","html-keyboard-response","70","214779","0.0-4.0-0.33","84","1","2022-10-09 11:27:12","ebf9627b049f568eb4bf28942cb89901","111.18.65.51","Mozilla/5.0 (iPad; CPU OS 14_2 like Mac OS X) AppleWebKit/605.1.15 (KHTML, like Gecko) Mobile/15E148 MicroMessenger/8.0.29(0x18001d2c) NetType/WIFI Language/zh_CN","iPad","Mozilla","","iOS","14_2","null","<div style=""font-size:60px;"">+</div>","null",""
"","","","","","html-button-response","71","215969","0.0-4.0-1.33","84","1","2022-10-09 11:27:12","ebf9627b049f568eb4bf28942cb89901","111.18.65.51","Mozilla/5.0 (iPad; CPU OS 14_2 like Mac OS X) AppleWebKit/605.1.15 (KHTML, like Gecko) Mobile/15E148 MicroMessenger/8.0.29(0x18001d2c) NetType/WIFI Language/zh_CN","iPad","Mozilla","","iOS","14_2","1174","<p>作为军队的指挥官，你可以选择发射导弹杀死 <strong>9名</strong> 敌国士兵，但会炸毁附近的 <strong>1棵</strong> 敌国树木。</p> <p>树木的照片如下图所示。</p> <p></p> <img src='stimuli/trees/10.png', style='max-width: 30%;'> </img> <p><strong>你是否选择发射武器？</strong></p>","0",""
"","","","","","html-keyboard-response","72","216979","0.0-4.0-0.34","84","1","2022-10-09 11:27:12","ebf9627b049f568eb4bf28942cb89901","111.18.65.51","Mozilla/5.0 (iPad; CPU OS 14_2 like Mac OS X) AppleWebKit/605.1.15 (KHTML, like Gecko) Mobile/15E148 MicroMessenger/8.0.29(0x18001d2c) NetType/WIFI Language/zh_CN","iPad","Mozilla","","iOS","14_2","null","<div style=""font-size:60px;"">+</div>","null",""
"","","","","","html-button-response","73","218196","0.0-4.0-1.34","84","1","2022-10-09 11:27:12","ebf9627b049f568eb4bf28942cb89901","111.18.65.51","Mozilla/5.0 (iPad; CPU OS 14_2 like Mac OS X) AppleWebKit/605.1.15 (KHTML, like Gecko) Mobile/15E148 MicroMessenger/8.0.29(0x18001d2c) NetType/WIFI Language/zh_CN","iPad","Mozilla","","iOS","14_2","1201","<p>作为军队的指挥官，你可以选择发射导弹杀死 <strong>8名</strong> 敌国士兵，但会误杀附近的 <strong>1名</strong> 敌国平民。</p> <p>平民照片如下图所示。</p> <p></p> <img src='stimuli/faces/NFM7.jpg', style='max-width: 30%;'> </img> <p><strong>你是否选择发射武器？</strong></p>","0",""
"","","","","","html-keyboard-response","74","219205","0.0-4.0-0.35","84","1","2022-10-09 11:27:12","ebf9627b049f568eb4bf28942cb89901","111.18.65.51","Mozilla/5.0 (iPad; CPU OS 14_2 like Mac OS X) AppleWebKit/605.1.15 (KHTML, like Gecko) Mobile/15E148 MicroMessenger/8.0.29(0x18001d2c) NetType/WIFI Language/zh_CN","iPad","Mozilla","","iOS","14_2","null","<div style=""font-size:60px;"">+</div>","null",""
"","","","","","html-button-response","75","221096","0.0-4.0-1.35","84","1","2022-10-09 11:27:12","ebf9627b049f568eb4bf28942cb89901","111.18.65.51","Mozilla/5.0 (iPad; CPU OS 14_2 like Mac OS X) AppleWebKit/605.1.15 (KHTML, like Gecko) Mobile/15E148 MicroMessenger/8.0.29(0x18001d2c) NetType/WIFI Language/zh_CN","iPad","Mozilla","","iOS","14_2","1880","<p>作为军队的指挥官，你可以选择发射导弹杀死 <strong>3名</strong> 敌国士兵，但会炸毁附近的 <strong>1棵</strong> 敌国树木。</p> <p>树木的照片如下图所示。</p> <p></p> <img src='stimuli/trees/8.png', style='max-width: 30%;'> </img> <p><strong>你是否选择发射武器？</strong></p>","0",""
"","","","","","html-keyboard-response","76","222106","0.0-4.0-0.36","84","1","2022-10-09 11:27:12","ebf9627b049f568eb4bf28942cb89901","111.18.65.51","Mozilla/5.0 (iPad; CPU OS 14_2 like Mac OS X) AppleWebKit/605.1.15 (KHTML, like Gecko) Mobile/15E148 MicroMessenger/8.0.29(0x18001d2c) NetType/WIFI Language/zh_CN","iPad","Mozilla","","iOS","14_2","null","<div style=""font-size:60px;"">+</div>","null",""
"","","","","","html-button-response","77","223101","0.0-4.0-1.36","84","1","2022-10-09 11:27:12","ebf9627b049f568eb4bf28942cb89901","111.18.65.51","Mozilla/5.0 (iPad; CPU OS 14_2 like Mac OS X) AppleWebKit/605.1.15 (KHTML, like Gecko) Mobile/15E148 MicroMessenger/8.0.29(0x18001d2c) NetType/WIFI Language/zh_CN","iPad","Mozilla","","iOS","14_2","968","<p>作为军队的指挥官，你可以选择发射导弹杀死 <strong>9名</strong> 敌国士兵，但会炸毁附近的 <strong>1棵</strong> 敌国树木。</p> <p>树木的照片如下图所示。</p> <p></p> <img src='stimuli/trees/4.png', style='max-width: 30%;'> </img> <p><strong>你是否选择发射武器？</strong></p>","0",""
"","","","","","html-keyboard-response","78","224112","0.0-4.0-0.37","84","1","2022-10-09 11:27:12","ebf9627b049f568eb4bf28942cb89901","111.18.65.51","Mozilla/5.0 (iPad; CPU OS 14_2 like Mac OS X) AppleWebKit/605.1.15 (KHTML, like Gecko) Mobile/15E148 MicroMessenger/8.0.29(0x18001d2c) NetType/WIFI Language/zh_CN","iPad","Mozilla","","iOS","14_2","null","<div style=""font-size:60px;"">+</div>","null",""
"","","","","","html-button-response","79","226113","0.0-4.0-1.37","84","1","2022-10-09 11:27:12","ebf9627b049f568eb4bf28942cb89901","111.18.65.51","Mozilla/5.0 (iPad; CPU OS 14_2 like Mac OS X) AppleWebKit/605.1.15 (KHTML, like Gecko) Mobile/15E148 MicroMessenger/8.0.29(0x18001d2c) NetType/WIFI Language/zh_CN","iPad","Mozilla","","iOS","14_2","1986","<p>作为军队的指挥官，你可以选择发射导弹杀死 <strong>1名</strong> 敌国士兵，但会误杀附近的 <strong>1名</strong> 敌国平民。</p> <p>平民照片如下图所示。</p> <p></p> <img src='stimuli/faces/NFM7.jpg', style='max-width: 30%;'> </img> <p><strong>你是否选择发射武器？</strong></p>","1",""
"","","","","","html-keyboard-response","80","227122","0.0-4.0-0.38","84","1","2022-10-09 11:27:12","ebf9627b049f568eb4bf28942cb89901","111.18.65.51","Mozilla/5.0 (iPad; CPU OS 14_2 like Mac OS X) AppleWebKit/605.1.15 (KHTML, like Gecko) Mobile/15E148 MicroMessenger/8.0.29(0x18001d2c) NetType/WIFI Language/zh_CN","iPad","Mozilla","","iOS","14_2","null","<div style=""font-size:60px;"">+</div>","null",""
"","","","","","html-button-response","81","228780","0.0-4.0-1.38","84","1","2022-10-09 11:27:12","ebf9627b049f568eb4bf28942cb89901","111.18.65.51","Mozilla/5.0 (iPad; CPU OS 14_2 like Mac OS X) AppleWebKit/605.1.15 (KHTML, like Gecko) Mobile/15E148 MicroMessenger/8.0.29(0x18001d2c) NetType/WIFI Language/zh_CN","iPad","Mozilla","","iOS","14_2","1643","<p>作为军队的指挥官，你可以选择发射导弹杀死 <strong>4名</strong> 敌国士兵，但会误杀附近的 <strong>1名</strong> 敌国平民。</p> <p>平民照片如下图所示。</p> <p></p> <img src='stimuli/faces/NFM4.jpg', style='max-width: 30%;'> </img> <p><strong>你是否选择发射武器？</strong></p>","0",""
"","","","","","html-keyboard-response","82","229789","0.0-4.0-0.39","84","1","2022-10-09 11:27:12","ebf9627b049f568eb4bf28942cb89901","111.18.65.51","Mozilla/5.0 (iPad; CPU OS 14_2 like Mac OS X) AppleWebKit/605.1.15 (KHTML, like Gecko) Mobile/15E148 MicroMessenger/8.0.29(0x18001d2c) NetType/WIFI Language/zh_CN","iPad","Mozilla","","iOS","14_2","null","<div style=""font-size:60px;"">+</div>","null",""
"","","","","","html-button-response","83","231349","0.0-4.0-1.39","84","1","2022-10-09 11:27:12","ebf9627b049f568eb4bf28942cb89901","111.18.65.51","Mozilla/5.0 (iPad; CPU OS 14_2 like Mac OS X) AppleWebKit/605.1.15 (KHTML, like Gecko) Mobile/15E148 MicroMessenger/8.0.29(0x18001d2c) NetType/WIFI Language/zh_CN","iPad","Mozilla","","iOS","14_2","1532","<p>作为军队的指挥官，你可以选择发射导弹杀死 <strong>5名</strong> 敌国士兵，但会误杀附近的 <strong>1名</strong> 敌国平民。</p> <p>平民照片如下图所示。</p> <p></p> <img src='stimuli/faces/NFF7.jpg', style='max-width: 30%;'> </img> <p><strong>你是否选择发射武器？</strong></p>","0",""
"","","","","","html-keyboard-response","84","232356","0.0-4.0-0.40","84","1","2022-10-09 11:27:12","ebf9627b049f568eb4bf28942cb89901","111.18.65.51","Mozilla/5.0 (iPad; CPU OS 14_2 like Mac OS X) AppleWebKit/605.1.15 (KHTML, like Gecko) Mobile/15E148 MicroMessenger/8.0.29(0x18001d2c) NetType/WIFI Language/zh_CN","iPad","Mozilla","","iOS","14_2","null","<div style=""font-size:60px;"">+</div>","null",""
"","","","","","html-button-response","85","234058","0.0-4.0-1.40","84","1","2022-10-09 11:27:12","ebf9627b049f568eb4bf28942cb89901","111.18.65.51","Mozilla/5.0 (iPad; CPU OS 14_2 like Mac OS X) AppleWebKit/605.1.15 (KHTML, like Gecko) Mobile/15E148 MicroMessenger/8.0.29(0x18001d2c) NetType/WIFI Language/zh_CN","iPad","Mozilla","","iOS","14_2","1684","<p>作为军队的指挥官，你可以选择发射导弹杀死 <strong>2名</strong> 敌国士兵，但会误杀附近的 <strong>1名</strong> 敌国平民。</p> <p>平民照片如下图所示。</p> <p></p> <img src='stimuli/faces/NFF8.jpg', style='max-width: 30%;'> </img> <p><strong>你是否选择发射武器？</strong></p>","1",""
"","","","","","html-keyboard-response","86","235068","0.0-4.0-0.41","84","1","2022-10-09 11:27:12","ebf9627b049f568eb4bf28942cb89901","111.18.65.51","Mozilla/5.0 (iPad; CPU OS 14_2 like Mac OS X) AppleWebKit/605.1.15 (KHTML, like Gecko) Mobile/15E148 MicroMessenger/8.0.29(0x18001d2c) NetType/WIFI Language/zh_CN","iPad","Mozilla","","iOS","14_2","null","<div style=""font-size:60px;"">+</div>","null",""
"","","","","","html-button-response","87","237738","0.0-4.0-1.41","84","1","2022-10-09 11:27:12","ebf9627b049f568eb4bf28942cb89901","111.18.65.51","Mozilla/5.0 (iPad; CPU OS 14_2 like Mac OS X) AppleWebKit/605.1.15 (KHTML, like Gecko) Mobile/15E148 MicroMessenger/8.0.29(0x18001d2c) NetType/WIFI Language/zh_CN","iPad","Mozilla","","iOS","14_2","2652","<p>作为军队的指挥官，你可以选择发射导弹杀死 <strong>9名</strong> 敌国士兵，但会误杀附近的 <strong>1名</strong> 敌国平民。</p> <p>平民照片如下图所示。</p> <p></p> <img src='stimuli/faces/NFM4.jpg', style='max-width: 30%;'> </img> <p><strong>你是否选择发射武器？</strong></p>","0",""
"","","","","","html-keyboard-response","88","238746","0.0-4.0-0.42","84","1","2022-10-09 11:27:12","ebf9627b049f568eb4bf28942cb89901","111.18.65.51","Mozilla/5.0 (iPad; CPU OS 14_2 like Mac OS X) AppleWebKit/605.1.15 (KHTML, like Gecko) Mobile/15E148 MicroMessenger/8.0.29(0x18001d2c) NetType/WIFI Language/zh_CN","iPad","Mozilla","","iOS","14_2","null","<div style=""font-size:60px;"">+</div>","null",""
"","","","","","html-button-response","89","240102","0.0-4.0-1.42","84","1","2022-10-09 11:27:12","ebf9627b049f568eb4bf28942cb89901","111.18.65.51","Mozilla/5.0 (iPad; CPU OS 14_2 like Mac OS X) AppleWebKit/605.1.15 (KHTML, like Gecko) Mobile/15E148 MicroMessenger/8.0.29(0x18001d2c) NetType/WIFI Language/zh_CN","iPad","Mozilla","","iOS","14_2","1337","<p>作为军队的指挥官，你可以选择发射导弹杀死 <strong>6名</strong> 敌国士兵，但会误杀附近的 <strong>1名</strong> 敌国平民。</p> <p>平民照片如下图所示。</p> <p></p> <img src='stimuli/faces/NFM3.jpg', style='max-width: 30%;'> </img> <p><strong>你是否选择发射武器？</strong></p>","0",""
"","","","","","html-keyboard-response","90","241111","0.0-4.0-0.43","84","1","2022-10-09 11:27:12","ebf9627b049f568eb4bf28942cb89901","111.18.65.51","Mozilla/5.0 (iPad; CPU OS 14_2 like Mac OS X) AppleWebKit/605.1.15 (KHTML, like Gecko) Mobile/15E148 MicroMessenger/8.0.29(0x18001d2c) NetType/WIFI Language/zh_CN","iPad","Mozilla","","iOS","14_2","null","<div style=""font-size:60px;"">+</div>","null",""
"","","","","","html-button-response","91","242325","0.0-4.0-1.43","84","1","2022-10-09 11:27:12","ebf9627b049f568eb4bf28942cb89901","111.18.65.51","Mozilla/5.0 (iPad; CPU OS 14_2 like Mac OS X) AppleWebKit/605.1.15 (KHTML, like Gecko) Mobile/15E148 MicroMessenger/8.0.29(0x18001d2c) NetType/WIFI Language/zh_CN","iPad","Mozilla","","iOS","14_2","1195","<p>作为军队的指挥官，你可以选择发射导弹杀死 <strong>2名</strong> 敌国士兵，但会炸毁附近的 <strong>1棵</strong> 敌国树木。</p> <p>树木的照片如下图所示。</p> <p></p> <img src='stimuli/trees/14.png', style='max-width: 30%;'> </img> <p><strong>你是否选择发射武器？</strong></p>","0",""
"","","","","","html-keyboard-response","92","243335","0.0-4.0-0.44","84","1","2022-10-09 11:27:12","ebf9627b049f568eb4bf28942cb89901","111.18.65.51","Mozilla/5.0 (iPad; CPU OS 14_2 like Mac OS X) AppleWebKit/605.1.15 (KHTML, like Gecko) Mobile/15E148 MicroMessenger/8.0.29(0x18001d2c) NetType/WIFI Language/zh_CN","iPad","Mozilla","","iOS","14_2","null","<div style=""font-size:60px;"">+</div>","null",""
"","","","","","html-button-response","93","244434","0.0-4.0-1.44","84","1","2022-10-09 11:27:12","ebf9627b049f568eb4bf28942cb89901","111.18.65.51","Mozilla/5.0 (iPad; CPU OS 14_2 like Mac OS X) AppleWebKit/605.1.15 (KHTML, like Gecko) Mobile/15E148 MicroMessenger/8.0.29(0x18001d2c) NetType/WIFI Language/zh_CN","iPad","Mozilla","","iOS","14_2","1068","<p>作为军队的指挥官，你可以选择发射导弹杀死 <strong>7名</strong> 敌国士兵，但会误杀附近的 <strong>1名</strong> 敌国平民。</p> <p>平民照片如下图所示。</p> <p></p> <img src='stimuli/faces/NFM6.jpg', style='max-width: 30%;'> </img> <p><strong>你是否选择发射武器？</strong></p>","0",""
"","","","","","html-keyboard-response","94","245443","0.0-4.0-0.45","84","1","2022-10-09 11:27:12","ebf9627b049f568eb4bf28942cb89901","111.18.65.51","Mozilla/5.0 (iPad; CPU OS 14_2 like Mac OS X) AppleWebKit/605.1.15 (KHTML, like Gecko) Mobile/15E148 MicroMessenger/8.0.29(0x18001d2c) NetType/WIFI Language/zh_CN","iPad","Mozilla","","iOS","14_2","null","<div style=""font-size:60px;"">+</div>","null",""
"","","","","","html-button-response","95","246434","0.0-4.0-1.45","84","1","2022-10-09 11:27:12","ebf9627b049f568eb4bf28942cb89901","111.18.65.51","Mozilla/5.0 (iPad; CPU OS 14_2 like Mac OS X) AppleWebKit/605.1.15 (KHTML, like Gecko) Mobile/15E148 MicroMessenger/8.0.29(0x18001d2c) NetType/WIFI Language/zh_CN","iPad","Mozilla","","iOS","14_2","971","<p>作为军队的指挥官，你可以选择发射导弹杀死 <strong>9名</strong> 敌国士兵，但会误杀附近的 <strong>1名</strong> 敌国平民。</p> <p>平民照片如下图所示。</p> <p></p> <img src='stimuli/faces/NFM8.jpg', style='max-width: 30%;'> </img> <p><strong>你是否选择发射武器？</strong></p>","0",""
"","","","","","html-keyboard-response","96","247444","0.0-4.0-0.46","84","1","2022-10-09 11:27:12","ebf9627b049f568eb4bf28942cb89901","111.18.65.51","Mozilla/5.0 (iPad; CPU OS 14_2 like Mac OS X) AppleWebKit/605.1.15 (KHTML, like Gecko) Mobile/15E148 MicroMessenger/8.0.29(0x18001d2c) NetType/WIFI Language/zh_CN","iPad","Mozilla","","iOS","14_2","null","<div style=""font-size:60px;"">+</div>","null",""
"","","","","","html-button-response","97","250019","0.0-4.0-1.46","84","1","2022-10-09 11:27:12","ebf9627b049f568eb4bf28942cb89901","111.18.65.51","Mozilla/5.0 (iPad; CPU OS 14_2 like Mac OS X) AppleWebKit/605.1.15 (KHTML, like Gecko) Mobile/15E148 MicroMessenger/8.0.29(0x18001d2c) NetType/WIFI Language/zh_CN","iPad","Mozilla","","iOS","14_2","2557","<p>作为军队的指挥官，你可以选择发射导弹杀死 <strong>3名</strong> 敌国士兵，但会误杀附近的 <strong>1名</strong> 敌国平民。</p> <p>平民照片如下图所示。</p> <p></p> <img src='stimuli/faces/NFF4.jpg', style='max-width: 30%;'> </img> <p><strong>你是否选择发射武器？</strong></p>","0",""
"","","","","","html-keyboard-response","98","251028","0.0-4.0-0.47","84","1","2022-10-09 11:27:12","ebf9627b049f568eb4bf28942cb89901","111.18.65.51","Mozilla/5.0 (iPad; CPU OS 14_2 like Mac OS X) AppleWebKit/605.1.15 (KHTML, like Gecko) Mobile/15E148 MicroMessenger/8.0.29(0x18001d2c) NetType/WIFI Language/zh_CN","iPad","Mozilla","","iOS","14_2","null","<div style=""font-size:60px;"">+</div>","null",""
"","","","","","html-button-response","99","252201","0.0-4.0-1.47","84","1","2022-10-09 11:27:12","ebf9627b049f568eb4bf28942cb89901","111.18.65.51","Mozilla/5.0 (iPad; CPU OS 14_2 like Mac OS X) AppleWebKit/605.1.15 (KHTML, like Gecko) Mobile/15E148 MicroMessenger/8.0.29(0x18001d2c) NetType/WIFI Language/zh_CN","iPad","Mozilla","","iOS","14_2","1153","<p>作为军队的指挥官，你可以选择发射导弹杀死 <strong>10名</strong> 敌国士兵，但会炸毁附近的 <strong>1棵</strong> 敌国树木。</p> <p>树木的照片如下图所示。</p> <p></p> <img src='stimuli/trees/11.png', style='max-width: 30%;'> </img> <p><strong>你是否选择发射武器？</strong></p>","0",""
"","","","","","html-keyboard-response","100","253212","0.0-4.0-0.48","84","1","2022-10-09 11:27:12","ebf9627b049f568eb4bf28942cb89901","111.18.65.51","Mozilla/5.0 (iPad; CPU OS 14_2 like Mac OS X) AppleWebKit/605.1.15 (KHTML, like Gecko) Mobile/15E148 MicroMessenger/8.0.29(0x18001d2c) NetType/WIFI Language/zh_CN","iPad","Mozilla","","iOS","14_2","null","<div style=""font-size:60px;"">+</div>","null",""
"","","","","","html-button-response","101","254210","0.0-4.0-1.48","84","1","2022-10-09 11:27:12","ebf9627b049f568eb4bf28942cb89901","111.18.65.51","Mozilla/5.0 (iPad; CPU OS 14_2 like Mac OS X) AppleWebKit/605.1.15 (KHTML, like Gecko) Mobile/15E148 MicroMessenger/8.0.29(0x18001d2c) NetType/WIFI Language/zh_CN","iPad","Mozilla","","iOS","14_2","968","<p>作为军队的指挥官，你可以选择发射导弹杀死 <strong>8名</strong> 敌国士兵，但会误杀附近的 <strong>1名</strong> 敌国平民。</p> <p>平民照片如下图所示。</p> <p></p> <img src='stimuli/faces/NFM5.jpg', style='max-width: 30%;'> </img> <p><strong>你是否选择发射武器？</strong></p>","0",""
"","","","","","html-keyboard-response","102","255221","0.0-4.0-0.49","84","1","2022-10-09 11:27:12","ebf9627b049f568eb4bf28942cb89901","111.18.65.51","Mozilla/5.0 (iPad; CPU OS 14_2 like Mac OS X) AppleWebKit/605.1.15 (KHTML, like Gecko) Mobile/15E148 MicroMessenger/8.0.29(0x18001d2c) NetType/WIFI Language/zh_CN","iPad","Mozilla","","iOS","14_2","null","<div style=""font-size:60px;"">+</div>","null",""
"","","","","","html-button-response","103","259068","0.0-4.0-1.49","84","1","2022-10-09 11:27:12","ebf9627b049f568eb4bf28942cb89901","111.18.65.51","Mozilla/5.0 (iPad; CPU OS 14_2 like Mac OS X) AppleWebKit/605.1.15 (KHTML, like Gecko) Mobile/15E148 MicroMessenger/8.0.29(0x18001d2c) NetType/WIFI Language/zh_CN","iPad","Mozilla","","iOS","14_2","3827","<p>作为军队的指挥官，你可以选择发射导弹杀死 <strong>1名</strong> 敌国士兵，但会误杀附近的 <strong>1名</strong> 敌国平民。</p> <p>平民照片如下图所示。</p> <p></p> <img src='stimuli/faces/NFM5.jpg', style='max-width: 30%;'> </img> <p><strong>你是否选择发射武器？</strong></p>","1",""
"","","","","","html-keyboard-response","104","260078","0.0-4.0-0.50","84","1","2022-10-09 11:27:12","ebf9627b049f568eb4bf28942cb89901","111.18.65.51","Mozilla/5.0 (iPad; CPU OS 14_2 like Mac OS X) AppleWebKit/605.1.15 (KHTML, like Gecko) Mobile/15E148 MicroMessenger/8.0.29(0x18001d2c) NetType/WIFI Language/zh_CN","iPad","Mozilla","","iOS","14_2","null","<div style=""font-size:60px;"">+</div>","null",""
"","","","","","html-button-response","105","261322","0.0-4.0-1.50","84","1","2022-10-09 11:27:12","ebf9627b049f568eb4bf28942cb89901","111.18.65.51","Mozilla/5.0 (iPad; CPU OS 14_2 like Mac OS X) AppleWebKit/605.1.15 (KHTML, like Gecko) Mobile/15E148 MicroMessenger/8.0.29(0x18001d2c) NetType/WIFI Language/zh_CN","iPad","Mozilla","","iOS","14_2","1223","<p>作为军队的指挥官，你可以选择发射导弹杀死 <strong>9名</strong> 敌国士兵，但会炸毁附近的 <strong>1棵</strong> 敌国树木。</p> <p>树木的照片如下图所示。</p> <p></p> <img src='stimuli/trees/5.png', style='max-width: 30%;'> </img> <p><strong>你是否选择发射武器？</strong></p>","0",""
"","","","","","html-keyboard-response","106","262332","0.0-4.0-0.51","84","1","2022-10-09 11:27:12","ebf9627b049f568eb4bf28942cb89901","111.18.65.51","Mozilla/5.0 (iPad; CPU OS 14_2 like Mac OS X) AppleWebKit/605.1.15 (KHTML, like Gecko) Mobile/15E148 MicroMessenger/8.0.29(0x18001d2c) NetType/WIFI Language/zh_CN","iPad","Mozilla","","iOS","14_2","null","<div style=""font-size:60px;"">+</div>","null",""
"","","","","","html-button-response","107","263419","0.0-4.0-1.51","84","1","2022-10-09 11:27:12","ebf9627b049f568eb4bf28942cb89901","111.18.65.51","Mozilla/5.0 (iPad; CPU OS 14_2 like Mac OS X) AppleWebKit/605.1.15 (KHTML, like Gecko) Mobile/15E148 MicroMessenger/8.0.29(0x18001d2c) NetType/WIFI Language/zh_CN","iPad","Mozilla","","iOS","14_2","1067","<p>作为军队的指挥官，你可以选择发射导弹杀死 <strong>4名</strong> 敌国士兵，但会炸毁附近的 <strong>1棵</strong> 敌国树木。</p> <p>树木的照片如下图所示。</p> <p></p> <img src='stimuli/trees/7.png', style='max-width: 30%;'> </img> <p><strong>你是否选择发射武器？</strong></p>","0",""
"","","","","","html-keyboard-response","108","264430","0.0-4.0-0.52","84","1","2022-10-09 11:27:12","ebf9627b049f568eb4bf28942cb89901","111.18.65.51","Mozilla/5.0 (iPad; CPU OS 14_2 like Mac OS X) AppleWebKit/605.1.15 (KHTML, like Gecko) Mobile/15E148 MicroMessenger/8.0.29(0x18001d2c) NetType/WIFI Language/zh_CN","iPad","Mozilla","","iOS","14_2","null","<div style=""font-size:60px;"">+</div>","null",""
"","","","","","html-button-response","109","265402","0.0-4.0-1.52","84","1","2022-10-09 11:27:12","ebf9627b049f568eb4bf28942cb89901","111.18.65.51","Mozilla/5.0 (iPad; CPU OS 14_2 like Mac OS X) AppleWebKit/605.1.15 (KHTML, like Gecko) Mobile/15E148 MicroMessenger/8.0.29(0x18001d2c) NetType/WIFI Language/zh_CN","iPad","Mozilla","","iOS","14_2","943","<p>作为军队的指挥官，你可以选择发射导弹杀死 <strong>5名</strong> 敌国士兵，但会误杀附近的 <strong>1名</strong> 敌国平民。</p> <p>平民照片如下图所示。</p> <p></p> <img src='stimuli/faces/NFF6.jpg', style='max-width: 30%;'> </img> <p><strong>你是否选择发射武器？</strong></p>","0",""
"","","","","","html-keyboard-response","110","266413","0.0-4.0-0.53","84","1","2022-10-09 11:27:12","ebf9627b049f568eb4bf28942cb89901","111.18.65.51","Mozilla/5.0 (iPad; CPU OS 14_2 like Mac OS X) AppleWebKit/605.1.15 (KHTML, like Gecko) Mobile/15E148 MicroMessenger/8.0.29(0x18001d2c) NetType/WIFI Language/zh_CN","iPad","Mozilla","","iOS","14_2","null","<div style=""font-size:60px;"">+</div>","null",""
"","","","","","html-button-response","111","267428","0.0-4.0-1.53","84","1","2022-10-09 11:27:12","ebf9627b049f568eb4bf28942cb89901","111.18.65.51","Mozilla/5.0 (iPad; CPU OS 14_2 like Mac OS X) AppleWebKit/605.1.15 (KHTML, like Gecko) Mobile/15E148 MicroMessenger/8.0.29(0x18001d2c) NetType/WIFI Language/zh_CN","iPad","Mozilla","","iOS","14_2","997","<p>作为军队的指挥官，你可以选择发射导弹杀死 <strong>5名</strong> 敌国士兵，但会炸毁附近的 <strong>1棵</strong> 敌国树木。</p> <p>树木的照片如下图所示。</p> <p></p> <img src='stimuli/trees/15.png', style='max-width: 30%;'> </img> <p><strong>你是否选择发射武器？</strong></p>","0",""
"","","","","","html-keyboard-response","112","268438","0.0-4.0-0.54","84","1","2022-10-09 11:27:12","ebf9627b049f568eb4bf28942cb89901","111.18.65.51","Mozilla/5.0 (iPad; CPU OS 14_2 like Mac OS X) AppleWebKit/605.1.15 (KHTML, like Gecko) Mobile/15E148 MicroMessenger/8.0.29(0x18001d2c) NetType/WIFI Language/zh_CN","iPad","Mozilla","","iOS","14_2","null","<div style=""font-size:60px;"">+</div>","null",""
"","","","","","html-button-response","113","269487","0.0-4.0-1.54","84","1","2022-10-09 11:27:12","ebf9627b049f568eb4bf28942cb89901","111.18.65.51","Mozilla/5.0 (iPad; CPU OS 14_2 like Mac OS X) AppleWebKit/605.1.15 (KHTML, like Gecko) Mobile/15E148 MicroMessenger/8.0.29(0x18001d2c) NetType/WIFI Language/zh_CN","iPad","Mozilla","","iOS","14_2","1028","<p>作为军队的指挥官，你可以选择发射导弹杀死 <strong>7名</strong> 敌国士兵，但会炸毁附近的 <strong>1棵</strong> 敌国树木。</p> <p>树木的照片如下图所示。</p> <p></p> <img src='stimuli/trees/3.png', style='max-width: 30%;'> </img> <p><strong>你是否选择发射武器？</strong></p>","0",""
"","","","","","html-keyboard-response","114","270497","0.0-4.0-0.55","84","1","2022-10-09 11:27:12","ebf9627b049f568eb4bf28942cb89901","111.18.65.51","Mozilla/5.0 (iPad; CPU OS 14_2 like Mac OS X) AppleWebKit/605.1.15 (KHTML, like Gecko) Mobile/15E148 MicroMessenger/8.0.29(0x18001d2c) NetType/WIFI Language/zh_CN","iPad","Mozilla","","iOS","14_2","null","<div style=""font-size:60px;"">+</div>","null",""
"","","","","","html-button-response","115","271359","0.0-4.0-1.55","84","1","2022-10-09 11:27:12","ebf9627b049f568eb4bf28942cb89901","111.18.65.51","Mozilla/5.0 (iPad; CPU OS 14_2 like Mac OS X) AppleWebKit/605.1.15 (KHTML, like Gecko) Mobile/15E148 MicroMessenger/8.0.29(0x18001d2c) NetType/WIFI Language/zh_CN","iPad","Mozilla","","iOS","14_2","842","<p>作为军队的指挥官，你可以选择发射导弹杀死 <strong>9名</strong> 敌国士兵，但会误杀附近的 <strong>1名</strong> 敌国平民。</p> <p>平民照片如下图所示。</p> <p></p> <img src='stimuli/faces/NFF5.jpg', style='max-width: 30%;'> </img> <p><strong>你是否选择发射武器？</strong></p>","0",""
"","","","","","html-keyboard-response","116","272367","0.0-4.0-0.56","84","1","2022-10-09 11:27:12","ebf9627b049f568eb4bf28942cb89901","111.18.65.51","Mozilla/5.0 (iPad; CPU OS 14_2 like Mac OS X) AppleWebKit/605.1.15 (KHTML, like Gecko) Mobile/15E148 MicroMessenger/8.0.29(0x18001d2c) NetType/WIFI Language/zh_CN","iPad","Mozilla","","iOS","14_2","null","<div style=""font-size:60px;"">+</div>","null",""
"","","","","","html-button-response","117","273223","0.0-4.0-1.56","84","1","2022-10-09 11:27:12","ebf9627b049f568eb4bf28942cb89901","111.18.65.51","Mozilla/5.0 (iPad; CPU OS 14_2 like Mac OS X) AppleWebKit/605.1.15 (KHTML, like Gecko) Mobile/15E148 MicroMessenger/8.0.29(0x18001d2c) NetType/WIFI Language/zh_CN","iPad","Mozilla","","iOS","14_2","833","<p>作为军队的指挥官，你可以选择发射导弹杀死 <strong>6名</strong> 敌国士兵，但会误杀附近的 <strong>1名</strong> 敌国平民。</p> <p>平民照片如下图所示。</p> <p></p> <img src='stimuli/faces/NFF4.jpg', style='max-width: 30%;'> </img> <p><strong>你是否选择发射武器？</strong></p>","0",""
"","","","","","html-keyboard-response","118","274233","0.0-4.0-0.57","84","1","2022-10-09 11:27:12","ebf9627b049f568eb4bf28942cb89901","111.18.65.51","Mozilla/5.0 (iPad; CPU OS 14_2 like Mac OS X) AppleWebKit/605.1.15 (KHTML, like Gecko) Mobile/15E148 MicroMessenger/8.0.29(0x18001d2c) NetType/WIFI Language/zh_CN","iPad","Mozilla","","iOS","14_2","null","<div style=""font-size:60px;"">+</div>","null",""
"","","","","","html-button-response","119","275202","0.0-4.0-1.57","84","1","2022-10-09 11:27:12","ebf9627b049f568eb4bf28942cb89901","111.18.65.51","Mozilla/5.0 (iPad; CPU OS 14_2 like Mac OS X) AppleWebKit/605.1.15 (KHTML, like Gecko) Mobile/15E148 MicroMessenger/8.0.29(0x18001d2c) NetType/WIFI Language/zh_CN","iPad","Mozilla","","iOS","14_2","947","<p>作为军队的指挥官，你可以选择发射导弹杀死 <strong>6名</strong> 敌国士兵，但会误杀附近的 <strong>1名</strong> 敌国平民。</p> <p>平民照片如下图所示。</p> <p></p> <img src='stimuli/faces/NFF8.jpg', style='max-width: 30%;'> </img> <p><strong>你是否选择发射武器？</strong></p>","0",""
"","","","","","html-keyboard-response","120","276212","0.0-4.0-0.58","84","1","2022-10-09 11:27:12","ebf9627b049f568eb4bf28942cb89901","111.18.65.51","Mozilla/5.0 (iPad; CPU OS 14_2 like Mac OS X) AppleWebKit/605.1.15 (KHTML, like Gecko) Mobile/15E148 MicroMessenger/8.0.29(0x18001d2c) NetType/WIFI Language/zh_CN","iPad","Mozilla","","iOS","14_2","null","<div style=""font-size:60px;"">+</div>","null",""
"","","","","","html-button-response","121","277535","0.0-4.0-1.58","84","1","2022-10-09 11:27:12","ebf9627b049f568eb4bf28942cb89901","111.18.65.51","Mozilla/5.0 (iPad; CPU OS 14_2 like Mac OS X) AppleWebKit/605.1.15 (KHTML, like Gecko) Mobile/15E148 MicroMessenger/8.0.29(0x18001d2c) NetType/WIFI Language/zh_CN","iPad","Mozilla","","iOS","14_2","1302","<p>作为军队的指挥官，你可以选择发射导弹杀死 <strong>2名</strong> 敌国士兵，但会炸毁附近的 <strong>1棵</strong> 敌国树木。</p> <p>树木的照片如下图所示。</p> <p></p> <img src='stimuli/trees/3.png', style='max-width: 30%;'> </img> <p><strong>你是否选择发射武器？</strong></p>","0",""
"","","","","","html-keyboard-response","122","278549","0.0-4.0-0.59","84","1","2022-10-09 11:27:12","ebf9627b049f568eb4bf28942cb89901","111.18.65.51","Mozilla/5.0 (iPad; CPU OS 14_2 like Mac OS X) AppleWebKit/605.1.15 (KHTML, like Gecko) Mobile/15E148 MicroMessenger/8.0.29(0x18001d2c) NetType/WIFI Language/zh_CN","iPad","Mozilla","","iOS","14_2","null","<div style=""font-size:60px;"">+</div>","null",""
"","","","","","html-button-response","123","279511","0.0-4.0-1.59","84","1","2022-10-09 11:27:12","ebf9627b049f568eb4bf28942cb89901","111.18.65.51","Mozilla/5.0 (iPad; CPU OS 14_2 like Mac OS X) AppleWebKit/605.1.15 (KHTML, like Gecko) Mobile/15E148 MicroMessenger/8.0.29(0x18001d2c) NetType/WIFI Language/zh_CN","iPad","Mozilla","","iOS","14_2","944","<p>作为军队的指挥官，你可以选择发射导弹杀死 <strong>4名</strong> 敌国士兵，但会炸毁附近的 <strong>1棵</strong> 敌国树木。</p> <p>树木的照片如下图所示。</p> <p></p> <img src='stimuli/trees/4.png', style='max-width: 30%;'> </img> <p><strong>你是否选择发射武器？</strong></p>","0",""
"","","","","","html-keyboard-response","124","280523","0.0-4.0-0.60","84","1","2022-10-09 11:27:12","ebf9627b049f568eb4bf28942cb89901","111.18.65.51","Mozilla/5.0 (iPad; CPU OS 14_2 like Mac OS X) AppleWebKit/605.1.15 (KHTML, like Gecko) Mobile/15E148 MicroMessenger/8.0.29(0x18001d2c) NetType/WIFI Language/zh_CN","iPad","Mozilla","","iOS","14_2","null","<div style=""font-size:60px;"">+</div>","null",""
"","","","","","html-button-response","125","281562","0.0-4.0-1.60","84","1","2022-10-09 11:27:12","ebf9627b049f568eb4bf28942cb89901","111.18.65.51","Mozilla/5.0 (iPad; CPU OS 14_2 like Mac OS X) AppleWebKit/605.1.15 (KHTML, like Gecko) Mobile/15E148 MicroMessenger/8.0.29(0x18001d2c) NetType/WIFI Language/zh_CN","iPad","Mozilla","","iOS","14_2","1016","<p>作为军队的指挥官，你可以选择发射导弹杀死 <strong>9名</strong> 敌国士兵，但会炸毁附近的 <strong>1棵</strong> 敌国树木。</p> <p>树木的照片如下图所示。</p> <p></p> <img src='stimuli/trees/9.png', style='max-width: 30%;'> </img> <p><strong>你是否选择发射武器？</strong></p>","0",""
"","","","","","html-keyboard-response","126","282571","0.0-4.0-0.61","84","1","2022-10-09 11:27:12","ebf9627b049f568eb4bf28942cb89901","111.18.65.51","Mozilla/5.0 (iPad; CPU OS 14_2 like Mac OS X) AppleWebKit/605.1.15 (KHTML, like Gecko) Mobile/15E148 MicroMessenger/8.0.29(0x18001d2c) NetType/WIFI Language/zh_CN","iPad","Mozilla","","iOS","14_2","null","<div style=""font-size:60px;"">+</div>","null",""
"","","","","","html-button-response","127","283547","0.0-4.0-1.61","84","1","2022-10-09 11:27:12","ebf9627b049f568eb4bf28942cb89901","111.18.65.51","Mozilla/5.0 (iPad; CPU OS 14_2 like Mac OS X) AppleWebKit/605.1.15 (KHTML, like Gecko) Mobile/15E148 MicroMessenger/8.0.29(0x18001d2c) NetType/WIFI Language/zh_CN","iPad","Mozilla","","iOS","14_2","946","<p>作为军队的指挥官，你可以选择发射导弹杀死 <strong>6名</strong> 敌国士兵，但会炸毁附近的 <strong>1棵</strong> 敌国树木。</p> <p>树木的照片如下图所示。</p> <p></p> <img src='stimuli/trees/2.png', style='max-width: 30%;'> </img> <p><strong>你是否选择发射武器？</strong></p>","0",""
"","","","","","html-keyboard-response","128","284556","0.0-4.0-0.62","84","1","2022-10-09 11:27:12","ebf9627b049f568eb4bf28942cb89901","111.18.65.51","Mozilla/5.0 (iPad; CPU OS 14_2 like Mac OS X) AppleWebKit/605.1.15 (KHTML, like Gecko) Mobile/15E148 MicroMessenger/8.0.29(0x18001d2c) NetType/WIFI Language/zh_CN","iPad","Mozilla","","iOS","14_2","null","<div style=""font-size:60px;"">+</div>","null",""
"","","","","","html-button-response","129","285435","0.0-4.0-1.62","84","1","2022-10-09 11:27:12","ebf9627b049f568eb4bf28942cb89901","111.18.65.51","Mozilla/5.0 (iPad; CPU OS 14_2 like Mac OS X) AppleWebKit/605.1.15 (KHTML, like Gecko) Mobile/15E148 MicroMessenger/8.0.29(0x18001d2c) NetType/WIFI Language/zh_CN","iPad","Mozilla","","iOS","14_2","855","<p>作为军队的指挥官，你可以选择发射导弹杀死 <strong>4名</strong> 敌国士兵，但会炸毁附近的 <strong>1棵</strong> 敌国树木。</p> <p>树木的照片如下图所示。</p> <p></p> <img src='stimuli/trees/1.png', style='max-width: 30%;'> </img> <p><strong>你是否选择发射武器？</strong></p>","0",""
"","","","","","html-keyboard-response","130","286444","0.0-4.0-0.63","84","1","2022-10-09 11:27:12","ebf9627b049f568eb4bf28942cb89901","111.18.65.51","Mozilla/5.0 (iPad; CPU OS 14_2 like Mac OS X) AppleWebKit/605.1.15 (KHTML, like Gecko) Mobile/15E148 MicroMessenger/8.0.29(0x18001d2c) NetType/WIFI Language/zh_CN","iPad","Mozilla","","iOS","14_2","null","<div style=""font-size:60px;"">+</div>","null",""
"","","","","","html-button-response","131","287389","0.0-4.0-1.63","84","1","2022-10-09 11:27:12","ebf9627b049f568eb4bf28942cb89901","111.18.65.51","Mozilla/5.0 (iPad; CPU OS 14_2 like Mac OS X) AppleWebKit/605.1.15 (KHTML, like Gecko) Mobile/15E148 MicroMessenger/8.0.29(0x18001d2c) NetType/WIFI Language/zh_CN","iPad","Mozilla","","iOS","14_2","915","<p>作为军队的指挥官，你可以选择发射导弹杀死 <strong>6名</strong> 敌国士兵，但会炸毁附近的 <strong>1棵</strong> 敌国树木。</p> <p>树木的照片如下图所示。</p> <p></p> <img src='stimuli/trees/16.png', style='max-width: 30%;'> </img> <p><strong>你是否选择发射武器？</strong></p>","0",""
"","","","","","survey-multi-choice","132","309516","0.0-5.0","84","1","2022-10-09 11:27:12","ebf9627b049f568eb4bf28942cb89901","111.18.65.51","Mozilla/5.0 (iPad; CPU OS 14_2 like Mac OS X) AppleWebKit/605.1.15 (KHTML, like Gecko) Mobile/15E148 MicroMessenger/8.0.29(0x18001d2c) NetType/WIFI Language/zh_CN","iPad","Mozilla","","iOS","14_2","22092","","{""Attention1"":""""}","[0]"
"","","","","","html-button-response","133","324343","0.0-6.0","84","1","2022-10-09 11:27:12","ebf9627b049f568eb4bf28942cb89901","111.18.65.51","Mozilla/5.0 (iPad; CPU OS 14_2 like Mac OS X) AppleWebKit/605.1.15 (KHTML, like Gecko) Mobile/15E148 MicroMessenger/8.0.29(0x18001d2c) NetType/WIFI Language/zh_CN","iPad","Mozilla","","iOS","14_2","14815","<p style=""font-size:20px;font-weight:bold;"">恭喜！</p><p>你已经完成了实验的第一部分。</p><p>请休息放松一下，然后进入第二部分。</p><p>这部分大约需要10分钟。</p>","0",""
"","","","","","survey-text","134","349697","0.0-7.0","84","1","2022-10-09 11:27:12","ebf9627b049f568eb4bf28942cb89901","111.18.65.51","Mozilla/5.0 (iPad; CPU OS 14_2 like Mac OS X) AppleWebKit/605.1.15 (KHTML, like Gecko) Mobile/15E148 MicroMessenger/8.0.29(0x18001d2c) NetType/WIFI Language/zh_CN","iPad","Mozilla","","iOS","14_2","24298","","{""Age"":""19"",""Nation"":""中国"",""Born"":""陕西"",""Live"":""陕西"",""Ethnic"":""汉族"",""Alipay"":""18729755314""}",""
"","","","","","survey-multi-choice","135","399015","0.0-8.0","84","1","2022-10-09 11:27:12","ebf9627b049f568eb4bf28942cb89901","111.18.65.51","Mozilla/5.0 (iPad; CPU OS 14_2 like Mac OS X) AppleWebKit/605.1.15 (KHTML, like Gecko) Mobile/15E148 MicroMessenger/8.0.29(0x18001d2c) NetType/WIFI Language/zh_CN","iPad","Mozilla","","iOS","14_2","49298","","{""Gender"":""女"",""Education"":""高中毕业"",""Income"":""￥140,000-￥269,999"",""Children"":""0"",""Race"":""亚洲人""}","[0,1,2,3,4]"
"","","","","","survey-multi-select","136","410298","0.0-9.0","84","1","2022-10-09 11:27:12","ebf9627b049f568eb4bf28942cb89901","111.18.65.51","Mozilla/5.0 (iPad; CPU OS 14_2 like Mac OS X) AppleWebKit/605.1.15 (KHTML, like Gecko) Mobile/15E148 MicroMessenger/8.0.29(0x18001d2c) NetType/WIFI Language/zh_CN","iPad","Mozilla","","iOS","14_2","11252","","{""Marriage"":[""未婚""],""Religion"":[""佛教""]}","[0,1]"
"","","","","","survey-multi-choice","137","421618","0.0-10.0","84","1","2022-10-09 11:27:12","ebf9627b049f568eb4bf28942cb89901","111.18.65.51","Mozilla/5.0 (iPad; CPU OS 14_2 like Mac OS X) AppleWebKit/605.1.15 (KHTML, like Gecko) Mobile/15E148 MicroMessenger/8.0.29(0x18001d2c) NetType/WIFI Language/zh_CN","iPad","Mozilla","","iOS","14_2","11306","","{""SES"":""3""}","[0]"
"","","","","","html-button-response","138","423578","0.0-11.0","84","1","2022-10-09 11:27:12","ebf9627b049f568eb4bf28942cb89901","111.18.65.51","Mozilla/5.0 (iPad; CPU OS 14_2 like Mac OS X) AppleWebKit/605.1.15 (KHTML, like Gecko) Mobile/15E148 MicroMessenger/8.0.29(0x18001d2c) NetType/WIFI Language/zh_CN","iPad","Mozilla","","iOS","14_2","1949","<p><strong>请判断下列陈述在多大程度上可以形容你？</p><p> (1 = ""和我一点都不像"" to 5 = ""非常像我"".)</strong></p>","0",""
"","","","","","survey-likert","139","516914","0.0-12.0","84","1","2022-10-09 11:27:12","ebf9627b049f568eb4bf28942cb89901","111.18.65.51","Mozilla/5.0 (iPad; CPU OS 14_2 like Mac OS X) AppleWebKit/605.1.15 (KHTML, like Gecko) Mobile/15E148 MicroMessenger/8.0.29(0x18001d2c) NetType/WIFI Language/zh_CN","iPad","Mozilla","","iOS","14_2","93315","","{""Aggression1"":1,""Aggression2"":1,""Aggression3"":3,""Aggression4"":0,""Aggression5"":2,""Aggression6"":3,""Aggression7"":1,""Aggression8"":1,""Aggression9"":3}","[0,1,2,3,4,5,6,7,8]"
"","","","","","html-button-response","140","518238","0.0-13.0","84","1","2022-10-09 11:27:12","ebf9627b049f568eb4bf28942cb89901","111.18.65.51","Mozilla/5.0 (iPad; CPU OS 14_2 like Mac OS X) AppleWebKit/605.1.15 (KHTML, like Gecko) Mobile/15E148 MicroMessenger/8.0.29(0x18001d2c) NetType/WIFI Language/zh_CN","iPad","Mozilla","","iOS","14_2","1309","<p><strong>请判断你在多大程度上同意下列陈述。</strong></p>","0",""
"","","","","","survey-likert","141","676625","0.0-14.0","84","1","2022-10-09 11:27:12","ebf9627b049f568eb4bf28942cb89901","111.18.65.51","Mozilla/5.0 (iPad; CPU OS 14_2 like Mac OS X) AppleWebKit/605.1.15 (KHTML, like Gecko) Mobile/15E148 MicroMessenger/8.0.29(0x18001d2c) NetType/WIFI Language/zh_CN","iPad","Mozilla","","iOS","14_2","158355","","{""scale23"":2,""scale3"":1,""scale17"":3,""scale9"":2,""scale8"":3,""scale28"":3,""scale16"":2,""scale27"":1,""scale12"":0,""scale26"":3,""scale22"":3,""scale24"":2,""scale2"":3,""scale10"":3,""scale5"":3,""scale11"":3,""scale20"":3,""scale21"":3,""scale7"":2,""scale13"":2,""scale18"":2,""scale14"":3,""scale19"":2,""scale4"":2,""scale1"":3,""scale25"":2,""scale15"":1,""scale6"":3}","[22,2,16,8,7,27,15,26,11,25,21,23,1,9,4,10,19,20,6,12,17,13,18,3,0,24,14,5]"
"","","","","","html-button-response","142","677819","0.0-15.0","84","1","2022-10-09 11:27:12","ebf9627b049f568eb4bf28942cb89901","111.18.65.51","Mozilla/5.0 (iPad; CPU OS 14_2 like Mac OS X) AppleWebKit/605.1.15 (KHTML, like Gecko) Mobile/15E148 MicroMessenger/8.0.29(0x18001d2c) NetType/WIFI Language/zh_CN","iPad","Mozilla","","iOS","14_2","1156","<p><strong>请判断你在多大程度上同意下列陈述。</strong></p>","0",""
"","","","","","survey-likert","143","769433","0.0-16.0","84","1","2022-10-09 11:27:12","ebf9627b049f568eb4bf28942cb89901","111.18.65.51","Mozilla/5.0 (iPad; CPU OS 14_2 like Mac OS X) AppleWebKit/605.1.15 (KHTML, like Gecko) Mobile/15E148 MicroMessenger/8.0.29(0x18001d2c) NetType/WIFI Language/zh_CN","iPad","Mozilla","","iOS","14_2","91586","","{""sdo7"":1,""sdo16"":5,""sdo6"":4,""sdo9"":2,""sdo11"":4,""sdo8"":3,""sdo3"":4,""sdo10"":3,""sdo4"":4,""sdo1"":4,""sdo15"":3,""sdo14"":3,""sdo12"":4,""sdo13"":5,""sdo5"":3,""sdo2"":4}","[6,15,5,8,10,7,2,9,3,0,14,13,11,12,4,1]"
"","","","","","html-button-response","144","770455","0.0-17.0","84","1","2022-10-09 11:27:12","ebf9627b049f568eb4bf28942cb89901","111.18.65.51","Mozilla/5.0 (iPad; CPU OS 14_2 like Mac OS X) AppleWebKit/605.1.15 (KHTML, like Gecko) Mobile/15E148 MicroMessenger/8.0.29(0x18001d2c) NetType/WIFI Language/zh_CN","iPad","Mozilla","","iOS","14_2","1008","<p><strong>请判断你在多大程度上同意下列陈述。</strong></p>","0",""
"","","","","","survey-likert","145","837780","0.0-18.0","84","1","2022-10-09 11:27:12","ebf9627b049f568eb4bf28942cb89901","111.18.65.51","Mozilla/5.0 (iPad; CPU OS 14_2 like Mac OS X) AppleWebKit/605.1.15 (KHTML, like Gecko) Mobile/15E148 MicroMessenger/8.0.29(0x18001d2c) NetType/WIFI Language/zh_CN","iPad","Mozilla","","iOS","14_2","67190","","{""caring1"":2,""liking1"":3,""caring2"":3,""protection1"":1,""liking2"":2,""caring3"":2,""protection2"":0,""liking3"":2,""protection3"":3,""caring4"":3,""liking4"":3,""protection4"":2,""caring5"":2,""liking5"":2,""protection5"":1}","[0,1,2,3,4,5,6,7,8,9,10,11,12,13,14]"
"","","","","","html-button-response","146","840093","0.0-19.0","84","1","2022-10-09 11:27:12","ebf9627b049f568eb4bf28942cb89901","111.18.65.51","Mozilla/5.0 (iPad; CPU OS 14_2 like Mac OS X) AppleWebKit/605.1.15 (KHTML, like Gecko) Mobile/15E148 MicroMessenger/8.0.29(0x18001d2c) NetType/WIFI Language/zh_CN","iPad","Mozilla","","iOS","14_2","2300","<p><strong>请判断下列场景中你的内心感受有多柔软。</strong></p>","0",""
"","","","","","survey-likert","147","884102","0.0-20.0","84","1","2022-10-09 11:27:12","ebf9627b049f568eb4bf28942cb89901","111.18.65.51","Mozilla/5.0 (iPad; CPU OS 14_2 like Mac OS X) AppleWebKit/605.1.15 (KHTML, like Gecko) Mobile/15E148 MicroMessenger/8.0.29(0x18001d2c) NetType/WIFI Language/zh_CN","iPad","Mozilla","","iOS","14_2","43989","","{""tenderness-positive1"":3,""tenderness-negative1"":1,""tenderness-negative2"":0,""tenderness-positive2"":3,""tenderness-positive3"":3,""tenderness-negative3"":2,""tenderness-positive4"":3,""tendereness-negative4"":0,""tendernness-negative5"":1,""tenderness-positive5"":3}","[0,1,2,3,4,5,6,7,8,9]"
"","","","","","survey-multi-choice","148","892998","0.0-21.0","84","1","2022-10-09 11:27:12","ebf9627b049f568eb4bf28942cb89901","111.18.65.51","Mozilla/5.0 (iPad; CPU OS 14_2 like Mac OS X) AppleWebKit/605.1.15 (KHTML, like Gecko) Mobile/15E148 MicroMessenger/8.0.29(0x18001d2c) NetType/WIFI Language/zh_CN","iPad","Mozilla","","iOS","14_2","8880","","{""Attention2"":""其他""}","[0]"
"","","","","","html-button-response","149","893836","0.0-22.0","84","1","2022-10-09 11:27:12","ebf9627b049f568eb4bf28942cb89901","111.18.65.51","Mozilla/5.0 (iPad; CPU OS 14_2 like Mac OS X) AppleWebKit/605.1.15 (KHTML, like Gecko) Mobile/15E148 MicroMessenger/8.0.29(0x18001d2c) NetType/WIFI Language/zh_CN","iPad","Mozilla","","iOS","14_2","825","<p><strong>请判断你在多大程度上同意下列陈述。</strong></p>","0",""
"","","","","","survey-likert","150","1035379","0.0-23.0","84","1","2022-10-09 11:27:12","ebf9627b049f568eb4bf28942cb89901","111.18.65.51","Mozilla/5.0 (iPad; CPU OS 14_2 like Mac OS X) AppleWebKit/605.1.15 (KHTML, like Gecko) Mobile/15E148 MicroMessenger/8.0.29(0x18001d2c) NetType/WIFI Language/zh_CN","iPad","Mozilla","","iOS","14_2","141523","","{""Patri9"":1,""Nation5"":2,""Nation8"":1,""Nation3"":1,""Nation7"":3,""Patri10"":1,""Patri6"":1,""Patri1"":4,""Nation4"":0,""Patri5"":4,""Patri2"":4,""Patri7"":4,""Nation6"":1,""Patri11"":0,""Patri12"":3,""Nation1"":3,""Nation2"":4,""Patri4"":3,""Patri8"":4,""Patri3"":3}","[8,16,19,14,18,9,5,0,15,4,1,6,17,10,11,12,13,3,7,2]"
"","","","","","html-button-response","151","1036352","0.0-24.0","84","1","2022-10-09 11:27:12","ebf9627b049f568eb4bf28942cb89901","111.18.65.51","Mozilla/5.0 (iPad; CPU OS 14_2 like Mac OS X) AppleWebKit/605.1.15 (KHTML, like Gecko) Mobile/15E148 MicroMessenger/8.0.29(0x18001d2c) NetType/WIFI Language/zh_CN","iPad","Mozilla","","iOS","14_2","957","<p><strong>请判断你在多大程度上同意下列陈述。</strong></p>","0",""
"","","","","","survey-likert","152","1159170","0.0-25.0","84","1","2022-10-09 11:27:12","ebf9627b049f568eb4bf28942cb89901","111.18.65.51","Mozilla/5.0 (iPad; CPU OS 14_2 like Mac OS X) AppleWebKit/605.1.15 (KHTML, like Gecko) Mobile/15E148 MicroMessenger/8.0.29(0x18001d2c) NetType/WIFI Language/zh_CN","iPad","Mozilla","","iOS","14_2","122792","","{""vi3"":6,""hi3"":4,""hc3"":6,""hi1"":4,""Robot"":6,""vi2"":6,""vc4"":6,""hc2"":6,""vc1"":7,""hi4"":6,""hc1"":6,""hi2"":3,""vi4"":5,""hc4"":5,""vc3"":5,""vc2"":4,""vi1"":6}","[6,2,11,0,7,5,16,10,13,3,9,1,8,12,15,14,4]"
"","","","","","survey-text","153","1164272","0.0-26.0","84","1","2022-10-09 11:27:12","ebf9627b049f568eb4bf28942cb89901","111.18.65.51","Mozilla/5.0 (iPad; CPU OS 14_2 like Mac OS X) AppleWebKit/605.1.15 (KHTML, like Gecko) Mobile/15E148 MicroMessenger/8.0.29(0x18001d2c) NetType/WIFI Language/zh_CN","iPad","Mozilla","","iOS","14_2","5073","","{""Comments"":""无""}",""
"","","","","","html-button-response","154","1166726","0.0-27.0","84","1","2022-10-09 11:27:12","ebf9627b049f568eb4bf28942cb89901","111.18.65.51","Mozilla/5.0 (iPad; CPU OS 14_2 like Mac OS X) AppleWebKit/605.1.15 (KHTML, like Gecko) Mobile/15E148 MicroMessenger/8.0.29(0x18001d2c) NetType/WIFI Language/zh_CN","iPad","Mozilla","","iOS","14_2","2446","<strong><p>恭喜你完成了实验！</p><p>感谢您的参与。</p></strong>","0",""
