"success","timeout","failed_images","failed_audio","failed_video","trial_type","trial_index","time_elapsed","internal_node_id","run_id","condition","recorded_at","source_code_version","ip","user_agent","device","browser","browser_version","platform","platform_version","rt","stimulus","response","question_order"
"true","false","[]","[]","[]","preload","0","2583","0.0-0.0","85","1","2022-10-09 11:27:36","ebf9627b049f568eb4bf28942cb89901","218.63.129.125","Mozilla/5.0 (Windows NT 10.0; WOW64) AppleWebKit/537.36 (KHTML, like Gecko) Chrome/84.0.4147.89 Safari/537.36 SLBrowser/7.0.0.12151 SLBChan/105","WebKit","Chrome","84.0.4147.89","Windows","10.0","","","",""
"true","","","","","fullscreen","1","5638","0.0-1.0","85","1","2022-10-09 11:27:36","ebf9627b049f568eb4bf28942cb89901","218.63.129.125","Mozilla/5.0 (Windows NT 10.0; WOW64) AppleWebKit/537.36 (KHTML, like Gecko) Chrome/84.0.4147.89 Safari/537.36 SLBrowser/7.0.0.12151 SLBChan/105","WebKit","Chrome","84.0.4147.89","Windows","10.0","","","",""
"","","","","","html-button-response","2","32805","0.0-2.0","85","1","2022-10-09 11:27:36","ebf9627b049f568eb4bf28942cb89901","218.63.129.125","Mozilla/5.0 (Windows NT 10.0; WOW64) AppleWebKit/537.36 (KHTML, like Gecko) Chrome/84.0.4147.89 Safari/537.36 SLBrowser/7.0.0.12151 SLBChan/105","WebKit","Chrome","84.0.4147.89","Windows","10.0","27165","<p style=""font-size:20px;font-weight:bold;"">实验知情同意书</p><p style=""text-align:left;""><strong>实验名称：</strong>社会冲突研究</p><p style=""text-align:left;""><strong>主要研究者：</strong>韩晓春副教授（北京师范大学心理学部）</p><p style=""text-align:left;""><strong>联系方式：</strong>发送邮件至xiaochun.han@bnu.edu.cn</p><p style=""text-align:left;""><strong>研究目的：</strong>研究旨在了解人类面对群体冲突时的决策方式，以及相关的心理学特质。实验调查大约需要20分钟。</p><p style=""text-align:left;""><strong>实验流程：</strong>实验包含两部分。第一部分呈现一系列群体冲突场景，请你决定如何对这些冲突进行反应，大约需要10分钟完成。第二部分包含一系列人口统计学信息收集和心理学问卷，大约需要10分钟完成。</p><p style=""text-align:left;""><strong>参加及退出规则：</strong>参加本实验完全取决于您的个人意愿。在参与过程中，您可以随时退出，并且不用承担任何后果。</p><p style=""text-align:left;""><strong>隐私：</strong>本实验完全匿名进行，不会收集您的姓名或其他能够识别您身份的信息。实验中收集的作答仅用作科学研究使用，可能会在学术期刊/书籍上发表，或者用于教学，您的数据未来可能会和其他研究者或实验室分享，但您的个人身份不会被识别。</p><p style=""text-align:left;""><strong>实验报酬：</strong>实验完成后，您将获得15元人民币报酬，以感谢您的时间和努力。调查问卷中包含几道题目用以测验您作答时的认真度。只有完成全部实验，并且正确回答认真度测验的被试才能获得实验报酬。实验报酬将通过支付宝转账发放。</p><p style=""text-align:left;font-size:20px;""><strong>如果您同意以上实验知情同意书的内容，请点击'同意并且开始实验'按钮；否则请关闭浏览器界面，退出实验。</strong></p>","0",""
"","","","","","html-button-response","3","40881","0.0-3.0","85","1","2022-10-09 11:27:36","ebf9627b049f568eb4bf28942cb89901","218.63.129.125","Mozilla/5.0 (Windows NT 10.0; WOW64) AppleWebKit/537.36 (KHTML, like Gecko) Chrome/84.0.4147.89 Safari/537.36 SLBrowser/7.0.0.12151 SLBChan/105","WebKit","Chrome","84.0.4147.89","Windows","10.0","8074","<p ><strong>实验任务一：</strong></p><p>请想象你的国家与另一个国家发生了军事冲突。</p><p>你是国家军队的指挥官，你将如何在冲突中进行决策。</p><p>具体来说，作为军队指挥官，请你决定是否发射导弹进行打击。</p><p>接下来，你会面对一系列场景，请仔细阅读每个场景，然后进行决策。</p><p>这部分实验任务大约需要10分钟。</p><p><strong>实验过程中，请集中注意力。</strong></p>","0",""
"","","","","","html-keyboard-response","4","41894","0.0-4.0-0.0","85","1","2022-10-09 11:27:36","ebf9627b049f568eb4bf28942cb89901","218.63.129.125","Mozilla/5.0 (Windows NT 10.0; WOW64) AppleWebKit/537.36 (KHTML, like Gecko) Chrome/84.0.4147.89 Safari/537.36 SLBrowser/7.0.0.12151 SLBChan/105","WebKit","Chrome","84.0.4147.89","Windows","10.0","null","<div style=""font-size:60px;"">+</div>","null",""
"","","","","","html-button-response","5","47530","0.0-4.0-1.0","85","1","2022-10-09 11:27:36","ebf9627b049f568eb4bf28942cb89901","218.63.129.125","Mozilla/5.0 (Windows NT 10.0; WOW64) AppleWebKit/537.36 (KHTML, like Gecko) Chrome/84.0.4147.89 Safari/537.36 SLBrowser/7.0.0.12151 SLBChan/105","WebKit","Chrome","84.0.4147.89","Windows","10.0","5633","<p>作为军队的指挥官，你可以选择发射导弹杀死 <strong>9名</strong> 敌国士兵，但会炸毁附近的 <strong>1棵</strong> 敌国树木。</p> <p>树木的照片如下图所示。</p> <p></p> <img src='stimuli/trees/4.png', style='max-width: 30%;'> </img> <p><strong>你是否选择发射武器？</strong></p>","0",""
"","","","","","html-keyboard-response","6","48536","0.0-4.0-0.1","85","1","2022-10-09 11:27:36","ebf9627b049f568eb4bf28942cb89901","218.63.129.125","Mozilla/5.0 (Windows NT 10.0; WOW64) AppleWebKit/537.36 (KHTML, like Gecko) Chrome/84.0.4147.89 Safari/537.36 SLBrowser/7.0.0.12151 SLBChan/105","WebKit","Chrome","84.0.4147.89","Windows","10.0","null","<div style=""font-size:60px;"">+</div>","null",""
"","","","","","html-button-response","7","53035","0.0-4.0-1.1","85","1","2022-10-09 11:27:36","ebf9627b049f568eb4bf28942cb89901","218.63.129.125","Mozilla/5.0 (Windows NT 10.0; WOW64) AppleWebKit/537.36 (KHTML, like Gecko) Chrome/84.0.4147.89 Safari/537.36 SLBrowser/7.0.0.12151 SLBChan/105","WebKit","Chrome","84.0.4147.89","Windows","10.0","4497","<p>作为军队的指挥官，你可以选择发射导弹杀死 <strong>1名</strong> 敌国士兵，但会误杀附近的 <strong>1名</strong> 敌国平民。</p> <p>平民照片如下图所示。</p> <p></p> <img src='stimuli/faces/NFF6.jpg', style='max-width: 30%;'> </img> <p><strong>你是否选择发射武器？</strong></p>","1",""
"","","","","","html-keyboard-response","8","54036","0.0-4.0-0.2","85","1","2022-10-09 11:27:36","ebf9627b049f568eb4bf28942cb89901","218.63.129.125","Mozilla/5.0 (Windows NT 10.0; WOW64) AppleWebKit/537.36 (KHTML, like Gecko) Chrome/84.0.4147.89 Safari/537.36 SLBrowser/7.0.0.12151 SLBChan/105","WebKit","Chrome","84.0.4147.89","Windows","10.0","null","<div style=""font-size:60px;"">+</div>","null",""
"","","","","","html-button-response","9","56920","0.0-4.0-1.2","85","1","2022-10-09 11:27:36","ebf9627b049f568eb4bf28942cb89901","218.63.129.125","Mozilla/5.0 (Windows NT 10.0; WOW64) AppleWebKit/537.36 (KHTML, like Gecko) Chrome/84.0.4147.89 Safari/537.36 SLBrowser/7.0.0.12151 SLBChan/105","WebKit","Chrome","84.0.4147.89","Windows","10.0","2883","<p>作为军队的指挥官，你可以选择发射导弹杀死 <strong>1名</strong> 敌国士兵，但会炸毁附近的 <strong>1棵</strong> 敌国树木。</p> <p>树木的照片如下图所示。</p> <p></p> <img src='stimuli/trees/7.png', style='max-width: 30%;'> </img> <p><strong>你是否选择发射武器？</strong></p>","0",""
"","","","","","html-keyboard-response","10","57928","0.0-4.0-0.3","85","1","2022-10-09 11:27:36","ebf9627b049f568eb4bf28942cb89901","218.63.129.125","Mozilla/5.0 (Windows NT 10.0; WOW64) AppleWebKit/537.36 (KHTML, like Gecko) Chrome/84.0.4147.89 Safari/537.36 SLBrowser/7.0.0.12151 SLBChan/105","WebKit","Chrome","84.0.4147.89","Windows","10.0","null","<div style=""font-size:60px;"">+</div>","null",""
"","","","","","html-button-response","11","60944","0.0-4.0-1.3","85","1","2022-10-09 11:27:36","ebf9627b049f568eb4bf28942cb89901","218.63.129.125","Mozilla/5.0 (Windows NT 10.0; WOW64) AppleWebKit/537.36 (KHTML, like Gecko) Chrome/84.0.4147.89 Safari/537.36 SLBrowser/7.0.0.12151 SLBChan/105","WebKit","Chrome","84.0.4147.89","Windows","10.0","3013","<p>作为军队的指挥官，你可以选择发射导弹杀死 <strong>5名</strong> 敌国士兵，但会炸毁附近的 <strong>1棵</strong> 敌国树木。</p> <p>树木的照片如下图所示。</p> <p></p> <img src='stimuli/trees/5.png', style='max-width: 30%;'> </img> <p><strong>你是否选择发射武器？</strong></p>","0",""
"","","","","","html-keyboard-response","12","61949","0.0-4.0-0.4","85","1","2022-10-09 11:27:36","ebf9627b049f568eb4bf28942cb89901","218.63.129.125","Mozilla/5.0 (Windows NT 10.0; WOW64) AppleWebKit/537.36 (KHTML, like Gecko) Chrome/84.0.4147.89 Safari/537.36 SLBrowser/7.0.0.12151 SLBChan/105","WebKit","Chrome","84.0.4147.89","Windows","10.0","null","<div style=""font-size:60px;"">+</div>","null",""
"","","","","","html-button-response","13","65512","0.0-4.0-1.4","85","1","2022-10-09 11:27:36","ebf9627b049f568eb4bf28942cb89901","218.63.129.125","Mozilla/5.0 (Windows NT 10.0; WOW64) AppleWebKit/537.36 (KHTML, like Gecko) Chrome/84.0.4147.89 Safari/537.36 SLBrowser/7.0.0.12151 SLBChan/105","WebKit","Chrome","84.0.4147.89","Windows","10.0","3560","<p>作为军队的指挥官，你可以选择发射导弹杀死 <strong>5名</strong> 敌国士兵，但会误杀附近的 <strong>1名</strong> 敌国平民。</p> <p>平民照片如下图所示。</p> <p></p> <img src='stimuli/faces/NFM4.jpg', style='max-width: 30%;'> </img> <p><strong>你是否选择发射武器？</strong></p>","1",""
"","","","","","html-keyboard-response","14","66528","0.0-4.0-0.5","85","1","2022-10-09 11:27:36","ebf9627b049f568eb4bf28942cb89901","218.63.129.125","Mozilla/5.0 (Windows NT 10.0; WOW64) AppleWebKit/537.36 (KHTML, like Gecko) Chrome/84.0.4147.89 Safari/537.36 SLBrowser/7.0.0.12151 SLBChan/105","WebKit","Chrome","84.0.4147.89","Windows","10.0","null","<div style=""font-size:60px;"">+</div>","null",""
"","","","","","html-button-response","15","71322","0.0-4.0-1.5","85","1","2022-10-09 11:27:36","ebf9627b049f568eb4bf28942cb89901","218.63.129.125","Mozilla/5.0 (Windows NT 10.0; WOW64) AppleWebKit/537.36 (KHTML, like Gecko) Chrome/84.0.4147.89 Safari/537.36 SLBrowser/7.0.0.12151 SLBChan/105","WebKit","Chrome","84.0.4147.89","Windows","10.0","4790","<p>作为军队的指挥官，你可以选择发射导弹杀死 <strong>6名</strong> 敌国士兵，但会误杀附近的 <strong>1名</strong> 敌国平民。</p> <p>平民照片如下图所示。</p> <p></p> <img src='stimuli/faces/NFF1.jpg', style='max-width: 30%;'> </img> <p><strong>你是否选择发射武器？</strong></p>","1",""
"","","","","","html-keyboard-response","16","72333","0.0-4.0-0.6","85","1","2022-10-09 11:27:36","ebf9627b049f568eb4bf28942cb89901","218.63.129.125","Mozilla/5.0 (Windows NT 10.0; WOW64) AppleWebKit/537.36 (KHTML, like Gecko) Chrome/84.0.4147.89 Safari/537.36 SLBrowser/7.0.0.12151 SLBChan/105","WebKit","Chrome","84.0.4147.89","Windows","10.0","null","<div style=""font-size:60px;"">+</div>","null",""
"","","","","","html-button-response","17","74910","0.0-4.0-1.6","85","1","2022-10-09 11:27:36","ebf9627b049f568eb4bf28942cb89901","218.63.129.125","Mozilla/5.0 (Windows NT 10.0; WOW64) AppleWebKit/537.36 (KHTML, like Gecko) Chrome/84.0.4147.89 Safari/537.36 SLBrowser/7.0.0.12151 SLBChan/105","WebKit","Chrome","84.0.4147.89","Windows","10.0","2574","<p>作为军队的指挥官，你可以选择发射导弹杀死 <strong>5名</strong> 敌国士兵，但会误杀附近的 <strong>1名</strong> 敌国平民。</p> <p>平民照片如下图所示。</p> <p></p> <img src='stimuli/faces/NFF1.jpg', style='max-width: 30%;'> </img> <p><strong>你是否选择发射武器？</strong></p>","1",""
"","","","","","html-keyboard-response","18","75922","0.0-4.0-0.7","85","1","2022-10-09 11:27:36","ebf9627b049f568eb4bf28942cb89901","218.63.129.125","Mozilla/5.0 (Windows NT 10.0; WOW64) AppleWebKit/537.36 (KHTML, like Gecko) Chrome/84.0.4147.89 Safari/537.36 SLBrowser/7.0.0.12151 SLBChan/105","WebKit","Chrome","84.0.4147.89","Windows","10.0","null","<div style=""font-size:60px;"">+</div>","null",""
"","","","","","html-button-response","19","77718","0.0-4.0-1.7","85","1","2022-10-09 11:27:36","ebf9627b049f568eb4bf28942cb89901","218.63.129.125","Mozilla/5.0 (Windows NT 10.0; WOW64) AppleWebKit/537.36 (KHTML, like Gecko) Chrome/84.0.4147.89 Safari/537.36 SLBrowser/7.0.0.12151 SLBChan/105","WebKit","Chrome","84.0.4147.89","Windows","10.0","1794","<p>作为军队的指挥官，你可以选择发射导弹杀死 <strong>5名</strong> 敌国士兵，但会误杀附近的 <strong>1名</strong> 敌国平民。</p> <p>平民照片如下图所示。</p> <p></p> <img src='stimuli/faces/NFM8.jpg', style='max-width: 30%;'> </img> <p><strong>你是否选择发射武器？</strong></p>","1",""
"","","","","","html-keyboard-response","20","78733","0.0-4.0-0.8","85","1","2022-10-09 11:27:36","ebf9627b049f568eb4bf28942cb89901","218.63.129.125","Mozilla/5.0 (Windows NT 10.0; WOW64) AppleWebKit/537.36 (KHTML, like Gecko) Chrome/84.0.4147.89 Safari/537.36 SLBrowser/7.0.0.12151 SLBChan/105","WebKit","Chrome","84.0.4147.89","Windows","10.0","null","<div style=""font-size:60px;"">+</div>","null",""
"","","","","","html-button-response","21","80343","0.0-4.0-1.8","85","1","2022-10-09 11:27:36","ebf9627b049f568eb4bf28942cb89901","218.63.129.125","Mozilla/5.0 (Windows NT 10.0; WOW64) AppleWebKit/537.36 (KHTML, like Gecko) Chrome/84.0.4147.89 Safari/537.36 SLBrowser/7.0.0.12151 SLBChan/105","WebKit","Chrome","84.0.4147.89","Windows","10.0","1608","<p>作为军队的指挥官，你可以选择发射导弹杀死 <strong>7名</strong> 敌国士兵，但会误杀附近的 <strong>1名</strong> 敌国平民。</p> <p>平民照片如下图所示。</p> <p></p> <img src='stimuli/faces/NFF4.jpg', style='max-width: 30%;'> </img> <p><strong>你是否选择发射武器？</strong></p>","1",""
"","","","","","html-keyboard-response","22","81345","0.0-4.0-0.9","85","1","2022-10-09 11:27:36","ebf9627b049f568eb4bf28942cb89901","218.63.129.125","Mozilla/5.0 (Windows NT 10.0; WOW64) AppleWebKit/537.36 (KHTML, like Gecko) Chrome/84.0.4147.89 Safari/537.36 SLBrowser/7.0.0.12151 SLBChan/105","WebKit","Chrome","84.0.4147.89","Windows","10.0","null","<div style=""font-size:60px;"">+</div>","null",""
"","","","","","html-button-response","23","83624","0.0-4.0-1.9","85","1","2022-10-09 11:27:36","ebf9627b049f568eb4bf28942cb89901","218.63.129.125","Mozilla/5.0 (Windows NT 10.0; WOW64) AppleWebKit/537.36 (KHTML, like Gecko) Chrome/84.0.4147.89 Safari/537.36 SLBrowser/7.0.0.12151 SLBChan/105","WebKit","Chrome","84.0.4147.89","Windows","10.0","2276","<p>作为军队的指挥官，你可以选择发射导弹杀死 <strong>8名</strong> 敌国士兵，但会炸毁附近的 <strong>1棵</strong> 敌国树木。</p> <p>树木的照片如下图所示。</p> <p></p> <img src='stimuli/trees/7.png', style='max-width: 30%;'> </img> <p><strong>你是否选择发射武器？</strong></p>","0",""
"","","","","","html-keyboard-response","24","84634","0.0-4.0-0.10","85","1","2022-10-09 11:27:36","ebf9627b049f568eb4bf28942cb89901","218.63.129.125","Mozilla/5.0 (Windows NT 10.0; WOW64) AppleWebKit/537.36 (KHTML, like Gecko) Chrome/84.0.4147.89 Safari/537.36 SLBrowser/7.0.0.12151 SLBChan/105","WebKit","Chrome","84.0.4147.89","Windows","10.0","null","<div style=""font-size:60px;"">+</div>","null",""
"","","","","","html-button-response","25","85760","0.0-4.0-1.10","85","1","2022-10-09 11:27:36","ebf9627b049f568eb4bf28942cb89901","218.63.129.125","Mozilla/5.0 (Windows NT 10.0; WOW64) AppleWebKit/537.36 (KHTML, like Gecko) Chrome/84.0.4147.89 Safari/537.36 SLBrowser/7.0.0.12151 SLBChan/105","WebKit","Chrome","84.0.4147.89","Windows","10.0","1123","<p>作为军队的指挥官，你可以选择发射导弹杀死 <strong>6名</strong> 敌国士兵，但会炸毁附近的 <strong>1棵</strong> 敌国树木。</p> <p>树木的照片如下图所示。</p> <p></p> <img src='stimuli/trees/5.png', style='max-width: 30%;'> </img> <p><strong>你是否选择发射武器？</strong></p>","0",""
"","","","","","html-keyboard-response","26","86772","0.0-4.0-0.11","85","1","2022-10-09 11:27:36","ebf9627b049f568eb4bf28942cb89901","218.63.129.125","Mozilla/5.0 (Windows NT 10.0; WOW64) AppleWebKit/537.36 (KHTML, like Gecko) Chrome/84.0.4147.89 Safari/537.36 SLBrowser/7.0.0.12151 SLBChan/105","WebKit","Chrome","84.0.4147.89","Windows","10.0","null","<div style=""font-size:60px;"">+</div>","null",""
"","","","","","html-button-response","27","88367","0.0-4.0-1.11","85","1","2022-10-09 11:27:36","ebf9627b049f568eb4bf28942cb89901","218.63.129.125","Mozilla/5.0 (Windows NT 10.0; WOW64) AppleWebKit/537.36 (KHTML, like Gecko) Chrome/84.0.4147.89 Safari/537.36 SLBrowser/7.0.0.12151 SLBChan/105","WebKit","Chrome","84.0.4147.89","Windows","10.0","1593","<p>作为军队的指挥官，你可以选择发射导弹杀死 <strong>6名</strong> 敌国士兵，但会炸毁附近的 <strong>1棵</strong> 敌国树木。</p> <p>树木的照片如下图所示。</p> <p></p> <img src='stimuli/trees/3.png', style='max-width: 30%;'> </img> <p><strong>你是否选择发射武器？</strong></p>","0",""
"","","","","","html-keyboard-response","28","89384","0.0-4.0-0.12","85","1","2022-10-09 11:27:36","ebf9627b049f568eb4bf28942cb89901","218.63.129.125","Mozilla/5.0 (Windows NT 10.0; WOW64) AppleWebKit/537.36 (KHTML, like Gecko) Chrome/84.0.4147.89 Safari/537.36 SLBrowser/7.0.0.12151 SLBChan/105","WebKit","Chrome","84.0.4147.89","Windows","10.0","null","<div style=""font-size:60px;"">+</div>","null",""
"","","","","","html-button-response","29","91691","0.0-4.0-1.12","85","1","2022-10-09 11:27:36","ebf9627b049f568eb4bf28942cb89901","218.63.129.125","Mozilla/5.0 (Windows NT 10.0; WOW64) AppleWebKit/537.36 (KHTML, like Gecko) Chrome/84.0.4147.89 Safari/537.36 SLBrowser/7.0.0.12151 SLBChan/105","WebKit","Chrome","84.0.4147.89","Windows","10.0","2305","<p>作为军队的指挥官，你可以选择发射导弹杀死 <strong>2名</strong> 敌国士兵，但会误杀附近的 <strong>1名</strong> 敌国平民。</p> <p>平民照片如下图所示。</p> <p></p> <img src='stimuli/faces/NFM1.jpg', style='max-width: 30%;'> </img> <p><strong>你是否选择发射武器？</strong></p>","1",""
"","","","","","html-keyboard-response","30","92699","0.0-4.0-0.13","85","1","2022-10-09 11:27:36","ebf9627b049f568eb4bf28942cb89901","218.63.129.125","Mozilla/5.0 (Windows NT 10.0; WOW64) AppleWebKit/537.36 (KHTML, like Gecko) Chrome/84.0.4147.89 Safari/537.36 SLBrowser/7.0.0.12151 SLBChan/105","WebKit","Chrome","84.0.4147.89","Windows","10.0","null","<div style=""font-size:60px;"">+</div>","null",""
"","","","","","html-button-response","31","94238","0.0-4.0-1.13","85","1","2022-10-09 11:27:36","ebf9627b049f568eb4bf28942cb89901","218.63.129.125","Mozilla/5.0 (Windows NT 10.0; WOW64) AppleWebKit/537.36 (KHTML, like Gecko) Chrome/84.0.4147.89 Safari/537.36 SLBrowser/7.0.0.12151 SLBChan/105","WebKit","Chrome","84.0.4147.89","Windows","10.0","1535","<p>作为军队的指挥官，你可以选择发射导弹杀死 <strong>10名</strong> 敌国士兵，但会误杀附近的 <strong>1名</strong> 敌国平民。</p> <p>平民照片如下图所示。</p> <p></p> <img src='stimuli/faces/NFM5.jpg', style='max-width: 30%;'> </img> <p><strong>你是否选择发射武器？</strong></p>","1",""
"","","","","","html-keyboard-response","32","95250","0.0-4.0-0.14","85","1","2022-10-09 11:27:36","ebf9627b049f568eb4bf28942cb89901","218.63.129.125","Mozilla/5.0 (Windows NT 10.0; WOW64) AppleWebKit/537.36 (KHTML, like Gecko) Chrome/84.0.4147.89 Safari/537.36 SLBrowser/7.0.0.12151 SLBChan/105","WebKit","Chrome","84.0.4147.89","Windows","10.0","null","<div style=""font-size:60px;"">+</div>","null",""
"","","","","","html-button-response","33","96977","0.0-4.0-1.14","85","1","2022-10-09 11:27:36","ebf9627b049f568eb4bf28942cb89901","218.63.129.125","Mozilla/5.0 (Windows NT 10.0; WOW64) AppleWebKit/537.36 (KHTML, like Gecko) Chrome/84.0.4147.89 Safari/537.36 SLBrowser/7.0.0.12151 SLBChan/105","WebKit","Chrome","84.0.4147.89","Windows","10.0","1724","<p>作为军队的指挥官，你可以选择发射导弹杀死 <strong>7名</strong> 敌国士兵，但会炸毁附近的 <strong>1棵</strong> 敌国树木。</p> <p>树木的照片如下图所示。</p> <p></p> <img src='stimuli/trees/13.png', style='max-width: 30%;'> </img> <p><strong>你是否选择发射武器？</strong></p>","0",""
"","","","","","html-keyboard-response","34","97979","0.0-4.0-0.15","85","1","2022-10-09 11:27:36","ebf9627b049f568eb4bf28942cb89901","218.63.129.125","Mozilla/5.0 (Windows NT 10.0; WOW64) AppleWebKit/537.36 (KHTML, like Gecko) Chrome/84.0.4147.89 Safari/537.36 SLBrowser/7.0.0.12151 SLBChan/105","WebKit","Chrome","84.0.4147.89","Windows","10.0","null","<div style=""font-size:60px;"">+</div>","null",""
"","","","","","html-button-response","35","99899","0.0-4.0-1.15","85","1","2022-10-09 11:27:36","ebf9627b049f568eb4bf28942cb89901","218.63.129.125","Mozilla/5.0 (Windows NT 10.0; WOW64) AppleWebKit/537.36 (KHTML, like Gecko) Chrome/84.0.4147.89 Safari/537.36 SLBrowser/7.0.0.12151 SLBChan/105","WebKit","Chrome","84.0.4147.89","Windows","10.0","1918","<p>作为军队的指挥官，你可以选择发射导弹杀死 <strong>6名</strong> 敌国士兵，但会炸毁附近的 <strong>1棵</strong> 敌国树木。</p> <p>树木的照片如下图所示。</p> <p></p> <img src='stimuli/trees/11.png', style='max-width: 30%;'> </img> <p><strong>你是否选择发射武器？</strong></p>","0",""
"","","","","","html-keyboard-response","36","100914","0.0-4.0-0.16","85","1","2022-10-09 11:27:36","ebf9627b049f568eb4bf28942cb89901","218.63.129.125","Mozilla/5.0 (Windows NT 10.0; WOW64) AppleWebKit/537.36 (KHTML, like Gecko) Chrome/84.0.4147.89 Safari/537.36 SLBrowser/7.0.0.12151 SLBChan/105","WebKit","Chrome","84.0.4147.89","Windows","10.0","null","<div style=""font-size:60px;"">+</div>","null",""
"","","","","","html-button-response","37","114275","0.0-4.0-1.16","85","1","2022-10-09 11:27:36","ebf9627b049f568eb4bf28942cb89901","218.63.129.125","Mozilla/5.0 (Windows NT 10.0; WOW64) AppleWebKit/537.36 (KHTML, like Gecko) Chrome/84.0.4147.89 Safari/537.36 SLBrowser/7.0.0.12151 SLBChan/105","WebKit","Chrome","84.0.4147.89","Windows","10.0","13358","<p>作为军队的指挥官，你可以选择发射导弹杀死 <strong>6名</strong> 敌国士兵，但会误杀附近的 <strong>1名</strong> 敌国平民。</p> <p>平民照片如下图所示。</p> <p></p> <img src='stimuli/faces/NFM8.jpg', style='max-width: 30%;'> </img> <p><strong>你是否选择发射武器？</strong></p>","1",""
"","","","","","html-keyboard-response","38","115290","0.0-4.0-0.17","85","1","2022-10-09 11:27:36","ebf9627b049f568eb4bf28942cb89901","218.63.129.125","Mozilla/5.0 (Windows NT 10.0; WOW64) AppleWebKit/537.36 (KHTML, like Gecko) Chrome/84.0.4147.89 Safari/537.36 SLBrowser/7.0.0.12151 SLBChan/105","WebKit","Chrome","84.0.4147.89","Windows","10.0","null","<div style=""font-size:60px;"">+</div>","null",""
"","","","","","html-button-response","39","118772","0.0-4.0-1.17","85","1","2022-10-09 11:27:36","ebf9627b049f568eb4bf28942cb89901","218.63.129.125","Mozilla/5.0 (Windows NT 10.0; WOW64) AppleWebKit/537.36 (KHTML, like Gecko) Chrome/84.0.4147.89 Safari/537.36 SLBrowser/7.0.0.12151 SLBChan/105","WebKit","Chrome","84.0.4147.89","Windows","10.0","3480","<p>作为军队的指挥官，你可以选择发射导弹杀死 <strong>5名</strong> 敌国士兵，但会炸毁附近的 <strong>1棵</strong> 敌国树木。</p> <p>树木的照片如下图所示。</p> <p></p> <img src='stimuli/trees/3.png', style='max-width: 30%;'> </img> <p><strong>你是否选择发射武器？</strong></p>","0",""
"","","","","","html-keyboard-response","40","119794","0.0-4.0-0.18","85","1","2022-10-09 11:27:36","ebf9627b049f568eb4bf28942cb89901","218.63.129.125","Mozilla/5.0 (Windows NT 10.0; WOW64) AppleWebKit/537.36 (KHTML, like Gecko) Chrome/84.0.4147.89 Safari/537.36 SLBrowser/7.0.0.12151 SLBChan/105","WebKit","Chrome","84.0.4147.89","Windows","10.0","null","<div style=""font-size:60px;"">+</div>","null",""
"","","","","","html-button-response","41","126314","0.0-4.0-1.18","85","1","2022-10-09 11:27:36","ebf9627b049f568eb4bf28942cb89901","218.63.129.125","Mozilla/5.0 (Windows NT 10.0; WOW64) AppleWebKit/537.36 (KHTML, like Gecko) Chrome/84.0.4147.89 Safari/537.36 SLBrowser/7.0.0.12151 SLBChan/105","WebKit","Chrome","84.0.4147.89","Windows","10.0","6515","<p>作为军队的指挥官，你可以选择发射导弹杀死 <strong>6名</strong> 敌国士兵，但会炸毁附近的 <strong>1棵</strong> 敌国树木。</p> <p>树木的照片如下图所示。</p> <p></p> <img src='stimuli/trees/16.png', style='max-width: 30%;'> </img> <p><strong>你是否选择发射武器？</strong></p>","0",""
"","","","","","html-keyboard-response","42","127316","0.0-4.0-0.19","85","1","2022-10-09 11:27:36","ebf9627b049f568eb4bf28942cb89901","218.63.129.125","Mozilla/5.0 (Windows NT 10.0; WOW64) AppleWebKit/537.36 (KHTML, like Gecko) Chrome/84.0.4147.89 Safari/537.36 SLBrowser/7.0.0.12151 SLBChan/105","WebKit","Chrome","84.0.4147.89","Windows","10.0","null","<div style=""font-size:60px;"">+</div>","null",""
"","","","","","html-button-response","43","130480","0.0-4.0-1.19","85","1","2022-10-09 11:27:36","ebf9627b049f568eb4bf28942cb89901","218.63.129.125","Mozilla/5.0 (Windows NT 10.0; WOW64) AppleWebKit/537.36 (KHTML, like Gecko) Chrome/84.0.4147.89 Safari/537.36 SLBrowser/7.0.0.12151 SLBChan/105","WebKit","Chrome","84.0.4147.89","Windows","10.0","3161","<p>作为军队的指挥官，你可以选择发射导弹杀死 <strong>4名</strong> 敌国士兵，但会炸毁附近的 <strong>1棵</strong> 敌国树木。</p> <p>树木的照片如下图所示。</p> <p></p> <img src='stimuli/trees/12.png', style='max-width: 30%;'> </img> <p><strong>你是否选择发射武器？</strong></p>","0",""
"","","","","","html-keyboard-response","44","131495","0.0-4.0-0.20","85","1","2022-10-09 11:27:36","ebf9627b049f568eb4bf28942cb89901","218.63.129.125","Mozilla/5.0 (Windows NT 10.0; WOW64) AppleWebKit/537.36 (KHTML, like Gecko) Chrome/84.0.4147.89 Safari/537.36 SLBrowser/7.0.0.12151 SLBChan/105","WebKit","Chrome","84.0.4147.89","Windows","10.0","null","<div style=""font-size:60px;"">+</div>","null",""
"","","","","","html-button-response","45","133971","0.0-4.0-1.20","85","1","2022-10-09 11:27:36","ebf9627b049f568eb4bf28942cb89901","218.63.129.125","Mozilla/5.0 (Windows NT 10.0; WOW64) AppleWebKit/537.36 (KHTML, like Gecko) Chrome/84.0.4147.89 Safari/537.36 SLBrowser/7.0.0.12151 SLBChan/105","WebKit","Chrome","84.0.4147.89","Windows","10.0","2471","<p>作为军队的指挥官，你可以选择发射导弹杀死 <strong>9名</strong> 敌国士兵，但会误杀附近的 <strong>1名</strong> 敌国平民。</p> <p>平民照片如下图所示。</p> <p></p> <img src='stimuli/faces/NFF8.jpg', style='max-width: 30%;'> </img> <p><strong>你是否选择发射武器？</strong></p>","1",""
"","","","","","html-keyboard-response","46","134982","0.0-4.0-0.21","85","1","2022-10-09 11:27:36","ebf9627b049f568eb4bf28942cb89901","218.63.129.125","Mozilla/5.0 (Windows NT 10.0; WOW64) AppleWebKit/537.36 (KHTML, like Gecko) Chrome/84.0.4147.89 Safari/537.36 SLBrowser/7.0.0.12151 SLBChan/105","WebKit","Chrome","84.0.4147.89","Windows","10.0","null","<div style=""font-size:60px;"">+</div>","null",""
"","","","","","html-button-response","47","136947","0.0-4.0-1.21","85","1","2022-10-09 11:27:36","ebf9627b049f568eb4bf28942cb89901","218.63.129.125","Mozilla/5.0 (Windows NT 10.0; WOW64) AppleWebKit/537.36 (KHTML, like Gecko) Chrome/84.0.4147.89 Safari/537.36 SLBrowser/7.0.0.12151 SLBChan/105","WebKit","Chrome","84.0.4147.89","Windows","10.0","1959","<p>作为军队的指挥官，你可以选择发射导弹杀死 <strong>1名</strong> 敌国士兵，但会误杀附近的 <strong>1名</strong> 敌国平民。</p> <p>平民照片如下图所示。</p> <p></p> <img src='stimuli/faces/NFF2.jpg', style='max-width: 30%;'> </img> <p><strong>你是否选择发射武器？</strong></p>","1",""
"","","","","","html-keyboard-response","48","137964","0.0-4.0-0.22","85","1","2022-10-09 11:27:36","ebf9627b049f568eb4bf28942cb89901","218.63.129.125","Mozilla/5.0 (Windows NT 10.0; WOW64) AppleWebKit/537.36 (KHTML, like Gecko) Chrome/84.0.4147.89 Safari/537.36 SLBrowser/7.0.0.12151 SLBChan/105","WebKit","Chrome","84.0.4147.89","Windows","10.0","null","<div style=""font-size:60px;"">+</div>","null",""
"","","","","","html-button-response","49","139999","0.0-4.0-1.22","85","1","2022-10-09 11:27:36","ebf9627b049f568eb4bf28942cb89901","218.63.129.125","Mozilla/5.0 (Windows NT 10.0; WOW64) AppleWebKit/537.36 (KHTML, like Gecko) Chrome/84.0.4147.89 Safari/537.36 SLBrowser/7.0.0.12151 SLBChan/105","WebKit","Chrome","84.0.4147.89","Windows","10.0","2032","<p>作为军队的指挥官，你可以选择发射导弹杀死 <strong>7名</strong> 敌国士兵，但会误杀附近的 <strong>1名</strong> 敌国平民。</p> <p>平民照片如下图所示。</p> <p></p> <img src='stimuli/faces/NFM7.jpg', style='max-width: 30%;'> </img> <p><strong>你是否选择发射武器？</strong></p>","1",""
"","","","","","html-keyboard-response","50","141002","0.0-4.0-0.23","85","1","2022-10-09 11:27:36","ebf9627b049f568eb4bf28942cb89901","218.63.129.125","Mozilla/5.0 (Windows NT 10.0; WOW64) AppleWebKit/537.36 (KHTML, like Gecko) Chrome/84.0.4147.89 Safari/537.36 SLBrowser/7.0.0.12151 SLBChan/105","WebKit","Chrome","84.0.4147.89","Windows","10.0","null","<div style=""font-size:60px;"">+</div>","null",""
"","","","","","html-button-response","51","144953","0.0-4.0-1.23","85","1","2022-10-09 11:27:36","ebf9627b049f568eb4bf28942cb89901","218.63.129.125","Mozilla/5.0 (Windows NT 10.0; WOW64) AppleWebKit/537.36 (KHTML, like Gecko) Chrome/84.0.4147.89 Safari/537.36 SLBrowser/7.0.0.12151 SLBChan/105","WebKit","Chrome","84.0.4147.89","Windows","10.0","3947","<p>作为军队的指挥官，你可以选择发射导弹杀死 <strong>6名</strong> 敌国士兵，但会误杀附近的 <strong>1名</strong> 敌国平民。</p> <p>平民照片如下图所示。</p> <p></p> <img src='stimuli/faces/NFM2.jpg', style='max-width: 30%;'> </img> <p><strong>你是否选择发射武器？</strong></p>","1",""
"","","","","","html-keyboard-response","52","145955","0.0-4.0-0.24","85","1","2022-10-09 11:27:36","ebf9627b049f568eb4bf28942cb89901","218.63.129.125","Mozilla/5.0 (Windows NT 10.0; WOW64) AppleWebKit/537.36 (KHTML, like Gecko) Chrome/84.0.4147.89 Safari/537.36 SLBrowser/7.0.0.12151 SLBChan/105","WebKit","Chrome","84.0.4147.89","Windows","10.0","null","<div style=""font-size:60px;"">+</div>","null",""
"","","","","","html-button-response","53","148365","0.0-4.0-1.24","85","1","2022-10-09 11:27:36","ebf9627b049f568eb4bf28942cb89901","218.63.129.125","Mozilla/5.0 (Windows NT 10.0; WOW64) AppleWebKit/537.36 (KHTML, like Gecko) Chrome/84.0.4147.89 Safari/537.36 SLBrowser/7.0.0.12151 SLBChan/105","WebKit","Chrome","84.0.4147.89","Windows","10.0","2407","<p>作为军队的指挥官，你可以选择发射导弹杀死 <strong>9名</strong> 敌国士兵，但会误杀附近的 <strong>1名</strong> 敌国平民。</p> <p>平民照片如下图所示。</p> <p></p> <img src='stimuli/faces/NFF7.jpg', style='max-width: 30%;'> </img> <p><strong>你是否选择发射武器？</strong></p>","0",""
"","","","","","html-keyboard-response","54","149369","0.0-4.0-0.25","85","1","2022-10-09 11:27:36","ebf9627b049f568eb4bf28942cb89901","218.63.129.125","Mozilla/5.0 (Windows NT 10.0; WOW64) AppleWebKit/537.36 (KHTML, like Gecko) Chrome/84.0.4147.89 Safari/537.36 SLBrowser/7.0.0.12151 SLBChan/105","WebKit","Chrome","84.0.4147.89","Windows","10.0","null","<div style=""font-size:60px;"">+</div>","null",""
"","","","","","html-button-response","55","152110","0.0-4.0-1.25","85","1","2022-10-09 11:27:36","ebf9627b049f568eb4bf28942cb89901","218.63.129.125","Mozilla/5.0 (Windows NT 10.0; WOW64) AppleWebKit/537.36 (KHTML, like Gecko) Chrome/84.0.4147.89 Safari/537.36 SLBrowser/7.0.0.12151 SLBChan/105","WebKit","Chrome","84.0.4147.89","Windows","10.0","2737","<p>作为军队的指挥官，你可以选择发射导弹杀死 <strong>7名</strong> 敌国士兵，但会炸毁附近的 <strong>1棵</strong> 敌国树木。</p> <p>树木的照片如下图所示。</p> <p></p> <img src='stimuli/trees/2.png', style='max-width: 30%;'> </img> <p><strong>你是否选择发射武器？</strong></p>","0",""
"","","","","","html-keyboard-response","56","153112","0.0-4.0-0.26","85","1","2022-10-09 11:27:36","ebf9627b049f568eb4bf28942cb89901","218.63.129.125","Mozilla/5.0 (Windows NT 10.0; WOW64) AppleWebKit/537.36 (KHTML, like Gecko) Chrome/84.0.4147.89 Safari/537.36 SLBrowser/7.0.0.12151 SLBChan/105","WebKit","Chrome","84.0.4147.89","Windows","10.0","null","<div style=""font-size:60px;"">+</div>","null",""
"","","","","","html-button-response","57","155671","0.0-4.0-1.26","85","1","2022-10-09 11:27:36","ebf9627b049f568eb4bf28942cb89901","218.63.129.125","Mozilla/5.0 (Windows NT 10.0; WOW64) AppleWebKit/537.36 (KHTML, like Gecko) Chrome/84.0.4147.89 Safari/537.36 SLBrowser/7.0.0.12151 SLBChan/105","WebKit","Chrome","84.0.4147.89","Windows","10.0","2555","<p>作为军队的指挥官，你可以选择发射导弹杀死 <strong>2名</strong> 敌国士兵，但会炸毁附近的 <strong>1棵</strong> 敌国树木。</p> <p>树木的照片如下图所示。</p> <p></p> <img src='stimuli/trees/4.png', style='max-width: 30%;'> </img> <p><strong>你是否选择发射武器？</strong></p>","0",""
"","","","","","html-keyboard-response","58","156681","0.0-4.0-0.27","85","1","2022-10-09 11:27:36","ebf9627b049f568eb4bf28942cb89901","218.63.129.125","Mozilla/5.0 (Windows NT 10.0; WOW64) AppleWebKit/537.36 (KHTML, like Gecko) Chrome/84.0.4147.89 Safari/537.36 SLBrowser/7.0.0.12151 SLBChan/105","WebKit","Chrome","84.0.4147.89","Windows","10.0","null","<div style=""font-size:60px;"">+</div>","null",""
"","","","","","html-button-response","59","158234","0.0-4.0-1.27","85","1","2022-10-09 11:27:36","ebf9627b049f568eb4bf28942cb89901","218.63.129.125","Mozilla/5.0 (Windows NT 10.0; WOW64) AppleWebKit/537.36 (KHTML, like Gecko) Chrome/84.0.4147.89 Safari/537.36 SLBrowser/7.0.0.12151 SLBChan/105","WebKit","Chrome","84.0.4147.89","Windows","10.0","1550","<p>作为军队的指挥官，你可以选择发射导弹杀死 <strong>4名</strong> 敌国士兵，但会误杀附近的 <strong>1名</strong> 敌国平民。</p> <p>平民照片如下图所示。</p> <p></p> <img src='stimuli/faces/NFM5.jpg', style='max-width: 30%;'> </img> <p><strong>你是否选择发射武器？</strong></p>","1",""
"","","","","","html-keyboard-response","60","159243","0.0-4.0-0.28","85","1","2022-10-09 11:27:36","ebf9627b049f568eb4bf28942cb89901","218.63.129.125","Mozilla/5.0 (Windows NT 10.0; WOW64) AppleWebKit/537.36 (KHTML, like Gecko) Chrome/84.0.4147.89 Safari/537.36 SLBrowser/7.0.0.12151 SLBChan/105","WebKit","Chrome","84.0.4147.89","Windows","10.0","null","<div style=""font-size:60px;"">+</div>","null",""
"","","","","","html-button-response","61","162497","0.0-4.0-1.28","85","1","2022-10-09 11:27:36","ebf9627b049f568eb4bf28942cb89901","218.63.129.125","Mozilla/5.0 (Windows NT 10.0; WOW64) AppleWebKit/537.36 (KHTML, like Gecko) Chrome/84.0.4147.89 Safari/537.36 SLBrowser/7.0.0.12151 SLBChan/105","WebKit","Chrome","84.0.4147.89","Windows","10.0","3250","<p>作为军队的指挥官，你可以选择发射导弹杀死 <strong>2名</strong> 敌国士兵，但会炸毁附近的 <strong>1棵</strong> 敌国树木。</p> <p>树木的照片如下图所示。</p> <p></p> <img src='stimuli/trees/1.png', style='max-width: 30%;'> </img> <p><strong>你是否选择发射武器？</strong></p>","0",""
"","","","","","html-keyboard-response","62","163511","0.0-4.0-0.29","85","1","2022-10-09 11:27:36","ebf9627b049f568eb4bf28942cb89901","218.63.129.125","Mozilla/5.0 (Windows NT 10.0; WOW64) AppleWebKit/537.36 (KHTML, like Gecko) Chrome/84.0.4147.89 Safari/537.36 SLBrowser/7.0.0.12151 SLBChan/105","WebKit","Chrome","84.0.4147.89","Windows","10.0","null","<div style=""font-size:60px;"">+</div>","null",""
"","","","","","html-button-response","63","165444","0.0-4.0-1.29","85","1","2022-10-09 11:27:36","ebf9627b049f568eb4bf28942cb89901","218.63.129.125","Mozilla/5.0 (Windows NT 10.0; WOW64) AppleWebKit/537.36 (KHTML, like Gecko) Chrome/84.0.4147.89 Safari/537.36 SLBrowser/7.0.0.12151 SLBChan/105","WebKit","Chrome","84.0.4147.89","Windows","10.0","1928","<p>作为军队的指挥官，你可以选择发射导弹杀死 <strong>9名</strong> 敌国士兵，但会炸毁附近的 <strong>1棵</strong> 敌国树木。</p> <p>树木的照片如下图所示。</p> <p></p> <img src='stimuli/trees/10.png', style='max-width: 30%;'> </img> <p><strong>你是否选择发射武器？</strong></p>","0",""
"","","","","","html-keyboard-response","64","166459","0.0-4.0-0.30","85","1","2022-10-09 11:27:36","ebf9627b049f568eb4bf28942cb89901","218.63.129.125","Mozilla/5.0 (Windows NT 10.0; WOW64) AppleWebKit/537.36 (KHTML, like Gecko) Chrome/84.0.4147.89 Safari/537.36 SLBrowser/7.0.0.12151 SLBChan/105","WebKit","Chrome","84.0.4147.89","Windows","10.0","null","<div style=""font-size:60px;"">+</div>","null",""
"","","","","","html-button-response","65","167632","0.0-4.0-1.30","85","1","2022-10-09 11:27:36","ebf9627b049f568eb4bf28942cb89901","218.63.129.125","Mozilla/5.0 (Windows NT 10.0; WOW64) AppleWebKit/537.36 (KHTML, like Gecko) Chrome/84.0.4147.89 Safari/537.36 SLBrowser/7.0.0.12151 SLBChan/105","WebKit","Chrome","84.0.4147.89","Windows","10.0","1169","<p>作为军队的指挥官，你可以选择发射导弹杀死 <strong>1名</strong> 敌国士兵，但会炸毁附近的 <strong>1棵</strong> 敌国树木。</p> <p>树木的照片如下图所示。</p> <p></p> <img src='stimuli/trees/16.png', style='max-width: 30%;'> </img> <p><strong>你是否选择发射武器？</strong></p>","0",""
"","","","","","html-keyboard-response","66","168641","0.0-4.0-0.31","85","1","2022-10-09 11:27:36","ebf9627b049f568eb4bf28942cb89901","218.63.129.125","Mozilla/5.0 (Windows NT 10.0; WOW64) AppleWebKit/537.36 (KHTML, like Gecko) Chrome/84.0.4147.89 Safari/537.36 SLBrowser/7.0.0.12151 SLBChan/105","WebKit","Chrome","84.0.4147.89","Windows","10.0","null","<div style=""font-size:60px;"">+</div>","null",""
"","","","","","html-button-response","67","169662","0.0-4.0-1.31","85","1","2022-10-09 11:27:36","ebf9627b049f568eb4bf28942cb89901","218.63.129.125","Mozilla/5.0 (Windows NT 10.0; WOW64) AppleWebKit/537.36 (KHTML, like Gecko) Chrome/84.0.4147.89 Safari/537.36 SLBrowser/7.0.0.12151 SLBChan/105","WebKit","Chrome","84.0.4147.89","Windows","10.0","1019","<p>作为军队的指挥官，你可以选择发射导弹杀死 <strong>6名</strong> 敌国士兵，但会炸毁附近的 <strong>1棵</strong> 敌国树木。</p> <p>树木的照片如下图所示。</p> <p></p> <img src='stimuli/trees/6.png', style='max-width: 30%;'> </img> <p><strong>你是否选择发射武器？</strong></p>","0",""
"","","","","","html-keyboard-response","68","170679","0.0-4.0-0.32","85","1","2022-10-09 11:27:36","ebf9627b049f568eb4bf28942cb89901","218.63.129.125","Mozilla/5.0 (Windows NT 10.0; WOW64) AppleWebKit/537.36 (KHTML, like Gecko) Chrome/84.0.4147.89 Safari/537.36 SLBrowser/7.0.0.12151 SLBChan/105","WebKit","Chrome","84.0.4147.89","Windows","10.0","null","<div style=""font-size:60px;"">+</div>","null",""
"","","","","","html-button-response","69","172505","0.0-4.0-1.32","85","1","2022-10-09 11:27:36","ebf9627b049f568eb4bf28942cb89901","218.63.129.125","Mozilla/5.0 (Windows NT 10.0; WOW64) AppleWebKit/537.36 (KHTML, like Gecko) Chrome/84.0.4147.89 Safari/537.36 SLBrowser/7.0.0.12151 SLBChan/105","WebKit","Chrome","84.0.4147.89","Windows","10.0","1822","<p>作为军队的指挥官，你可以选择发射导弹杀死 <strong>6名</strong> 敌国士兵，但会误杀附近的 <strong>1名</strong> 敌国平民。</p> <p>平民照片如下图所示。</p> <p></p> <img src='stimuli/faces/NFM3.jpg', style='max-width: 30%;'> </img> <p><strong>你是否选择发射武器？</strong></p>","1",""
"","","","","","html-keyboard-response","70","173511","0.0-4.0-0.33","85","1","2022-10-09 11:27:36","ebf9627b049f568eb4bf28942cb89901","218.63.129.125","Mozilla/5.0 (Windows NT 10.0; WOW64) AppleWebKit/537.36 (KHTML, like Gecko) Chrome/84.0.4147.89 Safari/537.36 SLBrowser/7.0.0.12151 SLBChan/105","WebKit","Chrome","84.0.4147.89","Windows","10.0","null","<div style=""font-size:60px;"">+</div>","null",""
"","","","","","html-button-response","71","175069","0.0-4.0-1.33","85","1","2022-10-09 11:27:36","ebf9627b049f568eb4bf28942cb89901","218.63.129.125","Mozilla/5.0 (Windows NT 10.0; WOW64) AppleWebKit/537.36 (KHTML, like Gecko) Chrome/84.0.4147.89 Safari/537.36 SLBrowser/7.0.0.12151 SLBChan/105","WebKit","Chrome","84.0.4147.89","Windows","10.0","1554","<p>作为军队的指挥官，你可以选择发射导弹杀死 <strong>7名</strong> 敌国士兵，但会误杀附近的 <strong>1名</strong> 敌国平民。</p> <p>平民照片如下图所示。</p> <p></p> <img src='stimuli/faces/NFF5.jpg', style='max-width: 30%;'> </img> <p><strong>你是否选择发射武器？</strong></p>","1",""
"","","","","","html-keyboard-response","72","176082","0.0-4.0-0.34","85","1","2022-10-09 11:27:36","ebf9627b049f568eb4bf28942cb89901","218.63.129.125","Mozilla/5.0 (Windows NT 10.0; WOW64) AppleWebKit/537.36 (KHTML, like Gecko) Chrome/84.0.4147.89 Safari/537.36 SLBrowser/7.0.0.12151 SLBChan/105","WebKit","Chrome","84.0.4147.89","Windows","10.0","null","<div style=""font-size:60px;"">+</div>","null",""
"","","","","","html-button-response","73","177099","0.0-4.0-1.34","85","1","2022-10-09 11:27:36","ebf9627b049f568eb4bf28942cb89901","218.63.129.125","Mozilla/5.0 (Windows NT 10.0; WOW64) AppleWebKit/537.36 (KHTML, like Gecko) Chrome/84.0.4147.89 Safari/537.36 SLBrowser/7.0.0.12151 SLBChan/105","WebKit","Chrome","84.0.4147.89","Windows","10.0","1014","<p>作为军队的指挥官，你可以选择发射导弹杀死 <strong>7名</strong> 敌国士兵，但会误杀附近的 <strong>1名</strong> 敌国平民。</p> <p>平民照片如下图所示。</p> <p></p> <img src='stimuli/faces/NFF3.jpg', style='max-width: 30%;'> </img> <p><strong>你是否选择发射武器？</strong></p>","1",""
"","","","","","html-keyboard-response","74","178110","0.0-4.0-0.35","85","1","2022-10-09 11:27:36","ebf9627b049f568eb4bf28942cb89901","218.63.129.125","Mozilla/5.0 (Windows NT 10.0; WOW64) AppleWebKit/537.36 (KHTML, like Gecko) Chrome/84.0.4147.89 Safari/537.36 SLBrowser/7.0.0.12151 SLBChan/105","WebKit","Chrome","84.0.4147.89","Windows","10.0","null","<div style=""font-size:60px;"">+</div>","null",""
"","","","","","html-button-response","75","179892","0.0-4.0-1.35","85","1","2022-10-09 11:27:36","ebf9627b049f568eb4bf28942cb89901","218.63.129.125","Mozilla/5.0 (Windows NT 10.0; WOW64) AppleWebKit/537.36 (KHTML, like Gecko) Chrome/84.0.4147.89 Safari/537.36 SLBrowser/7.0.0.12151 SLBChan/105","WebKit","Chrome","84.0.4147.89","Windows","10.0","1779","<p>作为军队的指挥官，你可以选择发射导弹杀死 <strong>2名</strong> 敌国士兵，但会炸毁附近的 <strong>1棵</strong> 敌国树木。</p> <p>树木的照片如下图所示。</p> <p></p> <img src='stimuli/trees/10.png', style='max-width: 30%;'> </img> <p><strong>你是否选择发射武器？</strong></p>","0",""
"","","","","","html-keyboard-response","76","180898","0.0-4.0-0.36","85","1","2022-10-09 11:27:36","ebf9627b049f568eb4bf28942cb89901","218.63.129.125","Mozilla/5.0 (Windows NT 10.0; WOW64) AppleWebKit/537.36 (KHTML, like Gecko) Chrome/84.0.4147.89 Safari/537.36 SLBrowser/7.0.0.12151 SLBChan/105","WebKit","Chrome","84.0.4147.89","Windows","10.0","null","<div style=""font-size:60px;"">+</div>","null",""
"","","","","","html-button-response","77","183436","0.0-4.0-1.36","85","1","2022-10-09 11:27:36","ebf9627b049f568eb4bf28942cb89901","218.63.129.125","Mozilla/5.0 (Windows NT 10.0; WOW64) AppleWebKit/537.36 (KHTML, like Gecko) Chrome/84.0.4147.89 Safari/537.36 SLBrowser/7.0.0.12151 SLBChan/105","WebKit","Chrome","84.0.4147.89","Windows","10.0","2536","<p>作为军队的指挥官，你可以选择发射导弹杀死 <strong>4名</strong> 敌国士兵，但会误杀附近的 <strong>1名</strong> 敌国平民。</p> <p>平民照片如下图所示。</p> <p></p> <img src='stimuli/faces/NFF5.jpg', style='max-width: 30%;'> </img> <p><strong>你是否选择发射武器？</strong></p>","1",""
"","","","","","html-keyboard-response","78","184444","0.0-4.0-0.37","85","1","2022-10-09 11:27:36","ebf9627b049f568eb4bf28942cb89901","218.63.129.125","Mozilla/5.0 (Windows NT 10.0; WOW64) AppleWebKit/537.36 (KHTML, like Gecko) Chrome/84.0.4147.89 Safari/537.36 SLBrowser/7.0.0.12151 SLBChan/105","WebKit","Chrome","84.0.4147.89","Windows","10.0","null","<div style=""font-size:60px;"">+</div>","null",""
"","","","","","html-button-response","79","185991","0.0-4.0-1.37","85","1","2022-10-09 11:27:36","ebf9627b049f568eb4bf28942cb89901","218.63.129.125","Mozilla/5.0 (Windows NT 10.0; WOW64) AppleWebKit/537.36 (KHTML, like Gecko) Chrome/84.0.4147.89 Safari/537.36 SLBrowser/7.0.0.12151 SLBChan/105","WebKit","Chrome","84.0.4147.89","Windows","10.0","1541","<p>作为军队的指挥官，你可以选择发射导弹杀死 <strong>2名</strong> 敌国士兵，但会炸毁附近的 <strong>1棵</strong> 敌国树木。</p> <p>树木的照片如下图所示。</p> <p></p> <img src='stimuli/trees/9.png', style='max-width: 30%;'> </img> <p><strong>你是否选择发射武器？</strong></p>","0",""
"","","","","","html-keyboard-response","80","187002","0.0-4.0-0.38","85","1","2022-10-09 11:27:36","ebf9627b049f568eb4bf28942cb89901","218.63.129.125","Mozilla/5.0 (Windows NT 10.0; WOW64) AppleWebKit/537.36 (KHTML, like Gecko) Chrome/84.0.4147.89 Safari/537.36 SLBrowser/7.0.0.12151 SLBChan/105","WebKit","Chrome","84.0.4147.89","Windows","10.0","null","<div style=""font-size:60px;"">+</div>","null",""
"","","","","","html-button-response","81","190121","0.0-4.0-1.38","85","1","2022-10-09 11:27:36","ebf9627b049f568eb4bf28942cb89901","218.63.129.125","Mozilla/5.0 (Windows NT 10.0; WOW64) AppleWebKit/537.36 (KHTML, like Gecko) Chrome/84.0.4147.89 Safari/537.36 SLBrowser/7.0.0.12151 SLBChan/105","WebKit","Chrome","84.0.4147.89","Windows","10.0","3116","<p>作为军队的指挥官，你可以选择发射导弹杀死 <strong>8名</strong> 敌国士兵，但会误杀附近的 <strong>1名</strong> 敌国平民。</p> <p>平民照片如下图所示。</p> <p></p> <img src='stimuli/faces/NFM6.jpg', style='max-width: 30%;'> </img> <p><strong>你是否选择发射武器？</strong></p>","1",""
"","","","","","html-keyboard-response","82","191125","0.0-4.0-0.39","85","1","2022-10-09 11:27:36","ebf9627b049f568eb4bf28942cb89901","218.63.129.125","Mozilla/5.0 (Windows NT 10.0; WOW64) AppleWebKit/537.36 (KHTML, like Gecko) Chrome/84.0.4147.89 Safari/537.36 SLBrowser/7.0.0.12151 SLBChan/105","WebKit","Chrome","84.0.4147.89","Windows","10.0","null","<div style=""font-size:60px;"">+</div>","null",""
"","","","","","html-button-response","83","192702","0.0-4.0-1.39","85","1","2022-10-09 11:27:36","ebf9627b049f568eb4bf28942cb89901","218.63.129.125","Mozilla/5.0 (Windows NT 10.0; WOW64) AppleWebKit/537.36 (KHTML, like Gecko) Chrome/84.0.4147.89 Safari/537.36 SLBrowser/7.0.0.12151 SLBChan/105","WebKit","Chrome","84.0.4147.89","Windows","10.0","1574","<p>作为军队的指挥官，你可以选择发射导弹杀死 <strong>5名</strong> 敌国士兵，但会误杀附近的 <strong>1名</strong> 敌国平民。</p> <p>平民照片如下图所示。</p> <p></p> <img src='stimuli/faces/NFM3.jpg', style='max-width: 30%;'> </img> <p><strong>你是否选择发射武器？</strong></p>","1",""
"","","","","","html-keyboard-response","84","193709","0.0-4.0-0.40","85","1","2022-10-09 11:27:36","ebf9627b049f568eb4bf28942cb89901","218.63.129.125","Mozilla/5.0 (Windows NT 10.0; WOW64) AppleWebKit/537.36 (KHTML, like Gecko) Chrome/84.0.4147.89 Safari/537.36 SLBrowser/7.0.0.12151 SLBChan/105","WebKit","Chrome","84.0.4147.89","Windows","10.0","null","<div style=""font-size:60px;"">+</div>","null",""
"","","","","","html-button-response","85","194556","0.0-4.0-1.40","85","1","2022-10-09 11:27:36","ebf9627b049f568eb4bf28942cb89901","218.63.129.125","Mozilla/5.0 (Windows NT 10.0; WOW64) AppleWebKit/537.36 (KHTML, like Gecko) Chrome/84.0.4147.89 Safari/537.36 SLBrowser/7.0.0.12151 SLBChan/105","WebKit","Chrome","84.0.4147.89","Windows","10.0","844","<p>作为军队的指挥官，你可以选择发射导弹杀死 <strong>8名</strong> 敌国士兵，但会误杀附近的 <strong>1名</strong> 敌国平民。</p> <p>平民照片如下图所示。</p> <p></p> <img src='stimuli/faces/NFF6.jpg', style='max-width: 30%;'> </img> <p><strong>你是否选择发射武器？</strong></p>","1",""
"","","","","","html-keyboard-response","86","195562","0.0-4.0-0.41","85","1","2022-10-09 11:27:36","ebf9627b049f568eb4bf28942cb89901","218.63.129.125","Mozilla/5.0 (Windows NT 10.0; WOW64) AppleWebKit/537.36 (KHTML, like Gecko) Chrome/84.0.4147.89 Safari/537.36 SLBrowser/7.0.0.12151 SLBChan/105","WebKit","Chrome","84.0.4147.89","Windows","10.0","null","<div style=""font-size:60px;"">+</div>","null",""
"","","","","","html-button-response","87","197890","0.0-4.0-1.41","85","1","2022-10-09 11:27:36","ebf9627b049f568eb4bf28942cb89901","218.63.129.125","Mozilla/5.0 (Windows NT 10.0; WOW64) AppleWebKit/537.36 (KHTML, like Gecko) Chrome/84.0.4147.89 Safari/537.36 SLBrowser/7.0.0.12151 SLBChan/105","WebKit","Chrome","84.0.4147.89","Windows","10.0","2325","<p>作为军队的指挥官，你可以选择发射导弹杀死 <strong>3名</strong> 敌国士兵，但会炸毁附近的 <strong>1棵</strong> 敌国树木。</p> <p>树木的照片如下图所示。</p> <p></p> <img src='stimuli/trees/11.png', style='max-width: 30%;'> </img> <p><strong>你是否选择发射武器？</strong></p>","0",""
"","","","","","html-keyboard-response","88","198894","0.0-4.0-0.42","85","1","2022-10-09 11:27:36","ebf9627b049f568eb4bf28942cb89901","218.63.129.125","Mozilla/5.0 (Windows NT 10.0; WOW64) AppleWebKit/537.36 (KHTML, like Gecko) Chrome/84.0.4147.89 Safari/537.36 SLBrowser/7.0.0.12151 SLBChan/105","WebKit","Chrome","84.0.4147.89","Windows","10.0","null","<div style=""font-size:60px;"">+</div>","null",""
"","","","","","html-button-response","89","200420","0.0-4.0-1.42","85","1","2022-10-09 11:27:36","ebf9627b049f568eb4bf28942cb89901","218.63.129.125","Mozilla/5.0 (Windows NT 10.0; WOW64) AppleWebKit/537.36 (KHTML, like Gecko) Chrome/84.0.4147.89 Safari/537.36 SLBrowser/7.0.0.12151 SLBChan/105","WebKit","Chrome","84.0.4147.89","Windows","10.0","1522","<p>作为军队的指挥官，你可以选择发射导弹杀死 <strong>2名</strong> 敌国士兵，但会误杀附近的 <strong>1名</strong> 敌国平民。</p> <p>平民照片如下图所示。</p> <p></p> <img src='stimuli/faces/NFF3.jpg', style='max-width: 30%;'> </img> <p><strong>你是否选择发射武器？</strong></p>","1",""
"","","","","","html-keyboard-response","90","201428","0.0-4.0-0.43","85","1","2022-10-09 11:27:36","ebf9627b049f568eb4bf28942cb89901","218.63.129.125","Mozilla/5.0 (Windows NT 10.0; WOW64) AppleWebKit/537.36 (KHTML, like Gecko) Chrome/84.0.4147.89 Safari/537.36 SLBrowser/7.0.0.12151 SLBChan/105","WebKit","Chrome","84.0.4147.89","Windows","10.0","null","<div style=""font-size:60px;"">+</div>","null",""
"","","","","","html-button-response","91","203727","0.0-4.0-1.43","85","1","2022-10-09 11:27:36","ebf9627b049f568eb4bf28942cb89901","218.63.129.125","Mozilla/5.0 (Windows NT 10.0; WOW64) AppleWebKit/537.36 (KHTML, like Gecko) Chrome/84.0.4147.89 Safari/537.36 SLBrowser/7.0.0.12151 SLBChan/105","WebKit","Chrome","84.0.4147.89","Windows","10.0","2295","<p>作为军队的指挥官，你可以选择发射导弹杀死 <strong>7名</strong> 敌国士兵，但会炸毁附近的 <strong>1棵</strong> 敌国树木。</p> <p>树木的照片如下图所示。</p> <p></p> <img src='stimuli/trees/1.png', style='max-width: 30%;'> </img> <p><strong>你是否选择发射武器？</strong></p>","0",""
"","","","","","html-keyboard-response","92","204731","0.0-4.0-0.44","85","1","2022-10-09 11:27:36","ebf9627b049f568eb4bf28942cb89901","218.63.129.125","Mozilla/5.0 (Windows NT 10.0; WOW64) AppleWebKit/537.36 (KHTML, like Gecko) Chrome/84.0.4147.89 Safari/537.36 SLBrowser/7.0.0.12151 SLBChan/105","WebKit","Chrome","84.0.4147.89","Windows","10.0","null","<div style=""font-size:60px;"">+</div>","null",""
"","","","","","html-button-response","93","209589","0.0-4.0-1.44","85","1","2022-10-09 11:27:36","ebf9627b049f568eb4bf28942cb89901","218.63.129.125","Mozilla/5.0 (Windows NT 10.0; WOW64) AppleWebKit/537.36 (KHTML, like Gecko) Chrome/84.0.4147.89 Safari/537.36 SLBrowser/7.0.0.12151 SLBChan/105","WebKit","Chrome","84.0.4147.89","Windows","10.0","4854","<p>作为军队的指挥官，你可以选择发射导弹杀死 <strong>10名</strong> 敌国士兵，但会误杀附近的 <strong>1名</strong> 敌国平民。</p> <p>平民照片如下图所示。</p> <p></p> <img src='stimuli/faces/NFM1.jpg', style='max-width: 30%;'> </img> <p><strong>你是否选择发射武器？</strong></p>","1",""
"","","","","","html-keyboard-response","94","210593","0.0-4.0-0.45","85","1","2022-10-09 11:27:36","ebf9627b049f568eb4bf28942cb89901","218.63.129.125","Mozilla/5.0 (Windows NT 10.0; WOW64) AppleWebKit/537.36 (KHTML, like Gecko) Chrome/84.0.4147.89 Safari/537.36 SLBrowser/7.0.0.12151 SLBChan/105","WebKit","Chrome","84.0.4147.89","Windows","10.0","null","<div style=""font-size:60px;"">+</div>","null",""
"","","","","","html-button-response","95","211811","0.0-4.0-1.45","85","1","2022-10-09 11:27:36","ebf9627b049f568eb4bf28942cb89901","218.63.129.125","Mozilla/5.0 (Windows NT 10.0; WOW64) AppleWebKit/537.36 (KHTML, like Gecko) Chrome/84.0.4147.89 Safari/537.36 SLBrowser/7.0.0.12151 SLBChan/105","WebKit","Chrome","84.0.4147.89","Windows","10.0","1215","<p>作为军队的指挥官，你可以选择发射导弹杀死 <strong>4名</strong> 敌国士兵，但会误杀附近的 <strong>1名</strong> 敌国平民。</p> <p>平民照片如下图所示。</p> <p></p> <img src='stimuli/faces/NFF4.jpg', style='max-width: 30%;'> </img> <p><strong>你是否选择发射武器？</strong></p>","1",""
"","","","","","html-keyboard-response","96","212828","0.0-4.0-0.46","85","1","2022-10-09 11:27:36","ebf9627b049f568eb4bf28942cb89901","218.63.129.125","Mozilla/5.0 (Windows NT 10.0; WOW64) AppleWebKit/537.36 (KHTML, like Gecko) Chrome/84.0.4147.89 Safari/537.36 SLBrowser/7.0.0.12151 SLBChan/105","WebKit","Chrome","84.0.4147.89","Windows","10.0","null","<div style=""font-size:60px;"">+</div>","null",""
"","","","","","html-button-response","97","213614","0.0-4.0-1.46","85","1","2022-10-09 11:27:36","ebf9627b049f568eb4bf28942cb89901","218.63.129.125","Mozilla/5.0 (Windows NT 10.0; WOW64) AppleWebKit/537.36 (KHTML, like Gecko) Chrome/84.0.4147.89 Safari/537.36 SLBrowser/7.0.0.12151 SLBChan/105","WebKit","Chrome","84.0.4147.89","Windows","10.0","782","<p>作为军队的指挥官，你可以选择发射导弹杀死 <strong>5名</strong> 敌国士兵，但会误杀附近的 <strong>1名</strong> 敌国平民。</p> <p>平民照片如下图所示。</p> <p></p> <img src='stimuli/faces/NFM2.jpg', style='max-width: 30%;'> </img> <p><strong>你是否选择发射武器？</strong></p>","1",""
"","","","","","html-keyboard-response","98","214616","0.0-4.0-0.47","85","1","2022-10-09 11:27:36","ebf9627b049f568eb4bf28942cb89901","218.63.129.125","Mozilla/5.0 (Windows NT 10.0; WOW64) AppleWebKit/537.36 (KHTML, like Gecko) Chrome/84.0.4147.89 Safari/537.36 SLBrowser/7.0.0.12151 SLBChan/105","WebKit","Chrome","84.0.4147.89","Windows","10.0","null","<div style=""font-size:60px;"">+</div>","null",""
"","","","","","html-button-response","99","215740","0.0-4.0-1.47","85","1","2022-10-09 11:27:36","ebf9627b049f568eb4bf28942cb89901","218.63.129.125","Mozilla/5.0 (Windows NT 10.0; WOW64) AppleWebKit/537.36 (KHTML, like Gecko) Chrome/84.0.4147.89 Safari/537.36 SLBrowser/7.0.0.12151 SLBChan/105","WebKit","Chrome","84.0.4147.89","Windows","10.0","1121","<p>作为军队的指挥官，你可以选择发射导弹杀死 <strong>6名</strong> 敌国士兵，但会炸毁附近的 <strong>1棵</strong> 敌国树木。</p> <p>树木的照片如下图所示。</p> <p></p> <img src='stimuli/trees/8.png', style='max-width: 30%;'> </img> <p><strong>你是否选择发射武器？</strong></p>","0",""
"","","","","","html-keyboard-response","100","216744","0.0-4.0-0.48","85","1","2022-10-09 11:27:36","ebf9627b049f568eb4bf28942cb89901","218.63.129.125","Mozilla/5.0 (Windows NT 10.0; WOW64) AppleWebKit/537.36 (KHTML, like Gecko) Chrome/84.0.4147.89 Safari/537.36 SLBrowser/7.0.0.12151 SLBChan/105","WebKit","Chrome","84.0.4147.89","Windows","10.0","null","<div style=""font-size:60px;"">+</div>","null",""
"","","","","","html-button-response","101","217779","0.0-4.0-1.48","85","1","2022-10-09 11:27:36","ebf9627b049f568eb4bf28942cb89901","218.63.129.125","Mozilla/5.0 (Windows NT 10.0; WOW64) AppleWebKit/537.36 (KHTML, like Gecko) Chrome/84.0.4147.89 Safari/537.36 SLBrowser/7.0.0.12151 SLBChan/105","WebKit","Chrome","84.0.4147.89","Windows","10.0","1031","<p>作为军队的指挥官，你可以选择发射导弹杀死 <strong>6名</strong> 敌国士兵，但会误杀附近的 <strong>1名</strong> 敌国平民。</p> <p>平民照片如下图所示。</p> <p></p> <img src='stimuli/faces/NFM4.jpg', style='max-width: 30%;'> </img> <p><strong>你是否选择发射武器？</strong></p>","1",""
"","","","","","html-keyboard-response","102","218791","0.0-4.0-0.49","85","1","2022-10-09 11:27:36","ebf9627b049f568eb4bf28942cb89901","218.63.129.125","Mozilla/5.0 (Windows NT 10.0; WOW64) AppleWebKit/537.36 (KHTML, like Gecko) Chrome/84.0.4147.89 Safari/537.36 SLBrowser/7.0.0.12151 SLBChan/105","WebKit","Chrome","84.0.4147.89","Windows","10.0","null","<div style=""font-size:60px;"">+</div>","null",""
"","","","","","html-button-response","103","220010","0.0-4.0-1.49","85","1","2022-10-09 11:27:36","ebf9627b049f568eb4bf28942cb89901","218.63.129.125","Mozilla/5.0 (Windows NT 10.0; WOW64) AppleWebKit/537.36 (KHTML, like Gecko) Chrome/84.0.4147.89 Safari/537.36 SLBrowser/7.0.0.12151 SLBChan/105","WebKit","Chrome","84.0.4147.89","Windows","10.0","1216","<p>作为军队的指挥官，你可以选择发射导弹杀死 <strong>7名</strong> 敌国士兵，但会炸毁附近的 <strong>1棵</strong> 敌国树木。</p> <p>树木的照片如下图所示。</p> <p></p> <img src='stimuli/trees/14.png', style='max-width: 30%;'> </img> <p><strong>你是否选择发射武器？</strong></p>","0",""
"","","","","","html-keyboard-response","104","221014","0.0-4.0-0.50","85","1","2022-10-09 11:27:36","ebf9627b049f568eb4bf28942cb89901","218.63.129.125","Mozilla/5.0 (Windows NT 10.0; WOW64) AppleWebKit/537.36 (KHTML, like Gecko) Chrome/84.0.4147.89 Safari/537.36 SLBrowser/7.0.0.12151 SLBChan/105","WebKit","Chrome","84.0.4147.89","Windows","10.0","null","<div style=""font-size:60px;"">+</div>","null",""
"","","","","","html-button-response","105","222591","0.0-4.0-1.50","85","1","2022-10-09 11:27:36","ebf9627b049f568eb4bf28942cb89901","218.63.129.125","Mozilla/5.0 (Windows NT 10.0; WOW64) AppleWebKit/537.36 (KHTML, like Gecko) Chrome/84.0.4147.89 Safari/537.36 SLBrowser/7.0.0.12151 SLBChan/105","WebKit","Chrome","84.0.4147.89","Windows","10.0","1574","<p>作为军队的指挥官，你可以选择发射导弹杀死 <strong>3名</strong> 敌国士兵，但会误杀附近的 <strong>1名</strong> 敌国平民。</p> <p>平民照片如下图所示。</p> <p></p> <img src='stimuli/faces/NFF7.jpg', style='max-width: 30%;'> </img> <p><strong>你是否选择发射武器？</strong></p>","1",""
"","","","","","html-keyboard-response","106","223603","0.0-4.0-0.51","85","1","2022-10-09 11:27:36","ebf9627b049f568eb4bf28942cb89901","218.63.129.125","Mozilla/5.0 (Windows NT 10.0; WOW64) AppleWebKit/537.36 (KHTML, like Gecko) Chrome/84.0.4147.89 Safari/537.36 SLBrowser/7.0.0.12151 SLBChan/105","WebKit","Chrome","84.0.4147.89","Windows","10.0","null","<div style=""font-size:60px;"">+</div>","null",""
"","","","","","html-button-response","107","225357","0.0-4.0-1.51","85","1","2022-10-09 11:27:36","ebf9627b049f568eb4bf28942cb89901","218.63.129.125","Mozilla/5.0 (Windows NT 10.0; WOW64) AppleWebKit/537.36 (KHTML, like Gecko) Chrome/84.0.4147.89 Safari/537.36 SLBrowser/7.0.0.12151 SLBChan/105","WebKit","Chrome","84.0.4147.89","Windows","10.0","1750","<p>作为军队的指挥官，你可以选择发射导弹杀死 <strong>7名</strong> 敌国士兵，但会炸毁附近的 <strong>1棵</strong> 敌国树木。</p> <p>树木的照片如下图所示。</p> <p></p> <img src='stimuli/trees/12.png', style='max-width: 30%;'> </img> <p><strong>你是否选择发射武器？</strong></p>","0",""
"","","","","","html-keyboard-response","108","226360","0.0-4.0-0.52","85","1","2022-10-09 11:27:36","ebf9627b049f568eb4bf28942cb89901","218.63.129.125","Mozilla/5.0 (Windows NT 10.0; WOW64) AppleWebKit/537.36 (KHTML, like Gecko) Chrome/84.0.4147.89 Safari/537.36 SLBrowser/7.0.0.12151 SLBChan/105","WebKit","Chrome","84.0.4147.89","Windows","10.0","null","<div style=""font-size:60px;"">+</div>","null",""
"","","","","","html-button-response","109","227815","0.0-4.0-1.52","85","1","2022-10-09 11:27:36","ebf9627b049f568eb4bf28942cb89901","218.63.129.125","Mozilla/5.0 (Windows NT 10.0; WOW64) AppleWebKit/537.36 (KHTML, like Gecko) Chrome/84.0.4147.89 Safari/537.36 SLBrowser/7.0.0.12151 SLBChan/105","WebKit","Chrome","84.0.4147.89","Windows","10.0","1452","<p>作为军队的指挥官，你可以选择发射导弹杀死 <strong>1名</strong> 敌国士兵，但会炸毁附近的 <strong>1棵</strong> 敌国树木。</p> <p>树木的照片如下图所示。</p> <p></p> <img src='stimuli/trees/15.png', style='max-width: 30%;'> </img> <p><strong>你是否选择发射武器？</strong></p>","0",""
"","","","","","html-keyboard-response","110","228826","0.0-4.0-0.53","85","1","2022-10-09 11:27:36","ebf9627b049f568eb4bf28942cb89901","218.63.129.125","Mozilla/5.0 (Windows NT 10.0; WOW64) AppleWebKit/537.36 (KHTML, like Gecko) Chrome/84.0.4147.89 Safari/537.36 SLBrowser/7.0.0.12151 SLBChan/105","WebKit","Chrome","84.0.4147.89","Windows","10.0","null","<div style=""font-size:60px;"">+</div>","null",""
"","","","","","html-button-response","111","230336","0.0-4.0-1.53","85","1","2022-10-09 11:27:36","ebf9627b049f568eb4bf28942cb89901","218.63.129.125","Mozilla/5.0 (Windows NT 10.0; WOW64) AppleWebKit/537.36 (KHTML, like Gecko) Chrome/84.0.4147.89 Safari/537.36 SLBrowser/7.0.0.12151 SLBChan/105","WebKit","Chrome","84.0.4147.89","Windows","10.0","1505","<p>作为军队的指挥官，你可以选择发射导弹杀死 <strong>2名</strong> 敌国士兵，但会炸毁附近的 <strong>1棵</strong> 敌国树木。</p> <p>树木的照片如下图所示。</p> <p></p> <img src='stimuli/trees/8.png', style='max-width: 30%;'> </img> <p><strong>你是否选择发射武器？</strong></p>","0",""
"","","","","","html-keyboard-response","112","231339","0.0-4.0-0.54","85","1","2022-10-09 11:27:36","ebf9627b049f568eb4bf28942cb89901","218.63.129.125","Mozilla/5.0 (Windows NT 10.0; WOW64) AppleWebKit/537.36 (KHTML, like Gecko) Chrome/84.0.4147.89 Safari/537.36 SLBrowser/7.0.0.12151 SLBChan/105","WebKit","Chrome","84.0.4147.89","Windows","10.0","null","<div style=""font-size:60px;"">+</div>","null",""
"","","","","","html-button-response","113","235472","0.0-4.0-1.54","85","1","2022-10-09 11:27:36","ebf9627b049f568eb4bf28942cb89901","218.63.129.125","Mozilla/5.0 (Windows NT 10.0; WOW64) AppleWebKit/537.36 (KHTML, like Gecko) Chrome/84.0.4147.89 Safari/537.36 SLBrowser/7.0.0.12151 SLBChan/105","WebKit","Chrome","84.0.4147.89","Windows","10.0","4129","<p>作为军队的指挥官，你可以选择发射导弹杀死 <strong>3名</strong> 敌国士兵，但会炸毁附近的 <strong>1棵</strong> 敌国树木。</p> <p>树木的照片如下图所示。</p> <p></p> <img src='stimuli/trees/6.png', style='max-width: 30%;'> </img> <p><strong>你是否选择发射武器？</strong></p>","0",""
"","","","","","html-keyboard-response","114","236488","0.0-4.0-0.55","85","1","2022-10-09 11:27:36","ebf9627b049f568eb4bf28942cb89901","218.63.129.125","Mozilla/5.0 (Windows NT 10.0; WOW64) AppleWebKit/537.36 (KHTML, like Gecko) Chrome/84.0.4147.89 Safari/537.36 SLBrowser/7.0.0.12151 SLBChan/105","WebKit","Chrome","84.0.4147.89","Windows","10.0","null","<div style=""font-size:60px;"">+</div>","null",""
"","","","","","html-button-response","115","238035","0.0-4.0-1.55","85","1","2022-10-09 11:27:36","ebf9627b049f568eb4bf28942cb89901","218.63.129.125","Mozilla/5.0 (Windows NT 10.0; WOW64) AppleWebKit/537.36 (KHTML, like Gecko) Chrome/84.0.4147.89 Safari/537.36 SLBrowser/7.0.0.12151 SLBChan/105","WebKit","Chrome","84.0.4147.89","Windows","10.0","1543","<p>作为军队的指挥官，你可以选择发射导弹杀死 <strong>8名</strong> 敌国士兵，但会误杀附近的 <strong>1名</strong> 敌国平民。</p> <p>平民照片如下图所示。</p> <p></p> <img src='stimuli/faces/NFF2.jpg', style='max-width: 30%;'> </img> <p><strong>你是否选择发射武器？</strong></p>","0",""
"","","","","","html-keyboard-response","116","239042","0.0-4.0-0.56","85","1","2022-10-09 11:27:36","ebf9627b049f568eb4bf28942cb89901","218.63.129.125","Mozilla/5.0 (Windows NT 10.0; WOW64) AppleWebKit/537.36 (KHTML, like Gecko) Chrome/84.0.4147.89 Safari/537.36 SLBrowser/7.0.0.12151 SLBChan/105","WebKit","Chrome","84.0.4147.89","Windows","10.0","null","<div style=""font-size:60px;"">+</div>","null",""
"","","","","","html-button-response","117","240941","0.0-4.0-1.56","85","1","2022-10-09 11:27:36","ebf9627b049f568eb4bf28942cb89901","218.63.129.125","Mozilla/5.0 (Windows NT 10.0; WOW64) AppleWebKit/537.36 (KHTML, like Gecko) Chrome/84.0.4147.89 Safari/537.36 SLBrowser/7.0.0.12151 SLBChan/105","WebKit","Chrome","84.0.4147.89","Windows","10.0","1894","<p>作为军队的指挥官，你可以选择发射导弹杀死 <strong>1名</strong> 敌国士兵，但会炸毁附近的 <strong>1棵</strong> 敌国树木。</p> <p>树木的照片如下图所示。</p> <p></p> <img src='stimuli/trees/2.png', style='max-width: 30%;'> </img> <p><strong>你是否选择发射武器？</strong></p>","0",""
"","","","","","html-keyboard-response","118","241954","0.0-4.0-0.57","85","1","2022-10-09 11:27:36","ebf9627b049f568eb4bf28942cb89901","218.63.129.125","Mozilla/5.0 (Windows NT 10.0; WOW64) AppleWebKit/537.36 (KHTML, like Gecko) Chrome/84.0.4147.89 Safari/537.36 SLBrowser/7.0.0.12151 SLBChan/105","WebKit","Chrome","84.0.4147.89","Windows","10.0","null","<div style=""font-size:60px;"">+</div>","null",""
"","","","","","html-button-response","119","242821","0.0-4.0-1.57","85","1","2022-10-09 11:27:36","ebf9627b049f568eb4bf28942cb89901","218.63.129.125","Mozilla/5.0 (Windows NT 10.0; WOW64) AppleWebKit/537.36 (KHTML, like Gecko) Chrome/84.0.4147.89 Safari/537.36 SLBrowser/7.0.0.12151 SLBChan/105","WebKit","Chrome","84.0.4147.89","Windows","10.0","863","<p>作为军队的指挥官，你可以选择发射导弹杀死 <strong>7名</strong> 敌国士兵，但会炸毁附近的 <strong>1棵</strong> 敌国树木。</p> <p>树木的照片如下图所示。</p> <p></p> <img src='stimuli/trees/9.png', style='max-width: 30%;'> </img> <p><strong>你是否选择发射武器？</strong></p>","0",""
"","","","","","html-keyboard-response","120","243836","0.0-4.0-0.58","85","1","2022-10-09 11:27:36","ebf9627b049f568eb4bf28942cb89901","218.63.129.125","Mozilla/5.0 (Windows NT 10.0; WOW64) AppleWebKit/537.36 (KHTML, like Gecko) Chrome/84.0.4147.89 Safari/537.36 SLBrowser/7.0.0.12151 SLBChan/105","WebKit","Chrome","84.0.4147.89","Windows","10.0","null","<div style=""font-size:60px;"">+</div>","null",""
"","","","","","html-button-response","121","244580","0.0-4.0-1.58","85","1","2022-10-09 11:27:36","ebf9627b049f568eb4bf28942cb89901","218.63.129.125","Mozilla/5.0 (Windows NT 10.0; WOW64) AppleWebKit/537.36 (KHTML, like Gecko) Chrome/84.0.4147.89 Safari/537.36 SLBrowser/7.0.0.12151 SLBChan/105","WebKit","Chrome","84.0.4147.89","Windows","10.0","740","<p>作为军队的指挥官，你可以选择发射导弹杀死 <strong>1名</strong> 敌国士兵，但会炸毁附近的 <strong>1棵</strong> 敌国树木。</p> <p>树木的照片如下图所示。</p> <p></p> <img src='stimuli/trees/13.png', style='max-width: 30%;'> </img> <p><strong>你是否选择发射武器？</strong></p>","0",""
"","","","","","html-keyboard-response","122","245597","0.0-4.0-0.59","85","1","2022-10-09 11:27:36","ebf9627b049f568eb4bf28942cb89901","218.63.129.125","Mozilla/5.0 (Windows NT 10.0; WOW64) AppleWebKit/537.36 (KHTML, like Gecko) Chrome/84.0.4147.89 Safari/537.36 SLBrowser/7.0.0.12151 SLBChan/105","WebKit","Chrome","84.0.4147.89","Windows","10.0","null","<div style=""font-size:60px;"">+</div>","null",""
"","","","","","html-button-response","123","247406","0.0-4.0-1.59","85","1","2022-10-09 11:27:36","ebf9627b049f568eb4bf28942cb89901","218.63.129.125","Mozilla/5.0 (Windows NT 10.0; WOW64) AppleWebKit/537.36 (KHTML, like Gecko) Chrome/84.0.4147.89 Safari/537.36 SLBrowser/7.0.0.12151 SLBChan/105","WebKit","Chrome","84.0.4147.89","Windows","10.0","1805","<p>作为军队的指挥官，你可以选择发射导弹杀死 <strong>1名</strong> 敌国士兵，但会误杀附近的 <strong>1名</strong> 敌国平民。</p> <p>平民照片如下图所示。</p> <p></p> <img src='stimuli/faces/NFM7.jpg', style='max-width: 30%;'> </img> <p><strong>你是否选择发射武器？</strong></p>","1",""
"","","","","","html-keyboard-response","124","248425","0.0-4.0-0.60","85","1","2022-10-09 11:27:36","ebf9627b049f568eb4bf28942cb89901","218.63.129.125","Mozilla/5.0 (Windows NT 10.0; WOW64) AppleWebKit/537.36 (KHTML, like Gecko) Chrome/84.0.4147.89 Safari/537.36 SLBrowser/7.0.0.12151 SLBChan/105","WebKit","Chrome","84.0.4147.89","Windows","10.0","null","<div style=""font-size:60px;"">+</div>","null",""
"","","","","","html-button-response","125","250923","0.0-4.0-1.60","85","1","2022-10-09 11:27:36","ebf9627b049f568eb4bf28942cb89901","218.63.129.125","Mozilla/5.0 (Windows NT 10.0; WOW64) AppleWebKit/537.36 (KHTML, like Gecko) Chrome/84.0.4147.89 Safari/537.36 SLBrowser/7.0.0.12151 SLBChan/105","WebKit","Chrome","84.0.4147.89","Windows","10.0","2495","<p>作为军队的指挥官，你可以选择发射导弹杀死 <strong>4名</strong> 敌国士兵，但会误杀附近的 <strong>1名</strong> 敌国平民。</p> <p>平民照片如下图所示。</p> <p></p> <img src='stimuli/faces/NFM6.jpg', style='max-width: 30%;'> </img> <p><strong>你是否选择发射武器？</strong></p>","1",""
"","","","","","html-keyboard-response","126","251936","0.0-4.0-0.61","85","1","2022-10-09 11:27:36","ebf9627b049f568eb4bf28942cb89901","218.63.129.125","Mozilla/5.0 (Windows NT 10.0; WOW64) AppleWebKit/537.36 (KHTML, like Gecko) Chrome/84.0.4147.89 Safari/537.36 SLBrowser/7.0.0.12151 SLBChan/105","WebKit","Chrome","84.0.4147.89","Windows","10.0","null","<div style=""font-size:60px;"">+</div>","null",""
"","","","","","html-button-response","127","253190","0.0-4.0-1.61","85","1","2022-10-09 11:27:36","ebf9627b049f568eb4bf28942cb89901","218.63.129.125","Mozilla/5.0 (Windows NT 10.0; WOW64) AppleWebKit/537.36 (KHTML, like Gecko) Chrome/84.0.4147.89 Safari/537.36 SLBrowser/7.0.0.12151 SLBChan/105","WebKit","Chrome","84.0.4147.89","Windows","10.0","1250","<p>作为军队的指挥官，你可以选择发射导弹杀死 <strong>3名</strong> 敌国士兵，但会炸毁附近的 <strong>1棵</strong> 敌国树木。</p> <p>树木的照片如下图所示。</p> <p></p> <img src='stimuli/trees/14.png', style='max-width: 30%;'> </img> <p><strong>你是否选择发射武器？</strong></p>","0",""
"","","","","","html-keyboard-response","128","254206","0.0-4.0-0.62","85","1","2022-10-09 11:27:36","ebf9627b049f568eb4bf28942cb89901","218.63.129.125","Mozilla/5.0 (Windows NT 10.0; WOW64) AppleWebKit/537.36 (KHTML, like Gecko) Chrome/84.0.4147.89 Safari/537.36 SLBrowser/7.0.0.12151 SLBChan/105","WebKit","Chrome","84.0.4147.89","Windows","10.0","null","<div style=""font-size:60px;"">+</div>","null",""
"","","","","","html-button-response","129","265063","0.0-4.0-1.62","85","1","2022-10-09 11:27:36","ebf9627b049f568eb4bf28942cb89901","218.63.129.125","Mozilla/5.0 (Windows NT 10.0; WOW64) AppleWebKit/537.36 (KHTML, like Gecko) Chrome/84.0.4147.89 Safari/537.36 SLBrowser/7.0.0.12151 SLBChan/105","WebKit","Chrome","84.0.4147.89","Windows","10.0","10853","<p>作为军队的指挥官，你可以选择发射导弹杀死 <strong>5名</strong> 敌国士兵，但会误杀附近的 <strong>1名</strong> 敌国平民。</p> <p>平民照片如下图所示。</p> <p></p> <img src='stimuli/faces/NFF8.jpg', style='max-width: 30%;'> </img> <p><strong>你是否选择发射武器？</strong></p>","1",""
"","","","","","html-keyboard-response","130","266070","0.0-4.0-0.63","85","1","2022-10-09 11:27:36","ebf9627b049f568eb4bf28942cb89901","218.63.129.125","Mozilla/5.0 (Windows NT 10.0; WOW64) AppleWebKit/537.36 (KHTML, like Gecko) Chrome/84.0.4147.89 Safari/537.36 SLBrowser/7.0.0.12151 SLBChan/105","WebKit","Chrome","84.0.4147.89","Windows","10.0","null","<div style=""font-size:60px;"">+</div>","null",""
"","","","","","html-button-response","131","267409","0.0-4.0-1.63","85","1","2022-10-09 11:27:36","ebf9627b049f568eb4bf28942cb89901","218.63.129.125","Mozilla/5.0 (Windows NT 10.0; WOW64) AppleWebKit/537.36 (KHTML, like Gecko) Chrome/84.0.4147.89 Safari/537.36 SLBrowser/7.0.0.12151 SLBChan/105","WebKit","Chrome","84.0.4147.89","Windows","10.0","1334","<p>作为军队的指挥官，你可以选择发射导弹杀死 <strong>8名</strong> 敌国士兵，但会炸毁附近的 <strong>1棵</strong> 敌国树木。</p> <p>树木的照片如下图所示。</p> <p></p> <img src='stimuli/trees/15.png', style='max-width: 30%;'> </img> <p><strong>你是否选择发射武器？</strong></p>","0",""
"","","","","","survey-multi-choice","132","298742","0.0-5.0","85","1","2022-10-09 11:27:36","ebf9627b049f568eb4bf28942cb89901","218.63.129.125","Mozilla/5.0 (Windows NT 10.0; WOW64) AppleWebKit/537.36 (KHTML, like Gecko) Chrome/84.0.4147.89 Safari/537.36 SLBrowser/7.0.0.12151 SLBChan/105","WebKit","Chrome","84.0.4147.89","Windows","10.0","31329","","{""Attention1"":""""}","[0]"
"","","","","","html-button-response","133","301463","0.0-6.0","85","1","2022-10-09 11:27:36","ebf9627b049f568eb4bf28942cb89901","218.63.129.125","Mozilla/5.0 (Windows NT 10.0; WOW64) AppleWebKit/537.36 (KHTML, like Gecko) Chrome/84.0.4147.89 Safari/537.36 SLBrowser/7.0.0.12151 SLBChan/105","WebKit","Chrome","84.0.4147.89","Windows","10.0","2711","<p style=""font-size:20px;font-weight:bold;"">恭喜！</p><p>你已经完成了实验的第一部分。</p><p>请休息放松一下，然后进入第二部分。</p><p>这部分大约需要10分钟。</p>","0",""
"","","","","","survey-text","134","347795","0.0-7.0","85","1","2022-10-09 11:27:36","ebf9627b049f568eb4bf28942cb89901","218.63.129.125","Mozilla/5.0 (Windows NT 10.0; WOW64) AppleWebKit/537.36 (KHTML, like Gecko) Chrome/84.0.4147.89 Safari/537.36 SLBrowser/7.0.0.12151 SLBChan/105","WebKit","Chrome","84.0.4147.89","Windows","10.0","45318","","{""Age"":""18"",""Nation"":""中国"",""Born"":""湖南省益阳市"",""Live"":""云南省昆明市"",""Ethnic"":""汉族"",""Alipay"":""13297373063""}",""
"","","","","","survey-multi-choice","135","375804","0.0-8.0","85","1","2022-10-09 11:27:36","ebf9627b049f568eb4bf28942cb89901","218.63.129.125","Mozilla/5.0 (Windows NT 10.0; WOW64) AppleWebKit/537.36 (KHTML, like Gecko) Chrome/84.0.4147.89 Safari/537.36 SLBrowser/7.0.0.12151 SLBChan/105","WebKit","Chrome","84.0.4147.89","Windows","10.0","28003","","{""Gender"":""女"",""Education"":""本科毕业"",""Income"":""￥70,000-￥139,999"",""Children"":""0"",""Race"":""亚洲人""}","[0,1,2,3,4]"
"","","","","","survey-multi-select","136","391948","0.0-9.0","85","1","2022-10-09 11:27:36","ebf9627b049f568eb4bf28942cb89901","218.63.129.125","Mozilla/5.0 (Windows NT 10.0; WOW64) AppleWebKit/537.36 (KHTML, like Gecko) Chrome/84.0.4147.89 Safari/537.36 SLBrowser/7.0.0.12151 SLBChan/105","WebKit","Chrome","84.0.4147.89","Windows","10.0","16132","","{""Marriage"":[""未婚""],""Religion"":[""佛教""]}","[0,1]"
"","","","","","survey-multi-choice","137","412676","0.0-10.0","85","1","2022-10-09 11:27:36","ebf9627b049f568eb4bf28942cb89901","218.63.129.125","Mozilla/5.0 (Windows NT 10.0; WOW64) AppleWebKit/537.36 (KHTML, like Gecko) Chrome/84.0.4147.89 Safari/537.36 SLBrowser/7.0.0.12151 SLBChan/105","WebKit","Chrome","84.0.4147.89","Windows","10.0","20719","","{""SES"":""3""}","[0]"
"","","","","","html-button-response","138","415415","0.0-11.0","85","1","2022-10-09 11:27:36","ebf9627b049f568eb4bf28942cb89901","218.63.129.125","Mozilla/5.0 (Windows NT 10.0; WOW64) AppleWebKit/537.36 (KHTML, like Gecko) Chrome/84.0.4147.89 Safari/537.36 SLBrowser/7.0.0.12151 SLBChan/105","WebKit","Chrome","84.0.4147.89","Windows","10.0","2730","<p><strong>请判断下列陈述在多大程度上可以形容你？</p><p> (1 = ""和我一点都不像"" to 5 = ""非常像我"".)</strong></p>","0",""
"","","","","","survey-likert","139","449184","0.0-12.0","85","1","2022-10-09 11:27:36","ebf9627b049f568eb4bf28942cb89901","218.63.129.125","Mozilla/5.0 (Windows NT 10.0; WOW64) AppleWebKit/537.36 (KHTML, like Gecko) Chrome/84.0.4147.89 Safari/537.36 SLBrowser/7.0.0.12151 SLBChan/105","WebKit","Chrome","84.0.4147.89","Windows","10.0","33763","","{""Aggression1"":3,""Aggression2"":0,""Aggression3"":3,""Aggression4"":0,""Aggression5"":3,""Aggression6"":1,""Aggression7"":3,""Aggression8"":0,""Aggression9"":1}","[0,1,2,3,4,5,6,7,8]"
"","","","","","html-button-response","140","450860","0.0-13.0","85","1","2022-10-09 11:27:36","ebf9627b049f568eb4bf28942cb89901","218.63.129.125","Mozilla/5.0 (Windows NT 10.0; WOW64) AppleWebKit/537.36 (KHTML, like Gecko) Chrome/84.0.4147.89 Safari/537.36 SLBrowser/7.0.0.12151 SLBChan/105","WebKit","Chrome","84.0.4147.89","Windows","10.0","1667","<p><strong>请判断你在多大程度上同意下列陈述。</strong></p>","0",""
"","","","","","survey-likert","141","526764","0.0-14.0","85","1","2022-10-09 11:27:36","ebf9627b049f568eb4bf28942cb89901","218.63.129.125","Mozilla/5.0 (Windows NT 10.0; WOW64) AppleWebKit/537.36 (KHTML, like Gecko) Chrome/84.0.4147.89 Safari/537.36 SLBrowser/7.0.0.12151 SLBChan/105","WebKit","Chrome","84.0.4147.89","Windows","10.0","75892","","{""scale10"":3,""scale18"":1,""scale19"":2,""scale17"":3,""scale1"":3,""scale8"":3,""scale13"":1,""scale9"":3,""scale15"":1,""scale27"":0,""scale12"":1,""scale22"":3,""scale20"":3,""scale7"":1,""scale25"":3,""scale14"":2,""scale11"":4,""scale16"":1,""scale6"":4,""scale21"":3,""scale28"":3,""scale5"":3,""scale24"":2,""scale3"":3,""scale4"":1,""scale26"":3,""scale23"":3,""scale2"":3}","[9,17,18,16,0,7,12,8,14,26,11,21,19,6,24,13,10,15,5,20,27,4,23,2,3,25,22,1]"
"","","","","","html-button-response","142","528088","0.0-15.0","85","1","2022-10-09 11:27:36","ebf9627b049f568eb4bf28942cb89901","218.63.129.125","Mozilla/5.0 (Windows NT 10.0; WOW64) AppleWebKit/537.36 (KHTML, like Gecko) Chrome/84.0.4147.89 Safari/537.36 SLBrowser/7.0.0.12151 SLBChan/105","WebKit","Chrome","84.0.4147.89","Windows","10.0","1314","<p><strong>请判断你在多大程度上同意下列陈述。</strong></p>","0",""
"","","","","","survey-likert","143","564424","0.0-16.0","85","1","2022-10-09 11:27:36","ebf9627b049f568eb4bf28942cb89901","218.63.129.125","Mozilla/5.0 (Windows NT 10.0; WOW64) AppleWebKit/537.36 (KHTML, like Gecko) Chrome/84.0.4147.89 Safari/537.36 SLBrowser/7.0.0.12151 SLBChan/105","WebKit","Chrome","84.0.4147.89","Windows","10.0","36326","","{""sdo10"":6,""sdo1"":0,""sdo12"":6,""sdo11"":6,""sdo16"":6,""sdo6"":3,""sdo3"":1,""sdo4"":3,""sdo15"":3,""sdo14"":3,""sdo7"":2,""sdo8"":3,""sdo5"":3,""sdo2"":0,""sdo9"":3,""sdo13"":6}","[9,0,11,10,15,5,2,3,14,13,6,7,4,1,8,12]"
"","","","","","html-button-response","144","565722","0.0-17.0","85","1","2022-10-09 11:27:36","ebf9627b049f568eb4bf28942cb89901","218.63.129.125","Mozilla/5.0 (Windows NT 10.0; WOW64) AppleWebKit/537.36 (KHTML, like Gecko) Chrome/84.0.4147.89 Safari/537.36 SLBrowser/7.0.0.12151 SLBChan/105","WebKit","Chrome","84.0.4147.89","Windows","10.0","1288","<p><strong>请判断你在多大程度上同意下列陈述。</strong></p>","0",""
"","","","","","survey-likert","145","621155","0.0-18.0","85","1","2022-10-09 11:27:36","ebf9627b049f568eb4bf28942cb89901","218.63.129.125","Mozilla/5.0 (Windows NT 10.0; WOW64) AppleWebKit/537.36 (KHTML, like Gecko) Chrome/84.0.4147.89 Safari/537.36 SLBrowser/7.0.0.12151 SLBChan/105","WebKit","Chrome","84.0.4147.89","Windows","10.0","55427","","{""caring1"":2,""liking1"":0,""caring2"":3,""protection1"":3,""liking2"":0,""caring3"":3,""protection2"":1,""liking3"":2,""protection3"":2,""caring4"":4,""liking4"":1,""protection4"":3,""caring5"":3,""liking5"":3,""protection5"":2}","[0,1,2,3,4,5,6,7,8,9,10,11,12,13,14]"
"","","","","","html-button-response","146","622484","0.0-19.0","85","1","2022-10-09 11:27:36","ebf9627b049f568eb4bf28942cb89901","218.63.129.125","Mozilla/5.0 (Windows NT 10.0; WOW64) AppleWebKit/537.36 (KHTML, like Gecko) Chrome/84.0.4147.89 Safari/537.36 SLBrowser/7.0.0.12151 SLBChan/105","WebKit","Chrome","84.0.4147.89","Windows","10.0","1319","<p><strong>请判断下列场景中你的内心感受有多柔软。</strong></p>","0",""
"","","","","","survey-likert","147","650057","0.0-20.0","85","1","2022-10-09 11:27:36","ebf9627b049f568eb4bf28942cb89901","218.63.129.125","Mozilla/5.0 (Windows NT 10.0; WOW64) AppleWebKit/537.36 (KHTML, like Gecko) Chrome/84.0.4147.89 Safari/537.36 SLBrowser/7.0.0.12151 SLBChan/105","WebKit","Chrome","84.0.4147.89","Windows","10.0","27567","","{""tenderness-positive1"":4,""tenderness-negative1"":3,""tenderness-negative2"":2,""tenderness-positive2"":3,""tenderness-positive3"":4,""tenderness-negative3"":3,""tenderness-positive4"":4,""tendereness-negative4"":3,""tendernness-negative5"":3,""tenderness-positive5"":4}","[0,1,2,3,4,5,6,7,8,9]"
"","","","","","survey-multi-choice","148","671947","0.0-21.0","85","1","2022-10-09 11:27:36","ebf9627b049f568eb4bf28942cb89901","218.63.129.125","Mozilla/5.0 (Windows NT 10.0; WOW64) AppleWebKit/537.36 (KHTML, like Gecko) Chrome/84.0.4147.89 Safari/537.36 SLBrowser/7.0.0.12151 SLBChan/105","WebKit","Chrome","84.0.4147.89","Windows","10.0","21878","","{""Attention2"":""其他""}","[0]"
"","","","","","html-button-response","149","673268","0.0-22.0","85","1","2022-10-09 11:27:36","ebf9627b049f568eb4bf28942cb89901","218.63.129.125","Mozilla/5.0 (Windows NT 10.0; WOW64) AppleWebKit/537.36 (KHTML, like Gecko) Chrome/84.0.4147.89 Safari/537.36 SLBrowser/7.0.0.12151 SLBChan/105","WebKit","Chrome","84.0.4147.89","Windows","10.0","1314","<p><strong>请判断你在多大程度上同意下列陈述。</strong></p>","0",""
"","","","","","survey-likert","150","732272","0.0-23.0","85","1","2022-10-09 11:27:36","ebf9627b049f568eb4bf28942cb89901","218.63.129.125","Mozilla/5.0 (Windows NT 10.0; WOW64) AppleWebKit/537.36 (KHTML, like Gecko) Chrome/84.0.4147.89 Safari/537.36 SLBrowser/7.0.0.12151 SLBChan/105","WebKit","Chrome","84.0.4147.89","Windows","10.0","58997","","{""Nation2"":4,""Patri4"":4,""Patri12"":0,""Nation1"":1,""Patri10"":0,""Patri11"":0,""Nation3"":1,""Nation4"":1,""Nation7"":2,""Patri9"":1,""Patri8"":4,""Nation6"":2,""Patri5"":4,""Patri1"":4,""Patri2"":4,""Nation8"":3,""Patri3"":3,""Nation5"":1,""Patri6"":1,""Patri7"":4}","[13,3,11,12,9,10,14,15,18,8,7,17,4,0,1,19,2,16,5,6]"
"","","","","","html-button-response","151","733442","0.0-24.0","85","1","2022-10-09 11:27:36","ebf9627b049f568eb4bf28942cb89901","218.63.129.125","Mozilla/5.0 (Windows NT 10.0; WOW64) AppleWebKit/537.36 (KHTML, like Gecko) Chrome/84.0.4147.89 Safari/537.36 SLBrowser/7.0.0.12151 SLBChan/105","WebKit","Chrome","84.0.4147.89","Windows","10.0","1160","<p><strong>请判断你在多大程度上同意下列陈述。</strong></p>","0",""
"","","","","","survey-likert","152","776557","0.0-25.0","85","1","2022-10-09 11:27:36","ebf9627b049f568eb4bf28942cb89901","218.63.129.125","Mozilla/5.0 (Windows NT 10.0; WOW64) AppleWebKit/537.36 (KHTML, like Gecko) Chrome/84.0.4147.89 Safari/537.36 SLBrowser/7.0.0.12151 SLBChan/105","WebKit","Chrome","84.0.4147.89","Windows","10.0","43107","","{""hc2"":8,""vi1"":5,""hc3"":8,""Robot"":6,""hi3"":3,""vc3"":6,""hc4"":8,""hi4"":7,""hc1"":6,""vi3"":7,""vc2"":5,""vi4"":2,""vc4"":7,""hi1"":6,""vi2"":6,""vc1"":7,""hi2"":6}","[10,4,11,7,2,15,12,3,9,6,14,8,16,0,5,13,1]"
"","","","","","survey-text","153","861559","0.0-26.0","85","1","2022-10-09 11:27:36","ebf9627b049f568eb4bf28942cb89901","218.63.129.125","Mozilla/5.0 (Windows NT 10.0; WOW64) AppleWebKit/537.36 (KHTML, like Gecko) Chrome/84.0.4147.89 Safari/537.36 SLBrowser/7.0.0.12151 SLBChan/105","WebKit","Chrome","84.0.4147.89","Windows","10.0","84985","","{""Comments"":""比较全面，很新奇的一次体验，给我一种比较大的震撼力，知识面也挺广泛的""}",""
"","","","","","html-button-response","154","862687","0.0-27.0","85","1","2022-10-09 11:27:36","ebf9627b049f568eb4bf28942cb89901","218.63.129.125","Mozilla/5.0 (Windows NT 10.0; WOW64) AppleWebKit/537.36 (KHTML, like Gecko) Chrome/84.0.4147.89 Safari/537.36 SLBrowser/7.0.0.12151 SLBChan/105","WebKit","Chrome","84.0.4147.89","Windows","10.0","1124","<strong><p>恭喜你完成了实验！</p><p>感谢您的参与。</p></strong>","0",""
