"success","timeout","failed_images","failed_audio","failed_video","trial_type","trial_index","time_elapsed","internal_node_id","run_id","condition","recorded_at","source_code_version","ip","user_agent","device","browser","browser_version","platform","platform_version","rt","stimulus","response","question_order"
"true","false","[]","[]","[]","preload","0","2490","0.0-0.0","88","1","2022-10-09 11:31:37","ebf9627b049f568eb4bf28942cb89901","106.45.213.237","Mozilla/5.0 (Windows NT 6.1; WOW64) AppleWebKit/537.36 (KHTML, like Gecko) Chrome/86.0.4240.198 Safari/537.36","WebKit","Chrome","86.0.4240.198","Windows","6.1","","","",""
"true","","","","","fullscreen","1","6408","0.0-1.0","88","1","2022-10-09 11:31:37","ebf9627b049f568eb4bf28942cb89901","106.45.213.237","Mozilla/5.0 (Windows NT 6.1; WOW64) AppleWebKit/537.36 (KHTML, like Gecko) Chrome/86.0.4240.198 Safari/537.36","WebKit","Chrome","86.0.4240.198","Windows","6.1","","","",""
"","","","","","html-button-response","2","15175","0.0-2.0","88","1","2022-10-09 11:31:37","ebf9627b049f568eb4bf28942cb89901","106.45.213.237","Mozilla/5.0 (Windows NT 6.1; WOW64) AppleWebKit/537.36 (KHTML, like Gecko) Chrome/86.0.4240.198 Safari/537.36","WebKit","Chrome","86.0.4240.198","Windows","6.1","8765","<p style=""font-size:20px;font-weight:bold;"">实验知情同意书</p><p style=""text-align:left;""><strong>实验名称：</strong>社会冲突研究</p><p style=""text-align:left;""><strong>主要研究者：</strong>韩晓春副教授（北京师范大学心理学部）</p><p style=""text-align:left;""><strong>联系方式：</strong>发送邮件至xiaochun.han@bnu.edu.cn</p><p style=""text-align:left;""><strong>研究目的：</strong>研究旨在了解人类面对群体冲突时的决策方式，以及相关的心理学特质。实验调查大约需要20分钟。</p><p style=""text-align:left;""><strong>实验流程：</strong>实验包含两部分。第一部分呈现一系列群体冲突场景，请你决定如何对这些冲突进行反应，大约需要10分钟完成。第二部分包含一系列人口统计学信息收集和心理学问卷，大约需要10分钟完成。</p><p style=""text-align:left;""><strong>参加及退出规则：</strong>参加本实验完全取决于您的个人意愿。在参与过程中，您可以随时退出，并且不用承担任何后果。</p><p style=""text-align:left;""><strong>隐私：</strong>本实验完全匿名进行，不会收集您的姓名或其他能够识别您身份的信息。实验中收集的作答仅用作科学研究使用，可能会在学术期刊/书籍上发表，或者用于教学，您的数据未来可能会和其他研究者或实验室分享，但您的个人身份不会被识别。</p><p style=""text-align:left;""><strong>实验报酬：</strong>实验完成后，您将获得15元人民币报酬，以感谢您的时间和努力。调查问卷中包含几道题目用以测验您作答时的认真度。只有完成全部实验，并且正确回答认真度测验的被试才能获得实验报酬。实验报酬将通过支付宝转账发放。</p><p style=""text-align:left;font-size:20px;""><strong>如果您同意以上实验知情同意书的内容，请点击'同意并且开始实验'按钮；否则请关闭浏览器界面，退出实验。</strong></p>","0",""
"","","","","","html-button-response","3","24582","0.0-3.0","88","1","2022-10-09 11:31:37","ebf9627b049f568eb4bf28942cb89901","106.45.213.237","Mozilla/5.0 (Windows NT 6.1; WOW64) AppleWebKit/537.36 (KHTML, like Gecko) Chrome/86.0.4240.198 Safari/537.36","WebKit","Chrome","86.0.4240.198","Windows","6.1","9405","<p ><strong>实验任务一：</strong></p><p>请想象你的国家与另一个国家发生了军事冲突。</p><p>你是国家军队的指挥官，你将如何在冲突中进行决策。</p><p>具体来说，作为军队指挥官，请你决定是否发射导弹进行打击。</p><p>接下来，你会面对一系列场景，请仔细阅读每个场景，然后进行决策。</p><p>这部分实验任务大约需要10分钟。</p><p><strong>实验过程中，请集中注意力。</strong></p>","0",""
"","","","","","html-keyboard-response","4","25587","0.0-4.0-0.0","88","1","2022-10-09 11:31:37","ebf9627b049f568eb4bf28942cb89901","106.45.213.237","Mozilla/5.0 (Windows NT 6.1; WOW64) AppleWebKit/537.36 (KHTML, like Gecko) Chrome/86.0.4240.198 Safari/537.36","WebKit","Chrome","86.0.4240.198","Windows","6.1","null","<div style=""font-size:60px;"">+</div>","null",""
"","","","","","html-button-response","5","38958","0.0-4.0-1.0","88","1","2022-10-09 11:31:37","ebf9627b049f568eb4bf28942cb89901","106.45.213.237","Mozilla/5.0 (Windows NT 6.1; WOW64) AppleWebKit/537.36 (KHTML, like Gecko) Chrome/86.0.4240.198 Safari/537.36","WebKit","Chrome","86.0.4240.198","Windows","6.1","13369","<p>作为军队的指挥官，你可以选择发射导弹杀死 <strong>1名</strong> 敌国士兵，但会炸毁附近的 <strong>1棵</strong> 敌国树木。</p> <p>树木的照片如下图所示。</p> <p></p> <img src='stimuli/trees/8.png', style='max-width: 30%;'> </img> <p><strong>你是否选择发射武器？</strong></p>","1",""
"","","","","","html-keyboard-response","6","39961","0.0-4.0-0.1","88","1","2022-10-09 11:31:37","ebf9627b049f568eb4bf28942cb89901","106.45.213.237","Mozilla/5.0 (Windows NT 6.1; WOW64) AppleWebKit/537.36 (KHTML, like Gecko) Chrome/86.0.4240.198 Safari/537.36","WebKit","Chrome","86.0.4240.198","Windows","6.1","null","<div style=""font-size:60px;"">+</div>","null",""
"","","","","","html-button-response","7","49040","0.0-4.0-1.1","88","1","2022-10-09 11:31:37","ebf9627b049f568eb4bf28942cb89901","106.45.213.237","Mozilla/5.0 (Windows NT 6.1; WOW64) AppleWebKit/537.36 (KHTML, like Gecko) Chrome/86.0.4240.198 Safari/537.36","WebKit","Chrome","86.0.4240.198","Windows","6.1","9075","<p>作为军队的指挥官，你可以选择发射导弹杀死 <strong>1名</strong> 敌国士兵，但会误杀附近的 <strong>1名</strong> 敌国平民。</p> <p>平民照片如下图所示。</p> <p></p> <img src='stimuli/faces/NFM6.jpg', style='max-width: 30%;'> </img> <p><strong>你是否选择发射武器？</strong></p>","1",""
"","","","","","html-keyboard-response","8","50041","0.0-4.0-0.2","88","1","2022-10-09 11:31:37","ebf9627b049f568eb4bf28942cb89901","106.45.213.237","Mozilla/5.0 (Windows NT 6.1; WOW64) AppleWebKit/537.36 (KHTML, like Gecko) Chrome/86.0.4240.198 Safari/537.36","WebKit","Chrome","86.0.4240.198","Windows","6.1","null","<div style=""font-size:60px;"">+</div>","null",""
"","","","","","html-button-response","9","52863","0.0-4.0-1.2","88","1","2022-10-09 11:31:37","ebf9627b049f568eb4bf28942cb89901","106.45.213.237","Mozilla/5.0 (Windows NT 6.1; WOW64) AppleWebKit/537.36 (KHTML, like Gecko) Chrome/86.0.4240.198 Safari/537.36","WebKit","Chrome","86.0.4240.198","Windows","6.1","2821","<p>作为军队的指挥官，你可以选择发射导弹杀死 <strong>2名</strong> 敌国士兵，但会误杀附近的 <strong>1名</strong> 敌国平民。</p> <p>平民照片如下图所示。</p> <p></p> <img src='stimuli/faces/NFF1.jpg', style='max-width: 30%;'> </img> <p><strong>你是否选择发射武器？</strong></p>","1",""
"","","","","","html-keyboard-response","10","53865","0.0-4.0-0.3","88","1","2022-10-09 11:31:37","ebf9627b049f568eb4bf28942cb89901","106.45.213.237","Mozilla/5.0 (Windows NT 6.1; WOW64) AppleWebKit/537.36 (KHTML, like Gecko) Chrome/86.0.4240.198 Safari/537.36","WebKit","Chrome","86.0.4240.198","Windows","6.1","null","<div style=""font-size:60px;"">+</div>","null",""
"","","","","","html-button-response","11","55624","0.0-4.0-1.3","88","1","2022-10-09 11:31:37","ebf9627b049f568eb4bf28942cb89901","106.45.213.237","Mozilla/5.0 (Windows NT 6.1; WOW64) AppleWebKit/537.36 (KHTML, like Gecko) Chrome/86.0.4240.198 Safari/537.36","WebKit","Chrome","86.0.4240.198","Windows","6.1","1757","<p>作为军队的指挥官，你可以选择发射导弹杀死 <strong>8名</strong> 敌国士兵，但会炸毁附近的 <strong>1棵</strong> 敌国树木。</p> <p>树木的照片如下图所示。</p> <p></p> <img src='stimuli/trees/14.png', style='max-width: 30%;'> </img> <p><strong>你是否选择发射武器？</strong></p>","0",""
"","","","","","html-keyboard-response","12","56626","0.0-4.0-0.4","88","1","2022-10-09 11:31:37","ebf9627b049f568eb4bf28942cb89901","106.45.213.237","Mozilla/5.0 (Windows NT 6.1; WOW64) AppleWebKit/537.36 (KHTML, like Gecko) Chrome/86.0.4240.198 Safari/537.36","WebKit","Chrome","86.0.4240.198","Windows","6.1","null","<div style=""font-size:60px;"">+</div>","null",""
"","","","","","html-button-response","13","58399","0.0-4.0-1.4","88","1","2022-10-09 11:31:37","ebf9627b049f568eb4bf28942cb89901","106.45.213.237","Mozilla/5.0 (Windows NT 6.1; WOW64) AppleWebKit/537.36 (KHTML, like Gecko) Chrome/86.0.4240.198 Safari/537.36","WebKit","Chrome","86.0.4240.198","Windows","6.1","1771","<p>作为军队的指挥官，你可以选择发射导弹杀死 <strong>6名</strong> 敌国士兵，但会误杀附近的 <strong>1名</strong> 敌国平民。</p> <p>平民照片如下图所示。</p> <p></p> <img src='stimuli/faces/NFM3.jpg', style='max-width: 30%;'> </img> <p><strong>你是否选择发射武器？</strong></p>","0",""
"","","","","","html-keyboard-response","14","59401","0.0-4.0-0.5","88","1","2022-10-09 11:31:37","ebf9627b049f568eb4bf28942cb89901","106.45.213.237","Mozilla/5.0 (Windows NT 6.1; WOW64) AppleWebKit/537.36 (KHTML, like Gecko) Chrome/86.0.4240.198 Safari/537.36","WebKit","Chrome","86.0.4240.198","Windows","6.1","null","<div style=""font-size:60px;"">+</div>","null",""
"","","","","","html-button-response","15","61223","0.0-4.0-1.5","88","1","2022-10-09 11:31:37","ebf9627b049f568eb4bf28942cb89901","106.45.213.237","Mozilla/5.0 (Windows NT 6.1; WOW64) AppleWebKit/537.36 (KHTML, like Gecko) Chrome/86.0.4240.198 Safari/537.36","WebKit","Chrome","86.0.4240.198","Windows","6.1","1820","<p>作为军队的指挥官，你可以选择发射导弹杀死 <strong>9名</strong> 敌国士兵，但会误杀附近的 <strong>1名</strong> 敌国平民。</p> <p>平民照片如下图所示。</p> <p></p> <img src='stimuli/faces/NFM7.jpg', style='max-width: 30%;'> </img> <p><strong>你是否选择发射武器？</strong></p>","0",""
"","","","","","html-keyboard-response","16","62226","0.0-4.0-0.6","88","1","2022-10-09 11:31:37","ebf9627b049f568eb4bf28942cb89901","106.45.213.237","Mozilla/5.0 (Windows NT 6.1; WOW64) AppleWebKit/537.36 (KHTML, like Gecko) Chrome/86.0.4240.198 Safari/537.36","WebKit","Chrome","86.0.4240.198","Windows","6.1","null","<div style=""font-size:60px;"">+</div>","null",""
"","","","","","html-button-response","17","65575","0.0-4.0-1.6","88","1","2022-10-09 11:31:37","ebf9627b049f568eb4bf28942cb89901","106.45.213.237","Mozilla/5.0 (Windows NT 6.1; WOW64) AppleWebKit/537.36 (KHTML, like Gecko) Chrome/86.0.4240.198 Safari/537.36","WebKit","Chrome","86.0.4240.198","Windows","6.1","3348","<p>作为军队的指挥官，你可以选择发射导弹杀死 <strong>9名</strong> 敌国士兵，但会误杀附近的 <strong>1名</strong> 敌国平民。</p> <p>平民照片如下图所示。</p> <p></p> <img src='stimuli/faces/NFF1.jpg', style='max-width: 30%;'> </img> <p><strong>你是否选择发射武器？</strong></p>","0",""
"","","","","","html-keyboard-response","18","66577","0.0-4.0-0.7","88","1","2022-10-09 11:31:37","ebf9627b049f568eb4bf28942cb89901","106.45.213.237","Mozilla/5.0 (Windows NT 6.1; WOW64) AppleWebKit/537.36 (KHTML, like Gecko) Chrome/86.0.4240.198 Safari/537.36","WebKit","Chrome","86.0.4240.198","Windows","6.1","null","<div style=""font-size:60px;"">+</div>","null",""
"","","","","","html-button-response","19","70487","0.0-4.0-1.7","88","1","2022-10-09 11:31:37","ebf9627b049f568eb4bf28942cb89901","106.45.213.237","Mozilla/5.0 (Windows NT 6.1; WOW64) AppleWebKit/537.36 (KHTML, like Gecko) Chrome/86.0.4240.198 Safari/537.36","WebKit","Chrome","86.0.4240.198","Windows","6.1","3909","<p>作为军队的指挥官，你可以选择发射导弹杀死 <strong>2名</strong> 敌国士兵，但会炸毁附近的 <strong>1棵</strong> 敌国树木。</p> <p>树木的照片如下图所示。</p> <p></p> <img src='stimuli/trees/9.png', style='max-width: 30%;'> </img> <p><strong>你是否选择发射武器？</strong></p>","0",""
"","","","","","html-keyboard-response","20","71489","0.0-4.0-0.8","88","1","2022-10-09 11:31:37","ebf9627b049f568eb4bf28942cb89901","106.45.213.237","Mozilla/5.0 (Windows NT 6.1; WOW64) AppleWebKit/537.36 (KHTML, like Gecko) Chrome/86.0.4240.198 Safari/537.36","WebKit","Chrome","86.0.4240.198","Windows","6.1","null","<div style=""font-size:60px;"">+</div>","null",""
"","","","","","html-button-response","21","72943","0.0-4.0-1.8","88","1","2022-10-09 11:31:37","ebf9627b049f568eb4bf28942cb89901","106.45.213.237","Mozilla/5.0 (Windows NT 6.1; WOW64) AppleWebKit/537.36 (KHTML, like Gecko) Chrome/86.0.4240.198 Safari/537.36","WebKit","Chrome","86.0.4240.198","Windows","6.1","1452","<p>作为军队的指挥官，你可以选择发射导弹杀死 <strong>5名</strong> 敌国士兵，但会炸毁附近的 <strong>1棵</strong> 敌国树木。</p> <p>树木的照片如下图所示。</p> <p></p> <img src='stimuli/trees/11.png', style='max-width: 30%;'> </img> <p><strong>你是否选择发射武器？</strong></p>","0",""
"","","","","","html-keyboard-response","22","73945","0.0-4.0-0.9","88","1","2022-10-09 11:31:37","ebf9627b049f568eb4bf28942cb89901","106.45.213.237","Mozilla/5.0 (Windows NT 6.1; WOW64) AppleWebKit/537.36 (KHTML, like Gecko) Chrome/86.0.4240.198 Safari/537.36","WebKit","Chrome","86.0.4240.198","Windows","6.1","null","<div style=""font-size:60px;"">+</div>","null",""
"","","","","","html-button-response","23","75479","0.0-4.0-1.9","88","1","2022-10-09 11:31:37","ebf9627b049f568eb4bf28942cb89901","106.45.213.237","Mozilla/5.0 (Windows NT 6.1; WOW64) AppleWebKit/537.36 (KHTML, like Gecko) Chrome/86.0.4240.198 Safari/537.36","WebKit","Chrome","86.0.4240.198","Windows","6.1","1532","<p>作为军队的指挥官，你可以选择发射导弹杀死 <strong>1名</strong> 敌国士兵，但会误杀附近的 <strong>1名</strong> 敌国平民。</p> <p>平民照片如下图所示。</p> <p></p> <img src='stimuli/faces/NFM7.jpg', style='max-width: 30%;'> </img> <p><strong>你是否选择发射武器？</strong></p>","1",""
"","","","","","html-keyboard-response","24","76481","0.0-4.0-0.10","88","1","2022-10-09 11:31:37","ebf9627b049f568eb4bf28942cb89901","106.45.213.237","Mozilla/5.0 (Windows NT 6.1; WOW64) AppleWebKit/537.36 (KHTML, like Gecko) Chrome/86.0.4240.198 Safari/537.36","WebKit","Chrome","86.0.4240.198","Windows","6.1","null","<div style=""font-size:60px;"">+</div>","null",""
"","","","","","html-button-response","25","77823","0.0-4.0-1.10","88","1","2022-10-09 11:31:37","ebf9627b049f568eb4bf28942cb89901","106.45.213.237","Mozilla/5.0 (Windows NT 6.1; WOW64) AppleWebKit/537.36 (KHTML, like Gecko) Chrome/86.0.4240.198 Safari/537.36","WebKit","Chrome","86.0.4240.198","Windows","6.1","1340","<p>作为军队的指挥官，你可以选择发射导弹杀死 <strong>9名</strong> 敌国士兵，但会炸毁附近的 <strong>1棵</strong> 敌国树木。</p> <p>树木的照片如下图所示。</p> <p></p> <img src='stimuli/trees/9.png', style='max-width: 30%;'> </img> <p><strong>你是否选择发射武器？</strong></p>","0",""
"","","","","","html-keyboard-response","26","78825","0.0-4.0-0.11","88","1","2022-10-09 11:31:37","ebf9627b049f568eb4bf28942cb89901","106.45.213.237","Mozilla/5.0 (Windows NT 6.1; WOW64) AppleWebKit/537.36 (KHTML, like Gecko) Chrome/86.0.4240.198 Safari/537.36","WebKit","Chrome","86.0.4240.198","Windows","6.1","null","<div style=""font-size:60px;"">+</div>","null",""
"","","","","","html-button-response","27","81343","0.0-4.0-1.11","88","1","2022-10-09 11:31:37","ebf9627b049f568eb4bf28942cb89901","106.45.213.237","Mozilla/5.0 (Windows NT 6.1; WOW64) AppleWebKit/537.36 (KHTML, like Gecko) Chrome/86.0.4240.198 Safari/537.36","WebKit","Chrome","86.0.4240.198","Windows","6.1","2516","<p>作为军队的指挥官，你可以选择发射导弹杀死 <strong>10名</strong> 敌国士兵，但会误杀附近的 <strong>1名</strong> 敌国平民。</p> <p>平民照片如下图所示。</p> <p></p> <img src='stimuli/faces/NFF7.jpg', style='max-width: 30%;'> </img> <p><strong>你是否选择发射武器？</strong></p>","0",""
"","","","","","html-keyboard-response","28","82344","0.0-4.0-0.12","88","1","2022-10-09 11:31:37","ebf9627b049f568eb4bf28942cb89901","106.45.213.237","Mozilla/5.0 (Windows NT 6.1; WOW64) AppleWebKit/537.36 (KHTML, like Gecko) Chrome/86.0.4240.198 Safari/537.36","WebKit","Chrome","86.0.4240.198","Windows","6.1","null","<div style=""font-size:60px;"">+</div>","null",""
"","","","","","html-button-response","29","83967","0.0-4.0-1.12","88","1","2022-10-09 11:31:37","ebf9627b049f568eb4bf28942cb89901","106.45.213.237","Mozilla/5.0 (Windows NT 6.1; WOW64) AppleWebKit/537.36 (KHTML, like Gecko) Chrome/86.0.4240.198 Safari/537.36","WebKit","Chrome","86.0.4240.198","Windows","6.1","1621","<p>作为军队的指挥官，你可以选择发射导弹杀死 <strong>5名</strong> 敌国士兵，但会误杀附近的 <strong>1名</strong> 敌国平民。</p> <p>平民照片如下图所示。</p> <p></p> <img src='stimuli/faces/NFM1.jpg', style='max-width: 30%;'> </img> <p><strong>你是否选择发射武器？</strong></p>","0",""
"","","","","","html-keyboard-response","30","84969","0.0-4.0-0.13","88","1","2022-10-09 11:31:37","ebf9627b049f568eb4bf28942cb89901","106.45.213.237","Mozilla/5.0 (Windows NT 6.1; WOW64) AppleWebKit/537.36 (KHTML, like Gecko) Chrome/86.0.4240.198 Safari/537.36","WebKit","Chrome","86.0.4240.198","Windows","6.1","null","<div style=""font-size:60px;"">+</div>","null",""
"","","","","","html-button-response","31","86590","0.0-4.0-1.13","88","1","2022-10-09 11:31:37","ebf9627b049f568eb4bf28942cb89901","106.45.213.237","Mozilla/5.0 (Windows NT 6.1; WOW64) AppleWebKit/537.36 (KHTML, like Gecko) Chrome/86.0.4240.198 Safari/537.36","WebKit","Chrome","86.0.4240.198","Windows","6.1","1620","<p>作为军队的指挥官，你可以选择发射导弹杀死 <strong>4名</strong> 敌国士兵，但会炸毁附近的 <strong>1棵</strong> 敌国树木。</p> <p>树木的照片如下图所示。</p> <p></p> <img src='stimuli/trees/12.png', style='max-width: 30%;'> </img> <p><strong>你是否选择发射武器？</strong></p>","0",""
"","","","","","html-keyboard-response","32","87592","0.0-4.0-0.14","88","1","2022-10-09 11:31:37","ebf9627b049f568eb4bf28942cb89901","106.45.213.237","Mozilla/5.0 (Windows NT 6.1; WOW64) AppleWebKit/537.36 (KHTML, like Gecko) Chrome/86.0.4240.198 Safari/537.36","WebKit","Chrome","86.0.4240.198","Windows","6.1","null","<div style=""font-size:60px;"">+</div>","null",""
"","","","","","html-button-response","33","89182","0.0-4.0-1.14","88","1","2022-10-09 11:31:37","ebf9627b049f568eb4bf28942cb89901","106.45.213.237","Mozilla/5.0 (Windows NT 6.1; WOW64) AppleWebKit/537.36 (KHTML, like Gecko) Chrome/86.0.4240.198 Safari/537.36","WebKit","Chrome","86.0.4240.198","Windows","6.1","1589","<p>作为军队的指挥官，你可以选择发射导弹杀死 <strong>6名</strong> 敌国士兵，但会误杀附近的 <strong>1名</strong> 敌国平民。</p> <p>平民照片如下图所示。</p> <p></p> <img src='stimuli/faces/NFM6.jpg', style='max-width: 30%;'> </img> <p><strong>你是否选择发射武器？</strong></p>","0",""
"","","","","","html-keyboard-response","34","90184","0.0-4.0-0.15","88","1","2022-10-09 11:31:37","ebf9627b049f568eb4bf28942cb89901","106.45.213.237","Mozilla/5.0 (Windows NT 6.1; WOW64) AppleWebKit/537.36 (KHTML, like Gecko) Chrome/86.0.4240.198 Safari/537.36","WebKit","Chrome","86.0.4240.198","Windows","6.1","null","<div style=""font-size:60px;"">+</div>","null",""
"","","","","","html-button-response","35","91822","0.0-4.0-1.15","88","1","2022-10-09 11:31:37","ebf9627b049f568eb4bf28942cb89901","106.45.213.237","Mozilla/5.0 (Windows NT 6.1; WOW64) AppleWebKit/537.36 (KHTML, like Gecko) Chrome/86.0.4240.198 Safari/537.36","WebKit","Chrome","86.0.4240.198","Windows","6.1","1636","<p>作为军队的指挥官，你可以选择发射导弹杀死 <strong>7名</strong> 敌国士兵，但会炸毁附近的 <strong>1棵</strong> 敌国树木。</p> <p>树木的照片如下图所示。</p> <p></p> <img src='stimuli/trees/1.png', style='max-width: 30%;'> </img> <p><strong>你是否选择发射武器？</strong></p>","0",""
"","","","","","html-keyboard-response","36","92824","0.0-4.0-0.16","88","1","2022-10-09 11:31:37","ebf9627b049f568eb4bf28942cb89901","106.45.213.237","Mozilla/5.0 (Windows NT 6.1; WOW64) AppleWebKit/537.36 (KHTML, like Gecko) Chrome/86.0.4240.198 Safari/537.36","WebKit","Chrome","86.0.4240.198","Windows","6.1","null","<div style=""font-size:60px;"">+</div>","null",""
"","","","","","html-button-response","37","94230","0.0-4.0-1.16","88","1","2022-10-09 11:31:37","ebf9627b049f568eb4bf28942cb89901","106.45.213.237","Mozilla/5.0 (Windows NT 6.1; WOW64) AppleWebKit/537.36 (KHTML, like Gecko) Chrome/86.0.4240.198 Safari/537.36","WebKit","Chrome","86.0.4240.198","Windows","6.1","1404","<p>作为军队的指挥官，你可以选择发射导弹杀死 <strong>5名</strong> 敌国士兵，但会炸毁附近的 <strong>1棵</strong> 敌国树木。</p> <p>树木的照片如下图所示。</p> <p></p> <img src='stimuli/trees/10.png', style='max-width: 30%;'> </img> <p><strong>你是否选择发射武器？</strong></p>","0",""
"","","","","","html-keyboard-response","38","95232","0.0-4.0-0.17","88","1","2022-10-09 11:31:37","ebf9627b049f568eb4bf28942cb89901","106.45.213.237","Mozilla/5.0 (Windows NT 6.1; WOW64) AppleWebKit/537.36 (KHTML, like Gecko) Chrome/86.0.4240.198 Safari/537.36","WebKit","Chrome","86.0.4240.198","Windows","6.1","null","<div style=""font-size:60px;"">+</div>","null",""
"","","","","","html-button-response","39","96462","0.0-4.0-1.17","88","1","2022-10-09 11:31:37","ebf9627b049f568eb4bf28942cb89901","106.45.213.237","Mozilla/5.0 (Windows NT 6.1; WOW64) AppleWebKit/537.36 (KHTML, like Gecko) Chrome/86.0.4240.198 Safari/537.36","WebKit","Chrome","86.0.4240.198","Windows","6.1","1228","<p>作为军队的指挥官，你可以选择发射导弹杀死 <strong>10名</strong> 敌国士兵，但会炸毁附近的 <strong>1棵</strong> 敌国树木。</p> <p>树木的照片如下图所示。</p> <p></p> <img src='stimuli/trees/13.png', style='max-width: 30%;'> </img> <p><strong>你是否选择发射武器？</strong></p>","0",""
"","","","","","html-keyboard-response","40","97464","0.0-4.0-0.18","88","1","2022-10-09 11:31:37","ebf9627b049f568eb4bf28942cb89901","106.45.213.237","Mozilla/5.0 (Windows NT 6.1; WOW64) AppleWebKit/537.36 (KHTML, like Gecko) Chrome/86.0.4240.198 Safari/537.36","WebKit","Chrome","86.0.4240.198","Windows","6.1","null","<div style=""font-size:60px;"">+</div>","null",""
"","","","","","html-button-response","41","98734","0.0-4.0-1.18","88","1","2022-10-09 11:31:37","ebf9627b049f568eb4bf28942cb89901","106.45.213.237","Mozilla/5.0 (Windows NT 6.1; WOW64) AppleWebKit/537.36 (KHTML, like Gecko) Chrome/86.0.4240.198 Safari/537.36","WebKit","Chrome","86.0.4240.198","Windows","6.1","1268","<p>作为军队的指挥官，你可以选择发射导弹杀死 <strong>9名</strong> 敌国士兵，但会炸毁附近的 <strong>1棵</strong> 敌国树木。</p> <p>树木的照片如下图所示。</p> <p></p> <img src='stimuli/trees/4.png', style='max-width: 30%;'> </img> <p><strong>你是否选择发射武器？</strong></p>","0",""
"","","","","","html-keyboard-response","42","99737","0.0-4.0-0.19","88","1","2022-10-09 11:31:37","ebf9627b049f568eb4bf28942cb89901","106.45.213.237","Mozilla/5.0 (Windows NT 6.1; WOW64) AppleWebKit/537.36 (KHTML, like Gecko) Chrome/86.0.4240.198 Safari/537.36","WebKit","Chrome","86.0.4240.198","Windows","6.1","null","<div style=""font-size:60px;"">+</div>","null",""
"","","","","","html-button-response","43","102782","0.0-4.0-1.19","88","1","2022-10-09 11:31:37","ebf9627b049f568eb4bf28942cb89901","106.45.213.237","Mozilla/5.0 (Windows NT 6.1; WOW64) AppleWebKit/537.36 (KHTML, like Gecko) Chrome/86.0.4240.198 Safari/537.36","WebKit","Chrome","86.0.4240.198","Windows","6.1","3044","<p>作为军队的指挥官，你可以选择发射导弹杀死 <strong>2名</strong> 敌国士兵，但会炸毁附近的 <strong>1棵</strong> 敌国树木。</p> <p>树木的照片如下图所示。</p> <p></p> <img src='stimuli/trees/14.png', style='max-width: 30%;'> </img> <p><strong>你是否选择发射武器？</strong></p>","1",""
"","","","","","html-keyboard-response","44","103784","0.0-4.0-0.20","88","1","2022-10-09 11:31:37","ebf9627b049f568eb4bf28942cb89901","106.45.213.237","Mozilla/5.0 (Windows NT 6.1; WOW64) AppleWebKit/537.36 (KHTML, like Gecko) Chrome/86.0.4240.198 Safari/537.36","WebKit","Chrome","86.0.4240.198","Windows","6.1","null","<div style=""font-size:60px;"">+</div>","null",""
"","","","","","html-button-response","45","104982","0.0-4.0-1.20","88","1","2022-10-09 11:31:37","ebf9627b049f568eb4bf28942cb89901","106.45.213.237","Mozilla/5.0 (Windows NT 6.1; WOW64) AppleWebKit/537.36 (KHTML, like Gecko) Chrome/86.0.4240.198 Safari/537.36","WebKit","Chrome","86.0.4240.198","Windows","6.1","1196","<p>作为军队的指挥官，你可以选择发射导弹杀死 <strong>10名</strong> 敌国士兵，但会炸毁附近的 <strong>1棵</strong> 敌国树木。</p> <p>树木的照片如下图所示。</p> <p></p> <img src='stimuli/trees/10.png', style='max-width: 30%;'> </img> <p><strong>你是否选择发射武器？</strong></p>","0",""
"","","","","","html-keyboard-response","46","105985","0.0-4.0-0.21","88","1","2022-10-09 11:31:37","ebf9627b049f568eb4bf28942cb89901","106.45.213.237","Mozilla/5.0 (Windows NT 6.1; WOW64) AppleWebKit/537.36 (KHTML, like Gecko) Chrome/86.0.4240.198 Safari/537.36","WebKit","Chrome","86.0.4240.198","Windows","6.1","null","<div style=""font-size:60px;"">+</div>","null",""
"","","","","","html-button-response","47","107031","0.0-4.0-1.21","88","1","2022-10-09 11:31:37","ebf9627b049f568eb4bf28942cb89901","106.45.213.237","Mozilla/5.0 (Windows NT 6.1; WOW64) AppleWebKit/537.36 (KHTML, like Gecko) Chrome/86.0.4240.198 Safari/537.36","WebKit","Chrome","86.0.4240.198","Windows","6.1","1043","<p>作为军队的指挥官，你可以选择发射导弹杀死 <strong>8名</strong> 敌国士兵，但会炸毁附近的 <strong>1棵</strong> 敌国树木。</p> <p>树木的照片如下图所示。</p> <p></p> <img src='stimuli/trees/2.png', style='max-width: 30%;'> </img> <p><strong>你是否选择发射武器？</strong></p>","0",""
"","","","","","html-keyboard-response","48","108033","0.0-4.0-0.22","88","1","2022-10-09 11:31:37","ebf9627b049f568eb4bf28942cb89901","106.45.213.237","Mozilla/5.0 (Windows NT 6.1; WOW64) AppleWebKit/537.36 (KHTML, like Gecko) Chrome/86.0.4240.198 Safari/537.36","WebKit","Chrome","86.0.4240.198","Windows","6.1","null","<div style=""font-size:60px;"">+</div>","null",""
"","","","","","html-button-response","49","111175","0.0-4.0-1.22","88","1","2022-10-09 11:31:37","ebf9627b049f568eb4bf28942cb89901","106.45.213.237","Mozilla/5.0 (Windows NT 6.1; WOW64) AppleWebKit/537.36 (KHTML, like Gecko) Chrome/86.0.4240.198 Safari/537.36","WebKit","Chrome","86.0.4240.198","Windows","6.1","3140","<p>作为军队的指挥官，你可以选择发射导弹杀死 <strong>6名</strong> 敌国士兵，但会炸毁附近的 <strong>1棵</strong> 敌国树木。</p> <p>树木的照片如下图所示。</p> <p></p> <img src='stimuli/trees/3.png', style='max-width: 30%;'> </img> <p><strong>你是否选择发射武器？</strong></p>","0",""
"","","","","","html-keyboard-response","50","112177","0.0-4.0-0.23","88","1","2022-10-09 11:31:37","ebf9627b049f568eb4bf28942cb89901","106.45.213.237","Mozilla/5.0 (Windows NT 6.1; WOW64) AppleWebKit/537.36 (KHTML, like Gecko) Chrome/86.0.4240.198 Safari/537.36","WebKit","Chrome","86.0.4240.198","Windows","6.1","null","<div style=""font-size:60px;"">+</div>","null",""
"","","","","","html-button-response","51","114831","0.0-4.0-1.23","88","1","2022-10-09 11:31:37","ebf9627b049f568eb4bf28942cb89901","106.45.213.237","Mozilla/5.0 (Windows NT 6.1; WOW64) AppleWebKit/537.36 (KHTML, like Gecko) Chrome/86.0.4240.198 Safari/537.36","WebKit","Chrome","86.0.4240.198","Windows","6.1","2652","<p>作为军队的指挥官，你可以选择发射导弹杀死 <strong>9名</strong> 敌国士兵，但会误杀附近的 <strong>1名</strong> 敌国平民。</p> <p>平民照片如下图所示。</p> <p></p> <img src='stimuli/faces/NFF8.jpg', style='max-width: 30%;'> </img> <p><strong>你是否选择发射武器？</strong></p>","0",""
"","","","","","html-keyboard-response","52","115833","0.0-4.0-0.24","88","1","2022-10-09 11:31:37","ebf9627b049f568eb4bf28942cb89901","106.45.213.237","Mozilla/5.0 (Windows NT 6.1; WOW64) AppleWebKit/537.36 (KHTML, like Gecko) Chrome/86.0.4240.198 Safari/537.36","WebKit","Chrome","86.0.4240.198","Windows","6.1","null","<div style=""font-size:60px;"">+</div>","null",""
"","","","","","html-button-response","53","117439","0.0-4.0-1.24","88","1","2022-10-09 11:31:37","ebf9627b049f568eb4bf28942cb89901","106.45.213.237","Mozilla/5.0 (Windows NT 6.1; WOW64) AppleWebKit/537.36 (KHTML, like Gecko) Chrome/86.0.4240.198 Safari/537.36","WebKit","Chrome","86.0.4240.198","Windows","6.1","1604","<p>作为军队的指挥官，你可以选择发射导弹杀死 <strong>9名</strong> 敌国士兵，但会误杀附近的 <strong>1名</strong> 敌国平民。</p> <p>平民照片如下图所示。</p> <p></p> <img src='stimuli/faces/NFM2.jpg', style='max-width: 30%;'> </img> <p><strong>你是否选择发射武器？</strong></p>","0",""
"","","","","","html-keyboard-response","54","118441","0.0-4.0-0.25","88","1","2022-10-09 11:31:37","ebf9627b049f568eb4bf28942cb89901","106.45.213.237","Mozilla/5.0 (Windows NT 6.1; WOW64) AppleWebKit/537.36 (KHTML, like Gecko) Chrome/86.0.4240.198 Safari/537.36","WebKit","Chrome","86.0.4240.198","Windows","6.1","null","<div style=""font-size:60px;"">+</div>","null",""
"","","","","","html-button-response","55","120119","0.0-4.0-1.25","88","1","2022-10-09 11:31:37","ebf9627b049f568eb4bf28942cb89901","106.45.213.237","Mozilla/5.0 (Windows NT 6.1; WOW64) AppleWebKit/537.36 (KHTML, like Gecko) Chrome/86.0.4240.198 Safari/537.36","WebKit","Chrome","86.0.4240.198","Windows","6.1","1674","<p>作为军队的指挥官，你可以选择发射导弹杀死 <strong>6名</strong> 敌国士兵，但会误杀附近的 <strong>1名</strong> 敌国平民。</p> <p>平民照片如下图所示。</p> <p></p> <img src='stimuli/faces/NFF2.jpg', style='max-width: 30%;'> </img> <p><strong>你是否选择发射武器？</strong></p>","0",""
"","","","","","html-keyboard-response","56","121121","0.0-4.0-0.26","88","1","2022-10-09 11:31:37","ebf9627b049f568eb4bf28942cb89901","106.45.213.237","Mozilla/5.0 (Windows NT 6.1; WOW64) AppleWebKit/537.36 (KHTML, like Gecko) Chrome/86.0.4240.198 Safari/537.36","WebKit","Chrome","86.0.4240.198","Windows","6.1","null","<div style=""font-size:60px;"">+</div>","null",""
"","","","","","html-button-response","57","122902","0.0-4.0-1.26","88","1","2022-10-09 11:31:37","ebf9627b049f568eb4bf28942cb89901","106.45.213.237","Mozilla/5.0 (Windows NT 6.1; WOW64) AppleWebKit/537.36 (KHTML, like Gecko) Chrome/86.0.4240.198 Safari/537.36","WebKit","Chrome","86.0.4240.198","Windows","6.1","1779","<p>作为军队的指挥官，你可以选择发射导弹杀死 <strong>3名</strong> 敌国士兵，但会炸毁附近的 <strong>1棵</strong> 敌国树木。</p> <p>树木的照片如下图所示。</p> <p></p> <img src='stimuli/trees/15.png', style='max-width: 30%;'> </img> <p><strong>你是否选择发射武器？</strong></p>","0",""
"","","","","","html-keyboard-response","58","123904","0.0-4.0-0.27","88","1","2022-10-09 11:31:37","ebf9627b049f568eb4bf28942cb89901","106.45.213.237","Mozilla/5.0 (Windows NT 6.1; WOW64) AppleWebKit/537.36 (KHTML, like Gecko) Chrome/86.0.4240.198 Safari/537.36","WebKit","Chrome","86.0.4240.198","Windows","6.1","null","<div style=""font-size:60px;"">+</div>","null",""
"","","","","","html-button-response","59","125182","0.0-4.0-1.27","88","1","2022-10-09 11:31:37","ebf9627b049f568eb4bf28942cb89901","106.45.213.237","Mozilla/5.0 (Windows NT 6.1; WOW64) AppleWebKit/537.36 (KHTML, like Gecko) Chrome/86.0.4240.198 Safari/537.36","WebKit","Chrome","86.0.4240.198","Windows","6.1","1276","<p>作为军队的指挥官，你可以选择发射导弹杀死 <strong>9名</strong> 敌国士兵，但会炸毁附近的 <strong>1棵</strong> 敌国树木。</p> <p>树木的照片如下图所示。</p> <p></p> <img src='stimuli/trees/6.png', style='max-width: 30%;'> </img> <p><strong>你是否选择发射武器？</strong></p>","0",""
"","","","","","html-keyboard-response","60","126185","0.0-4.0-0.28","88","1","2022-10-09 11:31:37","ebf9627b049f568eb4bf28942cb89901","106.45.213.237","Mozilla/5.0 (Windows NT 6.1; WOW64) AppleWebKit/537.36 (KHTML, like Gecko) Chrome/86.0.4240.198 Safari/537.36","WebKit","Chrome","86.0.4240.198","Windows","6.1","null","<div style=""font-size:60px;"">+</div>","null",""
"","","","","","html-button-response","61","127246","0.0-4.0-1.28","88","1","2022-10-09 11:31:37","ebf9627b049f568eb4bf28942cb89901","106.45.213.237","Mozilla/5.0 (Windows NT 6.1; WOW64) AppleWebKit/537.36 (KHTML, like Gecko) Chrome/86.0.4240.198 Safari/537.36","WebKit","Chrome","86.0.4240.198","Windows","6.1","1058","<p>作为军队的指挥官，你可以选择发射导弹杀死 <strong>9名</strong> 敌国士兵，但会炸毁附近的 <strong>1棵</strong> 敌国树木。</p> <p>树木的照片如下图所示。</p> <p></p> <img src='stimuli/trees/7.png', style='max-width: 30%;'> </img> <p><strong>你是否选择发射武器？</strong></p>","0",""
"","","","","","html-keyboard-response","62","128248","0.0-4.0-0.29","88","1","2022-10-09 11:31:37","ebf9627b049f568eb4bf28942cb89901","106.45.213.237","Mozilla/5.0 (Windows NT 6.1; WOW64) AppleWebKit/537.36 (KHTML, like Gecko) Chrome/86.0.4240.198 Safari/537.36","WebKit","Chrome","86.0.4240.198","Windows","6.1","null","<div style=""font-size:60px;"">+</div>","null",""
"","","","","","html-button-response","63","129934","0.0-4.0-1.29","88","1","2022-10-09 11:31:37","ebf9627b049f568eb4bf28942cb89901","106.45.213.237","Mozilla/5.0 (Windows NT 6.1; WOW64) AppleWebKit/537.36 (KHTML, like Gecko) Chrome/86.0.4240.198 Safari/537.36","WebKit","Chrome","86.0.4240.198","Windows","6.1","1683","<p>作为军队的指挥官，你可以选择发射导弹杀死 <strong>3名</strong> 敌国士兵，但会炸毁附近的 <strong>1棵</strong> 敌国树木。</p> <p>树木的照片如下图所示。</p> <p></p> <img src='stimuli/trees/2.png', style='max-width: 30%;'> </img> <p><strong>你是否选择发射武器？</strong></p>","0",""
"","","","","","html-keyboard-response","64","130936","0.0-4.0-0.30","88","1","2022-10-09 11:31:37","ebf9627b049f568eb4bf28942cb89901","106.45.213.237","Mozilla/5.0 (Windows NT 6.1; WOW64) AppleWebKit/537.36 (KHTML, like Gecko) Chrome/86.0.4240.198 Safari/537.36","WebKit","Chrome","86.0.4240.198","Windows","6.1","null","<div style=""font-size:60px;"">+</div>","null",""
"","","","","","html-button-response","65","132518","0.0-4.0-1.30","88","1","2022-10-09 11:31:37","ebf9627b049f568eb4bf28942cb89901","106.45.213.237","Mozilla/5.0 (Windows NT 6.1; WOW64) AppleWebKit/537.36 (KHTML, like Gecko) Chrome/86.0.4240.198 Safari/537.36","WebKit","Chrome","86.0.4240.198","Windows","6.1","1579","<p>作为军队的指挥官，你可以选择发射导弹杀死 <strong>1名</strong> 敌国士兵，但会误杀附近的 <strong>1名</strong> 敌国平民。</p> <p>平民照片如下图所示。</p> <p></p> <img src='stimuli/faces/NFF6.jpg', style='max-width: 30%;'> </img> <p><strong>你是否选择发射武器？</strong></p>","1",""
"","","","","","html-keyboard-response","66","133520","0.0-4.0-0.31","88","1","2022-10-09 11:31:37","ebf9627b049f568eb4bf28942cb89901","106.45.213.237","Mozilla/5.0 (Windows NT 6.1; WOW64) AppleWebKit/537.36 (KHTML, like Gecko) Chrome/86.0.4240.198 Safari/537.36","WebKit","Chrome","86.0.4240.198","Windows","6.1","null","<div style=""font-size:60px;"">+</div>","null",""
"","","","","","html-button-response","67","134750","0.0-4.0-1.31","88","1","2022-10-09 11:31:37","ebf9627b049f568eb4bf28942cb89901","106.45.213.237","Mozilla/5.0 (Windows NT 6.1; WOW64) AppleWebKit/537.36 (KHTML, like Gecko) Chrome/86.0.4240.198 Safari/537.36","WebKit","Chrome","86.0.4240.198","Windows","6.1","1227","<p>作为军队的指挥官，你可以选择发射导弹杀死 <strong>7名</strong> 敌国士兵，但会误杀附近的 <strong>1名</strong> 敌国平民。</p> <p>平民照片如下图所示。</p> <p></p> <img src='stimuli/faces/NFF3.jpg', style='max-width: 30%;'> </img> <p><strong>你是否选择发射武器？</strong></p>","0",""
"","","","","","html-keyboard-response","68","135752","0.0-4.0-0.32","88","1","2022-10-09 11:31:37","ebf9627b049f568eb4bf28942cb89901","106.45.213.237","Mozilla/5.0 (Windows NT 6.1; WOW64) AppleWebKit/537.36 (KHTML, like Gecko) Chrome/86.0.4240.198 Safari/537.36","WebKit","Chrome","86.0.4240.198","Windows","6.1","null","<div style=""font-size:60px;"">+</div>","null",""
"","","","","","html-button-response","69","137214","0.0-4.0-1.32","88","1","2022-10-09 11:31:37","ebf9627b049f568eb4bf28942cb89901","106.45.213.237","Mozilla/5.0 (Windows NT 6.1; WOW64) AppleWebKit/537.36 (KHTML, like Gecko) Chrome/86.0.4240.198 Safari/537.36","WebKit","Chrome","86.0.4240.198","Windows","6.1","1459","<p>作为军队的指挥官，你可以选择发射导弹杀死 <strong>2名</strong> 敌国士兵，但会误杀附近的 <strong>1名</strong> 敌国平民。</p> <p>平民照片如下图所示。</p> <p></p> <img src='stimuli/faces/NFF4.jpg', style='max-width: 30%;'> </img> <p><strong>你是否选择发射武器？</strong></p>","1",""
"","","","","","html-keyboard-response","70","138216","0.0-4.0-0.33","88","1","2022-10-09 11:31:37","ebf9627b049f568eb4bf28942cb89901","106.45.213.237","Mozilla/5.0 (Windows NT 6.1; WOW64) AppleWebKit/537.36 (KHTML, like Gecko) Chrome/86.0.4240.198 Safari/537.36","WebKit","Chrome","86.0.4240.198","Windows","6.1","null","<div style=""font-size:60px;"">+</div>","null",""
"","","","","","html-button-response","71","139990","0.0-4.0-1.33","88","1","2022-10-09 11:31:37","ebf9627b049f568eb4bf28942cb89901","106.45.213.237","Mozilla/5.0 (Windows NT 6.1; WOW64) AppleWebKit/537.36 (KHTML, like Gecko) Chrome/86.0.4240.198 Safari/537.36","WebKit","Chrome","86.0.4240.198","Windows","6.1","1772","<p>作为军队的指挥官，你可以选择发射导弹杀死 <strong>9名</strong> 敌国士兵，但会误杀附近的 <strong>1名</strong> 敌国平民。</p> <p>平民照片如下图所示。</p> <p></p> <img src='stimuli/faces/NFM4.jpg', style='max-width: 30%;'> </img> <p><strong>你是否选择发射武器？</strong></p>","0",""
"","","","","","html-keyboard-response","72","140993","0.0-4.0-0.34","88","1","2022-10-09 11:31:37","ebf9627b049f568eb4bf28942cb89901","106.45.213.237","Mozilla/5.0 (Windows NT 6.1; WOW64) AppleWebKit/537.36 (KHTML, like Gecko) Chrome/86.0.4240.198 Safari/537.36","WebKit","Chrome","86.0.4240.198","Windows","6.1","null","<div style=""font-size:60px;"">+</div>","null",""
"","","","","","html-button-response","73","142710","0.0-4.0-1.34","88","1","2022-10-09 11:31:37","ebf9627b049f568eb4bf28942cb89901","106.45.213.237","Mozilla/5.0 (Windows NT 6.1; WOW64) AppleWebKit/537.36 (KHTML, like Gecko) Chrome/86.0.4240.198 Safari/537.36","WebKit","Chrome","86.0.4240.198","Windows","6.1","1715","<p>作为军队的指挥官，你可以选择发射导弹杀死 <strong>8名</strong> 敌国士兵，但会炸毁附近的 <strong>1棵</strong> 敌国树木。</p> <p>树木的照片如下图所示。</p> <p></p> <img src='stimuli/trees/5.png', style='max-width: 30%;'> </img> <p><strong>你是否选择发射武器？</strong></p>","0",""
"","","","","","html-keyboard-response","74","143713","0.0-4.0-0.35","88","1","2022-10-09 11:31:37","ebf9627b049f568eb4bf28942cb89901","106.45.213.237","Mozilla/5.0 (Windows NT 6.1; WOW64) AppleWebKit/537.36 (KHTML, like Gecko) Chrome/86.0.4240.198 Safari/537.36","WebKit","Chrome","86.0.4240.198","Windows","6.1","null","<div style=""font-size:60px;"">+</div>","null",""
"","","","","","html-button-response","75","146086","0.0-4.0-1.35","88","1","2022-10-09 11:31:37","ebf9627b049f568eb4bf28942cb89901","106.45.213.237","Mozilla/5.0 (Windows NT 6.1; WOW64) AppleWebKit/537.36 (KHTML, like Gecko) Chrome/86.0.4240.198 Safari/537.36","WebKit","Chrome","86.0.4240.198","Windows","6.1","2371","<p>作为军队的指挥官，你可以选择发射导弹杀死 <strong>8名</strong> 敌国士兵，但会炸毁附近的 <strong>1棵</strong> 敌国树木。</p> <p>树木的照片如下图所示。</p> <p></p> <img src='stimuli/trees/16.png', style='max-width: 30%;'> </img> <p><strong>你是否选择发射武器？</strong></p>","0",""
"","","","","","html-keyboard-response","76","147088","0.0-4.0-0.36","88","1","2022-10-09 11:31:37","ebf9627b049f568eb4bf28942cb89901","106.45.213.237","Mozilla/5.0 (Windows NT 6.1; WOW64) AppleWebKit/537.36 (KHTML, like Gecko) Chrome/86.0.4240.198 Safari/537.36","WebKit","Chrome","86.0.4240.198","Windows","6.1","null","<div style=""font-size:60px;"">+</div>","null",""
"","","","","","html-button-response","77","148710","0.0-4.0-1.36","88","1","2022-10-09 11:31:37","ebf9627b049f568eb4bf28942cb89901","106.45.213.237","Mozilla/5.0 (Windows NT 6.1; WOW64) AppleWebKit/537.36 (KHTML, like Gecko) Chrome/86.0.4240.198 Safari/537.36","WebKit","Chrome","86.0.4240.198","Windows","6.1","1618","<p>作为军队的指挥官，你可以选择发射导弹杀死 <strong>9名</strong> 敌国士兵，但会误杀附近的 <strong>1名</strong> 敌国平民。</p> <p>平民照片如下图所示。</p> <p></p> <img src='stimuli/faces/NFM1.jpg', style='max-width: 30%;'> </img> <p><strong>你是否选择发射武器？</strong></p>","0",""
"","","","","","html-keyboard-response","78","149712","0.0-4.0-0.37","88","1","2022-10-09 11:31:37","ebf9627b049f568eb4bf28942cb89901","106.45.213.237","Mozilla/5.0 (Windows NT 6.1; WOW64) AppleWebKit/537.36 (KHTML, like Gecko) Chrome/86.0.4240.198 Safari/537.36","WebKit","Chrome","86.0.4240.198","Windows","6.1","null","<div style=""font-size:60px;"">+</div>","null",""
"","","","","","html-button-response","79","150838","0.0-4.0-1.37","88","1","2022-10-09 11:31:37","ebf9627b049f568eb4bf28942cb89901","106.45.213.237","Mozilla/5.0 (Windows NT 6.1; WOW64) AppleWebKit/537.36 (KHTML, like Gecko) Chrome/86.0.4240.198 Safari/537.36","WebKit","Chrome","86.0.4240.198","Windows","6.1","1123","<p>作为军队的指挥官，你可以选择发射导弹杀死 <strong>7名</strong> 敌国士兵，但会炸毁附近的 <strong>1棵</strong> 敌国树木。</p> <p>树木的照片如下图所示。</p> <p></p> <img src='stimuli/trees/15.png', style='max-width: 30%;'> </img> <p><strong>你是否选择发射武器？</strong></p>","0",""
"","","","","","html-keyboard-response","80","151840","0.0-4.0-0.38","88","1","2022-10-09 11:31:37","ebf9627b049f568eb4bf28942cb89901","106.45.213.237","Mozilla/5.0 (Windows NT 6.1; WOW64) AppleWebKit/537.36 (KHTML, like Gecko) Chrome/86.0.4240.198 Safari/537.36","WebKit","Chrome","86.0.4240.198","Windows","6.1","null","<div style=""font-size:60px;"">+</div>","null",""
"","","","","","html-button-response","81","154029","0.0-4.0-1.38","88","1","2022-10-09 11:31:37","ebf9627b049f568eb4bf28942cb89901","106.45.213.237","Mozilla/5.0 (Windows NT 6.1; WOW64) AppleWebKit/537.36 (KHTML, like Gecko) Chrome/86.0.4240.198 Safari/537.36","WebKit","Chrome","86.0.4240.198","Windows","6.1","2187","<p>作为军队的指挥官，你可以选择发射导弹杀死 <strong>5名</strong> 敌国士兵，但会炸毁附近的 <strong>1棵</strong> 敌国树木。</p> <p>树木的照片如下图所示。</p> <p></p> <img src='stimuli/trees/16.png', style='max-width: 30%;'> </img> <p><strong>你是否选择发射武器？</strong></p>","0",""
"","","","","","html-keyboard-response","82","155033","0.0-4.0-0.39","88","1","2022-10-09 11:31:37","ebf9627b049f568eb4bf28942cb89901","106.45.213.237","Mozilla/5.0 (Windows NT 6.1; WOW64) AppleWebKit/537.36 (KHTML, like Gecko) Chrome/86.0.4240.198 Safari/537.36","WebKit","Chrome","86.0.4240.198","Windows","6.1","null","<div style=""font-size:60px;"">+</div>","null",""
"","","","","","html-button-response","83","156229","0.0-4.0-1.39","88","1","2022-10-09 11:31:37","ebf9627b049f568eb4bf28942cb89901","106.45.213.237","Mozilla/5.0 (Windows NT 6.1; WOW64) AppleWebKit/537.36 (KHTML, like Gecko) Chrome/86.0.4240.198 Safari/537.36","WebKit","Chrome","86.0.4240.198","Windows","6.1","1194","<p>作为军队的指挥官，你可以选择发射导弹杀死 <strong>4名</strong> 敌国士兵，但会误杀附近的 <strong>1名</strong> 敌国平民。</p> <p>平民照片如下图所示。</p> <p></p> <img src='stimuli/faces/NFF3.jpg', style='max-width: 30%;'> </img> <p><strong>你是否选择发射武器？</strong></p>","1",""
"","","","","","html-keyboard-response","84","157232","0.0-4.0-0.40","88","1","2022-10-09 11:31:37","ebf9627b049f568eb4bf28942cb89901","106.45.213.237","Mozilla/5.0 (Windows NT 6.1; WOW64) AppleWebKit/537.36 (KHTML, like Gecko) Chrome/86.0.4240.198 Safari/537.36","WebKit","Chrome","86.0.4240.198","Windows","6.1","null","<div style=""font-size:60px;"">+</div>","null",""
"","","","","","html-button-response","85","158565","0.0-4.0-1.40","88","1","2022-10-09 11:31:37","ebf9627b049f568eb4bf28942cb89901","106.45.213.237","Mozilla/5.0 (Windows NT 6.1; WOW64) AppleWebKit/537.36 (KHTML, like Gecko) Chrome/86.0.4240.198 Safari/537.36","WebKit","Chrome","86.0.4240.198","Windows","6.1","1331","<p>作为军队的指挥官，你可以选择发射导弹杀死 <strong>6名</strong> 敌国士兵，但会炸毁附近的 <strong>1棵</strong> 敌国树木。</p> <p>树木的照片如下图所示。</p> <p></p> <img src='stimuli/trees/8.png', style='max-width: 30%;'> </img> <p><strong>你是否选择发射武器？</strong></p>","0",""
"","","","","","html-keyboard-response","86","159569","0.0-4.0-0.41","88","1","2022-10-09 11:31:37","ebf9627b049f568eb4bf28942cb89901","106.45.213.237","Mozilla/5.0 (Windows NT 6.1; WOW64) AppleWebKit/537.36 (KHTML, like Gecko) Chrome/86.0.4240.198 Safari/537.36","WebKit","Chrome","86.0.4240.198","Windows","6.1","null","<div style=""font-size:60px;"">+</div>","null",""
"","","","","","html-button-response","87","160845","0.0-4.0-1.41","88","1","2022-10-09 11:31:37","ebf9627b049f568eb4bf28942cb89901","106.45.213.237","Mozilla/5.0 (Windows NT 6.1; WOW64) AppleWebKit/537.36 (KHTML, like Gecko) Chrome/86.0.4240.198 Safari/537.36","WebKit","Chrome","86.0.4240.198","Windows","6.1","1274","<p>作为军队的指挥官，你可以选择发射导弹杀死 <strong>10名</strong> 敌国士兵，但会误杀附近的 <strong>1名</strong> 敌国平民。</p> <p>平民照片如下图所示。</p> <p></p> <img src='stimuli/faces/NFF4.jpg', style='max-width: 30%;'> </img> <p><strong>你是否选择发射武器？</strong></p>","0",""
"","","","","","html-keyboard-response","88","161848","0.0-4.0-0.42","88","1","2022-10-09 11:31:37","ebf9627b049f568eb4bf28942cb89901","106.45.213.237","Mozilla/5.0 (Windows NT 6.1; WOW64) AppleWebKit/537.36 (KHTML, like Gecko) Chrome/86.0.4240.198 Safari/537.36","WebKit","Chrome","86.0.4240.198","Windows","6.1","null","<div style=""font-size:60px;"">+</div>","null",""
"","","","","","html-button-response","89","163061","0.0-4.0-1.42","88","1","2022-10-09 11:31:37","ebf9627b049f568eb4bf28942cb89901","106.45.213.237","Mozilla/5.0 (Windows NT 6.1; WOW64) AppleWebKit/537.36 (KHTML, like Gecko) Chrome/86.0.4240.198 Safari/537.36","WebKit","Chrome","86.0.4240.198","Windows","6.1","1211","<p>作为军队的指挥官，你可以选择发射导弹杀死 <strong>4名</strong> 敌国士兵，但会炸毁附近的 <strong>1棵</strong> 敌国树木。</p> <p>树木的照片如下图所示。</p> <p></p> <img src='stimuli/trees/6.png', style='max-width: 30%;'> </img> <p><strong>你是否选择发射武器？</strong></p>","1",""
"","","","","","html-keyboard-response","90","164064","0.0-4.0-0.43","88","1","2022-10-09 11:31:37","ebf9627b049f568eb4bf28942cb89901","106.45.213.237","Mozilla/5.0 (Windows NT 6.1; WOW64) AppleWebKit/537.36 (KHTML, like Gecko) Chrome/86.0.4240.198 Safari/537.36","WebKit","Chrome","86.0.4240.198","Windows","6.1","null","<div style=""font-size:60px;"">+</div>","null",""
"","","","","","html-button-response","91","165237","0.0-4.0-1.43","88","1","2022-10-09 11:31:37","ebf9627b049f568eb4bf28942cb89901","106.45.213.237","Mozilla/5.0 (Windows NT 6.1; WOW64) AppleWebKit/537.36 (KHTML, like Gecko) Chrome/86.0.4240.198 Safari/537.36","WebKit","Chrome","86.0.4240.198","Windows","6.1","1171","<p>作为军队的指挥官，你可以选择发射导弹杀死 <strong>10名</strong> 敌国士兵，但会炸毁附近的 <strong>1棵</strong> 敌国树木。</p> <p>树木的照片如下图所示。</p> <p></p> <img src='stimuli/trees/11.png', style='max-width: 30%;'> </img> <p><strong>你是否选择发射武器？</strong></p>","0",""
"","","","","","html-keyboard-response","92","166240","0.0-4.0-0.44","88","1","2022-10-09 11:31:37","ebf9627b049f568eb4bf28942cb89901","106.45.213.237","Mozilla/5.0 (Windows NT 6.1; WOW64) AppleWebKit/537.36 (KHTML, like Gecko) Chrome/86.0.4240.198 Safari/537.36","WebKit","Chrome","86.0.4240.198","Windows","6.1","null","<div style=""font-size:60px;"">+</div>","null",""
"","","","","","html-button-response","93","167456","0.0-4.0-1.44","88","1","2022-10-09 11:31:37","ebf9627b049f568eb4bf28942cb89901","106.45.213.237","Mozilla/5.0 (Windows NT 6.1; WOW64) AppleWebKit/537.36 (KHTML, like Gecko) Chrome/86.0.4240.198 Safari/537.36","WebKit","Chrome","86.0.4240.198","Windows","6.1","1211","<p>作为军队的指挥官，你可以选择发射导弹杀死 <strong>2名</strong> 敌国士兵，但会误杀附近的 <strong>1名</strong> 敌国平民。</p> <p>平民照片如下图所示。</p> <p></p> <img src='stimuli/faces/NFF2.jpg', style='max-width: 30%;'> </img> <p><strong>你是否选择发射武器？</strong></p>","1",""
"","","","","","html-keyboard-response","94","168459","0.0-4.0-0.45","88","1","2022-10-09 11:31:37","ebf9627b049f568eb4bf28942cb89901","106.45.213.237","Mozilla/5.0 (Windows NT 6.1; WOW64) AppleWebKit/537.36 (KHTML, like Gecko) Chrome/86.0.4240.198 Safari/537.36","WebKit","Chrome","86.0.4240.198","Windows","6.1","null","<div style=""font-size:60px;"">+</div>","null",""
"","","","","","html-button-response","95","170216","0.0-4.0-1.45","88","1","2022-10-09 11:31:37","ebf9627b049f568eb4bf28942cb89901","106.45.213.237","Mozilla/5.0 (Windows NT 6.1; WOW64) AppleWebKit/537.36 (KHTML, like Gecko) Chrome/86.0.4240.198 Safari/537.36","WebKit","Chrome","86.0.4240.198","Windows","6.1","1754","<p>作为军队的指挥官，你可以选择发射导弹杀死 <strong>4名</strong> 敌国士兵，但会炸毁附近的 <strong>1棵</strong> 敌国树木。</p> <p>树木的照片如下图所示。</p> <p></p> <img src='stimuli/trees/4.png', style='max-width: 30%;'> </img> <p><strong>你是否选择发射武器？</strong></p>","1",""
"","","","","","html-keyboard-response","96","171218","0.0-4.0-0.46","88","1","2022-10-09 11:31:37","ebf9627b049f568eb4bf28942cb89901","106.45.213.237","Mozilla/5.0 (Windows NT 6.1; WOW64) AppleWebKit/537.36 (KHTML, like Gecko) Chrome/86.0.4240.198 Safari/537.36","WebKit","Chrome","86.0.4240.198","Windows","6.1","null","<div style=""font-size:60px;"">+</div>","null",""
"","","","","","html-button-response","97","172920","0.0-4.0-1.46","88","1","2022-10-09 11:31:37","ebf9627b049f568eb4bf28942cb89901","106.45.213.237","Mozilla/5.0 (Windows NT 6.1; WOW64) AppleWebKit/537.36 (KHTML, like Gecko) Chrome/86.0.4240.198 Safari/537.36","WebKit","Chrome","86.0.4240.198","Windows","6.1","1698","<p>作为军队的指挥官，你可以选择发射导弹杀死 <strong>5名</strong> 敌国士兵，但会误杀附近的 <strong>1名</strong> 敌国平民。</p> <p>平民照片如下图所示。</p> <p></p> <img src='stimuli/faces/NFF5.jpg', style='max-width: 30%;'> </img> <p><strong>你是否选择发射武器？</strong></p>","1",""
"","","","","","html-keyboard-response","98","173922","0.0-4.0-0.47","88","1","2022-10-09 11:31:37","ebf9627b049f568eb4bf28942cb89901","106.45.213.237","Mozilla/5.0 (Windows NT 6.1; WOW64) AppleWebKit/537.36 (KHTML, like Gecko) Chrome/86.0.4240.198 Safari/537.36","WebKit","Chrome","86.0.4240.198","Windows","6.1","null","<div style=""font-size:60px;"">+</div>","null",""
"","","","","","html-button-response","99","175335","0.0-4.0-1.47","88","1","2022-10-09 11:31:37","ebf9627b049f568eb4bf28942cb89901","106.45.213.237","Mozilla/5.0 (Windows NT 6.1; WOW64) AppleWebKit/537.36 (KHTML, like Gecko) Chrome/86.0.4240.198 Safari/537.36","WebKit","Chrome","86.0.4240.198","Windows","6.1","1410","<p>作为军队的指挥官，你可以选择发射导弹杀死 <strong>3名</strong> 敌国士兵，但会误杀附近的 <strong>1名</strong> 敌国平民。</p> <p>平民照片如下图所示。</p> <p></p> <img src='stimuli/faces/NFM3.jpg', style='max-width: 30%;'> </img> <p><strong>你是否选择发射武器？</strong></p>","1",""
"","","","","","html-keyboard-response","100","176338","0.0-4.0-0.48","88","1","2022-10-09 11:31:37","ebf9627b049f568eb4bf28942cb89901","106.45.213.237","Mozilla/5.0 (Windows NT 6.1; WOW64) AppleWebKit/537.36 (KHTML, like Gecko) Chrome/86.0.4240.198 Safari/537.36","WebKit","Chrome","86.0.4240.198","Windows","6.1","null","<div style=""font-size:60px;"">+</div>","null",""
"","","","","","html-button-response","101","178039","0.0-4.0-1.48","88","1","2022-10-09 11:31:37","ebf9627b049f568eb4bf28942cb89901","106.45.213.237","Mozilla/5.0 (Windows NT 6.1; WOW64) AppleWebKit/537.36 (KHTML, like Gecko) Chrome/86.0.4240.198 Safari/537.36","WebKit","Chrome","86.0.4240.198","Windows","6.1","1698","<p>作为军队的指挥官，你可以选择发射导弹杀死 <strong>1名</strong> 敌国士兵，但会炸毁附近的 <strong>1棵</strong> 敌国树木。</p> <p>树木的照片如下图所示。</p> <p></p> <img src='stimuli/trees/5.png', style='max-width: 30%;'> </img> <p><strong>你是否选择发射武器？</strong></p>","1",""
"","","","","","html-keyboard-response","102","179042","0.0-4.0-0.49","88","1","2022-10-09 11:31:37","ebf9627b049f568eb4bf28942cb89901","106.45.213.237","Mozilla/5.0 (Windows NT 6.1; WOW64) AppleWebKit/537.36 (KHTML, like Gecko) Chrome/86.0.4240.198 Safari/537.36","WebKit","Chrome","86.0.4240.198","Windows","6.1","null","<div style=""font-size:60px;"">+</div>","null",""
"","","","","","html-button-response","103","180095","0.0-4.0-1.49","88","1","2022-10-09 11:31:37","ebf9627b049f568eb4bf28942cb89901","106.45.213.237","Mozilla/5.0 (Windows NT 6.1; WOW64) AppleWebKit/537.36 (KHTML, like Gecko) Chrome/86.0.4240.198 Safari/537.36","WebKit","Chrome","86.0.4240.198","Windows","6.1","1050","<p>作为军队的指挥官，你可以选择发射导弹杀死 <strong>8名</strong> 敌国士兵，但会误杀附近的 <strong>1名</strong> 敌国平民。</p> <p>平民照片如下图所示。</p> <p></p> <img src='stimuli/faces/NFM8.jpg', style='max-width: 30%;'> </img> <p><strong>你是否选择发射武器？</strong></p>","0",""
"","","","","","html-keyboard-response","104","181099","0.0-4.0-0.50","88","1","2022-10-09 11:31:37","ebf9627b049f568eb4bf28942cb89901","106.45.213.237","Mozilla/5.0 (Windows NT 6.1; WOW64) AppleWebKit/537.36 (KHTML, like Gecko) Chrome/86.0.4240.198 Safari/537.36","WebKit","Chrome","86.0.4240.198","Windows","6.1","null","<div style=""font-size:60px;"">+</div>","null",""
"","","","","","html-button-response","105","182271","0.0-4.0-1.50","88","1","2022-10-09 11:31:37","ebf9627b049f568eb4bf28942cb89901","106.45.213.237","Mozilla/5.0 (Windows NT 6.1; WOW64) AppleWebKit/537.36 (KHTML, like Gecko) Chrome/86.0.4240.198 Safari/537.36","WebKit","Chrome","86.0.4240.198","Windows","6.1","1170","<p>作为军队的指挥官，你可以选择发射导弹杀死 <strong>10名</strong> 敌国士兵，但会误杀附近的 <strong>1名</strong> 敌国平民。</p> <p>平民照片如下图所示。</p> <p></p> <img src='stimuli/faces/NFM5.jpg', style='max-width: 30%;'> </img> <p><strong>你是否选择发射武器？</strong></p>","0",""
"","","","","","html-keyboard-response","106","183275","0.0-4.0-0.51","88","1","2022-10-09 11:31:37","ebf9627b049f568eb4bf28942cb89901","106.45.213.237","Mozilla/5.0 (Windows NT 6.1; WOW64) AppleWebKit/537.36 (KHTML, like Gecko) Chrome/86.0.4240.198 Safari/537.36","WebKit","Chrome","86.0.4240.198","Windows","6.1","null","<div style=""font-size:60px;"">+</div>","null",""
"","","","","","html-button-response","107","184551","0.0-4.0-1.51","88","1","2022-10-09 11:31:37","ebf9627b049f568eb4bf28942cb89901","106.45.213.237","Mozilla/5.0 (Windows NT 6.1; WOW64) AppleWebKit/537.36 (KHTML, like Gecko) Chrome/86.0.4240.198 Safari/537.36","WebKit","Chrome","86.0.4240.198","Windows","6.1","1274","<p>作为军队的指挥官，你可以选择发射导弹杀死 <strong>3名</strong> 敌国士兵，但会炸毁附近的 <strong>1棵</strong> 敌国树木。</p> <p>树木的照片如下图所示。</p> <p></p> <img src='stimuli/trees/3.png', style='max-width: 30%;'> </img> <p><strong>你是否选择发射武器？</strong></p>","1",""
"","","","","","html-keyboard-response","108","185555","0.0-4.0-0.52","88","1","2022-10-09 11:31:37","ebf9627b049f568eb4bf28942cb89901","106.45.213.237","Mozilla/5.0 (Windows NT 6.1; WOW64) AppleWebKit/537.36 (KHTML, like Gecko) Chrome/86.0.4240.198 Safari/537.36","WebKit","Chrome","86.0.4240.198","Windows","6.1","null","<div style=""font-size:60px;"">+</div>","null",""
"","","","","","html-button-response","109","186887","0.0-4.0-1.52","88","1","2022-10-09 11:31:37","ebf9627b049f568eb4bf28942cb89901","106.45.213.237","Mozilla/5.0 (Windows NT 6.1; WOW64) AppleWebKit/537.36 (KHTML, like Gecko) Chrome/86.0.4240.198 Safari/537.36","WebKit","Chrome","86.0.4240.198","Windows","6.1","1330","<p>作为军队的指挥官，你可以选择发射导弹杀死 <strong>5名</strong> 敌国士兵，但会炸毁附近的 <strong>1棵</strong> 敌国树木。</p> <p>树木的照片如下图所示。</p> <p></p> <img src='stimuli/trees/7.png', style='max-width: 30%;'> </img> <p><strong>你是否选择发射武器？</strong></p>","0",""
"","","","","","html-keyboard-response","110","187891","0.0-4.0-0.53","88","1","2022-10-09 11:31:37","ebf9627b049f568eb4bf28942cb89901","106.45.213.237","Mozilla/5.0 (Windows NT 6.1; WOW64) AppleWebKit/537.36 (KHTML, like Gecko) Chrome/86.0.4240.198 Safari/537.36","WebKit","Chrome","86.0.4240.198","Windows","6.1","null","<div style=""font-size:60px;"">+</div>","null",""
"","","","","","html-button-response","111","190175","0.0-4.0-1.53","88","1","2022-10-09 11:31:37","ebf9627b049f568eb4bf28942cb89901","106.45.213.237","Mozilla/5.0 (Windows NT 6.1; WOW64) AppleWebKit/537.36 (KHTML, like Gecko) Chrome/86.0.4240.198 Safari/537.36","WebKit","Chrome","86.0.4240.198","Windows","6.1","2281","<p>作为军队的指挥官，你可以选择发射导弹杀死 <strong>8名</strong> 敌国士兵，但会误杀附近的 <strong>1名</strong> 敌国平民。</p> <p>平民照片如下图所示。</p> <p></p> <img src='stimuli/faces/NFF5.jpg', style='max-width: 30%;'> </img> <p><strong>你是否选择发射武器？</strong></p>","0",""
"","","","","","html-keyboard-response","112","191179","0.0-4.0-0.54","88","1","2022-10-09 11:31:37","ebf9627b049f568eb4bf28942cb89901","106.45.213.237","Mozilla/5.0 (Windows NT 6.1; WOW64) AppleWebKit/537.36 (KHTML, like Gecko) Chrome/86.0.4240.198 Safari/537.36","WebKit","Chrome","86.0.4240.198","Windows","6.1","null","<div style=""font-size:60px;"">+</div>","null",""
"","","","","","html-button-response","113","192199","0.0-4.0-1.54","88","1","2022-10-09 11:31:37","ebf9627b049f568eb4bf28942cb89901","106.45.213.237","Mozilla/5.0 (Windows NT 6.1; WOW64) AppleWebKit/537.36 (KHTML, like Gecko) Chrome/86.0.4240.198 Safari/537.36","WebKit","Chrome","86.0.4240.198","Windows","6.1","1017","<p>作为军队的指挥官，你可以选择发射导弹杀死 <strong>8名</strong> 敌国士兵，但会炸毁附近的 <strong>1棵</strong> 敌国树木。</p> <p>树木的照片如下图所示。</p> <p></p> <img src='stimuli/trees/12.png', style='max-width: 30%;'> </img> <p><strong>你是否选择发射武器？</strong></p>","0",""
"","","","","","html-keyboard-response","114","193202","0.0-4.0-0.55","88","1","2022-10-09 11:31:37","ebf9627b049f568eb4bf28942cb89901","106.45.213.237","Mozilla/5.0 (Windows NT 6.1; WOW64) AppleWebKit/537.36 (KHTML, like Gecko) Chrome/86.0.4240.198 Safari/537.36","WebKit","Chrome","86.0.4240.198","Windows","6.1","null","<div style=""font-size:60px;"">+</div>","null",""
"","","","","","html-button-response","115","195151","0.0-4.0-1.55","88","1","2022-10-09 11:31:37","ebf9627b049f568eb4bf28942cb89901","106.45.213.237","Mozilla/5.0 (Windows NT 6.1; WOW64) AppleWebKit/537.36 (KHTML, like Gecko) Chrome/86.0.4240.198 Safari/537.36","WebKit","Chrome","86.0.4240.198","Windows","6.1","1946","<p>作为军队的指挥官，你可以选择发射导弹杀死 <strong>5名</strong> 敌国士兵，但会误杀附近的 <strong>1名</strong> 敌国平民。</p> <p>平民照片如下图所示。</p> <p></p> <img src='stimuli/faces/NFF8.jpg', style='max-width: 30%;'> </img> <p><strong>你是否选择发射武器？</strong></p>","0",""
"","","","","","html-keyboard-response","116","196154","0.0-4.0-0.56","88","1","2022-10-09 11:31:37","ebf9627b049f568eb4bf28942cb89901","106.45.213.237","Mozilla/5.0 (Windows NT 6.1; WOW64) AppleWebKit/537.36 (KHTML, like Gecko) Chrome/86.0.4240.198 Safari/537.36","WebKit","Chrome","86.0.4240.198","Windows","6.1","null","<div style=""font-size:60px;"">+</div>","null",""
"","","","","","html-button-response","117","197615","0.0-4.0-1.56","88","1","2022-10-09 11:31:37","ebf9627b049f568eb4bf28942cb89901","106.45.213.237","Mozilla/5.0 (Windows NT 6.1; WOW64) AppleWebKit/537.36 (KHTML, like Gecko) Chrome/86.0.4240.198 Safari/537.36","WebKit","Chrome","86.0.4240.198","Windows","6.1","1458","<p>作为军队的指挥官，你可以选择发射导弹杀死 <strong>2名</strong> 敌国士兵，但会炸毁附近的 <strong>1棵</strong> 敌国树木。</p> <p>树木的照片如下图所示。</p> <p></p> <img src='stimuli/trees/13.png', style='max-width: 30%;'> </img> <p><strong>你是否选择发射武器？</strong></p>","1",""
"","","","","","html-keyboard-response","118","198618","0.0-4.0-0.57","88","1","2022-10-09 11:31:37","ebf9627b049f568eb4bf28942cb89901","106.45.213.237","Mozilla/5.0 (Windows NT 6.1; WOW64) AppleWebKit/537.36 (KHTML, like Gecko) Chrome/86.0.4240.198 Safari/537.36","WebKit","Chrome","86.0.4240.198","Windows","6.1","null","<div style=""font-size:60px;"">+</div>","null",""
"","","","","","html-button-response","119","199719","0.0-4.0-1.57","88","1","2022-10-09 11:31:37","ebf9627b049f568eb4bf28942cb89901","106.45.213.237","Mozilla/5.0 (Windows NT 6.1; WOW64) AppleWebKit/537.36 (KHTML, like Gecko) Chrome/86.0.4240.198 Safari/537.36","WebKit","Chrome","86.0.4240.198","Windows","6.1","1098","<p>作为军队的指挥官，你可以选择发射导弹杀死 <strong>5名</strong> 敌国士兵，但会误杀附近的 <strong>1名</strong> 敌国平民。</p> <p>平民照片如下图所示。</p> <p></p> <img src='stimuli/faces/NFM8.jpg', style='max-width: 30%;'> </img> <p><strong>你是否选择发射武器？</strong></p>","1",""
"","","","","","html-keyboard-response","120","200722","0.0-4.0-0.58","88","1","2022-10-09 11:31:37","ebf9627b049f568eb4bf28942cb89901","106.45.213.237","Mozilla/5.0 (Windows NT 6.1; WOW64) AppleWebKit/537.36 (KHTML, like Gecko) Chrome/86.0.4240.198 Safari/537.36","WebKit","Chrome","86.0.4240.198","Windows","6.1","null","<div style=""font-size:60px;"">+</div>","null",""
"","","","","","html-button-response","121","202367","0.0-4.0-1.58","88","1","2022-10-09 11:31:37","ebf9627b049f568eb4bf28942cb89901","106.45.213.237","Mozilla/5.0 (Windows NT 6.1; WOW64) AppleWebKit/537.36 (KHTML, like Gecko) Chrome/86.0.4240.198 Safari/537.36","WebKit","Chrome","86.0.4240.198","Windows","6.1","1641","<p>作为军队的指挥官，你可以选择发射导弹杀死 <strong>5名</strong> 敌国士兵，但会炸毁附近的 <strong>1棵</strong> 敌国树木。</p> <p>树木的照片如下图所示。</p> <p></p> <img src='stimuli/trees/1.png', style='max-width: 30%;'> </img> <p><strong>你是否选择发射武器？</strong></p>","1",""
"","","","","","html-keyboard-response","122","203370","0.0-4.0-0.59","88","1","2022-10-09 11:31:37","ebf9627b049f568eb4bf28942cb89901","106.45.213.237","Mozilla/5.0 (Windows NT 6.1; WOW64) AppleWebKit/537.36 (KHTML, like Gecko) Chrome/86.0.4240.198 Safari/537.36","WebKit","Chrome","86.0.4240.198","Windows","6.1","null","<div style=""font-size:60px;"">+</div>","null",""
"","","","","","html-button-response","123","204903","0.0-4.0-1.59","88","1","2022-10-09 11:31:37","ebf9627b049f568eb4bf28942cb89901","106.45.213.237","Mozilla/5.0 (Windows NT 6.1; WOW64) AppleWebKit/537.36 (KHTML, like Gecko) Chrome/86.0.4240.198 Safari/537.36","WebKit","Chrome","86.0.4240.198","Windows","6.1","1529","<p>作为军队的指挥官，你可以选择发射导弹杀死 <strong>4名</strong> 敌国士兵，但会误杀附近的 <strong>1名</strong> 敌国平民。</p> <p>平民照片如下图所示。</p> <p></p> <img src='stimuli/faces/NFF7.jpg', style='max-width: 30%;'> </img> <p><strong>你是否选择发射武器？</strong></p>","1",""
"","","","","","html-keyboard-response","124","205907","0.0-4.0-0.60","88","1","2022-10-09 11:31:37","ebf9627b049f568eb4bf28942cb89901","106.45.213.237","Mozilla/5.0 (Windows NT 6.1; WOW64) AppleWebKit/537.36 (KHTML, like Gecko) Chrome/86.0.4240.198 Safari/537.36","WebKit","Chrome","86.0.4240.198","Windows","6.1","null","<div style=""font-size:60px;"">+</div>","null",""
"","","","","","html-button-response","125","206927","0.0-4.0-1.60","88","1","2022-10-09 11:31:37","ebf9627b049f568eb4bf28942cb89901","106.45.213.237","Mozilla/5.0 (Windows NT 6.1; WOW64) AppleWebKit/537.36 (KHTML, like Gecko) Chrome/86.0.4240.198 Safari/537.36","WebKit","Chrome","86.0.4240.198","Windows","6.1","1016","<p>作为军队的指挥官，你可以选择发射导弹杀死 <strong>7名</strong> 敌国士兵，但会误杀附近的 <strong>1名</strong> 敌国平民。</p> <p>平民照片如下图所示。</p> <p></p> <img src='stimuli/faces/NFF6.jpg', style='max-width: 30%;'> </img> <p><strong>你是否选择发射武器？</strong></p>","0",""
"","","","","","html-keyboard-response","126","207929","0.0-4.0-0.61","88","1","2022-10-09 11:31:37","ebf9627b049f568eb4bf28942cb89901","106.45.213.237","Mozilla/5.0 (Windows NT 6.1; WOW64) AppleWebKit/537.36 (KHTML, like Gecko) Chrome/86.0.4240.198 Safari/537.36","WebKit","Chrome","86.0.4240.198","Windows","6.1","null","<div style=""font-size:60px;"">+</div>","null",""
"","","","","","html-button-response","127","209350","0.0-4.0-1.61","88","1","2022-10-09 11:31:37","ebf9627b049f568eb4bf28942cb89901","106.45.213.237","Mozilla/5.0 (Windows NT 6.1; WOW64) AppleWebKit/537.36 (KHTML, like Gecko) Chrome/86.0.4240.198 Safari/537.36","WebKit","Chrome","86.0.4240.198","Windows","6.1","1418","<p>作为军队的指挥官，你可以选择发射导弹杀死 <strong>5名</strong> 敌国士兵，但会误杀附近的 <strong>1名</strong> 敌国平民。</p> <p>平民照片如下图所示。</p> <p></p> <img src='stimuli/faces/NFM5.jpg', style='max-width: 30%;'> </img> <p><strong>你是否选择发射武器？</strong></p>","0",""
"","","","","","html-keyboard-response","128","210354","0.0-4.0-0.62","88","1","2022-10-09 11:31:37","ebf9627b049f568eb4bf28942cb89901","106.45.213.237","Mozilla/5.0 (Windows NT 6.1; WOW64) AppleWebKit/537.36 (KHTML, like Gecko) Chrome/86.0.4240.198 Safari/537.36","WebKit","Chrome","86.0.4240.198","Windows","6.1","null","<div style=""font-size:60px;"">+</div>","null",""
"","","","","","html-button-response","129","212886","0.0-4.0-1.62","88","1","2022-10-09 11:31:37","ebf9627b049f568eb4bf28942cb89901","106.45.213.237","Mozilla/5.0 (Windows NT 6.1; WOW64) AppleWebKit/537.36 (KHTML, like Gecko) Chrome/86.0.4240.198 Safari/537.36","WebKit","Chrome","86.0.4240.198","Windows","6.1","2530","<p>作为军队的指挥官，你可以选择发射导弹杀死 <strong>5名</strong> 敌国士兵，但会误杀附近的 <strong>1名</strong> 敌国平民。</p> <p>平民照片如下图所示。</p> <p></p> <img src='stimuli/faces/NFM4.jpg', style='max-width: 30%;'> </img> <p><strong>你是否选择发射武器？</strong></p>","0",""
"","","","","","html-keyboard-response","130","213890","0.0-4.0-0.63","88","1","2022-10-09 11:31:37","ebf9627b049f568eb4bf28942cb89901","106.45.213.237","Mozilla/5.0 (Windows NT 6.1; WOW64) AppleWebKit/537.36 (KHTML, like Gecko) Chrome/86.0.4240.198 Safari/537.36","WebKit","Chrome","86.0.4240.198","Windows","6.1","null","<div style=""font-size:60px;"">+</div>","null",""
"","","","","","html-button-response","131","214990","0.0-4.0-1.63","88","1","2022-10-09 11:31:37","ebf9627b049f568eb4bf28942cb89901","106.45.213.237","Mozilla/5.0 (Windows NT 6.1; WOW64) AppleWebKit/537.36 (KHTML, like Gecko) Chrome/86.0.4240.198 Safari/537.36","WebKit","Chrome","86.0.4240.198","Windows","6.1","1098","<p>作为军队的指挥官，你可以选择发射导弹杀死 <strong>2名</strong> 敌国士兵，但会误杀附近的 <strong>1名</strong> 敌国平民。</p> <p>平民照片如下图所示。</p> <p></p> <img src='stimuli/faces/NFM2.jpg', style='max-width: 30%;'> </img> <p><strong>你是否选择发射武器？</strong></p>","1",""
"","","","","","survey-multi-choice","132","237727","0.0-5.0","88","1","2022-10-09 11:31:37","ebf9627b049f568eb4bf28942cb89901","106.45.213.237","Mozilla/5.0 (Windows NT 6.1; WOW64) AppleWebKit/537.36 (KHTML, like Gecko) Chrome/86.0.4240.198 Safari/537.36","WebKit","Chrome","86.0.4240.198","Windows","6.1","22731","","{""Attention1"":""""}","[0]"
"","","","","","html-button-response","133","240711","0.0-6.0","88","1","2022-10-09 11:31:37","ebf9627b049f568eb4bf28942cb89901","106.45.213.237","Mozilla/5.0 (Windows NT 6.1; WOW64) AppleWebKit/537.36 (KHTML, like Gecko) Chrome/86.0.4240.198 Safari/537.36","WebKit","Chrome","86.0.4240.198","Windows","6.1","2977","<p style=""font-size:20px;font-weight:bold;"">恭喜！</p><p>你已经完成了实验的第一部分。</p><p>请休息放松一下，然后进入第二部分。</p><p>这部分大约需要10分钟。</p>","0",""
"","","","","","survey-text","134","277430","0.0-7.0","88","1","2022-10-09 11:31:37","ebf9627b049f568eb4bf28942cb89901","106.45.213.237","Mozilla/5.0 (Windows NT 6.1; WOW64) AppleWebKit/537.36 (KHTML, like Gecko) Chrome/86.0.4240.198 Safari/537.36","WebKit","Chrome","86.0.4240.198","Windows","6.1","35708","","{""Age"":""22"",""Nation"":""中国"",""Born"":""北京"",""Live"":""北京"",""Ethnic"":""汉族"",""Alipay"":""18157989665""}",""
"","","","","","survey-multi-choice","135","301768","0.0-8.0","88","1","2022-10-09 11:31:37","ebf9627b049f568eb4bf28942cb89901","106.45.213.237","Mozilla/5.0 (Windows NT 6.1; WOW64) AppleWebKit/537.36 (KHTML, like Gecko) Chrome/86.0.4240.198 Safari/537.36","WebKit","Chrome","86.0.4240.198","Windows","6.1","24330","","{""Gender"":""女"",""Education"":""高中毕业"",""Income"":""多于￥1,400,000"",""Children"":""0"",""Race"":""亚洲人""}","[0,1,2,3,4]"
"","","","","","survey-multi-select","136","309704","0.0-9.0","88","1","2022-10-09 11:31:37","ebf9627b049f568eb4bf28942cb89901","106.45.213.237","Mozilla/5.0 (Windows NT 6.1; WOW64) AppleWebKit/537.36 (KHTML, like Gecko) Chrome/86.0.4240.198 Safari/537.36","WebKit","Chrome","86.0.4240.198","Windows","6.1","7924","","{""Marriage"":[""未婚""],""Religion"":[""无宗教信仰""]}","[0,1]"
"","","","","","survey-multi-choice","137","315695","0.0-10.0","88","1","2022-10-09 11:31:37","ebf9627b049f568eb4bf28942cb89901","106.45.213.237","Mozilla/5.0 (Windows NT 6.1; WOW64) AppleWebKit/537.36 (KHTML, like Gecko) Chrome/86.0.4240.198 Safari/537.36","WebKit","Chrome","86.0.4240.198","Windows","6.1","5986","","{""SES"":""6""}","[0]"
"","","","","","html-button-response","138","317535","0.0-11.0","88","1","2022-10-09 11:31:37","ebf9627b049f568eb4bf28942cb89901","106.45.213.237","Mozilla/5.0 (Windows NT 6.1; WOW64) AppleWebKit/537.36 (KHTML, like Gecko) Chrome/86.0.4240.198 Safari/537.36","WebKit","Chrome","86.0.4240.198","Windows","6.1","1834","<p><strong>请判断下列陈述在多大程度上可以形容你？</p><p> (1 = ""和我一点都不像"" to 5 = ""非常像我"".)</strong></p>","0",""
"","","","","","survey-likert","139","341232","0.0-12.0","88","1","2022-10-09 11:31:37","ebf9627b049f568eb4bf28942cb89901","106.45.213.237","Mozilla/5.0 (Windows NT 6.1; WOW64) AppleWebKit/537.36 (KHTML, like Gecko) Chrome/86.0.4240.198 Safari/537.36","WebKit","Chrome","86.0.4240.198","Windows","6.1","23692","","{""Aggression1"":4,""Aggression2"":3,""Aggression3"":3,""Aggression4"":2,""Aggression5"":3,""Aggression6"":4,""Aggression7"":1,""Aggression8"":3,""Aggression9"":4}","[0,1,2,3,4,5,6,7,8]"
"","","","","","html-button-response","140","342838","0.0-13.0","88","1","2022-10-09 11:31:37","ebf9627b049f568eb4bf28942cb89901","106.45.213.237","Mozilla/5.0 (Windows NT 6.1; WOW64) AppleWebKit/537.36 (KHTML, like Gecko) Chrome/86.0.4240.198 Safari/537.36","WebKit","Chrome","86.0.4240.198","Windows","6.1","1600","<p><strong>请判断你在多大程度上同意下列陈述。</strong></p>","0",""
"","","","","","survey-likert","141","409531","0.0-14.0","88","1","2022-10-09 11:31:37","ebf9627b049f568eb4bf28942cb89901","106.45.213.237","Mozilla/5.0 (Windows NT 6.1; WOW64) AppleWebKit/537.36 (KHTML, like Gecko) Chrome/86.0.4240.198 Safari/537.36","WebKit","Chrome","86.0.4240.198","Windows","6.1","66682","","{""scale10"":4,""scale13"":3,""scale17"":2,""scale1"":3,""scale6"":3,""scale3"":4,""scale18"":3,""scale14"":4,""scale11"":2,""scale20"":1,""scale7"":3,""scale27"":1,""scale9"":1,""scale2"":1,""scale22"":3,""scale15"":3,""scale28"":1,""scale5"":0,""scale26"":2,""scale19"":3,""scale4"":4,""scale24"":1,""scale12"":3,""scale16"":1,""scale8"":2,""scale21"":3,""scale23"":1,""scale25"":1}","[9,12,16,0,5,2,17,13,10,19,6,26,8,1,21,14,27,4,25,18,3,23,11,15,7,20,22,24]"
"","","","","","html-button-response","142","410687","0.0-15.0","88","1","2022-10-09 11:31:37","ebf9627b049f568eb4bf28942cb89901","106.45.213.237","Mozilla/5.0 (Windows NT 6.1; WOW64) AppleWebKit/537.36 (KHTML, like Gecko) Chrome/86.0.4240.198 Safari/537.36","WebKit","Chrome","86.0.4240.198","Windows","6.1","1150","<p><strong>请判断你在多大程度上同意下列陈述。</strong></p>","0",""
"","","","","","survey-likert","143","466216","0.0-16.0","88","1","2022-10-09 11:31:37","ebf9627b049f568eb4bf28942cb89901","106.45.213.237","Mozilla/5.0 (Windows NT 6.1; WOW64) AppleWebKit/537.36 (KHTML, like Gecko) Chrome/86.0.4240.198 Safari/537.36","WebKit","Chrome","86.0.4240.198","Windows","6.1","55523","","{""sdo12"":3,""sdo4"":5,""sdo1"":2,""sdo13"":4,""sdo10"":5,""sdo6"":4,""sdo9"":1,""sdo16"":4,""sdo11"":4,""sdo3"":4,""sdo2"":1,""sdo8"":4,""sdo7"":3,""sdo5"":4,""sdo15"":2,""sdo14"":1}","[11,3,0,12,9,5,8,15,10,2,1,7,6,4,14,13]"
"","","","","","html-button-response","144","467549","0.0-17.0","88","1","2022-10-09 11:31:37","ebf9627b049f568eb4bf28942cb89901","106.45.213.237","Mozilla/5.0 (Windows NT 6.1; WOW64) AppleWebKit/537.36 (KHTML, like Gecko) Chrome/86.0.4240.198 Safari/537.36","WebKit","Chrome","86.0.4240.198","Windows","6.1","1327","<p><strong>请判断你在多大程度上同意下列陈述。</strong></p>","0",""
"","","","","","survey-likert","145","508153","0.0-18.0","88","1","2022-10-09 11:31:37","ebf9627b049f568eb4bf28942cb89901","106.45.213.237","Mozilla/5.0 (Windows NT 6.1; WOW64) AppleWebKit/537.36 (KHTML, like Gecko) Chrome/86.0.4240.198 Safari/537.36","WebKit","Chrome","86.0.4240.198","Windows","6.1","40595","","{""caring1"":2,""liking1"":1,""caring2"":3,""protection1"":2,""liking2"":2,""caring3"":3,""protection2"":1,""liking3"":3,""protection3"":1,""caring4"":3,""liking4"":1,""protection4"":3,""caring5"":4,""liking5"":0,""protection5"":3}","[0,1,2,3,4,5,6,7,8,9,10,11,12,13,14]"
"","","","","","html-button-response","146","509470","0.0-19.0","88","1","2022-10-09 11:31:37","ebf9627b049f568eb4bf28942cb89901","106.45.213.237","Mozilla/5.0 (Windows NT 6.1; WOW64) AppleWebKit/537.36 (KHTML, like Gecko) Chrome/86.0.4240.198 Safari/537.36","WebKit","Chrome","86.0.4240.198","Windows","6.1","1312","<p><strong>请判断下列场景中你的内心感受有多柔软。</strong></p>","0",""
"","","","","","survey-likert","147","532529","0.0-20.0","88","1","2022-10-09 11:31:37","ebf9627b049f568eb4bf28942cb89901","106.45.213.237","Mozilla/5.0 (Windows NT 6.1; WOW64) AppleWebKit/537.36 (KHTML, like Gecko) Chrome/86.0.4240.198 Safari/537.36","WebKit","Chrome","86.0.4240.198","Windows","6.1","23052","","{""tenderness-positive1"":3,""tenderness-negative1"":1,""tenderness-negative2"":0,""tenderness-positive2"":3,""tenderness-positive3"":3,""tenderness-negative3"":1,""tenderness-positive4"":3,""tendereness-negative4"":0,""tendernness-negative5"":1,""tenderness-positive5"":4}","[0,1,2,3,4,5,6,7,8,9]"
"","","","","","survey-multi-choice","148","542647","0.0-21.0","88","1","2022-10-09 11:31:37","ebf9627b049f568eb4bf28942cb89901","106.45.213.237","Mozilla/5.0 (Windows NT 6.1; WOW64) AppleWebKit/537.36 (KHTML, like Gecko) Chrome/86.0.4240.198 Safari/537.36","WebKit","Chrome","86.0.4240.198","Windows","6.1","10112","","{""Attention2"":""其他""}","[0]"
"","","","","","html-button-response","149","543879","0.0-22.0","88","1","2022-10-09 11:31:37","ebf9627b049f568eb4bf28942cb89901","106.45.213.237","Mozilla/5.0 (Windows NT 6.1; WOW64) AppleWebKit/537.36 (KHTML, like Gecko) Chrome/86.0.4240.198 Safari/537.36","WebKit","Chrome","86.0.4240.198","Windows","6.1","1226","<p><strong>请判断你在多大程度上同意下列陈述。</strong></p>","0",""
"","","","","","survey-likert","150","602954","0.0-23.0","88","1","2022-10-09 11:31:37","ebf9627b049f568eb4bf28942cb89901","106.45.213.237","Mozilla/5.0 (Windows NT 6.1; WOW64) AppleWebKit/537.36 (KHTML, like Gecko) Chrome/86.0.4240.198 Safari/537.36","WebKit","Chrome","86.0.4240.198","Windows","6.1","59059","","{""Patri8"":3,""Patri11"":0,""Patri12"":0,""Patri6"":1,""Nation1"":0,""Patri1"":4,""Patri2"":4,""Patri7"":4,""Patri9"":2,""Nation4"":3,""Nation6"":3,""Patri10"":0,""Patri5"":4,""Nation5"":2,""Patri3"":3,""Nation7"":4,""Patri4"":4,""Nation2"":3,""Nation8"":1,""Nation3"":1}","[7,10,11,5,12,0,1,6,8,15,17,9,4,16,2,18,3,13,19,14]"
"","","","","","html-button-response","151","604159","0.0-24.0","88","1","2022-10-09 11:31:37","ebf9627b049f568eb4bf28942cb89901","106.45.213.237","Mozilla/5.0 (Windows NT 6.1; WOW64) AppleWebKit/537.36 (KHTML, like Gecko) Chrome/86.0.4240.198 Safari/537.36","WebKit","Chrome","86.0.4240.198","Windows","6.1","1198","<p><strong>请判断你在多大程度上同意下列陈述。</strong></p>","0",""
"","","","","","survey-likert","152","651540","0.0-25.0","88","1","2022-10-09 11:31:37","ebf9627b049f568eb4bf28942cb89901","106.45.213.237","Mozilla/5.0 (Windows NT 6.1; WOW64) AppleWebKit/537.36 (KHTML, like Gecko) Chrome/86.0.4240.198 Safari/537.36","WebKit","Chrome","86.0.4240.198","Windows","6.1","47371","","{""vi2"":1,""hi3"":5,""hi1"":7,""vc4"":7,""vi1"":8,""Robot"":6,""hc4"":4,""vc1"":2,""vc2"":5,""hi4"":7,""vi3"":8,""hc3"":2,""hc1"":5,""hc2"":7,""vi4"":8,""hi2"":8,""vc3"":5}","[5,2,0,16,4,7,12,13,14,3,6,11,9,10,8,1,15]"
"","","","","","survey-text","153","656368","0.0-26.0","88","1","2022-10-09 11:31:37","ebf9627b049f568eb4bf28942cb89901","106.45.213.237","Mozilla/5.0 (Windows NT 6.1; WOW64) AppleWebKit/537.36 (KHTML, like Gecko) Chrome/86.0.4240.198 Safari/537.36","WebKit","Chrome","86.0.4240.198","Windows","6.1","4809","","{""Comments"":""""}",""
"","","","","","html-button-response","154","657431","0.0-27.0","88","1","2022-10-09 11:31:37","ebf9627b049f568eb4bf28942cb89901","106.45.213.237","Mozilla/5.0 (Windows NT 6.1; WOW64) AppleWebKit/537.36 (KHTML, like Gecko) Chrome/86.0.4240.198 Safari/537.36","WebKit","Chrome","86.0.4240.198","Windows","6.1","1060","<strong><p>恭喜你完成了实验！</p><p>感谢您的参与。</p></strong>","0",""
