"success","timeout","failed_images","failed_audio","failed_video","trial_type","trial_index","time_elapsed","internal_node_id","run_id","condition","recorded_at","source_code_version","ip","user_agent","device","browser","browser_version","platform","platform_version","rt","stimulus","response","question_order"
"true","false","[]","[]","[]","preload","0","40477","0.0-0.0","96","1","2022-10-09 11:40:52","ebf9627b049f568eb4bf28942cb89901","223.116.176.189","Mozilla/5.0 (Windows NT 10.0; Win64; x64) AppleWebKit/537.36 (KHTML, like Gecko) Chrome/106.0.0.0 Safari/537.36 Edg/106.0.1370.37","WebKit","Edge","106.0.1370.37","Windows","10.0","","","",""
"true","","","","","fullscreen","1","44470","0.0-1.0","96","1","2022-10-09 11:40:52","ebf9627b049f568eb4bf28942cb89901","223.116.176.189","Mozilla/5.0 (Windows NT 10.0; Win64; x64) AppleWebKit/537.36 (KHTML, like Gecko) Chrome/106.0.0.0 Safari/537.36 Edg/106.0.1370.37","WebKit","Edge","106.0.1370.37","Windows","10.0","","","",""
"","","","","","html-button-response","2","49056","0.0-2.0","96","1","2022-10-09 11:40:52","ebf9627b049f568eb4bf28942cb89901","223.116.176.189","Mozilla/5.0 (Windows NT 10.0; Win64; x64) AppleWebKit/537.36 (KHTML, like Gecko) Chrome/106.0.0.0 Safari/537.36 Edg/106.0.1370.37","WebKit","Edge","106.0.1370.37","Windows","10.0","4584","<p style=""font-size:20px;font-weight:bold;"">实验知情同意书</p><p style=""text-align:left;""><strong>实验名称：</strong>社会冲突研究</p><p style=""text-align:left;""><strong>主要研究者：</strong>韩晓春副教授（北京师范大学心理学部）</p><p style=""text-align:left;""><strong>联系方式：</strong>发送邮件至xiaochun.han@bnu.edu.cn</p><p style=""text-align:left;""><strong>研究目的：</strong>研究旨在了解人类面对群体冲突时的决策方式，以及相关的心理学特质。实验调查大约需要20分钟。</p><p style=""text-align:left;""><strong>实验流程：</strong>实验包含两部分。第一部分呈现一系列群体冲突场景，请你决定如何对这些冲突进行反应，大约需要10分钟完成。第二部分包含一系列人口统计学信息收集和心理学问卷，大约需要10分钟完成。</p><p style=""text-align:left;""><strong>参加及退出规则：</strong>参加本实验完全取决于您的个人意愿。在参与过程中，您可以随时退出，并且不用承担任何后果。</p><p style=""text-align:left;""><strong>隐私：</strong>本实验完全匿名进行，不会收集您的姓名或其他能够识别您身份的信息。实验中收集的作答仅用作科学研究使用，可能会在学术期刊/书籍上发表，或者用于教学，您的数据未来可能会和其他研究者或实验室分享，但您的个人身份不会被识别。</p><p style=""text-align:left;""><strong>实验报酬：</strong>实验完成后，您将获得15元人民币报酬，以感谢您的时间和努力。调查问卷中包含几道题目用以测验您作答时的认真度。只有完成全部实验，并且正确回答认真度测验的被试才能获得实验报酬。实验报酬将通过支付宝转账发放。</p><p style=""text-align:left;font-size:20px;""><strong>如果您同意以上实验知情同意书的内容，请点击'同意并且开始实验'按钮；否则请关闭浏览器界面，退出实验。</strong></p>","0",""
"","","","","","html-button-response","3","57352","0.0-3.0","96","1","2022-10-09 11:40:52","ebf9627b049f568eb4bf28942cb89901","223.116.176.189","Mozilla/5.0 (Windows NT 10.0; Win64; x64) AppleWebKit/537.36 (KHTML, like Gecko) Chrome/106.0.0.0 Safari/537.36 Edg/106.0.1370.37","WebKit","Edge","106.0.1370.37","Windows","10.0","8295","<p ><strong>实验任务一：</strong></p><p>请想象你的国家与另一个国家发生了军事冲突。</p><p>你是国家军队的指挥官，你将如何在冲突中进行决策。</p><p>具体来说，作为军队指挥官，请你决定是否发射导弹进行打击。</p><p>接下来，你会面对一系列场景，请仔细阅读每个场景，然后进行决策。</p><p>这部分实验任务大约需要10分钟。</p><p><strong>实验过程中，请集中注意力。</strong></p>","0",""
"","","","","","html-keyboard-response","4","58353","0.0-4.0-0.0","96","1","2022-10-09 11:40:52","ebf9627b049f568eb4bf28942cb89901","223.116.176.189","Mozilla/5.0 (Windows NT 10.0; Win64; x64) AppleWebKit/537.36 (KHTML, like Gecko) Chrome/106.0.0.0 Safari/537.36 Edg/106.0.1370.37","WebKit","Edge","106.0.1370.37","Windows","10.0","null","<div style=""font-size:60px;"">+</div>","null",""
"","","","","","html-button-response","5","65976","0.0-4.0-1.0","96","1","2022-10-09 11:40:52","ebf9627b049f568eb4bf28942cb89901","223.116.176.189","Mozilla/5.0 (Windows NT 10.0; Win64; x64) AppleWebKit/537.36 (KHTML, like Gecko) Chrome/106.0.0.0 Safari/537.36 Edg/106.0.1370.37","WebKit","Edge","106.0.1370.37","Windows","10.0","7621","<p>作为军队的指挥官，你可以选择发射导弹杀死 <strong>10名</strong> 敌国士兵，但会误杀附近的 <strong>1名</strong> 敌国平民。</p> <p>平民照片如下图所示。</p> <p></p> <img src='stimuli/faces/NFM1.jpg', style='max-width: 30%;'> </img> <p><strong>你是否选择发射武器？</strong></p>","1",""
"","","","","","html-keyboard-response","6","66978","0.0-4.0-0.1","96","1","2022-10-09 11:40:52","ebf9627b049f568eb4bf28942cb89901","223.116.176.189","Mozilla/5.0 (Windows NT 10.0; Win64; x64) AppleWebKit/537.36 (KHTML, like Gecko) Chrome/106.0.0.0 Safari/537.36 Edg/106.0.1370.37","WebKit","Edge","106.0.1370.37","Windows","10.0","null","<div style=""font-size:60px;"">+</div>","null",""
"","","","","","html-button-response","7","70375","0.0-4.0-1.1","96","1","2022-10-09 11:40:52","ebf9627b049f568eb4bf28942cb89901","223.116.176.189","Mozilla/5.0 (Windows NT 10.0; Win64; x64) AppleWebKit/537.36 (KHTML, like Gecko) Chrome/106.0.0.0 Safari/537.36 Edg/106.0.1370.37","WebKit","Edge","106.0.1370.37","Windows","10.0","3396","<p>作为军队的指挥官，你可以选择发射导弹杀死 <strong>10名</strong> 敌国士兵，但会炸毁附近的 <strong>1棵</strong> 敌国树木。</p> <p>树木的照片如下图所示。</p> <p></p> <img src='stimuli/trees/10.png', style='max-width: 30%;'> </img> <p><strong>你是否选择发射武器？</strong></p>","0",""
"","","","","","html-keyboard-response","8","71377","0.0-4.0-0.2","96","1","2022-10-09 11:40:52","ebf9627b049f568eb4bf28942cb89901","223.116.176.189","Mozilla/5.0 (Windows NT 10.0; Win64; x64) AppleWebKit/537.36 (KHTML, like Gecko) Chrome/106.0.0.0 Safari/537.36 Edg/106.0.1370.37","WebKit","Edge","106.0.1370.37","Windows","10.0","null","<div style=""font-size:60px;"">+</div>","null",""
"","","","","","html-button-response","9","74072","0.0-4.0-1.2","96","1","2022-10-09 11:40:52","ebf9627b049f568eb4bf28942cb89901","223.116.176.189","Mozilla/5.0 (Windows NT 10.0; Win64; x64) AppleWebKit/537.36 (KHTML, like Gecko) Chrome/106.0.0.0 Safari/537.36 Edg/106.0.1370.37","WebKit","Edge","106.0.1370.37","Windows","10.0","2693","<p>作为军队的指挥官，你可以选择发射导弹杀死 <strong>7名</strong> 敌国士兵，但会炸毁附近的 <strong>1棵</strong> 敌国树木。</p> <p>树木的照片如下图所示。</p> <p></p> <img src='stimuli/trees/11.png', style='max-width: 30%;'> </img> <p><strong>你是否选择发射武器？</strong></p>","0",""
"","","","","","html-keyboard-response","10","75073","0.0-4.0-0.3","96","1","2022-10-09 11:40:52","ebf9627b049f568eb4bf28942cb89901","223.116.176.189","Mozilla/5.0 (Windows NT 10.0; Win64; x64) AppleWebKit/537.36 (KHTML, like Gecko) Chrome/106.0.0.0 Safari/537.36 Edg/106.0.1370.37","WebKit","Edge","106.0.1370.37","Windows","10.0","null","<div style=""font-size:60px;"">+</div>","null",""
"","","","","","html-button-response","11","78511","0.0-4.0-1.3","96","1","2022-10-09 11:40:52","ebf9627b049f568eb4bf28942cb89901","223.116.176.189","Mozilla/5.0 (Windows NT 10.0; Win64; x64) AppleWebKit/537.36 (KHTML, like Gecko) Chrome/106.0.0.0 Safari/537.36 Edg/106.0.1370.37","WebKit","Edge","106.0.1370.37","Windows","10.0","3437","<p>作为军队的指挥官，你可以选择发射导弹杀死 <strong>4名</strong> 敌国士兵，但会误杀附近的 <strong>1名</strong> 敌国平民。</p> <p>平民照片如下图所示。</p> <p></p> <img src='stimuli/faces/NFM4.jpg', style='max-width: 30%;'> </img> <p><strong>你是否选择发射武器？</strong></p>","1",""
"","","","","","html-keyboard-response","12","79512","0.0-4.0-0.4","96","1","2022-10-09 11:40:52","ebf9627b049f568eb4bf28942cb89901","223.116.176.189","Mozilla/5.0 (Windows NT 10.0; Win64; x64) AppleWebKit/537.36 (KHTML, like Gecko) Chrome/106.0.0.0 Safari/537.36 Edg/106.0.1370.37","WebKit","Edge","106.0.1370.37","Windows","10.0","null","<div style=""font-size:60px;"">+</div>","null",""
"","","","","","html-button-response","13","82296","0.0-4.0-1.4","96","1","2022-10-09 11:40:52","ebf9627b049f568eb4bf28942cb89901","223.116.176.189","Mozilla/5.0 (Windows NT 10.0; Win64; x64) AppleWebKit/537.36 (KHTML, like Gecko) Chrome/106.0.0.0 Safari/537.36 Edg/106.0.1370.37","WebKit","Edge","106.0.1370.37","Windows","10.0","2781","<p>作为军队的指挥官，你可以选择发射导弹杀死 <strong>10名</strong> 敌国士兵，但会误杀附近的 <strong>1名</strong> 敌国平民。</p> <p>平民照片如下图所示。</p> <p></p> <img src='stimuli/faces/NFF1.jpg', style='max-width: 30%;'> </img> <p><strong>你是否选择发射武器？</strong></p>","1",""
"","","","","","html-keyboard-response","14","83298","0.0-4.0-0.5","96","1","2022-10-09 11:40:52","ebf9627b049f568eb4bf28942cb89901","223.116.176.189","Mozilla/5.0 (Windows NT 10.0; Win64; x64) AppleWebKit/537.36 (KHTML, like Gecko) Chrome/106.0.0.0 Safari/537.36 Edg/106.0.1370.37","WebKit","Edge","106.0.1370.37","Windows","10.0","null","<div style=""font-size:60px;"">+</div>","null",""
"","","","","","html-button-response","15","86287","0.0-4.0-1.5","96","1","2022-10-09 11:40:52","ebf9627b049f568eb4bf28942cb89901","223.116.176.189","Mozilla/5.0 (Windows NT 10.0; Win64; x64) AppleWebKit/537.36 (KHTML, like Gecko) Chrome/106.0.0.0 Safari/537.36 Edg/106.0.1370.37","WebKit","Edge","106.0.1370.37","Windows","10.0","2988","<p>作为军队的指挥官，你可以选择发射导弹杀死 <strong>8名</strong> 敌国士兵，但会误杀附近的 <strong>1名</strong> 敌国平民。</p> <p>平民照片如下图所示。</p> <p></p> <img src='stimuli/faces/NFM8.jpg', style='max-width: 30%;'> </img> <p><strong>你是否选择发射武器？</strong></p>","1",""
"","","","","","html-keyboard-response","16","87290","0.0-4.0-0.6","96","1","2022-10-09 11:40:52","ebf9627b049f568eb4bf28942cb89901","223.116.176.189","Mozilla/5.0 (Windows NT 10.0; Win64; x64) AppleWebKit/537.36 (KHTML, like Gecko) Chrome/106.0.0.0 Safari/537.36 Edg/106.0.1370.37","WebKit","Edge","106.0.1370.37","Windows","10.0","null","<div style=""font-size:60px;"">+</div>","null",""
"","","","","","html-button-response","17","89168","0.0-4.0-1.6","96","1","2022-10-09 11:40:52","ebf9627b049f568eb4bf28942cb89901","223.116.176.189","Mozilla/5.0 (Windows NT 10.0; Win64; x64) AppleWebKit/537.36 (KHTML, like Gecko) Chrome/106.0.0.0 Safari/537.36 Edg/106.0.1370.37","WebKit","Edge","106.0.1370.37","Windows","10.0","1877","<p>作为军队的指挥官，你可以选择发射导弹杀死 <strong>3名</strong> 敌国士兵，但会炸毁附近的 <strong>1棵</strong> 敌国树木。</p> <p>树木的照片如下图所示。</p> <p></p> <img src='stimuli/trees/15.png', style='max-width: 30%;'> </img> <p><strong>你是否选择发射武器？</strong></p>","0",""
"","","","","","html-keyboard-response","18","90171","0.0-4.0-0.7","96","1","2022-10-09 11:40:52","ebf9627b049f568eb4bf28942cb89901","223.116.176.189","Mozilla/5.0 (Windows NT 10.0; Win64; x64) AppleWebKit/537.36 (KHTML, like Gecko) Chrome/106.0.0.0 Safari/537.36 Edg/106.0.1370.37","WebKit","Edge","106.0.1370.37","Windows","10.0","null","<div style=""font-size:60px;"">+</div>","null",""
"","","","","","html-button-response","19","91959","0.0-4.0-1.7","96","1","2022-10-09 11:40:52","ebf9627b049f568eb4bf28942cb89901","223.116.176.189","Mozilla/5.0 (Windows NT 10.0; Win64; x64) AppleWebKit/537.36 (KHTML, like Gecko) Chrome/106.0.0.0 Safari/537.36 Edg/106.0.1370.37","WebKit","Edge","106.0.1370.37","Windows","10.0","1787","<p>作为军队的指挥官，你可以选择发射导弹杀死 <strong>5名</strong> 敌国士兵，但会误杀附近的 <strong>1名</strong> 敌国平民。</p> <p>平民照片如下图所示。</p> <p></p> <img src='stimuli/faces/NFF4.jpg', style='max-width: 30%;'> </img> <p><strong>你是否选择发射武器？</strong></p>","1",""
"","","","","","html-keyboard-response","20","92962","0.0-4.0-0.8","96","1","2022-10-09 11:40:52","ebf9627b049f568eb4bf28942cb89901","223.116.176.189","Mozilla/5.0 (Windows NT 10.0; Win64; x64) AppleWebKit/537.36 (KHTML, like Gecko) Chrome/106.0.0.0 Safari/537.36 Edg/106.0.1370.37","WebKit","Edge","106.0.1370.37","Windows","10.0","null","<div style=""font-size:60px;"">+</div>","null",""
"","","","","","html-button-response","21","94631","0.0-4.0-1.8","96","1","2022-10-09 11:40:52","ebf9627b049f568eb4bf28942cb89901","223.116.176.189","Mozilla/5.0 (Windows NT 10.0; Win64; x64) AppleWebKit/537.36 (KHTML, like Gecko) Chrome/106.0.0.0 Safari/537.36 Edg/106.0.1370.37","WebKit","Edge","106.0.1370.37","Windows","10.0","1668","<p>作为军队的指挥官，你可以选择发射导弹杀死 <strong>9名</strong> 敌国士兵，但会误杀附近的 <strong>1名</strong> 敌国平民。</p> <p>平民照片如下图所示。</p> <p></p> <img src='stimuli/faces/NFF2.jpg', style='max-width: 30%;'> </img> <p><strong>你是否选择发射武器？</strong></p>","1",""
"","","","","","html-keyboard-response","22","95634","0.0-4.0-0.9","96","1","2022-10-09 11:40:52","ebf9627b049f568eb4bf28942cb89901","223.116.176.189","Mozilla/5.0 (Windows NT 10.0; Win64; x64) AppleWebKit/537.36 (KHTML, like Gecko) Chrome/106.0.0.0 Safari/537.36 Edg/106.0.1370.37","WebKit","Edge","106.0.1370.37","Windows","10.0","null","<div style=""font-size:60px;"">+</div>","null",""
"","","","","","html-button-response","23","97991","0.0-4.0-1.9","96","1","2022-10-09 11:40:52","ebf9627b049f568eb4bf28942cb89901","223.116.176.189","Mozilla/5.0 (Windows NT 10.0; Win64; x64) AppleWebKit/537.36 (KHTML, like Gecko) Chrome/106.0.0.0 Safari/537.36 Edg/106.0.1370.37","WebKit","Edge","106.0.1370.37","Windows","10.0","2356","<p>作为军队的指挥官，你可以选择发射导弹杀死 <strong>3名</strong> 敌国士兵，但会误杀附近的 <strong>1名</strong> 敌国平民。</p> <p>平民照片如下图所示。</p> <p></p> <img src='stimuli/faces/NFF6.jpg', style='max-width: 30%;'> </img> <p><strong>你是否选择发射武器？</strong></p>","1",""
"","","","","","html-keyboard-response","24","98994","0.0-4.0-0.10","96","1","2022-10-09 11:40:52","ebf9627b049f568eb4bf28942cb89901","223.116.176.189","Mozilla/5.0 (Windows NT 10.0; Win64; x64) AppleWebKit/537.36 (KHTML, like Gecko) Chrome/106.0.0.0 Safari/537.36 Edg/106.0.1370.37","WebKit","Edge","106.0.1370.37","Windows","10.0","null","<div style=""font-size:60px;"">+</div>","null",""
"","","","","","html-button-response","25","100538","0.0-4.0-1.10","96","1","2022-10-09 11:40:52","ebf9627b049f568eb4bf28942cb89901","223.116.176.189","Mozilla/5.0 (Windows NT 10.0; Win64; x64) AppleWebKit/537.36 (KHTML, like Gecko) Chrome/106.0.0.0 Safari/537.36 Edg/106.0.1370.37","WebKit","Edge","106.0.1370.37","Windows","10.0","1542","<p>作为军队的指挥官，你可以选择发射导弹杀死 <strong>7名</strong> 敌国士兵，但会误杀附近的 <strong>1名</strong> 敌国平民。</p> <p>平民照片如下图所示。</p> <p></p> <img src='stimuli/faces/NFF7.jpg', style='max-width: 30%;'> </img> <p><strong>你是否选择发射武器？</strong></p>","1",""
"","","","","","html-keyboard-response","26","101539","0.0-4.0-0.11","96","1","2022-10-09 11:40:52","ebf9627b049f568eb4bf28942cb89901","223.116.176.189","Mozilla/5.0 (Windows NT 10.0; Win64; x64) AppleWebKit/537.36 (KHTML, like Gecko) Chrome/106.0.0.0 Safari/537.36 Edg/106.0.1370.37","WebKit","Edge","106.0.1370.37","Windows","10.0","null","<div style=""font-size:60px;"">+</div>","null",""
"","","","","","html-button-response","27","105135","0.0-4.0-1.11","96","1","2022-10-09 11:40:52","ebf9627b049f568eb4bf28942cb89901","223.116.176.189","Mozilla/5.0 (Windows NT 10.0; Win64; x64) AppleWebKit/537.36 (KHTML, like Gecko) Chrome/106.0.0.0 Safari/537.36 Edg/106.0.1370.37","WebKit","Edge","106.0.1370.37","Windows","10.0","3595","<p>作为军队的指挥官，你可以选择发射导弹杀死 <strong>10名</strong> 敌国士兵，但会误杀附近的 <strong>1名</strong> 敌国平民。</p> <p>平民照片如下图所示。</p> <p></p> <img src='stimuli/faces/NFM2.jpg', style='max-width: 30%;'> </img> <p><strong>你是否选择发射武器？</strong></p>","0",""
"","","","","","html-keyboard-response","28","106137","0.0-4.0-0.12","96","1","2022-10-09 11:40:52","ebf9627b049f568eb4bf28942cb89901","223.116.176.189","Mozilla/5.0 (Windows NT 10.0; Win64; x64) AppleWebKit/537.36 (KHTML, like Gecko) Chrome/106.0.0.0 Safari/537.36 Edg/106.0.1370.37","WebKit","Edge","106.0.1370.37","Windows","10.0","null","<div style=""font-size:60px;"">+</div>","null",""
"","","","","","html-button-response","29","107175","0.0-4.0-1.12","96","1","2022-10-09 11:40:52","ebf9627b049f568eb4bf28942cb89901","223.116.176.189","Mozilla/5.0 (Windows NT 10.0; Win64; x64) AppleWebKit/537.36 (KHTML, like Gecko) Chrome/106.0.0.0 Safari/537.36 Edg/106.0.1370.37","WebKit","Edge","106.0.1370.37","Windows","10.0","1037","<p>作为军队的指挥官，你可以选择发射导弹杀死 <strong>9名</strong> 敌国士兵，但会炸毁附近的 <strong>1棵</strong> 敌国树木。</p> <p>树木的照片如下图所示。</p> <p></p> <img src='stimuli/trees/12.png', style='max-width: 30%;'> </img> <p><strong>你是否选择发射武器？</strong></p>","0",""
"","","","","","html-keyboard-response","30","108177","0.0-4.0-0.13","96","1","2022-10-09 11:40:52","ebf9627b049f568eb4bf28942cb89901","223.116.176.189","Mozilla/5.0 (Windows NT 10.0; Win64; x64) AppleWebKit/537.36 (KHTML, like Gecko) Chrome/106.0.0.0 Safari/537.36 Edg/106.0.1370.37","WebKit","Edge","106.0.1370.37","Windows","10.0","null","<div style=""font-size:60px;"">+</div>","null",""
"","","","","","html-button-response","31","109023","0.0-4.0-1.13","96","1","2022-10-09 11:40:52","ebf9627b049f568eb4bf28942cb89901","223.116.176.189","Mozilla/5.0 (Windows NT 10.0; Win64; x64) AppleWebKit/537.36 (KHTML, like Gecko) Chrome/106.0.0.0 Safari/537.36 Edg/106.0.1370.37","WebKit","Edge","106.0.1370.37","Windows","10.0","844","<p>作为军队的指挥官，你可以选择发射导弹杀死 <strong>9名</strong> 敌国士兵，但会炸毁附近的 <strong>1棵</strong> 敌国树木。</p> <p>树木的照片如下图所示。</p> <p></p> <img src='stimuli/trees/13.png', style='max-width: 30%;'> </img> <p><strong>你是否选择发射武器？</strong></p>","0",""
"","","","","","html-keyboard-response","32","110024","0.0-4.0-0.14","96","1","2022-10-09 11:40:52","ebf9627b049f568eb4bf28942cb89901","223.116.176.189","Mozilla/5.0 (Windows NT 10.0; Win64; x64) AppleWebKit/537.36 (KHTML, like Gecko) Chrome/106.0.0.0 Safari/537.36 Edg/106.0.1370.37","WebKit","Edge","106.0.1370.37","Windows","10.0","null","<div style=""font-size:60px;"">+</div>","null",""
"","","","","","html-button-response","33","111111","0.0-4.0-1.14","96","1","2022-10-09 11:40:52","ebf9627b049f568eb4bf28942cb89901","223.116.176.189","Mozilla/5.0 (Windows NT 10.0; Win64; x64) AppleWebKit/537.36 (KHTML, like Gecko) Chrome/106.0.0.0 Safari/537.36 Edg/106.0.1370.37","WebKit","Edge","106.0.1370.37","Windows","10.0","1085","<p>作为军队的指挥官，你可以选择发射导弹杀死 <strong>5名</strong> 敌国士兵，但会炸毁附近的 <strong>1棵</strong> 敌国树木。</p> <p>树木的照片如下图所示。</p> <p></p> <img src='stimuli/trees/1.png', style='max-width: 30%;'> </img> <p><strong>你是否选择发射武器？</strong></p>","0",""
"","","","","","html-keyboard-response","34","112114","0.0-4.0-0.15","96","1","2022-10-09 11:40:52","ebf9627b049f568eb4bf28942cb89901","223.116.176.189","Mozilla/5.0 (Windows NT 10.0; Win64; x64) AppleWebKit/537.36 (KHTML, like Gecko) Chrome/106.0.0.0 Safari/537.36 Edg/106.0.1370.37","WebKit","Edge","106.0.1370.37","Windows","10.0","null","<div style=""font-size:60px;"">+</div>","null",""
"","","","","","html-button-response","35","113281","0.0-4.0-1.15","96","1","2022-10-09 11:40:52","ebf9627b049f568eb4bf28942cb89901","223.116.176.189","Mozilla/5.0 (Windows NT 10.0; Win64; x64) AppleWebKit/537.36 (KHTML, like Gecko) Chrome/106.0.0.0 Safari/537.36 Edg/106.0.1370.37","WebKit","Edge","106.0.1370.37","Windows","10.0","1165","<p>作为军队的指挥官，你可以选择发射导弹杀死 <strong>6名</strong> 敌国士兵，但会炸毁附近的 <strong>1棵</strong> 敌国树木。</p> <p>树木的照片如下图所示。</p> <p></p> <img src='stimuli/trees/4.png', style='max-width: 30%;'> </img> <p><strong>你是否选择发射武器？</strong></p>","0",""
"","","","","","html-keyboard-response","36","114283","0.0-4.0-0.16","96","1","2022-10-09 11:40:52","ebf9627b049f568eb4bf28942cb89901","223.116.176.189","Mozilla/5.0 (Windows NT 10.0; Win64; x64) AppleWebKit/537.36 (KHTML, like Gecko) Chrome/106.0.0.0 Safari/537.36 Edg/106.0.1370.37","WebKit","Edge","106.0.1370.37","Windows","10.0","null","<div style=""font-size:60px;"">+</div>","null",""
"","","","","","html-button-response","37","116216","0.0-4.0-1.16","96","1","2022-10-09 11:40:52","ebf9627b049f568eb4bf28942cb89901","223.116.176.189","Mozilla/5.0 (Windows NT 10.0; Win64; x64) AppleWebKit/537.36 (KHTML, like Gecko) Chrome/106.0.0.0 Safari/537.36 Edg/106.0.1370.37","WebKit","Edge","106.0.1370.37","Windows","10.0","1932","<p>作为军队的指挥官，你可以选择发射导弹杀死 <strong>2名</strong> 敌国士兵，但会误杀附近的 <strong>1名</strong> 敌国平民。</p> <p>平民照片如下图所示。</p> <p></p> <img src='stimuli/faces/NFM2.jpg', style='max-width: 30%;'> </img> <p><strong>你是否选择发射武器？</strong></p>","1",""
"","","","","","html-keyboard-response","38","117219","0.0-4.0-0.17","96","1","2022-10-09 11:40:52","ebf9627b049f568eb4bf28942cb89901","223.116.176.189","Mozilla/5.0 (Windows NT 10.0; Win64; x64) AppleWebKit/537.36 (KHTML, like Gecko) Chrome/106.0.0.0 Safari/537.36 Edg/106.0.1370.37","WebKit","Edge","106.0.1370.37","Windows","10.0","null","<div style=""font-size:60px;"">+</div>","null",""
"","","","","","html-button-response","39","118479","0.0-4.0-1.17","96","1","2022-10-09 11:40:52","ebf9627b049f568eb4bf28942cb89901","223.116.176.189","Mozilla/5.0 (Windows NT 10.0; Win64; x64) AppleWebKit/537.36 (KHTML, like Gecko) Chrome/106.0.0.0 Safari/537.36 Edg/106.0.1370.37","WebKit","Edge","106.0.1370.37","Windows","10.0","1259","<p>作为军队的指挥官，你可以选择发射导弹杀死 <strong>3名</strong> 敌国士兵，但会误杀附近的 <strong>1名</strong> 敌国平民。</p> <p>平民照片如下图所示。</p> <p></p> <img src='stimuli/faces/NFM3.jpg', style='max-width: 30%;'> </img> <p><strong>你是否选择发射武器？</strong></p>","1",""
"","","","","","html-keyboard-response","40","119481","0.0-4.0-0.18","96","1","2022-10-09 11:40:52","ebf9627b049f568eb4bf28942cb89901","223.116.176.189","Mozilla/5.0 (Windows NT 10.0; Win64; x64) AppleWebKit/537.36 (KHTML, like Gecko) Chrome/106.0.0.0 Safari/537.36 Edg/106.0.1370.37","WebKit","Edge","106.0.1370.37","Windows","10.0","null","<div style=""font-size:60px;"">+</div>","null",""
"","","","","","html-button-response","41","121647","0.0-4.0-1.18","96","1","2022-10-09 11:40:52","ebf9627b049f568eb4bf28942cb89901","223.116.176.189","Mozilla/5.0 (Windows NT 10.0; Win64; x64) AppleWebKit/537.36 (KHTML, like Gecko) Chrome/106.0.0.0 Safari/537.36 Edg/106.0.1370.37","WebKit","Edge","106.0.1370.37","Windows","10.0","2163","<p>作为军队的指挥官，你可以选择发射导弹杀死 <strong>4名</strong> 敌国士兵，但会炸毁附近的 <strong>1棵</strong> 敌国树木。</p> <p>树木的照片如下图所示。</p> <p></p> <img src='stimuli/trees/2.png', style='max-width: 30%;'> </img> <p><strong>你是否选择发射武器？</strong></p>","0",""
"","","","","","html-keyboard-response","42","122650","0.0-4.0-0.19","96","1","2022-10-09 11:40:52","ebf9627b049f568eb4bf28942cb89901","223.116.176.189","Mozilla/5.0 (Windows NT 10.0; Win64; x64) AppleWebKit/537.36 (KHTML, like Gecko) Chrome/106.0.0.0 Safari/537.36 Edg/106.0.1370.37","WebKit","Edge","106.0.1370.37","Windows","10.0","null","<div style=""font-size:60px;"">+</div>","null",""
"","","","","","html-button-response","43","123457","0.0-4.0-1.19","96","1","2022-10-09 11:40:52","ebf9627b049f568eb4bf28942cb89901","223.116.176.189","Mozilla/5.0 (Windows NT 10.0; Win64; x64) AppleWebKit/537.36 (KHTML, like Gecko) Chrome/106.0.0.0 Safari/537.36 Edg/106.0.1370.37","WebKit","Edge","106.0.1370.37","Windows","10.0","804","<p>作为军队的指挥官，你可以选择发射导弹杀死 <strong>2名</strong> 敌国士兵，但会炸毁附近的 <strong>1棵</strong> 敌国树木。</p> <p>树木的照片如下图所示。</p> <p></p> <img src='stimuli/trees/14.png', style='max-width: 30%;'> </img> <p><strong>你是否选择发射武器？</strong></p>","0",""
"","","","","","html-keyboard-response","44","124459","0.0-4.0-0.20","96","1","2022-10-09 11:40:52","ebf9627b049f568eb4bf28942cb89901","223.116.176.189","Mozilla/5.0 (Windows NT 10.0; Win64; x64) AppleWebKit/537.36 (KHTML, like Gecko) Chrome/106.0.0.0 Safari/537.36 Edg/106.0.1370.37","WebKit","Edge","106.0.1370.37","Windows","10.0","null","<div style=""font-size:60px;"">+</div>","null",""
"","","","","","html-button-response","45","126648","0.0-4.0-1.20","96","1","2022-10-09 11:40:52","ebf9627b049f568eb4bf28942cb89901","223.116.176.189","Mozilla/5.0 (Windows NT 10.0; Win64; x64) AppleWebKit/537.36 (KHTML, like Gecko) Chrome/106.0.0.0 Safari/537.36 Edg/106.0.1370.37","WebKit","Edge","106.0.1370.37","Windows","10.0","2187","<p>作为军队的指挥官，你可以选择发射导弹杀死 <strong>8名</strong> 敌国士兵，但会误杀附近的 <strong>1名</strong> 敌国平民。</p> <p>平民照片如下图所示。</p> <p></p> <img src='stimuli/faces/NFM3.jpg', style='max-width: 30%;'> </img> <p><strong>你是否选择发射武器？</strong></p>","0",""
"","","","","","html-keyboard-response","46","127650","0.0-4.0-0.21","96","1","2022-10-09 11:40:52","ebf9627b049f568eb4bf28942cb89901","223.116.176.189","Mozilla/5.0 (Windows NT 10.0; Win64; x64) AppleWebKit/537.36 (KHTML, like Gecko) Chrome/106.0.0.0 Safari/537.36 Edg/106.0.1370.37","WebKit","Edge","106.0.1370.37","Windows","10.0","null","<div style=""font-size:60px;"">+</div>","null",""
"","","","","","html-button-response","47","128359","0.0-4.0-1.21","96","1","2022-10-09 11:40:52","ebf9627b049f568eb4bf28942cb89901","223.116.176.189","Mozilla/5.0 (Windows NT 10.0; Win64; x64) AppleWebKit/537.36 (KHTML, like Gecko) Chrome/106.0.0.0 Safari/537.36 Edg/106.0.1370.37","WebKit","Edge","106.0.1370.37","Windows","10.0","708","<p>作为军队的指挥官，你可以选择发射导弹杀死 <strong>6名</strong> 敌国士兵，但会炸毁附近的 <strong>1棵</strong> 敌国树木。</p> <p>树木的照片如下图所示。</p> <p></p> <img src='stimuli/trees/3.png', style='max-width: 30%;'> </img> <p><strong>你是否选择发射武器？</strong></p>","0",""
"","","","","","html-keyboard-response","48","129362","0.0-4.0-0.22","96","1","2022-10-09 11:40:52","ebf9627b049f568eb4bf28942cb89901","223.116.176.189","Mozilla/5.0 (Windows NT 10.0; Win64; x64) AppleWebKit/537.36 (KHTML, like Gecko) Chrome/106.0.0.0 Safari/537.36 Edg/106.0.1370.37","WebKit","Edge","106.0.1370.37","Windows","10.0","null","<div style=""font-size:60px;"">+</div>","null",""
"","","","","","html-button-response","49","130496","0.0-4.0-1.22","96","1","2022-10-09 11:40:52","ebf9627b049f568eb4bf28942cb89901","223.116.176.189","Mozilla/5.0 (Windows NT 10.0; Win64; x64) AppleWebKit/537.36 (KHTML, like Gecko) Chrome/106.0.0.0 Safari/537.36 Edg/106.0.1370.37","WebKit","Edge","106.0.1370.37","Windows","10.0","1132","<p>作为军队的指挥官，你可以选择发射导弹杀死 <strong>6名</strong> 敌国士兵，但会炸毁附近的 <strong>1棵</strong> 敌国树木。</p> <p>树木的照片如下图所示。</p> <p></p> <img src='stimuli/trees/16.png', style='max-width: 30%;'> </img> <p><strong>你是否选择发射武器？</strong></p>","0",""
"","","","","","html-keyboard-response","50","131498","0.0-4.0-0.23","96","1","2022-10-09 11:40:52","ebf9627b049f568eb4bf28942cb89901","223.116.176.189","Mozilla/5.0 (Windows NT 10.0; Win64; x64) AppleWebKit/537.36 (KHTML, like Gecko) Chrome/106.0.0.0 Safari/537.36 Edg/106.0.1370.37","WebKit","Edge","106.0.1370.37","Windows","10.0","null","<div style=""font-size:60px;"">+</div>","null",""
"","","","","","html-button-response","51","133329","0.0-4.0-1.23","96","1","2022-10-09 11:40:52","ebf9627b049f568eb4bf28942cb89901","223.116.176.189","Mozilla/5.0 (Windows NT 10.0; Win64; x64) AppleWebKit/537.36 (KHTML, like Gecko) Chrome/106.0.0.0 Safari/537.36 Edg/106.0.1370.37","WebKit","Edge","106.0.1370.37","Windows","10.0","1829","<p>作为军队的指挥官，你可以选择发射导弹杀死 <strong>10名</strong> 敌国士兵，但会炸毁附近的 <strong>1棵</strong> 敌国树木。</p> <p>树木的照片如下图所示。</p> <p></p> <img src='stimuli/trees/5.png', style='max-width: 30%;'> </img> <p><strong>你是否选择发射武器？</strong></p>","0",""
"","","","","","html-keyboard-response","52","134331","0.0-4.0-0.24","96","1","2022-10-09 11:40:52","ebf9627b049f568eb4bf28942cb89901","223.116.176.189","Mozilla/5.0 (Windows NT 10.0; Win64; x64) AppleWebKit/537.36 (KHTML, like Gecko) Chrome/106.0.0.0 Safari/537.36 Edg/106.0.1370.37","WebKit","Edge","106.0.1370.37","Windows","10.0","null","<div style=""font-size:60px;"">+</div>","null",""
"","","","","","html-button-response","53","135327","0.0-4.0-1.24","96","1","2022-10-09 11:40:52","ebf9627b049f568eb4bf28942cb89901","223.116.176.189","Mozilla/5.0 (Windows NT 10.0; Win64; x64) AppleWebKit/537.36 (KHTML, like Gecko) Chrome/106.0.0.0 Safari/537.36 Edg/106.0.1370.37","WebKit","Edge","106.0.1370.37","Windows","10.0","995","<p>作为军队的指挥官，你可以选择发射导弹杀死 <strong>4名</strong> 敌国士兵，但会炸毁附近的 <strong>1棵</strong> 敌国树木。</p> <p>树木的照片如下图所示。</p> <p></p> <img src='stimuli/trees/9.png', style='max-width: 30%;'> </img> <p><strong>你是否选择发射武器？</strong></p>","0",""
"","","","","","html-keyboard-response","54","136331","0.0-4.0-0.25","96","1","2022-10-09 11:40:52","ebf9627b049f568eb4bf28942cb89901","223.116.176.189","Mozilla/5.0 (Windows NT 10.0; Win64; x64) AppleWebKit/537.36 (KHTML, like Gecko) Chrome/106.0.0.0 Safari/537.36 Edg/106.0.1370.37","WebKit","Edge","106.0.1370.37","Windows","10.0","null","<div style=""font-size:60px;"">+</div>","null",""
"","","","","","html-button-response","55","137727","0.0-4.0-1.25","96","1","2022-10-09 11:40:52","ebf9627b049f568eb4bf28942cb89901","223.116.176.189","Mozilla/5.0 (Windows NT 10.0; Win64; x64) AppleWebKit/537.36 (KHTML, like Gecko) Chrome/106.0.0.0 Safari/537.36 Edg/106.0.1370.37","WebKit","Edge","106.0.1370.37","Windows","10.0","1393","<p>作为军队的指挥官，你可以选择发射导弹杀死 <strong>4名</strong> 敌国士兵，但会炸毁附近的 <strong>1棵</strong> 敌国树木。</p> <p>树木的照片如下图所示。</p> <p></p> <img src='stimuli/trees/4.png', style='max-width: 30%;'> </img> <p><strong>你是否选择发射武器？</strong></p>","0",""
"","","","","","html-keyboard-response","56","138730","0.0-4.0-0.26","96","1","2022-10-09 11:40:52","ebf9627b049f568eb4bf28942cb89901","223.116.176.189","Mozilla/5.0 (Windows NT 10.0; Win64; x64) AppleWebKit/537.36 (KHTML, like Gecko) Chrome/106.0.0.0 Safari/537.36 Edg/106.0.1370.37","WebKit","Edge","106.0.1370.37","Windows","10.0","null","<div style=""font-size:60px;"">+</div>","null",""
"","","","","","html-button-response","57","140511","0.0-4.0-1.26","96","1","2022-10-09 11:40:52","ebf9627b049f568eb4bf28942cb89901","223.116.176.189","Mozilla/5.0 (Windows NT 10.0; Win64; x64) AppleWebKit/537.36 (KHTML, like Gecko) Chrome/106.0.0.0 Safari/537.36 Edg/106.0.1370.37","WebKit","Edge","106.0.1370.37","Windows","10.0","1778","<p>作为军队的指挥官，你可以选择发射导弹杀死 <strong>4名</strong> 敌国士兵，但会误杀附近的 <strong>1名</strong> 敌国平民。</p> <p>平民照片如下图所示。</p> <p></p> <img src='stimuli/faces/NFF8.jpg', style='max-width: 30%;'> </img> <p><strong>你是否选择发射武器？</strong></p>","1",""
"","","","","","html-keyboard-response","58","141513","0.0-4.0-0.27","96","1","2022-10-09 11:40:52","ebf9627b049f568eb4bf28942cb89901","223.116.176.189","Mozilla/5.0 (Windows NT 10.0; Win64; x64) AppleWebKit/537.36 (KHTML, like Gecko) Chrome/106.0.0.0 Safari/537.36 Edg/106.0.1370.37","WebKit","Edge","106.0.1370.37","Windows","10.0","null","<div style=""font-size:60px;"">+</div>","null",""
"","","","","","html-button-response","59","142991","0.0-4.0-1.27","96","1","2022-10-09 11:40:52","ebf9627b049f568eb4bf28942cb89901","223.116.176.189","Mozilla/5.0 (Windows NT 10.0; Win64; x64) AppleWebKit/537.36 (KHTML, like Gecko) Chrome/106.0.0.0 Safari/537.36 Edg/106.0.1370.37","WebKit","Edge","106.0.1370.37","Windows","10.0","1477","<p>作为军队的指挥官，你可以选择发射导弹杀死 <strong>9名</strong> 敌国士兵，但会误杀附近的 <strong>1名</strong> 敌国平民。</p> <p>平民照片如下图所示。</p> <p></p> <img src='stimuli/faces/NFF5.jpg', style='max-width: 30%;'> </img> <p><strong>你是否选择发射武器？</strong></p>","0",""
"","","","","","html-keyboard-response","60","143994","0.0-4.0-0.28","96","1","2022-10-09 11:40:52","ebf9627b049f568eb4bf28942cb89901","223.116.176.189","Mozilla/5.0 (Windows NT 10.0; Win64; x64) AppleWebKit/537.36 (KHTML, like Gecko) Chrome/106.0.0.0 Safari/537.36 Edg/106.0.1370.37","WebKit","Edge","106.0.1370.37","Windows","10.0","null","<div style=""font-size:60px;"">+</div>","null",""
"","","","","","html-button-response","61","145191","0.0-4.0-1.28","96","1","2022-10-09 11:40:52","ebf9627b049f568eb4bf28942cb89901","223.116.176.189","Mozilla/5.0 (Windows NT 10.0; Win64; x64) AppleWebKit/537.36 (KHTML, like Gecko) Chrome/106.0.0.0 Safari/537.36 Edg/106.0.1370.37","WebKit","Edge","106.0.1370.37","Windows","10.0","1195","<p>作为军队的指挥官，你可以选择发射导弹杀死 <strong>5名</strong> 敌国士兵，但会炸毁附近的 <strong>1棵</strong> 敌国树木。</p> <p>树木的照片如下图所示。</p> <p></p> <img src='stimuli/trees/6.png', style='max-width: 30%;'> </img> <p><strong>你是否选择发射武器？</strong></p>","0",""
"","","","","","html-keyboard-response","62","146194","0.0-4.0-0.29","96","1","2022-10-09 11:40:52","ebf9627b049f568eb4bf28942cb89901","223.116.176.189","Mozilla/5.0 (Windows NT 10.0; Win64; x64) AppleWebKit/537.36 (KHTML, like Gecko) Chrome/106.0.0.0 Safari/537.36 Edg/106.0.1370.37","WebKit","Edge","106.0.1370.37","Windows","10.0","null","<div style=""font-size:60px;"">+</div>","null",""
"","","","","","html-button-response","63","148779","0.0-4.0-1.29","96","1","2022-10-09 11:40:52","ebf9627b049f568eb4bf28942cb89901","223.116.176.189","Mozilla/5.0 (Windows NT 10.0; Win64; x64) AppleWebKit/537.36 (KHTML, like Gecko) Chrome/106.0.0.0 Safari/537.36 Edg/106.0.1370.37","WebKit","Edge","106.0.1370.37","Windows","10.0","2583","<p>作为军队的指挥官，你可以选择发射导弹杀死 <strong>3名</strong> 敌国士兵，但会误杀附近的 <strong>1名</strong> 敌国平民。</p> <p>平民照片如下图所示。</p> <p></p> <img src='stimuli/faces/NFF3.jpg', style='max-width: 30%;'> </img> <p><strong>你是否选择发射武器？</strong></p>","1",""
"","","","","","html-keyboard-response","64","149781","0.0-4.0-0.30","96","1","2022-10-09 11:40:52","ebf9627b049f568eb4bf28942cb89901","223.116.176.189","Mozilla/5.0 (Windows NT 10.0; Win64; x64) AppleWebKit/537.36 (KHTML, like Gecko) Chrome/106.0.0.0 Safari/537.36 Edg/106.0.1370.37","WebKit","Edge","106.0.1370.37","Windows","10.0","null","<div style=""font-size:60px;"">+</div>","null",""
"","","","","","html-button-response","65","152991","0.0-4.0-1.30","96","1","2022-10-09 11:40:52","ebf9627b049f568eb4bf28942cb89901","223.116.176.189","Mozilla/5.0 (Windows NT 10.0; Win64; x64) AppleWebKit/537.36 (KHTML, like Gecko) Chrome/106.0.0.0 Safari/537.36 Edg/106.0.1370.37","WebKit","Edge","106.0.1370.37","Windows","10.0","3207","<p>作为军队的指挥官，你可以选择发射导弹杀死 <strong>1名</strong> 敌国士兵，但会误杀附近的 <strong>1名</strong> 敌国平民。</p> <p>平民照片如下图所示。</p> <p></p> <img src='stimuli/faces/NFM6.jpg', style='max-width: 30%;'> </img> <p><strong>你是否选择发射武器？</strong></p>","1",""
"","","","","","html-keyboard-response","66","153994","0.0-4.0-0.31","96","1","2022-10-09 11:40:52","ebf9627b049f568eb4bf28942cb89901","223.116.176.189","Mozilla/5.0 (Windows NT 10.0; Win64; x64) AppleWebKit/537.36 (KHTML, like Gecko) Chrome/106.0.0.0 Safari/537.36 Edg/106.0.1370.37","WebKit","Edge","106.0.1370.37","Windows","10.0","null","<div style=""font-size:60px;"">+</div>","null",""
"","","","","","html-button-response","67","155327","0.0-4.0-1.31","96","1","2022-10-09 11:40:52","ebf9627b049f568eb4bf28942cb89901","223.116.176.189","Mozilla/5.0 (Windows NT 10.0; Win64; x64) AppleWebKit/537.36 (KHTML, like Gecko) Chrome/106.0.0.0 Safari/537.36 Edg/106.0.1370.37","WebKit","Edge","106.0.1370.37","Windows","10.0","1330","<p>作为军队的指挥官，你可以选择发射导弹杀死 <strong>4名</strong> 敌国士兵，但会炸毁附近的 <strong>1棵</strong> 敌国树木。</p> <p>树木的照片如下图所示。</p> <p></p> <img src='stimuli/trees/5.png', style='max-width: 30%;'> </img> <p><strong>你是否选择发射武器？</strong></p>","0",""
"","","","","","html-keyboard-response","68","156330","0.0-4.0-0.32","96","1","2022-10-09 11:40:52","ebf9627b049f568eb4bf28942cb89901","223.116.176.189","Mozilla/5.0 (Windows NT 10.0; Win64; x64) AppleWebKit/537.36 (KHTML, like Gecko) Chrome/106.0.0.0 Safari/537.36 Edg/106.0.1370.37","WebKit","Edge","106.0.1370.37","Windows","10.0","null","<div style=""font-size:60px;"">+</div>","null",""
"","","","","","html-button-response","69","158911","0.0-4.0-1.32","96","1","2022-10-09 11:40:52","ebf9627b049f568eb4bf28942cb89901","223.116.176.189","Mozilla/5.0 (Windows NT 10.0; Win64; x64) AppleWebKit/537.36 (KHTML, like Gecko) Chrome/106.0.0.0 Safari/537.36 Edg/106.0.1370.37","WebKit","Edge","106.0.1370.37","Windows","10.0","2579","<p>作为军队的指挥官，你可以选择发射导弹杀死 <strong>8名</strong> 敌国士兵，但会误杀附近的 <strong>1名</strong> 敌国平民。</p> <p>平民照片如下图所示。</p> <p></p> <img src='stimuli/faces/NFM4.jpg', style='max-width: 30%;'> </img> <p><strong>你是否选择发射武器？</strong></p>","0",""
"","","","","","html-keyboard-response","70","159913","0.0-4.0-0.33","96","1","2022-10-09 11:40:52","ebf9627b049f568eb4bf28942cb89901","223.116.176.189","Mozilla/5.0 (Windows NT 10.0; Win64; x64) AppleWebKit/537.36 (KHTML, like Gecko) Chrome/106.0.0.0 Safari/537.36 Edg/106.0.1370.37","WebKit","Edge","106.0.1370.37","Windows","10.0","null","<div style=""font-size:60px;"">+</div>","null",""
"","","","","","html-button-response","71","161111","0.0-4.0-1.33","96","1","2022-10-09 11:40:52","ebf9627b049f568eb4bf28942cb89901","223.116.176.189","Mozilla/5.0 (Windows NT 10.0; Win64; x64) AppleWebKit/537.36 (KHTML, like Gecko) Chrome/106.0.0.0 Safari/537.36 Edg/106.0.1370.37","WebKit","Edge","106.0.1370.37","Windows","10.0","1196","<p>作为军队的指挥官，你可以选择发射导弹杀死 <strong>2名</strong> 敌国士兵，但会误杀附近的 <strong>1名</strong> 敌国平民。</p> <p>平民照片如下图所示。</p> <p></p> <img src='stimuli/faces/NFF5.jpg', style='max-width: 30%;'> </img> <p><strong>你是否选择发射武器？</strong></p>","1",""
"","","","","","html-keyboard-response","72","162115","0.0-4.0-0.34","96","1","2022-10-09 11:40:52","ebf9627b049f568eb4bf28942cb89901","223.116.176.189","Mozilla/5.0 (Windows NT 10.0; Win64; x64) AppleWebKit/537.36 (KHTML, like Gecko) Chrome/106.0.0.0 Safari/537.36 Edg/106.0.1370.37","WebKit","Edge","106.0.1370.37","Windows","10.0","null","<div style=""font-size:60px;"">+</div>","null",""
"","","","","","html-button-response","73","163143","0.0-4.0-1.34","96","1","2022-10-09 11:40:52","ebf9627b049f568eb4bf28942cb89901","223.116.176.189","Mozilla/5.0 (Windows NT 10.0; Win64; x64) AppleWebKit/537.36 (KHTML, like Gecko) Chrome/106.0.0.0 Safari/537.36 Edg/106.0.1370.37","WebKit","Edge","106.0.1370.37","Windows","10.0","1026","<p>作为军队的指挥官，你可以选择发射导弹杀死 <strong>7名</strong> 敌国士兵，但会炸毁附近的 <strong>1棵</strong> 敌国树木。</p> <p>树木的照片如下图所示。</p> <p></p> <img src='stimuli/trees/8.png', style='max-width: 30%;'> </img> <p><strong>你是否选择发射武器？</strong></p>","0",""
"","","","","","html-keyboard-response","74","164146","0.0-4.0-0.35","96","1","2022-10-09 11:40:52","ebf9627b049f568eb4bf28942cb89901","223.116.176.189","Mozilla/5.0 (Windows NT 10.0; Win64; x64) AppleWebKit/537.36 (KHTML, like Gecko) Chrome/106.0.0.0 Safari/537.36 Edg/106.0.1370.37","WebKit","Edge","106.0.1370.37","Windows","10.0","null","<div style=""font-size:60px;"">+</div>","null",""
"","","","","","html-button-response","75","167495","0.0-4.0-1.35","96","1","2022-10-09 11:40:52","ebf9627b049f568eb4bf28942cb89901","223.116.176.189","Mozilla/5.0 (Windows NT 10.0; Win64; x64) AppleWebKit/537.36 (KHTML, like Gecko) Chrome/106.0.0.0 Safari/537.36 Edg/106.0.1370.37","WebKit","Edge","106.0.1370.37","Windows","10.0","3347","<p>作为军队的指挥官，你可以选择发射导弹杀死 <strong>5名</strong> 敌国士兵，但会误杀附近的 <strong>1名</strong> 敌国平民。</p> <p>平民照片如下图所示。</p> <p></p> <img src='stimuli/faces/NFM8.jpg', style='max-width: 30%;'> </img> <p><strong>你是否选择发射武器？</strong></p>","1",""
"","","","","","html-keyboard-response","76","168498","0.0-4.0-0.36","96","1","2022-10-09 11:40:52","ebf9627b049f568eb4bf28942cb89901","223.116.176.189","Mozilla/5.0 (Windows NT 10.0; Win64; x64) AppleWebKit/537.36 (KHTML, like Gecko) Chrome/106.0.0.0 Safari/537.36 Edg/106.0.1370.37","WebKit","Edge","106.0.1370.37","Windows","10.0","null","<div style=""font-size:60px;"">+</div>","null",""
"","","","","","html-button-response","77","170039","0.0-4.0-1.36","96","1","2022-10-09 11:40:52","ebf9627b049f568eb4bf28942cb89901","223.116.176.189","Mozilla/5.0 (Windows NT 10.0; Win64; x64) AppleWebKit/537.36 (KHTML, like Gecko) Chrome/106.0.0.0 Safari/537.36 Edg/106.0.1370.37","WebKit","Edge","106.0.1370.37","Windows","10.0","1539","<p>作为军队的指挥官，你可以选择发射导弹杀死 <strong>8名</strong> 敌国士兵，但会误杀附近的 <strong>1名</strong> 敌国平民。</p> <p>平民照片如下图所示。</p> <p></p> <img src='stimuli/faces/NFF6.jpg', style='max-width: 30%;'> </img> <p><strong>你是否选择发射武器？</strong></p>","0",""
"","","","","","html-keyboard-response","78","171041","0.0-4.0-0.37","96","1","2022-10-09 11:40:52","ebf9627b049f568eb4bf28942cb89901","223.116.176.189","Mozilla/5.0 (Windows NT 10.0; Win64; x64) AppleWebKit/537.36 (KHTML, like Gecko) Chrome/106.0.0.0 Safari/537.36 Edg/106.0.1370.37","WebKit","Edge","106.0.1370.37","Windows","10.0","null","<div style=""font-size:60px;"">+</div>","null",""
"","","","","","html-button-response","79","172371","0.0-4.0-1.37","96","1","2022-10-09 11:40:52","ebf9627b049f568eb4bf28942cb89901","223.116.176.189","Mozilla/5.0 (Windows NT 10.0; Win64; x64) AppleWebKit/537.36 (KHTML, like Gecko) Chrome/106.0.0.0 Safari/537.36 Edg/106.0.1370.37","WebKit","Edge","106.0.1370.37","Windows","10.0","1328","<p>作为军队的指挥官，你可以选择发射导弹杀死 <strong>7名</strong> 敌国士兵，但会误杀附近的 <strong>1名</strong> 敌国平民。</p> <p>平民照片如下图所示。</p> <p></p> <img src='stimuli/faces/NFF4.jpg', style='max-width: 30%;'> </img> <p><strong>你是否选择发射武器？</strong></p>","0",""
"","","","","","html-keyboard-response","80","173375","0.0-4.0-0.38","96","1","2022-10-09 11:40:52","ebf9627b049f568eb4bf28942cb89901","223.116.176.189","Mozilla/5.0 (Windows NT 10.0; Win64; x64) AppleWebKit/537.36 (KHTML, like Gecko) Chrome/106.0.0.0 Safari/537.36 Edg/106.0.1370.37","WebKit","Edge","106.0.1370.37","Windows","10.0","null","<div style=""font-size:60px;"">+</div>","null",""
"","","","","","html-button-response","81","174114","0.0-4.0-1.38","96","1","2022-10-09 11:40:52","ebf9627b049f568eb4bf28942cb89901","223.116.176.189","Mozilla/5.0 (Windows NT 10.0; Win64; x64) AppleWebKit/537.36 (KHTML, like Gecko) Chrome/106.0.0.0 Safari/537.36 Edg/106.0.1370.37","WebKit","Edge","106.0.1370.37","Windows","10.0","737","<p>作为军队的指挥官，你可以选择发射导弹杀死 <strong>8名</strong> 敌国士兵，但会炸毁附近的 <strong>1棵</strong> 敌国树木。</p> <p>树木的照片如下图所示。</p> <p></p> <img src='stimuli/trees/7.png', style='max-width: 30%;'> </img> <p><strong>你是否选择发射武器？</strong></p>","0",""
"","","","","","html-keyboard-response","82","175116","0.0-4.0-0.39","96","1","2022-10-09 11:40:52","ebf9627b049f568eb4bf28942cb89901","223.116.176.189","Mozilla/5.0 (Windows NT 10.0; Win64; x64) AppleWebKit/537.36 (KHTML, like Gecko) Chrome/106.0.0.0 Safari/537.36 Edg/106.0.1370.37","WebKit","Edge","106.0.1370.37","Windows","10.0","null","<div style=""font-size:60px;"">+</div>","null",""
"","","","","","html-button-response","83","176287","0.0-4.0-1.39","96","1","2022-10-09 11:40:52","ebf9627b049f568eb4bf28942cb89901","223.116.176.189","Mozilla/5.0 (Windows NT 10.0; Win64; x64) AppleWebKit/537.36 (KHTML, like Gecko) Chrome/106.0.0.0 Safari/537.36 Edg/106.0.1370.37","WebKit","Edge","106.0.1370.37","Windows","10.0","1169","<p>作为军队的指挥官，你可以选择发射导弹杀死 <strong>6名</strong> 敌国士兵，但会误杀附近的 <strong>1名</strong> 敌国平民。</p> <p>平民照片如下图所示。</p> <p></p> <img src='stimuli/faces/NFM7.jpg', style='max-width: 30%;'> </img> <p><strong>你是否选择发射武器？</strong></p>","1",""
"","","","","","html-keyboard-response","84","177291","0.0-4.0-0.40","96","1","2022-10-09 11:40:52","ebf9627b049f568eb4bf28942cb89901","223.116.176.189","Mozilla/5.0 (Windows NT 10.0; Win64; x64) AppleWebKit/537.36 (KHTML, like Gecko) Chrome/106.0.0.0 Safari/537.36 Edg/106.0.1370.37","WebKit","Edge","106.0.1370.37","Windows","10.0","null","<div style=""font-size:60px;"">+</div>","null",""
"","","","","","html-button-response","85","178321","0.0-4.0-1.40","96","1","2022-10-09 11:40:52","ebf9627b049f568eb4bf28942cb89901","223.116.176.189","Mozilla/5.0 (Windows NT 10.0; Win64; x64) AppleWebKit/537.36 (KHTML, like Gecko) Chrome/106.0.0.0 Safari/537.36 Edg/106.0.1370.37","WebKit","Edge","106.0.1370.37","Windows","10.0","1029","<p>作为军队的指挥官，你可以选择发射导弹杀死 <strong>2名</strong> 敌国士兵，但会炸毁附近的 <strong>1棵</strong> 敌国树木。</p> <p>树木的照片如下图所示。</p> <p></p> <img src='stimuli/trees/13.png', style='max-width: 30%;'> </img> <p><strong>你是否选择发射武器？</strong></p>","0",""
"","","","","","html-keyboard-response","86","179325","0.0-4.0-0.41","96","1","2022-10-09 11:40:52","ebf9627b049f568eb4bf28942cb89901","223.116.176.189","Mozilla/5.0 (Windows NT 10.0; Win64; x64) AppleWebKit/537.36 (KHTML, like Gecko) Chrome/106.0.0.0 Safari/537.36 Edg/106.0.1370.37","WebKit","Edge","106.0.1370.37","Windows","10.0","null","<div style=""font-size:60px;"">+</div>","null",""
"","","","","","html-button-response","87","180079","0.0-4.0-1.41","96","1","2022-10-09 11:40:52","ebf9627b049f568eb4bf28942cb89901","223.116.176.189","Mozilla/5.0 (Windows NT 10.0; Win64; x64) AppleWebKit/537.36 (KHTML, like Gecko) Chrome/106.0.0.0 Safari/537.36 Edg/106.0.1370.37","WebKit","Edge","106.0.1370.37","Windows","10.0","751","<p>作为军队的指挥官，你可以选择发射导弹杀死 <strong>4名</strong> 敌国士兵，但会炸毁附近的 <strong>1棵</strong> 敌国树木。</p> <p>树木的照片如下图所示。</p> <p></p> <img src='stimuli/trees/16.png', style='max-width: 30%;'> </img> <p><strong>你是否选择发射武器？</strong></p>","0",""
"","","","","","html-keyboard-response","88","181082","0.0-4.0-0.42","96","1","2022-10-09 11:40:52","ebf9627b049f568eb4bf28942cb89901","223.116.176.189","Mozilla/5.0 (Windows NT 10.0; Win64; x64) AppleWebKit/537.36 (KHTML, like Gecko) Chrome/106.0.0.0 Safari/537.36 Edg/106.0.1370.37","WebKit","Edge","106.0.1370.37","Windows","10.0","null","<div style=""font-size:60px;"">+</div>","null",""
"","","","","","html-button-response","89","181631","0.0-4.0-1.42","96","1","2022-10-09 11:40:52","ebf9627b049f568eb4bf28942cb89901","223.116.176.189","Mozilla/5.0 (Windows NT 10.0; Win64; x64) AppleWebKit/537.36 (KHTML, like Gecko) Chrome/106.0.0.0 Safari/537.36 Edg/106.0.1370.37","WebKit","Edge","106.0.1370.37","Windows","10.0","546","<p>作为军队的指挥官，你可以选择发射导弹杀死 <strong>8名</strong> 敌国士兵，但会炸毁附近的 <strong>1棵</strong> 敌国树木。</p> <p>树木的照片如下图所示。</p> <p></p> <img src='stimuli/trees/9.png', style='max-width: 30%;'> </img> <p><strong>你是否选择发射武器？</strong></p>","0",""
"","","","","","html-keyboard-response","90","182634","0.0-4.0-0.43","96","1","2022-10-09 11:40:52","ebf9627b049f568eb4bf28942cb89901","223.116.176.189","Mozilla/5.0 (Windows NT 10.0; Win64; x64) AppleWebKit/537.36 (KHTML, like Gecko) Chrome/106.0.0.0 Safari/537.36 Edg/106.0.1370.37","WebKit","Edge","106.0.1370.37","Windows","10.0","null","<div style=""font-size:60px;"">+</div>","null",""
"","","","","","html-button-response","91","183369","0.0-4.0-1.43","96","1","2022-10-09 11:40:52","ebf9627b049f568eb4bf28942cb89901","223.116.176.189","Mozilla/5.0 (Windows NT 10.0; Win64; x64) AppleWebKit/537.36 (KHTML, like Gecko) Chrome/106.0.0.0 Safari/537.36 Edg/106.0.1370.37","WebKit","Edge","106.0.1370.37","Windows","10.0","733","<p>作为军队的指挥官，你可以选择发射导弹杀死 <strong>3名</strong> 敌国士兵，但会炸毁附近的 <strong>1棵</strong> 敌国树木。</p> <p>树木的照片如下图所示。</p> <p></p> <img src='stimuli/trees/3.png', style='max-width: 30%;'> </img> <p><strong>你是否选择发射武器？</strong></p>","0",""
"","","","","","html-keyboard-response","92","184371","0.0-4.0-0.44","96","1","2022-10-09 11:40:52","ebf9627b049f568eb4bf28942cb89901","223.116.176.189","Mozilla/5.0 (Windows NT 10.0; Win64; x64) AppleWebKit/537.36 (KHTML, like Gecko) Chrome/106.0.0.0 Safari/537.36 Edg/106.0.1370.37","WebKit","Edge","106.0.1370.37","Windows","10.0","null","<div style=""font-size:60px;"">+</div>","null",""
"","","","","","html-button-response","93","186016","0.0-4.0-1.44","96","1","2022-10-09 11:40:52","ebf9627b049f568eb4bf28942cb89901","223.116.176.189","Mozilla/5.0 (Windows NT 10.0; Win64; x64) AppleWebKit/537.36 (KHTML, like Gecko) Chrome/106.0.0.0 Safari/537.36 Edg/106.0.1370.37","WebKit","Edge","106.0.1370.37","Windows","10.0","1643","<p>作为军队的指挥官，你可以选择发射导弹杀死 <strong>10名</strong> 敌国士兵，但会误杀附近的 <strong>1名</strong> 敌国平民。</p> <p>平民照片如下图所示。</p> <p></p> <img src='stimuli/faces/NFF8.jpg', style='max-width: 30%;'> </img> <p><strong>你是否选择发射武器？</strong></p>","0",""
"","","","","","html-keyboard-response","94","187018","0.0-4.0-0.45","96","1","2022-10-09 11:40:52","ebf9627b049f568eb4bf28942cb89901","223.116.176.189","Mozilla/5.0 (Windows NT 10.0; Win64; x64) AppleWebKit/537.36 (KHTML, like Gecko) Chrome/106.0.0.0 Safari/537.36 Edg/106.0.1370.37","WebKit","Edge","106.0.1370.37","Windows","10.0","null","<div style=""font-size:60px;"">+</div>","null",""
"","","","","","html-button-response","95","189064","0.0-4.0-1.45","96","1","2022-10-09 11:40:52","ebf9627b049f568eb4bf28942cb89901","223.116.176.189","Mozilla/5.0 (Windows NT 10.0; Win64; x64) AppleWebKit/537.36 (KHTML, like Gecko) Chrome/106.0.0.0 Safari/537.36 Edg/106.0.1370.37","WebKit","Edge","106.0.1370.37","Windows","10.0","2044","<p>作为军队的指挥官，你可以选择发射导弹杀死 <strong>4名</strong> 敌国士兵，但会误杀附近的 <strong>1名</strong> 敌国平民。</p> <p>平民照片如下图所示。</p> <p></p> <img src='stimuli/faces/NFM5.jpg', style='max-width: 30%;'> </img> <p><strong>你是否选择发射武器？</strong></p>","1",""
"","","","","","html-keyboard-response","96","190069","0.0-4.0-0.46","96","1","2022-10-09 11:40:52","ebf9627b049f568eb4bf28942cb89901","223.116.176.189","Mozilla/5.0 (Windows NT 10.0; Win64; x64) AppleWebKit/537.36 (KHTML, like Gecko) Chrome/106.0.0.0 Safari/537.36 Edg/106.0.1370.37","WebKit","Edge","106.0.1370.37","Windows","10.0","null","<div style=""font-size:60px;"">+</div>","null",""
"","","","","","html-button-response","97","190983","0.0-4.0-1.46","96","1","2022-10-09 11:40:52","ebf9627b049f568eb4bf28942cb89901","223.116.176.189","Mozilla/5.0 (Windows NT 10.0; Win64; x64) AppleWebKit/537.36 (KHTML, like Gecko) Chrome/106.0.0.0 Safari/537.36 Edg/106.0.1370.37","WebKit","Edge","106.0.1370.37","Windows","10.0","912","<p>作为军队的指挥官，你可以选择发射导弹杀死 <strong>7名</strong> 敌国士兵，但会炸毁附近的 <strong>1棵</strong> 敌国树木。</p> <p>树木的照片如下图所示。</p> <p></p> <img src='stimuli/trees/6.png', style='max-width: 30%;'> </img> <p><strong>你是否选择发射武器？</strong></p>","0",""
"","","","","","html-keyboard-response","98","191986","0.0-4.0-0.47","96","1","2022-10-09 11:40:52","ebf9627b049f568eb4bf28942cb89901","223.116.176.189","Mozilla/5.0 (Windows NT 10.0; Win64; x64) AppleWebKit/537.36 (KHTML, like Gecko) Chrome/106.0.0.0 Safari/537.36 Edg/106.0.1370.37","WebKit","Edge","106.0.1370.37","Windows","10.0","null","<div style=""font-size:60px;"">+</div>","null",""
"","","","","","html-button-response","99","192817","0.0-4.0-1.47","96","1","2022-10-09 11:40:52","ebf9627b049f568eb4bf28942cb89901","223.116.176.189","Mozilla/5.0 (Windows NT 10.0; Win64; x64) AppleWebKit/537.36 (KHTML, like Gecko) Chrome/106.0.0.0 Safari/537.36 Edg/106.0.1370.37","WebKit","Edge","106.0.1370.37","Windows","10.0","830","<p>作为军队的指挥官，你可以选择发射导弹杀死 <strong>6名</strong> 敌国士兵，但会炸毁附近的 <strong>1棵</strong> 敌国树木。</p> <p>树木的照片如下图所示。</p> <p></p> <img src='stimuli/trees/15.png', style='max-width: 30%;'> </img> <p><strong>你是否选择发射武器？</strong></p>","0",""
"","","","","","html-keyboard-response","100","193820","0.0-4.0-0.48","96","1","2022-10-09 11:40:52","ebf9627b049f568eb4bf28942cb89901","223.116.176.189","Mozilla/5.0 (Windows NT 10.0; Win64; x64) AppleWebKit/537.36 (KHTML, like Gecko) Chrome/106.0.0.0 Safari/537.36 Edg/106.0.1370.37","WebKit","Edge","106.0.1370.37","Windows","10.0","null","<div style=""font-size:60px;"">+</div>","null",""
"","","","","","html-button-response","101","194551","0.0-4.0-1.48","96","1","2022-10-09 11:40:52","ebf9627b049f568eb4bf28942cb89901","223.116.176.189","Mozilla/5.0 (Windows NT 10.0; Win64; x64) AppleWebKit/537.36 (KHTML, like Gecko) Chrome/106.0.0.0 Safari/537.36 Edg/106.0.1370.37","WebKit","Edge","106.0.1370.37","Windows","10.0","728","<p>作为军队的指挥官，你可以选择发射导弹杀死 <strong>7名</strong> 敌国士兵，但会炸毁附近的 <strong>1棵</strong> 敌国树木。</p> <p>树木的照片如下图所示。</p> <p></p> <img src='stimuli/trees/2.png', style='max-width: 30%;'> </img> <p><strong>你是否选择发射武器？</strong></p>","0",""
"","","","","","html-keyboard-response","102","195554","0.0-4.0-0.49","96","1","2022-10-09 11:40:52","ebf9627b049f568eb4bf28942cb89901","223.116.176.189","Mozilla/5.0 (Windows NT 10.0; Win64; x64) AppleWebKit/537.36 (KHTML, like Gecko) Chrome/106.0.0.0 Safari/537.36 Edg/106.0.1370.37","WebKit","Edge","106.0.1370.37","Windows","10.0","null","<div style=""font-size:60px;"">+</div>","null",""
"","","","","","html-button-response","103","198116","0.0-4.0-1.49","96","1","2022-10-09 11:40:52","ebf9627b049f568eb4bf28942cb89901","223.116.176.189","Mozilla/5.0 (Windows NT 10.0; Win64; x64) AppleWebKit/537.36 (KHTML, like Gecko) Chrome/106.0.0.0 Safari/537.36 Edg/106.0.1370.37","WebKit","Edge","106.0.1370.37","Windows","10.0","2559","<p>作为军队的指挥官，你可以选择发射导弹杀死 <strong>2名</strong> 敌国士兵，但会误杀附近的 <strong>1名</strong> 敌国平民。</p> <p>平民照片如下图所示。</p> <p></p> <img src='stimuli/faces/NFM7.jpg', style='max-width: 30%;'> </img> <p><strong>你是否选择发射武器？</strong></p>","1",""
"","","","","","html-keyboard-response","104","199118","0.0-4.0-0.50","96","1","2022-10-09 11:40:52","ebf9627b049f568eb4bf28942cb89901","223.116.176.189","Mozilla/5.0 (Windows NT 10.0; Win64; x64) AppleWebKit/537.36 (KHTML, like Gecko) Chrome/106.0.0.0 Safari/537.36 Edg/106.0.1370.37","WebKit","Edge","106.0.1370.37","Windows","10.0","null","<div style=""font-size:60px;"">+</div>","null",""
"","","","","","html-button-response","105","200175","0.0-4.0-1.50","96","1","2022-10-09 11:40:52","ebf9627b049f568eb4bf28942cb89901","223.116.176.189","Mozilla/5.0 (Windows NT 10.0; Win64; x64) AppleWebKit/537.36 (KHTML, like Gecko) Chrome/106.0.0.0 Safari/537.36 Edg/106.0.1370.37","WebKit","Edge","106.0.1370.37","Windows","10.0","1055","<p>作为军队的指挥官，你可以选择发射导弹杀死 <strong>1名</strong> 敌国士兵，但会误杀附近的 <strong>1名</strong> 敌国平民。</p> <p>平民照片如下图所示。</p> <p></p> <img src='stimuli/faces/NFF2.jpg', style='max-width: 30%;'> </img> <p><strong>你是否选择发射武器？</strong></p>","1",""
"","","","","","html-keyboard-response","106","201179","0.0-4.0-0.51","96","1","2022-10-09 11:40:52","ebf9627b049f568eb4bf28942cb89901","223.116.176.189","Mozilla/5.0 (Windows NT 10.0; Win64; x64) AppleWebKit/537.36 (KHTML, like Gecko) Chrome/106.0.0.0 Safari/537.36 Edg/106.0.1370.37","WebKit","Edge","106.0.1370.37","Windows","10.0","null","<div style=""font-size:60px;"">+</div>","null",""
"","","","","","html-button-response","107","202112","0.0-4.0-1.51","96","1","2022-10-09 11:40:52","ebf9627b049f568eb4bf28942cb89901","223.116.176.189","Mozilla/5.0 (Windows NT 10.0; Win64; x64) AppleWebKit/537.36 (KHTML, like Gecko) Chrome/106.0.0.0 Safari/537.36 Edg/106.0.1370.37","WebKit","Edge","106.0.1370.37","Windows","10.0","930","<p>作为军队的指挥官，你可以选择发射导弹杀死 <strong>4名</strong> 敌国士兵，但会炸毁附近的 <strong>1棵</strong> 敌国树木。</p> <p>树木的照片如下图所示。</p> <p></p> <img src='stimuli/trees/12.png', style='max-width: 30%;'> </img> <p><strong>你是否选择发射武器？</strong></p>","0",""
"","","","","","html-keyboard-response","108","203115","0.0-4.0-0.52","96","1","2022-10-09 11:40:52","ebf9627b049f568eb4bf28942cb89901","223.116.176.189","Mozilla/5.0 (Windows NT 10.0; Win64; x64) AppleWebKit/537.36 (KHTML, like Gecko) Chrome/106.0.0.0 Safari/537.36 Edg/106.0.1370.37","WebKit","Edge","106.0.1370.37","Windows","10.0","null","<div style=""font-size:60px;"">+</div>","null",""
"","","","","","html-button-response","109","205287","0.0-4.0-1.52","96","1","2022-10-09 11:40:52","ebf9627b049f568eb4bf28942cb89901","223.116.176.189","Mozilla/5.0 (Windows NT 10.0; Win64; x64) AppleWebKit/537.36 (KHTML, like Gecko) Chrome/106.0.0.0 Safari/537.36 Edg/106.0.1370.37","WebKit","Edge","106.0.1370.37","Windows","10.0","2170","<p>作为军队的指挥官，你可以选择发射导弹杀死 <strong>10名</strong> 敌国士兵，但会炸毁附近的 <strong>1棵</strong> 敌国树木。</p> <p>树木的照片如下图所示。</p> <p></p> <img src='stimuli/trees/1.png', style='max-width: 30%;'> </img> <p><strong>你是否选择发射武器？</strong></p>","0",""
"","","","","","html-keyboard-response","110","206291","0.0-4.0-0.53","96","1","2022-10-09 11:40:52","ebf9627b049f568eb4bf28942cb89901","223.116.176.189","Mozilla/5.0 (Windows NT 10.0; Win64; x64) AppleWebKit/537.36 (KHTML, like Gecko) Chrome/106.0.0.0 Safari/537.36 Edg/106.0.1370.37","WebKit","Edge","106.0.1370.37","Windows","10.0","null","<div style=""font-size:60px;"">+</div>","null",""
"","","","","","html-button-response","111","207095","0.0-4.0-1.53","96","1","2022-10-09 11:40:52","ebf9627b049f568eb4bf28942cb89901","223.116.176.189","Mozilla/5.0 (Windows NT 10.0; Win64; x64) AppleWebKit/537.36 (KHTML, like Gecko) Chrome/106.0.0.0 Safari/537.36 Edg/106.0.1370.37","WebKit","Edge","106.0.1370.37","Windows","10.0","802","<p>作为军队的指挥官，你可以选择发射导弹杀死 <strong>4名</strong> 敌国士兵，但会炸毁附近的 <strong>1棵</strong> 敌国树木。</p> <p>树木的照片如下图所示。</p> <p></p> <img src='stimuli/trees/7.png', style='max-width: 30%;'> </img> <p><strong>你是否选择发射武器？</strong></p>","0",""
"","","","","","html-keyboard-response","112","208098","0.0-4.0-0.54","96","1","2022-10-09 11:40:52","ebf9627b049f568eb4bf28942cb89901","223.116.176.189","Mozilla/5.0 (Windows NT 10.0; Win64; x64) AppleWebKit/537.36 (KHTML, like Gecko) Chrome/106.0.0.0 Safari/537.36 Edg/106.0.1370.37","WebKit","Edge","106.0.1370.37","Windows","10.0","null","<div style=""font-size:60px;"">+</div>","null",""
"","","","","","html-button-response","113","209423","0.0-4.0-1.54","96","1","2022-10-09 11:40:52","ebf9627b049f568eb4bf28942cb89901","223.116.176.189","Mozilla/5.0 (Windows NT 10.0; Win64; x64) AppleWebKit/537.36 (KHTML, like Gecko) Chrome/106.0.0.0 Safari/537.36 Edg/106.0.1370.37","WebKit","Edge","106.0.1370.37","Windows","10.0","1323","<p>作为军队的指挥官，你可以选择发射导弹杀死 <strong>2名</strong> 敌国士兵，但会误杀附近的 <strong>1名</strong> 敌国平民。</p> <p>平民照片如下图所示。</p> <p></p> <img src='stimuli/faces/NFF7.jpg', style='max-width: 30%;'> </img> <p><strong>你是否选择发射武器？</strong></p>","1",""
"","","","","","html-keyboard-response","114","210427","0.0-4.0-0.55","96","1","2022-10-09 11:40:52","ebf9627b049f568eb4bf28942cb89901","223.116.176.189","Mozilla/5.0 (Windows NT 10.0; Win64; x64) AppleWebKit/537.36 (KHTML, like Gecko) Chrome/106.0.0.0 Safari/537.36 Edg/106.0.1370.37","WebKit","Edge","106.0.1370.37","Windows","10.0","null","<div style=""font-size:60px;"">+</div>","null",""
"","","","","","html-button-response","115","211871","0.0-4.0-1.55","96","1","2022-10-09 11:40:52","ebf9627b049f568eb4bf28942cb89901","223.116.176.189","Mozilla/5.0 (Windows NT 10.0; Win64; x64) AppleWebKit/537.36 (KHTML, like Gecko) Chrome/106.0.0.0 Safari/537.36 Edg/106.0.1370.37","WebKit","Edge","106.0.1370.37","Windows","10.0","1441","<p>作为军队的指挥官，你可以选择发射导弹杀死 <strong>6名</strong> 敌国士兵，但会炸毁附近的 <strong>1棵</strong> 敌国树木。</p> <p>树木的照片如下图所示。</p> <p></p> <img src='stimuli/trees/14.png', style='max-width: 30%;'> </img> <p><strong>你是否选择发射武器？</strong></p>","0",""
"","","","","","html-keyboard-response","116","212873","0.0-4.0-0.56","96","1","2022-10-09 11:40:52","ebf9627b049f568eb4bf28942cb89901","223.116.176.189","Mozilla/5.0 (Windows NT 10.0; Win64; x64) AppleWebKit/537.36 (KHTML, like Gecko) Chrome/106.0.0.0 Safari/537.36 Edg/106.0.1370.37","WebKit","Edge","106.0.1370.37","Windows","10.0","null","<div style=""font-size:60px;"">+</div>","null",""
"","","","","","html-button-response","117","214167","0.0-4.0-1.56","96","1","2022-10-09 11:40:52","ebf9627b049f568eb4bf28942cb89901","223.116.176.189","Mozilla/5.0 (Windows NT 10.0; Win64; x64) AppleWebKit/537.36 (KHTML, like Gecko) Chrome/106.0.0.0 Safari/537.36 Edg/106.0.1370.37","WebKit","Edge","106.0.1370.37","Windows","10.0","1291","<p>作为军队的指挥官，你可以选择发射导弹杀死 <strong>1名</strong> 敌国士兵，但会误杀附近的 <strong>1名</strong> 敌国平民。</p> <p>平民照片如下图所示。</p> <p></p> <img src='stimuli/faces/NFF1.jpg', style='max-width: 30%;'> </img> <p><strong>你是否选择发射武器？</strong></p>","1",""
"","","","","","html-keyboard-response","118","215170","0.0-4.0-0.57","96","1","2022-10-09 11:40:52","ebf9627b049f568eb4bf28942cb89901","223.116.176.189","Mozilla/5.0 (Windows NT 10.0; Win64; x64) AppleWebKit/537.36 (KHTML, like Gecko) Chrome/106.0.0.0 Safari/537.36 Edg/106.0.1370.37","WebKit","Edge","106.0.1370.37","Windows","10.0","null","<div style=""font-size:60px;"">+</div>","null",""
"","","","","","html-button-response","119","217128","0.0-4.0-1.57","96","1","2022-10-09 11:40:52","ebf9627b049f568eb4bf28942cb89901","223.116.176.189","Mozilla/5.0 (Windows NT 10.0; Win64; x64) AppleWebKit/537.36 (KHTML, like Gecko) Chrome/106.0.0.0 Safari/537.36 Edg/106.0.1370.37","WebKit","Edge","106.0.1370.37","Windows","10.0","1955","<p>作为军队的指挥官，你可以选择发射导弹杀死 <strong>3名</strong> 敌国士兵，但会炸毁附近的 <strong>1棵</strong> 敌国树木。</p> <p>树木的照片如下图所示。</p> <p></p> <img src='stimuli/trees/10.png', style='max-width: 30%;'> </img> <p><strong>你是否选择发射武器？</strong></p>","1",""
"","","","","","html-keyboard-response","120","218131","0.0-4.0-0.58","96","1","2022-10-09 11:40:52","ebf9627b049f568eb4bf28942cb89901","223.116.176.189","Mozilla/5.0 (Windows NT 10.0; Win64; x64) AppleWebKit/537.36 (KHTML, like Gecko) Chrome/106.0.0.0 Safari/537.36 Edg/106.0.1370.37","WebKit","Edge","106.0.1370.37","Windows","10.0","null","<div style=""font-size:60px;"">+</div>","null",""
"","","","","","html-button-response","121","219319","0.0-4.0-1.58","96","1","2022-10-09 11:40:52","ebf9627b049f568eb4bf28942cb89901","223.116.176.189","Mozilla/5.0 (Windows NT 10.0; Win64; x64) AppleWebKit/537.36 (KHTML, like Gecko) Chrome/106.0.0.0 Safari/537.36 Edg/106.0.1370.37","WebKit","Edge","106.0.1370.37","Windows","10.0","1185","<p>作为军队的指挥官，你可以选择发射导弹杀死 <strong>10名</strong> 敌国士兵，但会误杀附近的 <strong>1名</strong> 敌国平民。</p> <p>平民照片如下图所示。</p> <p></p> <img src='stimuli/faces/NFF3.jpg', style='max-width: 30%;'> </img> <p><strong>你是否选择发射武器？</strong></p>","0",""
"","","","","","html-keyboard-response","122","220324","0.0-4.0-0.59","96","1","2022-10-09 11:40:52","ebf9627b049f568eb4bf28942cb89901","223.116.176.189","Mozilla/5.0 (Windows NT 10.0; Win64; x64) AppleWebKit/537.36 (KHTML, like Gecko) Chrome/106.0.0.0 Safari/537.36 Edg/106.0.1370.37","WebKit","Edge","106.0.1370.37","Windows","10.0","null","<div style=""font-size:60px;"">+</div>","null",""
"","","","","","html-button-response","123","221367","0.0-4.0-1.59","96","1","2022-10-09 11:40:52","ebf9627b049f568eb4bf28942cb89901","223.116.176.189","Mozilla/5.0 (Windows NT 10.0; Win64; x64) AppleWebKit/537.36 (KHTML, like Gecko) Chrome/106.0.0.0 Safari/537.36 Edg/106.0.1370.37","WebKit","Edge","106.0.1370.37","Windows","10.0","1039","<p>作为军队的指挥官，你可以选择发射导弹杀死 <strong>5名</strong> 敌国士兵，但会炸毁附近的 <strong>1棵</strong> 敌国树木。</p> <p>树木的照片如下图所示。</p> <p></p> <img src='stimuli/trees/11.png', style='max-width: 30%;'> </img> <p><strong>你是否选择发射武器？</strong></p>","0",""
"","","","","","html-keyboard-response","124","222370","0.0-4.0-0.60","96","1","2022-10-09 11:40:52","ebf9627b049f568eb4bf28942cb89901","223.116.176.189","Mozilla/5.0 (Windows NT 10.0; Win64; x64) AppleWebKit/537.36 (KHTML, like Gecko) Chrome/106.0.0.0 Safari/537.36 Edg/106.0.1370.37","WebKit","Edge","106.0.1370.37","Windows","10.0","null","<div style=""font-size:60px;"">+</div>","null",""
"","","","","","html-button-response","125","223209","0.0-4.0-1.60","96","1","2022-10-09 11:40:52","ebf9627b049f568eb4bf28942cb89901","223.116.176.189","Mozilla/5.0 (Windows NT 10.0; Win64; x64) AppleWebKit/537.36 (KHTML, like Gecko) Chrome/106.0.0.0 Safari/537.36 Edg/106.0.1370.37","WebKit","Edge","106.0.1370.37","Windows","10.0","838","<p>作为军队的指挥官，你可以选择发射导弹杀死 <strong>4名</strong> 敌国士兵，但会误杀附近的 <strong>1名</strong> 敌国平民。</p> <p>平民照片如下图所示。</p> <p></p> <img src='stimuli/faces/NFM1.jpg', style='max-width: 30%;'> </img> <p><strong>你是否选择发射武器？</strong></p>","0",""
"","","","","","html-keyboard-response","126","224212","0.0-4.0-0.61","96","1","2022-10-09 11:40:52","ebf9627b049f568eb4bf28942cb89901","223.116.176.189","Mozilla/5.0 (Windows NT 10.0; Win64; x64) AppleWebKit/537.36 (KHTML, like Gecko) Chrome/106.0.0.0 Safari/537.36 Edg/106.0.1370.37","WebKit","Edge","106.0.1370.37","Windows","10.0","null","<div style=""font-size:60px;"">+</div>","null",""
"","","","","","html-button-response","127","225159","0.0-4.0-1.61","96","1","2022-10-09 11:40:52","ebf9627b049f568eb4bf28942cb89901","223.116.176.189","Mozilla/5.0 (Windows NT 10.0; Win64; x64) AppleWebKit/537.36 (KHTML, like Gecko) Chrome/106.0.0.0 Safari/537.36 Edg/106.0.1370.37","WebKit","Edge","106.0.1370.37","Windows","10.0","944","<p>作为军队的指挥官，你可以选择发射导弹杀死 <strong>10名</strong> 敌国士兵，但会误杀附近的 <strong>1名</strong> 敌国平民。</p> <p>平民照片如下图所示。</p> <p></p> <img src='stimuli/faces/NFM6.jpg', style='max-width: 30%;'> </img> <p><strong>你是否选择发射武器？</strong></p>","0",""
"","","","","","html-keyboard-response","128","226162","0.0-4.0-0.62","96","1","2022-10-09 11:40:52","ebf9627b049f568eb4bf28942cb89901","223.116.176.189","Mozilla/5.0 (Windows NT 10.0; Win64; x64) AppleWebKit/537.36 (KHTML, like Gecko) Chrome/106.0.0.0 Safari/537.36 Edg/106.0.1370.37","WebKit","Edge","106.0.1370.37","Windows","10.0","null","<div style=""font-size:60px;"">+</div>","null",""
"","","","","","html-button-response","129","227159","0.0-4.0-1.62","96","1","2022-10-09 11:40:52","ebf9627b049f568eb4bf28942cb89901","223.116.176.189","Mozilla/5.0 (Windows NT 10.0; Win64; x64) AppleWebKit/537.36 (KHTML, like Gecko) Chrome/106.0.0.0 Safari/537.36 Edg/106.0.1370.37","WebKit","Edge","106.0.1370.37","Windows","10.0","995","<p>作为军队的指挥官，你可以选择发射导弹杀死 <strong>5名</strong> 敌国士兵，但会炸毁附近的 <strong>1棵</strong> 敌国树木。</p> <p>树木的照片如下图所示。</p> <p></p> <img src='stimuli/trees/8.png', style='max-width: 30%;'> </img> <p><strong>你是否选择发射武器？</strong></p>","0",""
"","","","","","html-keyboard-response","130","228162","0.0-4.0-0.63","96","1","2022-10-09 11:40:52","ebf9627b049f568eb4bf28942cb89901","223.116.176.189","Mozilla/5.0 (Windows NT 10.0; Win64; x64) AppleWebKit/537.36 (KHTML, like Gecko) Chrome/106.0.0.0 Safari/537.36 Edg/106.0.1370.37","WebKit","Edge","106.0.1370.37","Windows","10.0","null","<div style=""font-size:60px;"">+</div>","null",""
"","","","","","html-button-response","131","229151","0.0-4.0-1.63","96","1","2022-10-09 11:40:52","ebf9627b049f568eb4bf28942cb89901","223.116.176.189","Mozilla/5.0 (Windows NT 10.0; Win64; x64) AppleWebKit/537.36 (KHTML, like Gecko) Chrome/106.0.0.0 Safari/537.36 Edg/106.0.1370.37","WebKit","Edge","106.0.1370.37","Windows","10.0","987","<p>作为军队的指挥官，你可以选择发射导弹杀死 <strong>8名</strong> 敌国士兵，但会误杀附近的 <strong>1名</strong> 敌国平民。</p> <p>平民照片如下图所示。</p> <p></p> <img src='stimuli/faces/NFM5.jpg', style='max-width: 30%;'> </img> <p><strong>你是否选择发射武器？</strong></p>","0",""
"","","","","","survey-multi-choice","132","391424","0.0-5.0","96","1","2022-10-09 11:40:52","ebf9627b049f568eb4bf28942cb89901","223.116.176.189","Mozilla/5.0 (Windows NT 10.0; Win64; x64) AppleWebKit/537.36 (KHTML, like Gecko) Chrome/106.0.0.0 Safari/537.36 Edg/106.0.1370.37","WebKit","Edge","106.0.1370.37","Windows","10.0","162269","","{""Attention1"":""""}","[0]"
"","","","","","html-button-response","133","392657","0.0-6.0","96","1","2022-10-09 11:40:52","ebf9627b049f568eb4bf28942cb89901","223.116.176.189","Mozilla/5.0 (Windows NT 10.0; Win64; x64) AppleWebKit/537.36 (KHTML, like Gecko) Chrome/106.0.0.0 Safari/537.36 Edg/106.0.1370.37","WebKit","Edge","106.0.1370.37","Windows","10.0","1227","<p style=""font-size:20px;font-weight:bold;"">恭喜！</p><p>你已经完成了实验的第一部分。</p><p>请休息放松一下，然后进入第二部分。</p><p>这部分大约需要10分钟。</p>","0",""
"","","","","","survey-text","134","447888","0.0-7.0","96","1","2022-10-09 11:40:52","ebf9627b049f568eb4bf28942cb89901","223.116.176.189","Mozilla/5.0 (Windows NT 10.0; Win64; x64) AppleWebKit/537.36 (KHTML, like Gecko) Chrome/106.0.0.0 Safari/537.36 Edg/106.0.1370.37","WebKit","Edge","106.0.1370.37","Windows","10.0","54225","","{""Age"":""20"",""Nation"":""中国"",""Born"":""新疆"",""Live"":""阿克苏"",""Ethnic"":""汉"",""Alipay"":""15701958510""}",""
"","","","","","survey-multi-choice","135","464464","0.0-8.0","96","1","2022-10-09 11:40:52","ebf9627b049f568eb4bf28942cb89901","223.116.176.189","Mozilla/5.0 (Windows NT 10.0; Win64; x64) AppleWebKit/537.36 (KHTML, like Gecko) Chrome/106.0.0.0 Safari/537.36 Edg/106.0.1370.37","WebKit","Edge","106.0.1370.37","Windows","10.0","16572","","{""Gender"":""女"",""Education"":""硕士研究生毕业"",""Income"":""￥70,000-￥139,999"",""Children"":""0"",""Race"":""亚洲人""}","[0,1,2,3,4]"
"","","","","","survey-multi-select","136","469899","0.0-9.0","96","1","2022-10-09 11:40:52","ebf9627b049f568eb4bf28942cb89901","223.116.176.189","Mozilla/5.0 (Windows NT 10.0; Win64; x64) AppleWebKit/537.36 (KHTML, like Gecko) Chrome/106.0.0.0 Safari/537.36 Edg/106.0.1370.37","WebKit","Edge","106.0.1370.37","Windows","10.0","5426","","{""Marriage"":[""未婚""],""Religion"":[""无宗教信仰""]}","[0,1]"
"","","","","","survey-multi-choice","137","477856","0.0-10.0","96","1","2022-10-09 11:40:52","ebf9627b049f568eb4bf28942cb89901","223.116.176.189","Mozilla/5.0 (Windows NT 10.0; Win64; x64) AppleWebKit/537.36 (KHTML, like Gecko) Chrome/106.0.0.0 Safari/537.36 Edg/106.0.1370.37","WebKit","Edge","106.0.1370.37","Windows","10.0","7952","","{""SES"":""4""}","[0]"
"","","","","","html-button-response","138","478785","0.0-11.0","96","1","2022-10-09 11:40:52","ebf9627b049f568eb4bf28942cb89901","223.116.176.189","Mozilla/5.0 (Windows NT 10.0; Win64; x64) AppleWebKit/537.36 (KHTML, like Gecko) Chrome/106.0.0.0 Safari/537.36 Edg/106.0.1370.37","WebKit","Edge","106.0.1370.37","Windows","10.0","925","<p><strong>请判断下列陈述在多大程度上可以形容你？</p><p> (1 = ""和我一点都不像"" to 5 = ""非常像我"".)</strong></p>","0",""
"","","","","","survey-likert","139","515561","0.0-12.0","96","1","2022-10-09 11:40:52","ebf9627b049f568eb4bf28942cb89901","223.116.176.189","Mozilla/5.0 (Windows NT 10.0; Win64; x64) AppleWebKit/537.36 (KHTML, like Gecko) Chrome/106.0.0.0 Safari/537.36 Edg/106.0.1370.37","WebKit","Edge","106.0.1370.37","Windows","10.0","36773","","{""Aggression1"":1,""Aggression2"":3,""Aggression3"":4,""Aggression4"":0,""Aggression5"":3,""Aggression6"":3,""Aggression7"":2,""Aggression8"":1,""Aggression9"":3}","[0,1,2,3,4,5,6,7,8]"
"","","","","","html-button-response","140","516480","0.0-13.0","96","1","2022-10-09 11:40:52","ebf9627b049f568eb4bf28942cb89901","223.116.176.189","Mozilla/5.0 (Windows NT 10.0; Win64; x64) AppleWebKit/537.36 (KHTML, like Gecko) Chrome/106.0.0.0 Safari/537.36 Edg/106.0.1370.37","WebKit","Edge","106.0.1370.37","Windows","10.0","915","<p><strong>请判断你在多大程度上同意下列陈述。</strong></p>","0",""
"","","","","","survey-likert","141","649673","0.0-14.0","96","1","2022-10-09 11:40:52","ebf9627b049f568eb4bf28942cb89901","223.116.176.189","Mozilla/5.0 (Windows NT 10.0; Win64; x64) AppleWebKit/537.36 (KHTML, like Gecko) Chrome/106.0.0.0 Safari/537.36 Edg/106.0.1370.37","WebKit","Edge","106.0.1370.37","Windows","10.0","133188","","{""scale23"":3,""scale16"":3,""scale7"":2,""scale12"":0,""scale3"":3,""scale24"":3,""scale18"":1,""scale9"":3,""scale10"":4,""scale4"":1,""scale13"":1,""scale5"":4,""scale25"":1,""scale26"":3,""scale6"":4,""scale14"":2,""scale27"":1,""scale8"":2,""scale20"":3,""scale2"":2,""scale11"":4,""scale28"":3,""scale19"":2,""scale15"":3,""scale22"":3,""scale21"":4,""scale17"":3,""scale1"":2}","[22,15,6,11,2,23,17,8,9,3,12,4,24,25,5,13,26,7,19,1,10,27,18,14,21,20,16,0]"
"","","","","","html-button-response","142","650623","0.0-15.0","96","1","2022-10-09 11:40:52","ebf9627b049f568eb4bf28942cb89901","223.116.176.189","Mozilla/5.0 (Windows NT 10.0; Win64; x64) AppleWebKit/537.36 (KHTML, like Gecko) Chrome/106.0.0.0 Safari/537.36 Edg/106.0.1370.37","WebKit","Edge","106.0.1370.37","Windows","10.0","945","<p><strong>请判断你在多大程度上同意下列陈述。</strong></p>","0",""
"","","","","","survey-likert","143","712142","0.0-16.0","96","1","2022-10-09 11:40:52","ebf9627b049f568eb4bf28942cb89901","223.116.176.189","Mozilla/5.0 (Windows NT 10.0; Win64; x64) AppleWebKit/537.36 (KHTML, like Gecko) Chrome/106.0.0.0 Safari/537.36 Edg/106.0.1370.37","WebKit","Edge","106.0.1370.37","Windows","10.0","61515","","{""sdo15"":5,""sdo10"":6,""sdo7"":2,""sdo5"":4,""sdo12"":6,""sdo6"":5,""sdo14"":6,""sdo8"":6,""sdo2"":5,""sdo1"":2,""sdo3"":5,""sdo13"":6,""sdo16"":6,""sdo9"":6,""sdo4"":2,""sdo11"":6}","[14,9,6,4,11,5,13,7,1,0,2,12,15,8,3,10]"
"","","","","","html-button-response","144","713120","0.0-17.0","96","1","2022-10-09 11:40:52","ebf9627b049f568eb4bf28942cb89901","223.116.176.189","Mozilla/5.0 (Windows NT 10.0; Win64; x64) AppleWebKit/537.36 (KHTML, like Gecko) Chrome/106.0.0.0 Safari/537.36 Edg/106.0.1370.37","WebKit","Edge","106.0.1370.37","Windows","10.0","973","<p><strong>请判断你在多大程度上同意下列陈述。</strong></p>","0",""
"","","","","","survey-likert","145","759257","0.0-18.0","96","1","2022-10-09 11:40:52","ebf9627b049f568eb4bf28942cb89901","223.116.176.189","Mozilla/5.0 (Windows NT 10.0; Win64; x64) AppleWebKit/537.36 (KHTML, like Gecko) Chrome/106.0.0.0 Safari/537.36 Edg/106.0.1370.37","WebKit","Edge","106.0.1370.37","Windows","10.0","46134","","{""caring1"":3,""liking1"":1,""caring2"":4,""protection1"":3,""liking2"":2,""caring3"":4,""protection2"":2,""liking3"":3,""protection3"":3,""caring4"":4,""liking4"":2,""protection4"":2,""caring5"":3,""liking5"":1,""protection5"":2}","[0,1,2,3,4,5,6,7,8,9,10,11,12,13,14]"
"","","","","","html-button-response","146","760303","0.0-19.0","96","1","2022-10-09 11:40:52","ebf9627b049f568eb4bf28942cb89901","223.116.176.189","Mozilla/5.0 (Windows NT 10.0; Win64; x64) AppleWebKit/537.36 (KHTML, like Gecko) Chrome/106.0.0.0 Safari/537.36 Edg/106.0.1370.37","WebKit","Edge","106.0.1370.37","Windows","10.0","1042","<p><strong>请判断下列场景中你的内心感受有多柔软。</strong></p>","0",""
"","","","","","survey-likert","147","791081","0.0-20.0","96","1","2022-10-09 11:40:52","ebf9627b049f568eb4bf28942cb89901","223.116.176.189","Mozilla/5.0 (Windows NT 10.0; Win64; x64) AppleWebKit/537.36 (KHTML, like Gecko) Chrome/106.0.0.0 Safari/537.36 Edg/106.0.1370.37","WebKit","Edge","106.0.1370.37","Windows","10.0","30774","","{""tenderness-positive1"":3,""tenderness-negative1"":3,""tenderness-negative2"":2,""tenderness-positive2"":4,""tenderness-positive3"":4,""tenderness-negative3"":2,""tenderness-positive4"":4,""tendereness-negative4"":3,""tendernness-negative5"":3,""tenderness-positive5"":4}","[0,1,2,3,4,5,6,7,8,9]"
"","","","","","survey-multi-choice","148","797464","0.0-21.0","96","1","2022-10-09 11:40:52","ebf9627b049f568eb4bf28942cb89901","223.116.176.189","Mozilla/5.0 (Windows NT 10.0; Win64; x64) AppleWebKit/537.36 (KHTML, like Gecko) Chrome/106.0.0.0 Safari/537.36 Edg/106.0.1370.37","WebKit","Edge","106.0.1370.37","Windows","10.0","6378","","{""Attention2"":""其他""}","[0]"
"","","","","","html-button-response","149","798441","0.0-22.0","96","1","2022-10-09 11:40:52","ebf9627b049f568eb4bf28942cb89901","223.116.176.189","Mozilla/5.0 (Windows NT 10.0; Win64; x64) AppleWebKit/537.36 (KHTML, like Gecko) Chrome/106.0.0.0 Safari/537.36 Edg/106.0.1370.37","WebKit","Edge","106.0.1370.37","Windows","10.0","973","<p><strong>请判断你在多大程度上同意下列陈述。</strong></p>","0",""
"","","","","","survey-likert","150","924491","0.0-23.0","96","1","2022-10-09 11:40:52","ebf9627b049f568eb4bf28942cb89901","223.116.176.189","Mozilla/5.0 (Windows NT 10.0; Win64; x64) AppleWebKit/537.36 (KHTML, like Gecko) Chrome/106.0.0.0 Safari/537.36 Edg/106.0.1370.37","WebKit","Edge","106.0.1370.37","Windows","10.0","126046","","{""Nation6"":4,""Patri1"":4,""Patri4"":4,""Patri3"":4,""Nation2"":4,""Patri2"":4,""Nation1"":3,""Patri8"":4,""Patri6"":1,""Patri7"":4,""Patri9"":0,""Nation5"":3,""Nation4"":2,""Nation7"":4,""Patri5"":4,""Patri12"":2,""Patri10"":0,""Nation8"":1,""Nation3"":3,""Patri11"":0}","[17,0,3,2,13,1,12,7,5,6,8,16,15,18,4,11,9,19,14,10]"
"","","","","","html-button-response","151","925706","0.0-24.0","96","1","2022-10-09 11:40:52","ebf9627b049f568eb4bf28942cb89901","223.116.176.189","Mozilla/5.0 (Windows NT 10.0; Win64; x64) AppleWebKit/537.36 (KHTML, like Gecko) Chrome/106.0.0.0 Safari/537.36 Edg/106.0.1370.37","WebKit","Edge","106.0.1370.37","Windows","10.0","1211","<p><strong>请判断你在多大程度上同意下列陈述。</strong></p>","0",""
"","","","","","survey-likert","152","982425","0.0-25.0","96","1","2022-10-09 11:40:52","ebf9627b049f568eb4bf28942cb89901","223.116.176.189","Mozilla/5.0 (Windows NT 10.0; Win64; x64) AppleWebKit/537.36 (KHTML, like Gecko) Chrome/106.0.0.0 Safari/537.36 Edg/106.0.1370.37","WebKit","Edge","106.0.1370.37","Windows","10.0","56715","","{""vc4"":6,""hc4"":4,""vi1"":6,""hc2"":6,""hi1"":7,""hi3"":5,""hc1"":6,""hc3"":4,""Robot"":6,""hi4"":8,""vi3"":7,""vi2"":6,""vc3"":6,""hi2"":8,""vc1"":8,""vi4"":5,""vc2"":5}","[16,12,4,10,0,2,9,11,7,3,6,5,15,1,13,8,14]"
"","","","","","survey-text","153","988137","0.0-26.0","96","1","2022-10-09 11:40:52","ebf9627b049f568eb4bf28942cb89901","223.116.176.189","Mozilla/5.0 (Windows NT 10.0; Win64; x64) AppleWebKit/537.36 (KHTML, like Gecko) Chrome/106.0.0.0 Safari/537.36 Edg/106.0.1370.37","WebKit","Edge","106.0.1370.37","Windows","10.0","5700","","{""Comments"":""无""}",""
"","","","","","html-button-response","154","989064","0.0-27.0","96","1","2022-10-09 11:40:52","ebf9627b049f568eb4bf28942cb89901","223.116.176.189","Mozilla/5.0 (Windows NT 10.0; Win64; x64) AppleWebKit/537.36 (KHTML, like Gecko) Chrome/106.0.0.0 Safari/537.36 Edg/106.0.1370.37","WebKit","Edge","106.0.1370.37","Windows","10.0","924","<strong><p>恭喜你完成了实验！</p><p>感谢您的参与。</p></strong>","0",""
