"success","timeout","failed_images","failed_audio","failed_video","trial_type","trial_index","time_elapsed","internal_node_id","run_id","condition","recorded_at","source_code_version","ip","user_agent","device","browser","browser_version","platform","platform_version","rt","stimulus","response","question_order"
"true","false","[]","[]","[]","preload","0","3149","0.0-0.0","12","1","2022-10-20 07:17:24","ebf9627b049f568eb4bf28942cb89901","42.87.104.28","Mozilla/5.0 (Windows NT 10.0; Win64; x64) AppleWebKit/537.36 (KHTML, like Gecko) Chrome/101.0.4951.64 Safari/537.36 Edg/101.0.1210.47","WebKit","Edge","101.0.1210.47","Windows","10.0","","","",""
"true","","","","","fullscreen","1","86607","0.0-1.0","12","1","2022-10-20 07:17:24","ebf9627b049f568eb4bf28942cb89901","42.87.104.28","Mozilla/5.0 (Windows NT 10.0; Win64; x64) AppleWebKit/537.36 (KHTML, like Gecko) Chrome/101.0.4951.64 Safari/537.36 Edg/101.0.1210.47","WebKit","Edge","101.0.1210.47","Windows","10.0","","","",""
"","","","","","html-button-response","2","116753","0.0-2.0","12","1","2022-10-20 07:17:24","ebf9627b049f568eb4bf28942cb89901","42.87.104.28","Mozilla/5.0 (Windows NT 10.0; Win64; x64) AppleWebKit/537.36 (KHTML, like Gecko) Chrome/101.0.4951.64 Safari/537.36 Edg/101.0.1210.47","WebKit","Edge","101.0.1210.47","Windows","10.0","30141","<p style=""font-size:20px;font-weight:bold;"">实验知情同意书</p><p style=""text-align:left;""><strong>实验名称：</strong>社会冲突研究</p><p style=""text-align:left;""><strong>主要研究者：</strong>韩晓春副教授（北京师范大学心理学部）</p><p style=""text-align:left;""><strong>联系方式：</strong>发送邮件至xiaochun.han@bnu.edu.cn</p><p style=""text-align:left;""><strong>研究目的：</strong>研究旨在了解人类面对群体冲突时的决策方式，以及相关的心理学特质。实验调查大约需要20分钟。</p><p style=""text-align:left;""><strong>实验流程：</strong>实验包含两部分。第一部分呈现一系列群体冲突场景，请你决定如何对这些冲突进行反应，大约需要10分钟完成。第二部分包含一系列人口统计学信息收集和心理学问卷，大约需要10分钟完成。</p><p style=""text-align:left;""><strong>参加及退出规则：</strong>参加本实验完全取决于您的个人意愿。在参与过程中，您可以随时退出，并且不用承担任何后果。</p><p style=""text-align:left;""><strong>隐私：</strong>本实验完全匿名进行，不会收集您的姓名或其他能够识别您身份的信息。实验中收集的作答仅用作科学研究使用，可能会在学术期刊/书籍上发表，或者用于教学，您的数据未来可能会和其他研究者或实验室分享，但您的个人身份不会被识别。</p><p style=""text-align:left;""><strong>实验报酬：</strong>实验完成后，您将获得15元人民币报酬，以感谢您的时间和努力。调查问卷中包含几道题目用以测验您作答时的认真度。只有完成全部实验，并且正确回答认真度测验的被试才能获得实验报酬。实验报酬将通过支付宝转账发放。</p><p style=""text-align:left;font-size:20px;""><strong>如果您同意以上实验知情同意书的内容，请点击'同意并且开始实验'按钮；否则请关闭浏览器界面，退出实验。</strong></p>","0",""
"","","","","","html-button-response","3","123689","0.0-3.0","12","1","2022-10-20 07:17:24","ebf9627b049f568eb4bf28942cb89901","42.87.104.28","Mozilla/5.0 (Windows NT 10.0; Win64; x64) AppleWebKit/537.36 (KHTML, like Gecko) Chrome/101.0.4951.64 Safari/537.36 Edg/101.0.1210.47","WebKit","Edge","101.0.1210.47","Windows","10.0","6933","<p ><strong>实验任务一：</strong></p><p>请想象你的国家与另一个国家发生了军事冲突。</p><p>你是国家军队的指挥官，你将如何在冲突中进行决策。</p><p>具体来说，作为军队指挥官，请你决定是否发射导弹进行打击。</p><p>接下来，你会面对一系列场景，请仔细阅读每个场景，然后进行决策。</p><p>这部分实验任务大约需要10分钟。</p><p><strong>实验过程中，请集中注意力。</strong></p>","0",""
"","","","","","html-keyboard-response","4","124691","0.0-4.0-0.0","12","1","2022-10-20 07:17:24","ebf9627b049f568eb4bf28942cb89901","42.87.104.28","Mozilla/5.0 (Windows NT 10.0; Win64; x64) AppleWebKit/537.36 (KHTML, like Gecko) Chrome/101.0.4951.64 Safari/537.36 Edg/101.0.1210.47","WebKit","Edge","101.0.1210.47","Windows","10.0","null","<div style=""font-size:60px;"">+</div>","null",""
"","","","","","html-button-response","5","132919","0.0-4.0-1.0","12","1","2022-10-20 07:17:24","ebf9627b049f568eb4bf28942cb89901","42.87.104.28","Mozilla/5.0 (Windows NT 10.0; Win64; x64) AppleWebKit/537.36 (KHTML, like Gecko) Chrome/101.0.4951.64 Safari/537.36 Edg/101.0.1210.47","WebKit","Edge","101.0.1210.47","Windows","10.0","8225","<p>作为军队的指挥官，你可以选择发射导弹杀死 <strong>3名</strong> 敌国士兵，但会误杀附近的 <strong>1名</strong> 敌国平民。</p> <p>平民照片如下图所示。</p> <p></p> <img src='stimuli/faces/NFM3.jpg', style='max-width: 30%;'> </img> <p><strong>你是否选择发射武器？</strong></p>","1",""
"","","","","","html-keyboard-response","6","133934","0.0-4.0-0.1","12","1","2022-10-20 07:17:24","ebf9627b049f568eb4bf28942cb89901","42.87.104.28","Mozilla/5.0 (Windows NT 10.0; Win64; x64) AppleWebKit/537.36 (KHTML, like Gecko) Chrome/101.0.4951.64 Safari/537.36 Edg/101.0.1210.47","WebKit","Edge","101.0.1210.47","Windows","10.0","null","<div style=""font-size:60px;"">+</div>","null",""
"","","","","","html-button-response","7","136911","0.0-4.0-1.1","12","1","2022-10-20 07:17:24","ebf9627b049f568eb4bf28942cb89901","42.87.104.28","Mozilla/5.0 (Windows NT 10.0; Win64; x64) AppleWebKit/537.36 (KHTML, like Gecko) Chrome/101.0.4951.64 Safari/537.36 Edg/101.0.1210.47","WebKit","Edge","101.0.1210.47","Windows","10.0","2975","<p>作为军队的指挥官，你可以选择发射导弹杀死 <strong>5名</strong> 敌国士兵，但会炸毁附近的 <strong>1棵</strong> 敌国树木。</p> <p>树木的照片如下图所示。</p> <p></p> <img src='stimuli/trees/3.png', style='max-width: 30%;'> </img> <p><strong>你是否选择发射武器？</strong></p>","0",""
"","","","","","html-keyboard-response","8","137924","0.0-4.0-0.2","12","1","2022-10-20 07:17:24","ebf9627b049f568eb4bf28942cb89901","42.87.104.28","Mozilla/5.0 (Windows NT 10.0; Win64; x64) AppleWebKit/537.36 (KHTML, like Gecko) Chrome/101.0.4951.64 Safari/537.36 Edg/101.0.1210.47","WebKit","Edge","101.0.1210.47","Windows","10.0","null","<div style=""font-size:60px;"">+</div>","null",""
"","","","","","html-button-response","9","141988","0.0-4.0-1.2","12","1","2022-10-20 07:17:24","ebf9627b049f568eb4bf28942cb89901","42.87.104.28","Mozilla/5.0 (Windows NT 10.0; Win64; x64) AppleWebKit/537.36 (KHTML, like Gecko) Chrome/101.0.4951.64 Safari/537.36 Edg/101.0.1210.47","WebKit","Edge","101.0.1210.47","Windows","10.0","4062","<p>作为军队的指挥官，你可以选择发射导弹杀死 <strong>4名</strong> 敌国士兵，但会炸毁附近的 <strong>1棵</strong> 敌国树木。</p> <p>树木的照片如下图所示。</p> <p></p> <img src='stimuli/trees/5.png', style='max-width: 30%;'> </img> <p><strong>你是否选择发射武器？</strong></p>","0",""
"","","","","","html-keyboard-response","10","142989","0.0-4.0-0.3","12","1","2022-10-20 07:17:24","ebf9627b049f568eb4bf28942cb89901","42.87.104.28","Mozilla/5.0 (Windows NT 10.0; Win64; x64) AppleWebKit/537.36 (KHTML, like Gecko) Chrome/101.0.4951.64 Safari/537.36 Edg/101.0.1210.47","WebKit","Edge","101.0.1210.47","Windows","10.0","null","<div style=""font-size:60px;"">+</div>","null",""
"","","","","","html-button-response","11","145992","0.0-4.0-1.3","12","1","2022-10-20 07:17:24","ebf9627b049f568eb4bf28942cb89901","42.87.104.28","Mozilla/5.0 (Windows NT 10.0; Win64; x64) AppleWebKit/537.36 (KHTML, like Gecko) Chrome/101.0.4951.64 Safari/537.36 Edg/101.0.1210.47","WebKit","Edge","101.0.1210.47","Windows","10.0","3001","<p>作为军队的指挥官，你可以选择发射导弹杀死 <strong>10名</strong> 敌国士兵，但会炸毁附近的 <strong>1棵</strong> 敌国树木。</p> <p>树木的照片如下图所示。</p> <p></p> <img src='stimuli/trees/4.png', style='max-width: 30%;'> </img> <p><strong>你是否选择发射武器？</strong></p>","0",""
"","","","","","html-keyboard-response","12","147005","0.0-4.0-0.4","12","1","2022-10-20 07:17:24","ebf9627b049f568eb4bf28942cb89901","42.87.104.28","Mozilla/5.0 (Windows NT 10.0; Win64; x64) AppleWebKit/537.36 (KHTML, like Gecko) Chrome/101.0.4951.64 Safari/537.36 Edg/101.0.1210.47","WebKit","Edge","101.0.1210.47","Windows","10.0","null","<div style=""font-size:60px;"">+</div>","null",""
"","","","","","html-button-response","13","149415","0.0-4.0-1.4","12","1","2022-10-20 07:17:24","ebf9627b049f568eb4bf28942cb89901","42.87.104.28","Mozilla/5.0 (Windows NT 10.0; Win64; x64) AppleWebKit/537.36 (KHTML, like Gecko) Chrome/101.0.4951.64 Safari/537.36 Edg/101.0.1210.47","WebKit","Edge","101.0.1210.47","Windows","10.0","2408","<p>作为军队的指挥官，你可以选择发射导弹杀死 <strong>8名</strong> 敌国士兵，但会炸毁附近的 <strong>1棵</strong> 敌国树木。</p> <p>树木的照片如下图所示。</p> <p></p> <img src='stimuli/trees/5.png', style='max-width: 30%;'> </img> <p><strong>你是否选择发射武器？</strong></p>","0",""
"","","","","","html-keyboard-response","14","150424","0.0-4.0-0.5","12","1","2022-10-20 07:17:24","ebf9627b049f568eb4bf28942cb89901","42.87.104.28","Mozilla/5.0 (Windows NT 10.0; Win64; x64) AppleWebKit/537.36 (KHTML, like Gecko) Chrome/101.0.4951.64 Safari/537.36 Edg/101.0.1210.47","WebKit","Edge","101.0.1210.47","Windows","10.0","null","<div style=""font-size:60px;"">+</div>","null",""
"","","","","","html-button-response","15","153860","0.0-4.0-1.5","12","1","2022-10-20 07:17:24","ebf9627b049f568eb4bf28942cb89901","42.87.104.28","Mozilla/5.0 (Windows NT 10.0; Win64; x64) AppleWebKit/537.36 (KHTML, like Gecko) Chrome/101.0.4951.64 Safari/537.36 Edg/101.0.1210.47","WebKit","Edge","101.0.1210.47","Windows","10.0","3434","<p>作为军队的指挥官，你可以选择发射导弹杀死 <strong>6名</strong> 敌国士兵，但会误杀附近的 <strong>1名</strong> 敌国平民。</p> <p>平民照片如下图所示。</p> <p></p> <img src='stimuli/faces/NFM6.jpg', style='max-width: 30%;'> </img> <p><strong>你是否选择发射武器？</strong></p>","0",""
"","","","","","html-keyboard-response","16","154874","0.0-4.0-0.6","12","1","2022-10-20 07:17:24","ebf9627b049f568eb4bf28942cb89901","42.87.104.28","Mozilla/5.0 (Windows NT 10.0; Win64; x64) AppleWebKit/537.36 (KHTML, like Gecko) Chrome/101.0.4951.64 Safari/537.36 Edg/101.0.1210.47","WebKit","Edge","101.0.1210.47","Windows","10.0","null","<div style=""font-size:60px;"">+</div>","null",""
"","","","","","html-button-response","17","158477","0.0-4.0-1.6","12","1","2022-10-20 07:17:24","ebf9627b049f568eb4bf28942cb89901","42.87.104.28","Mozilla/5.0 (Windows NT 10.0; Win64; x64) AppleWebKit/537.36 (KHTML, like Gecko) Chrome/101.0.4951.64 Safari/537.36 Edg/101.0.1210.47","WebKit","Edge","101.0.1210.47","Windows","10.0","3601","<p>作为军队的指挥官，你可以选择发射导弹杀死 <strong>2名</strong> 敌国士兵，但会误杀附近的 <strong>1名</strong> 敌国平民。</p> <p>平民照片如下图所示。</p> <p></p> <img src='stimuli/faces/NFF2.jpg', style='max-width: 30%;'> </img> <p><strong>你是否选择发射武器？</strong></p>","1",""
"","","","","","html-keyboard-response","18","159484","0.0-4.0-0.7","12","1","2022-10-20 07:17:24","ebf9627b049f568eb4bf28942cb89901","42.87.104.28","Mozilla/5.0 (Windows NT 10.0; Win64; x64) AppleWebKit/537.36 (KHTML, like Gecko) Chrome/101.0.4951.64 Safari/537.36 Edg/101.0.1210.47","WebKit","Edge","101.0.1210.47","Windows","10.0","null","<div style=""font-size:60px;"">+</div>","null",""
"","","","","","html-button-response","19","162171","0.0-4.0-1.7","12","1","2022-10-20 07:17:24","ebf9627b049f568eb4bf28942cb89901","42.87.104.28","Mozilla/5.0 (Windows NT 10.0; Win64; x64) AppleWebKit/537.36 (KHTML, like Gecko) Chrome/101.0.4951.64 Safari/537.36 Edg/101.0.1210.47","WebKit","Edge","101.0.1210.47","Windows","10.0","2686","<p>作为军队的指挥官，你可以选择发射导弹杀死 <strong>9名</strong> 敌国士兵，但会误杀附近的 <strong>1名</strong> 敌国平民。</p> <p>平民照片如下图所示。</p> <p></p> <img src='stimuli/faces/NFF2.jpg', style='max-width: 30%;'> </img> <p><strong>你是否选择发射武器？</strong></p>","0",""
"","","","","","html-keyboard-response","20","163187","0.0-4.0-0.8","12","1","2022-10-20 07:17:24","ebf9627b049f568eb4bf28942cb89901","42.87.104.28","Mozilla/5.0 (Windows NT 10.0; Win64; x64) AppleWebKit/537.36 (KHTML, like Gecko) Chrome/101.0.4951.64 Safari/537.36 Edg/101.0.1210.47","WebKit","Edge","101.0.1210.47","Windows","10.0","null","<div style=""font-size:60px;"">+</div>","null",""
"","","","","","html-button-response","21","166623","0.0-4.0-1.8","12","1","2022-10-20 07:17:24","ebf9627b049f568eb4bf28942cb89901","42.87.104.28","Mozilla/5.0 (Windows NT 10.0; Win64; x64) AppleWebKit/537.36 (KHTML, like Gecko) Chrome/101.0.4951.64 Safari/537.36 Edg/101.0.1210.47","WebKit","Edge","101.0.1210.47","Windows","10.0","3433","<p>作为军队的指挥官，你可以选择发射导弹杀死 <strong>3名</strong> 敌国士兵，但会误杀附近的 <strong>1名</strong> 敌国平民。</p> <p>平民照片如下图所示。</p> <p></p> <img src='stimuli/faces/NFM8.jpg', style='max-width: 30%;'> </img> <p><strong>你是否选择发射武器？</strong></p>","1",""
"","","","","","html-keyboard-response","22","167634","0.0-4.0-0.9","12","1","2022-10-20 07:17:24","ebf9627b049f568eb4bf28942cb89901","42.87.104.28","Mozilla/5.0 (Windows NT 10.0; Win64; x64) AppleWebKit/537.36 (KHTML, like Gecko) Chrome/101.0.4951.64 Safari/537.36 Edg/101.0.1210.47","WebKit","Edge","101.0.1210.47","Windows","10.0","null","<div style=""font-size:60px;"">+</div>","null",""
"","","","","","html-button-response","23","170457","0.0-4.0-1.9","12","1","2022-10-20 07:17:24","ebf9627b049f568eb4bf28942cb89901","42.87.104.28","Mozilla/5.0 (Windows NT 10.0; Win64; x64) AppleWebKit/537.36 (KHTML, like Gecko) Chrome/101.0.4951.64 Safari/537.36 Edg/101.0.1210.47","WebKit","Edge","101.0.1210.47","Windows","10.0","2820","<p>作为军队的指挥官，你可以选择发射导弹杀死 <strong>3名</strong> 敌国士兵，但会炸毁附近的 <strong>1棵</strong> 敌国树木。</p> <p>树木的照片如下图所示。</p> <p></p> <img src='stimuli/trees/4.png', style='max-width: 30%;'> </img> <p><strong>你是否选择发射武器？</strong></p>","0",""
"","","","","","html-keyboard-response","24","171473","0.0-4.0-0.10","12","1","2022-10-20 07:17:24","ebf9627b049f568eb4bf28942cb89901","42.87.104.28","Mozilla/5.0 (Windows NT 10.0; Win64; x64) AppleWebKit/537.36 (KHTML, like Gecko) Chrome/101.0.4951.64 Safari/537.36 Edg/101.0.1210.47","WebKit","Edge","101.0.1210.47","Windows","10.0","null","<div style=""font-size:60px;"">+</div>","null",""
"","","","","","html-button-response","25","174759","0.0-4.0-1.10","12","1","2022-10-20 07:17:24","ebf9627b049f568eb4bf28942cb89901","42.87.104.28","Mozilla/5.0 (Windows NT 10.0; Win64; x64) AppleWebKit/537.36 (KHTML, like Gecko) Chrome/101.0.4951.64 Safari/537.36 Edg/101.0.1210.47","WebKit","Edge","101.0.1210.47","Windows","10.0","3284","<p>作为军队的指挥官，你可以选择发射导弹杀死 <strong>1名</strong> 敌国士兵，但会误杀附近的 <strong>1名</strong> 敌国平民。</p> <p>平民照片如下图所示。</p> <p></p> <img src='stimuli/faces/NFM2.jpg', style='max-width: 30%;'> </img> <p><strong>你是否选择发射武器？</strong></p>","1",""
"","","","","","html-keyboard-response","26","175763","0.0-4.0-0.11","12","1","2022-10-20 07:17:24","ebf9627b049f568eb4bf28942cb89901","42.87.104.28","Mozilla/5.0 (Windows NT 10.0; Win64; x64) AppleWebKit/537.36 (KHTML, like Gecko) Chrome/101.0.4951.64 Safari/537.36 Edg/101.0.1210.47","WebKit","Edge","101.0.1210.47","Windows","10.0","null","<div style=""font-size:60px;"">+</div>","null",""
"","","","","","html-button-response","27","177365","0.0-4.0-1.11","12","1","2022-10-20 07:17:24","ebf9627b049f568eb4bf28942cb89901","42.87.104.28","Mozilla/5.0 (Windows NT 10.0; Win64; x64) AppleWebKit/537.36 (KHTML, like Gecko) Chrome/101.0.4951.64 Safari/537.36 Edg/101.0.1210.47","WebKit","Edge","101.0.1210.47","Windows","10.0","1600","<p>作为军队的指挥官，你可以选择发射导弹杀死 <strong>2名</strong> 敌国士兵，但会误杀附近的 <strong>1名</strong> 敌国平民。</p> <p>平民照片如下图所示。</p> <p></p> <img src='stimuli/faces/NFF3.jpg', style='max-width: 30%;'> </img> <p><strong>你是否选择发射武器？</strong></p>","1",""
"","","","","","html-keyboard-response","28","178383","0.0-4.0-0.12","12","1","2022-10-20 07:17:24","ebf9627b049f568eb4bf28942cb89901","42.87.104.28","Mozilla/5.0 (Windows NT 10.0; Win64; x64) AppleWebKit/537.36 (KHTML, like Gecko) Chrome/101.0.4951.64 Safari/537.36 Edg/101.0.1210.47","WebKit","Edge","101.0.1210.47","Windows","10.0","null","<div style=""font-size:60px;"">+</div>","null",""
"","","","","","html-button-response","29","180461","0.0-4.0-1.12","12","1","2022-10-20 07:17:24","ebf9627b049f568eb4bf28942cb89901","42.87.104.28","Mozilla/5.0 (Windows NT 10.0; Win64; x64) AppleWebKit/537.36 (KHTML, like Gecko) Chrome/101.0.4951.64 Safari/537.36 Edg/101.0.1210.47","WebKit","Edge","101.0.1210.47","Windows","10.0","2076","<p>作为军队的指挥官，你可以选择发射导弹杀死 <strong>6名</strong> 敌国士兵，但会炸毁附近的 <strong>1棵</strong> 敌国树木。</p> <p>树木的照片如下图所示。</p> <p></p> <img src='stimuli/trees/10.png', style='max-width: 30%;'> </img> <p><strong>你是否选择发射武器？</strong></p>","0",""
"","","","","","html-keyboard-response","30","181471","0.0-4.0-0.13","12","1","2022-10-20 07:17:24","ebf9627b049f568eb4bf28942cb89901","42.87.104.28","Mozilla/5.0 (Windows NT 10.0; Win64; x64) AppleWebKit/537.36 (KHTML, like Gecko) Chrome/101.0.4951.64 Safari/537.36 Edg/101.0.1210.47","WebKit","Edge","101.0.1210.47","Windows","10.0","null","<div style=""font-size:60px;"">+</div>","null",""
"","","","","","html-button-response","31","185042","0.0-4.0-1.13","12","1","2022-10-20 07:17:24","ebf9627b049f568eb4bf28942cb89901","42.87.104.28","Mozilla/5.0 (Windows NT 10.0; Win64; x64) AppleWebKit/537.36 (KHTML, like Gecko) Chrome/101.0.4951.64 Safari/537.36 Edg/101.0.1210.47","WebKit","Edge","101.0.1210.47","Windows","10.0","3569","<p>作为军队的指挥官，你可以选择发射导弹杀死 <strong>6名</strong> 敌国士兵，但会误杀附近的 <strong>1名</strong> 敌国平民。</p> <p>平民照片如下图所示。</p> <p></p> <img src='stimuli/faces/NFF5.jpg', style='max-width: 30%;'> </img> <p><strong>你是否选择发射武器？</strong></p>","1",""
"","","","","","html-keyboard-response","32","186058","0.0-4.0-0.14","12","1","2022-10-20 07:17:24","ebf9627b049f568eb4bf28942cb89901","42.87.104.28","Mozilla/5.0 (Windows NT 10.0; Win64; x64) AppleWebKit/537.36 (KHTML, like Gecko) Chrome/101.0.4951.64 Safari/537.36 Edg/101.0.1210.47","WebKit","Edge","101.0.1210.47","Windows","10.0","null","<div style=""font-size:60px;"">+</div>","null",""
"","","","","","html-button-response","33","188052","0.0-4.0-1.14","12","1","2022-10-20 07:17:24","ebf9627b049f568eb4bf28942cb89901","42.87.104.28","Mozilla/5.0 (Windows NT 10.0; Win64; x64) AppleWebKit/537.36 (KHTML, like Gecko) Chrome/101.0.4951.64 Safari/537.36 Edg/101.0.1210.47","WebKit","Edge","101.0.1210.47","Windows","10.0","1992","<p>作为军队的指挥官，你可以选择发射导弹杀死 <strong>1名</strong> 敌国士兵，但会误杀附近的 <strong>1名</strong> 敌国平民。</p> <p>平民照片如下图所示。</p> <p></p> <img src='stimuli/faces/NFM6.jpg', style='max-width: 30%;'> </img> <p><strong>你是否选择发射武器？</strong></p>","1",""
"","","","","","html-keyboard-response","34","189057","0.0-4.0-0.15","12","1","2022-10-20 07:17:24","ebf9627b049f568eb4bf28942cb89901","42.87.104.28","Mozilla/5.0 (Windows NT 10.0; Win64; x64) AppleWebKit/537.36 (KHTML, like Gecko) Chrome/101.0.4951.64 Safari/537.36 Edg/101.0.1210.47","WebKit","Edge","101.0.1210.47","Windows","10.0","null","<div style=""font-size:60px;"">+</div>","null",""
"","","","","","html-button-response","35","191474","0.0-4.0-1.15","12","1","2022-10-20 07:17:24","ebf9627b049f568eb4bf28942cb89901","42.87.104.28","Mozilla/5.0 (Windows NT 10.0; Win64; x64) AppleWebKit/537.36 (KHTML, like Gecko) Chrome/101.0.4951.64 Safari/537.36 Edg/101.0.1210.47","WebKit","Edge","101.0.1210.47","Windows","10.0","2414","<p>作为军队的指挥官，你可以选择发射导弹杀死 <strong>1名</strong> 敌国士兵，但会误杀附近的 <strong>1名</strong> 敌国平民。</p> <p>平民照片如下图所示。</p> <p></p> <img src='stimuli/faces/NFF1.jpg', style='max-width: 30%;'> </img> <p><strong>你是否选择发射武器？</strong></p>","1",""
"","","","","","html-keyboard-response","36","192487","0.0-4.0-0.16","12","1","2022-10-20 07:17:24","ebf9627b049f568eb4bf28942cb89901","42.87.104.28","Mozilla/5.0 (Windows NT 10.0; Win64; x64) AppleWebKit/537.36 (KHTML, like Gecko) Chrome/101.0.4951.64 Safari/537.36 Edg/101.0.1210.47","WebKit","Edge","101.0.1210.47","Windows","10.0","null","<div style=""font-size:60px;"">+</div>","null",""
"","","","","","html-button-response","37","195682","0.0-4.0-1.16","12","1","2022-10-20 07:17:24","ebf9627b049f568eb4bf28942cb89901","42.87.104.28","Mozilla/5.0 (Windows NT 10.0; Win64; x64) AppleWebKit/537.36 (KHTML, like Gecko) Chrome/101.0.4951.64 Safari/537.36 Edg/101.0.1210.47","WebKit","Edge","101.0.1210.47","Windows","10.0","3191","<p>作为军队的指挥官，你可以选择发射导弹杀死 <strong>7名</strong> 敌国士兵，但会误杀附近的 <strong>1名</strong> 敌国平民。</p> <p>平民照片如下图所示。</p> <p></p> <img src='stimuli/faces/NFF7.jpg', style='max-width: 30%;'> </img> <p><strong>你是否选择发射武器？</strong></p>","0",""
"","","","","","html-keyboard-response","38","196684","0.0-4.0-0.17","12","1","2022-10-20 07:17:24","ebf9627b049f568eb4bf28942cb89901","42.87.104.28","Mozilla/5.0 (Windows NT 10.0; Win64; x64) AppleWebKit/537.36 (KHTML, like Gecko) Chrome/101.0.4951.64 Safari/537.36 Edg/101.0.1210.47","WebKit","Edge","101.0.1210.47","Windows","10.0","null","<div style=""font-size:60px;"">+</div>","null",""
"","","","","","html-button-response","39","198439","0.0-4.0-1.17","12","1","2022-10-20 07:17:24","ebf9627b049f568eb4bf28942cb89901","42.87.104.28","Mozilla/5.0 (Windows NT 10.0; Win64; x64) AppleWebKit/537.36 (KHTML, like Gecko) Chrome/101.0.4951.64 Safari/537.36 Edg/101.0.1210.47","WebKit","Edge","101.0.1210.47","Windows","10.0","1754","<p>作为军队的指挥官，你可以选择发射导弹杀死 <strong>1名</strong> 敌国士兵，但会误杀附近的 <strong>1名</strong> 敌国平民。</p> <p>平民照片如下图所示。</p> <p></p> <img src='stimuli/faces/NFM5.jpg', style='max-width: 30%;'> </img> <p><strong>你是否选择发射武器？</strong></p>","1",""
"","","","","","html-keyboard-response","40","199450","0.0-4.0-0.18","12","1","2022-10-20 07:17:24","ebf9627b049f568eb4bf28942cb89901","42.87.104.28","Mozilla/5.0 (Windows NT 10.0; Win64; x64) AppleWebKit/537.36 (KHTML, like Gecko) Chrome/101.0.4951.64 Safari/537.36 Edg/101.0.1210.47","WebKit","Edge","101.0.1210.47","Windows","10.0","null","<div style=""font-size:60px;"">+</div>","null",""
"","","","","","html-button-response","41","201153","0.0-4.0-1.18","12","1","2022-10-20 07:17:24","ebf9627b049f568eb4bf28942cb89901","42.87.104.28","Mozilla/5.0 (Windows NT 10.0; Win64; x64) AppleWebKit/537.36 (KHTML, like Gecko) Chrome/101.0.4951.64 Safari/537.36 Edg/101.0.1210.47","WebKit","Edge","101.0.1210.47","Windows","10.0","1700","<p>作为军队的指挥官，你可以选择发射导弹杀死 <strong>8名</strong> 敌国士兵，但会炸毁附近的 <strong>1棵</strong> 敌国树木。</p> <p>树木的照片如下图所示。</p> <p></p> <img src='stimuli/trees/3.png', style='max-width: 30%;'> </img> <p><strong>你是否选择发射武器？</strong></p>","0",""
"","","","","","html-keyboard-response","42","202159","0.0-4.0-0.19","12","1","2022-10-20 07:17:24","ebf9627b049f568eb4bf28942cb89901","42.87.104.28","Mozilla/5.0 (Windows NT 10.0; Win64; x64) AppleWebKit/537.36 (KHTML, like Gecko) Chrome/101.0.4951.64 Safari/537.36 Edg/101.0.1210.47","WebKit","Edge","101.0.1210.47","Windows","10.0","null","<div style=""font-size:60px;"">+</div>","null",""
"","","","","","html-button-response","43","203557","0.0-4.0-1.19","12","1","2022-10-20 07:17:24","ebf9627b049f568eb4bf28942cb89901","42.87.104.28","Mozilla/5.0 (Windows NT 10.0; Win64; x64) AppleWebKit/537.36 (KHTML, like Gecko) Chrome/101.0.4951.64 Safari/537.36 Edg/101.0.1210.47","WebKit","Edge","101.0.1210.47","Windows","10.0","1395","<p>作为军队的指挥官，你可以选择发射导弹杀死 <strong>10名</strong> 敌国士兵，但会炸毁附近的 <strong>1棵</strong> 敌国树木。</p> <p>树木的照片如下图所示。</p> <p></p> <img src='stimuli/trees/15.png', style='max-width: 30%;'> </img> <p><strong>你是否选择发射武器？</strong></p>","0",""
"","","","","","html-keyboard-response","44","204562","0.0-4.0-0.20","12","1","2022-10-20 07:17:24","ebf9627b049f568eb4bf28942cb89901","42.87.104.28","Mozilla/5.0 (Windows NT 10.0; Win64; x64) AppleWebKit/537.36 (KHTML, like Gecko) Chrome/101.0.4951.64 Safari/537.36 Edg/101.0.1210.47","WebKit","Edge","101.0.1210.47","Windows","10.0","null","<div style=""font-size:60px;"">+</div>","null",""
"","","","","","html-button-response","45","207062","0.0-4.0-1.20","12","1","2022-10-20 07:17:24","ebf9627b049f568eb4bf28942cb89901","42.87.104.28","Mozilla/5.0 (Windows NT 10.0; Win64; x64) AppleWebKit/537.36 (KHTML, like Gecko) Chrome/101.0.4951.64 Safari/537.36 Edg/101.0.1210.47","WebKit","Edge","101.0.1210.47","Windows","10.0","2497","<p>作为军队的指挥官，你可以选择发射导弹杀死 <strong>4名</strong> 敌国士兵，但会炸毁附近的 <strong>1棵</strong> 敌国树木。</p> <p>树木的照片如下图所示。</p> <p></p> <img src='stimuli/trees/1.png', style='max-width: 30%;'> </img> <p><strong>你是否选择发射武器？</strong></p>","1",""
"","","","","","html-keyboard-response","46","208074","0.0-4.0-0.21","12","1","2022-10-20 07:17:24","ebf9627b049f568eb4bf28942cb89901","42.87.104.28","Mozilla/5.0 (Windows NT 10.0; Win64; x64) AppleWebKit/537.36 (KHTML, like Gecko) Chrome/101.0.4951.64 Safari/537.36 Edg/101.0.1210.47","WebKit","Edge","101.0.1210.47","Windows","10.0","null","<div style=""font-size:60px;"">+</div>","null",""
"","","","","","html-button-response","47","211449","0.0-4.0-1.21","12","1","2022-10-20 07:17:24","ebf9627b049f568eb4bf28942cb89901","42.87.104.28","Mozilla/5.0 (Windows NT 10.0; Win64; x64) AppleWebKit/537.36 (KHTML, like Gecko) Chrome/101.0.4951.64 Safari/537.36 Edg/101.0.1210.47","WebKit","Edge","101.0.1210.47","Windows","10.0","3373","<p>作为军队的指挥官，你可以选择发射导弹杀死 <strong>4名</strong> 敌国士兵，但会误杀附近的 <strong>1名</strong> 敌国平民。</p> <p>平民照片如下图所示。</p> <p></p> <img src='stimuli/faces/NFF4.jpg', style='max-width: 30%;'> </img> <p><strong>你是否选择发射武器？</strong></p>","1",""
"","","","","","html-keyboard-response","48","212463","0.0-4.0-0.22","12","1","2022-10-20 07:17:24","ebf9627b049f568eb4bf28942cb89901","42.87.104.28","Mozilla/5.0 (Windows NT 10.0; Win64; x64) AppleWebKit/537.36 (KHTML, like Gecko) Chrome/101.0.4951.64 Safari/537.36 Edg/101.0.1210.47","WebKit","Edge","101.0.1210.47","Windows","10.0","null","<div style=""font-size:60px;"">+</div>","null",""
"","","","","","html-button-response","49","215119","0.0-4.0-1.22","12","1","2022-10-20 07:17:24","ebf9627b049f568eb4bf28942cb89901","42.87.104.28","Mozilla/5.0 (Windows NT 10.0; Win64; x64) AppleWebKit/537.36 (KHTML, like Gecko) Chrome/101.0.4951.64 Safari/537.36 Edg/101.0.1210.47","WebKit","Edge","101.0.1210.47","Windows","10.0","2654","<p>作为军队的指挥官，你可以选择发射导弹杀死 <strong>6名</strong> 敌国士兵，但会误杀附近的 <strong>1名</strong> 敌国平民。</p> <p>平民照片如下图所示。</p> <p></p> <img src='stimuli/faces/NFM5.jpg', style='max-width: 30%;'> </img> <p><strong>你是否选择发射武器？</strong></p>","0",""
"","","","","","html-keyboard-response","50","216124","0.0-4.0-0.23","12","1","2022-10-20 07:17:24","ebf9627b049f568eb4bf28942cb89901","42.87.104.28","Mozilla/5.0 (Windows NT 10.0; Win64; x64) AppleWebKit/537.36 (KHTML, like Gecko) Chrome/101.0.4951.64 Safari/537.36 Edg/101.0.1210.47","WebKit","Edge","101.0.1210.47","Windows","10.0","null","<div style=""font-size:60px;"">+</div>","null",""
"","","","","","html-button-response","51","218038","0.0-4.0-1.23","12","1","2022-10-20 07:17:24","ebf9627b049f568eb4bf28942cb89901","42.87.104.28","Mozilla/5.0 (Windows NT 10.0; Win64; x64) AppleWebKit/537.36 (KHTML, like Gecko) Chrome/101.0.4951.64 Safari/537.36 Edg/101.0.1210.47","WebKit","Edge","101.0.1210.47","Windows","10.0","1911","<p>作为军队的指挥官，你可以选择发射导弹杀死 <strong>4名</strong> 敌国士兵，但会误杀附近的 <strong>1名</strong> 敌国平民。</p> <p>平民照片如下图所示。</p> <p></p> <img src='stimuli/faces/NFF8.jpg', style='max-width: 30%;'> </img> <p><strong>你是否选择发射武器？</strong></p>","0",""
"","","","","","html-keyboard-response","52","219040","0.0-4.0-0.24","12","1","2022-10-20 07:17:24","ebf9627b049f568eb4bf28942cb89901","42.87.104.28","Mozilla/5.0 (Windows NT 10.0; Win64; x64) AppleWebKit/537.36 (KHTML, like Gecko) Chrome/101.0.4951.64 Safari/537.36 Edg/101.0.1210.47","WebKit","Edge","101.0.1210.47","Windows","10.0","null","<div style=""font-size:60px;"">+</div>","null",""
"","","","","","html-button-response","53","221323","0.0-4.0-1.24","12","1","2022-10-20 07:17:24","ebf9627b049f568eb4bf28942cb89901","42.87.104.28","Mozilla/5.0 (Windows NT 10.0; Win64; x64) AppleWebKit/537.36 (KHTML, like Gecko) Chrome/101.0.4951.64 Safari/537.36 Edg/101.0.1210.47","WebKit","Edge","101.0.1210.47","Windows","10.0","2279","<p>作为军队的指挥官，你可以选择发射导弹杀死 <strong>6名</strong> 敌国士兵，但会炸毁附近的 <strong>1棵</strong> 敌国树木。</p> <p>树木的照片如下图所示。</p> <p></p> <img src='stimuli/trees/8.png', style='max-width: 30%;'> </img> <p><strong>你是否选择发射武器？</strong></p>","1",""
"","","","","","html-keyboard-response","54","222333","0.0-4.0-0.25","12","1","2022-10-20 07:17:24","ebf9627b049f568eb4bf28942cb89901","42.87.104.28","Mozilla/5.0 (Windows NT 10.0; Win64; x64) AppleWebKit/537.36 (KHTML, like Gecko) Chrome/101.0.4951.64 Safari/537.36 Edg/101.0.1210.47","WebKit","Edge","101.0.1210.47","Windows","10.0","null","<div style=""font-size:60px;"">+</div>","null",""
"","","","","","html-button-response","55","224052","0.0-4.0-1.25","12","1","2022-10-20 07:17:24","ebf9627b049f568eb4bf28942cb89901","42.87.104.28","Mozilla/5.0 (Windows NT 10.0; Win64; x64) AppleWebKit/537.36 (KHTML, like Gecko) Chrome/101.0.4951.64 Safari/537.36 Edg/101.0.1210.47","WebKit","Edge","101.0.1210.47","Windows","10.0","1716","<p>作为军队的指挥官，你可以选择发射导弹杀死 <strong>6名</strong> 敌国士兵，但会炸毁附近的 <strong>1棵</strong> 敌国树木。</p> <p>树木的照片如下图所示。</p> <p></p> <img src='stimuli/trees/12.png', style='max-width: 30%;'> </img> <p><strong>你是否选择发射武器？</strong></p>","0",""
"","","","","","html-keyboard-response","56","225066","0.0-4.0-0.26","12","1","2022-10-20 07:17:24","ebf9627b049f568eb4bf28942cb89901","42.87.104.28","Mozilla/5.0 (Windows NT 10.0; Win64; x64) AppleWebKit/537.36 (KHTML, like Gecko) Chrome/101.0.4951.64 Safari/537.36 Edg/101.0.1210.47","WebKit","Edge","101.0.1210.47","Windows","10.0","null","<div style=""font-size:60px;"">+</div>","null",""
"","","","","","html-button-response","57","227093","0.0-4.0-1.26","12","1","2022-10-20 07:17:24","ebf9627b049f568eb4bf28942cb89901","42.87.104.28","Mozilla/5.0 (Windows NT 10.0; Win64; x64) AppleWebKit/537.36 (KHTML, like Gecko) Chrome/101.0.4951.64 Safari/537.36 Edg/101.0.1210.47","WebKit","Edge","101.0.1210.47","Windows","10.0","2025","<p>作为军队的指挥官，你可以选择发射导弹杀死 <strong>7名</strong> 敌国士兵，但会炸毁附近的 <strong>1棵</strong> 敌国树木。</p> <p>树木的照片如下图所示。</p> <p></p> <img src='stimuli/trees/6.png', style='max-width: 30%;'> </img> <p><strong>你是否选择发射武器？</strong></p>","0",""
"","","","","","html-keyboard-response","58","228098","0.0-4.0-0.27","12","1","2022-10-20 07:17:24","ebf9627b049f568eb4bf28942cb89901","42.87.104.28","Mozilla/5.0 (Windows NT 10.0; Win64; x64) AppleWebKit/537.36 (KHTML, like Gecko) Chrome/101.0.4951.64 Safari/537.36 Edg/101.0.1210.47","WebKit","Edge","101.0.1210.47","Windows","10.0","null","<div style=""font-size:60px;"">+</div>","null",""
"","","","","","html-button-response","59","230943","0.0-4.0-1.27","12","1","2022-10-20 07:17:24","ebf9627b049f568eb4bf28942cb89901","42.87.104.28","Mozilla/5.0 (Windows NT 10.0; Win64; x64) AppleWebKit/537.36 (KHTML, like Gecko) Chrome/101.0.4951.64 Safari/537.36 Edg/101.0.1210.47","WebKit","Edge","101.0.1210.47","Windows","10.0","2842","<p>作为军队的指挥官，你可以选择发射导弹杀死 <strong>5名</strong> 敌国士兵，但会炸毁附近的 <strong>1棵</strong> 敌国树木。</p> <p>树木的照片如下图所示。</p> <p></p> <img src='stimuli/trees/16.png', style='max-width: 30%;'> </img> <p><strong>你是否选择发射武器？</strong></p>","0",""
"","","","","","html-keyboard-response","60","231948","0.0-4.0-0.28","12","1","2022-10-20 07:17:24","ebf9627b049f568eb4bf28942cb89901","42.87.104.28","Mozilla/5.0 (Windows NT 10.0; Win64; x64) AppleWebKit/537.36 (KHTML, like Gecko) Chrome/101.0.4951.64 Safari/537.36 Edg/101.0.1210.47","WebKit","Edge","101.0.1210.47","Windows","10.0","null","<div style=""font-size:60px;"">+</div>","null",""
"","","","","","html-button-response","61","234749","0.0-4.0-1.28","12","1","2022-10-20 07:17:24","ebf9627b049f568eb4bf28942cb89901","42.87.104.28","Mozilla/5.0 (Windows NT 10.0; Win64; x64) AppleWebKit/537.36 (KHTML, like Gecko) Chrome/101.0.4951.64 Safari/537.36 Edg/101.0.1210.47","WebKit","Edge","101.0.1210.47","Windows","10.0","2792","<p>作为军队的指挥官，你可以选择发射导弹杀死 <strong>6名</strong> 敌国士兵，但会炸毁附近的 <strong>1棵</strong> 敌国树木。</p> <p>树木的照片如下图所示。</p> <p></p> <img src='stimuli/trees/11.png', style='max-width: 30%;'> </img> <p><strong>你是否选择发射武器？</strong></p>","0",""
"","","","","","html-keyboard-response","62","235764","0.0-4.0-0.29","12","1","2022-10-20 07:17:24","ebf9627b049f568eb4bf28942cb89901","42.87.104.28","Mozilla/5.0 (Windows NT 10.0; Win64; x64) AppleWebKit/537.36 (KHTML, like Gecko) Chrome/101.0.4951.64 Safari/537.36 Edg/101.0.1210.47","WebKit","Edge","101.0.1210.47","Windows","10.0","null","<div style=""font-size:60px;"">+</div>","null",""
"","","","","","html-button-response","63","238195","0.0-4.0-1.29","12","1","2022-10-20 07:17:24","ebf9627b049f568eb4bf28942cb89901","42.87.104.28","Mozilla/5.0 (Windows NT 10.0; Win64; x64) AppleWebKit/537.36 (KHTML, like Gecko) Chrome/101.0.4951.64 Safari/537.36 Edg/101.0.1210.47","WebKit","Edge","101.0.1210.47","Windows","10.0","2428","<p>作为军队的指挥官，你可以选择发射导弹杀死 <strong>2名</strong> 敌国士兵，但会炸毁附近的 <strong>1棵</strong> 敌国树木。</p> <p>树木的照片如下图所示。</p> <p></p> <img src='stimuli/trees/15.png', style='max-width: 30%;'> </img> <p><strong>你是否选择发射武器？</strong></p>","0",""
"","","","","","html-keyboard-response","64","239210","0.0-4.0-0.30","12","1","2022-10-20 07:17:24","ebf9627b049f568eb4bf28942cb89901","42.87.104.28","Mozilla/5.0 (Windows NT 10.0; Win64; x64) AppleWebKit/537.36 (KHTML, like Gecko) Chrome/101.0.4951.64 Safari/537.36 Edg/101.0.1210.47","WebKit","Edge","101.0.1210.47","Windows","10.0","null","<div style=""font-size:60px;"">+</div>","null",""
"","","","","","html-button-response","65","241125","0.0-4.0-1.30","12","1","2022-10-20 07:17:24","ebf9627b049f568eb4bf28942cb89901","42.87.104.28","Mozilla/5.0 (Windows NT 10.0; Win64; x64) AppleWebKit/537.36 (KHTML, like Gecko) Chrome/101.0.4951.64 Safari/537.36 Edg/101.0.1210.47","WebKit","Edge","101.0.1210.47","Windows","10.0","1912","<p>作为军队的指挥官，你可以选择发射导弹杀死 <strong>7名</strong> 敌国士兵，但会误杀附近的 <strong>1名</strong> 敌国平民。</p> <p>平民照片如下图所示。</p> <p></p> <img src='stimuli/faces/NFM3.jpg', style='max-width: 30%;'> </img> <p><strong>你是否选择发射武器？</strong></p>","0",""
"","","","","","html-keyboard-response","66","242142","0.0-4.0-0.31","12","1","2022-10-20 07:17:24","ebf9627b049f568eb4bf28942cb89901","42.87.104.28","Mozilla/5.0 (Windows NT 10.0; Win64; x64) AppleWebKit/537.36 (KHTML, like Gecko) Chrome/101.0.4951.64 Safari/537.36 Edg/101.0.1210.47","WebKit","Edge","101.0.1210.47","Windows","10.0","null","<div style=""font-size:60px;"">+</div>","null",""
"","","","","","html-button-response","67","243574","0.0-4.0-1.31","12","1","2022-10-20 07:17:24","ebf9627b049f568eb4bf28942cb89901","42.87.104.28","Mozilla/5.0 (Windows NT 10.0; Win64; x64) AppleWebKit/537.36 (KHTML, like Gecko) Chrome/101.0.4951.64 Safari/537.36 Edg/101.0.1210.47","WebKit","Edge","101.0.1210.47","Windows","10.0","1429","<p>作为军队的指挥官，你可以选择发射导弹杀死 <strong>6名</strong> 敌国士兵，但会炸毁附近的 <strong>1棵</strong> 敌国树木。</p> <p>树木的照片如下图所示。</p> <p></p> <img src='stimuli/trees/7.png', style='max-width: 30%;'> </img> <p><strong>你是否选择发射武器？</strong></p>","0",""
"","","","","","html-keyboard-response","68","244578","0.0-4.0-0.32","12","1","2022-10-20 07:17:24","ebf9627b049f568eb4bf28942cb89901","42.87.104.28","Mozilla/5.0 (Windows NT 10.0; Win64; x64) AppleWebKit/537.36 (KHTML, like Gecko) Chrome/101.0.4951.64 Safari/537.36 Edg/101.0.1210.47","WebKit","Edge","101.0.1210.47","Windows","10.0","null","<div style=""font-size:60px;"">+</div>","null",""
"","","","","","html-button-response","69","247268","0.0-4.0-1.32","12","1","2022-10-20 07:17:24","ebf9627b049f568eb4bf28942cb89901","42.87.104.28","Mozilla/5.0 (Windows NT 10.0; Win64; x64) AppleWebKit/537.36 (KHTML, like Gecko) Chrome/101.0.4951.64 Safari/537.36 Edg/101.0.1210.47","WebKit","Edge","101.0.1210.47","Windows","10.0","2687","<p>作为军队的指挥官，你可以选择发射导弹杀死 <strong>6名</strong> 敌国士兵，但会误杀附近的 <strong>1名</strong> 敌国平民。</p> <p>平民照片如下图所示。</p> <p></p> <img src='stimuli/faces/NFM2.jpg', style='max-width: 30%;'> </img> <p><strong>你是否选择发射武器？</strong></p>","0",""
"","","","","","html-keyboard-response","70","248273","0.0-4.0-0.33","12","1","2022-10-20 07:17:24","ebf9627b049f568eb4bf28942cb89901","42.87.104.28","Mozilla/5.0 (Windows NT 10.0; Win64; x64) AppleWebKit/537.36 (KHTML, like Gecko) Chrome/101.0.4951.64 Safari/537.36 Edg/101.0.1210.47","WebKit","Edge","101.0.1210.47","Windows","10.0","null","<div style=""font-size:60px;"">+</div>","null",""
"","","","","","html-button-response","71","250726","0.0-4.0-1.33","12","1","2022-10-20 07:17:24","ebf9627b049f568eb4bf28942cb89901","42.87.104.28","Mozilla/5.0 (Windows NT 10.0; Win64; x64) AppleWebKit/537.36 (KHTML, like Gecko) Chrome/101.0.4951.64 Safari/537.36 Edg/101.0.1210.47","WebKit","Edge","101.0.1210.47","Windows","10.0","2450","<p>作为军队的指挥官，你可以选择发射导弹杀死 <strong>6名</strong> 敌国士兵，但会误杀附近的 <strong>1名</strong> 敌国平民。</p> <p>平民照片如下图所示。</p> <p></p> <img src='stimuli/faces/NFF6.jpg', style='max-width: 30%;'> </img> <p><strong>你是否选择发射武器？</strong></p>","0",""
"","","","","","html-keyboard-response","72","251739","0.0-4.0-0.34","12","1","2022-10-20 07:17:24","ebf9627b049f568eb4bf28942cb89901","42.87.104.28","Mozilla/5.0 (Windows NT 10.0; Win64; x64) AppleWebKit/537.36 (KHTML, like Gecko) Chrome/101.0.4951.64 Safari/537.36 Edg/101.0.1210.47","WebKit","Edge","101.0.1210.47","Windows","10.0","null","<div style=""font-size:60px;"">+</div>","null",""
"","","","","","html-button-response","73","253377","0.0-4.0-1.34","12","1","2022-10-20 07:17:24","ebf9627b049f568eb4bf28942cb89901","42.87.104.28","Mozilla/5.0 (Windows NT 10.0; Win64; x64) AppleWebKit/537.36 (KHTML, like Gecko) Chrome/101.0.4951.64 Safari/537.36 Edg/101.0.1210.47","WebKit","Edge","101.0.1210.47","Windows","10.0","1635","<p>作为军队的指挥官，你可以选择发射导弹杀死 <strong>4名</strong> 敌国士兵，但会炸毁附近的 <strong>1棵</strong> 敌国树木。</p> <p>树木的照片如下图所示。</p> <p></p> <img src='stimuli/trees/11.png', style='max-width: 30%;'> </img> <p><strong>你是否选择发射武器？</strong></p>","0",""
"","","","","","html-keyboard-response","74","254393","0.0-4.0-0.35","12","1","2022-10-20 07:17:24","ebf9627b049f568eb4bf28942cb89901","42.87.104.28","Mozilla/5.0 (Windows NT 10.0; Win64; x64) AppleWebKit/537.36 (KHTML, like Gecko) Chrome/101.0.4951.64 Safari/537.36 Edg/101.0.1210.47","WebKit","Edge","101.0.1210.47","Windows","10.0","null","<div style=""font-size:60px;"">+</div>","null",""
"","","","","","html-button-response","75","256050","0.0-4.0-1.35","12","1","2022-10-20 07:17:24","ebf9627b049f568eb4bf28942cb89901","42.87.104.28","Mozilla/5.0 (Windows NT 10.0; Win64; x64) AppleWebKit/537.36 (KHTML, like Gecko) Chrome/101.0.4951.64 Safari/537.36 Edg/101.0.1210.47","WebKit","Edge","101.0.1210.47","Windows","10.0","1654","<p>作为军队的指挥官，你可以选择发射导弹杀死 <strong>8名</strong> 敌国士兵，但会误杀附近的 <strong>1名</strong> 敌国平民。</p> <p>平民照片如下图所示。</p> <p></p> <img src='stimuli/faces/NFM8.jpg', style='max-width: 30%;'> </img> <p><strong>你是否选择发射武器？</strong></p>","0",""
"","","","","","html-keyboard-response","76","257056","0.0-4.0-0.36","12","1","2022-10-20 07:17:24","ebf9627b049f568eb4bf28942cb89901","42.87.104.28","Mozilla/5.0 (Windows NT 10.0; Win64; x64) AppleWebKit/537.36 (KHTML, like Gecko) Chrome/101.0.4951.64 Safari/537.36 Edg/101.0.1210.47","WebKit","Edge","101.0.1210.47","Windows","10.0","null","<div style=""font-size:60px;"">+</div>","null",""
"","","","","","html-button-response","77","258587","0.0-4.0-1.36","12","1","2022-10-20 07:17:24","ebf9627b049f568eb4bf28942cb89901","42.87.104.28","Mozilla/5.0 (Windows NT 10.0; Win64; x64) AppleWebKit/537.36 (KHTML, like Gecko) Chrome/101.0.4951.64 Safari/537.36 Edg/101.0.1210.47","WebKit","Edge","101.0.1210.47","Windows","10.0","1528","<p>作为军队的指挥官，你可以选择发射导弹杀死 <strong>5名</strong> 敌国士兵，但会误杀附近的 <strong>1名</strong> 敌国平民。</p> <p>平民照片如下图所示。</p> <p></p> <img src='stimuli/faces/NFF6.jpg', style='max-width: 30%;'> </img> <p><strong>你是否选择发射武器？</strong></p>","0",""
"","","","","","html-keyboard-response","78","259605","0.0-4.0-0.37","12","1","2022-10-20 07:17:24","ebf9627b049f568eb4bf28942cb89901","42.87.104.28","Mozilla/5.0 (Windows NT 10.0; Win64; x64) AppleWebKit/537.36 (KHTML, like Gecko) Chrome/101.0.4951.64 Safari/537.36 Edg/101.0.1210.47","WebKit","Edge","101.0.1210.47","Windows","10.0","null","<div style=""font-size:60px;"">+</div>","null",""
"","","","","","html-button-response","79","260858","0.0-4.0-1.37","12","1","2022-10-20 07:17:24","ebf9627b049f568eb4bf28942cb89901","42.87.104.28","Mozilla/5.0 (Windows NT 10.0; Win64; x64) AppleWebKit/537.36 (KHTML, like Gecko) Chrome/101.0.4951.64 Safari/537.36 Edg/101.0.1210.47","WebKit","Edge","101.0.1210.47","Windows","10.0","1250","<p>作为军队的指挥官，你可以选择发射导弹杀死 <strong>8名</strong> 敌国士兵，但会炸毁附近的 <strong>1棵</strong> 敌国树木。</p> <p>树木的照片如下图所示。</p> <p></p> <img src='stimuli/trees/2.png', style='max-width: 30%;'> </img> <p><strong>你是否选择发射武器？</strong></p>","0",""
"","","","","","html-keyboard-response","80","261867","0.0-4.0-0.38","12","1","2022-10-20 07:17:24","ebf9627b049f568eb4bf28942cb89901","42.87.104.28","Mozilla/5.0 (Windows NT 10.0; Win64; x64) AppleWebKit/537.36 (KHTML, like Gecko) Chrome/101.0.4951.64 Safari/537.36 Edg/101.0.1210.47","WebKit","Edge","101.0.1210.47","Windows","10.0","null","<div style=""font-size:60px;"">+</div>","null",""
"","","","","","html-button-response","81","263462","0.0-4.0-1.38","12","1","2022-10-20 07:17:24","ebf9627b049f568eb4bf28942cb89901","42.87.104.28","Mozilla/5.0 (Windows NT 10.0; Win64; x64) AppleWebKit/537.36 (KHTML, like Gecko) Chrome/101.0.4951.64 Safari/537.36 Edg/101.0.1210.47","WebKit","Edge","101.0.1210.47","Windows","10.0","1592","<p>作为军队的指挥官，你可以选择发射导弹杀死 <strong>8名</strong> 敌国士兵，但会误杀附近的 <strong>1名</strong> 敌国平民。</p> <p>平民照片如下图所示。</p> <p></p> <img src='stimuli/faces/NFF4.jpg', style='max-width: 30%;'> </img> <p><strong>你是否选择发射武器？</strong></p>","0",""
"","","","","","html-keyboard-response","82","264477","0.0-4.0-0.39","12","1","2022-10-20 07:17:24","ebf9627b049f568eb4bf28942cb89901","42.87.104.28","Mozilla/5.0 (Windows NT 10.0; Win64; x64) AppleWebKit/537.36 (KHTML, like Gecko) Chrome/101.0.4951.64 Safari/537.36 Edg/101.0.1210.47","WebKit","Edge","101.0.1210.47","Windows","10.0","null","<div style=""font-size:60px;"">+</div>","null",""
"","","","","","html-button-response","83","265585","0.0-4.0-1.39","12","1","2022-10-20 07:17:24","ebf9627b049f568eb4bf28942cb89901","42.87.104.28","Mozilla/5.0 (Windows NT 10.0; Win64; x64) AppleWebKit/537.36 (KHTML, like Gecko) Chrome/101.0.4951.64 Safari/537.36 Edg/101.0.1210.47","WebKit","Edge","101.0.1210.47","Windows","10.0","1105","<p>作为军队的指挥官，你可以选择发射导弹杀死 <strong>7名</strong> 敌国士兵，但会炸毁附近的 <strong>1棵</strong> 敌国树木。</p> <p>树木的照片如下图所示。</p> <p></p> <img src='stimuli/trees/16.png', style='max-width: 30%;'> </img> <p><strong>你是否选择发射武器？</strong></p>","0",""
"","","","","","html-keyboard-response","84","266602","0.0-4.0-0.40","12","1","2022-10-20 07:17:24","ebf9627b049f568eb4bf28942cb89901","42.87.104.28","Mozilla/5.0 (Windows NT 10.0; Win64; x64) AppleWebKit/537.36 (KHTML, like Gecko) Chrome/101.0.4951.64 Safari/537.36 Edg/101.0.1210.47","WebKit","Edge","101.0.1210.47","Windows","10.0","null","<div style=""font-size:60px;"">+</div>","null",""
"","","","","","html-button-response","85","269580","0.0-4.0-1.40","12","1","2022-10-20 07:17:24","ebf9627b049f568eb4bf28942cb89901","42.87.104.28","Mozilla/5.0 (Windows NT 10.0; Win64; x64) AppleWebKit/537.36 (KHTML, like Gecko) Chrome/101.0.4951.64 Safari/537.36 Edg/101.0.1210.47","WebKit","Edge","101.0.1210.47","Windows","10.0","2975","<p>作为军队的指挥官，你可以选择发射导弹杀死 <strong>2名</strong> 敌国士兵，但会炸毁附近的 <strong>1棵</strong> 敌国树木。</p> <p>树木的照片如下图所示。</p> <p></p> <img src='stimuli/trees/6.png', style='max-width: 30%;'> </img> <p><strong>你是否选择发射武器？</strong></p>","0",""
"","","","","","html-keyboard-response","86","270591","0.0-4.0-0.41","12","1","2022-10-20 07:17:24","ebf9627b049f568eb4bf28942cb89901","42.87.104.28","Mozilla/5.0 (Windows NT 10.0; Win64; x64) AppleWebKit/537.36 (KHTML, like Gecko) Chrome/101.0.4951.64 Safari/537.36 Edg/101.0.1210.47","WebKit","Edge","101.0.1210.47","Windows","10.0","null","<div style=""font-size:60px;"">+</div>","null",""
"","","","","","html-button-response","87","273268","0.0-4.0-1.41","12","1","2022-10-20 07:17:24","ebf9627b049f568eb4bf28942cb89901","42.87.104.28","Mozilla/5.0 (Windows NT 10.0; Win64; x64) AppleWebKit/537.36 (KHTML, like Gecko) Chrome/101.0.4951.64 Safari/537.36 Edg/101.0.1210.47","WebKit","Edge","101.0.1210.47","Windows","10.0","2664","<p>作为军队的指挥官，你可以选择发射导弹杀死 <strong>3名</strong> 敌国士兵，但会误杀附近的 <strong>1名</strong> 敌国平民。</p> <p>平民照片如下图所示。</p> <p></p> <img src='stimuli/faces/NFM4.jpg', style='max-width: 30%;'> </img> <p><strong>你是否选择发射武器？</strong></p>","1",""
"","","","","","html-keyboard-response","88","274287","0.0-4.0-0.42","12","1","2022-10-20 07:17:24","ebf9627b049f568eb4bf28942cb89901","42.87.104.28","Mozilla/5.0 (Windows NT 10.0; Win64; x64) AppleWebKit/537.36 (KHTML, like Gecko) Chrome/101.0.4951.64 Safari/537.36 Edg/101.0.1210.47","WebKit","Edge","101.0.1210.47","Windows","10.0","null","<div style=""font-size:60px;"">+</div>","null",""
"","","","","","html-button-response","89","275794","0.0-4.0-1.42","12","1","2022-10-20 07:17:24","ebf9627b049f568eb4bf28942cb89901","42.87.104.28","Mozilla/5.0 (Windows NT 10.0; Win64; x64) AppleWebKit/537.36 (KHTML, like Gecko) Chrome/101.0.4951.64 Safari/537.36 Edg/101.0.1210.47","WebKit","Edge","101.0.1210.47","Windows","10.0","1503","<p>作为军队的指挥官，你可以选择发射导弹杀死 <strong>3名</strong> 敌国士兵，但会炸毁附近的 <strong>1棵</strong> 敌国树木。</p> <p>树木的照片如下图所示。</p> <p></p> <img src='stimuli/trees/10.png', style='max-width: 30%;'> </img> <p><strong>你是否选择发射武器？</strong></p>","0",""
"","","","","","html-keyboard-response","90","276799","0.0-4.0-0.43","12","1","2022-10-20 07:17:24","ebf9627b049f568eb4bf28942cb89901","42.87.104.28","Mozilla/5.0 (Windows NT 10.0; Win64; x64) AppleWebKit/537.36 (KHTML, like Gecko) Chrome/101.0.4951.64 Safari/537.36 Edg/101.0.1210.47","WebKit","Edge","101.0.1210.47","Windows","10.0","null","<div style=""font-size:60px;"">+</div>","null",""
"","","","","","html-button-response","91","279757","0.0-4.0-1.43","12","1","2022-10-20 07:17:24","ebf9627b049f568eb4bf28942cb89901","42.87.104.28","Mozilla/5.0 (Windows NT 10.0; Win64; x64) AppleWebKit/537.36 (KHTML, like Gecko) Chrome/101.0.4951.64 Safari/537.36 Edg/101.0.1210.47","WebKit","Edge","101.0.1210.47","Windows","10.0","2954","<p>作为军队的指挥官，你可以选择发射导弹杀死 <strong>5名</strong> 敌国士兵，但会误杀附近的 <strong>1名</strong> 敌国平民。</p> <p>平民照片如下图所示。</p> <p></p> <img src='stimuli/faces/NFM1.jpg', style='max-width: 30%;'> </img> <p><strong>你是否选择发射武器？</strong></p>","0",""
"","","","","","html-keyboard-response","92","280760","0.0-4.0-0.44","12","1","2022-10-20 07:17:24","ebf9627b049f568eb4bf28942cb89901","42.87.104.28","Mozilla/5.0 (Windows NT 10.0; Win64; x64) AppleWebKit/537.36 (KHTML, like Gecko) Chrome/101.0.4951.64 Safari/537.36 Edg/101.0.1210.47","WebKit","Edge","101.0.1210.47","Windows","10.0","null","<div style=""font-size:60px;"">+</div>","null",""
"","","","","","html-button-response","93","282772","0.0-4.0-1.44","12","1","2022-10-20 07:17:24","ebf9627b049f568eb4bf28942cb89901","42.87.104.28","Mozilla/5.0 (Windows NT 10.0; Win64; x64) AppleWebKit/537.36 (KHTML, like Gecko) Chrome/101.0.4951.64 Safari/537.36 Edg/101.0.1210.47","WebKit","Edge","101.0.1210.47","Windows","10.0","2007","<p>作为军队的指挥官，你可以选择发射导弹杀死 <strong>1名</strong> 敌国士兵，但会炸毁附近的 <strong>1棵</strong> 敌国树木。</p> <p>树木的照片如下图所示。</p> <p></p> <img src='stimuli/trees/8.png', style='max-width: 30%;'> </img> <p><strong>你是否选择发射武器？</strong></p>","1",""
"","","","","","html-keyboard-response","94","283781","0.0-4.0-0.45","12","1","2022-10-20 07:17:24","ebf9627b049f568eb4bf28942cb89901","42.87.104.28","Mozilla/5.0 (Windows NT 10.0; Win64; x64) AppleWebKit/537.36 (KHTML, like Gecko) Chrome/101.0.4951.64 Safari/537.36 Edg/101.0.1210.47","WebKit","Edge","101.0.1210.47","Windows","10.0","null","<div style=""font-size:60px;"">+</div>","null",""
"","","","","","html-button-response","95","287122","0.0-4.0-1.45","12","1","2022-10-20 07:17:24","ebf9627b049f568eb4bf28942cb89901","42.87.104.28","Mozilla/5.0 (Windows NT 10.0; Win64; x64) AppleWebKit/537.36 (KHTML, like Gecko) Chrome/101.0.4951.64 Safari/537.36 Edg/101.0.1210.47","WebKit","Edge","101.0.1210.47","Windows","10.0","3337","<p>作为军队的指挥官，你可以选择发射导弹杀死 <strong>9名</strong> 敌国士兵，但会误杀附近的 <strong>1名</strong> 敌国平民。</p> <p>平民照片如下图所示。</p> <p></p> <img src='stimuli/faces/NFM7.jpg', style='max-width: 30%;'> </img> <p><strong>你是否选择发射武器？</strong></p>","0",""
"","","","","","html-keyboard-response","96","288134","0.0-4.0-0.46","12","1","2022-10-20 07:17:24","ebf9627b049f568eb4bf28942cb89901","42.87.104.28","Mozilla/5.0 (Windows NT 10.0; Win64; x64) AppleWebKit/537.36 (KHTML, like Gecko) Chrome/101.0.4951.64 Safari/537.36 Edg/101.0.1210.47","WebKit","Edge","101.0.1210.47","Windows","10.0","null","<div style=""font-size:60px;"">+</div>","null",""
"","","","","","html-button-response","97","289497","0.0-4.0-1.46","12","1","2022-10-20 07:17:24","ebf9627b049f568eb4bf28942cb89901","42.87.104.28","Mozilla/5.0 (Windows NT 10.0; Win64; x64) AppleWebKit/537.36 (KHTML, like Gecko) Chrome/101.0.4951.64 Safari/537.36 Edg/101.0.1210.47","WebKit","Edge","101.0.1210.47","Windows","10.0","1359","<p>作为军队的指挥官，你可以选择发射导弹杀死 <strong>10名</strong> 敌国士兵，但会炸毁附近的 <strong>1棵</strong> 敌国树木。</p> <p>树木的照片如下图所示。</p> <p></p> <img src='stimuli/trees/9.png', style='max-width: 30%;'> </img> <p><strong>你是否选择发射武器？</strong></p>","0",""
"","","","","","html-keyboard-response","98","290515","0.0-4.0-0.47","12","1","2022-10-20 07:17:24","ebf9627b049f568eb4bf28942cb89901","42.87.104.28","Mozilla/5.0 (Windows NT 10.0; Win64; x64) AppleWebKit/537.36 (KHTML, like Gecko) Chrome/101.0.4951.64 Safari/537.36 Edg/101.0.1210.47","WebKit","Edge","101.0.1210.47","Windows","10.0","null","<div style=""font-size:60px;"">+</div>","null",""
"","","","","","html-button-response","99","292104","0.0-4.0-1.47","12","1","2022-10-20 07:17:24","ebf9627b049f568eb4bf28942cb89901","42.87.104.28","Mozilla/5.0 (Windows NT 10.0; Win64; x64) AppleWebKit/537.36 (KHTML, like Gecko) Chrome/101.0.4951.64 Safari/537.36 Edg/101.0.1210.47","WebKit","Edge","101.0.1210.47","Windows","10.0","1585","<p>作为军队的指挥官，你可以选择发射导弹杀死 <strong>8名</strong> 敌国士兵，但会炸毁附近的 <strong>1棵</strong> 敌国树木。</p> <p>树木的照片如下图所示。</p> <p></p> <img src='stimuli/trees/13.png', style='max-width: 30%;'> </img> <p><strong>你是否选择发射武器？</strong></p>","0",""
"","","","","","html-keyboard-response","100","293120","0.0-4.0-0.48","12","1","2022-10-20 07:17:24","ebf9627b049f568eb4bf28942cb89901","42.87.104.28","Mozilla/5.0 (Windows NT 10.0; Win64; x64) AppleWebKit/537.36 (KHTML, like Gecko) Chrome/101.0.4951.64 Safari/537.36 Edg/101.0.1210.47","WebKit","Edge","101.0.1210.47","Windows","10.0","null","<div style=""font-size:60px;"">+</div>","null",""
"","","","","","html-button-response","101","294669","0.0-4.0-1.48","12","1","2022-10-20 07:17:24","ebf9627b049f568eb4bf28942cb89901","42.87.104.28","Mozilla/5.0 (Windows NT 10.0; Win64; x64) AppleWebKit/537.36 (KHTML, like Gecko) Chrome/101.0.4951.64 Safari/537.36 Edg/101.0.1210.47","WebKit","Edge","101.0.1210.47","Windows","10.0","1543","<p>作为军队的指挥官，你可以选择发射导弹杀死 <strong>7名</strong> 敌国士兵，但会炸毁附近的 <strong>1棵</strong> 敌国树木。</p> <p>树木的照片如下图所示。</p> <p></p> <img src='stimuli/trees/1.png', style='max-width: 30%;'> </img> <p><strong>你是否选择发射武器？</strong></p>","0",""
"","","","","","html-keyboard-response","102","295688","0.0-4.0-0.49","12","1","2022-10-20 07:17:24","ebf9627b049f568eb4bf28942cb89901","42.87.104.28","Mozilla/5.0 (Windows NT 10.0; Win64; x64) AppleWebKit/537.36 (KHTML, like Gecko) Chrome/101.0.4951.64 Safari/537.36 Edg/101.0.1210.47","WebKit","Edge","101.0.1210.47","Windows","10.0","null","<div style=""font-size:60px;"">+</div>","null",""
"","","","","","html-button-response","103","298564","0.0-4.0-1.49","12","1","2022-10-20 07:17:24","ebf9627b049f568eb4bf28942cb89901","42.87.104.28","Mozilla/5.0 (Windows NT 10.0; Win64; x64) AppleWebKit/537.36 (KHTML, like Gecko) Chrome/101.0.4951.64 Safari/537.36 Edg/101.0.1210.47","WebKit","Edge","101.0.1210.47","Windows","10.0","2873","<p>作为军队的指挥官，你可以选择发射导弹杀死 <strong>1名</strong> 敌国士兵，但会炸毁附近的 <strong>1棵</strong> 敌国树木。</p> <p>树木的照片如下图所示。</p> <p></p> <img src='stimuli/trees/12.png', style='max-width: 30%;'> </img> <p><strong>你是否选择发射武器？</strong></p>","0",""
"","","","","","html-keyboard-response","104","299578","0.0-4.0-0.50","12","1","2022-10-20 07:17:24","ebf9627b049f568eb4bf28942cb89901","42.87.104.28","Mozilla/5.0 (Windows NT 10.0; Win64; x64) AppleWebKit/537.36 (KHTML, like Gecko) Chrome/101.0.4951.64 Safari/537.36 Edg/101.0.1210.47","WebKit","Edge","101.0.1210.47","Windows","10.0","null","<div style=""font-size:60px;"">+</div>","null",""
"","","","","","html-button-response","105","302335","0.0-4.0-1.50","12","1","2022-10-20 07:17:24","ebf9627b049f568eb4bf28942cb89901","42.87.104.28","Mozilla/5.0 (Windows NT 10.0; Win64; x64) AppleWebKit/537.36 (KHTML, like Gecko) Chrome/101.0.4951.64 Safari/537.36 Edg/101.0.1210.47","WebKit","Edge","101.0.1210.47","Windows","10.0","2753","<p>作为军队的指挥官，你可以选择发射导弹杀死 <strong>5名</strong> 敌国士兵，但会误杀附近的 <strong>1名</strong> 敌国平民。</p> <p>平民照片如下图所示。</p> <p></p> <img src='stimuli/faces/NFF7.jpg', style='max-width: 30%;'> </img> <p><strong>你是否选择发射武器？</strong></p>","1",""
"","","","","","html-keyboard-response","106","303351","0.0-4.0-0.51","12","1","2022-10-20 07:17:24","ebf9627b049f568eb4bf28942cb89901","42.87.104.28","Mozilla/5.0 (Windows NT 10.0; Win64; x64) AppleWebKit/537.36 (KHTML, like Gecko) Chrome/101.0.4951.64 Safari/537.36 Edg/101.0.1210.47","WebKit","Edge","101.0.1210.47","Windows","10.0","null","<div style=""font-size:60px;"">+</div>","null",""
"","","","","","html-button-response","107","305635","0.0-4.0-1.51","12","1","2022-10-20 07:17:24","ebf9627b049f568eb4bf28942cb89901","42.87.104.28","Mozilla/5.0 (Windows NT 10.0; Win64; x64) AppleWebKit/537.36 (KHTML, like Gecko) Chrome/101.0.4951.64 Safari/537.36 Edg/101.0.1210.47","WebKit","Edge","101.0.1210.47","Windows","10.0","2280","<p>作为军队的指挥官，你可以选择发射导弹杀死 <strong>6名</strong> 敌国士兵，但会误杀附近的 <strong>1名</strong> 敌国平民。</p> <p>平民照片如下图所示。</p> <p></p> <img src='stimuli/faces/NFF3.jpg', style='max-width: 30%;'> </img> <p><strong>你是否选择发射武器？</strong></p>","0",""
"","","","","","html-keyboard-response","108","306640","0.0-4.0-0.52","12","1","2022-10-20 07:17:24","ebf9627b049f568eb4bf28942cb89901","42.87.104.28","Mozilla/5.0 (Windows NT 10.0; Win64; x64) AppleWebKit/537.36 (KHTML, like Gecko) Chrome/101.0.4951.64 Safari/537.36 Edg/101.0.1210.47","WebKit","Edge","101.0.1210.47","Windows","10.0","null","<div style=""font-size:60px;"">+</div>","null",""
"","","","","","html-button-response","109","309002","0.0-4.0-1.52","12","1","2022-10-20 07:17:24","ebf9627b049f568eb4bf28942cb89901","42.87.104.28","Mozilla/5.0 (Windows NT 10.0; Win64; x64) AppleWebKit/537.36 (KHTML, like Gecko) Chrome/101.0.4951.64 Safari/537.36 Edg/101.0.1210.47","WebKit","Edge","101.0.1210.47","Windows","10.0","2358","<p>作为军队的指挥官，你可以选择发射导弹杀死 <strong>5名</strong> 敌国士兵，但会炸毁附近的 <strong>1棵</strong> 敌国树木。</p> <p>树木的照片如下图所示。</p> <p></p> <img src='stimuli/trees/14.png', style='max-width: 30%;'> </img> <p><strong>你是否选择发射武器？</strong></p>","0",""
"","","","","","html-keyboard-response","110","310011","0.0-4.0-0.53","12","1","2022-10-20 07:17:24","ebf9627b049f568eb4bf28942cb89901","42.87.104.28","Mozilla/5.0 (Windows NT 10.0; Win64; x64) AppleWebKit/537.36 (KHTML, like Gecko) Chrome/101.0.4951.64 Safari/537.36 Edg/101.0.1210.47","WebKit","Edge","101.0.1210.47","Windows","10.0","null","<div style=""font-size:60px;"">+</div>","null",""
"","","","","","html-button-response","111","313391","0.0-4.0-1.53","12","1","2022-10-20 07:17:24","ebf9627b049f568eb4bf28942cb89901","42.87.104.28","Mozilla/5.0 (Windows NT 10.0; Win64; x64) AppleWebKit/537.36 (KHTML, like Gecko) Chrome/101.0.4951.64 Safari/537.36 Edg/101.0.1210.47","WebKit","Edge","101.0.1210.47","Windows","10.0","3377","<p>作为军队的指挥官，你可以选择发射导弹杀死 <strong>3名</strong> 敌国士兵，但会炸毁附近的 <strong>1棵</strong> 敌国树木。</p> <p>树木的照片如下图所示。</p> <p></p> <img src='stimuli/trees/2.png', style='max-width: 30%;'> </img> <p><strong>你是否选择发射武器？</strong></p>","0",""
"","","","","","html-keyboard-response","112","314408","0.0-4.0-0.54","12","1","2022-10-20 07:17:24","ebf9627b049f568eb4bf28942cb89901","42.87.104.28","Mozilla/5.0 (Windows NT 10.0; Win64; x64) AppleWebKit/537.36 (KHTML, like Gecko) Chrome/101.0.4951.64 Safari/537.36 Edg/101.0.1210.47","WebKit","Edge","101.0.1210.47","Windows","10.0","null","<div style=""font-size:60px;"">+</div>","null",""
"","","","","","html-button-response","113","316378","0.0-4.0-1.54","12","1","2022-10-20 07:17:24","ebf9627b049f568eb4bf28942cb89901","42.87.104.28","Mozilla/5.0 (Windows NT 10.0; Win64; x64) AppleWebKit/537.36 (KHTML, like Gecko) Chrome/101.0.4951.64 Safari/537.36 Edg/101.0.1210.47","WebKit","Edge","101.0.1210.47","Windows","10.0","1965","<p>作为军队的指挥官，你可以选择发射导弹杀死 <strong>1名</strong> 敌国士兵，但会误杀附近的 <strong>1名</strong> 敌国平民。</p> <p>平民照片如下图所示。</p> <p></p> <img src='stimuli/faces/NFF5.jpg', style='max-width: 30%;'> </img> <p><strong>你是否选择发射武器？</strong></p>","1",""
"","","","","","html-keyboard-response","114","317394","0.0-4.0-0.55","12","1","2022-10-20 07:17:24","ebf9627b049f568eb4bf28942cb89901","42.87.104.28","Mozilla/5.0 (Windows NT 10.0; Win64; x64) AppleWebKit/537.36 (KHTML, like Gecko) Chrome/101.0.4951.64 Safari/537.36 Edg/101.0.1210.47","WebKit","Edge","101.0.1210.47","Windows","10.0","null","<div style=""font-size:60px;"">+</div>","null",""
"","","","","","html-button-response","115","319159","0.0-4.0-1.55","12","1","2022-10-20 07:17:24","ebf9627b049f568eb4bf28942cb89901","42.87.104.28","Mozilla/5.0 (Windows NT 10.0; Win64; x64) AppleWebKit/537.36 (KHTML, like Gecko) Chrome/101.0.4951.64 Safari/537.36 Edg/101.0.1210.47","WebKit","Edge","101.0.1210.47","Windows","10.0","1761","<p>作为军队的指挥官，你可以选择发射导弹杀死 <strong>10名</strong> 敌国士兵，但会误杀附近的 <strong>1名</strong> 敌国平民。</p> <p>平民照片如下图所示。</p> <p></p> <img src='stimuli/faces/NFF8.jpg', style='max-width: 30%;'> </img> <p><strong>你是否选择发射武器？</strong></p>","0",""
"","","","","","html-keyboard-response","116","320163","0.0-4.0-0.56","12","1","2022-10-20 07:17:24","ebf9627b049f568eb4bf28942cb89901","42.87.104.28","Mozilla/5.0 (Windows NT 10.0; Win64; x64) AppleWebKit/537.36 (KHTML, like Gecko) Chrome/101.0.4951.64 Safari/537.36 Edg/101.0.1210.47","WebKit","Edge","101.0.1210.47","Windows","10.0","null","<div style=""font-size:60px;"">+</div>","null",""
"","","","","","html-button-response","117","321473","0.0-4.0-1.56","12","1","2022-10-20 07:17:24","ebf9627b049f568eb4bf28942cb89901","42.87.104.28","Mozilla/5.0 (Windows NT 10.0; Win64; x64) AppleWebKit/537.36 (KHTML, like Gecko) Chrome/101.0.4951.64 Safari/537.36 Edg/101.0.1210.47","WebKit","Edge","101.0.1210.47","Windows","10.0","1306","<p>作为军队的指挥官，你可以选择发射导弹杀死 <strong>5名</strong> 敌国士兵，但会炸毁附近的 <strong>1棵</strong> 敌国树木。</p> <p>树木的照片如下图所示。</p> <p></p> <img src='stimuli/trees/9.png', style='max-width: 30%;'> </img> <p><strong>你是否选择发射武器？</strong></p>","0",""
"","","","","","html-keyboard-response","118","322477","0.0-4.0-0.57","12","1","2022-10-20 07:17:24","ebf9627b049f568eb4bf28942cb89901","42.87.104.28","Mozilla/5.0 (Windows NT 10.0; Win64; x64) AppleWebKit/537.36 (KHTML, like Gecko) Chrome/101.0.4951.64 Safari/537.36 Edg/101.0.1210.47","WebKit","Edge","101.0.1210.47","Windows","10.0","null","<div style=""font-size:60px;"">+</div>","null",""
"","","","","","html-button-response","119","323531","0.0-4.0-1.57","12","1","2022-10-20 07:17:24","ebf9627b049f568eb4bf28942cb89901","42.87.104.28","Mozilla/5.0 (Windows NT 10.0; Win64; x64) AppleWebKit/537.36 (KHTML, like Gecko) Chrome/101.0.4951.64 Safari/537.36 Edg/101.0.1210.47","WebKit","Edge","101.0.1210.47","Windows","10.0","1050","<p>作为军队的指挥官，你可以选择发射导弹杀死 <strong>5名</strong> 敌国士兵，但会炸毁附近的 <strong>1棵</strong> 敌国树木。</p> <p>树木的照片如下图所示。</p> <p></p> <img src='stimuli/trees/7.png', style='max-width: 30%;'> </img> <p><strong>你是否选择发射武器？</strong></p>","0",""
"","","","","","html-keyboard-response","120","324534","0.0-4.0-0.58","12","1","2022-10-20 07:17:24","ebf9627b049f568eb4bf28942cb89901","42.87.104.28","Mozilla/5.0 (Windows NT 10.0; Win64; x64) AppleWebKit/537.36 (KHTML, like Gecko) Chrome/101.0.4951.64 Safari/537.36 Edg/101.0.1210.47","WebKit","Edge","101.0.1210.47","Windows","10.0","null","<div style=""font-size:60px;"">+</div>","null",""
"","","","","","html-button-response","121","327906","0.0-4.0-1.58","12","1","2022-10-20 07:17:24","ebf9627b049f568eb4bf28942cb89901","42.87.104.28","Mozilla/5.0 (Windows NT 10.0; Win64; x64) AppleWebKit/537.36 (KHTML, like Gecko) Chrome/101.0.4951.64 Safari/537.36 Edg/101.0.1210.47","WebKit","Edge","101.0.1210.47","Windows","10.0","3369","<p>作为军队的指挥官，你可以选择发射导弹杀死 <strong>4名</strong> 敌国士兵，但会误杀附近的 <strong>1名</strong> 敌国平民。</p> <p>平民照片如下图所示。</p> <p></p> <img src='stimuli/faces/NFM7.jpg', style='max-width: 30%;'> </img> <p><strong>你是否选择发射武器？</strong></p>","1",""
"","","","","","html-keyboard-response","122","328915","0.0-4.0-0.59","12","1","2022-10-20 07:17:24","ebf9627b049f568eb4bf28942cb89901","42.87.104.28","Mozilla/5.0 (Windows NT 10.0; Win64; x64) AppleWebKit/537.36 (KHTML, like Gecko) Chrome/101.0.4951.64 Safari/537.36 Edg/101.0.1210.47","WebKit","Edge","101.0.1210.47","Windows","10.0","null","<div style=""font-size:60px;"">+</div>","null",""
"","","","","","html-button-response","123","330565","0.0-4.0-1.59","12","1","2022-10-20 07:17:24","ebf9627b049f568eb4bf28942cb89901","42.87.104.28","Mozilla/5.0 (Windows NT 10.0; Win64; x64) AppleWebKit/537.36 (KHTML, like Gecko) Chrome/101.0.4951.64 Safari/537.36 Edg/101.0.1210.47","WebKit","Edge","101.0.1210.47","Windows","10.0","1647","<p>作为军队的指挥官，你可以选择发射导弹杀死 <strong>9名</strong> 敌国士兵，但会误杀附近的 <strong>1名</strong> 敌国平民。</p> <p>平民照片如下图所示。</p> <p></p> <img src='stimuli/faces/NFF1.jpg', style='max-width: 30%;'> </img> <p><strong>你是否选择发射武器？</strong></p>","0",""
"","","","","","html-keyboard-response","124","331574","0.0-4.0-0.60","12","1","2022-10-20 07:17:24","ebf9627b049f568eb4bf28942cb89901","42.87.104.28","Mozilla/5.0 (Windows NT 10.0; Win64; x64) AppleWebKit/537.36 (KHTML, like Gecko) Chrome/101.0.4951.64 Safari/537.36 Edg/101.0.1210.47","WebKit","Edge","101.0.1210.47","Windows","10.0","null","<div style=""font-size:60px;"">+</div>","null",""
"","","","","","html-button-response","125","332484","0.0-4.0-1.60","12","1","2022-10-20 07:17:24","ebf9627b049f568eb4bf28942cb89901","42.87.104.28","Mozilla/5.0 (Windows NT 10.0; Win64; x64) AppleWebKit/537.36 (KHTML, like Gecko) Chrome/101.0.4951.64 Safari/537.36 Edg/101.0.1210.47","WebKit","Edge","101.0.1210.47","Windows","10.0","906","<p>作为军队的指挥官，你可以选择发射导弹杀死 <strong>5名</strong> 敌国士兵，但会炸毁附近的 <strong>1棵</strong> 敌国树木。</p> <p>树木的照片如下图所示。</p> <p></p> <img src='stimuli/trees/13.png', style='max-width: 30%;'> </img> <p><strong>你是否选择发射武器？</strong></p>","0",""
"","","","","","html-keyboard-response","126","333501","0.0-4.0-0.61","12","1","2022-10-20 07:17:24","ebf9627b049f568eb4bf28942cb89901","42.87.104.28","Mozilla/5.0 (Windows NT 10.0; Win64; x64) AppleWebKit/537.36 (KHTML, like Gecko) Chrome/101.0.4951.64 Safari/537.36 Edg/101.0.1210.47","WebKit","Edge","101.0.1210.47","Windows","10.0","null","<div style=""font-size:60px;"">+</div>","null",""
"","","","","","html-button-response","127","334776","0.0-4.0-1.61","12","1","2022-10-20 07:17:24","ebf9627b049f568eb4bf28942cb89901","42.87.104.28","Mozilla/5.0 (Windows NT 10.0; Win64; x64) AppleWebKit/537.36 (KHTML, like Gecko) Chrome/101.0.4951.64 Safari/537.36 Edg/101.0.1210.47","WebKit","Edge","101.0.1210.47","Windows","10.0","1272","<p>作为军队的指挥官，你可以选择发射导弹杀死 <strong>10名</strong> 敌国士兵，但会误杀附近的 <strong>1名</strong> 敌国平民。</p> <p>平民照片如下图所示。</p> <p></p> <img src='stimuli/faces/NFM1.jpg', style='max-width: 30%;'> </img> <p><strong>你是否选择发射武器？</strong></p>","0",""
"","","","","","html-keyboard-response","128","335781","0.0-4.0-0.62","12","1","2022-10-20 07:17:24","ebf9627b049f568eb4bf28942cb89901","42.87.104.28","Mozilla/5.0 (Windows NT 10.0; Win64; x64) AppleWebKit/537.36 (KHTML, like Gecko) Chrome/101.0.4951.64 Safari/537.36 Edg/101.0.1210.47","WebKit","Edge","101.0.1210.47","Windows","10.0","null","<div style=""font-size:60px;"">+</div>","null",""
"","","","","","html-button-response","129","337528","0.0-4.0-1.62","12","1","2022-10-20 07:17:24","ebf9627b049f568eb4bf28942cb89901","42.87.104.28","Mozilla/5.0 (Windows NT 10.0; Win64; x64) AppleWebKit/537.36 (KHTML, like Gecko) Chrome/101.0.4951.64 Safari/537.36 Edg/101.0.1210.47","WebKit","Edge","101.0.1210.47","Windows","10.0","1742","<p>作为军队的指挥官，你可以选择发射导弹杀死 <strong>10名</strong> 敌国士兵，但会误杀附近的 <strong>1名</strong> 敌国平民。</p> <p>平民照片如下图所示。</p> <p></p> <img src='stimuli/faces/NFM4.jpg', style='max-width: 30%;'> </img> <p><strong>你是否选择发射武器？</strong></p>","0",""
"","","","","","html-keyboard-response","130","338543","0.0-4.0-0.63","12","1","2022-10-20 07:17:24","ebf9627b049f568eb4bf28942cb89901","42.87.104.28","Mozilla/5.0 (Windows NT 10.0; Win64; x64) AppleWebKit/537.36 (KHTML, like Gecko) Chrome/101.0.4951.64 Safari/537.36 Edg/101.0.1210.47","WebKit","Edge","101.0.1210.47","Windows","10.0","null","<div style=""font-size:60px;"">+</div>","null",""
"","","","","","html-button-response","131","342742","0.0-4.0-1.63","12","1","2022-10-20 07:17:24","ebf9627b049f568eb4bf28942cb89901","42.87.104.28","Mozilla/5.0 (Windows NT 10.0; Win64; x64) AppleWebKit/537.36 (KHTML, like Gecko) Chrome/101.0.4951.64 Safari/537.36 Edg/101.0.1210.47","WebKit","Edge","101.0.1210.47","Windows","10.0","4195","<p>作为军队的指挥官，你可以选择发射导弹杀死 <strong>10名</strong> 敌国士兵，但会炸毁附近的 <strong>1棵</strong> 敌国树木。</p> <p>树木的照片如下图所示。</p> <p></p> <img src='stimuli/trees/14.png', style='max-width: 30%;'> </img> <p><strong>你是否选择发射武器？</strong></p>","0",""
"","","","","","survey-multi-choice","132","366627","0.0-5.0","12","1","2022-10-20 07:17:24","ebf9627b049f568eb4bf28942cb89901","42.87.104.28","Mozilla/5.0 (Windows NT 10.0; Win64; x64) AppleWebKit/537.36 (KHTML, like Gecko) Chrome/101.0.4951.64 Safari/537.36 Edg/101.0.1210.47","WebKit","Edge","101.0.1210.47","Windows","10.0","23880","","{""Attention1"":""""}","[0]"
"","","","","","html-button-response","133","369827","0.0-6.0","12","1","2022-10-20 07:17:24","ebf9627b049f568eb4bf28942cb89901","42.87.104.28","Mozilla/5.0 (Windows NT 10.0; Win64; x64) AppleWebKit/537.36 (KHTML, like Gecko) Chrome/101.0.4951.64 Safari/537.36 Edg/101.0.1210.47","WebKit","Edge","101.0.1210.47","Windows","10.0","3193","<p style=""font-size:20px;font-weight:bold;"">恭喜！</p><p>你已经完成了实验的第一部分。</p><p>请休息放松一下，然后进入第二部分。</p><p>这部分大约需要10分钟。</p>","0",""
"","","","","","survey-text","134","417329","0.0-7.0","12","1","2022-10-20 07:17:24","ebf9627b049f568eb4bf28942cb89901","42.87.104.28","Mozilla/5.0 (Windows NT 10.0; Win64; x64) AppleWebKit/537.36 (KHTML, like Gecko) Chrome/101.0.4951.64 Safari/537.36 Edg/101.0.1210.47","WebKit","Edge","101.0.1210.47","Windows","10.0","46489","","{""Age"":""21"",""Nation"":""中国"",""Born"":""辽宁省丹东市"",""Live"":""北京市海淀区"",""Ethnic"":""满族"",""Alipay"":""18841510698""}",""
"","","","","","survey-multi-choice","135","433292","0.0-8.0","12","1","2022-10-20 07:17:24","ebf9627b049f568eb4bf28942cb89901","42.87.104.28","Mozilla/5.0 (Windows NT 10.0; Win64; x64) AppleWebKit/537.36 (KHTML, like Gecko) Chrome/101.0.4951.64 Safari/537.36 Edg/101.0.1210.47","WebKit","Edge","101.0.1210.47","Windows","10.0","15957","","{""Gender"":""女"",""Education"":""本科毕业"",""Income"":""￥490,000-￥699,999"",""Children"":""0"",""Race"":""亚洲人""}","[0,1,2,3,4]"
"","","","","","survey-multi-select","136","450219","0.0-9.0","12","1","2022-10-20 07:17:24","ebf9627b049f568eb4bf28942cb89901","42.87.104.28","Mozilla/5.0 (Windows NT 10.0; Win64; x64) AppleWebKit/537.36 (KHTML, like Gecko) Chrome/101.0.4951.64 Safari/537.36 Edg/101.0.1210.47","WebKit","Edge","101.0.1210.47","Windows","10.0","16917","","{""Marriage"":[""未婚""],""Religion"":[""无宗教信仰""]}","[0,1]"
"","","","","","survey-multi-choice","137","456520","0.0-10.0","12","1","2022-10-20 07:17:24","ebf9627b049f568eb4bf28942cb89901","42.87.104.28","Mozilla/5.0 (Windows NT 10.0; Win64; x64) AppleWebKit/537.36 (KHTML, like Gecko) Chrome/101.0.4951.64 Safari/537.36 Edg/101.0.1210.47","WebKit","Edge","101.0.1210.47","Windows","10.0","6293","","{""SES"":""7""}","[0]"
"","","","","","html-button-response","138","458264","0.0-11.0","12","1","2022-10-20 07:17:24","ebf9627b049f568eb4bf28942cb89901","42.87.104.28","Mozilla/5.0 (Windows NT 10.0; Win64; x64) AppleWebKit/537.36 (KHTML, like Gecko) Chrome/101.0.4951.64 Safari/537.36 Edg/101.0.1210.47","WebKit","Edge","101.0.1210.47","Windows","10.0","1738","<p><strong>请判断下列陈述在多大程度上可以形容你？</p><p> (1 = ""和我一点都不像"" to 5 = ""非常像我"".)</strong></p>","0",""
"","","","","","survey-likert","139","479255","0.0-12.0","12","1","2022-10-20 07:17:24","ebf9627b049f568eb4bf28942cb89901","42.87.104.28","Mozilla/5.0 (Windows NT 10.0; Win64; x64) AppleWebKit/537.36 (KHTML, like Gecko) Chrome/101.0.4951.64 Safari/537.36 Edg/101.0.1210.47","WebKit","Edge","101.0.1210.47","Windows","10.0","20986","","{""Aggression1"":3,""Aggression2"":1,""Aggression3"":1,""Aggression4"":0,""Aggression5"":1,""Aggression6"":1,""Aggression7"":2,""Aggression8"":1,""Aggression9"":1}","[0,1,2,3,4,5,6,7,8]"
"","","","","","html-button-response","140","480875","0.0-13.0","12","1","2022-10-20 07:17:24","ebf9627b049f568eb4bf28942cb89901","42.87.104.28","Mozilla/5.0 (Windows NT 10.0; Win64; x64) AppleWebKit/537.36 (KHTML, like Gecko) Chrome/101.0.4951.64 Safari/537.36 Edg/101.0.1210.47","WebKit","Edge","101.0.1210.47","Windows","10.0","1614","<p><strong>请判断你在多大程度上同意下列陈述。</strong></p>","0",""
"","","","","","survey-likert","141","555285","0.0-14.0","12","1","2022-10-20 07:17:24","ebf9627b049f568eb4bf28942cb89901","42.87.104.28","Mozilla/5.0 (Windows NT 10.0; Win64; x64) AppleWebKit/537.36 (KHTML, like Gecko) Chrome/101.0.4951.64 Safari/537.36 Edg/101.0.1210.47","WebKit","Edge","101.0.1210.47","Windows","10.0","74403","","{""scale21"":4,""scale6"":1,""scale8"":4,""scale24"":1,""scale9"":3,""scale12"":1,""scale2"":4,""scale18"":1,""scale3"":0,""scale13"":0,""scale26"":3,""scale20"":3,""scale23"":3,""scale25"":4,""scale10"":1,""scale19"":3,""scale4"":1,""scale22"":2,""scale16"":3,""scale7"":1,""scale28"":4,""scale5"":4,""scale27"":1,""scale14"":1,""scale17"":1,""scale1"":2,""scale11"":4,""scale15"":1}","[20,5,7,23,8,11,1,17,2,12,25,19,22,24,9,18,3,21,15,6,27,4,26,13,16,0,10,14]"
"","","","","","html-button-response","142","556980","0.0-15.0","12","1","2022-10-20 07:17:24","ebf9627b049f568eb4bf28942cb89901","42.87.104.28","Mozilla/5.0 (Windows NT 10.0; Win64; x64) AppleWebKit/537.36 (KHTML, like Gecko) Chrome/101.0.4951.64 Safari/537.36 Edg/101.0.1210.47","WebKit","Edge","101.0.1210.47","Windows","10.0","1684","<p><strong>请判断你在多大程度上同意下列陈述。</strong></p>","0",""
"","","","","","survey-likert","143","611247","0.0-16.0","12","1","2022-10-20 07:17:24","ebf9627b049f568eb4bf28942cb89901","42.87.104.28","Mozilla/5.0 (Windows NT 10.0; Win64; x64) AppleWebKit/537.36 (KHTML, like Gecko) Chrome/101.0.4951.64 Safari/537.36 Edg/101.0.1210.47","WebKit","Edge","101.0.1210.47","Windows","10.0","54261","","{""sdo7"":1,""sdo9"":5,""sdo16"":6,""sdo2"":3,""sdo3"":4,""sdo4"":2,""sdo1"":1,""sdo13"":5,""sdo5"":1,""sdo11"":4,""sdo6"":2,""sdo15"":4,""sdo10"":4,""sdo12"":5,""sdo14"":5,""sdo8"":2}","[6,8,15,1,2,3,0,12,4,10,5,14,9,11,13,7]"
"","","","","","html-button-response","144","613010","0.0-17.0","12","1","2022-10-20 07:17:24","ebf9627b049f568eb4bf28942cb89901","42.87.104.28","Mozilla/5.0 (Windows NT 10.0; Win64; x64) AppleWebKit/537.36 (KHTML, like Gecko) Chrome/101.0.4951.64 Safari/537.36 Edg/101.0.1210.47","WebKit","Edge","101.0.1210.47","Windows","10.0","1753","<p><strong>请判断你在多大程度上同意下列陈述。</strong></p>","0",""
"","","","","","survey-likert","145","652116","0.0-18.0","12","1","2022-10-20 07:17:24","ebf9627b049f568eb4bf28942cb89901","42.87.104.28","Mozilla/5.0 (Windows NT 10.0; Win64; x64) AppleWebKit/537.36 (KHTML, like Gecko) Chrome/101.0.4951.64 Safari/537.36 Edg/101.0.1210.47","WebKit","Edge","101.0.1210.47","Windows","10.0","39102","","{""caring1"":2,""liking1"":1,""caring2"":3,""protection1"":3,""liking2"":1,""caring3"":3,""protection2"":3,""liking3"":1,""protection3"":2,""caring4"":4,""liking4"":2,""protection4"":3,""caring5"":1,""liking5"":3,""protection5"":2}","[0,1,2,3,4,5,6,7,8,9,10,11,12,13,14]"
"","","","","","html-button-response","146","653442","0.0-19.0","12","1","2022-10-20 07:17:24","ebf9627b049f568eb4bf28942cb89901","42.87.104.28","Mozilla/5.0 (Windows NT 10.0; Win64; x64) AppleWebKit/537.36 (KHTML, like Gecko) Chrome/101.0.4951.64 Safari/537.36 Edg/101.0.1210.47","WebKit","Edge","101.0.1210.47","Windows","10.0","1320","<p><strong>请判断下列场景中你的内心感受有多柔软。</strong></p>","0",""
"","","","","","survey-likert","147","685270","0.0-20.0","12","1","2022-10-20 07:17:24","ebf9627b049f568eb4bf28942cb89901","42.87.104.28","Mozilla/5.0 (Windows NT 10.0; Win64; x64) AppleWebKit/537.36 (KHTML, like Gecko) Chrome/101.0.4951.64 Safari/537.36 Edg/101.0.1210.47","WebKit","Edge","101.0.1210.47","Windows","10.0","31823","","{""tenderness-positive1"":3,""tenderness-negative1"":4,""tenderness-negative2"":2,""tenderness-positive2"":4,""tenderness-positive3"":3,""tenderness-negative3"":2,""tenderness-positive4"":4,""tendereness-negative4"":3,""tendernness-negative5"":3,""tenderness-positive5"":4}","[0,1,2,3,4,5,6,7,8,9]"
"","","","","","survey-multi-choice","148","699973","0.0-21.0","12","1","2022-10-20 07:17:24","ebf9627b049f568eb4bf28942cb89901","42.87.104.28","Mozilla/5.0 (Windows NT 10.0; Win64; x64) AppleWebKit/537.36 (KHTML, like Gecko) Chrome/101.0.4951.64 Safari/537.36 Edg/101.0.1210.47","WebKit","Edge","101.0.1210.47","Windows","10.0","14696","","{""Attention2"":""其他""}","[0]"
"","","","","","html-button-response","149","701905","0.0-22.0","12","1","2022-10-20 07:17:24","ebf9627b049f568eb4bf28942cb89901","42.87.104.28","Mozilla/5.0 (Windows NT 10.0; Win64; x64) AppleWebKit/537.36 (KHTML, like Gecko) Chrome/101.0.4951.64 Safari/537.36 Edg/101.0.1210.47","WebKit","Edge","101.0.1210.47","Windows","10.0","1925","<p><strong>请判断你在多大程度上同意下列陈述。</strong></p>","0",""
"","","","","","survey-likert","150","760257","0.0-23.0","12","1","2022-10-20 07:17:24","ebf9627b049f568eb4bf28942cb89901","42.87.104.28","Mozilla/5.0 (Windows NT 10.0; Win64; x64) AppleWebKit/537.36 (KHTML, like Gecko) Chrome/101.0.4951.64 Safari/537.36 Edg/101.0.1210.47","WebKit","Edge","101.0.1210.47","Windows","10.0","58347","","{""Patri7"":4,""Patri6"":1,""Patri5"":4,""Nation5"":1,""Nation8"":1,""Patri2"":4,""Patri11"":0,""Patri10"":0,""Nation1"":3,""Patri8"":3,""Nation6"":3,""Patri12"":1,""Nation3"":1,""Patri3"":4,""Nation2"":4,""Patri1"":4,""Nation7"":4,""Patri4"":3,""Patri9"":0,""Nation4"":2}","[6,5,4,16,19,1,10,9,12,7,17,11,14,2,13,0,18,3,8,15]"
"","","","","","html-button-response","151","762144","0.0-24.0","12","1","2022-10-20 07:17:24","ebf9627b049f568eb4bf28942cb89901","42.87.104.28","Mozilla/5.0 (Windows NT 10.0; Win64; x64) AppleWebKit/537.36 (KHTML, like Gecko) Chrome/101.0.4951.64 Safari/537.36 Edg/101.0.1210.47","WebKit","Edge","101.0.1210.47","Windows","10.0","1881","<p><strong>请判断你在多大程度上同意下列陈述。</strong></p>","0",""
"","","","","","survey-likert","152","800433","0.0-25.0","12","1","2022-10-20 07:17:24","ebf9627b049f568eb4bf28942cb89901","42.87.104.28","Mozilla/5.0 (Windows NT 10.0; Win64; x64) AppleWebKit/537.36 (KHTML, like Gecko) Chrome/101.0.4951.64 Safari/537.36 Edg/101.0.1210.47","WebKit","Edge","101.0.1210.47","Windows","10.0","38282","","{""hi3"":5,""hi1"":7,""vc4"":6,""hi2"":7,""hc1"":7,""vi4"":2,""Robot"":6,""hc4"":7,""hc2"":7,""hc3"":6,""vi1"":5,""vc1"":7,""vc2"":6,""vi2"":3,""vi3"":5,""vc3"":5,""hi4"":7}","[2,0,16,1,9,8,7,12,10,11,4,13,14,5,6,15,3]"
"","","","","","survey-text","153","813107","0.0-26.0","12","1","2022-10-20 07:17:24","ebf9627b049f568eb4bf28942cb89901","42.87.104.28","Mozilla/5.0 (Windows NT 10.0; Win64; x64) AppleWebKit/537.36 (KHTML, like Gecko) Chrome/101.0.4951.64 Safari/537.36 Edg/101.0.1210.47","WebKit","Edge","101.0.1210.47","Windows","10.0","12655","","{""Comments"":""没有啦~辛苦！""}",""
"","","","","","html-button-response","154","815730","0.0-27.0","12","1","2022-10-20 07:17:24","ebf9627b049f568eb4bf28942cb89901","42.87.104.28","Mozilla/5.0 (Windows NT 10.0; Win64; x64) AppleWebKit/537.36 (KHTML, like Gecko) Chrome/101.0.4951.64 Safari/537.36 Edg/101.0.1210.47","WebKit","Edge","101.0.1210.47","Windows","10.0","2618","<strong><p>恭喜你完成了实验！</p><p>感谢您的参与。</p></strong>","0",""
