"success","timeout","failed_images","failed_audio","failed_video","trial_type","trial_index","time_elapsed","internal_node_id","run_id","condition","recorded_at","source_code_version","ip","user_agent","device","browser","browser_version","platform","platform_version","rt","stimulus","response","question_order"
"true","false","[]","[]","[]","preload","0","1053","0.0-0.0","14","1","2022-10-20 12:08:54","ebf9627b049f568eb4bf28942cb89901","113.78.213.129","Mozilla/5.0 (Windows NT 10.0; Win64; x64) AppleWebKit/537.36 (KHTML, like Gecko) Chrome/89.0.4389.114 Safari/537.36 Edg/89.0.774.68","WebKit","Edge","89.0.774.68","Windows","10.0","","","",""
"true","","","","","fullscreen","1","4913","0.0-1.0","14","1","2022-10-20 12:08:54","ebf9627b049f568eb4bf28942cb89901","113.78.213.129","Mozilla/5.0 (Windows NT 10.0; Win64; x64) AppleWebKit/537.36 (KHTML, like Gecko) Chrome/89.0.4389.114 Safari/537.36 Edg/89.0.774.68","WebKit","Edge","89.0.774.68","Windows","10.0","","","",""
"","","","","","html-button-response","2","182736","0.0-2.0","14","1","2022-10-20 12:08:54","ebf9627b049f568eb4bf28942cb89901","113.78.213.129","Mozilla/5.0 (Windows NT 10.0; Win64; x64) AppleWebKit/537.36 (KHTML, like Gecko) Chrome/89.0.4389.114 Safari/537.36 Edg/89.0.774.68","WebKit","Edge","89.0.774.68","Windows","10.0","177818","<p style=""font-size:20px;font-weight:bold;"">实验知情同意书</p><p style=""text-align:left;""><strong>实验名称：</strong>社会冲突研究</p><p style=""text-align:left;""><strong>主要研究者：</strong>韩晓春副教授（北京师范大学心理学部）</p><p style=""text-align:left;""><strong>联系方式：</strong>发送邮件至xiaochun.han@bnu.edu.cn</p><p style=""text-align:left;""><strong>研究目的：</strong>研究旨在了解人类面对群体冲突时的决策方式，以及相关的心理学特质。实验调查大约需要20分钟。</p><p style=""text-align:left;""><strong>实验流程：</strong>实验包含两部分。第一部分呈现一系列群体冲突场景，请你决定如何对这些冲突进行反应，大约需要10分钟完成。第二部分包含一系列人口统计学信息收集和心理学问卷，大约需要10分钟完成。</p><p style=""text-align:left;""><strong>参加及退出规则：</strong>参加本实验完全取决于您的个人意愿。在参与过程中，您可以随时退出，并且不用承担任何后果。</p><p style=""text-align:left;""><strong>隐私：</strong>本实验完全匿名进行，不会收集您的姓名或其他能够识别您身份的信息。实验中收集的作答仅用作科学研究使用，可能会在学术期刊/书籍上发表，或者用于教学，您的数据未来可能会和其他研究者或实验室分享，但您的个人身份不会被识别。</p><p style=""text-align:left;""><strong>实验报酬：</strong>实验完成后，您将获得15元人民币报酬，以感谢您的时间和努力。调查问卷中包含几道题目用以测验您作答时的认真度。只有完成全部实验，并且正确回答认真度测验的被试才能获得实验报酬。实验报酬将通过支付宝转账发放。</p><p style=""text-align:left;font-size:20px;""><strong>如果您同意以上实验知情同意书的内容，请点击'同意并且开始实验'按钮；否则请关闭浏览器界面，退出实验。</strong></p>","0",""
"","","","","","html-button-response","3","247312","0.0-3.0","14","1","2022-10-20 12:08:54","ebf9627b049f568eb4bf28942cb89901","113.78.213.129","Mozilla/5.0 (Windows NT 10.0; Win64; x64) AppleWebKit/537.36 (KHTML, like Gecko) Chrome/89.0.4389.114 Safari/537.36 Edg/89.0.774.68","WebKit","Edge","89.0.774.68","Windows","10.0","64573","<p ><strong>实验任务一：</strong></p><p>请想象你的国家与另一个国家发生了军事冲突。</p><p>你是国家军队的指挥官，你将如何在冲突中进行决策。</p><p>具体来说，作为军队指挥官，请你决定是否发射导弹进行打击。</p><p>接下来，你会面对一系列场景，请仔细阅读每个场景，然后进行决策。</p><p>这部分实验任务大约需要10分钟。</p><p><strong>实验过程中，请集中注意力。</strong></p>","0",""
"","","","","","html-keyboard-response","4","248315","0.0-4.0-0.0","14","1","2022-10-20 12:08:54","ebf9627b049f568eb4bf28942cb89901","113.78.213.129","Mozilla/5.0 (Windows NT 10.0; Win64; x64) AppleWebKit/537.36 (KHTML, like Gecko) Chrome/89.0.4389.114 Safari/537.36 Edg/89.0.774.68","WebKit","Edge","89.0.774.68","Windows","10.0","null","<div style=""font-size:60px;"">+</div>","null",""
"","","","","","html-button-response","5","254343","0.0-4.0-1.0","14","1","2022-10-20 12:08:54","ebf9627b049f568eb4bf28942cb89901","113.78.213.129","Mozilla/5.0 (Windows NT 10.0; Win64; x64) AppleWebKit/537.36 (KHTML, like Gecko) Chrome/89.0.4389.114 Safari/537.36 Edg/89.0.774.68","WebKit","Edge","89.0.774.68","Windows","10.0","6022","<p>作为军队的指挥官，你可以选择发射导弹杀死 <strong>7名</strong> 敌国士兵，但会误杀附近的 <strong>1名</strong> 敌国平民。</p> <p>平民照片如下图所示。</p> <p></p> <img src='stimuli/faces/NFM7.jpg', style='max-width: 30%;'> </img> <p><strong>你是否选择发射武器？</strong></p>","0",""
"","","","","","html-keyboard-response","6","255346","0.0-4.0-0.1","14","1","2022-10-20 12:08:54","ebf9627b049f568eb4bf28942cb89901","113.78.213.129","Mozilla/5.0 (Windows NT 10.0; Win64; x64) AppleWebKit/537.36 (KHTML, like Gecko) Chrome/89.0.4389.114 Safari/537.36 Edg/89.0.774.68","WebKit","Edge","89.0.774.68","Windows","10.0","null","<div style=""font-size:60px;"">+</div>","null",""
"","","","","","html-button-response","7","258975","0.0-4.0-1.1","14","1","2022-10-20 12:08:54","ebf9627b049f568eb4bf28942cb89901","113.78.213.129","Mozilla/5.0 (Windows NT 10.0; Win64; x64) AppleWebKit/537.36 (KHTML, like Gecko) Chrome/89.0.4389.114 Safari/537.36 Edg/89.0.774.68","WebKit","Edge","89.0.774.68","Windows","10.0","3626","<p>作为军队的指挥官，你可以选择发射导弹杀死 <strong>2名</strong> 敌国士兵，但会误杀附近的 <strong>1名</strong> 敌国平民。</p> <p>平民照片如下图所示。</p> <p></p> <img src='stimuli/faces/NFM4.jpg', style='max-width: 30%;'> </img> <p><strong>你是否选择发射武器？</strong></p>","1",""
"","","","","","html-keyboard-response","8","259978","0.0-4.0-0.2","14","1","2022-10-20 12:08:54","ebf9627b049f568eb4bf28942cb89901","113.78.213.129","Mozilla/5.0 (Windows NT 10.0; Win64; x64) AppleWebKit/537.36 (KHTML, like Gecko) Chrome/89.0.4389.114 Safari/537.36 Edg/89.0.774.68","WebKit","Edge","89.0.774.68","Windows","10.0","null","<div style=""font-size:60px;"">+</div>","null",""
"","","","","","html-button-response","9","262030","0.0-4.0-1.2","14","1","2022-10-20 12:08:54","ebf9627b049f568eb4bf28942cb89901","113.78.213.129","Mozilla/5.0 (Windows NT 10.0; Win64; x64) AppleWebKit/537.36 (KHTML, like Gecko) Chrome/89.0.4389.114 Safari/537.36 Edg/89.0.774.68","WebKit","Edge","89.0.774.68","Windows","10.0","2049","<p>作为军队的指挥官，你可以选择发射导弹杀死 <strong>7名</strong> 敌国士兵，但会误杀附近的 <strong>1名</strong> 敌国平民。</p> <p>平民照片如下图所示。</p> <p></p> <img src='stimuli/faces/NFM1.jpg', style='max-width: 30%;'> </img> <p><strong>你是否选择发射武器？</strong></p>","0",""
"","","","","","html-keyboard-response","10","263034","0.0-4.0-0.3","14","1","2022-10-20 12:08:54","ebf9627b049f568eb4bf28942cb89901","113.78.213.129","Mozilla/5.0 (Windows NT 10.0; Win64; x64) AppleWebKit/537.36 (KHTML, like Gecko) Chrome/89.0.4389.114 Safari/537.36 Edg/89.0.774.68","WebKit","Edge","89.0.774.68","Windows","10.0","null","<div style=""font-size:60px;"">+</div>","null",""
"","","","","","html-button-response","11","267127","0.0-4.0-1.3","14","1","2022-10-20 12:08:54","ebf9627b049f568eb4bf28942cb89901","113.78.213.129","Mozilla/5.0 (Windows NT 10.0; Win64; x64) AppleWebKit/537.36 (KHTML, like Gecko) Chrome/89.0.4389.114 Safari/537.36 Edg/89.0.774.68","WebKit","Edge","89.0.774.68","Windows","10.0","4089","<p>作为军队的指挥官，你可以选择发射导弹杀死 <strong>1名</strong> 敌国士兵，但会炸毁附近的 <strong>1棵</strong> 敌国树木。</p> <p>树木的照片如下图所示。</p> <p></p> <img src='stimuli/trees/14.png', style='max-width: 30%;'> </img> <p><strong>你是否选择发射武器？</strong></p>","1",""
"","","","","","html-keyboard-response","12","268130","0.0-4.0-0.4","14","1","2022-10-20 12:08:54","ebf9627b049f568eb4bf28942cb89901","113.78.213.129","Mozilla/5.0 (Windows NT 10.0; Win64; x64) AppleWebKit/537.36 (KHTML, like Gecko) Chrome/89.0.4389.114 Safari/537.36 Edg/89.0.774.68","WebKit","Edge","89.0.774.68","Windows","10.0","null","<div style=""font-size:60px;"">+</div>","null",""
"","","","","","html-button-response","13","269711","0.0-4.0-1.4","14","1","2022-10-20 12:08:54","ebf9627b049f568eb4bf28942cb89901","113.78.213.129","Mozilla/5.0 (Windows NT 10.0; Win64; x64) AppleWebKit/537.36 (KHTML, like Gecko) Chrome/89.0.4389.114 Safari/537.36 Edg/89.0.774.68","WebKit","Edge","89.0.774.68","Windows","10.0","1578","<p>作为军队的指挥官，你可以选择发射导弹杀死 <strong>7名</strong> 敌国士兵，但会误杀附近的 <strong>1名</strong> 敌国平民。</p> <p>平民照片如下图所示。</p> <p></p> <img src='stimuli/faces/NFF8.jpg', style='max-width: 30%;'> </img> <p><strong>你是否选择发射武器？</strong></p>","0",""
"","","","","","html-keyboard-response","14","270718","0.0-4.0-0.5","14","1","2022-10-20 12:08:54","ebf9627b049f568eb4bf28942cb89901","113.78.213.129","Mozilla/5.0 (Windows NT 10.0; Win64; x64) AppleWebKit/537.36 (KHTML, like Gecko) Chrome/89.0.4389.114 Safari/537.36 Edg/89.0.774.68","WebKit","Edge","89.0.774.68","Windows","10.0","null","<div style=""font-size:60px;"">+</div>","null",""
"","","","","","html-button-response","15","272367","0.0-4.0-1.5","14","1","2022-10-20 12:08:54","ebf9627b049f568eb4bf28942cb89901","113.78.213.129","Mozilla/5.0 (Windows NT 10.0; Win64; x64) AppleWebKit/537.36 (KHTML, like Gecko) Chrome/89.0.4389.114 Safari/537.36 Edg/89.0.774.68","WebKit","Edge","89.0.774.68","Windows","10.0","1646","<p>作为军队的指挥官，你可以选择发射导弹杀死 <strong>2名</strong> 敌国士兵，但会误杀附近的 <strong>1名</strong> 敌国平民。</p> <p>平民照片如下图所示。</p> <p></p> <img src='stimuli/faces/NFF5.jpg', style='max-width: 30%;'> </img> <p><strong>你是否选择发射武器？</strong></p>","1",""
"","","","","","html-keyboard-response","16","273370","0.0-4.0-0.6","14","1","2022-10-20 12:08:54","ebf9627b049f568eb4bf28942cb89901","113.78.213.129","Mozilla/5.0 (Windows NT 10.0; Win64; x64) AppleWebKit/537.36 (KHTML, like Gecko) Chrome/89.0.4389.114 Safari/537.36 Edg/89.0.774.68","WebKit","Edge","89.0.774.68","Windows","10.0","null","<div style=""font-size:60px;"">+</div>","null",""
"","","","","","html-button-response","17","275808","0.0-4.0-1.6","14","1","2022-10-20 12:08:54","ebf9627b049f568eb4bf28942cb89901","113.78.213.129","Mozilla/5.0 (Windows NT 10.0; Win64; x64) AppleWebKit/537.36 (KHTML, like Gecko) Chrome/89.0.4389.114 Safari/537.36 Edg/89.0.774.68","WebKit","Edge","89.0.774.68","Windows","10.0","2434","<p>作为军队的指挥官，你可以选择发射导弹杀死 <strong>7名</strong> 敌国士兵，但会炸毁附近的 <strong>1棵</strong> 敌国树木。</p> <p>树木的照片如下图所示。</p> <p></p> <img src='stimuli/trees/1.png', style='max-width: 30%;'> </img> <p><strong>你是否选择发射武器？</strong></p>","0",""
"","","","","","html-keyboard-response","18","276816","0.0-4.0-0.7","14","1","2022-10-20 12:08:54","ebf9627b049f568eb4bf28942cb89901","113.78.213.129","Mozilla/5.0 (Windows NT 10.0; Win64; x64) AppleWebKit/537.36 (KHTML, like Gecko) Chrome/89.0.4389.114 Safari/537.36 Edg/89.0.774.68","WebKit","Edge","89.0.774.68","Windows","10.0","null","<div style=""font-size:60px;"">+</div>","null",""
"","","","","","html-button-response","19","279582","0.0-4.0-1.7","14","1","2022-10-20 12:08:54","ebf9627b049f568eb4bf28942cb89901","113.78.213.129","Mozilla/5.0 (Windows NT 10.0; Win64; x64) AppleWebKit/537.36 (KHTML, like Gecko) Chrome/89.0.4389.114 Safari/537.36 Edg/89.0.774.68","WebKit","Edge","89.0.774.68","Windows","10.0","2762","<p>作为军队的指挥官，你可以选择发射导弹杀死 <strong>7名</strong> 敌国士兵，但会误杀附近的 <strong>1名</strong> 敌国平民。</p> <p>平民照片如下图所示。</p> <p></p> <img src='stimuli/faces/NFM8.jpg', style='max-width: 30%;'> </img> <p><strong>你是否选择发射武器？</strong></p>","0",""
"","","","","","html-keyboard-response","20","280585","0.0-4.0-0.8","14","1","2022-10-20 12:08:54","ebf9627b049f568eb4bf28942cb89901","113.78.213.129","Mozilla/5.0 (Windows NT 10.0; Win64; x64) AppleWebKit/537.36 (KHTML, like Gecko) Chrome/89.0.4389.114 Safari/537.36 Edg/89.0.774.68","WebKit","Edge","89.0.774.68","Windows","10.0","null","<div style=""font-size:60px;"">+</div>","null",""
"","","","","","html-button-response","21","282695","0.0-4.0-1.8","14","1","2022-10-20 12:08:54","ebf9627b049f568eb4bf28942cb89901","113.78.213.129","Mozilla/5.0 (Windows NT 10.0; Win64; x64) AppleWebKit/537.36 (KHTML, like Gecko) Chrome/89.0.4389.114 Safari/537.36 Edg/89.0.774.68","WebKit","Edge","89.0.774.68","Windows","10.0","2105","<p>作为军队的指挥官，你可以选择发射导弹杀死 <strong>9名</strong> 敌国士兵，但会误杀附近的 <strong>1名</strong> 敌国平民。</p> <p>平民照片如下图所示。</p> <p></p> <img src='stimuli/faces/NFF6.jpg', style='max-width: 30%;'> </img> <p><strong>你是否选择发射武器？</strong></p>","0",""
"","","","","","html-keyboard-response","22","283697","0.0-4.0-0.9","14","1","2022-10-20 12:08:54","ebf9627b049f568eb4bf28942cb89901","113.78.213.129","Mozilla/5.0 (Windows NT 10.0; Win64; x64) AppleWebKit/537.36 (KHTML, like Gecko) Chrome/89.0.4389.114 Safari/537.36 Edg/89.0.774.68","WebKit","Edge","89.0.774.68","Windows","10.0","null","<div style=""font-size:60px;"">+</div>","null",""
"","","","","","html-button-response","23","286480","0.0-4.0-1.9","14","1","2022-10-20 12:08:54","ebf9627b049f568eb4bf28942cb89901","113.78.213.129","Mozilla/5.0 (Windows NT 10.0; Win64; x64) AppleWebKit/537.36 (KHTML, like Gecko) Chrome/89.0.4389.114 Safari/537.36 Edg/89.0.774.68","WebKit","Edge","89.0.774.68","Windows","10.0","2779","<p>作为军队的指挥官，你可以选择发射导弹杀死 <strong>4名</strong> 敌国士兵，但会误杀附近的 <strong>1名</strong> 敌国平民。</p> <p>平民照片如下图所示。</p> <p></p> <img src='stimuli/faces/NFF6.jpg', style='max-width: 30%;'> </img> <p><strong>你是否选择发射武器？</strong></p>","1",""
"","","","","","html-keyboard-response","24","287483","0.0-4.0-0.10","14","1","2022-10-20 12:08:54","ebf9627b049f568eb4bf28942cb89901","113.78.213.129","Mozilla/5.0 (Windows NT 10.0; Win64; x64) AppleWebKit/537.36 (KHTML, like Gecko) Chrome/89.0.4389.114 Safari/537.36 Edg/89.0.774.68","WebKit","Edge","89.0.774.68","Windows","10.0","null","<div style=""font-size:60px;"">+</div>","null",""
"","","","","","html-button-response","25","289015","0.0-4.0-1.10","14","1","2022-10-20 12:08:54","ebf9627b049f568eb4bf28942cb89901","113.78.213.129","Mozilla/5.0 (Windows NT 10.0; Win64; x64) AppleWebKit/537.36 (KHTML, like Gecko) Chrome/89.0.4389.114 Safari/537.36 Edg/89.0.774.68","WebKit","Edge","89.0.774.68","Windows","10.0","1529","<p>作为军队的指挥官，你可以选择发射导弹杀死 <strong>5名</strong> 敌国士兵，但会炸毁附近的 <strong>1棵</strong> 敌国树木。</p> <p>树木的照片如下图所示。</p> <p></p> <img src='stimuli/trees/4.png', style='max-width: 30%;'> </img> <p><strong>你是否选择发射武器？</strong></p>","0",""
"","","","","","html-keyboard-response","26","290017","0.0-4.0-0.11","14","1","2022-10-20 12:08:54","ebf9627b049f568eb4bf28942cb89901","113.78.213.129","Mozilla/5.0 (Windows NT 10.0; Win64; x64) AppleWebKit/537.36 (KHTML, like Gecko) Chrome/89.0.4389.114 Safari/537.36 Edg/89.0.774.68","WebKit","Edge","89.0.774.68","Windows","10.0","null","<div style=""font-size:60px;"">+</div>","null",""
"","","","","","html-button-response","27","291239","0.0-4.0-1.11","14","1","2022-10-20 12:08:54","ebf9627b049f568eb4bf28942cb89901","113.78.213.129","Mozilla/5.0 (Windows NT 10.0; Win64; x64) AppleWebKit/537.36 (KHTML, like Gecko) Chrome/89.0.4389.114 Safari/537.36 Edg/89.0.774.68","WebKit","Edge","89.0.774.68","Windows","10.0","1217","<p>作为军队的指挥官，你可以选择发射导弹杀死 <strong>10名</strong> 敌国士兵，但会误杀附近的 <strong>1名</strong> 敌国平民。</p> <p>平民照片如下图所示。</p> <p></p> <img src='stimuli/faces/NFF7.jpg', style='max-width: 30%;'> </img> <p><strong>你是否选择发射武器？</strong></p>","0",""
"","","","","","html-keyboard-response","28","292242","0.0-4.0-0.12","14","1","2022-10-20 12:08:54","ebf9627b049f568eb4bf28942cb89901","113.78.213.129","Mozilla/5.0 (Windows NT 10.0; Win64; x64) AppleWebKit/537.36 (KHTML, like Gecko) Chrome/89.0.4389.114 Safari/537.36 Edg/89.0.774.68","WebKit","Edge","89.0.774.68","Windows","10.0","null","<div style=""font-size:60px;"">+</div>","null",""
"","","","","","html-button-response","29","294231","0.0-4.0-1.12","14","1","2022-10-20 12:08:54","ebf9627b049f568eb4bf28942cb89901","113.78.213.129","Mozilla/5.0 (Windows NT 10.0; Win64; x64) AppleWebKit/537.36 (KHTML, like Gecko) Chrome/89.0.4389.114 Safari/537.36 Edg/89.0.774.68","WebKit","Edge","89.0.774.68","Windows","10.0","1985","<p>作为军队的指挥官，你可以选择发射导弹杀死 <strong>6名</strong> 敌国士兵，但会误杀附近的 <strong>1名</strong> 敌国平民。</p> <p>平民照片如下图所示。</p> <p></p> <img src='stimuli/faces/NFM4.jpg', style='max-width: 30%;'> </img> <p><strong>你是否选择发射武器？</strong></p>","0",""
"","","","","","html-keyboard-response","30","295234","0.0-4.0-0.13","14","1","2022-10-20 12:08:54","ebf9627b049f568eb4bf28942cb89901","113.78.213.129","Mozilla/5.0 (Windows NT 10.0; Win64; x64) AppleWebKit/537.36 (KHTML, like Gecko) Chrome/89.0.4389.114 Safari/537.36 Edg/89.0.774.68","WebKit","Edge","89.0.774.68","Windows","10.0","null","<div style=""font-size:60px;"">+</div>","null",""
"","","","","","html-button-response","31","296919","0.0-4.0-1.13","14","1","2022-10-20 12:08:54","ebf9627b049f568eb4bf28942cb89901","113.78.213.129","Mozilla/5.0 (Windows NT 10.0; Win64; x64) AppleWebKit/537.36 (KHTML, like Gecko) Chrome/89.0.4389.114 Safari/537.36 Edg/89.0.774.68","WebKit","Edge","89.0.774.68","Windows","10.0","1679","<p>作为军队的指挥官，你可以选择发射导弹杀死 <strong>5名</strong> 敌国士兵，但会炸毁附近的 <strong>1棵</strong> 敌国树木。</p> <p>树木的照片如下图所示。</p> <p></p> <img src='stimuli/trees/12.png', style='max-width: 30%;'> </img> <p><strong>你是否选择发射武器？</strong></p>","0",""
"","","","","","html-keyboard-response","32","297921","0.0-4.0-0.14","14","1","2022-10-20 12:08:54","ebf9627b049f568eb4bf28942cb89901","113.78.213.129","Mozilla/5.0 (Windows NT 10.0; Win64; x64) AppleWebKit/537.36 (KHTML, like Gecko) Chrome/89.0.4389.114 Safari/537.36 Edg/89.0.774.68","WebKit","Edge","89.0.774.68","Windows","10.0","null","<div style=""font-size:60px;"">+</div>","null",""
"","","","","","html-button-response","33","299559","0.0-4.0-1.14","14","1","2022-10-20 12:08:54","ebf9627b049f568eb4bf28942cb89901","113.78.213.129","Mozilla/5.0 (Windows NT 10.0; Win64; x64) AppleWebKit/537.36 (KHTML, like Gecko) Chrome/89.0.4389.114 Safari/537.36 Edg/89.0.774.68","WebKit","Edge","89.0.774.68","Windows","10.0","1632","<p>作为军队的指挥官，你可以选择发射导弹杀死 <strong>9名</strong> 敌国士兵，但会炸毁附近的 <strong>1棵</strong> 敌国树木。</p> <p>树木的照片如下图所示。</p> <p></p> <img src='stimuli/trees/8.png', style='max-width: 30%;'> </img> <p><strong>你是否选择发射武器？</strong></p>","0",""
"","","","","","html-keyboard-response","34","300562","0.0-4.0-0.15","14","1","2022-10-20 12:08:54","ebf9627b049f568eb4bf28942cb89901","113.78.213.129","Mozilla/5.0 (Windows NT 10.0; Win64; x64) AppleWebKit/537.36 (KHTML, like Gecko) Chrome/89.0.4389.114 Safari/537.36 Edg/89.0.774.68","WebKit","Edge","89.0.774.68","Windows","10.0","null","<div style=""font-size:60px;"">+</div>","null",""
"","","","","","html-button-response","35","302863","0.0-4.0-1.15","14","1","2022-10-20 12:08:54","ebf9627b049f568eb4bf28942cb89901","113.78.213.129","Mozilla/5.0 (Windows NT 10.0; Win64; x64) AppleWebKit/537.36 (KHTML, like Gecko) Chrome/89.0.4389.114 Safari/537.36 Edg/89.0.774.68","WebKit","Edge","89.0.774.68","Windows","10.0","2296","<p>作为军队的指挥官，你可以选择发射导弹杀死 <strong>2名</strong> 敌国士兵，但会炸毁附近的 <strong>1棵</strong> 敌国树木。</p> <p>树木的照片如下图所示。</p> <p></p> <img src='stimuli/trees/13.png', style='max-width: 30%;'> </img> <p><strong>你是否选择发射武器？</strong></p>","1",""
"","","","","","html-keyboard-response","36","303879","0.0-4.0-0.16","14","1","2022-10-20 12:08:54","ebf9627b049f568eb4bf28942cb89901","113.78.213.129","Mozilla/5.0 (Windows NT 10.0; Win64; x64) AppleWebKit/537.36 (KHTML, like Gecko) Chrome/89.0.4389.114 Safari/537.36 Edg/89.0.774.68","WebKit","Edge","89.0.774.68","Windows","10.0","null","<div style=""font-size:60px;"">+</div>","null",""
"","","","","","html-button-response","37","305407","0.0-4.0-1.16","14","1","2022-10-20 12:08:54","ebf9627b049f568eb4bf28942cb89901","113.78.213.129","Mozilla/5.0 (Windows NT 10.0; Win64; x64) AppleWebKit/537.36 (KHTML, like Gecko) Chrome/89.0.4389.114 Safari/537.36 Edg/89.0.774.68","WebKit","Edge","89.0.774.68","Windows","10.0","1524","<p>作为军队的指挥官，你可以选择发射导弹杀死 <strong>9名</strong> 敌国士兵，但会误杀附近的 <strong>1名</strong> 敌国平民。</p> <p>平民照片如下图所示。</p> <p></p> <img src='stimuli/faces/NFF3.jpg', style='max-width: 30%;'> </img> <p><strong>你是否选择发射武器？</strong></p>","0",""
"","","","","","html-keyboard-response","38","306411","0.0-4.0-0.17","14","1","2022-10-20 12:08:54","ebf9627b049f568eb4bf28942cb89901","113.78.213.129","Mozilla/5.0 (Windows NT 10.0; Win64; x64) AppleWebKit/537.36 (KHTML, like Gecko) Chrome/89.0.4389.114 Safari/537.36 Edg/89.0.774.68","WebKit","Edge","89.0.774.68","Windows","10.0","null","<div style=""font-size:60px;"">+</div>","null",""
"","","","","","html-button-response","39","307519","0.0-4.0-1.17","14","1","2022-10-20 12:08:54","ebf9627b049f568eb4bf28942cb89901","113.78.213.129","Mozilla/5.0 (Windows NT 10.0; Win64; x64) AppleWebKit/537.36 (KHTML, like Gecko) Chrome/89.0.4389.114 Safari/537.36 Edg/89.0.774.68","WebKit","Edge","89.0.774.68","Windows","10.0","1104","<p>作为军队的指挥官，你可以选择发射导弹杀死 <strong>9名</strong> 敌国士兵，但会炸毁附近的 <strong>1棵</strong> 敌国树木。</p> <p>树木的照片如下图所示。</p> <p></p> <img src='stimuli/trees/6.png', style='max-width: 30%;'> </img> <p><strong>你是否选择发射武器？</strong></p>","0",""
"","","","","","html-keyboard-response","40","308523","0.0-4.0-0.18","14","1","2022-10-20 12:08:54","ebf9627b049f568eb4bf28942cb89901","113.78.213.129","Mozilla/5.0 (Windows NT 10.0; Win64; x64) AppleWebKit/537.36 (KHTML, like Gecko) Chrome/89.0.4389.114 Safari/537.36 Edg/89.0.774.68","WebKit","Edge","89.0.774.68","Windows","10.0","null","<div style=""font-size:60px;"">+</div>","null",""
"","","","","","html-button-response","41","310007","0.0-4.0-1.18","14","1","2022-10-20 12:08:54","ebf9627b049f568eb4bf28942cb89901","113.78.213.129","Mozilla/5.0 (Windows NT 10.0; Win64; x64) AppleWebKit/537.36 (KHTML, like Gecko) Chrome/89.0.4389.114 Safari/537.36 Edg/89.0.774.68","WebKit","Edge","89.0.774.68","Windows","10.0","1480","<p>作为军队的指挥官，你可以选择发射导弹杀死 <strong>6名</strong> 敌国士兵，但会炸毁附近的 <strong>1棵</strong> 敌国树木。</p> <p>树木的照片如下图所示。</p> <p></p> <img src='stimuli/trees/12.png', style='max-width: 30%;'> </img> <p><strong>你是否选择发射武器？</strong></p>","0",""
"","","","","","html-keyboard-response","42","311010","0.0-4.0-0.19","14","1","2022-10-20 12:08:54","ebf9627b049f568eb4bf28942cb89901","113.78.213.129","Mozilla/5.0 (Windows NT 10.0; Win64; x64) AppleWebKit/537.36 (KHTML, like Gecko) Chrome/89.0.4389.114 Safari/537.36 Edg/89.0.774.68","WebKit","Edge","89.0.774.68","Windows","10.0","null","<div style=""font-size:60px;"">+</div>","null",""
"","","","","","html-button-response","43","314927","0.0-4.0-1.19","14","1","2022-10-20 12:08:54","ebf9627b049f568eb4bf28942cb89901","113.78.213.129","Mozilla/5.0 (Windows NT 10.0; Win64; x64) AppleWebKit/537.36 (KHTML, like Gecko) Chrome/89.0.4389.114 Safari/537.36 Edg/89.0.774.68","WebKit","Edge","89.0.774.68","Windows","10.0","3914","<p>作为军队的指挥官，你可以选择发射导弹杀死 <strong>1名</strong> 敌国士兵，但会炸毁附近的 <strong>1棵</strong> 敌国树木。</p> <p>树木的照片如下图所示。</p> <p></p> <img src='stimuli/trees/2.png', style='max-width: 30%;'> </img> <p><strong>你是否选择发射武器？</strong></p>","1",""
"","","","","","html-keyboard-response","44","315930","0.0-4.0-0.20","14","1","2022-10-20 12:08:54","ebf9627b049f568eb4bf28942cb89901","113.78.213.129","Mozilla/5.0 (Windows NT 10.0; Win64; x64) AppleWebKit/537.36 (KHTML, like Gecko) Chrome/89.0.4389.114 Safari/537.36 Edg/89.0.774.68","WebKit","Edge","89.0.774.68","Windows","10.0","null","<div style=""font-size:60px;"">+</div>","null",""
"","","","","","html-button-response","45","318927","0.0-4.0-1.20","14","1","2022-10-20 12:08:54","ebf9627b049f568eb4bf28942cb89901","113.78.213.129","Mozilla/5.0 (Windows NT 10.0; Win64; x64) AppleWebKit/537.36 (KHTML, like Gecko) Chrome/89.0.4389.114 Safari/537.36 Edg/89.0.774.68","WebKit","Edge","89.0.774.68","Windows","10.0","2993","<p>作为军队的指挥官，你可以选择发射导弹杀死 <strong>5名</strong> 敌国士兵，但会误杀附近的 <strong>1名</strong> 敌国平民。</p> <p>平民照片如下图所示。</p> <p></p> <img src='stimuli/faces/NFM5.jpg', style='max-width: 30%;'> </img> <p><strong>你是否选择发射武器？</strong></p>","1",""
"","","","","","html-keyboard-response","46","319931","0.0-4.0-0.21","14","1","2022-10-20 12:08:54","ebf9627b049f568eb4bf28942cb89901","113.78.213.129","Mozilla/5.0 (Windows NT 10.0; Win64; x64) AppleWebKit/537.36 (KHTML, like Gecko) Chrome/89.0.4389.114 Safari/537.36 Edg/89.0.774.68","WebKit","Edge","89.0.774.68","Windows","10.0","null","<div style=""font-size:60px;"">+</div>","null",""
"","","","","","html-button-response","47","321897","0.0-4.0-1.21","14","1","2022-10-20 12:08:54","ebf9627b049f568eb4bf28942cb89901","113.78.213.129","Mozilla/5.0 (Windows NT 10.0; Win64; x64) AppleWebKit/537.36 (KHTML, like Gecko) Chrome/89.0.4389.114 Safari/537.36 Edg/89.0.774.68","WebKit","Edge","89.0.774.68","Windows","10.0","1962","<p>作为军队的指挥官，你可以选择发射导弹杀死 <strong>4名</strong> 敌国士兵，但会炸毁附近的 <strong>1棵</strong> 敌国树木。</p> <p>树木的照片如下图所示。</p> <p></p> <img src='stimuli/trees/11.png', style='max-width: 30%;'> </img> <p><strong>你是否选择发射武器？</strong></p>","0",""
"","","","","","html-keyboard-response","48","322901","0.0-4.0-0.22","14","1","2022-10-20 12:08:54","ebf9627b049f568eb4bf28942cb89901","113.78.213.129","Mozilla/5.0 (Windows NT 10.0; Win64; x64) AppleWebKit/537.36 (KHTML, like Gecko) Chrome/89.0.4389.114 Safari/537.36 Edg/89.0.774.68","WebKit","Edge","89.0.774.68","Windows","10.0","null","<div style=""font-size:60px;"">+</div>","null",""
"","","","","","html-button-response","49","324063","0.0-4.0-1.22","14","1","2022-10-20 12:08:54","ebf9627b049f568eb4bf28942cb89901","113.78.213.129","Mozilla/5.0 (Windows NT 10.0; Win64; x64) AppleWebKit/537.36 (KHTML, like Gecko) Chrome/89.0.4389.114 Safari/537.36 Edg/89.0.774.68","WebKit","Edge","89.0.774.68","Windows","10.0","1156","<p>作为军队的指挥官，你可以选择发射导弹杀死 <strong>1名</strong> 敌国士兵，但会炸毁附近的 <strong>1棵</strong> 敌国树木。</p> <p>树木的照片如下图所示。</p> <p></p> <img src='stimuli/trees/10.png', style='max-width: 30%;'> </img> <p><strong>你是否选择发射武器？</strong></p>","1",""
"","","","","","html-keyboard-response","50","325068","0.0-4.0-0.23","14","1","2022-10-20 12:08:54","ebf9627b049f568eb4bf28942cb89901","113.78.213.129","Mozilla/5.0 (Windows NT 10.0; Win64; x64) AppleWebKit/537.36 (KHTML, like Gecko) Chrome/89.0.4389.114 Safari/537.36 Edg/89.0.774.68","WebKit","Edge","89.0.774.68","Windows","10.0","null","<div style=""font-size:60px;"">+</div>","null",""
"","","","","","html-button-response","51","326423","0.0-4.0-1.23","14","1","2022-10-20 12:08:54","ebf9627b049f568eb4bf28942cb89901","113.78.213.129","Mozilla/5.0 (Windows NT 10.0; Win64; x64) AppleWebKit/537.36 (KHTML, like Gecko) Chrome/89.0.4389.114 Safari/537.36 Edg/89.0.774.68","WebKit","Edge","89.0.774.68","Windows","10.0","1350","<p>作为军队的指挥官，你可以选择发射导弹杀死 <strong>7名</strong> 敌国士兵，但会炸毁附近的 <strong>1棵</strong> 敌国树木。</p> <p>树木的照片如下图所示。</p> <p></p> <img src='stimuli/trees/10.png', style='max-width: 30%;'> </img> <p><strong>你是否选择发射武器？</strong></p>","0",""
"","","","","","html-keyboard-response","52","327427","0.0-4.0-0.24","14","1","2022-10-20 12:08:54","ebf9627b049f568eb4bf28942cb89901","113.78.213.129","Mozilla/5.0 (Windows NT 10.0; Win64; x64) AppleWebKit/537.36 (KHTML, like Gecko) Chrome/89.0.4389.114 Safari/537.36 Edg/89.0.774.68","WebKit","Edge","89.0.774.68","Windows","10.0","null","<div style=""font-size:60px;"">+</div>","null",""
"","","","","","html-button-response","53","328999","0.0-4.0-1.24","14","1","2022-10-20 12:08:54","ebf9627b049f568eb4bf28942cb89901","113.78.213.129","Mozilla/5.0 (Windows NT 10.0; Win64; x64) AppleWebKit/537.36 (KHTML, like Gecko) Chrome/89.0.4389.114 Safari/537.36 Edg/89.0.774.68","WebKit","Edge","89.0.774.68","Windows","10.0","1566","<p>作为军队的指挥官，你可以选择发射导弹杀死 <strong>2名</strong> 敌国士兵，但会误杀附近的 <strong>1名</strong> 敌国平民。</p> <p>平民照片如下图所示。</p> <p></p> <img src='stimuli/faces/NFM1.jpg', style='max-width: 30%;'> </img> <p><strong>你是否选择发射武器？</strong></p>","1",""
"","","","","","html-keyboard-response","54","330002","0.0-4.0-0.25","14","1","2022-10-20 12:08:54","ebf9627b049f568eb4bf28942cb89901","113.78.213.129","Mozilla/5.0 (Windows NT 10.0; Win64; x64) AppleWebKit/537.36 (KHTML, like Gecko) Chrome/89.0.4389.114 Safari/537.36 Edg/89.0.774.68","WebKit","Edge","89.0.774.68","Windows","10.0","null","<div style=""font-size:60px;"">+</div>","null",""
"","","","","","html-button-response","55","350111","0.0-4.0-1.25","14","1","2022-10-20 12:08:54","ebf9627b049f568eb4bf28942cb89901","113.78.213.129","Mozilla/5.0 (Windows NT 10.0; Win64; x64) AppleWebKit/537.36 (KHTML, like Gecko) Chrome/89.0.4389.114 Safari/537.36 Edg/89.0.774.68","WebKit","Edge","89.0.774.68","Windows","10.0","20101","<p>作为军队的指挥官，你可以选择发射导弹杀死 <strong>7名</strong> 敌国士兵，但会误杀附近的 <strong>1名</strong> 敌国平民。</p> <p>平民照片如下图所示。</p> <p></p> <img src='stimuli/faces/NFM5.jpg', style='max-width: 30%;'> </img> <p><strong>你是否选择发射武器？</strong></p>","0",""
"","","","","","html-keyboard-response","56","351113","0.0-4.0-0.26","14","1","2022-10-20 12:08:54","ebf9627b049f568eb4bf28942cb89901","113.78.213.129","Mozilla/5.0 (Windows NT 10.0; Win64; x64) AppleWebKit/537.36 (KHTML, like Gecko) Chrome/89.0.4389.114 Safari/537.36 Edg/89.0.774.68","WebKit","Edge","89.0.774.68","Windows","10.0","null","<div style=""font-size:60px;"">+</div>","null",""
"","","","","","html-button-response","57","354751","0.0-4.0-1.26","14","1","2022-10-20 12:08:54","ebf9627b049f568eb4bf28942cb89901","113.78.213.129","Mozilla/5.0 (Windows NT 10.0; Win64; x64) AppleWebKit/537.36 (KHTML, like Gecko) Chrome/89.0.4389.114 Safari/537.36 Edg/89.0.774.68","WebKit","Edge","89.0.774.68","Windows","10.0","3636","<p>作为军队的指挥官，你可以选择发射导弹杀死 <strong>8名</strong> 敌国士兵，但会炸毁附近的 <strong>1棵</strong> 敌国树木。</p> <p>树木的照片如下图所示。</p> <p></p> <img src='stimuli/trees/5.png', style='max-width: 30%;'> </img> <p><strong>你是否选择发射武器？</strong></p>","0",""
"","","","","","html-keyboard-response","58","355754","0.0-4.0-0.27","14","1","2022-10-20 12:08:54","ebf9627b049f568eb4bf28942cb89901","113.78.213.129","Mozilla/5.0 (Windows NT 10.0; Win64; x64) AppleWebKit/537.36 (KHTML, like Gecko) Chrome/89.0.4389.114 Safari/537.36 Edg/89.0.774.68","WebKit","Edge","89.0.774.68","Windows","10.0","null","<div style=""font-size:60px;"">+</div>","null",""
"","","","","","html-button-response","59","357943","0.0-4.0-1.27","14","1","2022-10-20 12:08:54","ebf9627b049f568eb4bf28942cb89901","113.78.213.129","Mozilla/5.0 (Windows NT 10.0; Win64; x64) AppleWebKit/537.36 (KHTML, like Gecko) Chrome/89.0.4389.114 Safari/537.36 Edg/89.0.774.68","WebKit","Edge","89.0.774.68","Windows","10.0","2186","<p>作为军队的指挥官，你可以选择发射导弹杀死 <strong>1名</strong> 敌国士兵，但会误杀附近的 <strong>1名</strong> 敌国平民。</p> <p>平民照片如下图所示。</p> <p></p> <img src='stimuli/faces/NFM6.jpg', style='max-width: 30%;'> </img> <p><strong>你是否选择发射武器？</strong></p>","1",""
"","","","","","html-keyboard-response","60","358946","0.0-4.0-0.28","14","1","2022-10-20 12:08:54","ebf9627b049f568eb4bf28942cb89901","113.78.213.129","Mozilla/5.0 (Windows NT 10.0; Win64; x64) AppleWebKit/537.36 (KHTML, like Gecko) Chrome/89.0.4389.114 Safari/537.36 Edg/89.0.774.68","WebKit","Edge","89.0.774.68","Windows","10.0","null","<div style=""font-size:60px;"">+</div>","null",""
"","","","","","html-button-response","61","360399","0.0-4.0-1.28","14","1","2022-10-20 12:08:54","ebf9627b049f568eb4bf28942cb89901","113.78.213.129","Mozilla/5.0 (Windows NT 10.0; Win64; x64) AppleWebKit/537.36 (KHTML, like Gecko) Chrome/89.0.4389.114 Safari/537.36 Edg/89.0.774.68","WebKit","Edge","89.0.774.68","Windows","10.0","1448","<p>作为军队的指挥官，你可以选择发射导弹杀死 <strong>4名</strong> 敌国士兵，但会误杀附近的 <strong>1名</strong> 敌国平民。</p> <p>平民照片如下图所示。</p> <p></p> <img src='stimuli/faces/NFM3.jpg', style='max-width: 30%;'> </img> <p><strong>你是否选择发射武器？</strong></p>","1",""
"","","","","","html-keyboard-response","62","361404","0.0-4.0-0.29","14","1","2022-10-20 12:08:54","ebf9627b049f568eb4bf28942cb89901","113.78.213.129","Mozilla/5.0 (Windows NT 10.0; Win64; x64) AppleWebKit/537.36 (KHTML, like Gecko) Chrome/89.0.4389.114 Safari/537.36 Edg/89.0.774.68","WebKit","Edge","89.0.774.68","Windows","10.0","null","<div style=""font-size:60px;"">+</div>","null",""
"","","","","","html-button-response","63","362551","0.0-4.0-1.29","14","1","2022-10-20 12:08:54","ebf9627b049f568eb4bf28942cb89901","113.78.213.129","Mozilla/5.0 (Windows NT 10.0; Win64; x64) AppleWebKit/537.36 (KHTML, like Gecko) Chrome/89.0.4389.114 Safari/537.36 Edg/89.0.774.68","WebKit","Edge","89.0.774.68","Windows","10.0","1144","<p>作为军队的指挥官，你可以选择发射导弹杀死 <strong>7名</strong> 敌国士兵，但会炸毁附近的 <strong>1棵</strong> 敌国树木。</p> <p>树木的照片如下图所示。</p> <p></p> <img src='stimuli/trees/7.png', style='max-width: 30%;'> </img> <p><strong>你是否选择发射武器？</strong></p>","0",""
"","","","","","html-keyboard-response","64","363554","0.0-4.0-0.30","14","1","2022-10-20 12:08:54","ebf9627b049f568eb4bf28942cb89901","113.78.213.129","Mozilla/5.0 (Windows NT 10.0; Win64; x64) AppleWebKit/537.36 (KHTML, like Gecko) Chrome/89.0.4389.114 Safari/537.36 Edg/89.0.774.68","WebKit","Edge","89.0.774.68","Windows","10.0","null","<div style=""font-size:60px;"">+</div>","null",""
"","","","","","html-button-response","65","364951","0.0-4.0-1.30","14","1","2022-10-20 12:08:54","ebf9627b049f568eb4bf28942cb89901","113.78.213.129","Mozilla/5.0 (Windows NT 10.0; Win64; x64) AppleWebKit/537.36 (KHTML, like Gecko) Chrome/89.0.4389.114 Safari/537.36 Edg/89.0.774.68","WebKit","Edge","89.0.774.68","Windows","10.0","1394","<p>作为军队的指挥官，你可以选择发射导弹杀死 <strong>7名</strong> 敌国士兵，但会炸毁附近的 <strong>1棵</strong> 敌国树木。</p> <p>树木的照片如下图所示。</p> <p></p> <img src='stimuli/trees/3.png', style='max-width: 30%;'> </img> <p><strong>你是否选择发射武器？</strong></p>","0",""
"","","","","","html-keyboard-response","66","365955","0.0-4.0-0.31","14","1","2022-10-20 12:08:54","ebf9627b049f568eb4bf28942cb89901","113.78.213.129","Mozilla/5.0 (Windows NT 10.0; Win64; x64) AppleWebKit/537.36 (KHTML, like Gecko) Chrome/89.0.4389.114 Safari/537.36 Edg/89.0.774.68","WebKit","Edge","89.0.774.68","Windows","10.0","null","<div style=""font-size:60px;"">+</div>","null",""
"","","","","","html-button-response","67","367407","0.0-4.0-1.31","14","1","2022-10-20 12:08:54","ebf9627b049f568eb4bf28942cb89901","113.78.213.129","Mozilla/5.0 (Windows NT 10.0; Win64; x64) AppleWebKit/537.36 (KHTML, like Gecko) Chrome/89.0.4389.114 Safari/537.36 Edg/89.0.774.68","WebKit","Edge","89.0.774.68","Windows","10.0","1446","<p>作为军队的指挥官，你可以选择发射导弹杀死 <strong>1名</strong> 敌国士兵，但会炸毁附近的 <strong>1棵</strong> 敌国树木。</p> <p>树木的照片如下图所示。</p> <p></p> <img src='stimuli/trees/7.png', style='max-width: 30%;'> </img> <p><strong>你是否选择发射武器？</strong></p>","1",""
"","","","","","html-keyboard-response","68","368409","0.0-4.0-0.32","14","1","2022-10-20 12:08:54","ebf9627b049f568eb4bf28942cb89901","113.78.213.129","Mozilla/5.0 (Windows NT 10.0; Win64; x64) AppleWebKit/537.36 (KHTML, like Gecko) Chrome/89.0.4389.114 Safari/537.36 Edg/89.0.774.68","WebKit","Edge","89.0.774.68","Windows","10.0","null","<div style=""font-size:60px;"">+</div>","null",""
"","","","","","html-button-response","69","370223","0.0-4.0-1.32","14","1","2022-10-20 12:08:54","ebf9627b049f568eb4bf28942cb89901","113.78.213.129","Mozilla/5.0 (Windows NT 10.0; Win64; x64) AppleWebKit/537.36 (KHTML, like Gecko) Chrome/89.0.4389.114 Safari/537.36 Edg/89.0.774.68","WebKit","Edge","89.0.774.68","Windows","10.0","1809","<p>作为军队的指挥官，你可以选择发射导弹杀死 <strong>7名</strong> 敌国士兵，但会误杀附近的 <strong>1名</strong> 敌国平民。</p> <p>平民照片如下图所示。</p> <p></p> <img src='stimuli/faces/NFF1.jpg', style='max-width: 30%;'> </img> <p><strong>你是否选择发射武器？</strong></p>","0",""
"","","","","","html-keyboard-response","70","371226","0.0-4.0-0.33","14","1","2022-10-20 12:08:54","ebf9627b049f568eb4bf28942cb89901","113.78.213.129","Mozilla/5.0 (Windows NT 10.0; Win64; x64) AppleWebKit/537.36 (KHTML, like Gecko) Chrome/89.0.4389.114 Safari/537.36 Edg/89.0.774.68","WebKit","Edge","89.0.774.68","Windows","10.0","null","<div style=""font-size:60px;"">+</div>","null",""
"","","","","","html-button-response","71","372847","0.0-4.0-1.33","14","1","2022-10-20 12:08:54","ebf9627b049f568eb4bf28942cb89901","113.78.213.129","Mozilla/5.0 (Windows NT 10.0; Win64; x64) AppleWebKit/537.36 (KHTML, like Gecko) Chrome/89.0.4389.114 Safari/537.36 Edg/89.0.774.68","WebKit","Edge","89.0.774.68","Windows","10.0","1615","<p>作为军队的指挥官，你可以选择发射导弹杀死 <strong>4名</strong> 敌国士兵，但会炸毁附近的 <strong>1棵</strong> 敌国树木。</p> <p>树木的照片如下图所示。</p> <p></p> <img src='stimuli/trees/5.png', style='max-width: 30%;'> </img> <p><strong>你是否选择发射武器？</strong></p>","0",""
"","","","","","html-keyboard-response","72","373852","0.0-4.0-0.34","14","1","2022-10-20 12:08:54","ebf9627b049f568eb4bf28942cb89901","113.78.213.129","Mozilla/5.0 (Windows NT 10.0; Win64; x64) AppleWebKit/537.36 (KHTML, like Gecko) Chrome/89.0.4389.114 Safari/537.36 Edg/89.0.774.68","WebKit","Edge","89.0.774.68","Windows","10.0","null","<div style=""font-size:60px;"">+</div>","null",""
"","","","","","html-button-response","73","385271","0.0-4.0-1.34","14","1","2022-10-20 12:08:54","ebf9627b049f568eb4bf28942cb89901","113.78.213.129","Mozilla/5.0 (Windows NT 10.0; Win64; x64) AppleWebKit/537.36 (KHTML, like Gecko) Chrome/89.0.4389.114 Safari/537.36 Edg/89.0.774.68","WebKit","Edge","89.0.774.68","Windows","10.0","11414","<p>作为军队的指挥官，你可以选择发射导弹杀死 <strong>1名</strong> 敌国士兵，但会误杀附近的 <strong>1名</strong> 敌国平民。</p> <p>平民照片如下图所示。</p> <p></p> <img src='stimuli/faces/NFF3.jpg', style='max-width: 30%;'> </img> <p><strong>你是否选择发射武器？</strong></p>","1",""
"","","","","","html-keyboard-response","74","386275","0.0-4.0-0.35","14","1","2022-10-20 12:08:54","ebf9627b049f568eb4bf28942cb89901","113.78.213.129","Mozilla/5.0 (Windows NT 10.0; Win64; x64) AppleWebKit/537.36 (KHTML, like Gecko) Chrome/89.0.4389.114 Safari/537.36 Edg/89.0.774.68","WebKit","Edge","89.0.774.68","Windows","10.0","null","<div style=""font-size:60px;"">+</div>","null",""
"","","","","","html-button-response","75","400935","0.0-4.0-1.35","14","1","2022-10-20 12:08:54","ebf9627b049f568eb4bf28942cb89901","113.78.213.129","Mozilla/5.0 (Windows NT 10.0; Win64; x64) AppleWebKit/537.36 (KHTML, like Gecko) Chrome/89.0.4389.114 Safari/537.36 Edg/89.0.774.68","WebKit","Edge","89.0.774.68","Windows","10.0","14653","<p>作为军队的指挥官，你可以选择发射导弹杀死 <strong>4名</strong> 敌国士兵，但会误杀附近的 <strong>1名</strong> 敌国平民。</p> <p>平民照片如下图所示。</p> <p></p> <img src='stimuli/faces/NFF2.jpg', style='max-width: 30%;'> </img> <p><strong>你是否选择发射武器？</strong></p>","1",""
"","","","","","html-keyboard-response","76","401939","0.0-4.0-0.36","14","1","2022-10-20 12:08:54","ebf9627b049f568eb4bf28942cb89901","113.78.213.129","Mozilla/5.0 (Windows NT 10.0; Win64; x64) AppleWebKit/537.36 (KHTML, like Gecko) Chrome/89.0.4389.114 Safari/537.36 Edg/89.0.774.68","WebKit","Edge","89.0.774.68","Windows","10.0","null","<div style=""font-size:60px;"">+</div>","null",""
"","","","","","html-button-response","77","402935","0.0-4.0-1.36","14","1","2022-10-20 12:08:54","ebf9627b049f568eb4bf28942cb89901","113.78.213.129","Mozilla/5.0 (Windows NT 10.0; Win64; x64) AppleWebKit/537.36 (KHTML, like Gecko) Chrome/89.0.4389.114 Safari/537.36 Edg/89.0.774.68","WebKit","Edge","89.0.774.68","Windows","10.0","993","<p>作为军队的指挥官，你可以选择发射导弹杀死 <strong>7名</strong> 敌国士兵，但会误杀附近的 <strong>1名</strong> 敌国平民。</p> <p>平民照片如下图所示。</p> <p></p> <img src='stimuli/faces/NFM2.jpg', style='max-width: 30%;'> </img> <p><strong>你是否选择发射武器？</strong></p>","0",""
"","","","","","html-keyboard-response","78","403940","0.0-4.0-0.37","14","1","2022-10-20 12:08:54","ebf9627b049f568eb4bf28942cb89901","113.78.213.129","Mozilla/5.0 (Windows NT 10.0; Win64; x64) AppleWebKit/537.36 (KHTML, like Gecko) Chrome/89.0.4389.114 Safari/537.36 Edg/89.0.774.68","WebKit","Edge","89.0.774.68","Windows","10.0","null","<div style=""font-size:60px;"">+</div>","null",""
"","","","","","html-button-response","79","404672","0.0-4.0-1.37","14","1","2022-10-20 12:08:54","ebf9627b049f568eb4bf28942cb89901","113.78.213.129","Mozilla/5.0 (Windows NT 10.0; Win64; x64) AppleWebKit/537.36 (KHTML, like Gecko) Chrome/89.0.4389.114 Safari/537.36 Edg/89.0.774.68","WebKit","Edge","89.0.774.68","Windows","10.0","727","<p>作为军队的指挥官，你可以选择发射导弹杀死 <strong>9名</strong> 敌国士兵，但会误杀附近的 <strong>1名</strong> 敌国平民。</p> <p>平民照片如下图所示。</p> <p></p> <img src='stimuli/faces/NFF5.jpg', style='max-width: 30%;'> </img> <p><strong>你是否选择发射武器？</strong></p>","0",""
"","","","","","html-keyboard-response","80","405676","0.0-4.0-0.38","14","1","2022-10-20 12:08:54","ebf9627b049f568eb4bf28942cb89901","113.78.213.129","Mozilla/5.0 (Windows NT 10.0; Win64; x64) AppleWebKit/537.36 (KHTML, like Gecko) Chrome/89.0.4389.114 Safari/537.36 Edg/89.0.774.68","WebKit","Edge","89.0.774.68","Windows","10.0","null","<div style=""font-size:60px;"">+</div>","null",""
"","","","","","html-button-response","81","408639","0.0-4.0-1.38","14","1","2022-10-20 12:08:54","ebf9627b049f568eb4bf28942cb89901","113.78.213.129","Mozilla/5.0 (Windows NT 10.0; Win64; x64) AppleWebKit/537.36 (KHTML, like Gecko) Chrome/89.0.4389.114 Safari/537.36 Edg/89.0.774.68","WebKit","Edge","89.0.774.68","Windows","10.0","2959","<p>作为军队的指挥官，你可以选择发射导弹杀死 <strong>6名</strong> 敌国士兵，但会误杀附近的 <strong>1名</strong> 敌国平民。</p> <p>平民照片如下图所示。</p> <p></p> <img src='stimuli/faces/NFF4.jpg', style='max-width: 30%;'> </img> <p><strong>你是否选择发射武器？</strong></p>","0",""
"","","","","","html-keyboard-response","82","409644","0.0-4.0-0.39","14","1","2022-10-20 12:08:54","ebf9627b049f568eb4bf28942cb89901","113.78.213.129","Mozilla/5.0 (Windows NT 10.0; Win64; x64) AppleWebKit/537.36 (KHTML, like Gecko) Chrome/89.0.4389.114 Safari/537.36 Edg/89.0.774.68","WebKit","Edge","89.0.774.68","Windows","10.0","null","<div style=""font-size:60px;"">+</div>","null",""
"","","","","","html-button-response","83","411935","0.0-4.0-1.39","14","1","2022-10-20 12:08:54","ebf9627b049f568eb4bf28942cb89901","113.78.213.129","Mozilla/5.0 (Windows NT 10.0; Win64; x64) AppleWebKit/537.36 (KHTML, like Gecko) Chrome/89.0.4389.114 Safari/537.36 Edg/89.0.774.68","WebKit","Edge","89.0.774.68","Windows","10.0","2287","<p>作为军队的指挥官，你可以选择发射导弹杀死 <strong>1名</strong> 敌国士兵，但会误杀附近的 <strong>1名</strong> 敌国平民。</p> <p>平民照片如下图所示。</p> <p></p> <img src='stimuli/faces/NFF8.jpg', style='max-width: 30%;'> </img> <p><strong>你是否选择发射武器？</strong></p>","1",""
"","","","","","html-keyboard-response","84","412941","0.0-4.0-0.40","14","1","2022-10-20 12:08:54","ebf9627b049f568eb4bf28942cb89901","113.78.213.129","Mozilla/5.0 (Windows NT 10.0; Win64; x64) AppleWebKit/537.36 (KHTML, like Gecko) Chrome/89.0.4389.114 Safari/537.36 Edg/89.0.774.68","WebKit","Edge","89.0.774.68","Windows","10.0","null","<div style=""font-size:60px;"">+</div>","null",""
"","","","","","html-button-response","85","414935","0.0-4.0-1.40","14","1","2022-10-20 12:08:54","ebf9627b049f568eb4bf28942cb89901","113.78.213.129","Mozilla/5.0 (Windows NT 10.0; Win64; x64) AppleWebKit/537.36 (KHTML, like Gecko) Chrome/89.0.4389.114 Safari/537.36 Edg/89.0.774.68","WebKit","Edge","89.0.774.68","Windows","10.0","1988","<p>作为军队的指挥官，你可以选择发射导弹杀死 <strong>9名</strong> 敌国士兵，但会炸毁附近的 <strong>1棵</strong> 敌国树木。</p> <p>树木的照片如下图所示。</p> <p></p> <img src='stimuli/trees/16.png', style='max-width: 30%;'> </img> <p><strong>你是否选择发射武器？</strong></p>","0",""
"","","","","","html-keyboard-response","86","415938","0.0-4.0-0.41","14","1","2022-10-20 12:08:54","ebf9627b049f568eb4bf28942cb89901","113.78.213.129","Mozilla/5.0 (Windows NT 10.0; Win64; x64) AppleWebKit/537.36 (KHTML, like Gecko) Chrome/89.0.4389.114 Safari/537.36 Edg/89.0.774.68","WebKit","Edge","89.0.774.68","Windows","10.0","null","<div style=""font-size:60px;"">+</div>","null",""
"","","","","","html-button-response","87","417111","0.0-4.0-1.41","14","1","2022-10-20 12:08:54","ebf9627b049f568eb4bf28942cb89901","113.78.213.129","Mozilla/5.0 (Windows NT 10.0; Win64; x64) AppleWebKit/537.36 (KHTML, like Gecko) Chrome/89.0.4389.114 Safari/537.36 Edg/89.0.774.68","WebKit","Edge","89.0.774.68","Windows","10.0","1165","<p>作为军队的指挥官，你可以选择发射导弹杀死 <strong>9名</strong> 敌国士兵，但会误杀附近的 <strong>1名</strong> 敌国平民。</p> <p>平民照片如下图所示。</p> <p></p> <img src='stimuli/faces/NFM3.jpg', style='max-width: 30%;'> </img> <p><strong>你是否选择发射武器？</strong></p>","0",""
"","","","","","html-keyboard-response","88","418114","0.0-4.0-0.42","14","1","2022-10-20 12:08:54","ebf9627b049f568eb4bf28942cb89901","113.78.213.129","Mozilla/5.0 (Windows NT 10.0; Win64; x64) AppleWebKit/537.36 (KHTML, like Gecko) Chrome/89.0.4389.114 Safari/537.36 Edg/89.0.774.68","WebKit","Edge","89.0.774.68","Windows","10.0","null","<div style=""font-size:60px;"">+</div>","null",""
"","","","","","html-button-response","89","418807","0.0-4.0-1.42","14","1","2022-10-20 12:08:54","ebf9627b049f568eb4bf28942cb89901","113.78.213.129","Mozilla/5.0 (Windows NT 10.0; Win64; x64) AppleWebKit/537.36 (KHTML, like Gecko) Chrome/89.0.4389.114 Safari/537.36 Edg/89.0.774.68","WebKit","Edge","89.0.774.68","Windows","10.0","690","<p>作为军队的指挥官，你可以选择发射导弹杀死 <strong>7名</strong> 敌国士兵，但会炸毁附近的 <strong>1棵</strong> 敌国树木。</p> <p>树木的照片如下图所示。</p> <p></p> <img src='stimuli/trees/4.png', style='max-width: 30%;'> </img> <p><strong>你是否选择发射武器？</strong></p>","0",""
"","","","","","html-keyboard-response","90","419812","0.0-4.0-0.43","14","1","2022-10-20 12:08:54","ebf9627b049f568eb4bf28942cb89901","113.78.213.129","Mozilla/5.0 (Windows NT 10.0; Win64; x64) AppleWebKit/537.36 (KHTML, like Gecko) Chrome/89.0.4389.114 Safari/537.36 Edg/89.0.774.68","WebKit","Edge","89.0.774.68","Windows","10.0","null","<div style=""font-size:60px;"">+</div>","null",""
"","","","","","html-button-response","91","420791","0.0-4.0-1.43","14","1","2022-10-20 12:08:54","ebf9627b049f568eb4bf28942cb89901","113.78.213.129","Mozilla/5.0 (Windows NT 10.0; Win64; x64) AppleWebKit/537.36 (KHTML, like Gecko) Chrome/89.0.4389.114 Safari/537.36 Edg/89.0.774.68","WebKit","Edge","89.0.774.68","Windows","10.0","973","<p>作为军队的指挥官，你可以选择发射导弹杀死 <strong>2名</strong> 敌国士兵，但会误杀附近的 <strong>1名</strong> 敌国平民。</p> <p>平民照片如下图所示。</p> <p></p> <img src='stimuli/faces/NFM7.jpg', style='max-width: 30%;'> </img> <p><strong>你是否选择发射武器？</strong></p>","1",""
"","","","","","html-keyboard-response","92","421797","0.0-4.0-0.44","14","1","2022-10-20 12:08:54","ebf9627b049f568eb4bf28942cb89901","113.78.213.129","Mozilla/5.0 (Windows NT 10.0; Win64; x64) AppleWebKit/537.36 (KHTML, like Gecko) Chrome/89.0.4389.114 Safari/537.36 Edg/89.0.774.68","WebKit","Edge","89.0.774.68","Windows","10.0","null","<div style=""font-size:60px;"">+</div>","null",""
"","","","","","html-button-response","93","422983","0.0-4.0-1.44","14","1","2022-10-20 12:08:54","ebf9627b049f568eb4bf28942cb89901","113.78.213.129","Mozilla/5.0 (Windows NT 10.0; Win64; x64) AppleWebKit/537.36 (KHTML, like Gecko) Chrome/89.0.4389.114 Safari/537.36 Edg/89.0.774.68","WebKit","Edge","89.0.774.68","Windows","10.0","1182","<p>作为军队的指挥官，你可以选择发射导弹杀死 <strong>6名</strong> 敌国士兵，但会误杀附近的 <strong>1名</strong> 敌国平民。</p> <p>平民照片如下图所示。</p> <p></p> <img src='stimuli/faces/NFM6.jpg', style='max-width: 30%;'> </img> <p><strong>你是否选择发射武器？</strong></p>","0",""
"","","","","","html-keyboard-response","94","423988","0.0-4.0-0.45","14","1","2022-10-20 12:08:54","ebf9627b049f568eb4bf28942cb89901","113.78.213.129","Mozilla/5.0 (Windows NT 10.0; Win64; x64) AppleWebKit/537.36 (KHTML, like Gecko) Chrome/89.0.4389.114 Safari/537.36 Edg/89.0.774.68","WebKit","Edge","89.0.774.68","Windows","10.0","null","<div style=""font-size:60px;"">+</div>","null",""
"","","","","","html-button-response","95","425007","0.0-4.0-1.45","14","1","2022-10-20 12:08:54","ebf9627b049f568eb4bf28942cb89901","113.78.213.129","Mozilla/5.0 (Windows NT 10.0; Win64; x64) AppleWebKit/537.36 (KHTML, like Gecko) Chrome/89.0.4389.114 Safari/537.36 Edg/89.0.774.68","WebKit","Edge","89.0.774.68","Windows","10.0","1016","<p>作为军队的指挥官，你可以选择发射导弹杀死 <strong>5名</strong> 敌国士兵，但会炸毁附近的 <strong>1棵</strong> 敌国树木。</p> <p>树木的照片如下图所示。</p> <p></p> <img src='stimuli/trees/15.png', style='max-width: 30%;'> </img> <p><strong>你是否选择发射武器？</strong></p>","0",""
"","","","","","html-keyboard-response","96","426012","0.0-4.0-0.46","14","1","2022-10-20 12:08:54","ebf9627b049f568eb4bf28942cb89901","113.78.213.129","Mozilla/5.0 (Windows NT 10.0; Win64; x64) AppleWebKit/537.36 (KHTML, like Gecko) Chrome/89.0.4389.114 Safari/537.36 Edg/89.0.774.68","WebKit","Edge","89.0.774.68","Windows","10.0","null","<div style=""font-size:60px;"">+</div>","null",""
"","","","","","html-button-response","97","427104","0.0-4.0-1.46","14","1","2022-10-20 12:08:54","ebf9627b049f568eb4bf28942cb89901","113.78.213.129","Mozilla/5.0 (Windows NT 10.0; Win64; x64) AppleWebKit/537.36 (KHTML, like Gecko) Chrome/89.0.4389.114 Safari/537.36 Edg/89.0.774.68","WebKit","Edge","89.0.774.68","Windows","10.0","1086","<p>作为军队的指挥官，你可以选择发射导弹杀死 <strong>9名</strong> 敌国士兵，但会炸毁附近的 <strong>1棵</strong> 敌国树木。</p> <p>树木的照片如下图所示。</p> <p></p> <img src='stimuli/trees/9.png', style='max-width: 30%;'> </img> <p><strong>你是否选择发射武器？</strong></p>","0",""
"","","","","","html-keyboard-response","98","428108","0.0-4.0-0.47","14","1","2022-10-20 12:08:54","ebf9627b049f568eb4bf28942cb89901","113.78.213.129","Mozilla/5.0 (Windows NT 10.0; Win64; x64) AppleWebKit/537.36 (KHTML, like Gecko) Chrome/89.0.4389.114 Safari/537.36 Edg/89.0.774.68","WebKit","Edge","89.0.774.68","Windows","10.0","null","<div style=""font-size:60px;"">+</div>","null",""
"","","","","","html-button-response","99","429007","0.0-4.0-1.47","14","1","2022-10-20 12:08:54","ebf9627b049f568eb4bf28942cb89901","113.78.213.129","Mozilla/5.0 (Windows NT 10.0; Win64; x64) AppleWebKit/537.36 (KHTML, like Gecko) Chrome/89.0.4389.114 Safari/537.36 Edg/89.0.774.68","WebKit","Edge","89.0.774.68","Windows","10.0","889","<p>作为军队的指挥官，你可以选择发射导弹杀死 <strong>8名</strong> 敌国士兵，但会误杀附近的 <strong>1名</strong> 敌国平民。</p> <p>平民照片如下图所示。</p> <p></p> <img src='stimuli/faces/NFF2.jpg', style='max-width: 30%;'> </img> <p><strong>你是否选择发射武器？</strong></p>","0",""
"","","","","","html-keyboard-response","100","430012","0.0-4.0-0.48","14","1","2022-10-20 12:08:54","ebf9627b049f568eb4bf28942cb89901","113.78.213.129","Mozilla/5.0 (Windows NT 10.0; Win64; x64) AppleWebKit/537.36 (KHTML, like Gecko) Chrome/89.0.4389.114 Safari/537.36 Edg/89.0.774.68","WebKit","Edge","89.0.774.68","Windows","10.0","null","<div style=""font-size:60px;"">+</div>","null",""
"","","","","","html-button-response","101","431264","0.0-4.0-1.48","14","1","2022-10-20 12:08:54","ebf9627b049f568eb4bf28942cb89901","113.78.213.129","Mozilla/5.0 (Windows NT 10.0; Win64; x64) AppleWebKit/537.36 (KHTML, like Gecko) Chrome/89.0.4389.114 Safari/537.36 Edg/89.0.774.68","WebKit","Edge","89.0.774.68","Windows","10.0","1250","<p>作为军队的指挥官，你可以选择发射导弹杀死 <strong>2名</strong> 敌国士兵，但会误杀附近的 <strong>1名</strong> 敌国平民。</p> <p>平民照片如下图所示。</p> <p></p> <img src='stimuli/faces/NFF1.jpg', style='max-width: 30%;'> </img> <p><strong>你是否选择发射武器？</strong></p>","1",""
"","","","","","html-keyboard-response","102","432269","0.0-4.0-0.49","14","1","2022-10-20 12:08:54","ebf9627b049f568eb4bf28942cb89901","113.78.213.129","Mozilla/5.0 (Windows NT 10.0; Win64; x64) AppleWebKit/537.36 (KHTML, like Gecko) Chrome/89.0.4389.114 Safari/537.36 Edg/89.0.774.68","WebKit","Edge","89.0.774.68","Windows","10.0","null","<div style=""font-size:60px;"">+</div>","null",""
"","","","","","html-button-response","103","433431","0.0-4.0-1.49","14","1","2022-10-20 12:08:54","ebf9627b049f568eb4bf28942cb89901","113.78.213.129","Mozilla/5.0 (Windows NT 10.0; Win64; x64) AppleWebKit/537.36 (KHTML, like Gecko) Chrome/89.0.4389.114 Safari/537.36 Edg/89.0.774.68","WebKit","Edge","89.0.774.68","Windows","10.0","1155","<p>作为军队的指挥官，你可以选择发射导弹杀死 <strong>1名</strong> 敌国士兵，但会误杀附近的 <strong>1名</strong> 敌国平民。</p> <p>平民照片如下图所示。</p> <p></p> <img src='stimuli/faces/NFM8.jpg', style='max-width: 30%;'> </img> <p><strong>你是否选择发射武器？</strong></p>","1",""
"","","","","","html-keyboard-response","104","434440","0.0-4.0-0.50","14","1","2022-10-20 12:08:54","ebf9627b049f568eb4bf28942cb89901","113.78.213.129","Mozilla/5.0 (Windows NT 10.0; Win64; x64) AppleWebKit/537.36 (KHTML, like Gecko) Chrome/89.0.4389.114 Safari/537.36 Edg/89.0.774.68","WebKit","Edge","89.0.774.68","Windows","10.0","null","<div style=""font-size:60px;"">+</div>","null",""
"","","","","","html-button-response","105","437287","0.0-4.0-1.50","14","1","2022-10-20 12:08:54","ebf9627b049f568eb4bf28942cb89901","113.78.213.129","Mozilla/5.0 (Windows NT 10.0; Win64; x64) AppleWebKit/537.36 (KHTML, like Gecko) Chrome/89.0.4389.114 Safari/537.36 Edg/89.0.774.68","WebKit","Edge","89.0.774.68","Windows","10.0","2841","<p>作为军队的指挥官，你可以选择发射导弹杀死 <strong>4名</strong> 敌国士兵，但会炸毁附近的 <strong>1棵</strong> 敌国树木。</p> <p>树木的照片如下图所示。</p> <p></p> <img src='stimuli/trees/6.png', style='max-width: 30%;'> </img> <p><strong>你是否选择发射武器？</strong></p>","0",""
"","","","","","html-keyboard-response","106","438292","0.0-4.0-0.51","14","1","2022-10-20 12:08:54","ebf9627b049f568eb4bf28942cb89901","113.78.213.129","Mozilla/5.0 (Windows NT 10.0; Win64; x64) AppleWebKit/537.36 (KHTML, like Gecko) Chrome/89.0.4389.114 Safari/537.36 Edg/89.0.774.68","WebKit","Edge","89.0.774.68","Windows","10.0","null","<div style=""font-size:60px;"">+</div>","null",""
"","","","","","html-button-response","107","439903","0.0-4.0-1.51","14","1","2022-10-20 12:08:54","ebf9627b049f568eb4bf28942cb89901","113.78.213.129","Mozilla/5.0 (Windows NT 10.0; Win64; x64) AppleWebKit/537.36 (KHTML, like Gecko) Chrome/89.0.4389.114 Safari/537.36 Edg/89.0.774.68","WebKit","Edge","89.0.774.68","Windows","10.0","1603","<p>作为军队的指挥官，你可以选择发射导弹杀死 <strong>3名</strong> 敌国士兵，但会炸毁附近的 <strong>1棵</strong> 敌国树木。</p> <p>树木的照片如下图所示。</p> <p></p> <img src='stimuli/trees/1.png', style='max-width: 30%;'> </img> <p><strong>你是否选择发射武器？</strong></p>","1",""
"","","","","","html-keyboard-response","108","440909","0.0-4.0-0.52","14","1","2022-10-20 12:08:54","ebf9627b049f568eb4bf28942cb89901","113.78.213.129","Mozilla/5.0 (Windows NT 10.0; Win64; x64) AppleWebKit/537.36 (KHTML, like Gecko) Chrome/89.0.4389.114 Safari/537.36 Edg/89.0.774.68","WebKit","Edge","89.0.774.68","Windows","10.0","null","<div style=""font-size:60px;"">+</div>","null",""
"","","","","","html-button-response","109","442015","0.0-4.0-1.52","14","1","2022-10-20 12:08:54","ebf9627b049f568eb4bf28942cb89901","113.78.213.129","Mozilla/5.0 (Windows NT 10.0; Win64; x64) AppleWebKit/537.36 (KHTML, like Gecko) Chrome/89.0.4389.114 Safari/537.36 Edg/89.0.774.68","WebKit","Edge","89.0.774.68","Windows","10.0","1099","<p>作为军队的指挥官，你可以选择发射导弹杀死 <strong>4名</strong> 敌国士兵，但会炸毁附近的 <strong>1棵</strong> 敌国树木。</p> <p>树木的照片如下图所示。</p> <p></p> <img src='stimuli/trees/3.png', style='max-width: 30%;'> </img> <p><strong>你是否选择发射武器？</strong></p>","0",""
"","","","","","html-keyboard-response","110","443020","0.0-4.0-0.53","14","1","2022-10-20 12:08:54","ebf9627b049f568eb4bf28942cb89901","113.78.213.129","Mozilla/5.0 (Windows NT 10.0; Win64; x64) AppleWebKit/537.36 (KHTML, like Gecko) Chrome/89.0.4389.114 Safari/537.36 Edg/89.0.774.68","WebKit","Edge","89.0.774.68","Windows","10.0","null","<div style=""font-size:60px;"">+</div>","null",""
"","","","","","html-button-response","111","444127","0.0-4.0-1.53","14","1","2022-10-20 12:08:54","ebf9627b049f568eb4bf28942cb89901","113.78.213.129","Mozilla/5.0 (Windows NT 10.0; Win64; x64) AppleWebKit/537.36 (KHTML, like Gecko) Chrome/89.0.4389.114 Safari/537.36 Edg/89.0.774.68","WebKit","Edge","89.0.774.68","Windows","10.0","1101","<p>作为军队的指挥官，你可以选择发射导弹杀死 <strong>10名</strong> 敌国士兵，但会炸毁附近的 <strong>1棵</strong> 敌国树木。</p> <p>树木的照片如下图所示。</p> <p></p> <img src='stimuli/trees/15.png', style='max-width: 30%;'> </img> <p><strong>你是否选择发射武器？</strong></p>","0",""
"","","","","","html-keyboard-response","112","445130","0.0-4.0-0.54","14","1","2022-10-20 12:08:54","ebf9627b049f568eb4bf28942cb89901","113.78.213.129","Mozilla/5.0 (Windows NT 10.0; Win64; x64) AppleWebKit/537.36 (KHTML, like Gecko) Chrome/89.0.4389.114 Safari/537.36 Edg/89.0.774.68","WebKit","Edge","89.0.774.68","Windows","10.0","null","<div style=""font-size:60px;"">+</div>","null",""
"","","","","","html-button-response","113","448623","0.0-4.0-1.54","14","1","2022-10-20 12:08:54","ebf9627b049f568eb4bf28942cb89901","113.78.213.129","Mozilla/5.0 (Windows NT 10.0; Win64; x64) AppleWebKit/537.36 (KHTML, like Gecko) Chrome/89.0.4389.114 Safari/537.36 Edg/89.0.774.68","WebKit","Edge","89.0.774.68","Windows","10.0","3490","<p>作为军队的指挥官，你可以选择发射导弹杀死 <strong>5名</strong> 敌国士兵，但会误杀附近的 <strong>1名</strong> 敌国平民。</p> <p>平民照片如下图所示。</p> <p></p> <img src='stimuli/faces/NFM2.jpg', style='max-width: 30%;'> </img> <p><strong>你是否选择发射武器？</strong></p>","0",""
"","","","","","html-keyboard-response","114","449628","0.0-4.0-0.55","14","1","2022-10-20 12:08:54","ebf9627b049f568eb4bf28942cb89901","113.78.213.129","Mozilla/5.0 (Windows NT 10.0; Win64; x64) AppleWebKit/537.36 (KHTML, like Gecko) Chrome/89.0.4389.114 Safari/537.36 Edg/89.0.774.68","WebKit","Edge","89.0.774.68","Windows","10.0","null","<div style=""font-size:60px;"">+</div>","null",""
"","","","","","html-button-response","115","450575","0.0-4.0-1.55","14","1","2022-10-20 12:08:54","ebf9627b049f568eb4bf28942cb89901","113.78.213.129","Mozilla/5.0 (Windows NT 10.0; Win64; x64) AppleWebKit/537.36 (KHTML, like Gecko) Chrome/89.0.4389.114 Safari/537.36 Edg/89.0.774.68","WebKit","Edge","89.0.774.68","Windows","10.0","943","<p>作为军队的指挥官，你可以选择发射导弹杀死 <strong>8名</strong> 敌国士兵，但会炸毁附近的 <strong>1棵</strong> 敌国树木。</p> <p>树木的照片如下图所示。</p> <p></p> <img src='stimuli/trees/13.png', style='max-width: 30%;'> </img> <p><strong>你是否选择发射武器？</strong></p>","0",""
"","","","","","html-keyboard-response","116","451580","0.0-4.0-0.56","14","1","2022-10-20 12:08:54","ebf9627b049f568eb4bf28942cb89901","113.78.213.129","Mozilla/5.0 (Windows NT 10.0; Win64; x64) AppleWebKit/537.36 (KHTML, like Gecko) Chrome/89.0.4389.114 Safari/537.36 Edg/89.0.774.68","WebKit","Edge","89.0.774.68","Windows","10.0","null","<div style=""font-size:60px;"">+</div>","null",""
"","","","","","html-button-response","117","452527","0.0-4.0-1.56","14","1","2022-10-20 12:08:54","ebf9627b049f568eb4bf28942cb89901","113.78.213.129","Mozilla/5.0 (Windows NT 10.0; Win64; x64) AppleWebKit/537.36 (KHTML, like Gecko) Chrome/89.0.4389.114 Safari/537.36 Edg/89.0.774.68","WebKit","Edge","89.0.774.68","Windows","10.0","942","<p>作为军队的指挥官，你可以选择发射导弹杀死 <strong>7名</strong> 敌国士兵，但会炸毁附近的 <strong>1棵</strong> 敌国树木。</p> <p>树木的照片如下图所示。</p> <p></p> <img src='stimuli/trees/2.png', style='max-width: 30%;'> </img> <p><strong>你是否选择发射武器？</strong></p>","0",""
"","","","","","html-keyboard-response","118","453532","0.0-4.0-0.57","14","1","2022-10-20 12:08:54","ebf9627b049f568eb4bf28942cb89901","113.78.213.129","Mozilla/5.0 (Windows NT 10.0; Win64; x64) AppleWebKit/537.36 (KHTML, like Gecko) Chrome/89.0.4389.114 Safari/537.36 Edg/89.0.774.68","WebKit","Edge","89.0.774.68","Windows","10.0","null","<div style=""font-size:60px;"">+</div>","null",""
"","","","","","html-button-response","119","454592","0.0-4.0-1.57","14","1","2022-10-20 12:08:54","ebf9627b049f568eb4bf28942cb89901","113.78.213.129","Mozilla/5.0 (Windows NT 10.0; Win64; x64) AppleWebKit/537.36 (KHTML, like Gecko) Chrome/89.0.4389.114 Safari/537.36 Edg/89.0.774.68","WebKit","Edge","89.0.774.68","Windows","10.0","1053","<p>作为军队的指挥官，你可以选择发射导弹杀死 <strong>7名</strong> 敌国士兵，但会炸毁附近的 <strong>1棵</strong> 敌国树木。</p> <p>树木的照片如下图所示。</p> <p></p> <img src='stimuli/trees/14.png', style='max-width: 30%;'> </img> <p><strong>你是否选择发射武器？</strong></p>","0",""
"","","","","","html-keyboard-response","120","455595","0.0-4.0-0.58","14","1","2022-10-20 12:08:54","ebf9627b049f568eb4bf28942cb89901","113.78.213.129","Mozilla/5.0 (Windows NT 10.0; Win64; x64) AppleWebKit/537.36 (KHTML, like Gecko) Chrome/89.0.4389.114 Safari/537.36 Edg/89.0.774.68","WebKit","Edge","89.0.774.68","Windows","10.0","null","<div style=""font-size:60px;"">+</div>","null",""
"","","","","","html-button-response","121","456791","0.0-4.0-1.58","14","1","2022-10-20 12:08:54","ebf9627b049f568eb4bf28942cb89901","113.78.213.129","Mozilla/5.0 (Windows NT 10.0; Win64; x64) AppleWebKit/537.36 (KHTML, like Gecko) Chrome/89.0.4389.114 Safari/537.36 Edg/89.0.774.68","WebKit","Edge","89.0.774.68","Windows","10.0","1193","<p>作为军队的指挥官，你可以选择发射导弹杀死 <strong>5名</strong> 敌国士兵，但会炸毁附近的 <strong>1棵</strong> 敌国树木。</p> <p>树木的照片如下图所示。</p> <p></p> <img src='stimuli/trees/8.png', style='max-width: 30%;'> </img> <p><strong>你是否选择发射武器？</strong></p>","0",""
"","","","","","html-keyboard-response","122","457796","0.0-4.0-0.59","14","1","2022-10-20 12:08:54","ebf9627b049f568eb4bf28942cb89901","113.78.213.129","Mozilla/5.0 (Windows NT 10.0; Win64; x64) AppleWebKit/537.36 (KHTML, like Gecko) Chrome/89.0.4389.114 Safari/537.36 Edg/89.0.774.68","WebKit","Edge","89.0.774.68","Windows","10.0","null","<div style=""font-size:60px;"">+</div>","null",""
"","","","","","html-button-response","123","459687","0.0-4.0-1.59","14","1","2022-10-20 12:08:54","ebf9627b049f568eb4bf28942cb89901","113.78.213.129","Mozilla/5.0 (Windows NT 10.0; Win64; x64) AppleWebKit/537.36 (KHTML, like Gecko) Chrome/89.0.4389.114 Safari/537.36 Edg/89.0.774.68","WebKit","Edge","89.0.774.68","Windows","10.0","1887","<p>作为军队的指挥官，你可以选择发射导弹杀死 <strong>4名</strong> 敌国士兵，但会误杀附近的 <strong>1名</strong> 敌国平民。</p> <p>平民照片如下图所示。</p> <p></p> <img src='stimuli/faces/NFF4.jpg', style='max-width: 30%;'> </img> <p><strong>你是否选择发射武器？</strong></p>","1",""
"","","","","","html-keyboard-response","124","460693","0.0-4.0-0.60","14","1","2022-10-20 12:08:54","ebf9627b049f568eb4bf28942cb89901","113.78.213.129","Mozilla/5.0 (Windows NT 10.0; Win64; x64) AppleWebKit/537.36 (KHTML, like Gecko) Chrome/89.0.4389.114 Safari/537.36 Edg/89.0.774.68","WebKit","Edge","89.0.774.68","Windows","10.0","null","<div style=""font-size:60px;"">+</div>","null",""
"","","","","","html-button-response","125","462103","0.0-4.0-1.60","14","1","2022-10-20 12:08:54","ebf9627b049f568eb4bf28942cb89901","113.78.213.129","Mozilla/5.0 (Windows NT 10.0; Win64; x64) AppleWebKit/537.36 (KHTML, like Gecko) Chrome/89.0.4389.114 Safari/537.36 Edg/89.0.774.68","WebKit","Edge","89.0.774.68","Windows","10.0","1398","<p>作为军队的指挥官，你可以选择发射导弹杀死 <strong>2名</strong> 敌国士兵，但会炸毁附近的 <strong>1棵</strong> 敌国树木。</p> <p>树木的照片如下图所示。</p> <p></p> <img src='stimuli/trees/9.png', style='max-width: 30%;'> </img> <p><strong>你是否选择发射武器？</strong></p>","1",""
"","","","","","html-keyboard-response","126","463109","0.0-4.0-0.61","14","1","2022-10-20 12:08:54","ebf9627b049f568eb4bf28942cb89901","113.78.213.129","Mozilla/5.0 (Windows NT 10.0; Win64; x64) AppleWebKit/537.36 (KHTML, like Gecko) Chrome/89.0.4389.114 Safari/537.36 Edg/89.0.774.68","WebKit","Edge","89.0.774.68","Windows","10.0","null","<div style=""font-size:60px;"">+</div>","null",""
"","","","","","html-button-response","127","464335","0.0-4.0-1.61","14","1","2022-10-20 12:08:54","ebf9627b049f568eb4bf28942cb89901","113.78.213.129","Mozilla/5.0 (Windows NT 10.0; Win64; x64) AppleWebKit/537.36 (KHTML, like Gecko) Chrome/89.0.4389.114 Safari/537.36 Edg/89.0.774.68","WebKit","Edge","89.0.774.68","Windows","10.0","1220","<p>作为军队的指挥官，你可以选择发射导弹杀死 <strong>10名</strong> 敌国士兵，但会炸毁附近的 <strong>1棵</strong> 敌国树木。</p> <p>树木的照片如下图所示。</p> <p></p> <img src='stimuli/trees/11.png', style='max-width: 30%;'> </img> <p><strong>你是否选择发射武器？</strong></p>","0",""
"","","","","","html-keyboard-response","128","465341","0.0-4.0-0.62","14","1","2022-10-20 12:08:54","ebf9627b049f568eb4bf28942cb89901","113.78.213.129","Mozilla/5.0 (Windows NT 10.0; Win64; x64) AppleWebKit/537.36 (KHTML, like Gecko) Chrome/89.0.4389.114 Safari/537.36 Edg/89.0.774.68","WebKit","Edge","89.0.774.68","Windows","10.0","null","<div style=""font-size:60px;"">+</div>","null",""
"","","","","","html-button-response","129","467335","0.0-4.0-1.62","14","1","2022-10-20 12:08:54","ebf9627b049f568eb4bf28942cb89901","113.78.213.129","Mozilla/5.0 (Windows NT 10.0; Win64; x64) AppleWebKit/537.36 (KHTML, like Gecko) Chrome/89.0.4389.114 Safari/537.36 Edg/89.0.774.68","WebKit","Edge","89.0.774.68","Windows","10.0","1985","<p>作为军队的指挥官，你可以选择发射导弹杀死 <strong>4名</strong> 敌国士兵，但会炸毁附近的 <strong>1棵</strong> 敌国树木。</p> <p>树木的照片如下图所示。</p> <p></p> <img src='stimuli/trees/16.png', style='max-width: 30%;'> </img> <p><strong>你是否选择发射武器？</strong></p>","1",""
"","","","","","html-keyboard-response","130","468342","0.0-4.0-0.63","14","1","2022-10-20 12:08:54","ebf9627b049f568eb4bf28942cb89901","113.78.213.129","Mozilla/5.0 (Windows NT 10.0; Win64; x64) AppleWebKit/537.36 (KHTML, like Gecko) Chrome/89.0.4389.114 Safari/537.36 Edg/89.0.774.68","WebKit","Edge","89.0.774.68","Windows","10.0","null","<div style=""font-size:60px;"">+</div>","null",""
"","","","","","html-button-response","131","469919","0.0-4.0-1.63","14","1","2022-10-20 12:08:54","ebf9627b049f568eb4bf28942cb89901","113.78.213.129","Mozilla/5.0 (Windows NT 10.0; Win64; x64) AppleWebKit/537.36 (KHTML, like Gecko) Chrome/89.0.4389.114 Safari/537.36 Edg/89.0.774.68","WebKit","Edge","89.0.774.68","Windows","10.0","1569","<p>作为军队的指挥官，你可以选择发射导弹杀死 <strong>5名</strong> 敌国士兵，但会误杀附近的 <strong>1名</strong> 敌国平民。</p> <p>平民照片如下图所示。</p> <p></p> <img src='stimuli/faces/NFF7.jpg', style='max-width: 30%;'> </img> <p><strong>你是否选择发射武器？</strong></p>","1",""
"","","","","","survey-multi-choice","132","476240","0.0-5.0","14","1","2022-10-20 12:08:54","ebf9627b049f568eb4bf28942cb89901","113.78.213.129","Mozilla/5.0 (Windows NT 10.0; Win64; x64) AppleWebKit/537.36 (KHTML, like Gecko) Chrome/89.0.4389.114 Safari/537.36 Edg/89.0.774.68","WebKit","Edge","89.0.774.68","Windows","10.0","6313","","{""Attention1"":""""}","[0]"
"","","","","","html-button-response","133","512183","0.0-6.0","14","1","2022-10-20 12:08:54","ebf9627b049f568eb4bf28942cb89901","113.78.213.129","Mozilla/5.0 (Windows NT 10.0; Win64; x64) AppleWebKit/537.36 (KHTML, like Gecko) Chrome/89.0.4389.114 Safari/537.36 Edg/89.0.774.68","WebKit","Edge","89.0.774.68","Windows","10.0","35934","<p style=""font-size:20px;font-weight:bold;"">恭喜！</p><p>你已经完成了实验的第一部分。</p><p>请休息放松一下，然后进入第二部分。</p><p>这部分大约需要10分钟。</p>","0",""
"","","","","","survey-text","134","588464","0.0-7.0","14","1","2022-10-20 12:08:54","ebf9627b049f568eb4bf28942cb89901","113.78.213.129","Mozilla/5.0 (Windows NT 10.0; Win64; x64) AppleWebKit/537.36 (KHTML, like Gecko) Chrome/89.0.4389.114 Safari/537.36 Edg/89.0.774.68","WebKit","Edge","89.0.774.68","Windows","10.0","75265","","{""Age"":""21"",""Nation"":""中国"",""Born"":""广东省深圳市"",""Live"":""广东省深圳市"",""Ethnic"":""汉族"",""Alipay"":""15815126455""}",""
"","","","","","survey-multi-choice","135","610713","0.0-8.0","14","1","2022-10-20 12:08:54","ebf9627b049f568eb4bf28942cb89901","113.78.213.129","Mozilla/5.0 (Windows NT 10.0; Win64; x64) AppleWebKit/537.36 (KHTML, like Gecko) Chrome/89.0.4389.114 Safari/537.36 Edg/89.0.774.68","WebKit","Edge","89.0.774.68","Windows","10.0","22241","","{""Gender"":""女"",""Education"":""本科毕业"",""Income"":""￥140,000-￥269,999"",""Children"":""0"",""Race"":""亚洲人""}","[0,1,2,3,4]"
"","","","","","survey-multi-select","136","617160","0.0-9.0","14","1","2022-10-20 12:08:54","ebf9627b049f568eb4bf28942cb89901","113.78.213.129","Mozilla/5.0 (Windows NT 10.0; Win64; x64) AppleWebKit/537.36 (KHTML, like Gecko) Chrome/89.0.4389.114 Safari/537.36 Edg/89.0.774.68","WebKit","Edge","89.0.774.68","Windows","10.0","6438","","{""Marriage"":[""未婚""],""Religion"":[""无宗教信仰""]}","[0,1]"
"","","","","","survey-multi-choice","137","620864","0.0-10.0","14","1","2022-10-20 12:08:54","ebf9627b049f568eb4bf28942cb89901","113.78.213.129","Mozilla/5.0 (Windows NT 10.0; Win64; x64) AppleWebKit/537.36 (KHTML, like Gecko) Chrome/89.0.4389.114 Safari/537.36 Edg/89.0.774.68","WebKit","Edge","89.0.774.68","Windows","10.0","3696","","{""SES"":""6""}","[0]"
"","","","","","html-button-response","138","624087","0.0-11.0","14","1","2022-10-20 12:08:54","ebf9627b049f568eb4bf28942cb89901","113.78.213.129","Mozilla/5.0 (Windows NT 10.0; Win64; x64) AppleWebKit/537.36 (KHTML, like Gecko) Chrome/89.0.4389.114 Safari/537.36 Edg/89.0.774.68","WebKit","Edge","89.0.774.68","Windows","10.0","3214","<p><strong>请判断下列陈述在多大程度上可以形容你？</p><p> (1 = ""和我一点都不像"" to 5 = ""非常像我"".)</strong></p>","0",""
"","","","","","survey-likert","139","715666","0.0-12.0","14","1","2022-10-20 12:08:54","ebf9627b049f568eb4bf28942cb89901","113.78.213.129","Mozilla/5.0 (Windows NT 10.0; Win64; x64) AppleWebKit/537.36 (KHTML, like Gecko) Chrome/89.0.4389.114 Safari/537.36 Edg/89.0.774.68","WebKit","Edge","89.0.774.68","Windows","10.0","91570","","{""Aggression1"":1,""Aggression2"":3,""Aggression3"":4,""Aggression4"":0,""Aggression5"":2,""Aggression6"":3,""Aggression7"":1,""Aggression8"":0,""Aggression9"":0}","[0,1,2,3,4,5,6,7,8]"
"","","","","","html-button-response","140","716927","0.0-13.0","14","1","2022-10-20 12:08:54","ebf9627b049f568eb4bf28942cb89901","113.78.213.129","Mozilla/5.0 (Windows NT 10.0; Win64; x64) AppleWebKit/537.36 (KHTML, like Gecko) Chrome/89.0.4389.114 Safari/537.36 Edg/89.0.774.68","WebKit","Edge","89.0.774.68","Windows","10.0","1254","<p><strong>请判断你在多大程度上同意下列陈述。</strong></p>","0",""
"","","","","","survey-likert","141","854541","0.0-14.0","14","1","2022-10-20 12:08:54","ebf9627b049f568eb4bf28942cb89901","113.78.213.129","Mozilla/5.0 (Windows NT 10.0; Win64; x64) AppleWebKit/537.36 (KHTML, like Gecko) Chrome/89.0.4389.114 Safari/537.36 Edg/89.0.774.68","WebKit","Edge","89.0.774.68","Windows","10.0","137604","","{""scale18"":1,""scale15"":2,""scale13"":2,""scale4"":1,""scale8"":4,""scale21"":3,""scale3"":2,""scale1"":0,""scale5"":0,""scale12"":2,""scale22"":1,""scale23"":1,""scale27"":0,""scale16"":0,""scale14"":3,""scale7"":2,""scale10"":1,""scale24"":0,""scale20"":1,""scale25"":3,""scale2"":2,""scale28"":1,""scale11"":4,""scale26"":2,""scale19"":2,""scale17"":1,""scale9"":2,""scale6"":1}","[17,14,12,3,7,20,2,0,4,11,21,22,26,15,13,6,9,23,19,24,1,27,10,25,18,16,8,5]"
"","","","","","html-button-response","142","857223","0.0-15.0","14","1","2022-10-20 12:08:54","ebf9627b049f568eb4bf28942cb89901","113.78.213.129","Mozilla/5.0 (Windows NT 10.0; Win64; x64) AppleWebKit/537.36 (KHTML, like Gecko) Chrome/89.0.4389.114 Safari/537.36 Edg/89.0.774.68","WebKit","Edge","89.0.774.68","Windows","10.0","2673","<p><strong>请判断你在多大程度上同意下列陈述。</strong></p>","0",""
"","","","","","survey-likert","143","976203","0.0-16.0","14","1","2022-10-20 12:08:54","ebf9627b049f568eb4bf28942cb89901","113.78.213.129","Mozilla/5.0 (Windows NT 10.0; Win64; x64) AppleWebKit/537.36 (KHTML, like Gecko) Chrome/89.0.4389.114 Safari/537.36 Edg/89.0.774.68","WebKit","Edge","89.0.774.68","Windows","10.0","118971","","{""sdo3"":4,""sdo11"":5,""sdo13"":5,""sdo2"":0,""sdo10"":4,""sdo6"":1,""sdo4"":0,""sdo5"":2,""sdo9"":4,""sdo16"":5,""sdo14"":4,""sdo7"":1,""sdo12"":4,""sdo1"":0,""sdo15"":4,""sdo8"":1}","[2,10,12,1,9,5,3,4,8,15,13,6,11,0,14,7]"
"","","","","","html-button-response","144","977215","0.0-17.0","14","1","2022-10-20 12:08:54","ebf9627b049f568eb4bf28942cb89901","113.78.213.129","Mozilla/5.0 (Windows NT 10.0; Win64; x64) AppleWebKit/537.36 (KHTML, like Gecko) Chrome/89.0.4389.114 Safari/537.36 Edg/89.0.774.68","WebKit","Edge","89.0.774.68","Windows","10.0","1006","<p><strong>请判断你在多大程度上同意下列陈述。</strong></p>","0",""
"","","","","","survey-likert","145","1010794","0.0-18.0","14","1","2022-10-20 12:08:54","ebf9627b049f568eb4bf28942cb89901","113.78.213.129","Mozilla/5.0 (Windows NT 10.0; Win64; x64) AppleWebKit/537.36 (KHTML, like Gecko) Chrome/89.0.4389.114 Safari/537.36 Edg/89.0.774.68","WebKit","Edge","89.0.774.68","Windows","10.0","33571","","{""caring1"":1,""liking1"":2,""caring2"":3,""protection1"":3,""liking2"":4,""caring3"":1,""protection2"":2,""liking3"":3,""protection3"":4,""caring4"":1,""liking4"":3,""protection4"":3,""caring5"":2,""liking5"":4,""protection5"":2}","[0,1,2,3,4,5,6,7,8,9,10,11,12,13,14]"
"","","","","","html-button-response","146","1012759","0.0-19.0","14","1","2022-10-20 12:08:54","ebf9627b049f568eb4bf28942cb89901","113.78.213.129","Mozilla/5.0 (Windows NT 10.0; Win64; x64) AppleWebKit/537.36 (KHTML, like Gecko) Chrome/89.0.4389.114 Safari/537.36 Edg/89.0.774.68","WebKit","Edge","89.0.774.68","Windows","10.0","1958","<p><strong>请判断下列场景中你的内心感受有多柔软。</strong></p>","0",""
"","","","","","survey-likert","147","1053081","0.0-20.0","14","1","2022-10-20 12:08:54","ebf9627b049f568eb4bf28942cb89901","113.78.213.129","Mozilla/5.0 (Windows NT 10.0; Win64; x64) AppleWebKit/537.36 (KHTML, like Gecko) Chrome/89.0.4389.114 Safari/537.36 Edg/89.0.774.68","WebKit","Edge","89.0.774.68","Windows","10.0","40318","","{""tenderness-positive1"":3,""tenderness-negative1"":1,""tenderness-negative2"":0,""tenderness-positive2"":3,""tenderness-positive3"":2,""tenderness-negative3"":0,""tenderness-positive4"":3,""tendereness-negative4"":4,""tendernness-negative5"":1,""tenderness-positive5"":4}","[0,1,2,3,4,5,6,7,8,9]"
"","","","","","survey-multi-choice","148","1063194","0.0-21.0","14","1","2022-10-20 12:08:54","ebf9627b049f568eb4bf28942cb89901","113.78.213.129","Mozilla/5.0 (Windows NT 10.0; Win64; x64) AppleWebKit/537.36 (KHTML, like Gecko) Chrome/89.0.4389.114 Safari/537.36 Edg/89.0.774.68","WebKit","Edge","89.0.774.68","Windows","10.0","10105","","{""Attention2"":""其他""}","[0]"
"","","","","","html-button-response","149","1064359","0.0-22.0","14","1","2022-10-20 12:08:54","ebf9627b049f568eb4bf28942cb89901","113.78.213.129","Mozilla/5.0 (Windows NT 10.0; Win64; x64) AppleWebKit/537.36 (KHTML, like Gecko) Chrome/89.0.4389.114 Safari/537.36 Edg/89.0.774.68","WebKit","Edge","89.0.774.68","Windows","10.0","1156","<p><strong>请判断你在多大程度上同意下列陈述。</strong></p>","0",""
"","","","","","survey-likert","150","1134035","0.0-23.0","14","1","2022-10-20 12:08:54","ebf9627b049f568eb4bf28942cb89901","113.78.213.129","Mozilla/5.0 (Windows NT 10.0; Win64; x64) AppleWebKit/537.36 (KHTML, like Gecko) Chrome/89.0.4389.114 Safari/537.36 Edg/89.0.774.68","WebKit","Edge","89.0.774.68","Windows","10.0","69666","","{""Nation5"":0,""Patri3"":3,""Nation7"":4,""Patri8"":4,""Patri5"":4,""Nation6"":3,""Nation4"":1,""Nation2"":4,""Patri7"":4,""Nation8"":0,""Nation3"":1,""Patri9"":1,""Patri6"":1,""Patri10"":0,""Patri11"":0,""Patri1"":4,""Nation1"":0,""Patri12"":2,""Patri4"":3,""Patri2"":4}","[16,2,18,7,4,17,15,13,6,19,14,8,5,9,10,0,12,11,3,1]"
"","","","","","html-button-response","151","1135215","0.0-24.0","14","1","2022-10-20 12:08:54","ebf9627b049f568eb4bf28942cb89901","113.78.213.129","Mozilla/5.0 (Windows NT 10.0; Win64; x64) AppleWebKit/537.36 (KHTML, like Gecko) Chrome/89.0.4389.114 Safari/537.36 Edg/89.0.774.68","WebKit","Edge","89.0.774.68","Windows","10.0","1170","<p><strong>请判断你在多大程度上同意下列陈述。</strong></p>","0",""
"","","","","","survey-likert","152","1183861","0.0-25.0","14","1","2022-10-20 12:08:54","ebf9627b049f568eb4bf28942cb89901","113.78.213.129","Mozilla/5.0 (Windows NT 10.0; Win64; x64) AppleWebKit/537.36 (KHTML, like Gecko) Chrome/89.0.4389.114 Safari/537.36 Edg/89.0.774.68","WebKit","Edge","89.0.774.68","Windows","10.0","48636","","{""vc2"":6,""hc1"":7,""hi4"":5,""vc1"":7,""hc2"":5,""hi1"":7,""hi3"":3,""hi2"":5,""vi2"":5,""hc3"":6,""hc4"":4,""vc4"":6,""vi1"":5,""Robot"":6,""vc3"":5,""vi3"":8,""vi4"":0}","[14,9,3,13,10,0,2,1,5,11,12,16,4,7,15,6,8]"
"","","","","","survey-text","153","1191959","0.0-26.0","14","1","2022-10-20 12:08:54","ebf9627b049f568eb4bf28942cb89901","113.78.213.129","Mozilla/5.0 (Windows NT 10.0; Win64; x64) AppleWebKit/537.36 (KHTML, like Gecko) Chrome/89.0.4389.114 Safari/537.36 Edg/89.0.774.68","WebKit","Edge","89.0.774.68","Windows","10.0","8076","","{""Comments"":""无""}",""
"","","","","","html-button-response","154","1193167","0.0-27.0","14","1","2022-10-20 12:08:54","ebf9627b049f568eb4bf28942cb89901","113.78.213.129","Mozilla/5.0 (Windows NT 10.0; Win64; x64) AppleWebKit/537.36 (KHTML, like Gecko) Chrome/89.0.4389.114 Safari/537.36 Edg/89.0.774.68","WebKit","Edge","89.0.774.68","Windows","10.0","1200","<strong><p>恭喜你完成了实验！</p><p>感谢您的参与。</p></strong>","0",""
