"success","timeout","failed_images","failed_audio","failed_video","trial_type","trial_index","time_elapsed","internal_node_id","run_id","condition","recorded_at","source_code_version","ip","user_agent","device","browser","browser_version","platform","platform_version","rt","stimulus","response","question_order"
"true","false","[]","[]","[]","preload","0","990","0.0-0.0","21","1","2022-10-23 08:35:01","ebf9627b049f568eb4bf28942cb89901","123.12.237.57","Mozilla/5.0 (Windows NT 10.0; WOW64) AppleWebKit/537.36 (KHTML, like Gecko) Chrome/86.0.4240.198 Safari/537.36","WebKit","Chrome","86.0.4240.198","Windows","10.0","","","",""
"true","","","","","fullscreen","1","3415","0.0-1.0","21","1","2022-10-23 08:35:01","ebf9627b049f568eb4bf28942cb89901","123.12.237.57","Mozilla/5.0 (Windows NT 10.0; WOW64) AppleWebKit/537.36 (KHTML, like Gecko) Chrome/86.0.4240.198 Safari/537.36","WebKit","Chrome","86.0.4240.198","Windows","10.0","","","",""
"","","","","","html-button-response","2","160666","0.0-2.0","21","1","2022-10-23 08:35:01","ebf9627b049f568eb4bf28942cb89901","123.12.237.57","Mozilla/5.0 (Windows NT 10.0; WOW64) AppleWebKit/537.36 (KHTML, like Gecko) Chrome/86.0.4240.198 Safari/537.36","WebKit","Chrome","86.0.4240.198","Windows","10.0","157250","<p style=""font-size:20px;font-weight:bold;"">实验知情同意书</p><p style=""text-align:left;""><strong>实验名称：</strong>社会冲突研究</p><p style=""text-align:left;""><strong>主要研究者：</strong>韩晓春副教授（北京师范大学心理学部）</p><p style=""text-align:left;""><strong>联系方式：</strong>发送邮件至xiaochun.han@bnu.edu.cn</p><p style=""text-align:left;""><strong>研究目的：</strong>研究旨在了解人类面对群体冲突时的决策方式，以及相关的心理学特质。实验调查大约需要20分钟。</p><p style=""text-align:left;""><strong>实验流程：</strong>实验包含两部分。第一部分呈现一系列群体冲突场景，请你决定如何对这些冲突进行反应，大约需要10分钟完成。第二部分包含一系列人口统计学信息收集和心理学问卷，大约需要10分钟完成。</p><p style=""text-align:left;""><strong>参加及退出规则：</strong>参加本实验完全取决于您的个人意愿。在参与过程中，您可以随时退出，并且不用承担任何后果。</p><p style=""text-align:left;""><strong>隐私：</strong>本实验完全匿名进行，不会收集您的姓名或其他能够识别您身份的信息。实验中收集的作答仅用作科学研究使用，可能会在学术期刊/书籍上发表，或者用于教学，您的数据未来可能会和其他研究者或实验室分享，但您的个人身份不会被识别。</p><p style=""text-align:left;""><strong>实验报酬：</strong>实验完成后，您将获得15元人民币报酬，以感谢您的时间和努力。调查问卷中包含几道题目用以测验您作答时的认真度。只有完成全部实验，并且正确回答认真度测验的被试才能获得实验报酬。实验报酬将通过支付宝转账发放。</p><p style=""text-align:left;font-size:20px;""><strong>如果您同意以上实验知情同意书的内容，请点击'同意并且开始实验'按钮；否则请关闭浏览器界面，退出实验。</strong></p>","0",""
"","","","","","html-button-response","3","167464","0.0-3.0","21","1","2022-10-23 08:35:01","ebf9627b049f568eb4bf28942cb89901","123.12.237.57","Mozilla/5.0 (Windows NT 10.0; WOW64) AppleWebKit/537.36 (KHTML, like Gecko) Chrome/86.0.4240.198 Safari/537.36","WebKit","Chrome","86.0.4240.198","Windows","10.0","6796","<p ><strong>实验任务一：</strong></p><p>请想象你的国家与另一个国家发生了军事冲突。</p><p>你是国家军队的指挥官，你将如何在冲突中进行决策。</p><p>具体来说，作为军队指挥官，请你决定是否发射导弹进行打击。</p><p>接下来，你会面对一系列场景，请仔细阅读每个场景，然后进行决策。</p><p>这部分实验任务大约需要10分钟。</p><p><strong>实验过程中，请集中注意力。</strong></p>","0",""
"","","","","","html-keyboard-response","4","168474","0.0-4.0-0.0","21","1","2022-10-23 08:35:01","ebf9627b049f568eb4bf28942cb89901","123.12.237.57","Mozilla/5.0 (Windows NT 10.0; WOW64) AppleWebKit/537.36 (KHTML, like Gecko) Chrome/86.0.4240.198 Safari/537.36","WebKit","Chrome","86.0.4240.198","Windows","10.0","null","<div style=""font-size:60px;"">+</div>","null",""
"","","","","","html-button-response","5","174737","0.0-4.0-1.0","21","1","2022-10-23 08:35:01","ebf9627b049f568eb4bf28942cb89901","123.12.237.57","Mozilla/5.0 (Windows NT 10.0; WOW64) AppleWebKit/537.36 (KHTML, like Gecko) Chrome/86.0.4240.198 Safari/537.36","WebKit","Chrome","86.0.4240.198","Windows","10.0","6261","<p>作为军队的指挥官，你可以选择发射导弹杀死 <strong>2名</strong> 敌国士兵，但会误杀附近的 <strong>1名</strong> 敌国平民。</p> <p>平民照片如下图所示。</p> <p></p> <img src='stimuli/faces/NFM5.jpg', style='max-width: 30%;'> </img> <p><strong>你是否选择发射武器？</strong></p>","1",""
"","","","","","html-keyboard-response","6","175741","0.0-4.0-0.1","21","1","2022-10-23 08:35:01","ebf9627b049f568eb4bf28942cb89901","123.12.237.57","Mozilla/5.0 (Windows NT 10.0; WOW64) AppleWebKit/537.36 (KHTML, like Gecko) Chrome/86.0.4240.198 Safari/537.36","WebKit","Chrome","86.0.4240.198","Windows","10.0","null","<div style=""font-size:60px;"">+</div>","null",""
"","","","","","html-button-response","7","177082","0.0-4.0-1.1","21","1","2022-10-23 08:35:01","ebf9627b049f568eb4bf28942cb89901","123.12.237.57","Mozilla/5.0 (Windows NT 10.0; WOW64) AppleWebKit/537.36 (KHTML, like Gecko) Chrome/86.0.4240.198 Safari/537.36","WebKit","Chrome","86.0.4240.198","Windows","10.0","1339","<p>作为军队的指挥官，你可以选择发射导弹杀死 <strong>1名</strong> 敌国士兵，但会炸毁附近的 <strong>1棵</strong> 敌国树木。</p> <p>树木的照片如下图所示。</p> <p></p> <img src='stimuli/trees/5.png', style='max-width: 30%;'> </img> <p><strong>你是否选择发射武器？</strong></p>","1",""
"","","","","","html-keyboard-response","8","178089","0.0-4.0-0.2","21","1","2022-10-23 08:35:01","ebf9627b049f568eb4bf28942cb89901","123.12.237.57","Mozilla/5.0 (Windows NT 10.0; WOW64) AppleWebKit/537.36 (KHTML, like Gecko) Chrome/86.0.4240.198 Safari/537.36","WebKit","Chrome","86.0.4240.198","Windows","10.0","null","<div style=""font-size:60px;"">+</div>","null",""
"","","","","","html-button-response","9","179006","0.0-4.0-1.2","21","1","2022-10-23 08:35:01","ebf9627b049f568eb4bf28942cb89901","123.12.237.57","Mozilla/5.0 (Windows NT 10.0; WOW64) AppleWebKit/537.36 (KHTML, like Gecko) Chrome/86.0.4240.198 Safari/537.36","WebKit","Chrome","86.0.4240.198","Windows","10.0","915","<p>作为军队的指挥官，你可以选择发射导弹杀死 <strong>8名</strong> 敌国士兵，但会炸毁附近的 <strong>1棵</strong> 敌国树木。</p> <p>树木的照片如下图所示。</p> <p></p> <img src='stimuli/trees/15.png', style='max-width: 30%;'> </img> <p><strong>你是否选择发射武器？</strong></p>","0",""
"","","","","","html-keyboard-response","10","180019","0.0-4.0-0.3","21","1","2022-10-23 08:35:01","ebf9627b049f568eb4bf28942cb89901","123.12.237.57","Mozilla/5.0 (Windows NT 10.0; WOW64) AppleWebKit/537.36 (KHTML, like Gecko) Chrome/86.0.4240.198 Safari/537.36","WebKit","Chrome","86.0.4240.198","Windows","10.0","null","<div style=""font-size:60px;"">+</div>","null",""
"","","","","","html-button-response","11","181648","0.0-4.0-1.3","21","1","2022-10-23 08:35:01","ebf9627b049f568eb4bf28942cb89901","123.12.237.57","Mozilla/5.0 (Windows NT 10.0; WOW64) AppleWebKit/537.36 (KHTML, like Gecko) Chrome/86.0.4240.198 Safari/537.36","WebKit","Chrome","86.0.4240.198","Windows","10.0","1628","<p>作为军队的指挥官，你可以选择发射导弹杀死 <strong>1名</strong> 敌国士兵，但会炸毁附近的 <strong>1棵</strong> 敌国树木。</p> <p>树木的照片如下图所示。</p> <p></p> <img src='stimuli/trees/10.png', style='max-width: 30%;'> </img> <p><strong>你是否选择发射武器？</strong></p>","1",""
"","","","","","html-keyboard-response","12","182652","0.0-4.0-0.4","21","1","2022-10-23 08:35:01","ebf9627b049f568eb4bf28942cb89901","123.12.237.57","Mozilla/5.0 (Windows NT 10.0; WOW64) AppleWebKit/537.36 (KHTML, like Gecko) Chrome/86.0.4240.198 Safari/537.36","WebKit","Chrome","86.0.4240.198","Windows","10.0","null","<div style=""font-size:60px;"">+</div>","null",""
"","","","","","html-button-response","13","184089","0.0-4.0-1.4","21","1","2022-10-23 08:35:01","ebf9627b049f568eb4bf28942cb89901","123.12.237.57","Mozilla/5.0 (Windows NT 10.0; WOW64) AppleWebKit/537.36 (KHTML, like Gecko) Chrome/86.0.4240.198 Safari/537.36","WebKit","Chrome","86.0.4240.198","Windows","10.0","1436","<p>作为军队的指挥官，你可以选择发射导弹杀死 <strong>2名</strong> 敌国士兵，但会炸毁附近的 <strong>1棵</strong> 敌国树木。</p> <p>树木的照片如下图所示。</p> <p></p> <img src='stimuli/trees/3.png', style='max-width: 30%;'> </img> <p><strong>你是否选择发射武器？</strong></p>","1",""
"","","","","","html-keyboard-response","14","185091","0.0-4.0-0.5","21","1","2022-10-23 08:35:01","ebf9627b049f568eb4bf28942cb89901","123.12.237.57","Mozilla/5.0 (Windows NT 10.0; WOW64) AppleWebKit/537.36 (KHTML, like Gecko) Chrome/86.0.4240.198 Safari/537.36","WebKit","Chrome","86.0.4240.198","Windows","10.0","null","<div style=""font-size:60px;"">+</div>","null",""
"","","","","","html-button-response","15","186146","0.0-4.0-1.5","21","1","2022-10-23 08:35:01","ebf9627b049f568eb4bf28942cb89901","123.12.237.57","Mozilla/5.0 (Windows NT 10.0; WOW64) AppleWebKit/537.36 (KHTML, like Gecko) Chrome/86.0.4240.198 Safari/537.36","WebKit","Chrome","86.0.4240.198","Windows","10.0","1052","<p>作为军队的指挥官，你可以选择发射导弹杀死 <strong>6名</strong> 敌国士兵，但会误杀附近的 <strong>1名</strong> 敌国平民。</p> <p>平民照片如下图所示。</p> <p></p> <img src='stimuli/faces/NFM8.jpg', style='max-width: 30%;'> </img> <p><strong>你是否选择发射武器？</strong></p>","0",""
"","","","","","html-keyboard-response","16","187147","0.0-4.0-0.6","21","1","2022-10-23 08:35:01","ebf9627b049f568eb4bf28942cb89901","123.12.237.57","Mozilla/5.0 (Windows NT 10.0; WOW64) AppleWebKit/537.36 (KHTML, like Gecko) Chrome/86.0.4240.198 Safari/537.36","WebKit","Chrome","86.0.4240.198","Windows","10.0","null","<div style=""font-size:60px;"">+</div>","null",""
"","","","","","html-button-response","17","188079","0.0-4.0-1.6","21","1","2022-10-23 08:35:01","ebf9627b049f568eb4bf28942cb89901","123.12.237.57","Mozilla/5.0 (Windows NT 10.0; WOW64) AppleWebKit/537.36 (KHTML, like Gecko) Chrome/86.0.4240.198 Safari/537.36","WebKit","Chrome","86.0.4240.198","Windows","10.0","931","<p>作为军队的指挥官，你可以选择发射导弹杀死 <strong>2名</strong> 敌国士兵，但会误杀附近的 <strong>1名</strong> 敌国平民。</p> <p>平民照片如下图所示。</p> <p></p> <img src='stimuli/faces/NFF5.jpg', style='max-width: 30%;'> </img> <p><strong>你是否选择发射武器？</strong></p>","1",""
"","","","","","html-keyboard-response","18","189082","0.0-4.0-0.7","21","1","2022-10-23 08:35:01","ebf9627b049f568eb4bf28942cb89901","123.12.237.57","Mozilla/5.0 (Windows NT 10.0; WOW64) AppleWebKit/537.36 (KHTML, like Gecko) Chrome/86.0.4240.198 Safari/537.36","WebKit","Chrome","86.0.4240.198","Windows","10.0","null","<div style=""font-size:60px;"">+</div>","null",""
"","","","","","html-button-response","19","190118","0.0-4.0-1.7","21","1","2022-10-23 08:35:01","ebf9627b049f568eb4bf28942cb89901","123.12.237.57","Mozilla/5.0 (Windows NT 10.0; WOW64) AppleWebKit/537.36 (KHTML, like Gecko) Chrome/86.0.4240.198 Safari/537.36","WebKit","Chrome","86.0.4240.198","Windows","10.0","1035","<p>作为军队的指挥官，你可以选择发射导弹杀死 <strong>6名</strong> 敌国士兵，但会误杀附近的 <strong>1名</strong> 敌国平民。</p> <p>平民照片如下图所示。</p> <p></p> <img src='stimuli/faces/NFF1.jpg', style='max-width: 30%;'> </img> <p><strong>你是否选择发射武器？</strong></p>","0",""
"","","","","","html-keyboard-response","20","191133","0.0-4.0-0.8","21","1","2022-10-23 08:35:01","ebf9627b049f568eb4bf28942cb89901","123.12.237.57","Mozilla/5.0 (Windows NT 10.0; WOW64) AppleWebKit/537.36 (KHTML, like Gecko) Chrome/86.0.4240.198 Safari/537.36","WebKit","Chrome","86.0.4240.198","Windows","10.0","null","<div style=""font-size:60px;"">+</div>","null",""
"","","","","","html-button-response","21","192209","0.0-4.0-1.8","21","1","2022-10-23 08:35:01","ebf9627b049f568eb4bf28942cb89901","123.12.237.57","Mozilla/5.0 (Windows NT 10.0; WOW64) AppleWebKit/537.36 (KHTML, like Gecko) Chrome/86.0.4240.198 Safari/537.36","WebKit","Chrome","86.0.4240.198","Windows","10.0","1074","<p>作为军队的指挥官，你可以选择发射导弹杀死 <strong>7名</strong> 敌国士兵，但会炸毁附近的 <strong>1棵</strong> 敌国树木。</p> <p>树木的照片如下图所示。</p> <p></p> <img src='stimuli/trees/11.png', style='max-width: 30%;'> </img> <p><strong>你是否选择发射武器？</strong></p>","0",""
"","","","","","html-keyboard-response","22","193214","0.0-4.0-0.9","21","1","2022-10-23 08:35:01","ebf9627b049f568eb4bf28942cb89901","123.12.237.57","Mozilla/5.0 (Windows NT 10.0; WOW64) AppleWebKit/537.36 (KHTML, like Gecko) Chrome/86.0.4240.198 Safari/537.36","WebKit","Chrome","86.0.4240.198","Windows","10.0","null","<div style=""font-size:60px;"">+</div>","null",""
"","","","","","html-button-response","23","202255","0.0-4.0-1.9","21","1","2022-10-23 08:35:01","ebf9627b049f568eb4bf28942cb89901","123.12.237.57","Mozilla/5.0 (Windows NT 10.0; WOW64) AppleWebKit/537.36 (KHTML, like Gecko) Chrome/86.0.4240.198 Safari/537.36","WebKit","Chrome","86.0.4240.198","Windows","10.0","9039","<p>作为军队的指挥官，你可以选择发射导弹杀死 <strong>10名</strong> 敌国士兵，但会误杀附近的 <strong>1名</strong> 敌国平民。</p> <p>平民照片如下图所示。</p> <p></p> <img src='stimuli/faces/NFM5.jpg', style='max-width: 30%;'> </img> <p><strong>你是否选择发射武器？</strong></p>","0",""
"","","","","","html-keyboard-response","24","203257","0.0-4.0-0.10","21","1","2022-10-23 08:35:01","ebf9627b049f568eb4bf28942cb89901","123.12.237.57","Mozilla/5.0 (Windows NT 10.0; WOW64) AppleWebKit/537.36 (KHTML, like Gecko) Chrome/86.0.4240.198 Safari/537.36","WebKit","Chrome","86.0.4240.198","Windows","10.0","null","<div style=""font-size:60px;"">+</div>","null",""
"","","","","","html-button-response","25","204469","0.0-4.0-1.10","21","1","2022-10-23 08:35:01","ebf9627b049f568eb4bf28942cb89901","123.12.237.57","Mozilla/5.0 (Windows NT 10.0; WOW64) AppleWebKit/537.36 (KHTML, like Gecko) Chrome/86.0.4240.198 Safari/537.36","WebKit","Chrome","86.0.4240.198","Windows","10.0","1210","<p>作为军队的指挥官，你可以选择发射导弹杀死 <strong>2名</strong> 敌国士兵，但会炸毁附近的 <strong>1棵</strong> 敌国树木。</p> <p>树木的照片如下图所示。</p> <p></p> <img src='stimuli/trees/14.png', style='max-width: 30%;'> </img> <p><strong>你是否选择发射武器？</strong></p>","1",""
"","","","","","html-keyboard-response","26","205480","0.0-4.0-0.11","21","1","2022-10-23 08:35:01","ebf9627b049f568eb4bf28942cb89901","123.12.237.57","Mozilla/5.0 (Windows NT 10.0; WOW64) AppleWebKit/537.36 (KHTML, like Gecko) Chrome/86.0.4240.198 Safari/537.36","WebKit","Chrome","86.0.4240.198","Windows","10.0","null","<div style=""font-size:60px;"">+</div>","null",""
"","","","","","html-button-response","27","208048","0.0-4.0-1.11","21","1","2022-10-23 08:35:01","ebf9627b049f568eb4bf28942cb89901","123.12.237.57","Mozilla/5.0 (Windows NT 10.0; WOW64) AppleWebKit/537.36 (KHTML, like Gecko) Chrome/86.0.4240.198 Safari/537.36","WebKit","Chrome","86.0.4240.198","Windows","10.0","2566","<p>作为军队的指挥官，你可以选择发射导弹杀死 <strong>9名</strong> 敌国士兵，但会误杀附近的 <strong>1名</strong> 敌国平民。</p> <p>平民照片如下图所示。</p> <p></p> <img src='stimuli/faces/NFF7.jpg', style='max-width: 30%;'> </img> <p><strong>你是否选择发射武器？</strong></p>","0",""
"","","","","","html-keyboard-response","28","209056","0.0-4.0-0.12","21","1","2022-10-23 08:35:01","ebf9627b049f568eb4bf28942cb89901","123.12.237.57","Mozilla/5.0 (Windows NT 10.0; WOW64) AppleWebKit/537.36 (KHTML, like Gecko) Chrome/86.0.4240.198 Safari/537.36","WebKit","Chrome","86.0.4240.198","Windows","10.0","null","<div style=""font-size:60px;"">+</div>","null",""
"","","","","","html-button-response","29","210611","0.0-4.0-1.12","21","1","2022-10-23 08:35:01","ebf9627b049f568eb4bf28942cb89901","123.12.237.57","Mozilla/5.0 (Windows NT 10.0; WOW64) AppleWebKit/537.36 (KHTML, like Gecko) Chrome/86.0.4240.198 Safari/537.36","WebKit","Chrome","86.0.4240.198","Windows","10.0","1554","<p>作为军队的指挥官，你可以选择发射导弹杀死 <strong>1名</strong> 敌国士兵，但会误杀附近的 <strong>1名</strong> 敌国平民。</p> <p>平民照片如下图所示。</p> <p></p> <img src='stimuli/faces/NFF6.jpg', style='max-width: 30%;'> </img> <p><strong>你是否选择发射武器？</strong></p>","1",""
"","","","","","html-keyboard-response","30","211614","0.0-4.0-0.13","21","1","2022-10-23 08:35:01","ebf9627b049f568eb4bf28942cb89901","123.12.237.57","Mozilla/5.0 (Windows NT 10.0; WOW64) AppleWebKit/537.36 (KHTML, like Gecko) Chrome/86.0.4240.198 Safari/537.36","WebKit","Chrome","86.0.4240.198","Windows","10.0","null","<div style=""font-size:60px;"">+</div>","null",""
"","","","","","html-button-response","31","213315","0.0-4.0-1.13","21","1","2022-10-23 08:35:01","ebf9627b049f568eb4bf28942cb89901","123.12.237.57","Mozilla/5.0 (Windows NT 10.0; WOW64) AppleWebKit/537.36 (KHTML, like Gecko) Chrome/86.0.4240.198 Safari/537.36","WebKit","Chrome","86.0.4240.198","Windows","10.0","1700","<p>作为军队的指挥官，你可以选择发射导弹杀死 <strong>6名</strong> 敌国士兵，但会误杀附近的 <strong>1名</strong> 敌国平民。</p> <p>平民照片如下图所示。</p> <p></p> <img src='stimuli/faces/NFM6.jpg', style='max-width: 30%;'> </img> <p><strong>你是否选择发射武器？</strong></p>","0",""
"","","","","","html-keyboard-response","32","214317","0.0-4.0-0.14","21","1","2022-10-23 08:35:01","ebf9627b049f568eb4bf28942cb89901","123.12.237.57","Mozilla/5.0 (Windows NT 10.0; WOW64) AppleWebKit/537.36 (KHTML, like Gecko) Chrome/86.0.4240.198 Safari/537.36","WebKit","Chrome","86.0.4240.198","Windows","10.0","null","<div style=""font-size:60px;"">+</div>","null",""
"","","","","","html-button-response","33","215433","0.0-4.0-1.14","21","1","2022-10-23 08:35:01","ebf9627b049f568eb4bf28942cb89901","123.12.237.57","Mozilla/5.0 (Windows NT 10.0; WOW64) AppleWebKit/537.36 (KHTML, like Gecko) Chrome/86.0.4240.198 Safari/537.36","WebKit","Chrome","86.0.4240.198","Windows","10.0","1114","<p>作为军队的指挥官，你可以选择发射导弹杀死 <strong>1名</strong> 敌国士兵，但会炸毁附近的 <strong>1棵</strong> 敌国树木。</p> <p>树木的照片如下图所示。</p> <p></p> <img src='stimuli/trees/16.png', style='max-width: 30%;'> </img> <p><strong>你是否选择发射武器？</strong></p>","1",""
"","","","","","html-keyboard-response","34","216439","0.0-4.0-0.15","21","1","2022-10-23 08:35:01","ebf9627b049f568eb4bf28942cb89901","123.12.237.57","Mozilla/5.0 (Windows NT 10.0; WOW64) AppleWebKit/537.36 (KHTML, like Gecko) Chrome/86.0.4240.198 Safari/537.36","WebKit","Chrome","86.0.4240.198","Windows","10.0","null","<div style=""font-size:60px;"">+</div>","null",""
"","","","","","html-button-response","35","217988","0.0-4.0-1.15","21","1","2022-10-23 08:35:01","ebf9627b049f568eb4bf28942cb89901","123.12.237.57","Mozilla/5.0 (Windows NT 10.0; WOW64) AppleWebKit/537.36 (KHTML, like Gecko) Chrome/86.0.4240.198 Safari/537.36","WebKit","Chrome","86.0.4240.198","Windows","10.0","1546","<p>作为军队的指挥官，你可以选择发射导弹杀死 <strong>1名</strong> 敌国士兵，但会炸毁附近的 <strong>1棵</strong> 敌国树木。</p> <p>树木的照片如下图所示。</p> <p></p> <img src='stimuli/trees/1.png', style='max-width: 30%;'> </img> <p><strong>你是否选择发射武器？</strong></p>","1",""
"","","","","","html-keyboard-response","36","218997","0.0-4.0-0.16","21","1","2022-10-23 08:35:01","ebf9627b049f568eb4bf28942cb89901","123.12.237.57","Mozilla/5.0 (Windows NT 10.0; WOW64) AppleWebKit/537.36 (KHTML, like Gecko) Chrome/86.0.4240.198 Safari/537.36","WebKit","Chrome","86.0.4240.198","Windows","10.0","null","<div style=""font-size:60px;"">+</div>","null",""
"","","","","","html-button-response","37","220079","0.0-4.0-1.16","21","1","2022-10-23 08:35:01","ebf9627b049f568eb4bf28942cb89901","123.12.237.57","Mozilla/5.0 (Windows NT 10.0; WOW64) AppleWebKit/537.36 (KHTML, like Gecko) Chrome/86.0.4240.198 Safari/537.36","WebKit","Chrome","86.0.4240.198","Windows","10.0","1080","<p>作为军队的指挥官，你可以选择发射导弹杀死 <strong>4名</strong> 敌国士兵，但会误杀附近的 <strong>1名</strong> 敌国平民。</p> <p>平民照片如下图所示。</p> <p></p> <img src='stimuli/faces/NFF8.jpg', style='max-width: 30%;'> </img> <p><strong>你是否选择发射武器？</strong></p>","0",""
"","","","","","html-keyboard-response","38","221082","0.0-4.0-0.17","21","1","2022-10-23 08:35:01","ebf9627b049f568eb4bf28942cb89901","123.12.237.57","Mozilla/5.0 (Windows NT 10.0; WOW64) AppleWebKit/537.36 (KHTML, like Gecko) Chrome/86.0.4240.198 Safari/537.36","WebKit","Chrome","86.0.4240.198","Windows","10.0","null","<div style=""font-size:60px;"">+</div>","null",""
"","","","","","html-button-response","39","222450","0.0-4.0-1.17","21","1","2022-10-23 08:35:01","ebf9627b049f568eb4bf28942cb89901","123.12.237.57","Mozilla/5.0 (Windows NT 10.0; WOW64) AppleWebKit/537.36 (KHTML, like Gecko) Chrome/86.0.4240.198 Safari/537.36","WebKit","Chrome","86.0.4240.198","Windows","10.0","1366","<p>作为军队的指挥官，你可以选择发射导弹杀死 <strong>10名</strong> 敌国士兵，但会炸毁附近的 <strong>1棵</strong> 敌国树木。</p> <p>树木的照片如下图所示。</p> <p></p> <img src='stimuli/trees/3.png', style='max-width: 30%;'> </img> <p><strong>你是否选择发射武器？</strong></p>","0",""
"","","","","","html-keyboard-response","40","223466","0.0-4.0-0.18","21","1","2022-10-23 08:35:01","ebf9627b049f568eb4bf28942cb89901","123.12.237.57","Mozilla/5.0 (Windows NT 10.0; WOW64) AppleWebKit/537.36 (KHTML, like Gecko) Chrome/86.0.4240.198 Safari/537.36","WebKit","Chrome","86.0.4240.198","Windows","10.0","null","<div style=""font-size:60px;"">+</div>","null",""
"","","","","","html-button-response","41","224620","0.0-4.0-1.18","21","1","2022-10-23 08:35:01","ebf9627b049f568eb4bf28942cb89901","123.12.237.57","Mozilla/5.0 (Windows NT 10.0; WOW64) AppleWebKit/537.36 (KHTML, like Gecko) Chrome/86.0.4240.198 Safari/537.36","WebKit","Chrome","86.0.4240.198","Windows","10.0","1152","<p>作为军队的指挥官，你可以选择发射导弹杀死 <strong>4名</strong> 敌国士兵，但会误杀附近的 <strong>1名</strong> 敌国平民。</p> <p>平民照片如下图所示。</p> <p></p> <img src='stimuli/faces/NFM7.jpg', style='max-width: 30%;'> </img> <p><strong>你是否选择发射武器？</strong></p>","0",""
"","","","","","html-keyboard-response","42","225626","0.0-4.0-0.19","21","1","2022-10-23 08:35:01","ebf9627b049f568eb4bf28942cb89901","123.12.237.57","Mozilla/5.0 (Windows NT 10.0; WOW64) AppleWebKit/537.36 (KHTML, like Gecko) Chrome/86.0.4240.198 Safari/537.36","WebKit","Chrome","86.0.4240.198","Windows","10.0","null","<div style=""font-size:60px;"">+</div>","null",""
"","","","","","html-button-response","43","226580","0.0-4.0-1.19","21","1","2022-10-23 08:35:01","ebf9627b049f568eb4bf28942cb89901","123.12.237.57","Mozilla/5.0 (Windows NT 10.0; WOW64) AppleWebKit/537.36 (KHTML, like Gecko) Chrome/86.0.4240.198 Safari/537.36","WebKit","Chrome","86.0.4240.198","Windows","10.0","953","<p>作为军队的指挥官，你可以选择发射导弹杀死 <strong>9名</strong> 敌国士兵，但会炸毁附近的 <strong>1棵</strong> 敌国树木。</p> <p>树木的照片如下图所示。</p> <p></p> <img src='stimuli/trees/14.png', style='max-width: 30%;'> </img> <p><strong>你是否选择发射武器？</strong></p>","0",""
"","","","","","html-keyboard-response","44","227589","0.0-4.0-0.20","21","1","2022-10-23 08:35:01","ebf9627b049f568eb4bf28942cb89901","123.12.237.57","Mozilla/5.0 (Windows NT 10.0; WOW64) AppleWebKit/537.36 (KHTML, like Gecko) Chrome/86.0.4240.198 Safari/537.36","WebKit","Chrome","86.0.4240.198","Windows","10.0","null","<div style=""font-size:60px;"">+</div>","null",""
"","","","","","html-button-response","45","228523","0.0-4.0-1.20","21","1","2022-10-23 08:35:01","ebf9627b049f568eb4bf28942cb89901","123.12.237.57","Mozilla/5.0 (Windows NT 10.0; WOW64) AppleWebKit/537.36 (KHTML, like Gecko) Chrome/86.0.4240.198 Safari/537.36","WebKit","Chrome","86.0.4240.198","Windows","10.0","932","<p>作为军队的指挥官，你可以选择发射导弹杀死 <strong>5名</strong> 敌国士兵，但会误杀附近的 <strong>1名</strong> 敌国平民。</p> <p>平民照片如下图所示。</p> <p></p> <img src='stimuli/faces/NFM8.jpg', style='max-width: 30%;'> </img> <p><strong>你是否选择发射武器？</strong></p>","0",""
"","","","","","html-keyboard-response","46","229539","0.0-4.0-0.21","21","1","2022-10-23 08:35:01","ebf9627b049f568eb4bf28942cb89901","123.12.237.57","Mozilla/5.0 (Windows NT 10.0; WOW64) AppleWebKit/537.36 (KHTML, like Gecko) Chrome/86.0.4240.198 Safari/537.36","WebKit","Chrome","86.0.4240.198","Windows","10.0","null","<div style=""font-size:60px;"">+</div>","null",""
"","","","","","html-button-response","47","230448","0.0-4.0-1.21","21","1","2022-10-23 08:35:01","ebf9627b049f568eb4bf28942cb89901","123.12.237.57","Mozilla/5.0 (Windows NT 10.0; WOW64) AppleWebKit/537.36 (KHTML, like Gecko) Chrome/86.0.4240.198 Safari/537.36","WebKit","Chrome","86.0.4240.198","Windows","10.0","907","<p>作为军队的指挥官，你可以选择发射导弹杀死 <strong>4名</strong> 敌国士兵，但会炸毁附近的 <strong>1棵</strong> 敌国树木。</p> <p>树木的照片如下图所示。</p> <p></p> <img src='stimuli/trees/13.png', style='max-width: 30%;'> </img> <p><strong>你是否选择发射武器？</strong></p>","0",""
"","","","","","html-keyboard-response","48","231452","0.0-4.0-0.22","21","1","2022-10-23 08:35:01","ebf9627b049f568eb4bf28942cb89901","123.12.237.57","Mozilla/5.0 (Windows NT 10.0; WOW64) AppleWebKit/537.36 (KHTML, like Gecko) Chrome/86.0.4240.198 Safari/537.36","WebKit","Chrome","86.0.4240.198","Windows","10.0","null","<div style=""font-size:60px;"">+</div>","null",""
"","","","","","html-button-response","49","232706","0.0-4.0-1.22","21","1","2022-10-23 08:35:01","ebf9627b049f568eb4bf28942cb89901","123.12.237.57","Mozilla/5.0 (Windows NT 10.0; WOW64) AppleWebKit/537.36 (KHTML, like Gecko) Chrome/86.0.4240.198 Safari/537.36","WebKit","Chrome","86.0.4240.198","Windows","10.0","1252","<p>作为军队的指挥官，你可以选择发射导弹杀死 <strong>2名</strong> 敌国士兵，但会误杀附近的 <strong>1名</strong> 敌国平民。</p> <p>平民照片如下图所示。</p> <p></p> <img src='stimuli/faces/NFM6.jpg', style='max-width: 30%;'> </img> <p><strong>你是否选择发射武器？</strong></p>","1",""
"","","","","","html-keyboard-response","50","233708","0.0-4.0-0.23","21","1","2022-10-23 08:35:01","ebf9627b049f568eb4bf28942cb89901","123.12.237.57","Mozilla/5.0 (Windows NT 10.0; WOW64) AppleWebKit/537.36 (KHTML, like Gecko) Chrome/86.0.4240.198 Safari/537.36","WebKit","Chrome","86.0.4240.198","Windows","10.0","null","<div style=""font-size:60px;"">+</div>","null",""
"","","","","","html-button-response","51","234639","0.0-4.0-1.23","21","1","2022-10-23 08:35:01","ebf9627b049f568eb4bf28942cb89901","123.12.237.57","Mozilla/5.0 (Windows NT 10.0; WOW64) AppleWebKit/537.36 (KHTML, like Gecko) Chrome/86.0.4240.198 Safari/537.36","WebKit","Chrome","86.0.4240.198","Windows","10.0","929","<p>作为军队的指挥官，你可以选择发射导弹杀死 <strong>10名</strong> 敌国士兵，但会炸毁附近的 <strong>1棵</strong> 敌国树木。</p> <p>树木的照片如下图所示。</p> <p></p> <img src='stimuli/trees/13.png', style='max-width: 30%;'> </img> <p><strong>你是否选择发射武器？</strong></p>","0",""
"","","","","","html-keyboard-response","52","235649","0.0-4.0-0.24","21","1","2022-10-23 08:35:01","ebf9627b049f568eb4bf28942cb89901","123.12.237.57","Mozilla/5.0 (Windows NT 10.0; WOW64) AppleWebKit/537.36 (KHTML, like Gecko) Chrome/86.0.4240.198 Safari/537.36","WebKit","Chrome","86.0.4240.198","Windows","10.0","null","<div style=""font-size:60px;"">+</div>","null",""
"","","","","","html-button-response","53","236441","0.0-4.0-1.24","21","1","2022-10-23 08:35:01","ebf9627b049f568eb4bf28942cb89901","123.12.237.57","Mozilla/5.0 (Windows NT 10.0; WOW64) AppleWebKit/537.36 (KHTML, like Gecko) Chrome/86.0.4240.198 Safari/537.36","WebKit","Chrome","86.0.4240.198","Windows","10.0","791","<p>作为军队的指挥官，你可以选择发射导弹杀死 <strong>7名</strong> 敌国士兵，但会炸毁附近的 <strong>1棵</strong> 敌国树木。</p> <p>树木的照片如下图所示。</p> <p></p> <img src='stimuli/trees/5.png', style='max-width: 30%;'> </img> <p><strong>你是否选择发射武器？</strong></p>","0",""
"","","","","","html-keyboard-response","54","237445","0.0-4.0-0.25","21","1","2022-10-23 08:35:01","ebf9627b049f568eb4bf28942cb89901","123.12.237.57","Mozilla/5.0 (Windows NT 10.0; WOW64) AppleWebKit/537.36 (KHTML, like Gecko) Chrome/86.0.4240.198 Safari/537.36","WebKit","Chrome","86.0.4240.198","Windows","10.0","null","<div style=""font-size:60px;"">+</div>","null",""
"","","","","","html-button-response","55","238445","0.0-4.0-1.25","21","1","2022-10-23 08:35:01","ebf9627b049f568eb4bf28942cb89901","123.12.237.57","Mozilla/5.0 (Windows NT 10.0; WOW64) AppleWebKit/537.36 (KHTML, like Gecko) Chrome/86.0.4240.198 Safari/537.36","WebKit","Chrome","86.0.4240.198","Windows","10.0","998","<p>作为军队的指挥官，你可以选择发射导弹杀死 <strong>1名</strong> 敌国士兵，但会误杀附近的 <strong>1名</strong> 敌国平民。</p> <p>平民照片如下图所示。</p> <p></p> <img src='stimuli/faces/NFM2.jpg', style='max-width: 30%;'> </img> <p><strong>你是否选择发射武器？</strong></p>","1",""
"","","","","","html-keyboard-response","56","239453","0.0-4.0-0.26","21","1","2022-10-23 08:35:01","ebf9627b049f568eb4bf28942cb89901","123.12.237.57","Mozilla/5.0 (Windows NT 10.0; WOW64) AppleWebKit/537.36 (KHTML, like Gecko) Chrome/86.0.4240.198 Safari/537.36","WebKit","Chrome","86.0.4240.198","Windows","10.0","null","<div style=""font-size:60px;"">+</div>","null",""
"","","","","","html-button-response","57","240248","0.0-4.0-1.26","21","1","2022-10-23 08:35:01","ebf9627b049f568eb4bf28942cb89901","123.12.237.57","Mozilla/5.0 (Windows NT 10.0; WOW64) AppleWebKit/537.36 (KHTML, like Gecko) Chrome/86.0.4240.198 Safari/537.36","WebKit","Chrome","86.0.4240.198","Windows","10.0","793","<p>作为军队的指挥官，你可以选择发射导弹杀死 <strong>10名</strong> 敌国士兵，但会炸毁附近的 <strong>1棵</strong> 敌国树木。</p> <p>树木的照片如下图所示。</p> <p></p> <img src='stimuli/trees/2.png', style='max-width: 30%;'> </img> <p><strong>你是否选择发射武器？</strong></p>","0",""
"","","","","","html-keyboard-response","58","241253","0.0-4.0-0.27","21","1","2022-10-23 08:35:01","ebf9627b049f568eb4bf28942cb89901","123.12.237.57","Mozilla/5.0 (Windows NT 10.0; WOW64) AppleWebKit/537.36 (KHTML, like Gecko) Chrome/86.0.4240.198 Safari/537.36","WebKit","Chrome","86.0.4240.198","Windows","10.0","null","<div style=""font-size:60px;"">+</div>","null",""
"","","","","","html-button-response","59","242234","0.0-4.0-1.27","21","1","2022-10-23 08:35:01","ebf9627b049f568eb4bf28942cb89901","123.12.237.57","Mozilla/5.0 (Windows NT 10.0; WOW64) AppleWebKit/537.36 (KHTML, like Gecko) Chrome/86.0.4240.198 Safari/537.36","WebKit","Chrome","86.0.4240.198","Windows","10.0","979","<p>作为军队的指挥官，你可以选择发射导弹杀死 <strong>9名</strong> 敌国士兵，但会误杀附近的 <strong>1名</strong> 敌国平民。</p> <p>平民照片如下图所示。</p> <p></p> <img src='stimuli/faces/NFM7.jpg', style='max-width: 30%;'> </img> <p><strong>你是否选择发射武器？</strong></p>","0",""
"","","","","","html-keyboard-response","60","243251","0.0-4.0-0.28","21","1","2022-10-23 08:35:01","ebf9627b049f568eb4bf28942cb89901","123.12.237.57","Mozilla/5.0 (Windows NT 10.0; WOW64) AppleWebKit/537.36 (KHTML, like Gecko) Chrome/86.0.4240.198 Safari/537.36","WebKit","Chrome","86.0.4240.198","Windows","10.0","null","<div style=""font-size:60px;"">+</div>","null",""
"","","","","","html-button-response","61","244343","0.0-4.0-1.28","21","1","2022-10-23 08:35:01","ebf9627b049f568eb4bf28942cb89901","123.12.237.57","Mozilla/5.0 (Windows NT 10.0; WOW64) AppleWebKit/537.36 (KHTML, like Gecko) Chrome/86.0.4240.198 Safari/537.36","WebKit","Chrome","86.0.4240.198","Windows","10.0","1089","<p>作为军队的指挥官，你可以选择发射导弹杀死 <strong>1名</strong> 敌国士兵，但会炸毁附近的 <strong>1棵</strong> 敌国树木。</p> <p>树木的照片如下图所示。</p> <p></p> <img src='stimuli/trees/4.png', style='max-width: 30%;'> </img> <p><strong>你是否选择发射武器？</strong></p>","1",""
"","","","","","html-keyboard-response","62","245353","0.0-4.0-0.29","21","1","2022-10-23 08:35:01","ebf9627b049f568eb4bf28942cb89901","123.12.237.57","Mozilla/5.0 (Windows NT 10.0; WOW64) AppleWebKit/537.36 (KHTML, like Gecko) Chrome/86.0.4240.198 Safari/537.36","WebKit","Chrome","86.0.4240.198","Windows","10.0","null","<div style=""font-size:60px;"">+</div>","null",""
"","","","","","html-button-response","63","246128","0.0-4.0-1.29","21","1","2022-10-23 08:35:01","ebf9627b049f568eb4bf28942cb89901","123.12.237.57","Mozilla/5.0 (Windows NT 10.0; WOW64) AppleWebKit/537.36 (KHTML, like Gecko) Chrome/86.0.4240.198 Safari/537.36","WebKit","Chrome","86.0.4240.198","Windows","10.0","772","<p>作为军队的指挥官，你可以选择发射导弹杀死 <strong>1名</strong> 敌国士兵，但会炸毁附近的 <strong>1棵</strong> 敌国树木。</p> <p>树木的照片如下图所示。</p> <p></p> <img src='stimuli/trees/15.png', style='max-width: 30%;'> </img> <p><strong>你是否选择发射武器？</strong></p>","1",""
"","","","","","html-keyboard-response","64","247136","0.0-4.0-0.30","21","1","2022-10-23 08:35:01","ebf9627b049f568eb4bf28942cb89901","123.12.237.57","Mozilla/5.0 (Windows NT 10.0; WOW64) AppleWebKit/537.36 (KHTML, like Gecko) Chrome/86.0.4240.198 Safari/537.36","WebKit","Chrome","86.0.4240.198","Windows","10.0","null","<div style=""font-size:60px;"">+</div>","null",""
"","","","","","html-button-response","65","248105","0.0-4.0-1.30","21","1","2022-10-23 08:35:01","ebf9627b049f568eb4bf28942cb89901","123.12.237.57","Mozilla/5.0 (Windows NT 10.0; WOW64) AppleWebKit/537.36 (KHTML, like Gecko) Chrome/86.0.4240.198 Safari/537.36","WebKit","Chrome","86.0.4240.198","Windows","10.0","968","<p>作为军队的指挥官，你可以选择发射导弹杀死 <strong>6名</strong> 敌国士兵，但会炸毁附近的 <strong>1棵</strong> 敌国树木。</p> <p>树木的照片如下图所示。</p> <p></p> <img src='stimuli/trees/16.png', style='max-width: 30%;'> </img> <p><strong>你是否选择发射武器？</strong></p>","0",""
"","","","","","html-keyboard-response","66","249108","0.0-4.0-0.31","21","1","2022-10-23 08:35:01","ebf9627b049f568eb4bf28942cb89901","123.12.237.57","Mozilla/5.0 (Windows NT 10.0; WOW64) AppleWebKit/537.36 (KHTML, like Gecko) Chrome/86.0.4240.198 Safari/537.36","WebKit","Chrome","86.0.4240.198","Windows","10.0","null","<div style=""font-size:60px;"">+</div>","null",""
"","","","","","html-button-response","67","250013","0.0-4.0-1.31","21","1","2022-10-23 08:35:01","ebf9627b049f568eb4bf28942cb89901","123.12.237.57","Mozilla/5.0 (Windows NT 10.0; WOW64) AppleWebKit/537.36 (KHTML, like Gecko) Chrome/86.0.4240.198 Safari/537.36","WebKit","Chrome","86.0.4240.198","Windows","10.0","902","<p>作为军队的指挥官，你可以选择发射导弹杀死 <strong>7名</strong> 敌国士兵，但会误杀附近的 <strong>1名</strong> 敌国平民。</p> <p>平民照片如下图所示。</p> <p></p> <img src='stimuli/faces/NFF4.jpg', style='max-width: 30%;'> </img> <p><strong>你是否选择发射武器？</strong></p>","0",""
"","","","","","html-keyboard-response","68","251021","0.0-4.0-0.32","21","1","2022-10-23 08:35:01","ebf9627b049f568eb4bf28942cb89901","123.12.237.57","Mozilla/5.0 (Windows NT 10.0; WOW64) AppleWebKit/537.36 (KHTML, like Gecko) Chrome/86.0.4240.198 Safari/537.36","WebKit","Chrome","86.0.4240.198","Windows","10.0","null","<div style=""font-size:60px;"">+</div>","null",""
"","","","","","html-button-response","69","251789","0.0-4.0-1.32","21","1","2022-10-23 08:35:01","ebf9627b049f568eb4bf28942cb89901","123.12.237.57","Mozilla/5.0 (Windows NT 10.0; WOW64) AppleWebKit/537.36 (KHTML, like Gecko) Chrome/86.0.4240.198 Safari/537.36","WebKit","Chrome","86.0.4240.198","Windows","10.0","766","<p>作为军队的指挥官，你可以选择发射导弹杀死 <strong>5名</strong> 敌国士兵，但会炸毁附近的 <strong>1棵</strong> 敌国树木。</p> <p>树木的照片如下图所示。</p> <p></p> <img src='stimuli/trees/7.png', style='max-width: 30%;'> </img> <p><strong>你是否选择发射武器？</strong></p>","0",""
"","","","","","html-keyboard-response","70","252804","0.0-4.0-0.33","21","1","2022-10-23 08:35:01","ebf9627b049f568eb4bf28942cb89901","123.12.237.57","Mozilla/5.0 (Windows NT 10.0; WOW64) AppleWebKit/537.36 (KHTML, like Gecko) Chrome/86.0.4240.198 Safari/537.36","WebKit","Chrome","86.0.4240.198","Windows","10.0","null","<div style=""font-size:60px;"">+</div>","null",""
"","","","","","html-button-response","71","253679","0.0-4.0-1.33","21","1","2022-10-23 08:35:01","ebf9627b049f568eb4bf28942cb89901","123.12.237.57","Mozilla/5.0 (Windows NT 10.0; WOW64) AppleWebKit/537.36 (KHTML, like Gecko) Chrome/86.0.4240.198 Safari/537.36","WebKit","Chrome","86.0.4240.198","Windows","10.0","873","<p>作为军队的指挥官，你可以选择发射导弹杀死 <strong>9名</strong> 敌国士兵，但会误杀附近的 <strong>1名</strong> 敌国平民。</p> <p>平民照片如下图所示。</p> <p></p> <img src='stimuli/faces/NFM2.jpg', style='max-width: 30%;'> </img> <p><strong>你是否选择发射武器？</strong></p>","0",""
"","","","","","html-keyboard-response","72","254682","0.0-4.0-0.34","21","1","2022-10-23 08:35:01","ebf9627b049f568eb4bf28942cb89901","123.12.237.57","Mozilla/5.0 (Windows NT 10.0; WOW64) AppleWebKit/537.36 (KHTML, like Gecko) Chrome/86.0.4240.198 Safari/537.36","WebKit","Chrome","86.0.4240.198","Windows","10.0","null","<div style=""font-size:60px;"">+</div>","null",""
"","","","","","html-button-response","73","256024","0.0-4.0-1.34","21","1","2022-10-23 08:35:01","ebf9627b049f568eb4bf28942cb89901","123.12.237.57","Mozilla/5.0 (Windows NT 10.0; WOW64) AppleWebKit/537.36 (KHTML, like Gecko) Chrome/86.0.4240.198 Safari/537.36","WebKit","Chrome","86.0.4240.198","Windows","10.0","1340","<p>作为军队的指挥官，你可以选择发射导弹杀死 <strong>10名</strong> 敌国士兵，但会误杀附近的 <strong>1名</strong> 敌国平民。</p> <p>平民照片如下图所示。</p> <p></p> <img src='stimuli/faces/NFF5.jpg', style='max-width: 30%;'> </img> <p><strong>你是否选择发射武器？</strong></p>","0",""
"","","","","","html-keyboard-response","74","257033","0.0-4.0-0.35","21","1","2022-10-23 08:35:01","ebf9627b049f568eb4bf28942cb89901","123.12.237.57","Mozilla/5.0 (Windows NT 10.0; WOW64) AppleWebKit/537.36 (KHTML, like Gecko) Chrome/86.0.4240.198 Safari/537.36","WebKit","Chrome","86.0.4240.198","Windows","10.0","null","<div style=""font-size:60px;"">+</div>","null",""
"","","","","","html-button-response","75","581911","0.0-4.0-1.35","21","1","2022-10-23 08:35:01","ebf9627b049f568eb4bf28942cb89901","123.12.237.57","Mozilla/5.0 (Windows NT 10.0; WOW64) AppleWebKit/537.36 (KHTML, like Gecko) Chrome/86.0.4240.198 Safari/537.36","WebKit","Chrome","86.0.4240.198","Windows","10.0","324877","<p>作为军队的指挥官，你可以选择发射导弹杀死 <strong>10名</strong> 敌国士兵，但会误杀附近的 <strong>1名</strong> 敌国平民。</p> <p>平民照片如下图所示。</p> <p></p> <img src='stimuli/faces/NFF3.jpg', style='max-width: 30%;'> </img> <p><strong>你是否选择发射武器？</strong></p>","0",""
"","","","","","html-keyboard-response","76","582914","0.0-4.0-0.36","21","1","2022-10-23 08:35:01","ebf9627b049f568eb4bf28942cb89901","123.12.237.57","Mozilla/5.0 (Windows NT 10.0; WOW64) AppleWebKit/537.36 (KHTML, like Gecko) Chrome/86.0.4240.198 Safari/537.36","WebKit","Chrome","86.0.4240.198","Windows","10.0","null","<div style=""font-size:60px;"">+</div>","null",""
"","","","","","html-button-response","77","584106","0.0-4.0-1.36","21","1","2022-10-23 08:35:01","ebf9627b049f568eb4bf28942cb89901","123.12.237.57","Mozilla/5.0 (Windows NT 10.0; WOW64) AppleWebKit/537.36 (KHTML, like Gecko) Chrome/86.0.4240.198 Safari/537.36","WebKit","Chrome","86.0.4240.198","Windows","10.0","1190","<p>作为军队的指挥官，你可以选择发射导弹杀死 <strong>2名</strong> 敌国士兵，但会误杀附近的 <strong>1名</strong> 敌国平民。</p> <p>平民照片如下图所示。</p> <p></p> <img src='stimuli/faces/NFF7.jpg', style='max-width: 30%;'> </img> <p><strong>你是否选择发射武器？</strong></p>","1",""
"","","","","","html-keyboard-response","78","585109","0.0-4.0-0.37","21","1","2022-10-23 08:35:01","ebf9627b049f568eb4bf28942cb89901","123.12.237.57","Mozilla/5.0 (Windows NT 10.0; WOW64) AppleWebKit/537.36 (KHTML, like Gecko) Chrome/86.0.4240.198 Safari/537.36","WebKit","Chrome","86.0.4240.198","Windows","10.0","null","<div style=""font-size:60px;"">+</div>","null",""
"","","","","","html-button-response","79","586250","0.0-4.0-1.37","21","1","2022-10-23 08:35:01","ebf9627b049f568eb4bf28942cb89901","123.12.237.57","Mozilla/5.0 (Windows NT 10.0; WOW64) AppleWebKit/537.36 (KHTML, like Gecko) Chrome/86.0.4240.198 Safari/537.36","WebKit","Chrome","86.0.4240.198","Windows","10.0","1138","<p>作为军队的指挥官，你可以选择发射导弹杀死 <strong>3名</strong> 敌国士兵，但会误杀附近的 <strong>1名</strong> 敌国平民。</p> <p>平民照片如下图所示。</p> <p></p> <img src='stimuli/faces/NFF1.jpg', style='max-width: 30%;'> </img> <p><strong>你是否选择发射武器？</strong></p>","0",""
"","","","","","html-keyboard-response","80","587266","0.0-4.0-0.38","21","1","2022-10-23 08:35:01","ebf9627b049f568eb4bf28942cb89901","123.12.237.57","Mozilla/5.0 (Windows NT 10.0; WOW64) AppleWebKit/537.36 (KHTML, like Gecko) Chrome/86.0.4240.198 Safari/537.36","WebKit","Chrome","86.0.4240.198","Windows","10.0","null","<div style=""font-size:60px;"">+</div>","null",""
"","","","","","html-button-response","81","588043","0.0-4.0-1.38","21","1","2022-10-23 08:35:01","ebf9627b049f568eb4bf28942cb89901","123.12.237.57","Mozilla/5.0 (Windows NT 10.0; WOW64) AppleWebKit/537.36 (KHTML, like Gecko) Chrome/86.0.4240.198 Safari/537.36","WebKit","Chrome","86.0.4240.198","Windows","10.0","775","<p>作为军队的指挥官，你可以选择发射导弹杀死 <strong>10名</strong> 敌国士兵，但会误杀附近的 <strong>1名</strong> 敌国平民。</p> <p>平民照片如下图所示。</p> <p></p> <img src='stimuli/faces/NFF8.jpg', style='max-width: 30%;'> </img> <p><strong>你是否选择发射武器？</strong></p>","0",""
"","","","","","html-keyboard-response","82","589057","0.0-4.0-0.39","21","1","2022-10-23 08:35:01","ebf9627b049f568eb4bf28942cb89901","123.12.237.57","Mozilla/5.0 (Windows NT 10.0; WOW64) AppleWebKit/537.36 (KHTML, like Gecko) Chrome/86.0.4240.198 Safari/537.36","WebKit","Chrome","86.0.4240.198","Windows","10.0","null","<div style=""font-size:60px;"">+</div>","null",""
"","","","","","html-button-response","83","589881","0.0-4.0-1.39","21","1","2022-10-23 08:35:01","ebf9627b049f568eb4bf28942cb89901","123.12.237.57","Mozilla/5.0 (Windows NT 10.0; WOW64) AppleWebKit/537.36 (KHTML, like Gecko) Chrome/86.0.4240.198 Safari/537.36","WebKit","Chrome","86.0.4240.198","Windows","10.0","822","<p>作为军队的指挥官，你可以选择发射导弹杀死 <strong>10名</strong> 敌国士兵，但会炸毁附近的 <strong>1棵</strong> 敌国树木。</p> <p>树木的照片如下图所示。</p> <p></p> <img src='stimuli/trees/1.png', style='max-width: 30%;'> </img> <p><strong>你是否选择发射武器？</strong></p>","0",""
"","","","","","html-keyboard-response","84","590883","0.0-4.0-0.40","21","1","2022-10-23 08:35:01","ebf9627b049f568eb4bf28942cb89901","123.12.237.57","Mozilla/5.0 (Windows NT 10.0; WOW64) AppleWebKit/537.36 (KHTML, like Gecko) Chrome/86.0.4240.198 Safari/537.36","WebKit","Chrome","86.0.4240.198","Windows","10.0","null","<div style=""font-size:60px;"">+</div>","null",""
"","","","","","html-button-response","85","591780","0.0-4.0-1.40","21","1","2022-10-23 08:35:01","ebf9627b049f568eb4bf28942cb89901","123.12.237.57","Mozilla/5.0 (Windows NT 10.0; WOW64) AppleWebKit/537.36 (KHTML, like Gecko) Chrome/86.0.4240.198 Safari/537.36","WebKit","Chrome","86.0.4240.198","Windows","10.0","893","<p>作为军队的指挥官，你可以选择发射导弹杀死 <strong>2名</strong> 敌国士兵，但会炸毁附近的 <strong>1棵</strong> 敌国树木。</p> <p>树木的照片如下图所示。</p> <p></p> <img src='stimuli/trees/9.png', style='max-width: 30%;'> </img> <p><strong>你是否选择发射武器？</strong></p>","1",""
"","","","","","html-keyboard-response","86","592783","0.0-4.0-0.41","21","1","2022-10-23 08:35:01","ebf9627b049f568eb4bf28942cb89901","123.12.237.57","Mozilla/5.0 (Windows NT 10.0; WOW64) AppleWebKit/537.36 (KHTML, like Gecko) Chrome/86.0.4240.198 Safari/537.36","WebKit","Chrome","86.0.4240.198","Windows","10.0","null","<div style=""font-size:60px;"">+</div>","null",""
"","","","","","html-button-response","87","593888","0.0-4.0-1.41","21","1","2022-10-23 08:35:01","ebf9627b049f568eb4bf28942cb89901","123.12.237.57","Mozilla/5.0 (Windows NT 10.0; WOW64) AppleWebKit/537.36 (KHTML, like Gecko) Chrome/86.0.4240.198 Safari/537.36","WebKit","Chrome","86.0.4240.198","Windows","10.0","1103","<p>作为军队的指挥官，你可以选择发射导弹杀死 <strong>8名</strong> 敌国士兵，但会炸毁附近的 <strong>1棵</strong> 敌国树木。</p> <p>树木的照片如下图所示。</p> <p></p> <img src='stimuli/trees/6.png', style='max-width: 30%;'> </img> <p><strong>你是否选择发射武器？</strong></p>","0",""
"","","","","","html-keyboard-response","88","594890","0.0-4.0-0.42","21","1","2022-10-23 08:35:01","ebf9627b049f568eb4bf28942cb89901","123.12.237.57","Mozilla/5.0 (Windows NT 10.0; WOW64) AppleWebKit/537.36 (KHTML, like Gecko) Chrome/86.0.4240.198 Safari/537.36","WebKit","Chrome","86.0.4240.198","Windows","10.0","null","<div style=""font-size:60px;"">+</div>","null",""
"","","","","","html-button-response","89","595805","0.0-4.0-1.42","21","1","2022-10-23 08:35:01","ebf9627b049f568eb4bf28942cb89901","123.12.237.57","Mozilla/5.0 (Windows NT 10.0; WOW64) AppleWebKit/537.36 (KHTML, like Gecko) Chrome/86.0.4240.198 Safari/537.36","WebKit","Chrome","86.0.4240.198","Windows","10.0","912","<p>作为军队的指挥官，你可以选择发射导弹杀死 <strong>1名</strong> 敌国士兵，但会误杀附近的 <strong>1名</strong> 敌国平民。</p> <p>平民照片如下图所示。</p> <p></p> <img src='stimuli/faces/NFM3.jpg', style='max-width: 30%;'> </img> <p><strong>你是否选择发射武器？</strong></p>","1",""
"","","","","","html-keyboard-response","90","596807","0.0-4.0-0.43","21","1","2022-10-23 08:35:01","ebf9627b049f568eb4bf28942cb89901","123.12.237.57","Mozilla/5.0 (Windows NT 10.0; WOW64) AppleWebKit/537.36 (KHTML, like Gecko) Chrome/86.0.4240.198 Safari/537.36","WebKit","Chrome","86.0.4240.198","Windows","10.0","null","<div style=""font-size:60px;"">+</div>","null",""
"","","","","","html-button-response","91","597835","0.0-4.0-1.43","21","1","2022-10-23 08:35:01","ebf9627b049f568eb4bf28942cb89901","123.12.237.57","Mozilla/5.0 (Windows NT 10.0; WOW64) AppleWebKit/537.36 (KHTML, like Gecko) Chrome/86.0.4240.198 Safari/537.36","WebKit","Chrome","86.0.4240.198","Windows","10.0","1026","<p>作为军队的指挥官，你可以选择发射导弹杀死 <strong>6名</strong> 敌国士兵，但会误杀附近的 <strong>1名</strong> 敌国平民。</p> <p>平民照片如下图所示。</p> <p></p> <img src='stimuli/faces/NFM3.jpg', style='max-width: 30%;'> </img> <p><strong>你是否选择发射武器？</strong></p>","0",""
"","","","","","html-keyboard-response","92","598848","0.0-4.0-0.44","21","1","2022-10-23 08:35:01","ebf9627b049f568eb4bf28942cb89901","123.12.237.57","Mozilla/5.0 (Windows NT 10.0; WOW64) AppleWebKit/537.36 (KHTML, like Gecko) Chrome/86.0.4240.198 Safari/537.36","WebKit","Chrome","86.0.4240.198","Windows","10.0","null","<div style=""font-size:60px;"">+</div>","null",""
"","","","","","html-button-response","93","599585","0.0-4.0-1.44","21","1","2022-10-23 08:35:01","ebf9627b049f568eb4bf28942cb89901","123.12.237.57","Mozilla/5.0 (Windows NT 10.0; WOW64) AppleWebKit/537.36 (KHTML, like Gecko) Chrome/86.0.4240.198 Safari/537.36","WebKit","Chrome","86.0.4240.198","Windows","10.0","734","<p>作为军队的指挥官，你可以选择发射导弹杀死 <strong>9名</strong> 敌国士兵，但会炸毁附近的 <strong>1棵</strong> 敌国树木。</p> <p>树木的照片如下图所示。</p> <p></p> <img src='stimuli/trees/9.png', style='max-width: 30%;'> </img> <p><strong>你是否选择发射武器？</strong></p>","0",""
"","","","","","html-keyboard-response","94","600590","0.0-4.0-0.45","21","1","2022-10-23 08:35:01","ebf9627b049f568eb4bf28942cb89901","123.12.237.57","Mozilla/5.0 (Windows NT 10.0; WOW64) AppleWebKit/537.36 (KHTML, like Gecko) Chrome/86.0.4240.198 Safari/537.36","WebKit","Chrome","86.0.4240.198","Windows","10.0","null","<div style=""font-size:60px;"">+</div>","null",""
"","","","","","html-button-response","95","601474","0.0-4.0-1.45","21","1","2022-10-23 08:35:01","ebf9627b049f568eb4bf28942cb89901","123.12.237.57","Mozilla/5.0 (Windows NT 10.0; WOW64) AppleWebKit/537.36 (KHTML, like Gecko) Chrome/86.0.4240.198 Safari/537.36","WebKit","Chrome","86.0.4240.198","Windows","10.0","882","<p>作为军队的指挥官，你可以选择发射导弹杀死 <strong>10名</strong> 敌国士兵，但会炸毁附近的 <strong>1棵</strong> 敌国树木。</p> <p>树木的照片如下图所示。</p> <p></p> <img src='stimuli/trees/10.png', style='max-width: 30%;'> </img> <p><strong>你是否选择发射武器？</strong></p>","0",""
"","","","","","html-keyboard-response","96","602476","0.0-4.0-0.46","21","1","2022-10-23 08:35:01","ebf9627b049f568eb4bf28942cb89901","123.12.237.57","Mozilla/5.0 (Windows NT 10.0; WOW64) AppleWebKit/537.36 (KHTML, like Gecko) Chrome/86.0.4240.198 Safari/537.36","WebKit","Chrome","86.0.4240.198","Windows","10.0","null","<div style=""font-size:60px;"">+</div>","null",""
"","","","","","html-button-response","97","603364","0.0-4.0-1.46","21","1","2022-10-23 08:35:01","ebf9627b049f568eb4bf28942cb89901","123.12.237.57","Mozilla/5.0 (Windows NT 10.0; WOW64) AppleWebKit/537.36 (KHTML, like Gecko) Chrome/86.0.4240.198 Safari/537.36","WebKit","Chrome","86.0.4240.198","Windows","10.0","886","<p>作为军队的指挥官，你可以选择发射导弹杀死 <strong>1名</strong> 敌国士兵，但会误杀附近的 <strong>1名</strong> 敌国平民。</p> <p>平民照片如下图所示。</p> <p></p> <img src='stimuli/faces/NFF4.jpg', style='max-width: 30%;'> </img> <p><strong>你是否选择发射武器？</strong></p>","1",""
"","","","","","html-keyboard-response","98","604376","0.0-4.0-0.47","21","1","2022-10-23 08:35:01","ebf9627b049f568eb4bf28942cb89901","123.12.237.57","Mozilla/5.0 (Windows NT 10.0; WOW64) AppleWebKit/537.36 (KHTML, like Gecko) Chrome/86.0.4240.198 Safari/537.36","WebKit","Chrome","86.0.4240.198","Windows","10.0","null","<div style=""font-size:60px;"">+</div>","null",""
"","","","","","html-button-response","99","605211","0.0-4.0-1.47","21","1","2022-10-23 08:35:01","ebf9627b049f568eb4bf28942cb89901","123.12.237.57","Mozilla/5.0 (Windows NT 10.0; WOW64) AppleWebKit/537.36 (KHTML, like Gecko) Chrome/86.0.4240.198 Safari/537.36","WebKit","Chrome","86.0.4240.198","Windows","10.0","832","<p>作为军队的指挥官，你可以选择发射导弹杀死 <strong>4名</strong> 敌国士兵，但会误杀附近的 <strong>1名</strong> 敌国平民。</p> <p>平民照片如下图所示。</p> <p></p> <img src='stimuli/faces/NFF3.jpg', style='max-width: 30%;'> </img> <p><strong>你是否选择发射武器？</strong></p>","0",""
"","","","","","html-keyboard-response","100","606216","0.0-4.0-0.48","21","1","2022-10-23 08:35:01","ebf9627b049f568eb4bf28942cb89901","123.12.237.57","Mozilla/5.0 (Windows NT 10.0; WOW64) AppleWebKit/537.36 (KHTML, like Gecko) Chrome/86.0.4240.198 Safari/537.36","WebKit","Chrome","86.0.4240.198","Windows","10.0","null","<div style=""font-size:60px;"">+</div>","null",""
"","","","","","html-button-response","101","607171","0.0-4.0-1.48","21","1","2022-10-23 08:35:01","ebf9627b049f568eb4bf28942cb89901","123.12.237.57","Mozilla/5.0 (Windows NT 10.0; WOW64) AppleWebKit/537.36 (KHTML, like Gecko) Chrome/86.0.4240.198 Safari/537.36","WebKit","Chrome","86.0.4240.198","Windows","10.0","952","<p>作为军队的指挥官，你可以选择发射导弹杀死 <strong>1名</strong> 敌国士兵，但会误杀附近的 <strong>1名</strong> 敌国平民。</p> <p>平民照片如下图所示。</p> <p></p> <img src='stimuli/faces/NFM4.jpg', style='max-width: 30%;'> </img> <p><strong>你是否选择发射武器？</strong></p>","1",""
"","","","","","html-keyboard-response","102","608174","0.0-4.0-0.49","21","1","2022-10-23 08:35:01","ebf9627b049f568eb4bf28942cb89901","123.12.237.57","Mozilla/5.0 (Windows NT 10.0; WOW64) AppleWebKit/537.36 (KHTML, like Gecko) Chrome/86.0.4240.198 Safari/537.36","WebKit","Chrome","86.0.4240.198","Windows","10.0","null","<div style=""font-size:60px;"">+</div>","null",""
"","","","","","html-button-response","103","610154","0.0-4.0-1.49","21","1","2022-10-23 08:35:01","ebf9627b049f568eb4bf28942cb89901","123.12.237.57","Mozilla/5.0 (Windows NT 10.0; WOW64) AppleWebKit/537.36 (KHTML, like Gecko) Chrome/86.0.4240.198 Safari/537.36","WebKit","Chrome","86.0.4240.198","Windows","10.0","1978","<p>作为军队的指挥官，你可以选择发射导弹杀死 <strong>1名</strong> 敌国士兵，但会炸毁附近的 <strong>1棵</strong> 敌国树木。</p> <p>树木的照片如下图所示。</p> <p></p> <img src='stimuli/trees/11.png', style='max-width: 30%;'> </img> <p><strong>你是否选择发射武器？</strong></p>","1",""
"","","","","","html-keyboard-response","104","611157","0.0-4.0-0.50","21","1","2022-10-23 08:35:01","ebf9627b049f568eb4bf28942cb89901","123.12.237.57","Mozilla/5.0 (Windows NT 10.0; WOW64) AppleWebKit/537.36 (KHTML, like Gecko) Chrome/86.0.4240.198 Safari/537.36","WebKit","Chrome","86.0.4240.198","Windows","10.0","null","<div style=""font-size:60px;"">+</div>","null",""
"","","","","","html-button-response","105","612009","0.0-4.0-1.50","21","1","2022-10-23 08:35:01","ebf9627b049f568eb4bf28942cb89901","123.12.237.57","Mozilla/5.0 (Windows NT 10.0; WOW64) AppleWebKit/537.36 (KHTML, like Gecko) Chrome/86.0.4240.198 Safari/537.36","WebKit","Chrome","86.0.4240.198","Windows","10.0","850","<p>作为军队的指挥官，你可以选择发射导弹杀死 <strong>6名</strong> 敌国士兵，但会误杀附近的 <strong>1名</strong> 敌国平民。</p> <p>平民照片如下图所示。</p> <p></p> <img src='stimuli/faces/NFM4.jpg', style='max-width: 30%;'> </img> <p><strong>你是否选择发射武器？</strong></p>","0",""
"","","","","","html-keyboard-response","106","613011","0.0-4.0-0.51","21","1","2022-10-23 08:35:01","ebf9627b049f568eb4bf28942cb89901","123.12.237.57","Mozilla/5.0 (Windows NT 10.0; WOW64) AppleWebKit/537.36 (KHTML, like Gecko) Chrome/86.0.4240.198 Safari/537.36","WebKit","Chrome","86.0.4240.198","Windows","10.0","null","<div style=""font-size:60px;"">+</div>","null",""
"","","","","","html-button-response","107","613873","0.0-4.0-1.51","21","1","2022-10-23 08:35:01","ebf9627b049f568eb4bf28942cb89901","123.12.237.57","Mozilla/5.0 (Windows NT 10.0; WOW64) AppleWebKit/537.36 (KHTML, like Gecko) Chrome/86.0.4240.198 Safari/537.36","WebKit","Chrome","86.0.4240.198","Windows","10.0","859","<p>作为军队的指挥官，你可以选择发射导弹杀死 <strong>8名</strong> 敌国士兵，但会误杀附近的 <strong>1名</strong> 敌国平民。</p> <p>平民照片如下图所示。</p> <p></p> <img src='stimuli/faces/NFF2.jpg', style='max-width: 30%;'> </img> <p><strong>你是否选择发射武器？</strong></p>","0",""
"","","","","","html-keyboard-response","108","614876","0.0-4.0-0.52","21","1","2022-10-23 08:35:01","ebf9627b049f568eb4bf28942cb89901","123.12.237.57","Mozilla/5.0 (Windows NT 10.0; WOW64) AppleWebKit/537.36 (KHTML, like Gecko) Chrome/86.0.4240.198 Safari/537.36","WebKit","Chrome","86.0.4240.198","Windows","10.0","null","<div style=""font-size:60px;"">+</div>","null",""
"","","","","","html-button-response","109","615623","0.0-4.0-1.52","21","1","2022-10-23 08:35:01","ebf9627b049f568eb4bf28942cb89901","123.12.237.57","Mozilla/5.0 (Windows NT 10.0; WOW64) AppleWebKit/537.36 (KHTML, like Gecko) Chrome/86.0.4240.198 Safari/537.36","WebKit","Chrome","86.0.4240.198","Windows","10.0","745","<p>作为军队的指挥官，你可以选择发射导弹杀死 <strong>6名</strong> 敌国士兵，但会误杀附近的 <strong>1名</strong> 敌国平民。</p> <p>平民照片如下图所示。</p> <p></p> <img src='stimuli/faces/NFM1.jpg', style='max-width: 30%;'> </img> <p><strong>你是否选择发射武器？</strong></p>","0",""
"","","","","","html-keyboard-response","110","616626","0.0-4.0-0.53","21","1","2022-10-23 08:35:01","ebf9627b049f568eb4bf28942cb89901","123.12.237.57","Mozilla/5.0 (Windows NT 10.0; WOW64) AppleWebKit/537.36 (KHTML, like Gecko) Chrome/86.0.4240.198 Safari/537.36","WebKit","Chrome","86.0.4240.198","Windows","10.0","null","<div style=""font-size:60px;"">+</div>","null",""
"","","","","","html-button-response","111","617435","0.0-4.0-1.53","21","1","2022-10-23 08:35:01","ebf9627b049f568eb4bf28942cb89901","123.12.237.57","Mozilla/5.0 (Windows NT 10.0; WOW64) AppleWebKit/537.36 (KHTML, like Gecko) Chrome/86.0.4240.198 Safari/537.36","WebKit","Chrome","86.0.4240.198","Windows","10.0","805","<p>作为军队的指挥官，你可以选择发射导弹杀死 <strong>8名</strong> 敌国士兵，但会炸毁附近的 <strong>1棵</strong> 敌国树木。</p> <p>树木的照片如下图所示。</p> <p></p> <img src='stimuli/trees/12.png', style='max-width: 30%;'> </img> <p><strong>你是否选择发射武器？</strong></p>","0",""
"","","","","","html-keyboard-response","112","618437","0.0-4.0-0.54","21","1","2022-10-23 08:35:01","ebf9627b049f568eb4bf28942cb89901","123.12.237.57","Mozilla/5.0 (Windows NT 10.0; WOW64) AppleWebKit/537.36 (KHTML, like Gecko) Chrome/86.0.4240.198 Safari/537.36","WebKit","Chrome","86.0.4240.198","Windows","10.0","null","<div style=""font-size:60px;"">+</div>","null",""
"","","","","","html-button-response","113","619421","0.0-4.0-1.54","21","1","2022-10-23 08:35:01","ebf9627b049f568eb4bf28942cb89901","123.12.237.57","Mozilla/5.0 (Windows NT 10.0; WOW64) AppleWebKit/537.36 (KHTML, like Gecko) Chrome/86.0.4240.198 Safari/537.36","WebKit","Chrome","86.0.4240.198","Windows","10.0","981","<p>作为军队的指挥官，你可以选择发射导弹杀死 <strong>7名</strong> 敌国士兵，但会炸毁附近的 <strong>1棵</strong> 敌国树木。</p> <p>树木的照片如下图所示。</p> <p></p> <img src='stimuli/trees/7.png', style='max-width: 30%;'> </img> <p><strong>你是否选择发射武器？</strong></p>","0",""
"","","","","","html-keyboard-response","114","620425","0.0-4.0-0.55","21","1","2022-10-23 08:35:01","ebf9627b049f568eb4bf28942cb89901","123.12.237.57","Mozilla/5.0 (Windows NT 10.0; WOW64) AppleWebKit/537.36 (KHTML, like Gecko) Chrome/86.0.4240.198 Safari/537.36","WebKit","Chrome","86.0.4240.198","Windows","10.0","null","<div style=""font-size:60px;"">+</div>","null",""
"","","","","","html-button-response","115","621214","0.0-4.0-1.55","21","1","2022-10-23 08:35:01","ebf9627b049f568eb4bf28942cb89901","123.12.237.57","Mozilla/5.0 (Windows NT 10.0; WOW64) AppleWebKit/537.36 (KHTML, like Gecko) Chrome/86.0.4240.198 Safari/537.36","WebKit","Chrome","86.0.4240.198","Windows","10.0","787","<p>作为军队的指挥官，你可以选择发射导弹杀死 <strong>1名</strong> 敌国士兵，但会炸毁附近的 <strong>1棵</strong> 敌国树木。</p> <p>树木的照片如下图所示。</p> <p></p> <img src='stimuli/trees/12.png', style='max-width: 30%;'> </img> <p><strong>你是否选择发射武器？</strong></p>","1",""
"","","","","","html-keyboard-response","116","622217","0.0-4.0-0.56","21","1","2022-10-23 08:35:01","ebf9627b049f568eb4bf28942cb89901","123.12.237.57","Mozilla/5.0 (Windows NT 10.0; WOW64) AppleWebKit/537.36 (KHTML, like Gecko) Chrome/86.0.4240.198 Safari/537.36","WebKit","Chrome","86.0.4240.198","Windows","10.0","null","<div style=""font-size:60px;"">+</div>","null",""
"","","","","","html-button-response","117","623236","0.0-4.0-1.56","21","1","2022-10-23 08:35:01","ebf9627b049f568eb4bf28942cb89901","123.12.237.57","Mozilla/5.0 (Windows NT 10.0; WOW64) AppleWebKit/537.36 (KHTML, like Gecko) Chrome/86.0.4240.198 Safari/537.36","WebKit","Chrome","86.0.4240.198","Windows","10.0","1016","<p>作为军队的指挥官，你可以选择发射导弹杀死 <strong>7名</strong> 敌国士兵，但会误杀附近的 <strong>1名</strong> 敌国平民。</p> <p>平民照片如下图所示。</p> <p></p> <img src='stimuli/faces/NFF6.jpg', style='max-width: 30%;'> </img> <p><strong>你是否选择发射武器？</strong></p>","0",""
"","","","","","html-keyboard-response","118","624238","0.0-4.0-0.57","21","1","2022-10-23 08:35:01","ebf9627b049f568eb4bf28942cb89901","123.12.237.57","Mozilla/5.0 (Windows NT 10.0; WOW64) AppleWebKit/537.36 (KHTML, like Gecko) Chrome/86.0.4240.198 Safari/537.36","WebKit","Chrome","86.0.4240.198","Windows","10.0","null","<div style=""font-size:60px;"">+</div>","null",""
"","","","","","html-button-response","119","625091","0.0-4.0-1.57","21","1","2022-10-23 08:35:01","ebf9627b049f568eb4bf28942cb89901","123.12.237.57","Mozilla/5.0 (Windows NT 10.0; WOW64) AppleWebKit/537.36 (KHTML, like Gecko) Chrome/86.0.4240.198 Safari/537.36","WebKit","Chrome","86.0.4240.198","Windows","10.0","849","<p>作为军队的指挥官，你可以选择发射导弹杀死 <strong>5名</strong> 敌国士兵，但会误杀附近的 <strong>1名</strong> 敌国平民。</p> <p>平民照片如下图所示。</p> <p></p> <img src='stimuli/faces/NFF2.jpg', style='max-width: 30%;'> </img> <p><strong>你是否选择发射武器？</strong></p>","0",""
"","","","","","html-keyboard-response","120","626099","0.0-4.0-0.58","21","1","2022-10-23 08:35:01","ebf9627b049f568eb4bf28942cb89901","123.12.237.57","Mozilla/5.0 (Windows NT 10.0; WOW64) AppleWebKit/537.36 (KHTML, like Gecko) Chrome/86.0.4240.198 Safari/537.36","WebKit","Chrome","86.0.4240.198","Windows","10.0","null","<div style=""font-size:60px;"">+</div>","null",""
"","","","","","html-button-response","121","627069","0.0-4.0-1.58","21","1","2022-10-23 08:35:01","ebf9627b049f568eb4bf28942cb89901","123.12.237.57","Mozilla/5.0 (Windows NT 10.0; WOW64) AppleWebKit/537.36 (KHTML, like Gecko) Chrome/86.0.4240.198 Safari/537.36","WebKit","Chrome","86.0.4240.198","Windows","10.0","967","<p>作为军队的指挥官，你可以选择发射导弹杀死 <strong>9名</strong> 敌国士兵，但会炸毁附近的 <strong>1棵</strong> 敌国树木。</p> <p>树木的照片如下图所示。</p> <p></p> <img src='stimuli/trees/8.png', style='max-width: 30%;'> </img> <p><strong>你是否选择发射武器？</strong></p>","0",""
"","","","","","html-keyboard-response","122","628086","0.0-4.0-0.59","21","1","2022-10-23 08:35:01","ebf9627b049f568eb4bf28942cb89901","123.12.237.57","Mozilla/5.0 (Windows NT 10.0; WOW64) AppleWebKit/537.36 (KHTML, like Gecko) Chrome/86.0.4240.198 Safari/537.36","WebKit","Chrome","86.0.4240.198","Windows","10.0","null","<div style=""font-size:60px;"">+</div>","null",""
"","","","","","html-button-response","123","628923","0.0-4.0-1.59","21","1","2022-10-23 08:35:01","ebf9627b049f568eb4bf28942cb89901","123.12.237.57","Mozilla/5.0 (Windows NT 10.0; WOW64) AppleWebKit/537.36 (KHTML, like Gecko) Chrome/86.0.4240.198 Safari/537.36","WebKit","Chrome","86.0.4240.198","Windows","10.0","835","<p>作为军队的指挥官，你可以选择发射导弹杀死 <strong>5名</strong> 敌国士兵，但会炸毁附近的 <strong>1棵</strong> 敌国树木。</p> <p>树木的照片如下图所示。</p> <p></p> <img src='stimuli/trees/8.png', style='max-width: 30%;'> </img> <p><strong>你是否选择发射武器？</strong></p>","0",""
"","","","","","html-keyboard-response","124","629936","0.0-4.0-0.60","21","1","2022-10-23 08:35:01","ebf9627b049f568eb4bf28942cb89901","123.12.237.57","Mozilla/5.0 (Windows NT 10.0; WOW64) AppleWebKit/537.36 (KHTML, like Gecko) Chrome/86.0.4240.198 Safari/537.36","WebKit","Chrome","86.0.4240.198","Windows","10.0","null","<div style=""font-size:60px;"">+</div>","null",""
"","","","","","html-button-response","125","630699","0.0-4.0-1.60","21","1","2022-10-23 08:35:01","ebf9627b049f568eb4bf28942cb89901","123.12.237.57","Mozilla/5.0 (Windows NT 10.0; WOW64) AppleWebKit/537.36 (KHTML, like Gecko) Chrome/86.0.4240.198 Safari/537.36","WebKit","Chrome","86.0.4240.198","Windows","10.0","761","<p>作为军队的指挥官，你可以选择发射导弹杀死 <strong>5名</strong> 敌国士兵，但会炸毁附近的 <strong>1棵</strong> 敌国树木。</p> <p>树木的照片如下图所示。</p> <p></p> <img src='stimuli/trees/2.png', style='max-width: 30%;'> </img> <p><strong>你是否选择发射武器？</strong></p>","0",""
"","","","","","html-keyboard-response","126","631702","0.0-4.0-0.61","21","1","2022-10-23 08:35:01","ebf9627b049f568eb4bf28942cb89901","123.12.237.57","Mozilla/5.0 (Windows NT 10.0; WOW64) AppleWebKit/537.36 (KHTML, like Gecko) Chrome/86.0.4240.198 Safari/537.36","WebKit","Chrome","86.0.4240.198","Windows","10.0","null","<div style=""font-size:60px;"">+</div>","null",""
"","","","","","html-button-response","127","632694","0.0-4.0-1.61","21","1","2022-10-23 08:35:01","ebf9627b049f568eb4bf28942cb89901","123.12.237.57","Mozilla/5.0 (Windows NT 10.0; WOW64) AppleWebKit/537.36 (KHTML, like Gecko) Chrome/86.0.4240.198 Safari/537.36","WebKit","Chrome","86.0.4240.198","Windows","10.0","990","<p>作为军队的指挥官，你可以选择发射导弹杀死 <strong>4名</strong> 敌国士兵，但会误杀附近的 <strong>1名</strong> 敌国平民。</p> <p>平民照片如下图所示。</p> <p></p> <img src='stimuli/faces/NFM1.jpg', style='max-width: 30%;'> </img> <p><strong>你是否选择发射武器？</strong></p>","0",""
"","","","","","html-keyboard-response","128","633697","0.0-4.0-0.62","21","1","2022-10-23 08:35:01","ebf9627b049f568eb4bf28942cb89901","123.12.237.57","Mozilla/5.0 (Windows NT 10.0; WOW64) AppleWebKit/537.36 (KHTML, like Gecko) Chrome/86.0.4240.198 Safari/537.36","WebKit","Chrome","86.0.4240.198","Windows","10.0","null","<div style=""font-size:60px;"">+</div>","null",""
"","","","","","html-button-response","129","634681","0.0-4.0-1.62","21","1","2022-10-23 08:35:01","ebf9627b049f568eb4bf28942cb89901","123.12.237.57","Mozilla/5.0 (Windows NT 10.0; WOW64) AppleWebKit/537.36 (KHTML, like Gecko) Chrome/86.0.4240.198 Safari/537.36","WebKit","Chrome","86.0.4240.198","Windows","10.0","981","<p>作为军队的指挥官，你可以选择发射导弹杀死 <strong>10名</strong> 敌国士兵，但会炸毁附近的 <strong>1棵</strong> 敌国树木。</p> <p>树木的照片如下图所示。</p> <p></p> <img src='stimuli/trees/4.png', style='max-width: 30%;'> </img> <p><strong>你是否选择发射武器？</strong></p>","0",""
"","","","","","html-keyboard-response","130","635683","0.0-4.0-0.63","21","1","2022-10-23 08:35:01","ebf9627b049f568eb4bf28942cb89901","123.12.237.57","Mozilla/5.0 (Windows NT 10.0; WOW64) AppleWebKit/537.36 (KHTML, like Gecko) Chrome/86.0.4240.198 Safari/537.36","WebKit","Chrome","86.0.4240.198","Windows","10.0","null","<div style=""font-size:60px;"">+</div>","null",""
"","","","","","html-button-response","131","636588","0.0-4.0-1.63","21","1","2022-10-23 08:35:01","ebf9627b049f568eb4bf28942cb89901","123.12.237.57","Mozilla/5.0 (Windows NT 10.0; WOW64) AppleWebKit/537.36 (KHTML, like Gecko) Chrome/86.0.4240.198 Safari/537.36","WebKit","Chrome","86.0.4240.198","Windows","10.0","902","<p>作为军队的指挥官，你可以选择发射导弹杀死 <strong>1名</strong> 敌国士兵，但会炸毁附近的 <strong>1棵</strong> 敌国树木。</p> <p>树木的照片如下图所示。</p> <p></p> <img src='stimuli/trees/6.png', style='max-width: 30%;'> </img> <p><strong>你是否选择发射武器？</strong></p>","1",""
"","","","","","survey-multi-choice","132","640211","0.0-5.0","21","1","2022-10-23 08:35:01","ebf9627b049f568eb4bf28942cb89901","123.12.237.57","Mozilla/5.0 (Windows NT 10.0; WOW64) AppleWebKit/537.36 (KHTML, like Gecko) Chrome/86.0.4240.198 Safari/537.36","WebKit","Chrome","86.0.4240.198","Windows","10.0","3620","","{""Attention1"":""""}","[0]"
"","","","","","html-button-response","133","642363","0.0-6.0","21","1","2022-10-23 08:35:01","ebf9627b049f568eb4bf28942cb89901","123.12.237.57","Mozilla/5.0 (Windows NT 10.0; WOW64) AppleWebKit/537.36 (KHTML, like Gecko) Chrome/86.0.4240.198 Safari/537.36","WebKit","Chrome","86.0.4240.198","Windows","10.0","2147","<p style=""font-size:20px;font-weight:bold;"">恭喜！</p><p>你已经完成了实验的第一部分。</p><p>请休息放松一下，然后进入第二部分。</p><p>这部分大约需要10分钟。</p>","0",""
"","","","","","survey-text","134","716811","0.0-7.0","21","1","2022-10-23 08:35:01","ebf9627b049f568eb4bf28942cb89901","123.12.237.57","Mozilla/5.0 (Windows NT 10.0; WOW64) AppleWebKit/537.36 (KHTML, like Gecko) Chrome/86.0.4240.198 Safari/537.36","WebKit","Chrome","86.0.4240.198","Windows","10.0","73440","","{""Age"":""20"",""Nation"":""中国"",""Born"":""河北省唐山市"",""Live"":""河南省鹤壁市"",""Ethnic"":""汉族"",""Alipay"":""17153279366""}",""
"","","","","","survey-multi-choice","135","727792","0.0-8.0","21","1","2022-10-23 08:35:01","ebf9627b049f568eb4bf28942cb89901","123.12.237.57","Mozilla/5.0 (Windows NT 10.0; WOW64) AppleWebKit/537.36 (KHTML, like Gecko) Chrome/86.0.4240.198 Safari/537.36","WebKit","Chrome","86.0.4240.198","Windows","10.0","10977","","{""Gender"":""女"",""Education"":""高中毕业"",""Income"":""￥35,000-￥69,999"",""Children"":""0"",""Race"":""亚洲人""}","[0,1,2,3,4]"
"","","","","","survey-multi-select","136","732280","0.0-9.0","21","1","2022-10-23 08:35:01","ebf9627b049f568eb4bf28942cb89901","123.12.237.57","Mozilla/5.0 (Windows NT 10.0; WOW64) AppleWebKit/537.36 (KHTML, like Gecko) Chrome/86.0.4240.198 Safari/537.36","WebKit","Chrome","86.0.4240.198","Windows","10.0","4480","","{""Marriage"":[""未婚""],""Religion"":[""无宗教信仰""]}","[0,1]"
"","","","","","survey-multi-choice","137","736769","0.0-10.0","21","1","2022-10-23 08:35:01","ebf9627b049f568eb4bf28942cb89901","123.12.237.57","Mozilla/5.0 (Windows NT 10.0; WOW64) AppleWebKit/537.36 (KHTML, like Gecko) Chrome/86.0.4240.198 Safari/537.36","WebKit","Chrome","86.0.4240.198","Windows","10.0","4483","","{""SES"":""4""}","[0]"
"","","","","","html-button-response","138","737994","0.0-11.0","21","1","2022-10-23 08:35:01","ebf9627b049f568eb4bf28942cb89901","123.12.237.57","Mozilla/5.0 (Windows NT 10.0; WOW64) AppleWebKit/537.36 (KHTML, like Gecko) Chrome/86.0.4240.198 Safari/537.36","WebKit","Chrome","86.0.4240.198","Windows","10.0","1220","<p><strong>请判断下列陈述在多大程度上可以形容你？</p><p> (1 = ""和我一点都不像"" to 5 = ""非常像我"".)</strong></p>","0",""
"","","","","","survey-likert","139","757516","0.0-12.0","21","1","2022-10-23 08:35:01","ebf9627b049f568eb4bf28942cb89901","123.12.237.57","Mozilla/5.0 (Windows NT 10.0; WOW64) AppleWebKit/537.36 (KHTML, like Gecko) Chrome/86.0.4240.198 Safari/537.36","WebKit","Chrome","86.0.4240.198","Windows","10.0","19518","","{""Aggression1"":4,""Aggression2"":3,""Aggression3"":3,""Aggression4"":1,""Aggression5"":4,""Aggression6"":3,""Aggression7"":1,""Aggression8"":4,""Aggression9"":3}","[0,1,2,3,4,5,6,7,8]"
"","","","","","html-button-response","140","758652","0.0-13.0","21","1","2022-10-23 08:35:01","ebf9627b049f568eb4bf28942cb89901","123.12.237.57","Mozilla/5.0 (Windows NT 10.0; WOW64) AppleWebKit/537.36 (KHTML, like Gecko) Chrome/86.0.4240.198 Safari/537.36","WebKit","Chrome","86.0.4240.198","Windows","10.0","1130","<p><strong>请判断你在多大程度上同意下列陈述。</strong></p>","0",""
"","","","","","survey-likert","141","817892","0.0-14.0","21","1","2022-10-23 08:35:01","ebf9627b049f568eb4bf28942cb89901","123.12.237.57","Mozilla/5.0 (Windows NT 10.0; WOW64) AppleWebKit/537.36 (KHTML, like Gecko) Chrome/86.0.4240.198 Safari/537.36","WebKit","Chrome","86.0.4240.198","Windows","10.0","59234","","{""scale21"":3,""scale3"":4,""scale28"":3,""scale12"":1,""scale17"":4,""scale8"":4,""scale13"":3,""scale7"":1,""scale14"":2,""scale23"":4,""scale9"":3,""scale4"":3,""scale15"":4,""scale25"":2,""scale6"":4,""scale16"":4,""scale20"":3,""scale10"":4,""scale18"":1,""scale27"":3,""scale11"":3,""scale24"":4,""scale22"":3,""scale5"":4,""scale1"":4,""scale26"":3,""scale2"":4,""scale19"":2}","[20,2,27,11,16,7,12,6,13,22,8,3,14,24,5,15,19,9,17,26,10,23,21,4,0,25,1,18]"
"","","","","","html-button-response","142","819157","0.0-15.0","21","1","2022-10-23 08:35:01","ebf9627b049f568eb4bf28942cb89901","123.12.237.57","Mozilla/5.0 (Windows NT 10.0; WOW64) AppleWebKit/537.36 (KHTML, like Gecko) Chrome/86.0.4240.198 Safari/537.36","WebKit","Chrome","86.0.4240.198","Windows","10.0","1259","<p><strong>请判断你在多大程度上同意下列陈述。</strong></p>","0",""
"","","","","","survey-likert","143","854369","0.0-16.0","21","1","2022-10-23 08:35:01","ebf9627b049f568eb4bf28942cb89901","123.12.237.57","Mozilla/5.0 (Windows NT 10.0; WOW64) AppleWebKit/537.36 (KHTML, like Gecko) Chrome/86.0.4240.198 Safari/537.36","WebKit","Chrome","86.0.4240.198","Windows","10.0","35208","","{""sdo4"":4,""sdo8"":6,""sdo9"":5,""sdo14"":6,""sdo3"":4,""sdo7"":1,""sdo16"":3,""sdo10"":5,""sdo15"":6,""sdo11"":4,""sdo12"":6,""sdo5"":5,""sdo13"":5,""sdo6"":3,""sdo1"":2,""sdo2"":4}","[3,7,8,13,2,6,15,9,14,10,11,4,12,5,0,1]"
"","","","","","html-button-response","144","855311","0.0-17.0","21","1","2022-10-23 08:35:01","ebf9627b049f568eb4bf28942cb89901","123.12.237.57","Mozilla/5.0 (Windows NT 10.0; WOW64) AppleWebKit/537.36 (KHTML, like Gecko) Chrome/86.0.4240.198 Safari/537.36","WebKit","Chrome","86.0.4240.198","Windows","10.0","937","<p><strong>请判断你在多大程度上同意下列陈述。</strong></p>","0",""
"","","","","","survey-likert","145","891889","0.0-18.0","21","1","2022-10-23 08:35:01","ebf9627b049f568eb4bf28942cb89901","123.12.237.57","Mozilla/5.0 (Windows NT 10.0; WOW64) AppleWebKit/537.36 (KHTML, like Gecko) Chrome/86.0.4240.198 Safari/537.36","WebKit","Chrome","86.0.4240.198","Windows","10.0","36572","","{""caring1"":3,""liking1"":0,""caring2"":4,""protection1"":4,""liking2"":0,""caring3"":3,""protection2"":4,""liking3"":4,""protection3"":3,""caring4"":4,""liking4"":2,""protection4"":4,""caring5"":3,""liking5"":3,""protection5"":1}","[0,1,2,3,4,5,6,7,8,9,10,11,12,13,14]"
"","","","","","html-button-response","146","893960","0.0-19.0","21","1","2022-10-23 08:35:01","ebf9627b049f568eb4bf28942cb89901","123.12.237.57","Mozilla/5.0 (Windows NT 10.0; WOW64) AppleWebKit/537.36 (KHTML, like Gecko) Chrome/86.0.4240.198 Safari/537.36","WebKit","Chrome","86.0.4240.198","Windows","10.0","2067","<p><strong>请判断下列场景中你的内心感受有多柔软。</strong></p>","0",""
"","","","","","survey-likert","147","916790","0.0-20.0","21","1","2022-10-23 08:35:01","ebf9627b049f568eb4bf28942cb89901","123.12.237.57","Mozilla/5.0 (Windows NT 10.0; WOW64) AppleWebKit/537.36 (KHTML, like Gecko) Chrome/86.0.4240.198 Safari/537.36","WebKit","Chrome","86.0.4240.198","Windows","10.0","22826","","{""tenderness-positive1"":4,""tenderness-negative1"":1,""tenderness-negative2"":3,""tenderness-positive2"":4,""tenderness-positive3"":4,""tenderness-negative3"":1,""tenderness-positive4"":3,""tendereness-negative4"":3,""tendernness-negative5"":1,""tenderness-positive5"":4}","[0,1,2,3,4,5,6,7,8,9]"
"","","","","","survey-multi-choice","148","920307","0.0-21.0","21","1","2022-10-23 08:35:01","ebf9627b049f568eb4bf28942cb89901","123.12.237.57","Mozilla/5.0 (Windows NT 10.0; WOW64) AppleWebKit/537.36 (KHTML, like Gecko) Chrome/86.0.4240.198 Safari/537.36","WebKit","Chrome","86.0.4240.198","Windows","10.0","3510","","{""Attention2"":""其他""}","[0]"
"","","","","","html-button-response","149","921409","0.0-22.0","21","1","2022-10-23 08:35:01","ebf9627b049f568eb4bf28942cb89901","123.12.237.57","Mozilla/5.0 (Windows NT 10.0; WOW64) AppleWebKit/537.36 (KHTML, like Gecko) Chrome/86.0.4240.198 Safari/537.36","WebKit","Chrome","86.0.4240.198","Windows","10.0","1098","<p><strong>请判断你在多大程度上同意下列陈述。</strong></p>","0",""
"","","","","","survey-likert","150","972536","0.0-23.0","21","1","2022-10-23 08:35:01","ebf9627b049f568eb4bf28942cb89901","123.12.237.57","Mozilla/5.0 (Windows NT 10.0; WOW64) AppleWebKit/537.36 (KHTML, like Gecko) Chrome/86.0.4240.198 Safari/537.36","WebKit","Chrome","86.0.4240.198","Windows","10.0","51122","","{""Nation4"":2,""Patri2"":4,""Patri6"":0,""Nation8"":4,""Nation7"":3,""Patri4"":4,""Patri11"":1,""Nation3"":3,""Nation2"":4,""Patri3"":3,""Patri1"":4,""Patri7"":4,""Patri10"":0,""Patri9"":1,""Nation5"":3,""Patri8"":4,""Patri5"":4,""Nation1"":3,""Patri12"":1,""Nation6"":3}","[15,1,5,19,18,3,10,14,13,2,0,6,9,8,16,7,4,12,11,17]"
"","","","","","html-button-response","151","973785","0.0-24.0","21","1","2022-10-23 08:35:01","ebf9627b049f568eb4bf28942cb89901","123.12.237.57","Mozilla/5.0 (Windows NT 10.0; WOW64) AppleWebKit/537.36 (KHTML, like Gecko) Chrome/86.0.4240.198 Safari/537.36","WebKit","Chrome","86.0.4240.198","Windows","10.0","1244","<p><strong>请判断你在多大程度上同意下列陈述。</strong></p>","0",""
"","","","","","survey-likert","152","1007038","0.0-25.0","21","1","2022-10-23 08:35:01","ebf9627b049f568eb4bf28942cb89901","123.12.237.57","Mozilla/5.0 (Windows NT 10.0; WOW64) AppleWebKit/537.36 (KHTML, like Gecko) Chrome/86.0.4240.198 Safari/537.36","WebKit","Chrome","86.0.4240.198","Windows","10.0","33246","","{""hi4"":7,""hc3"":5,""hi1"":7,""vi1"":8,""hi3"":7,""vc2"":4,""hc2"":7,""vc3"":5,""vi4"":8,""vc1"":7,""vi2"":8,""hc1"":5,""vc4"":7,""hi2"":8,""vi3"":6,""Robot"":6,""hc4"":8}","[3,11,0,4,2,14,10,15,8,13,5,9,16,1,6,7,12]"
"","","","","","survey-text","153","1011297","0.0-26.0","21","1","2022-10-23 08:35:01","ebf9627b049f568eb4bf28942cb89901","123.12.237.57","Mozilla/5.0 (Windows NT 10.0; WOW64) AppleWebKit/537.36 (KHTML, like Gecko) Chrome/86.0.4240.198 Safari/537.36","WebKit","Chrome","86.0.4240.198","Windows","10.0","4246","","{""Comments"":""没有""}",""
"","","","","","html-button-response","154","1012469","0.0-27.0","21","1","2022-10-23 08:35:01","ebf9627b049f568eb4bf28942cb89901","123.12.237.57","Mozilla/5.0 (Windows NT 10.0; WOW64) AppleWebKit/537.36 (KHTML, like Gecko) Chrome/86.0.4240.198 Safari/537.36","WebKit","Chrome","86.0.4240.198","Windows","10.0","1168","<strong><p>恭喜你完成了实验！</p><p>感谢您的参与。</p></strong>","0",""
