"success","timeout","failed_images","failed_audio","failed_video","trial_type","trial_index","time_elapsed","internal_node_id","run_id","condition","recorded_at","source_code_version","ip","user_agent","device","browser","browser_version","platform","platform_version","rt","stimulus","response","question_order"
"true","false","[]","[]","[]","preload","0","2319","0.0-0.0","26","1","2022-10-24 08:27:48","ebf9627b049f568eb4bf28942cb89901","223.74.73.158","Mozilla/5.0 (Windows NT 6.3; Win64; x64) AppleWebKit/537.36 (KHTML, like Gecko) Chrome/106.0.0.0 Safari/537.36","WebKit","Chrome","106.0.0.0","Windows","6.3","","","",""
"true","","","","","fullscreen","1","7260","0.0-1.0","26","1","2022-10-24 08:27:48","ebf9627b049f568eb4bf28942cb89901","223.74.73.158","Mozilla/5.0 (Windows NT 6.3; Win64; x64) AppleWebKit/537.36 (KHTML, like Gecko) Chrome/106.0.0.0 Safari/537.36","WebKit","Chrome","106.0.0.0","Windows","6.3","","","",""
"","","","","","html-button-response","2","59057","0.0-2.0","26","1","2022-10-24 08:27:48","ebf9627b049f568eb4bf28942cb89901","223.74.73.158","Mozilla/5.0 (Windows NT 6.3; Win64; x64) AppleWebKit/537.36 (KHTML, like Gecko) Chrome/106.0.0.0 Safari/537.36","WebKit","Chrome","106.0.0.0","Windows","6.3","51791","<p style=""font-size:20px;font-weight:bold;"">实验知情同意书</p><p style=""text-align:left;""><strong>实验名称：</strong>社会冲突研究</p><p style=""text-align:left;""><strong>主要研究者：</strong>韩晓春副教授（北京师范大学心理学部）</p><p style=""text-align:left;""><strong>联系方式：</strong>发送邮件至xiaochun.han@bnu.edu.cn</p><p style=""text-align:left;""><strong>研究目的：</strong>研究旨在了解人类面对群体冲突时的决策方式，以及相关的心理学特质。实验调查大约需要20分钟。</p><p style=""text-align:left;""><strong>实验流程：</strong>实验包含两部分。第一部分呈现一系列群体冲突场景，请你决定如何对这些冲突进行反应，大约需要10分钟完成。第二部分包含一系列人口统计学信息收集和心理学问卷，大约需要10分钟完成。</p><p style=""text-align:left;""><strong>参加及退出规则：</strong>参加本实验完全取决于您的个人意愿。在参与过程中，您可以随时退出，并且不用承担任何后果。</p><p style=""text-align:left;""><strong>隐私：</strong>本实验完全匿名进行，不会收集您的姓名或其他能够识别您身份的信息。实验中收集的作答仅用作科学研究使用，可能会在学术期刊/书籍上发表，或者用于教学，您的数据未来可能会和其他研究者或实验室分享，但您的个人身份不会被识别。</p><p style=""text-align:left;""><strong>实验报酬：</strong>实验完成后，您将获得15元人民币报酬，以感谢您的时间和努力。调查问卷中包含几道题目用以测验您作答时的认真度。只有完成全部实验，并且正确回答认真度测验的被试才能获得实验报酬。实验报酬将通过支付宝转账发放。</p><p style=""text-align:left;font-size:20px;""><strong>如果您同意以上实验知情同意书的内容，请点击'同意并且开始实验'按钮；否则请关闭浏览器界面，退出实验。</strong></p>","0",""
"","","","","","html-button-response","3","65304","0.0-3.0","26","1","2022-10-24 08:27:48","ebf9627b049f568eb4bf28942cb89901","223.74.73.158","Mozilla/5.0 (Windows NT 6.3; Win64; x64) AppleWebKit/537.36 (KHTML, like Gecko) Chrome/106.0.0.0 Safari/537.36","WebKit","Chrome","106.0.0.0","Windows","6.3","6239","<p ><strong>实验任务一：</strong></p><p>请想象你的国家与另一个国家发生了军事冲突。</p><p>你是国家军队的指挥官，你将如何在冲突中进行决策。</p><p>具体来说，作为军队指挥官，请你决定是否发射导弹进行打击。</p><p>接下来，你会面对一系列场景，请仔细阅读每个场景，然后进行决策。</p><p>这部分实验任务大约需要10分钟。</p><p><strong>实验过程中，请集中注意力。</strong></p>","0",""
"","","","","","html-keyboard-response","4","66310","0.0-4.0-0.0","26","1","2022-10-24 08:27:48","ebf9627b049f568eb4bf28942cb89901","223.74.73.158","Mozilla/5.0 (Windows NT 6.3; Win64; x64) AppleWebKit/537.36 (KHTML, like Gecko) Chrome/106.0.0.0 Safari/537.36","WebKit","Chrome","106.0.0.0","Windows","6.3","null","<div style=""font-size:60px;"">+</div>","null",""
"","","","","","html-button-response","5","71576","0.0-4.0-1.0","26","1","2022-10-24 08:27:48","ebf9627b049f568eb4bf28942cb89901","223.74.73.158","Mozilla/5.0 (Windows NT 6.3; Win64; x64) AppleWebKit/537.36 (KHTML, like Gecko) Chrome/106.0.0.0 Safari/537.36","WebKit","Chrome","106.0.0.0","Windows","6.3","5255","<p>作为军队的指挥官，你可以选择发射导弹杀死 <strong>9名</strong> 敌国士兵，但会误杀附近的 <strong>1名</strong> 敌国平民。</p> <p>平民照片如下图所示。</p> <p></p> <img src='stimuli/faces/NFF8.jpg', style='max-width: 30%;'> </img> <p><strong>你是否选择发射武器？</strong></p>","0",""
"","","","","","html-keyboard-response","6","72583","0.0-4.0-0.1","26","1","2022-10-24 08:27:48","ebf9627b049f568eb4bf28942cb89901","223.74.73.158","Mozilla/5.0 (Windows NT 6.3; Win64; x64) AppleWebKit/537.36 (KHTML, like Gecko) Chrome/106.0.0.0 Safari/537.36","WebKit","Chrome","106.0.0.0","Windows","6.3","null","<div style=""font-size:60px;"">+</div>","null",""
"","","","","","html-button-response","7","77816","0.0-4.0-1.1","26","1","2022-10-24 08:27:48","ebf9627b049f568eb4bf28942cb89901","223.74.73.158","Mozilla/5.0 (Windows NT 6.3; Win64; x64) AppleWebKit/537.36 (KHTML, like Gecko) Chrome/106.0.0.0 Safari/537.36","WebKit","Chrome","106.0.0.0","Windows","6.3","5226","<p>作为军队的指挥官，你可以选择发射导弹杀死 <strong>9名</strong> 敌国士兵，但会炸毁附近的 <strong>1棵</strong> 敌国树木。</p> <p>树木的照片如下图所示。</p> <p></p> <img src='stimuli/trees/16.png', style='max-width: 30%;'> </img> <p><strong>你是否选择发射武器？</strong></p>","0",""
"","","","","","html-keyboard-response","8","78820","0.0-4.0-0.2","26","1","2022-10-24 08:27:48","ebf9627b049f568eb4bf28942cb89901","223.74.73.158","Mozilla/5.0 (Windows NT 6.3; Win64; x64) AppleWebKit/537.36 (KHTML, like Gecko) Chrome/106.0.0.0 Safari/537.36","WebKit","Chrome","106.0.0.0","Windows","6.3","null","<div style=""font-size:60px;"">+</div>","null",""
"","","","","","html-button-response","9","87808","0.0-4.0-1.2","26","1","2022-10-24 08:27:48","ebf9627b049f568eb4bf28942cb89901","223.74.73.158","Mozilla/5.0 (Windows NT 6.3; Win64; x64) AppleWebKit/537.36 (KHTML, like Gecko) Chrome/106.0.0.0 Safari/537.36","WebKit","Chrome","106.0.0.0","Windows","6.3","8978","<p>作为军队的指挥官，你可以选择发射导弹杀死 <strong>4名</strong> 敌国士兵，但会误杀附近的 <strong>1名</strong> 敌国平民。</p> <p>平民照片如下图所示。</p> <p></p> <img src='stimuli/faces/NFM2.jpg', style='max-width: 30%;'> </img> <p><strong>你是否选择发射武器？</strong></p>","0",""
"","","","","","html-keyboard-response","10","88812","0.0-4.0-0.3","26","1","2022-10-24 08:27:48","ebf9627b049f568eb4bf28942cb89901","223.74.73.158","Mozilla/5.0 (Windows NT 6.3; Win64; x64) AppleWebKit/537.36 (KHTML, like Gecko) Chrome/106.0.0.0 Safari/537.36","WebKit","Chrome","106.0.0.0","Windows","6.3","null","<div style=""font-size:60px;"">+</div>","null",""
"","","","","","html-button-response","11","92593","0.0-4.0-1.3","26","1","2022-10-24 08:27:48","ebf9627b049f568eb4bf28942cb89901","223.74.73.158","Mozilla/5.0 (Windows NT 6.3; Win64; x64) AppleWebKit/537.36 (KHTML, like Gecko) Chrome/106.0.0.0 Safari/537.36","WebKit","Chrome","106.0.0.0","Windows","6.3","3773","<p>作为军队的指挥官，你可以选择发射导弹杀死 <strong>5名</strong> 敌国士兵，但会炸毁附近的 <strong>1棵</strong> 敌国树木。</p> <p>树木的照片如下图所示。</p> <p></p> <img src='stimuli/trees/15.png', style='max-width: 30%;'> </img> <p><strong>你是否选择发射武器？</strong></p>","1",""
"","","","","","html-keyboard-response","12","93599","0.0-4.0-0.4","26","1","2022-10-24 08:27:48","ebf9627b049f568eb4bf28942cb89901","223.74.73.158","Mozilla/5.0 (Windows NT 6.3; Win64; x64) AppleWebKit/537.36 (KHTML, like Gecko) Chrome/106.0.0.0 Safari/537.36","WebKit","Chrome","106.0.0.0","Windows","6.3","null","<div style=""font-size:60px;"">+</div>","null",""
"","","","","","html-button-response","13","108065","0.0-4.0-1.4","26","1","2022-10-24 08:27:48","ebf9627b049f568eb4bf28942cb89901","223.74.73.158","Mozilla/5.0 (Windows NT 6.3; Win64; x64) AppleWebKit/537.36 (KHTML, like Gecko) Chrome/106.0.0.0 Safari/537.36","WebKit","Chrome","106.0.0.0","Windows","6.3","14459","<p>作为军队的指挥官，你可以选择发射导弹杀死 <strong>6名</strong> 敌国士兵，但会误杀附近的 <strong>1名</strong> 敌国平民。</p> <p>平民照片如下图所示。</p> <p></p> <img src='stimuli/faces/NFM1.jpg', style='max-width: 30%;'> </img> <p><strong>你是否选择发射武器？</strong></p>","0",""
"","","","","","html-keyboard-response","14","109069","0.0-4.0-0.5","26","1","2022-10-24 08:27:48","ebf9627b049f568eb4bf28942cb89901","223.74.73.158","Mozilla/5.0 (Windows NT 6.3; Win64; x64) AppleWebKit/537.36 (KHTML, like Gecko) Chrome/106.0.0.0 Safari/537.36","WebKit","Chrome","106.0.0.0","Windows","6.3","null","<div style=""font-size:60px;"">+</div>","null",""
"","","","","","html-button-response","15","112281","0.0-4.0-1.5","26","1","2022-10-24 08:27:48","ebf9627b049f568eb4bf28942cb89901","223.74.73.158","Mozilla/5.0 (Windows NT 6.3; Win64; x64) AppleWebKit/537.36 (KHTML, like Gecko) Chrome/106.0.0.0 Safari/537.36","WebKit","Chrome","106.0.0.0","Windows","6.3","3205","<p>作为军队的指挥官，你可以选择发射导弹杀死 <strong>8名</strong> 敌国士兵，但会炸毁附近的 <strong>1棵</strong> 敌国树木。</p> <p>树木的照片如下图所示。</p> <p></p> <img src='stimuli/trees/3.png', style='max-width: 30%;'> </img> <p><strong>你是否选择发射武器？</strong></p>","1",""
"","","","","","html-keyboard-response","16","113285","0.0-4.0-0.6","26","1","2022-10-24 08:27:48","ebf9627b049f568eb4bf28942cb89901","223.74.73.158","Mozilla/5.0 (Windows NT 6.3; Win64; x64) AppleWebKit/537.36 (KHTML, like Gecko) Chrome/106.0.0.0 Safari/537.36","WebKit","Chrome","106.0.0.0","Windows","6.3","null","<div style=""font-size:60px;"">+</div>","null",""
"","","","","","html-button-response","17","115617","0.0-4.0-1.6","26","1","2022-10-24 08:27:48","ebf9627b049f568eb4bf28942cb89901","223.74.73.158","Mozilla/5.0 (Windows NT 6.3; Win64; x64) AppleWebKit/537.36 (KHTML, like Gecko) Chrome/106.0.0.0 Safari/537.36","WebKit","Chrome","106.0.0.0","Windows","6.3","2324","<p>作为军队的指挥官，你可以选择发射导弹杀死 <strong>8名</strong> 敌国士兵，但会误杀附近的 <strong>1名</strong> 敌国平民。</p> <p>平民照片如下图所示。</p> <p></p> <img src='stimuli/faces/NFF2.jpg', style='max-width: 30%;'> </img> <p><strong>你是否选择发射武器？</strong></p>","0",""
"","","","","","html-keyboard-response","18","116623","0.0-4.0-0.7","26","1","2022-10-24 08:27:48","ebf9627b049f568eb4bf28942cb89901","223.74.73.158","Mozilla/5.0 (Windows NT 6.3; Win64; x64) AppleWebKit/537.36 (KHTML, like Gecko) Chrome/106.0.0.0 Safari/537.36","WebKit","Chrome","106.0.0.0","Windows","6.3","null","<div style=""font-size:60px;"">+</div>","null",""
"","","","","","html-button-response","19","122698","0.0-4.0-1.7","26","1","2022-10-24 08:27:48","ebf9627b049f568eb4bf28942cb89901","223.74.73.158","Mozilla/5.0 (Windows NT 6.3; Win64; x64) AppleWebKit/537.36 (KHTML, like Gecko) Chrome/106.0.0.0 Safari/537.36","WebKit","Chrome","106.0.0.0","Windows","6.3","6069","<p>作为军队的指挥官，你可以选择发射导弹杀死 <strong>7名</strong> 敌国士兵，但会误杀附近的 <strong>1名</strong> 敌国平民。</p> <p>平民照片如下图所示。</p> <p></p> <img src='stimuli/faces/NFM7.jpg', style='max-width: 30%;'> </img> <p><strong>你是否选择发射武器？</strong></p>","0",""
"","","","","","html-keyboard-response","20","123702","0.0-4.0-0.8","26","1","2022-10-24 08:27:48","ebf9627b049f568eb4bf28942cb89901","223.74.73.158","Mozilla/5.0 (Windows NT 6.3; Win64; x64) AppleWebKit/537.36 (KHTML, like Gecko) Chrome/106.0.0.0 Safari/537.36","WebKit","Chrome","106.0.0.0","Windows","6.3","null","<div style=""font-size:60px;"">+</div>","null",""
"","","","","","html-button-response","21","125769","0.0-4.0-1.8","26","1","2022-10-24 08:27:48","ebf9627b049f568eb4bf28942cb89901","223.74.73.158","Mozilla/5.0 (Windows NT 6.3; Win64; x64) AppleWebKit/537.36 (KHTML, like Gecko) Chrome/106.0.0.0 Safari/537.36","WebKit","Chrome","106.0.0.0","Windows","6.3","2061","<p>作为军队的指挥官，你可以选择发射导弹杀死 <strong>2名</strong> 敌国士兵，但会炸毁附近的 <strong>1棵</strong> 敌国树木。</p> <p>树木的照片如下图所示。</p> <p></p> <img src='stimuli/trees/11.png', style='max-width: 30%;'> </img> <p><strong>你是否选择发射武器？</strong></p>","1",""
"","","","","","html-keyboard-response","22","126775","0.0-4.0-0.9","26","1","2022-10-24 08:27:48","ebf9627b049f568eb4bf28942cb89901","223.74.73.158","Mozilla/5.0 (Windows NT 6.3; Win64; x64) AppleWebKit/537.36 (KHTML, like Gecko) Chrome/106.0.0.0 Safari/537.36","WebKit","Chrome","106.0.0.0","Windows","6.3","null","<div style=""font-size:60px;"">+</div>","null",""
"","","","","","html-button-response","23","129177","0.0-4.0-1.9","26","1","2022-10-24 08:27:48","ebf9627b049f568eb4bf28942cb89901","223.74.73.158","Mozilla/5.0 (Windows NT 6.3; Win64; x64) AppleWebKit/537.36 (KHTML, like Gecko) Chrome/106.0.0.0 Safari/537.36","WebKit","Chrome","106.0.0.0","Windows","6.3","2397","<p>作为军队的指挥官，你可以选择发射导弹杀死 <strong>2名</strong> 敌国士兵，但会误杀附近的 <strong>1名</strong> 敌国平民。</p> <p>平民照片如下图所示。</p> <p></p> <img src='stimuli/faces/NFF2.jpg', style='max-width: 30%;'> </img> <p><strong>你是否选择发射武器？</strong></p>","1",""
"","","","","","html-keyboard-response","24","130181","0.0-4.0-0.10","26","1","2022-10-24 08:27:48","ebf9627b049f568eb4bf28942cb89901","223.74.73.158","Mozilla/5.0 (Windows NT 6.3; Win64; x64) AppleWebKit/537.36 (KHTML, like Gecko) Chrome/106.0.0.0 Safari/537.36","WebKit","Chrome","106.0.0.0","Windows","6.3","null","<div style=""font-size:60px;"">+</div>","null",""
"","","","","","html-button-response","25","132211","0.0-4.0-1.10","26","1","2022-10-24 08:27:48","ebf9627b049f568eb4bf28942cb89901","223.74.73.158","Mozilla/5.0 (Windows NT 6.3; Win64; x64) AppleWebKit/537.36 (KHTML, like Gecko) Chrome/106.0.0.0 Safari/537.36","WebKit","Chrome","106.0.0.0","Windows","6.3","2023","<p>作为军队的指挥官，你可以选择发射导弹杀死 <strong>2名</strong> 敌国士兵，但会误杀附近的 <strong>1名</strong> 敌国平民。</p> <p>平民照片如下图所示。</p> <p></p> <img src='stimuli/faces/NFF8.jpg', style='max-width: 30%;'> </img> <p><strong>你是否选择发射武器？</strong></p>","0",""
"","","","","","html-keyboard-response","26","133219","0.0-4.0-0.11","26","1","2022-10-24 08:27:48","ebf9627b049f568eb4bf28942cb89901","223.74.73.158","Mozilla/5.0 (Windows NT 6.3; Win64; x64) AppleWebKit/537.36 (KHTML, like Gecko) Chrome/106.0.0.0 Safari/537.36","WebKit","Chrome","106.0.0.0","Windows","6.3","null","<div style=""font-size:60px;"">+</div>","null",""
"","","","","","html-button-response","27","135937","0.0-4.0-1.11","26","1","2022-10-24 08:27:48","ebf9627b049f568eb4bf28942cb89901","223.74.73.158","Mozilla/5.0 (Windows NT 6.3; Win64; x64) AppleWebKit/537.36 (KHTML, like Gecko) Chrome/106.0.0.0 Safari/537.36","WebKit","Chrome","106.0.0.0","Windows","6.3","2712","<p>作为军队的指挥官，你可以选择发射导弹杀死 <strong>10名</strong> 敌国士兵，但会炸毁附近的 <strong>1棵</strong> 敌国树木。</p> <p>树木的照片如下图所示。</p> <p></p> <img src='stimuli/trees/1.png', style='max-width: 30%;'> </img> <p><strong>你是否选择发射武器？</strong></p>","1",""
"","","","","","html-keyboard-response","28","136946","0.0-4.0-0.12","26","1","2022-10-24 08:27:48","ebf9627b049f568eb4bf28942cb89901","223.74.73.158","Mozilla/5.0 (Windows NT 6.3; Win64; x64) AppleWebKit/537.36 (KHTML, like Gecko) Chrome/106.0.0.0 Safari/537.36","WebKit","Chrome","106.0.0.0","Windows","6.3","null","<div style=""font-size:60px;"">+</div>","null",""
"","","","","","html-button-response","29","149665","0.0-4.0-1.12","26","1","2022-10-24 08:27:48","ebf9627b049f568eb4bf28942cb89901","223.74.73.158","Mozilla/5.0 (Windows NT 6.3; Win64; x64) AppleWebKit/537.36 (KHTML, like Gecko) Chrome/106.0.0.0 Safari/537.36","WebKit","Chrome","106.0.0.0","Windows","6.3","12712","<p>作为军队的指挥官，你可以选择发射导弹杀死 <strong>9名</strong> 敌国士兵，但会炸毁附近的 <strong>1棵</strong> 敌国树木。</p> <p>树木的照片如下图所示。</p> <p></p> <img src='stimuli/trees/10.png', style='max-width: 30%;'> </img> <p><strong>你是否选择发射武器？</strong></p>","0",""
"","","","","","html-keyboard-response","30","150670","0.0-4.0-0.13","26","1","2022-10-24 08:27:48","ebf9627b049f568eb4bf28942cb89901","223.74.73.158","Mozilla/5.0 (Windows NT 6.3; Win64; x64) AppleWebKit/537.36 (KHTML, like Gecko) Chrome/106.0.0.0 Safari/537.36","WebKit","Chrome","106.0.0.0","Windows","6.3","null","<div style=""font-size:60px;"">+</div>","null",""
"","","","","","html-button-response","31","152601","0.0-4.0-1.13","26","1","2022-10-24 08:27:48","ebf9627b049f568eb4bf28942cb89901","223.74.73.158","Mozilla/5.0 (Windows NT 6.3; Win64; x64) AppleWebKit/537.36 (KHTML, like Gecko) Chrome/106.0.0.0 Safari/537.36","WebKit","Chrome","106.0.0.0","Windows","6.3","1922","<p>作为军队的指挥官，你可以选择发射导弹杀死 <strong>1名</strong> 敌国士兵，但会炸毁附近的 <strong>1棵</strong> 敌国树木。</p> <p>树木的照片如下图所示。</p> <p></p> <img src='stimuli/trees/8.png', style='max-width: 30%;'> </img> <p><strong>你是否选择发射武器？</strong></p>","1",""
"","","","","","html-keyboard-response","32","153606","0.0-4.0-0.14","26","1","2022-10-24 08:27:48","ebf9627b049f568eb4bf28942cb89901","223.74.73.158","Mozilla/5.0 (Windows NT 6.3; Win64; x64) AppleWebKit/537.36 (KHTML, like Gecko) Chrome/106.0.0.0 Safari/537.36","WebKit","Chrome","106.0.0.0","Windows","6.3","null","<div style=""font-size:60px;"">+</div>","null",""
"","","","","","html-button-response","33","155945","0.0-4.0-1.14","26","1","2022-10-24 08:27:48","ebf9627b049f568eb4bf28942cb89901","223.74.73.158","Mozilla/5.0 (Windows NT 6.3; Win64; x64) AppleWebKit/537.36 (KHTML, like Gecko) Chrome/106.0.0.0 Safari/537.36","WebKit","Chrome","106.0.0.0","Windows","6.3","2332","<p>作为军队的指挥官，你可以选择发射导弹杀死 <strong>7名</strong> 敌国士兵，但会误杀附近的 <strong>1名</strong> 敌国平民。</p> <p>平民照片如下图所示。</p> <p></p> <img src='stimuli/faces/NFF5.jpg', style='max-width: 30%;'> </img> <p><strong>你是否选择发射武器？</strong></p>","0",""
"","","","","","html-keyboard-response","34","156951","0.0-4.0-0.15","26","1","2022-10-24 08:27:48","ebf9627b049f568eb4bf28942cb89901","223.74.73.158","Mozilla/5.0 (Windows NT 6.3; Win64; x64) AppleWebKit/537.36 (KHTML, like Gecko) Chrome/106.0.0.0 Safari/537.36","WebKit","Chrome","106.0.0.0","Windows","6.3","null","<div style=""font-size:60px;"">+</div>","null",""
"","","","","","html-button-response","35","158961","0.0-4.0-1.15","26","1","2022-10-24 08:27:48","ebf9627b049f568eb4bf28942cb89901","223.74.73.158","Mozilla/5.0 (Windows NT 6.3; Win64; x64) AppleWebKit/537.36 (KHTML, like Gecko) Chrome/106.0.0.0 Safari/537.36","WebKit","Chrome","106.0.0.0","Windows","6.3","2002","<p>作为军队的指挥官，你可以选择发射导弹杀死 <strong>4名</strong> 敌国士兵，但会误杀附近的 <strong>1名</strong> 敌国平民。</p> <p>平民照片如下图所示。</p> <p></p> <img src='stimuli/faces/NFM6.jpg', style='max-width: 30%;'> </img> <p><strong>你是否选择发射武器？</strong></p>","1",""
"","","","","","html-keyboard-response","36","159968","0.0-4.0-0.16","26","1","2022-10-24 08:27:48","ebf9627b049f568eb4bf28942cb89901","223.74.73.158","Mozilla/5.0 (Windows NT 6.3; Win64; x64) AppleWebKit/537.36 (KHTML, like Gecko) Chrome/106.0.0.0 Safari/537.36","WebKit","Chrome","106.0.0.0","Windows","6.3","null","<div style=""font-size:60px;"">+</div>","null",""
"","","","","","html-button-response","37","164872","0.0-4.0-1.16","26","1","2022-10-24 08:27:48","ebf9627b049f568eb4bf28942cb89901","223.74.73.158","Mozilla/5.0 (Windows NT 6.3; Win64; x64) AppleWebKit/537.36 (KHTML, like Gecko) Chrome/106.0.0.0 Safari/537.36","WebKit","Chrome","106.0.0.0","Windows","6.3","4897","<p>作为军队的指挥官，你可以选择发射导弹杀死 <strong>2名</strong> 敌国士兵，但会炸毁附近的 <strong>1棵</strong> 敌国树木。</p> <p>树木的照片如下图所示。</p> <p></p> <img src='stimuli/trees/1.png', style='max-width: 30%;'> </img> <p><strong>你是否选择发射武器？</strong></p>","1",""
"","","","","","html-keyboard-response","38","165877","0.0-4.0-0.17","26","1","2022-10-24 08:27:48","ebf9627b049f568eb4bf28942cb89901","223.74.73.158","Mozilla/5.0 (Windows NT 6.3; Win64; x64) AppleWebKit/537.36 (KHTML, like Gecko) Chrome/106.0.0.0 Safari/537.36","WebKit","Chrome","106.0.0.0","Windows","6.3","null","<div style=""font-size:60px;"">+</div>","null",""
"","","","","","html-button-response","39","168520","0.0-4.0-1.17","26","1","2022-10-24 08:27:48","ebf9627b049f568eb4bf28942cb89901","223.74.73.158","Mozilla/5.0 (Windows NT 6.3; Win64; x64) AppleWebKit/537.36 (KHTML, like Gecko) Chrome/106.0.0.0 Safari/537.36","WebKit","Chrome","106.0.0.0","Windows","6.3","2636","<p>作为军队的指挥官，你可以选择发射导弹杀死 <strong>6名</strong> 敌国士兵，但会误杀附近的 <strong>1名</strong> 敌国平民。</p> <p>平民照片如下图所示。</p> <p></p> <img src='stimuli/faces/NFF4.jpg', style='max-width: 30%;'> </img> <p><strong>你是否选择发射武器？</strong></p>","0",""
"","","","","","html-keyboard-response","40","169525","0.0-4.0-0.18","26","1","2022-10-24 08:27:48","ebf9627b049f568eb4bf28942cb89901","223.74.73.158","Mozilla/5.0 (Windows NT 6.3; Win64; x64) AppleWebKit/537.36 (KHTML, like Gecko) Chrome/106.0.0.0 Safari/537.36","WebKit","Chrome","106.0.0.0","Windows","6.3","null","<div style=""font-size:60px;"">+</div>","null",""
"","","","","","html-button-response","41","175048","0.0-4.0-1.18","26","1","2022-10-24 08:27:48","ebf9627b049f568eb4bf28942cb89901","223.74.73.158","Mozilla/5.0 (Windows NT 6.3; Win64; x64) AppleWebKit/537.36 (KHTML, like Gecko) Chrome/106.0.0.0 Safari/537.36","WebKit","Chrome","106.0.0.0","Windows","6.3","5514","<p>作为军队的指挥官，你可以选择发射导弹杀死 <strong>6名</strong> 敌国士兵，但会炸毁附近的 <strong>1棵</strong> 敌国树木。</p> <p>树木的照片如下图所示。</p> <p></p> <img src='stimuli/trees/15.png', style='max-width: 30%;'> </img> <p><strong>你是否选择发射武器？</strong></p>","0",""
"","","","","","html-keyboard-response","42","176055","0.0-4.0-0.19","26","1","2022-10-24 08:27:48","ebf9627b049f568eb4bf28942cb89901","223.74.73.158","Mozilla/5.0 (Windows NT 6.3; Win64; x64) AppleWebKit/537.36 (KHTML, like Gecko) Chrome/106.0.0.0 Safari/537.36","WebKit","Chrome","106.0.0.0","Windows","6.3","null","<div style=""font-size:60px;"">+</div>","null",""
"","","","","","html-button-response","43","179057","0.0-4.0-1.19","26","1","2022-10-24 08:27:48","ebf9627b049f568eb4bf28942cb89901","223.74.73.158","Mozilla/5.0 (Windows NT 6.3; Win64; x64) AppleWebKit/537.36 (KHTML, like Gecko) Chrome/106.0.0.0 Safari/537.36","WebKit","Chrome","106.0.0.0","Windows","6.3","2995","<p>作为军队的指挥官，你可以选择发射导弹杀死 <strong>4名</strong> 敌国士兵，但会误杀附近的 <strong>1名</strong> 敌国平民。</p> <p>平民照片如下图所示。</p> <p></p> <img src='stimuli/faces/NFF5.jpg', style='max-width: 30%;'> </img> <p><strong>你是否选择发射武器？</strong></p>","1",""
"","","","","","html-keyboard-response","44","180063","0.0-4.0-0.20","26","1","2022-10-24 08:27:48","ebf9627b049f568eb4bf28942cb89901","223.74.73.158","Mozilla/5.0 (Windows NT 6.3; Win64; x64) AppleWebKit/537.36 (KHTML, like Gecko) Chrome/106.0.0.0 Safari/537.36","WebKit","Chrome","106.0.0.0","Windows","6.3","null","<div style=""font-size:60px;"">+</div>","null",""
"","","","","","html-button-response","45","181577","0.0-4.0-1.20","26","1","2022-10-24 08:27:48","ebf9627b049f568eb4bf28942cb89901","223.74.73.158","Mozilla/5.0 (Windows NT 6.3; Win64; x64) AppleWebKit/537.36 (KHTML, like Gecko) Chrome/106.0.0.0 Safari/537.36","WebKit","Chrome","106.0.0.0","Windows","6.3","1505","<p>作为军队的指挥官，你可以选择发射导弹杀死 <strong>9名</strong> 敌国士兵，但会炸毁附近的 <strong>1棵</strong> 敌国树木。</p> <p>树木的照片如下图所示。</p> <p></p> <img src='stimuli/trees/2.png', style='max-width: 30%;'> </img> <p><strong>你是否选择发射武器？</strong></p>","0",""
"","","","","","html-keyboard-response","46","182582","0.0-4.0-0.21","26","1","2022-10-24 08:27:48","ebf9627b049f568eb4bf28942cb89901","223.74.73.158","Mozilla/5.0 (Windows NT 6.3; Win64; x64) AppleWebKit/537.36 (KHTML, like Gecko) Chrome/106.0.0.0 Safari/537.36","WebKit","Chrome","106.0.0.0","Windows","6.3","null","<div style=""font-size:60px;"">+</div>","null",""
"","","","","","html-button-response","47","184368","0.0-4.0-1.21","26","1","2022-10-24 08:27:48","ebf9627b049f568eb4bf28942cb89901","223.74.73.158","Mozilla/5.0 (Windows NT 6.3; Win64; x64) AppleWebKit/537.36 (KHTML, like Gecko) Chrome/106.0.0.0 Safari/537.36","WebKit","Chrome","106.0.0.0","Windows","6.3","1777","<p>作为军队的指挥官，你可以选择发射导弹杀死 <strong>1名</strong> 敌国士兵，但会炸毁附近的 <strong>1棵</strong> 敌国树木。</p> <p>树木的照片如下图所示。</p> <p></p> <img src='stimuli/trees/10.png', style='max-width: 30%;'> </img> <p><strong>你是否选择发射武器？</strong></p>","1",""
"","","","","","html-keyboard-response","48","185374","0.0-4.0-0.22","26","1","2022-10-24 08:27:48","ebf9627b049f568eb4bf28942cb89901","223.74.73.158","Mozilla/5.0 (Windows NT 6.3; Win64; x64) AppleWebKit/537.36 (KHTML, like Gecko) Chrome/106.0.0.0 Safari/537.36","WebKit","Chrome","106.0.0.0","Windows","6.3","null","<div style=""font-size:60px;"">+</div>","null",""
"","","","","","html-button-response","49","187584","0.0-4.0-1.22","26","1","2022-10-24 08:27:48","ebf9627b049f568eb4bf28942cb89901","223.74.73.158","Mozilla/5.0 (Windows NT 6.3; Win64; x64) AppleWebKit/537.36 (KHTML, like Gecko) Chrome/106.0.0.0 Safari/537.36","WebKit","Chrome","106.0.0.0","Windows","6.3","2201","<p>作为军队的指挥官，你可以选择发射导弹杀死 <strong>9名</strong> 敌国士兵，但会误杀附近的 <strong>1名</strong> 敌国平民。</p> <p>平民照片如下图所示。</p> <p></p> <img src='stimuli/faces/NFF3.jpg', style='max-width: 30%;'> </img> <p><strong>你是否选择发射武器？</strong></p>","0",""
"","","","","","html-keyboard-response","50","188591","0.0-4.0-0.23","26","1","2022-10-24 08:27:48","ebf9627b049f568eb4bf28942cb89901","223.74.73.158","Mozilla/5.0 (Windows NT 6.3; Win64; x64) AppleWebKit/537.36 (KHTML, like Gecko) Chrome/106.0.0.0 Safari/537.36","WebKit","Chrome","106.0.0.0","Windows","6.3","null","<div style=""font-size:60px;"">+</div>","null",""
"","","","","","html-button-response","51","190312","0.0-4.0-1.23","26","1","2022-10-24 08:27:48","ebf9627b049f568eb4bf28942cb89901","223.74.73.158","Mozilla/5.0 (Windows NT 6.3; Win64; x64) AppleWebKit/537.36 (KHTML, like Gecko) Chrome/106.0.0.0 Safari/537.36","WebKit","Chrome","106.0.0.0","Windows","6.3","1714","<p>作为军队的指挥官，你可以选择发射导弹杀死 <strong>7名</strong> 敌国士兵，但会炸毁附近的 <strong>1棵</strong> 敌国树木。</p> <p>树木的照片如下图所示。</p> <p></p> <img src='stimuli/trees/11.png', style='max-width: 30%;'> </img> <p><strong>你是否选择发射武器？</strong></p>","0",""
"","","","","","html-keyboard-response","52","191320","0.0-4.0-0.24","26","1","2022-10-24 08:27:48","ebf9627b049f568eb4bf28942cb89901","223.74.73.158","Mozilla/5.0 (Windows NT 6.3; Win64; x64) AppleWebKit/537.36 (KHTML, like Gecko) Chrome/106.0.0.0 Safari/537.36","WebKit","Chrome","106.0.0.0","Windows","6.3","null","<div style=""font-size:60px;"">+</div>","null",""
"","","","","","html-button-response","53","195001","0.0-4.0-1.24","26","1","2022-10-24 08:27:48","ebf9627b049f568eb4bf28942cb89901","223.74.73.158","Mozilla/5.0 (Windows NT 6.3; Win64; x64) AppleWebKit/537.36 (KHTML, like Gecko) Chrome/106.0.0.0 Safari/537.36","WebKit","Chrome","106.0.0.0","Windows","6.3","3672","<p>作为军队的指挥官，你可以选择发射导弹杀死 <strong>7名</strong> 敌国士兵，但会误杀附近的 <strong>1名</strong> 敌国平民。</p> <p>平民照片如下图所示。</p> <p></p> <img src='stimuli/faces/NFF6.jpg', style='max-width: 30%;'> </img> <p><strong>你是否选择发射武器？</strong></p>","0",""
"","","","","","html-keyboard-response","54","196010","0.0-4.0-0.25","26","1","2022-10-24 08:27:48","ebf9627b049f568eb4bf28942cb89901","223.74.73.158","Mozilla/5.0 (Windows NT 6.3; Win64; x64) AppleWebKit/537.36 (KHTML, like Gecko) Chrome/106.0.0.0 Safari/537.36","WebKit","Chrome","106.0.0.0","Windows","6.3","null","<div style=""font-size:60px;"">+</div>","null",""
"","","","","","html-button-response","55","203473","0.0-4.0-1.25","26","1","2022-10-24 08:27:48","ebf9627b049f568eb4bf28942cb89901","223.74.73.158","Mozilla/5.0 (Windows NT 6.3; Win64; x64) AppleWebKit/537.36 (KHTML, like Gecko) Chrome/106.0.0.0 Safari/537.36","WebKit","Chrome","106.0.0.0","Windows","6.3","7451","<p>作为军队的指挥官，你可以选择发射导弹杀死 <strong>10名</strong> 敌国士兵，但会炸毁附近的 <strong>1棵</strong> 敌国树木。</p> <p>树木的照片如下图所示。</p> <p></p> <img src='stimuli/trees/9.png', style='max-width: 30%;'> </img> <p><strong>你是否选择发射武器？</strong></p>","0",""
"","","","","","html-keyboard-response","56","204481","0.0-4.0-0.26","26","1","2022-10-24 08:27:48","ebf9627b049f568eb4bf28942cb89901","223.74.73.158","Mozilla/5.0 (Windows NT 6.3; Win64; x64) AppleWebKit/537.36 (KHTML, like Gecko) Chrome/106.0.0.0 Safari/537.36","WebKit","Chrome","106.0.0.0","Windows","6.3","null","<div style=""font-size:60px;"">+</div>","null",""
"","","","","","html-button-response","57","207280","0.0-4.0-1.26","26","1","2022-10-24 08:27:48","ebf9627b049f568eb4bf28942cb89901","223.74.73.158","Mozilla/5.0 (Windows NT 6.3; Win64; x64) AppleWebKit/537.36 (KHTML, like Gecko) Chrome/106.0.0.0 Safari/537.36","WebKit","Chrome","106.0.0.0","Windows","6.3","2790","<p>作为军队的指挥官，你可以选择发射导弹杀死 <strong>5名</strong> 敌国士兵，但会误杀附近的 <strong>1名</strong> 敌国平民。</p> <p>平民照片如下图所示。</p> <p></p> <img src='stimuli/faces/NFF7.jpg', style='max-width: 30%;'> </img> <p><strong>你是否选择发射武器？</strong></p>","0",""
"","","","","","html-keyboard-response","58","208288","0.0-4.0-0.27","26","1","2022-10-24 08:27:48","ebf9627b049f568eb4bf28942cb89901","223.74.73.158","Mozilla/5.0 (Windows NT 6.3; Win64; x64) AppleWebKit/537.36 (KHTML, like Gecko) Chrome/106.0.0.0 Safari/537.36","WebKit","Chrome","106.0.0.0","Windows","6.3","null","<div style=""font-size:60px;"">+</div>","null",""
"","","","","","html-button-response","59","210808","0.0-4.0-1.27","26","1","2022-10-24 08:27:48","ebf9627b049f568eb4bf28942cb89901","223.74.73.158","Mozilla/5.0 (Windows NT 6.3; Win64; x64) AppleWebKit/537.36 (KHTML, like Gecko) Chrome/106.0.0.0 Safari/537.36","WebKit","Chrome","106.0.0.0","Windows","6.3","2512","<p>作为军队的指挥官，你可以选择发射导弹杀死 <strong>7名</strong> 敌国士兵，但会误杀附近的 <strong>1名</strong> 敌国平民。</p> <p>平民照片如下图所示。</p> <p></p> <img src='stimuli/faces/NFM5.jpg', style='max-width: 30%;'> </img> <p><strong>你是否选择发射武器？</strong></p>","0",""
"","","","","","html-keyboard-response","60","211815","0.0-4.0-0.28","26","1","2022-10-24 08:27:48","ebf9627b049f568eb4bf28942cb89901","223.74.73.158","Mozilla/5.0 (Windows NT 6.3; Win64; x64) AppleWebKit/537.36 (KHTML, like Gecko) Chrome/106.0.0.0 Safari/537.36","WebKit","Chrome","106.0.0.0","Windows","6.3","null","<div style=""font-size:60px;"">+</div>","null",""
"","","","","","html-button-response","61","215400","0.0-4.0-1.28","26","1","2022-10-24 08:27:48","ebf9627b049f568eb4bf28942cb89901","223.74.73.158","Mozilla/5.0 (Windows NT 6.3; Win64; x64) AppleWebKit/537.36 (KHTML, like Gecko) Chrome/106.0.0.0 Safari/537.36","WebKit","Chrome","106.0.0.0","Windows","6.3","3576","<p>作为军队的指挥官，你可以选择发射导弹杀死 <strong>9名</strong> 敌国士兵，但会误杀附近的 <strong>1名</strong> 敌国平民。</p> <p>平民照片如下图所示。</p> <p></p> <img src='stimuli/faces/NFM8.jpg', style='max-width: 30%;'> </img> <p><strong>你是否选择发射武器？</strong></p>","0",""
"","","","","","html-keyboard-response","62","216407","0.0-4.0-0.29","26","1","2022-10-24 08:27:48","ebf9627b049f568eb4bf28942cb89901","223.74.73.158","Mozilla/5.0 (Windows NT 6.3; Win64; x64) AppleWebKit/537.36 (KHTML, like Gecko) Chrome/106.0.0.0 Safari/537.36","WebKit","Chrome","106.0.0.0","Windows","6.3","null","<div style=""font-size:60px;"">+</div>","null",""
"","","","","","html-button-response","63","223833","0.0-4.0-1.29","26","1","2022-10-24 08:27:48","ebf9627b049f568eb4bf28942cb89901","223.74.73.158","Mozilla/5.0 (Windows NT 6.3; Win64; x64) AppleWebKit/537.36 (KHTML, like Gecko) Chrome/106.0.0.0 Safari/537.36","WebKit","Chrome","106.0.0.0","Windows","6.3","7415","<p>作为军队的指挥官，你可以选择发射导弹杀死 <strong>10名</strong> 敌国士兵，但会炸毁附近的 <strong>1棵</strong> 敌国树木。</p> <p>树木的照片如下图所示。</p> <p></p> <img src='stimuli/trees/8.png', style='max-width: 30%;'> </img> <p><strong>你是否选择发射武器？</strong></p>","0",""
"","","","","","html-keyboard-response","64","224840","0.0-4.0-0.30","26","1","2022-10-24 08:27:48","ebf9627b049f568eb4bf28942cb89901","223.74.73.158","Mozilla/5.0 (Windows NT 6.3; Win64; x64) AppleWebKit/537.36 (KHTML, like Gecko) Chrome/106.0.0.0 Safari/537.36","WebKit","Chrome","106.0.0.0","Windows","6.3","null","<div style=""font-size:60px;"">+</div>","null",""
"","","","","","html-button-response","65","226545","0.0-4.0-1.30","26","1","2022-10-24 08:27:48","ebf9627b049f568eb4bf28942cb89901","223.74.73.158","Mozilla/5.0 (Windows NT 6.3; Win64; x64) AppleWebKit/537.36 (KHTML, like Gecko) Chrome/106.0.0.0 Safari/537.36","WebKit","Chrome","106.0.0.0","Windows","6.3","1694","<p>作为军队的指挥官，你可以选择发射导弹杀死 <strong>2名</strong> 敌国士兵，但会炸毁附近的 <strong>1棵</strong> 敌国树木。</p> <p>树木的照片如下图所示。</p> <p></p> <img src='stimuli/trees/14.png', style='max-width: 30%;'> </img> <p><strong>你是否选择发射武器？</strong></p>","1",""
"","","","","","html-keyboard-response","66","227553","0.0-4.0-0.31","26","1","2022-10-24 08:27:48","ebf9627b049f568eb4bf28942cb89901","223.74.73.158","Mozilla/5.0 (Windows NT 6.3; Win64; x64) AppleWebKit/537.36 (KHTML, like Gecko) Chrome/106.0.0.0 Safari/537.36","WebKit","Chrome","106.0.0.0","Windows","6.3","null","<div style=""font-size:60px;"">+</div>","null",""
"","","","","","html-button-response","67","229256","0.0-4.0-1.31","26","1","2022-10-24 08:27:48","ebf9627b049f568eb4bf28942cb89901","223.74.73.158","Mozilla/5.0 (Windows NT 6.3; Win64; x64) AppleWebKit/537.36 (KHTML, like Gecko) Chrome/106.0.0.0 Safari/537.36","WebKit","Chrome","106.0.0.0","Windows","6.3","1693","<p>作为军队的指挥官，你可以选择发射导弹杀死 <strong>6名</strong> 敌国士兵，但会误杀附近的 <strong>1名</strong> 敌国平民。</p> <p>平民照片如下图所示。</p> <p></p> <img src='stimuli/faces/NFM2.jpg', style='max-width: 30%;'> </img> <p><strong>你是否选择发射武器？</strong></p>","0",""
"","","","","","html-keyboard-response","68","230266","0.0-4.0-0.32","26","1","2022-10-24 08:27:48","ebf9627b049f568eb4bf28942cb89901","223.74.73.158","Mozilla/5.0 (Windows NT 6.3; Win64; x64) AppleWebKit/537.36 (KHTML, like Gecko) Chrome/106.0.0.0 Safari/537.36","WebKit","Chrome","106.0.0.0","Windows","6.3","null","<div style=""font-size:60px;"">+</div>","null",""
"","","","","","html-button-response","69","241433","0.0-4.0-1.32","26","1","2022-10-24 08:27:48","ebf9627b049f568eb4bf28942cb89901","223.74.73.158","Mozilla/5.0 (Windows NT 6.3; Win64; x64) AppleWebKit/537.36 (KHTML, like Gecko) Chrome/106.0.0.0 Safari/537.36","WebKit","Chrome","106.0.0.0","Windows","6.3","11158","<p>作为军队的指挥官，你可以选择发射导弹杀死 <strong>9名</strong> 敌国士兵，但会炸毁附近的 <strong>1棵</strong> 敌国树木。</p> <p>树木的照片如下图所示。</p> <p></p> <img src='stimuli/trees/12.png', style='max-width: 30%;'> </img> <p><strong>你是否选择发射武器？</strong></p>","0",""
"","","","","","html-keyboard-response","70","242440","0.0-4.0-0.33","26","1","2022-10-24 08:27:48","ebf9627b049f568eb4bf28942cb89901","223.74.73.158","Mozilla/5.0 (Windows NT 6.3; Win64; x64) AppleWebKit/537.36 (KHTML, like Gecko) Chrome/106.0.0.0 Safari/537.36","WebKit","Chrome","106.0.0.0","Windows","6.3","null","<div style=""font-size:60px;"">+</div>","null",""
"","","","","","html-button-response","71","244609","0.0-4.0-1.33","26","1","2022-10-24 08:27:48","ebf9627b049f568eb4bf28942cb89901","223.74.73.158","Mozilla/5.0 (Windows NT 6.3; Win64; x64) AppleWebKit/537.36 (KHTML, like Gecko) Chrome/106.0.0.0 Safari/537.36","WebKit","Chrome","106.0.0.0","Windows","6.3","2158","<p>作为军队的指挥官，你可以选择发射导弹杀死 <strong>3名</strong> 敌国士兵，但会误杀附近的 <strong>1名</strong> 敌国平民。</p> <p>平民照片如下图所示。</p> <p></p> <img src='stimuli/faces/NFM8.jpg', style='max-width: 30%;'> </img> <p><strong>你是否选择发射武器？</strong></p>","1",""
"","","","","","html-keyboard-response","72","245617","0.0-4.0-0.34","26","1","2022-10-24 08:27:48","ebf9627b049f568eb4bf28942cb89901","223.74.73.158","Mozilla/5.0 (Windows NT 6.3; Win64; x64) AppleWebKit/537.36 (KHTML, like Gecko) Chrome/106.0.0.0 Safari/537.36","WebKit","Chrome","106.0.0.0","Windows","6.3","null","<div style=""font-size:60px;"">+</div>","null",""
"","","","","","html-button-response","73","247737","0.0-4.0-1.34","26","1","2022-10-24 08:27:48","ebf9627b049f568eb4bf28942cb89901","223.74.73.158","Mozilla/5.0 (Windows NT 6.3; Win64; x64) AppleWebKit/537.36 (KHTML, like Gecko) Chrome/106.0.0.0 Safari/537.36","WebKit","Chrome","106.0.0.0","Windows","6.3","2110","<p>作为军队的指挥官，你可以选择发射导弹杀死 <strong>8名</strong> 敌国士兵，但会炸毁附近的 <strong>1棵</strong> 敌国树木。</p> <p>树木的照片如下图所示。</p> <p></p> <img src='stimuli/trees/5.png', style='max-width: 30%;'> </img> <p><strong>你是否选择发射武器？</strong></p>","0",""
"","","","","","html-keyboard-response","74","248743","0.0-4.0-0.35","26","1","2022-10-24 08:27:48","ebf9627b049f568eb4bf28942cb89901","223.74.73.158","Mozilla/5.0 (Windows NT 6.3; Win64; x64) AppleWebKit/537.36 (KHTML, like Gecko) Chrome/106.0.0.0 Safari/537.36","WebKit","Chrome","106.0.0.0","Windows","6.3","null","<div style=""font-size:60px;"">+</div>","null",""
"","","","","","html-button-response","75","250792","0.0-4.0-1.35","26","1","2022-10-24 08:27:48","ebf9627b049f568eb4bf28942cb89901","223.74.73.158","Mozilla/5.0 (Windows NT 6.3; Win64; x64) AppleWebKit/537.36 (KHTML, like Gecko) Chrome/106.0.0.0 Safari/537.36","WebKit","Chrome","106.0.0.0","Windows","6.3","2038","<p>作为军队的指挥官，你可以选择发射导弹杀死 <strong>7名</strong> 敌国士兵，但会炸毁附近的 <strong>1棵</strong> 敌国树木。</p> <p>树木的照片如下图所示。</p> <p></p> <img src='stimuli/trees/13.png', style='max-width: 30%;'> </img> <p><strong>你是否选择发射武器？</strong></p>","0",""
"","","","","","html-keyboard-response","76","251802","0.0-4.0-0.36","26","1","2022-10-24 08:27:48","ebf9627b049f568eb4bf28942cb89901","223.74.73.158","Mozilla/5.0 (Windows NT 6.3; Win64; x64) AppleWebKit/537.36 (KHTML, like Gecko) Chrome/106.0.0.0 Safari/537.36","WebKit","Chrome","106.0.0.0","Windows","6.3","null","<div style=""font-size:60px;"">+</div>","null",""
"","","","","","html-button-response","77","253728","0.0-4.0-1.36","26","1","2022-10-24 08:27:48","ebf9627b049f568eb4bf28942cb89901","223.74.73.158","Mozilla/5.0 (Windows NT 6.3; Win64; x64) AppleWebKit/537.36 (KHTML, like Gecko) Chrome/106.0.0.0 Safari/537.36","WebKit","Chrome","106.0.0.0","Windows","6.3","1917","<p>作为军队的指挥官，你可以选择发射导弹杀死 <strong>3名</strong> 敌国士兵，但会炸毁附近的 <strong>1棵</strong> 敌国树木。</p> <p>树木的照片如下图所示。</p> <p></p> <img src='stimuli/trees/13.png', style='max-width: 30%;'> </img> <p><strong>你是否选择发射武器？</strong></p>","1",""
"","","","","","html-keyboard-response","78","254736","0.0-4.0-0.37","26","1","2022-10-24 08:27:48","ebf9627b049f568eb4bf28942cb89901","223.74.73.158","Mozilla/5.0 (Windows NT 6.3; Win64; x64) AppleWebKit/537.36 (KHTML, like Gecko) Chrome/106.0.0.0 Safari/537.36","WebKit","Chrome","106.0.0.0","Windows","6.3","null","<div style=""font-size:60px;"">+</div>","null",""
"","","","","","html-button-response","79","257137","0.0-4.0-1.37","26","1","2022-10-24 08:27:48","ebf9627b049f568eb4bf28942cb89901","223.74.73.158","Mozilla/5.0 (Windows NT 6.3; Win64; x64) AppleWebKit/537.36 (KHTML, like Gecko) Chrome/106.0.0.0 Safari/537.36","WebKit","Chrome","106.0.0.0","Windows","6.3","2391","<p>作为军队的指挥官，你可以选择发射导弹杀死 <strong>7名</strong> 敌国士兵，但会炸毁附近的 <strong>1棵</strong> 敌国树木。</p> <p>树木的照片如下图所示。</p> <p></p> <img src='stimuli/trees/4.png', style='max-width: 30%;'> </img> <p><strong>你是否选择发射武器？</strong></p>","0",""
"","","","","","html-keyboard-response","80","258145","0.0-4.0-0.38","26","1","2022-10-24 08:27:48","ebf9627b049f568eb4bf28942cb89901","223.74.73.158","Mozilla/5.0 (Windows NT 6.3; Win64; x64) AppleWebKit/537.36 (KHTML, like Gecko) Chrome/106.0.0.0 Safari/537.36","WebKit","Chrome","106.0.0.0","Windows","6.3","null","<div style=""font-size:60px;"">+</div>","null",""
"","","","","","html-button-response","81","264641","0.0-4.0-1.38","26","1","2022-10-24 08:27:48","ebf9627b049f568eb4bf28942cb89901","223.74.73.158","Mozilla/5.0 (Windows NT 6.3; Win64; x64) AppleWebKit/537.36 (KHTML, like Gecko) Chrome/106.0.0.0 Safari/537.36","WebKit","Chrome","106.0.0.0","Windows","6.3","6486","<p>作为军队的指挥官，你可以选择发射导弹杀死 <strong>1名</strong> 敌国士兵，但会误杀附近的 <strong>1名</strong> 敌国平民。</p> <p>平民照片如下图所示。</p> <p></p> <img src='stimuli/faces/NFM4.jpg', style='max-width: 30%;'> </img> <p><strong>你是否选择发射武器？</strong></p>","1",""
"","","","","","html-keyboard-response","82","265650","0.0-4.0-0.39","26","1","2022-10-24 08:27:48","ebf9627b049f568eb4bf28942cb89901","223.74.73.158","Mozilla/5.0 (Windows NT 6.3; Win64; x64) AppleWebKit/537.36 (KHTML, like Gecko) Chrome/106.0.0.0 Safari/537.36","WebKit","Chrome","106.0.0.0","Windows","6.3","null","<div style=""font-size:60px;"">+</div>","null",""
"","","","","","html-button-response","83","268433","0.0-4.0-1.39","26","1","2022-10-24 08:27:48","ebf9627b049f568eb4bf28942cb89901","223.74.73.158","Mozilla/5.0 (Windows NT 6.3; Win64; x64) AppleWebKit/537.36 (KHTML, like Gecko) Chrome/106.0.0.0 Safari/537.36","WebKit","Chrome","106.0.0.0","Windows","6.3","2771","<p>作为军队的指挥官，你可以选择发射导弹杀死 <strong>1名</strong> 敌国士兵，但会误杀附近的 <strong>1名</strong> 敌国平民。</p> <p>平民照片如下图所示。</p> <p></p> <img src='stimuli/faces/NFF1.jpg', style='max-width: 30%;'> </img> <p><strong>你是否选择发射武器？</strong></p>","1",""
"","","","","","html-keyboard-response","84","269441","0.0-4.0-0.40","26","1","2022-10-24 08:27:48","ebf9627b049f568eb4bf28942cb89901","223.74.73.158","Mozilla/5.0 (Windows NT 6.3; Win64; x64) AppleWebKit/537.36 (KHTML, like Gecko) Chrome/106.0.0.0 Safari/537.36","WebKit","Chrome","106.0.0.0","Windows","6.3","null","<div style=""font-size:60px;"">+</div>","null",""
"","","","","","html-button-response","85","271448","0.0-4.0-1.40","26","1","2022-10-24 08:27:48","ebf9627b049f568eb4bf28942cb89901","223.74.73.158","Mozilla/5.0 (Windows NT 6.3; Win64; x64) AppleWebKit/537.36 (KHTML, like Gecko) Chrome/106.0.0.0 Safari/537.36","WebKit","Chrome","106.0.0.0","Windows","6.3","1997","<p>作为军队的指挥官，你可以选择发射导弹杀死 <strong>1名</strong> 敌国士兵，但会炸毁附近的 <strong>1棵</strong> 敌国树木。</p> <p>树木的照片如下图所示。</p> <p></p> <img src='stimuli/trees/7.png', style='max-width: 30%;'> </img> <p><strong>你是否选择发射武器？</strong></p>","1",""
"","","","","","html-keyboard-response","86","272457","0.0-4.0-0.41","26","1","2022-10-24 08:27:48","ebf9627b049f568eb4bf28942cb89901","223.74.73.158","Mozilla/5.0 (Windows NT 6.3; Win64; x64) AppleWebKit/537.36 (KHTML, like Gecko) Chrome/106.0.0.0 Safari/537.36","WebKit","Chrome","106.0.0.0","Windows","6.3","null","<div style=""font-size:60px;"">+</div>","null",""
"","","","","","html-button-response","87","274224","0.0-4.0-1.41","26","1","2022-10-24 08:27:48","ebf9627b049f568eb4bf28942cb89901","223.74.73.158","Mozilla/5.0 (Windows NT 6.3; Win64; x64) AppleWebKit/537.36 (KHTML, like Gecko) Chrome/106.0.0.0 Safari/537.36","WebKit","Chrome","106.0.0.0","Windows","6.3","1756","<p>作为军队的指挥官，你可以选择发射导弹杀死 <strong>5名</strong> 敌国士兵，但会炸毁附近的 <strong>1棵</strong> 敌国树木。</p> <p>树木的照片如下图所示。</p> <p></p> <img src='stimuli/trees/12.png', style='max-width: 30%;'> </img> <p><strong>你是否选择发射武器？</strong></p>","0",""
"","","","","","html-keyboard-response","88","275234","0.0-4.0-0.42","26","1","2022-10-24 08:27:48","ebf9627b049f568eb4bf28942cb89901","223.74.73.158","Mozilla/5.0 (Windows NT 6.3; Win64; x64) AppleWebKit/537.36 (KHTML, like Gecko) Chrome/106.0.0.0 Safari/537.36","WebKit","Chrome","106.0.0.0","Windows","6.3","null","<div style=""font-size:60px;"">+</div>","null",""
"","","","","","html-button-response","89","278281","0.0-4.0-1.42","26","1","2022-10-24 08:27:48","ebf9627b049f568eb4bf28942cb89901","223.74.73.158","Mozilla/5.0 (Windows NT 6.3; Win64; x64) AppleWebKit/537.36 (KHTML, like Gecko) Chrome/106.0.0.0 Safari/537.36","WebKit","Chrome","106.0.0.0","Windows","6.3","3036","<p>作为军队的指挥官，你可以选择发射导弹杀死 <strong>1名</strong> 敌国士兵，但会炸毁附近的 <strong>1棵</strong> 敌国树木。</p> <p>树木的照片如下图所示。</p> <p></p> <img src='stimuli/trees/9.png', style='max-width: 30%;'> </img> <p><strong>你是否选择发射武器？</strong></p>","1",""
"","","","","","html-keyboard-response","90","279290","0.0-4.0-0.43","26","1","2022-10-24 08:27:48","ebf9627b049f568eb4bf28942cb89901","223.74.73.158","Mozilla/5.0 (Windows NT 6.3; Win64; x64) AppleWebKit/537.36 (KHTML, like Gecko) Chrome/106.0.0.0 Safari/537.36","WebKit","Chrome","106.0.0.0","Windows","6.3","null","<div style=""font-size:60px;"">+</div>","null",""
"","","","","","html-button-response","91","281633","0.0-4.0-1.43","26","1","2022-10-24 08:27:48","ebf9627b049f568eb4bf28942cb89901","223.74.73.158","Mozilla/5.0 (Windows NT 6.3; Win64; x64) AppleWebKit/537.36 (KHTML, like Gecko) Chrome/106.0.0.0 Safari/537.36","WebKit","Chrome","106.0.0.0","Windows","6.3","2331","<p>作为军队的指挥官，你可以选择发射导弹杀死 <strong>1名</strong> 敌国士兵，但会误杀附近的 <strong>1名</strong> 敌国平民。</p> <p>平民照片如下图所示。</p> <p></p> <img src='stimuli/faces/NFM3.jpg', style='max-width: 30%;'> </img> <p><strong>你是否选择发射武器？</strong></p>","1",""
"","","","","","html-keyboard-response","92","282643","0.0-4.0-0.44","26","1","2022-10-24 08:27:48","ebf9627b049f568eb4bf28942cb89901","223.74.73.158","Mozilla/5.0 (Windows NT 6.3; Win64; x64) AppleWebKit/537.36 (KHTML, like Gecko) Chrome/106.0.0.0 Safari/537.36","WebKit","Chrome","106.0.0.0","Windows","6.3","null","<div style=""font-size:60px;"">+</div>","null",""
"","","","","","html-button-response","93","284641","0.0-4.0-1.44","26","1","2022-10-24 08:27:48","ebf9627b049f568eb4bf28942cb89901","223.74.73.158","Mozilla/5.0 (Windows NT 6.3; Win64; x64) AppleWebKit/537.36 (KHTML, like Gecko) Chrome/106.0.0.0 Safari/537.36","WebKit","Chrome","106.0.0.0","Windows","6.3","1986","<p>作为军队的指挥官，你可以选择发射导弹杀死 <strong>10名</strong> 敌国士兵，但会炸毁附近的 <strong>1棵</strong> 敌国树木。</p> <p>树木的照片如下图所示。</p> <p></p> <img src='stimuli/trees/7.png', style='max-width: 30%;'> </img> <p><strong>你是否选择发射武器？</strong></p>","0",""
"","","","","","html-keyboard-response","94","285651","0.0-4.0-0.45","26","1","2022-10-24 08:27:48","ebf9627b049f568eb4bf28942cb89901","223.74.73.158","Mozilla/5.0 (Windows NT 6.3; Win64; x64) AppleWebKit/537.36 (KHTML, like Gecko) Chrome/106.0.0.0 Safari/537.36","WebKit","Chrome","106.0.0.0","Windows","6.3","null","<div style=""font-size:60px;"">+</div>","null",""
"","","","","","html-button-response","95","292353","0.0-4.0-1.45","26","1","2022-10-24 08:27:48","ebf9627b049f568eb4bf28942cb89901","223.74.73.158","Mozilla/5.0 (Windows NT 6.3; Win64; x64) AppleWebKit/537.36 (KHTML, like Gecko) Chrome/106.0.0.0 Safari/537.36","WebKit","Chrome","106.0.0.0","Windows","6.3","6691","<p>作为军队的指挥官，你可以选择发射导弹杀死 <strong>3名</strong> 敌国士兵，但会误杀附近的 <strong>1名</strong> 敌国平民。</p> <p>平民照片如下图所示。</p> <p></p> <img src='stimuli/faces/NFF4.jpg', style='max-width: 30%;'> </img> <p><strong>你是否选择发射武器？</strong></p>","1",""
"","","","","","html-keyboard-response","96","293364","0.0-4.0-0.46","26","1","2022-10-24 08:27:48","ebf9627b049f568eb4bf28942cb89901","223.74.73.158","Mozilla/5.0 (Windows NT 6.3; Win64; x64) AppleWebKit/537.36 (KHTML, like Gecko) Chrome/106.0.0.0 Safari/537.36","WebKit","Chrome","106.0.0.0","Windows","6.3","null","<div style=""font-size:60px;"">+</div>","null",""
"","","","","","html-button-response","97","300801","0.0-4.0-1.46","26","1","2022-10-24 08:27:48","ebf9627b049f568eb4bf28942cb89901","223.74.73.158","Mozilla/5.0 (Windows NT 6.3; Win64; x64) AppleWebKit/537.36 (KHTML, like Gecko) Chrome/106.0.0.0 Safari/537.36","WebKit","Chrome","106.0.0.0","Windows","6.3","7425","<p>作为军队的指挥官，你可以选择发射导弹杀死 <strong>10名</strong> 敌国士兵，但会误杀附近的 <strong>1名</strong> 敌国平民。</p> <p>平民照片如下图所示。</p> <p></p> <img src='stimuli/faces/NFM3.jpg', style='max-width: 30%;'> </img> <p><strong>你是否选择发射武器？</strong></p>","0",""
"","","","","","html-keyboard-response","98","301811","0.0-4.0-0.47","26","1","2022-10-24 08:27:48","ebf9627b049f568eb4bf28942cb89901","223.74.73.158","Mozilla/5.0 (Windows NT 6.3; Win64; x64) AppleWebKit/537.36 (KHTML, like Gecko) Chrome/106.0.0.0 Safari/537.36","WebKit","Chrome","106.0.0.0","Windows","6.3","null","<div style=""font-size:60px;"">+</div>","null",""
"","","","","","html-button-response","99","324257","0.0-4.0-1.47","26","1","2022-10-24 08:27:48","ebf9627b049f568eb4bf28942cb89901","223.74.73.158","Mozilla/5.0 (Windows NT 6.3; Win64; x64) AppleWebKit/537.36 (KHTML, like Gecko) Chrome/106.0.0.0 Safari/537.36","WebKit","Chrome","106.0.0.0","Windows","6.3","22434","<p>作为军队的指挥官，你可以选择发射导弹杀死 <strong>8名</strong> 敌国士兵，但会误杀附近的 <strong>1名</strong> 敌国平民。</p> <p>平民照片如下图所示。</p> <p></p> <img src='stimuli/faces/NFF7.jpg', style='max-width: 30%;'> </img> <p><strong>你是否选择发射武器？</strong></p>","0",""
"","","","","","html-keyboard-response","100","325268","0.0-4.0-0.48","26","1","2022-10-24 08:27:48","ebf9627b049f568eb4bf28942cb89901","223.74.73.158","Mozilla/5.0 (Windows NT 6.3; Win64; x64) AppleWebKit/537.36 (KHTML, like Gecko) Chrome/106.0.0.0 Safari/537.36","WebKit","Chrome","106.0.0.0","Windows","6.3","null","<div style=""font-size:60px;"">+</div>","null",""
"","","","","","html-button-response","101","328602","0.0-4.0-1.48","26","1","2022-10-24 08:27:48","ebf9627b049f568eb4bf28942cb89901","223.74.73.158","Mozilla/5.0 (Windows NT 6.3; Win64; x64) AppleWebKit/537.36 (KHTML, like Gecko) Chrome/106.0.0.0 Safari/537.36","WebKit","Chrome","106.0.0.0","Windows","6.3","3321","<p>作为军队的指挥官，你可以选择发射导弹杀死 <strong>5名</strong> 敌国士兵，但会炸毁附近的 <strong>1棵</strong> 敌国树木。</p> <p>树木的照片如下图所示。</p> <p></p> <img src='stimuli/trees/2.png', style='max-width: 30%;'> </img> <p><strong>你是否选择发射武器？</strong></p>","0",""
"","","","","","html-keyboard-response","102","329612","0.0-4.0-0.49","26","1","2022-10-24 08:27:48","ebf9627b049f568eb4bf28942cb89901","223.74.73.158","Mozilla/5.0 (Windows NT 6.3; Win64; x64) AppleWebKit/537.36 (KHTML, like Gecko) Chrome/106.0.0.0 Safari/537.36","WebKit","Chrome","106.0.0.0","Windows","6.3","null","<div style=""font-size:60px;"">+</div>","null",""
"","","","","","html-button-response","103","341434","0.0-4.0-1.49","26","1","2022-10-24 08:27:48","ebf9627b049f568eb4bf28942cb89901","223.74.73.158","Mozilla/5.0 (Windows NT 6.3; Win64; x64) AppleWebKit/537.36 (KHTML, like Gecko) Chrome/106.0.0.0 Safari/537.36","WebKit","Chrome","106.0.0.0","Windows","6.3","11810","<p>作为军队的指挥官，你可以选择发射导弹杀死 <strong>5名</strong> 敌国士兵，但会炸毁附近的 <strong>1棵</strong> 敌国树木。</p> <p>树木的照片如下图所示。</p> <p></p> <img src='stimuli/trees/16.png', style='max-width: 30%;'> </img> <p><strong>你是否选择发射武器？</strong></p>","0",""
"","","","","","html-keyboard-response","104","342446","0.0-4.0-0.50","26","1","2022-10-24 08:27:48","ebf9627b049f568eb4bf28942cb89901","223.74.73.158","Mozilla/5.0 (Windows NT 6.3; Win64; x64) AppleWebKit/537.36 (KHTML, like Gecko) Chrome/106.0.0.0 Safari/537.36","WebKit","Chrome","106.0.0.0","Windows","6.3","null","<div style=""font-size:60px;"">+</div>","null",""
"","","","","","html-button-response","105","344369","0.0-4.0-1.50","26","1","2022-10-24 08:27:48","ebf9627b049f568eb4bf28942cb89901","223.74.73.158","Mozilla/5.0 (Windows NT 6.3; Win64; x64) AppleWebKit/537.36 (KHTML, like Gecko) Chrome/106.0.0.0 Safari/537.36","WebKit","Chrome","106.0.0.0","Windows","6.3","1912","<p>作为军队的指挥官，你可以选择发射导弹杀死 <strong>2名</strong> 敌国士兵，但会炸毁附近的 <strong>1棵</strong> 敌国树木。</p> <p>树木的照片如下图所示。</p> <p></p> <img src='stimuli/trees/6.png', style='max-width: 30%;'> </img> <p><strong>你是否选择发射武器？</strong></p>","1",""
"","","","","","html-keyboard-response","106","345380","0.0-4.0-0.51","26","1","2022-10-24 08:27:48","ebf9627b049f568eb4bf28942cb89901","223.74.73.158","Mozilla/5.0 (Windows NT 6.3; Win64; x64) AppleWebKit/537.36 (KHTML, like Gecko) Chrome/106.0.0.0 Safari/537.36","WebKit","Chrome","106.0.0.0","Windows","6.3","null","<div style=""font-size:60px;"">+</div>","null",""
"","","","","","html-button-response","107","349162","0.0-4.0-1.51","26","1","2022-10-24 08:27:48","ebf9627b049f568eb4bf28942cb89901","223.74.73.158","Mozilla/5.0 (Windows NT 6.3; Win64; x64) AppleWebKit/537.36 (KHTML, like Gecko) Chrome/106.0.0.0 Safari/537.36","WebKit","Chrome","106.0.0.0","Windows","6.3","3770","<p>作为军队的指挥官，你可以选择发射导弹杀死 <strong>3名</strong> 敌国士兵，但会误杀附近的 <strong>1名</strong> 敌国平民。</p> <p>平民照片如下图所示。</p> <p></p> <img src='stimuli/faces/NFF3.jpg', style='max-width: 30%;'> </img> <p><strong>你是否选择发射武器？</strong></p>","1",""
"","","","","","html-keyboard-response","108","350173","0.0-4.0-0.52","26","1","2022-10-24 08:27:48","ebf9627b049f568eb4bf28942cb89901","223.74.73.158","Mozilla/5.0 (Windows NT 6.3; Win64; x64) AppleWebKit/537.36 (KHTML, like Gecko) Chrome/106.0.0.0 Safari/537.36","WebKit","Chrome","106.0.0.0","Windows","6.3","null","<div style=""font-size:60px;"">+</div>","null",""
"","","","","","html-button-response","109","355409","0.0-4.0-1.52","26","1","2022-10-24 08:27:48","ebf9627b049f568eb4bf28942cb89901","223.74.73.158","Mozilla/5.0 (Windows NT 6.3; Win64; x64) AppleWebKit/537.36 (KHTML, like Gecko) Chrome/106.0.0.0 Safari/537.36","WebKit","Chrome","106.0.0.0","Windows","6.3","5223","<p>作为军队的指挥官，你可以选择发射导弹杀死 <strong>3名</strong> 敌国士兵，但会炸毁附近的 <strong>1棵</strong> 敌国树木。</p> <p>树木的照片如下图所示。</p> <p></p> <img src='stimuli/trees/3.png', style='max-width: 30%;'> </img> <p><strong>你是否选择发射武器？</strong></p>","1",""
"","","","","","html-keyboard-response","110","356420","0.0-4.0-0.53","26","1","2022-10-24 08:27:48","ebf9627b049f568eb4bf28942cb89901","223.74.73.158","Mozilla/5.0 (Windows NT 6.3; Win64; x64) AppleWebKit/537.36 (KHTML, like Gecko) Chrome/106.0.0.0 Safari/537.36","WebKit","Chrome","106.0.0.0","Windows","6.3","null","<div style=""font-size:60px;"">+</div>","null",""
"","","","","","html-button-response","111","359297","0.0-4.0-1.53","26","1","2022-10-24 08:27:48","ebf9627b049f568eb4bf28942cb89901","223.74.73.158","Mozilla/5.0 (Windows NT 6.3; Win64; x64) AppleWebKit/537.36 (KHTML, like Gecko) Chrome/106.0.0.0 Safari/537.36","WebKit","Chrome","106.0.0.0","Windows","6.3","2864","<p>作为军队的指挥官，你可以选择发射导弹杀死 <strong>1名</strong> 敌国士兵，但会炸毁附近的 <strong>1棵</strong> 敌国树木。</p> <p>树木的照片如下图所示。</p> <p></p> <img src='stimuli/trees/4.png', style='max-width: 30%;'> </img> <p><strong>你是否选择发射武器？</strong></p>","1",""
"","","","","","html-keyboard-response","112","360309","0.0-4.0-0.54","26","1","2022-10-24 08:27:48","ebf9627b049f568eb4bf28942cb89901","223.74.73.158","Mozilla/5.0 (Windows NT 6.3; Win64; x64) AppleWebKit/537.36 (KHTML, like Gecko) Chrome/106.0.0.0 Safari/537.36","WebKit","Chrome","106.0.0.0","Windows","6.3","null","<div style=""font-size:60px;"">+</div>","null",""
"","","","","","html-button-response","113","361937","0.0-4.0-1.54","26","1","2022-10-24 08:27:48","ebf9627b049f568eb4bf28942cb89901","223.74.73.158","Mozilla/5.0 (Windows NT 6.3; Win64; x64) AppleWebKit/537.36 (KHTML, like Gecko) Chrome/106.0.0.0 Safari/537.36","WebKit","Chrome","106.0.0.0","Windows","6.3","1615","<p>作为军队的指挥官，你可以选择发射导弹杀死 <strong>6名</strong> 敌国士兵，但会炸毁附近的 <strong>1棵</strong> 敌国树木。</p> <p>树木的照片如下图所示。</p> <p></p> <img src='stimuli/trees/14.png', style='max-width: 30%;'> </img> <p><strong>你是否选择发射武器？</strong></p>","0",""
"","","","","","html-keyboard-response","114","362951","0.0-4.0-0.55","26","1","2022-10-24 08:27:48","ebf9627b049f568eb4bf28942cb89901","223.74.73.158","Mozilla/5.0 (Windows NT 6.3; Win64; x64) AppleWebKit/537.36 (KHTML, like Gecko) Chrome/106.0.0.0 Safari/537.36","WebKit","Chrome","106.0.0.0","Windows","6.3","null","<div style=""font-size:60px;"">+</div>","null",""
"","","","","","html-button-response","115","391425","0.0-4.0-1.55","26","1","2022-10-24 08:27:48","ebf9627b049f568eb4bf28942cb89901","223.74.73.158","Mozilla/5.0 (Windows NT 6.3; Win64; x64) AppleWebKit/537.36 (KHTML, like Gecko) Chrome/106.0.0.0 Safari/537.36","WebKit","Chrome","106.0.0.0","Windows","6.3","28458","<p>作为军队的指挥官，你可以选择发射导弹杀死 <strong>2名</strong> 敌国士兵，但会误杀附近的 <strong>1名</strong> 敌国平民。</p> <p>平民照片如下图所示。</p> <p></p> <img src='stimuli/faces/NFF6.jpg', style='max-width: 30%;'> </img> <p><strong>你是否选择发射武器？</strong></p>","1",""
"","","","","","html-keyboard-response","116","392437","0.0-4.0-0.56","26","1","2022-10-24 08:27:48","ebf9627b049f568eb4bf28942cb89901","223.74.73.158","Mozilla/5.0 (Windows NT 6.3; Win64; x64) AppleWebKit/537.36 (KHTML, like Gecko) Chrome/106.0.0.0 Safari/537.36","WebKit","Chrome","106.0.0.0","Windows","6.3","null","<div style=""font-size:60px;"">+</div>","null",""
"","","","","","html-button-response","117","395650","0.0-4.0-1.56","26","1","2022-10-24 08:27:48","ebf9627b049f568eb4bf28942cb89901","223.74.73.158","Mozilla/5.0 (Windows NT 6.3; Win64; x64) AppleWebKit/537.36 (KHTML, like Gecko) Chrome/106.0.0.0 Safari/537.36","WebKit","Chrome","106.0.0.0","Windows","6.3","3198","<p>作为军队的指挥官，你可以选择发射导弹杀死 <strong>9名</strong> 敌国士兵，但会误杀附近的 <strong>1名</strong> 敌国平民。</p> <p>平民照片如下图所示。</p> <p></p> <img src='stimuli/faces/NFF1.jpg', style='max-width: 30%;'> </img> <p><strong>你是否选择发射武器？</strong></p>","0",""
"","","","","","html-keyboard-response","118","396663","0.0-4.0-0.57","26","1","2022-10-24 08:27:48","ebf9627b049f568eb4bf28942cb89901","223.74.73.158","Mozilla/5.0 (Windows NT 6.3; Win64; x64) AppleWebKit/537.36 (KHTML, like Gecko) Chrome/106.0.0.0 Safari/537.36","WebKit","Chrome","106.0.0.0","Windows","6.3","null","<div style=""font-size:60px;"">+</div>","null",""
"","","","","","html-button-response","119","398163","0.0-4.0-1.57","26","1","2022-10-24 08:27:48","ebf9627b049f568eb4bf28942cb89901","223.74.73.158","Mozilla/5.0 (Windows NT 6.3; Win64; x64) AppleWebKit/537.36 (KHTML, like Gecko) Chrome/106.0.0.0 Safari/537.36","WebKit","Chrome","106.0.0.0","Windows","6.3","1486","<p>作为军队的指挥官，你可以选择发射导弹杀死 <strong>10名</strong> 敌国士兵，但会炸毁附近的 <strong>1棵</strong> 敌国树木。</p> <p>树木的照片如下图所示。</p> <p></p> <img src='stimuli/trees/6.png', style='max-width: 30%;'> </img> <p><strong>你是否选择发射武器？</strong></p>","0",""
"","","","","","html-keyboard-response","120","399175","0.0-4.0-0.58","26","1","2022-10-24 08:27:48","ebf9627b049f568eb4bf28942cb89901","223.74.73.158","Mozilla/5.0 (Windows NT 6.3; Win64; x64) AppleWebKit/537.36 (KHTML, like Gecko) Chrome/106.0.0.0 Safari/537.36","WebKit","Chrome","106.0.0.0","Windows","6.3","null","<div style=""font-size:60px;"">+</div>","null",""
"","","","","","html-button-response","121","400554","0.0-4.0-1.58","26","1","2022-10-24 08:27:48","ebf9627b049f568eb4bf28942cb89901","223.74.73.158","Mozilla/5.0 (Windows NT 6.3; Win64; x64) AppleWebKit/537.36 (KHTML, like Gecko) Chrome/106.0.0.0 Safari/537.36","WebKit","Chrome","106.0.0.0","Windows","6.3","1367","<p>作为军队的指挥官，你可以选择发射导弹杀死 <strong>9名</strong> 敌国士兵，但会误杀附近的 <strong>1名</strong> 敌国平民。</p> <p>平民照片如下图所示。</p> <p></p> <img src='stimuli/faces/NFM6.jpg', style='max-width: 30%;'> </img> <p><strong>你是否选择发射武器？</strong></p>","0",""
"","","","","","html-keyboard-response","122","401564","0.0-4.0-0.59","26","1","2022-10-24 08:27:48","ebf9627b049f568eb4bf28942cb89901","223.74.73.158","Mozilla/5.0 (Windows NT 6.3; Win64; x64) AppleWebKit/537.36 (KHTML, like Gecko) Chrome/106.0.0.0 Safari/537.36","WebKit","Chrome","106.0.0.0","Windows","6.3","null","<div style=""font-size:60px;"">+</div>","null",""
"","","","","","html-button-response","123","402777","0.0-4.0-1.59","26","1","2022-10-24 08:27:48","ebf9627b049f568eb4bf28942cb89901","223.74.73.158","Mozilla/5.0 (Windows NT 6.3; Win64; x64) AppleWebKit/537.36 (KHTML, like Gecko) Chrome/106.0.0.0 Safari/537.36","WebKit","Chrome","106.0.0.0","Windows","6.3","1200","<p>作为军队的指挥官，你可以选择发射导弹杀死 <strong>2名</strong> 敌国士兵，但会误杀附近的 <strong>1名</strong> 敌国平民。</p> <p>平民照片如下图所示。</p> <p></p> <img src='stimuli/faces/NFM7.jpg', style='max-width: 30%;'> </img> <p><strong>你是否选择发射武器？</strong></p>","1",""
"","","","","","html-keyboard-response","124","403788","0.0-4.0-0.60","26","1","2022-10-24 08:27:48","ebf9627b049f568eb4bf28942cb89901","223.74.73.158","Mozilla/5.0 (Windows NT 6.3; Win64; x64) AppleWebKit/537.36 (KHTML, like Gecko) Chrome/106.0.0.0 Safari/537.36","WebKit","Chrome","106.0.0.0","Windows","6.3","null","<div style=""font-size:60px;"">+</div>","null",""
"","","","","","html-button-response","125","405625","0.0-4.0-1.60","26","1","2022-10-24 08:27:48","ebf9627b049f568eb4bf28942cb89901","223.74.73.158","Mozilla/5.0 (Windows NT 6.3; Win64; x64) AppleWebKit/537.36 (KHTML, like Gecko) Chrome/106.0.0.0 Safari/537.36","WebKit","Chrome","106.0.0.0","Windows","6.3","1825","<p>作为军队的指挥官，你可以选择发射导弹杀死 <strong>6名</strong> 敌国士兵，但会误杀附近的 <strong>1名</strong> 敌国平民。</p> <p>平民照片如下图所示。</p> <p></p> <img src='stimuli/faces/NFM4.jpg', style='max-width: 30%;'> </img> <p><strong>你是否选择发射武器？</strong></p>","0",""
"","","","","","html-keyboard-response","126","406636","0.0-4.0-0.61","26","1","2022-10-24 08:27:48","ebf9627b049f568eb4bf28942cb89901","223.74.73.158","Mozilla/5.0 (Windows NT 6.3; Win64; x64) AppleWebKit/537.36 (KHTML, like Gecko) Chrome/106.0.0.0 Safari/537.36","WebKit","Chrome","106.0.0.0","Windows","6.3","null","<div style=""font-size:60px;"">+</div>","null",""
"","","","","","html-button-response","127","412553","0.0-4.0-1.61","26","1","2022-10-24 08:27:48","ebf9627b049f568eb4bf28942cb89901","223.74.73.158","Mozilla/5.0 (Windows NT 6.3; Win64; x64) AppleWebKit/537.36 (KHTML, like Gecko) Chrome/106.0.0.0 Safari/537.36","WebKit","Chrome","106.0.0.0","Windows","6.3","5904","<p>作为军队的指挥官，你可以选择发射导弹杀死 <strong>5名</strong> 敌国士兵，但会炸毁附近的 <strong>1棵</strong> 敌国树木。</p> <p>树木的照片如下图所示。</p> <p></p> <img src='stimuli/trees/5.png', style='max-width: 30%;'> </img> <p><strong>你是否选择发射武器？</strong></p>","0",""
"","","","","","html-keyboard-response","128","413564","0.0-4.0-0.62","26","1","2022-10-24 08:27:48","ebf9627b049f568eb4bf28942cb89901","223.74.73.158","Mozilla/5.0 (Windows NT 6.3; Win64; x64) AppleWebKit/537.36 (KHTML, like Gecko) Chrome/106.0.0.0 Safari/537.36","WebKit","Chrome","106.0.0.0","Windows","6.3","null","<div style=""font-size:60px;"">+</div>","null",""
"","","","","","html-button-response","129","418705","0.0-4.0-1.62","26","1","2022-10-24 08:27:48","ebf9627b049f568eb4bf28942cb89901","223.74.73.158","Mozilla/5.0 (Windows NT 6.3; Win64; x64) AppleWebKit/537.36 (KHTML, like Gecko) Chrome/106.0.0.0 Safari/537.36","WebKit","Chrome","106.0.0.0","Windows","6.3","5128","<p>作为军队的指挥官，你可以选择发射导弹杀死 <strong>3名</strong> 敌国士兵，但会误杀附近的 <strong>1名</strong> 敌国平民。</p> <p>平民照片如下图所示。</p> <p></p> <img src='stimuli/faces/NFM1.jpg', style='max-width: 30%;'> </img> <p><strong>你是否选择发射武器？</strong></p>","1",""
"","","","","","html-keyboard-response","130","419717","0.0-4.0-0.63","26","1","2022-10-24 08:27:48","ebf9627b049f568eb4bf28942cb89901","223.74.73.158","Mozilla/5.0 (Windows NT 6.3; Win64; x64) AppleWebKit/537.36 (KHTML, like Gecko) Chrome/106.0.0.0 Safari/537.36","WebKit","Chrome","106.0.0.0","Windows","6.3","null","<div style=""font-size:60px;"">+</div>","null",""
"","","","","","html-button-response","131","422809","0.0-4.0-1.63","26","1","2022-10-24 08:27:48","ebf9627b049f568eb4bf28942cb89901","223.74.73.158","Mozilla/5.0 (Windows NT 6.3; Win64; x64) AppleWebKit/537.36 (KHTML, like Gecko) Chrome/106.0.0.0 Safari/537.36","WebKit","Chrome","106.0.0.0","Windows","6.3","3077","<p>作为军队的指挥官，你可以选择发射导弹杀死 <strong>2名</strong> 敌国士兵，但会误杀附近的 <strong>1名</strong> 敌国平民。</p> <p>平民照片如下图所示。</p> <p></p> <img src='stimuli/faces/NFM5.jpg', style='max-width: 30%;'> </img> <p><strong>你是否选择发射武器？</strong></p>","1",""
"","","","","","survey-multi-choice","132","440388","0.0-5.0","26","1","2022-10-24 08:27:48","ebf9627b049f568eb4bf28942cb89901","223.74.73.158","Mozilla/5.0 (Windows NT 6.3; Win64; x64) AppleWebKit/537.36 (KHTML, like Gecko) Chrome/106.0.0.0 Safari/537.36","WebKit","Chrome","106.0.0.0","Windows","6.3","17560","","{""Attention1"":""5""}","[0]"
"","","","","","html-button-response","133","478801","0.0-6.0","26","1","2022-10-24 08:27:48","ebf9627b049f568eb4bf28942cb89901","223.74.73.158","Mozilla/5.0 (Windows NT 6.3; Win64; x64) AppleWebKit/537.36 (KHTML, like Gecko) Chrome/106.0.0.0 Safari/537.36","WebKit","Chrome","106.0.0.0","Windows","6.3","38390","<p style=""font-size:20px;font-weight:bold;"">恭喜！</p><p>你已经完成了实验的第一部分。</p><p>请休息放松一下，然后进入第二部分。</p><p>这部分大约需要10分钟。</p>","0",""
"","","","","","survey-text","134","548076","0.0-7.0","26","1","2022-10-24 08:27:48","ebf9627b049f568eb4bf28942cb89901","223.74.73.158","Mozilla/5.0 (Windows NT 6.3; Win64; x64) AppleWebKit/537.36 (KHTML, like Gecko) Chrome/106.0.0.0 Safari/537.36","WebKit","Chrome","106.0.0.0","Windows","6.3","68206","","{""Age"":""21"",""Nation"":""中国"",""Born"":""广东佛山"",""Live"":""广东佛山"",""Ethnic"":""汉"",""Alipay"":""15015688970""}",""
"","","","","","survey-multi-choice","135","561927","0.0-8.0","26","1","2022-10-24 08:27:48","ebf9627b049f568eb4bf28942cb89901","223.74.73.158","Mozilla/5.0 (Windows NT 6.3; Win64; x64) AppleWebKit/537.36 (KHTML, like Gecko) Chrome/106.0.0.0 Safari/537.36","WebKit","Chrome","106.0.0.0","Windows","6.3","13831","","{""Gender"":""女"",""Education"":""本科毕业"",""Income"":""￥140,000-￥269,999"",""Children"":""0"",""Race"":""亚洲人""}","[0,1,2,3,4]"
"","","","","","survey-multi-select","136","570077","0.0-9.0","26","1","2022-10-24 08:27:48","ebf9627b049f568eb4bf28942cb89901","223.74.73.158","Mozilla/5.0 (Windows NT 6.3; Win64; x64) AppleWebKit/537.36 (KHTML, like Gecko) Chrome/106.0.0.0 Safari/537.36","WebKit","Chrome","106.0.0.0","Windows","6.3","8055","","{""Marriage"":[""未婚""],""Religion"":[""无宗教信仰""]}","[0,1]"
"","","","","","survey-multi-choice","137","575299","0.0-10.0","26","1","2022-10-24 08:27:48","ebf9627b049f568eb4bf28942cb89901","223.74.73.158","Mozilla/5.0 (Windows NT 6.3; Win64; x64) AppleWebKit/537.36 (KHTML, like Gecko) Chrome/106.0.0.0 Safari/537.36","WebKit","Chrome","106.0.0.0","Windows","6.3","5195","","{""SES"":""5""}","[0]"
"","","","","","html-button-response","138","576938","0.0-11.0","26","1","2022-10-24 08:27:48","ebf9627b049f568eb4bf28942cb89901","223.74.73.158","Mozilla/5.0 (Windows NT 6.3; Win64; x64) AppleWebKit/537.36 (KHTML, like Gecko) Chrome/106.0.0.0 Safari/537.36","WebKit","Chrome","106.0.0.0","Windows","6.3","1617","<p><strong>请判断下列陈述在多大程度上可以形容你？</p><p> (1 = ""和我一点都不像"" to 5 = ""非常像我"".)</strong></p>","0",""
"","","","","","survey-likert","139","603791","0.0-12.0","26","1","2022-10-24 08:27:48","ebf9627b049f568eb4bf28942cb89901","223.74.73.158","Mozilla/5.0 (Windows NT 6.3; Win64; x64) AppleWebKit/537.36 (KHTML, like Gecko) Chrome/106.0.0.0 Safari/537.36","WebKit","Chrome","106.0.0.0","Windows","6.3","26826","","{""Aggression1"":1,""Aggression2"":3,""Aggression3"":4,""Aggression4"":1,""Aggression5"":3,""Aggression6"":2,""Aggression7"":3,""Aggression8"":1,""Aggression9"":0}","[0,1,2,3,4,5,6,7,8]"
"","","","","","html-button-response","140","628898","0.0-13.0","26","1","2022-10-24 08:27:48","ebf9627b049f568eb4bf28942cb89901","223.74.73.158","Mozilla/5.0 (Windows NT 6.3; Win64; x64) AppleWebKit/537.36 (KHTML, like Gecko) Chrome/106.0.0.0 Safari/537.36","WebKit","Chrome","106.0.0.0","Windows","6.3","25084","<p><strong>请判断你在多大程度上同意下列陈述。</strong></p>","0",""
"","","","","","survey-likert","141","803409","0.0-14.0","26","1","2022-10-24 08:27:48","ebf9627b049f568eb4bf28942cb89901","223.74.73.158","Mozilla/5.0 (Windows NT 6.3; Win64; x64) AppleWebKit/537.36 (KHTML, like Gecko) Chrome/106.0.0.0 Safari/537.36","WebKit","Chrome","106.0.0.0","Windows","6.3","174475","","{""scale14"":1,""scale15"":2,""scale3"":0,""scale24"":3,""scale18"":1,""scale7"":3,""scale26"":4,""scale21"":4,""scale25"":4,""scale23"":3,""scale11"":4,""scale2"":3,""scale9"":3,""scale17"":3,""scale22"":1,""scale13"":3,""scale1"":2,""scale19"":3,""scale27"":0,""scale12"":1,""scale6"":2,""scale5"":3,""scale20"":2,""scale28"":4,""scale16"":2,""scale10"":1,""scale8"":3,""scale4"":1}","[13,14,2,23,17,6,25,20,24,22,10,1,8,16,21,12,0,18,26,11,5,4,19,27,15,9,7,3]"
"","","","","","html-button-response","142","806779","0.0-15.0","26","1","2022-10-24 08:27:48","ebf9627b049f568eb4bf28942cb89901","223.74.73.158","Mozilla/5.0 (Windows NT 6.3; Win64; x64) AppleWebKit/537.36 (KHTML, like Gecko) Chrome/106.0.0.0 Safari/537.36","WebKit","Chrome","106.0.0.0","Windows","6.3","3347","<p><strong>请判断你在多大程度上同意下列陈述。</strong></p>","0",""
"","","","","","survey-likert","143","862874","0.0-16.0","26","1","2022-10-24 08:27:48","ebf9627b049f568eb4bf28942cb89901","223.74.73.158","Mozilla/5.0 (Windows NT 6.3; Win64; x64) AppleWebKit/537.36 (KHTML, like Gecko) Chrome/106.0.0.0 Safari/537.36","WebKit","Chrome","106.0.0.0","Windows","6.3","56073","","{""sdo8"":2,""sdo10"":5,""sdo6"":4,""sdo9"":6,""sdo4"":2,""sdo5"":3,""sdo11"":4,""sdo16"":3,""sdo14"":5,""sdo1"":1,""sdo13"":5,""sdo2"":2,""sdo3"":1,""sdo15"":4,""sdo7"":1,""sdo12"":6}","[7,9,5,8,3,4,10,15,13,0,12,1,2,14,6,11]"
"","","","","","html-button-response","144","864682","0.0-17.0","26","1","2022-10-24 08:27:48","ebf9627b049f568eb4bf28942cb89901","223.74.73.158","Mozilla/5.0 (Windows NT 6.3; Win64; x64) AppleWebKit/537.36 (KHTML, like Gecko) Chrome/106.0.0.0 Safari/537.36","WebKit","Chrome","106.0.0.0","Windows","6.3","1785","<p><strong>请判断你在多大程度上同意下列陈述。</strong></p>","0",""
"","","","","","survey-likert","145","919689","0.0-18.0","26","1","2022-10-24 08:27:48","ebf9627b049f568eb4bf28942cb89901","223.74.73.158","Mozilla/5.0 (Windows NT 6.3; Win64; x64) AppleWebKit/537.36 (KHTML, like Gecko) Chrome/106.0.0.0 Safari/537.36","WebKit","Chrome","106.0.0.0","Windows","6.3","54986","","{""caring1"":1,""liking1"":1,""caring2"":3,""protection1"":2,""liking2"":3,""caring3"":3,""protection2"":0,""liking3"":2,""protection3"":3,""caring4"":3,""liking4"":1,""protection4"":2,""caring5"":4,""liking5"":3,""protection5"":1}","[0,1,2,3,4,5,6,7,8,9,10,11,12,13,14]"
"","","","","","html-button-response","146","921259","0.0-19.0","26","1","2022-10-24 08:27:48","ebf9627b049f568eb4bf28942cb89901","223.74.73.158","Mozilla/5.0 (Windows NT 6.3; Win64; x64) AppleWebKit/537.36 (KHTML, like Gecko) Chrome/106.0.0.0 Safari/537.36","WebKit","Chrome","106.0.0.0","Windows","6.3","1547","<p><strong>请判断下列场景中你的内心感受有多柔软。</strong></p>","0",""
"","","","","","survey-likert","147","976719","0.0-20.0","26","1","2022-10-24 08:27:48","ebf9627b049f568eb4bf28942cb89901","223.74.73.158","Mozilla/5.0 (Windows NT 6.3; Win64; x64) AppleWebKit/537.36 (KHTML, like Gecko) Chrome/106.0.0.0 Safari/537.36","WebKit","Chrome","106.0.0.0","Windows","6.3","55444","","{""tenderness-positive1"":3,""tenderness-negative1"":2,""tenderness-negative2"":1,""tenderness-positive2"":3,""tenderness-positive3"":2,""tenderness-negative3"":1,""tenderness-positive4"":4,""tendereness-negative4"":3,""tendernness-negative5"":3,""tenderness-positive5"":3}","[0,1,2,3,4,5,6,7,8,9]"
"","","","","","survey-multi-choice","148","992317","0.0-21.0","26","1","2022-10-24 08:27:48","ebf9627b049f568eb4bf28942cb89901","223.74.73.158","Mozilla/5.0 (Windows NT 6.3; Win64; x64) AppleWebKit/537.36 (KHTML, like Gecko) Chrome/106.0.0.0 Safari/537.36","WebKit","Chrome","106.0.0.0","Windows","6.3","15570","","{""Attention2"":""从来没有""}","[0]"
"","","","","","html-button-response","149","993603","0.0-22.0","26","1","2022-10-24 08:27:48","ebf9627b049f568eb4bf28942cb89901","223.74.73.158","Mozilla/5.0 (Windows NT 6.3; Win64; x64) AppleWebKit/537.36 (KHTML, like Gecko) Chrome/106.0.0.0 Safari/537.36","WebKit","Chrome","106.0.0.0","Windows","6.3","1262","<p><strong>请判断你在多大程度上同意下列陈述。</strong></p>","0",""
"","","","","","survey-likert","150","1070779","0.0-23.0","26","1","2022-10-24 08:27:48","ebf9627b049f568eb4bf28942cb89901","223.74.73.158","Mozilla/5.0 (Windows NT 6.3; Win64; x64) AppleWebKit/537.36 (KHTML, like Gecko) Chrome/106.0.0.0 Safari/537.36","WebKit","Chrome","106.0.0.0","Windows","6.3","77153","","{""Patri4"":4,""Nation6"":4,""Nation5"":1,""Nation8"":0,""Patri3"":4,""Nation3"":3,""Patri7"":4,""Patri10"":0,""Patri11"":0,""Nation2"":4,""Nation1"":1,""Patri5"":4,""Patri6"":0,""Nation7"":3,""Patri8"":4,""Patri9"":1,""Patri12"":0,""Patri1"":4,""Nation4"":0,""Patri2"":4}","[3,17,16,19,2,14,6,9,10,13,12,4,5,18,7,8,11,0,15,1]"
"","","","","","html-button-response","151","1072427","0.0-24.0","26","1","2022-10-24 08:27:48","ebf9627b049f568eb4bf28942cb89901","223.74.73.158","Mozilla/5.0 (Windows NT 6.3; Win64; x64) AppleWebKit/537.36 (KHTML, like Gecko) Chrome/106.0.0.0 Safari/537.36","WebKit","Chrome","106.0.0.0","Windows","6.3","1624","<p><strong>请判断你在多大程度上同意下列陈述。</strong></p>","0",""
"","","","","","survey-likert","152","1136197","0.0-25.0","26","1","2022-10-24 08:27:48","ebf9627b049f568eb4bf28942cb89901","223.74.73.158","Mozilla/5.0 (Windows NT 6.3; Win64; x64) AppleWebKit/537.36 (KHTML, like Gecko) Chrome/106.0.0.0 Safari/537.36","WebKit","Chrome","106.0.0.0","Windows","6.3","63742","","{""hi4"":7,""hi3"":4,""vi2"":5,""vc1"":6,""vi4"":5,""vi1"":4,""vc3"":4,""hc1"":6,""vc4"":7,""hi2"":8,""Robot"":6,""hc4"":7,""hi1"":8,""hc3"":3,""vc2"":7,""vi3"":6,""hc2"":6}","[3,2,5,13,8,4,15,9,16,1,7,12,0,11,14,6,10]"
"","","","","","survey-text","153","1142645","0.0-26.0","26","1","2022-10-24 08:27:48","ebf9627b049f568eb4bf28942cb89901","223.74.73.158","Mozilla/5.0 (Windows NT 6.3; Win64; x64) AppleWebKit/537.36 (KHTML, like Gecko) Chrome/106.0.0.0 Safari/537.36","WebKit","Chrome","106.0.0.0","Windows","6.3","6351","","{""Comments"":""没有""}",""
"","","","","","html-button-response","154","1144100","0.0-27.0","26","1","2022-10-24 08:27:48","ebf9627b049f568eb4bf28942cb89901","223.74.73.158","Mozilla/5.0 (Windows NT 6.3; Win64; x64) AppleWebKit/537.36 (KHTML, like Gecko) Chrome/106.0.0.0 Safari/537.36","WebKit","Chrome","106.0.0.0","Windows","6.3","1441","<strong><p>恭喜你完成了实验！</p><p>感谢您的参与。</p></strong>","0",""
