"success","timeout","failed_images","failed_audio","failed_video","trial_type","trial_index","time_elapsed","internal_node_id","run_id","condition","recorded_at","source_code_version","ip","user_agent","device","browser","browser_version","platform","platform_version","rt","stimulus","response","question_order"
"true","false","[]","[]","[]","preload","0","1082","0.0-0.0","30","1","2022-10-24 10:11:53","ebf9627b049f568eb4bf28942cb89901","115.27.200.219","Mozilla/5.0 (Macintosh; Intel Mac OS X 10_15_7) AppleWebKit/605.1.15 (KHTML, like Gecko) Version/14.1 Safari/605.1.15","Macintosh","Safari","14.1","OS X","10_15_7","","","",""
"true","","","","","fullscreen","1","9275","0.0-1.0","30","1","2022-10-24 10:11:53","ebf9627b049f568eb4bf28942cb89901","115.27.200.219","Mozilla/5.0 (Macintosh; Intel Mac OS X 10_15_7) AppleWebKit/605.1.15 (KHTML, like Gecko) Version/14.1 Safari/605.1.15","Macintosh","Safari","14.1","OS X","10_15_7","","","",""
"","","","","","html-button-response","2","19691","0.0-2.0","30","1","2022-10-24 10:11:53","ebf9627b049f568eb4bf28942cb89901","115.27.200.219","Mozilla/5.0 (Macintosh; Intel Mac OS X 10_15_7) AppleWebKit/605.1.15 (KHTML, like Gecko) Version/14.1 Safari/605.1.15","Macintosh","Safari","14.1","OS X","10_15_7","10412","<p style=""font-size:20px;font-weight:bold;"">实验知情同意书</p><p style=""text-align:left;""><strong>实验名称：</strong>社会冲突研究</p><p style=""text-align:left;""><strong>主要研究者：</strong>韩晓春副教授（北京师范大学心理学部）</p><p style=""text-align:left;""><strong>联系方式：</strong>发送邮件至xiaochun.han@bnu.edu.cn</p><p style=""text-align:left;""><strong>研究目的：</strong>研究旨在了解人类面对群体冲突时的决策方式，以及相关的心理学特质。实验调查大约需要20分钟。</p><p style=""text-align:left;""><strong>实验流程：</strong>实验包含两部分。第一部分呈现一系列群体冲突场景，请你决定如何对这些冲突进行反应，大约需要10分钟完成。第二部分包含一系列人口统计学信息收集和心理学问卷，大约需要10分钟完成。</p><p style=""text-align:left;""><strong>参加及退出规则：</strong>参加本实验完全取决于您的个人意愿。在参与过程中，您可以随时退出，并且不用承担任何后果。</p><p style=""text-align:left;""><strong>隐私：</strong>本实验完全匿名进行，不会收集您的姓名或其他能够识别您身份的信息。实验中收集的作答仅用作科学研究使用，可能会在学术期刊/书籍上发表，或者用于教学，您的数据未来可能会和其他研究者或实验室分享，但您的个人身份不会被识别。</p><p style=""text-align:left;""><strong>实验报酬：</strong>实验完成后，您将获得15元人民币报酬，以感谢您的时间和努力。调查问卷中包含几道题目用以测验您作答时的认真度。只有完成全部实验，并且正确回答认真度测验的被试才能获得实验报酬。实验报酬将通过支付宝转账发放。</p><p style=""text-align:left;font-size:20px;""><strong>如果您同意以上实验知情同意书的内容，请点击'同意并且开始实验'按钮；否则请关闭浏览器界面，退出实验。</strong></p>","0",""
"","","","","","html-button-response","3","38552","0.0-3.0","30","1","2022-10-24 10:11:53","ebf9627b049f568eb4bf28942cb89901","115.27.200.219","Mozilla/5.0 (Macintosh; Intel Mac OS X 10_15_7) AppleWebKit/605.1.15 (KHTML, like Gecko) Version/14.1 Safari/605.1.15","Macintosh","Safari","14.1","OS X","10_15_7","18860","<p ><strong>实验任务一：</strong></p><p>请想象你的国家与另一个国家发生了军事冲突。</p><p>你是国家军队的指挥官，你将如何在冲突中进行决策。</p><p>具体来说，作为军队指挥官，请你决定是否发射导弹进行打击。</p><p>接下来，你会面对一系列场景，请仔细阅读每个场景，然后进行决策。</p><p>这部分实验任务大约需要10分钟。</p><p><strong>实验过程中，请集中注意力。</strong></p>","0",""
"","","","","","html-keyboard-response","4","39558","0.0-4.0-0.0","30","1","2022-10-24 10:11:53","ebf9627b049f568eb4bf28942cb89901","115.27.200.219","Mozilla/5.0 (Macintosh; Intel Mac OS X 10_15_7) AppleWebKit/605.1.15 (KHTML, like Gecko) Version/14.1 Safari/605.1.15","Macintosh","Safari","14.1","OS X","10_15_7","null","<div style=""font-size:60px;"">+</div>","null",""
"","","","","","html-button-response","5","49408","0.0-4.0-1.0","30","1","2022-10-24 10:11:53","ebf9627b049f568eb4bf28942cb89901","115.27.200.219","Mozilla/5.0 (Macintosh; Intel Mac OS X 10_15_7) AppleWebKit/605.1.15 (KHTML, like Gecko) Version/14.1 Safari/605.1.15","Macintosh","Safari","14.1","OS X","10_15_7","9842","<p>作为军队的指挥官，你可以选择发射导弹杀死 <strong>8名</strong> 敌国士兵，但会误杀附近的 <strong>1名</strong> 敌国平民。</p> <p>平民照片如下图所示。</p> <p></p> <img src='stimuli/faces/NFM7.jpg', style='max-width: 30%;'> </img> <p><strong>你是否选择发射武器？</strong></p>","0",""
"","","","","","html-keyboard-response","6","50412","0.0-4.0-0.1","30","1","2022-10-24 10:11:53","ebf9627b049f568eb4bf28942cb89901","115.27.200.219","Mozilla/5.0 (Macintosh; Intel Mac OS X 10_15_7) AppleWebKit/605.1.15 (KHTML, like Gecko) Version/14.1 Safari/605.1.15","Macintosh","Safari","14.1","OS X","10_15_7","null","<div style=""font-size:60px;"">+</div>","null",""
"","","","","","html-button-response","7","53362","0.0-4.0-1.1","30","1","2022-10-24 10:11:53","ebf9627b049f568eb4bf28942cb89901","115.27.200.219","Mozilla/5.0 (Macintosh; Intel Mac OS X 10_15_7) AppleWebKit/605.1.15 (KHTML, like Gecko) Version/14.1 Safari/605.1.15","Macintosh","Safari","14.1","OS X","10_15_7","2947","<p>作为军队的指挥官，你可以选择发射导弹杀死 <strong>1名</strong> 敌国士兵，但会炸毁附近的 <strong>1棵</strong> 敌国树木。</p> <p>树木的照片如下图所示。</p> <p></p> <img src='stimuli/trees/12.png', style='max-width: 30%;'> </img> <p><strong>你是否选择发射武器？</strong></p>","0",""
"","","","","","html-keyboard-response","8","54363","0.0-4.0-0.2","30","1","2022-10-24 10:11:53","ebf9627b049f568eb4bf28942cb89901","115.27.200.219","Mozilla/5.0 (Macintosh; Intel Mac OS X 10_15_7) AppleWebKit/605.1.15 (KHTML, like Gecko) Version/14.1 Safari/605.1.15","Macintosh","Safari","14.1","OS X","10_15_7","null","<div style=""font-size:60px;"">+</div>","null",""
"","","","","","html-button-response","9","59619","0.0-4.0-1.2","30","1","2022-10-24 10:11:53","ebf9627b049f568eb4bf28942cb89901","115.27.200.219","Mozilla/5.0 (Macintosh; Intel Mac OS X 10_15_7) AppleWebKit/605.1.15 (KHTML, like Gecko) Version/14.1 Safari/605.1.15","Macintosh","Safari","14.1","OS X","10_15_7","5252","<p>作为军队的指挥官，你可以选择发射导弹杀死 <strong>5名</strong> 敌国士兵，但会误杀附近的 <strong>1名</strong> 敌国平民。</p> <p>平民照片如下图所示。</p> <p></p> <img src='stimuli/faces/NFM1.jpg', style='max-width: 30%;'> </img> <p><strong>你是否选择发射武器？</strong></p>","1",""
"","","","","","html-keyboard-response","10","60622","0.0-4.0-0.3","30","1","2022-10-24 10:11:53","ebf9627b049f568eb4bf28942cb89901","115.27.200.219","Mozilla/5.0 (Macintosh; Intel Mac OS X 10_15_7) AppleWebKit/605.1.15 (KHTML, like Gecko) Version/14.1 Safari/605.1.15","Macintosh","Safari","14.1","OS X","10_15_7","null","<div style=""font-size:60px;"">+</div>","null",""
"","","","","","html-button-response","11","62945","0.0-4.0-1.3","30","1","2022-10-24 10:11:53","ebf9627b049f568eb4bf28942cb89901","115.27.200.219","Mozilla/5.0 (Macintosh; Intel Mac OS X 10_15_7) AppleWebKit/605.1.15 (KHTML, like Gecko) Version/14.1 Safari/605.1.15","Macintosh","Safari","14.1","OS X","10_15_7","2319","<p>作为军队的指挥官，你可以选择发射导弹杀死 <strong>4名</strong> 敌国士兵，但会炸毁附近的 <strong>1棵</strong> 敌国树木。</p> <p>树木的照片如下图所示。</p> <p></p> <img src='stimuli/trees/7.png', style='max-width: 30%;'> </img> <p><strong>你是否选择发射武器？</strong></p>","0",""
"","","","","","html-keyboard-response","12","63949","0.0-4.0-0.4","30","1","2022-10-24 10:11:53","ebf9627b049f568eb4bf28942cb89901","115.27.200.219","Mozilla/5.0 (Macintosh; Intel Mac OS X 10_15_7) AppleWebKit/605.1.15 (KHTML, like Gecko) Version/14.1 Safari/605.1.15","Macintosh","Safari","14.1","OS X","10_15_7","null","<div style=""font-size:60px;"">+</div>","null",""
"","","","","","html-button-response","13","66771","0.0-4.0-1.4","30","1","2022-10-24 10:11:53","ebf9627b049f568eb4bf28942cb89901","115.27.200.219","Mozilla/5.0 (Macintosh; Intel Mac OS X 10_15_7) AppleWebKit/605.1.15 (KHTML, like Gecko) Version/14.1 Safari/605.1.15","Macintosh","Safari","14.1","OS X","10_15_7","2818","<p>作为军队的指挥官，你可以选择发射导弹杀死 <strong>2名</strong> 敌国士兵，但会误杀附近的 <strong>1名</strong> 敌国平民。</p> <p>平民照片如下图所示。</p> <p></p> <img src='stimuli/faces/NFM4.jpg', style='max-width: 30%;'> </img> <p><strong>你是否选择发射武器？</strong></p>","1",""
"","","","","","html-keyboard-response","14","67775","0.0-4.0-0.5","30","1","2022-10-24 10:11:53","ebf9627b049f568eb4bf28942cb89901","115.27.200.219","Mozilla/5.0 (Macintosh; Intel Mac OS X 10_15_7) AppleWebKit/605.1.15 (KHTML, like Gecko) Version/14.1 Safari/605.1.15","Macintosh","Safari","14.1","OS X","10_15_7","null","<div style=""font-size:60px;"">+</div>","null",""
"","","","","","html-button-response","15","70678","0.0-4.0-1.5","30","1","2022-10-24 10:11:53","ebf9627b049f568eb4bf28942cb89901","115.27.200.219","Mozilla/5.0 (Macintosh; Intel Mac OS X 10_15_7) AppleWebKit/605.1.15 (KHTML, like Gecko) Version/14.1 Safari/605.1.15","Macintosh","Safari","14.1","OS X","10_15_7","2900","<p>作为军队的指挥官，你可以选择发射导弹杀死 <strong>6名</strong> 敌国士兵，但会误杀附近的 <strong>1名</strong> 敌国平民。</p> <p>平民照片如下图所示。</p> <p></p> <img src='stimuli/faces/NFM8.jpg', style='max-width: 30%;'> </img> <p><strong>你是否选择发射武器？</strong></p>","0",""
"","","","","","html-keyboard-response","16","71680","0.0-4.0-0.6","30","1","2022-10-24 10:11:53","ebf9627b049f568eb4bf28942cb89901","115.27.200.219","Mozilla/5.0 (Macintosh; Intel Mac OS X 10_15_7) AppleWebKit/605.1.15 (KHTML, like Gecko) Version/14.1 Safari/605.1.15","Macintosh","Safari","14.1","OS X","10_15_7","null","<div style=""font-size:60px;"">+</div>","null",""
"","","","","","html-button-response","17","75206","0.0-4.0-1.6","30","1","2022-10-24 10:11:53","ebf9627b049f568eb4bf28942cb89901","115.27.200.219","Mozilla/5.0 (Macintosh; Intel Mac OS X 10_15_7) AppleWebKit/605.1.15 (KHTML, like Gecko) Version/14.1 Safari/605.1.15","Macintosh","Safari","14.1","OS X","10_15_7","3522","<p>作为军队的指挥官，你可以选择发射导弹杀死 <strong>3名</strong> 敌国士兵，但会误杀附近的 <strong>1名</strong> 敌国平民。</p> <p>平民照片如下图所示。</p> <p></p> <img src='stimuli/faces/NFF3.jpg', style='max-width: 30%;'> </img> <p><strong>你是否选择发射武器？</strong></p>","1",""
"","","","","","html-keyboard-response","18","76210","0.0-4.0-0.7","30","1","2022-10-24 10:11:53","ebf9627b049f568eb4bf28942cb89901","115.27.200.219","Mozilla/5.0 (Macintosh; Intel Mac OS X 10_15_7) AppleWebKit/605.1.15 (KHTML, like Gecko) Version/14.1 Safari/605.1.15","Macintosh","Safari","14.1","OS X","10_15_7","null","<div style=""font-size:60px;"">+</div>","null",""
"","","","","","html-button-response","19","79129","0.0-4.0-1.7","30","1","2022-10-24 10:11:53","ebf9627b049f568eb4bf28942cb89901","115.27.200.219","Mozilla/5.0 (Macintosh; Intel Mac OS X 10_15_7) AppleWebKit/605.1.15 (KHTML, like Gecko) Version/14.1 Safari/605.1.15","Macintosh","Safari","14.1","OS X","10_15_7","2915","<p>作为军队的指挥官，你可以选择发射导弹杀死 <strong>10名</strong> 敌国士兵，但会误杀附近的 <strong>1名</strong> 敌国平民。</p> <p>平民照片如下图所示。</p> <p></p> <img src='stimuli/faces/NFM4.jpg', style='max-width: 30%;'> </img> <p><strong>你是否选择发射武器？</strong></p>","0",""
"","","","","","html-keyboard-response","20","80133","0.0-4.0-0.8","30","1","2022-10-24 10:11:53","ebf9627b049f568eb4bf28942cb89901","115.27.200.219","Mozilla/5.0 (Macintosh; Intel Mac OS X 10_15_7) AppleWebKit/605.1.15 (KHTML, like Gecko) Version/14.1 Safari/605.1.15","Macintosh","Safari","14.1","OS X","10_15_7","null","<div style=""font-size:60px;"">+</div>","null",""
"","","","","","html-button-response","21","82543","0.0-4.0-1.8","30","1","2022-10-24 10:11:53","ebf9627b049f568eb4bf28942cb89901","115.27.200.219","Mozilla/5.0 (Macintosh; Intel Mac OS X 10_15_7) AppleWebKit/605.1.15 (KHTML, like Gecko) Version/14.1 Safari/605.1.15","Macintosh","Safari","14.1","OS X","10_15_7","2406","<p>作为军队的指挥官，你可以选择发射导弹杀死 <strong>3名</strong> 敌国士兵，但会误杀附近的 <strong>1名</strong> 敌国平民。</p> <p>平民照片如下图所示。</p> <p></p> <img src='stimuli/faces/NFM8.jpg', style='max-width: 30%;'> </img> <p><strong>你是否选择发射武器？</strong></p>","1",""
"","","","","","html-keyboard-response","22","83547","0.0-4.0-0.9","30","1","2022-10-24 10:11:53","ebf9627b049f568eb4bf28942cb89901","115.27.200.219","Mozilla/5.0 (Macintosh; Intel Mac OS X 10_15_7) AppleWebKit/605.1.15 (KHTML, like Gecko) Version/14.1 Safari/605.1.15","Macintosh","Safari","14.1","OS X","10_15_7","null","<div style=""font-size:60px;"">+</div>","null",""
"","","","","","html-button-response","23","86207","0.0-4.0-1.9","30","1","2022-10-24 10:11:53","ebf9627b049f568eb4bf28942cb89901","115.27.200.219","Mozilla/5.0 (Macintosh; Intel Mac OS X 10_15_7) AppleWebKit/605.1.15 (KHTML, like Gecko) Version/14.1 Safari/605.1.15","Macintosh","Safari","14.1","OS X","10_15_7","2657","<p>作为军队的指挥官，你可以选择发射导弹杀死 <strong>9名</strong> 敌国士兵，但会误杀附近的 <strong>1名</strong> 敌国平民。</p> <p>平民照片如下图所示。</p> <p></p> <img src='stimuli/faces/NFF6.jpg', style='max-width: 30%;'> </img> <p><strong>你是否选择发射武器？</strong></p>","1",""
"","","","","","html-keyboard-response","24","87210","0.0-4.0-0.10","30","1","2022-10-24 10:11:53","ebf9627b049f568eb4bf28942cb89901","115.27.200.219","Mozilla/5.0 (Macintosh; Intel Mac OS X 10_15_7) AppleWebKit/605.1.15 (KHTML, like Gecko) Version/14.1 Safari/605.1.15","Macintosh","Safari","14.1","OS X","10_15_7","null","<div style=""font-size:60px;"">+</div>","null",""
"","","","","","html-button-response","25","89324","0.0-4.0-1.10","30","1","2022-10-24 10:11:53","ebf9627b049f568eb4bf28942cb89901","115.27.200.219","Mozilla/5.0 (Macintosh; Intel Mac OS X 10_15_7) AppleWebKit/605.1.15 (KHTML, like Gecko) Version/14.1 Safari/605.1.15","Macintosh","Safari","14.1","OS X","10_15_7","2110","<p>作为军队的指挥官，你可以选择发射导弹杀死 <strong>2名</strong> 敌国士兵，但会炸毁附近的 <strong>1棵</strong> 敌国树木。</p> <p>树木的照片如下图所示。</p> <p></p> <img src='stimuli/trees/15.png', style='max-width: 30%;'> </img> <p><strong>你是否选择发射武器？</strong></p>","0",""
"","","","","","html-keyboard-response","26","90329","0.0-4.0-0.11","30","1","2022-10-24 10:11:53","ebf9627b049f568eb4bf28942cb89901","115.27.200.219","Mozilla/5.0 (Macintosh; Intel Mac OS X 10_15_7) AppleWebKit/605.1.15 (KHTML, like Gecko) Version/14.1 Safari/605.1.15","Macintosh","Safari","14.1","OS X","10_15_7","null","<div style=""font-size:60px;"">+</div>","null",""
"","","","","","html-button-response","27","91908","0.0-4.0-1.11","30","1","2022-10-24 10:11:53","ebf9627b049f568eb4bf28942cb89901","115.27.200.219","Mozilla/5.0 (Macintosh; Intel Mac OS X 10_15_7) AppleWebKit/605.1.15 (KHTML, like Gecko) Version/14.1 Safari/605.1.15","Macintosh","Safari","14.1","OS X","10_15_7","1575","<p>作为军队的指挥官，你可以选择发射导弹杀死 <strong>6名</strong> 敌国士兵，但会炸毁附近的 <strong>1棵</strong> 敌国树木。</p> <p>树木的照片如下图所示。</p> <p></p> <img src='stimuli/trees/3.png', style='max-width: 30%;'> </img> <p><strong>你是否选择发射武器？</strong></p>","0",""
"","","","","","html-keyboard-response","28","92910","0.0-4.0-0.12","30","1","2022-10-24 10:11:53","ebf9627b049f568eb4bf28942cb89901","115.27.200.219","Mozilla/5.0 (Macintosh; Intel Mac OS X 10_15_7) AppleWebKit/605.1.15 (KHTML, like Gecko) Version/14.1 Safari/605.1.15","Macintosh","Safari","14.1","OS X","10_15_7","null","<div style=""font-size:60px;"">+</div>","null",""
"","","","","","html-button-response","29","95458","0.0-4.0-1.12","30","1","2022-10-24 10:11:53","ebf9627b049f568eb4bf28942cb89901","115.27.200.219","Mozilla/5.0 (Macintosh; Intel Mac OS X 10_15_7) AppleWebKit/605.1.15 (KHTML, like Gecko) Version/14.1 Safari/605.1.15","Macintosh","Safari","14.1","OS X","10_15_7","2544","<p>作为军队的指挥官，你可以选择发射导弹杀死 <strong>2名</strong> 敌国士兵，但会误杀附近的 <strong>1名</strong> 敌国平民。</p> <p>平民照片如下图所示。</p> <p></p> <img src='stimuli/faces/NFM3.jpg', style='max-width: 30%;'> </img> <p><strong>你是否选择发射武器？</strong></p>","1",""
"","","","","","html-keyboard-response","30","96462","0.0-4.0-0.13","30","1","2022-10-24 10:11:53","ebf9627b049f568eb4bf28942cb89901","115.27.200.219","Mozilla/5.0 (Macintosh; Intel Mac OS X 10_15_7) AppleWebKit/605.1.15 (KHTML, like Gecko) Version/14.1 Safari/605.1.15","Macintosh","Safari","14.1","OS X","10_15_7","null","<div style=""font-size:60px;"">+</div>","null",""
"","","","","","html-button-response","31","99203","0.0-4.0-1.13","30","1","2022-10-24 10:11:53","ebf9627b049f568eb4bf28942cb89901","115.27.200.219","Mozilla/5.0 (Macintosh; Intel Mac OS X 10_15_7) AppleWebKit/605.1.15 (KHTML, like Gecko) Version/14.1 Safari/605.1.15","Macintosh","Safari","14.1","OS X","10_15_7","2737","<p>作为军队的指挥官，你可以选择发射导弹杀死 <strong>7名</strong> 敌国士兵，但会误杀附近的 <strong>1名</strong> 敌国平民。</p> <p>平民照片如下图所示。</p> <p></p> <img src='stimuli/faces/NFF7.jpg', style='max-width: 30%;'> </img> <p><strong>你是否选择发射武器？</strong></p>","0",""
"","","","","","html-keyboard-response","32","100208","0.0-4.0-0.14","30","1","2022-10-24 10:11:53","ebf9627b049f568eb4bf28942cb89901","115.27.200.219","Mozilla/5.0 (Macintosh; Intel Mac OS X 10_15_7) AppleWebKit/605.1.15 (KHTML, like Gecko) Version/14.1 Safari/605.1.15","Macintosh","Safari","14.1","OS X","10_15_7","null","<div style=""font-size:60px;"">+</div>","null",""
"","","","","","html-button-response","33","104676","0.0-4.0-1.14","30","1","2022-10-24 10:11:53","ebf9627b049f568eb4bf28942cb89901","115.27.200.219","Mozilla/5.0 (Macintosh; Intel Mac OS X 10_15_7) AppleWebKit/605.1.15 (KHTML, like Gecko) Version/14.1 Safari/605.1.15","Macintosh","Safari","14.1","OS X","10_15_7","4463","<p>作为军队的指挥官，你可以选择发射导弹杀死 <strong>3名</strong> 敌国士兵，但会炸毁附近的 <strong>1棵</strong> 敌国树木。</p> <p>树木的照片如下图所示。</p> <p></p> <img src='stimuli/trees/5.png', style='max-width: 30%;'> </img> <p><strong>你是否选择发射武器？</strong></p>","0",""
"","","","","","html-keyboard-response","34","105680","0.0-4.0-0.15","30","1","2022-10-24 10:11:53","ebf9627b049f568eb4bf28942cb89901","115.27.200.219","Mozilla/5.0 (Macintosh; Intel Mac OS X 10_15_7) AppleWebKit/605.1.15 (KHTML, like Gecko) Version/14.1 Safari/605.1.15","Macintosh","Safari","14.1","OS X","10_15_7","null","<div style=""font-size:60px;"">+</div>","null",""
"","","","","","html-button-response","35","109933","0.0-4.0-1.15","30","1","2022-10-24 10:11:53","ebf9627b049f568eb4bf28942cb89901","115.27.200.219","Mozilla/5.0 (Macintosh; Intel Mac OS X 10_15_7) AppleWebKit/605.1.15 (KHTML, like Gecko) Version/14.1 Safari/605.1.15","Macintosh","Safari","14.1","OS X","10_15_7","4249","<p>作为军队的指挥官，你可以选择发射导弹杀死 <strong>3名</strong> 敌国士兵，但会误杀附近的 <strong>1名</strong> 敌国平民。</p> <p>平民照片如下图所示。</p> <p></p> <img src='stimuli/faces/NFF1.jpg', style='max-width: 30%;'> </img> <p><strong>你是否选择发射武器？</strong></p>","0",""
"","","","","","html-keyboard-response","36","110937","0.0-4.0-0.16","30","1","2022-10-24 10:11:53","ebf9627b049f568eb4bf28942cb89901","115.27.200.219","Mozilla/5.0 (Macintosh; Intel Mac OS X 10_15_7) AppleWebKit/605.1.15 (KHTML, like Gecko) Version/14.1 Safari/605.1.15","Macintosh","Safari","14.1","OS X","10_15_7","null","<div style=""font-size:60px;"">+</div>","null",""
"","","","","","html-button-response","37","113586","0.0-4.0-1.16","30","1","2022-10-24 10:11:53","ebf9627b049f568eb4bf28942cb89901","115.27.200.219","Mozilla/5.0 (Macintosh; Intel Mac OS X 10_15_7) AppleWebKit/605.1.15 (KHTML, like Gecko) Version/14.1 Safari/605.1.15","Macintosh","Safari","14.1","OS X","10_15_7","2646","<p>作为军队的指挥官，你可以选择发射导弹杀死 <strong>4名</strong> 敌国士兵，但会误杀附近的 <strong>1名</strong> 敌国平民。</p> <p>平民照片如下图所示。</p> <p></p> <img src='stimuli/faces/NFM5.jpg', style='max-width: 30%;'> </img> <p><strong>你是否选择发射武器？</strong></p>","0",""
"","","","","","html-keyboard-response","38","114589","0.0-4.0-0.17","30","1","2022-10-24 10:11:53","ebf9627b049f568eb4bf28942cb89901","115.27.200.219","Mozilla/5.0 (Macintosh; Intel Mac OS X 10_15_7) AppleWebKit/605.1.15 (KHTML, like Gecko) Version/14.1 Safari/605.1.15","Macintosh","Safari","14.1","OS X","10_15_7","null","<div style=""font-size:60px;"">+</div>","null",""
"","","","","","html-button-response","39","115823","0.0-4.0-1.17","30","1","2022-10-24 10:11:53","ebf9627b049f568eb4bf28942cb89901","115.27.200.219","Mozilla/5.0 (Macintosh; Intel Mac OS X 10_15_7) AppleWebKit/605.1.15 (KHTML, like Gecko) Version/14.1 Safari/605.1.15","Macintosh","Safari","14.1","OS X","10_15_7","1229","<p>作为军队的指挥官，你可以选择发射导弹杀死 <strong>8名</strong> 敌国士兵，但会炸毁附近的 <strong>1棵</strong> 敌国树木。</p> <p>树木的照片如下图所示。</p> <p></p> <img src='stimuli/trees/13.png', style='max-width: 30%;'> </img> <p><strong>你是否选择发射武器？</strong></p>","0",""
"","","","","","html-keyboard-response","40","116827","0.0-4.0-0.18","30","1","2022-10-24 10:11:53","ebf9627b049f568eb4bf28942cb89901","115.27.200.219","Mozilla/5.0 (Macintosh; Intel Mac OS X 10_15_7) AppleWebKit/605.1.15 (KHTML, like Gecko) Version/14.1 Safari/605.1.15","Macintosh","Safari","14.1","OS X","10_15_7","null","<div style=""font-size:60px;"">+</div>","null",""
"","","","","","html-button-response","41","119918","0.0-4.0-1.18","30","1","2022-10-24 10:11:53","ebf9627b049f568eb4bf28942cb89901","115.27.200.219","Mozilla/5.0 (Macintosh; Intel Mac OS X 10_15_7) AppleWebKit/605.1.15 (KHTML, like Gecko) Version/14.1 Safari/605.1.15","Macintosh","Safari","14.1","OS X","10_15_7","3087","<p>作为军队的指挥官，你可以选择发射导弹杀死 <strong>4名</strong> 敌国士兵，但会炸毁附近的 <strong>1棵</strong> 敌国树木。</p> <p>树木的照片如下图所示。</p> <p></p> <img src='stimuli/trees/13.png', style='max-width: 30%;'> </img> <p><strong>你是否选择发射武器？</strong></p>","0",""
"","","","","","html-keyboard-response","42","120920","0.0-4.0-0.19","30","1","2022-10-24 10:11:53","ebf9627b049f568eb4bf28942cb89901","115.27.200.219","Mozilla/5.0 (Macintosh; Intel Mac OS X 10_15_7) AppleWebKit/605.1.15 (KHTML, like Gecko) Version/14.1 Safari/605.1.15","Macintosh","Safari","14.1","OS X","10_15_7","null","<div style=""font-size:60px;"">+</div>","null",""
"","","","","","html-button-response","43","122854","0.0-4.0-1.19","30","1","2022-10-24 10:11:53","ebf9627b049f568eb4bf28942cb89901","115.27.200.219","Mozilla/5.0 (Macintosh; Intel Mac OS X 10_15_7) AppleWebKit/605.1.15 (KHTML, like Gecko) Version/14.1 Safari/605.1.15","Macintosh","Safari","14.1","OS X","10_15_7","1931","<p>作为军队的指挥官，你可以选择发射导弹杀死 <strong>7名</strong> 敌国士兵，但会炸毁附近的 <strong>1棵</strong> 敌国树木。</p> <p>树木的照片如下图所示。</p> <p></p> <img src='stimuli/trees/4.png', style='max-width: 30%;'> </img> <p><strong>你是否选择发射武器？</strong></p>","0",""
"","","","","","html-keyboard-response","44","123856","0.0-4.0-0.20","30","1","2022-10-24 10:11:53","ebf9627b049f568eb4bf28942cb89901","115.27.200.219","Mozilla/5.0 (Macintosh; Intel Mac OS X 10_15_7) AppleWebKit/605.1.15 (KHTML, like Gecko) Version/14.1 Safari/605.1.15","Macintosh","Safari","14.1","OS X","10_15_7","null","<div style=""font-size:60px;"">+</div>","null",""
"","","","","","html-button-response","45","128000","0.0-4.0-1.20","30","1","2022-10-24 10:11:53","ebf9627b049f568eb4bf28942cb89901","115.27.200.219","Mozilla/5.0 (Macintosh; Intel Mac OS X 10_15_7) AppleWebKit/605.1.15 (KHTML, like Gecko) Version/14.1 Safari/605.1.15","Macintosh","Safari","14.1","OS X","10_15_7","4139","<p>作为军队的指挥官，你可以选择发射导弹杀死 <strong>1名</strong> 敌国士兵，但会误杀附近的 <strong>1名</strong> 敌国平民。</p> <p>平民照片如下图所示。</p> <p></p> <img src='stimuli/faces/NFM6.jpg', style='max-width: 30%;'> </img> <p><strong>你是否选择发射武器？</strong></p>","1",""
"","","","","","html-keyboard-response","46","129004","0.0-4.0-0.21","30","1","2022-10-24 10:11:53","ebf9627b049f568eb4bf28942cb89901","115.27.200.219","Mozilla/5.0 (Macintosh; Intel Mac OS X 10_15_7) AppleWebKit/605.1.15 (KHTML, like Gecko) Version/14.1 Safari/605.1.15","Macintosh","Safari","14.1","OS X","10_15_7","null","<div style=""font-size:60px;"">+</div>","null",""
"","","","","","html-button-response","47","132206","0.0-4.0-1.21","30","1","2022-10-24 10:11:53","ebf9627b049f568eb4bf28942cb89901","115.27.200.219","Mozilla/5.0 (Macintosh; Intel Mac OS X 10_15_7) AppleWebKit/605.1.15 (KHTML, like Gecko) Version/14.1 Safari/605.1.15","Macintosh","Safari","14.1","OS X","10_15_7","3197","<p>作为军队的指挥官，你可以选择发射导弹杀死 <strong>4名</strong> 敌国士兵，但会误杀附近的 <strong>1名</strong> 敌国平民。</p> <p>平民照片如下图所示。</p> <p></p> <img src='stimuli/faces/NFF7.jpg', style='max-width: 30%;'> </img> <p><strong>你是否选择发射武器？</strong></p>","1",""
"","","","","","html-keyboard-response","48","133210","0.0-4.0-0.22","30","1","2022-10-24 10:11:53","ebf9627b049f568eb4bf28942cb89901","115.27.200.219","Mozilla/5.0 (Macintosh; Intel Mac OS X 10_15_7) AppleWebKit/605.1.15 (KHTML, like Gecko) Version/14.1 Safari/605.1.15","Macintosh","Safari","14.1","OS X","10_15_7","null","<div style=""font-size:60px;"">+</div>","null",""
"","","","","","html-button-response","49","135565","0.0-4.0-1.22","30","1","2022-10-24 10:11:53","ebf9627b049f568eb4bf28942cb89901","115.27.200.219","Mozilla/5.0 (Macintosh; Intel Mac OS X 10_15_7) AppleWebKit/605.1.15 (KHTML, like Gecko) Version/14.1 Safari/605.1.15","Macintosh","Safari","14.1","OS X","10_15_7","2351","<p>作为军队的指挥官，你可以选择发射导弹杀死 <strong>10名</strong> 敌国士兵，但会误杀附近的 <strong>1名</strong> 敌国平民。</p> <p>平民照片如下图所示。</p> <p></p> <img src='stimuli/faces/NFM1.jpg', style='max-width: 30%;'> </img> <p><strong>你是否选择发射武器？</strong></p>","0",""
"","","","","","html-keyboard-response","50","136568","0.0-4.0-0.23","30","1","2022-10-24 10:11:53","ebf9627b049f568eb4bf28942cb89901","115.27.200.219","Mozilla/5.0 (Macintosh; Intel Mac OS X 10_15_7) AppleWebKit/605.1.15 (KHTML, like Gecko) Version/14.1 Safari/605.1.15","Macintosh","Safari","14.1","OS X","10_15_7","null","<div style=""font-size:60px;"">+</div>","null",""
"","","","","","html-button-response","51","138704","0.0-4.0-1.23","30","1","2022-10-24 10:11:53","ebf9627b049f568eb4bf28942cb89901","115.27.200.219","Mozilla/5.0 (Macintosh; Intel Mac OS X 10_15_7) AppleWebKit/605.1.15 (KHTML, like Gecko) Version/14.1 Safari/605.1.15","Macintosh","Safari","14.1","OS X","10_15_7","2131","<p>作为军队的指挥官，你可以选择发射导弹杀死 <strong>2名</strong> 敌国士兵，但会炸毁附近的 <strong>1棵</strong> 敌国树木。</p> <p>树木的照片如下图所示。</p> <p></p> <img src='stimuli/trees/8.png', style='max-width: 30%;'> </img> <p><strong>你是否选择发射武器？</strong></p>","0",""
"","","","","","html-keyboard-response","52","139709","0.0-4.0-0.24","30","1","2022-10-24 10:11:53","ebf9627b049f568eb4bf28942cb89901","115.27.200.219","Mozilla/5.0 (Macintosh; Intel Mac OS X 10_15_7) AppleWebKit/605.1.15 (KHTML, like Gecko) Version/14.1 Safari/605.1.15","Macintosh","Safari","14.1","OS X","10_15_7","null","<div style=""font-size:60px;"">+</div>","null",""
"","","","","","html-button-response","53","141158","0.0-4.0-1.24","30","1","2022-10-24 10:11:53","ebf9627b049f568eb4bf28942cb89901","115.27.200.219","Mozilla/5.0 (Macintosh; Intel Mac OS X 10_15_7) AppleWebKit/605.1.15 (KHTML, like Gecko) Version/14.1 Safari/605.1.15","Macintosh","Safari","14.1","OS X","10_15_7","1444","<p>作为军队的指挥官，你可以选择发射导弹杀死 <strong>5名</strong> 敌国士兵，但会炸毁附近的 <strong>1棵</strong> 敌国树木。</p> <p>树木的照片如下图所示。</p> <p></p> <img src='stimuli/trees/1.png', style='max-width: 30%;'> </img> <p><strong>你是否选择发射武器？</strong></p>","0",""
"","","","","","html-keyboard-response","54","142163","0.0-4.0-0.25","30","1","2022-10-24 10:11:53","ebf9627b049f568eb4bf28942cb89901","115.27.200.219","Mozilla/5.0 (Macintosh; Intel Mac OS X 10_15_7) AppleWebKit/605.1.15 (KHTML, like Gecko) Version/14.1 Safari/605.1.15","Macintosh","Safari","14.1","OS X","10_15_7","null","<div style=""font-size:60px;"">+</div>","null",""
"","","","","","html-button-response","55","146106","0.0-4.0-1.25","30","1","2022-10-24 10:11:53","ebf9627b049f568eb4bf28942cb89901","115.27.200.219","Mozilla/5.0 (Macintosh; Intel Mac OS X 10_15_7) AppleWebKit/605.1.15 (KHTML, like Gecko) Version/14.1 Safari/605.1.15","Macintosh","Safari","14.1","OS X","10_15_7","3939","<p>作为军队的指挥官，你可以选择发射导弹杀死 <strong>6名</strong> 敌国士兵，但会误杀附近的 <strong>1名</strong> 敌国平民。</p> <p>平民照片如下图所示。</p> <p></p> <img src='stimuli/faces/NFF2.jpg', style='max-width: 30%;'> </img> <p><strong>你是否选择发射武器？</strong></p>","1",""
"","","","","","html-keyboard-response","56","147111","0.0-4.0-0.26","30","1","2022-10-24 10:11:53","ebf9627b049f568eb4bf28942cb89901","115.27.200.219","Mozilla/5.0 (Macintosh; Intel Mac OS X 10_15_7) AppleWebKit/605.1.15 (KHTML, like Gecko) Version/14.1 Safari/605.1.15","Macintosh","Safari","14.1","OS X","10_15_7","null","<div style=""font-size:60px;"">+</div>","null",""
"","","","","","html-button-response","57","150232","0.0-4.0-1.26","30","1","2022-10-24 10:11:53","ebf9627b049f568eb4bf28942cb89901","115.27.200.219","Mozilla/5.0 (Macintosh; Intel Mac OS X 10_15_7) AppleWebKit/605.1.15 (KHTML, like Gecko) Version/14.1 Safari/605.1.15","Macintosh","Safari","14.1","OS X","10_15_7","3117","<p>作为军队的指挥官，你可以选择发射导弹杀死 <strong>7名</strong> 敌国士兵，但会误杀附近的 <strong>1名</strong> 敌国平民。</p> <p>平民照片如下图所示。</p> <p></p> <img src='stimuli/faces/NFM3.jpg', style='max-width: 30%;'> </img> <p><strong>你是否选择发射武器？</strong></p>","0",""
"","","","","","html-keyboard-response","58","151236","0.0-4.0-0.27","30","1","2022-10-24 10:11:53","ebf9627b049f568eb4bf28942cb89901","115.27.200.219","Mozilla/5.0 (Macintosh; Intel Mac OS X 10_15_7) AppleWebKit/605.1.15 (KHTML, like Gecko) Version/14.1 Safari/605.1.15","Macintosh","Safari","14.1","OS X","10_15_7","null","<div style=""font-size:60px;"">+</div>","null",""
"","","","","","html-button-response","59","152443","0.0-4.0-1.27","30","1","2022-10-24 10:11:53","ebf9627b049f568eb4bf28942cb89901","115.27.200.219","Mozilla/5.0 (Macintosh; Intel Mac OS X 10_15_7) AppleWebKit/605.1.15 (KHTML, like Gecko) Version/14.1 Safari/605.1.15","Macintosh","Safari","14.1","OS X","10_15_7","1202","<p>作为军队的指挥官，你可以选择发射导弹杀死 <strong>3名</strong> 敌国士兵，但会炸毁附近的 <strong>1棵</strong> 敌国树木。</p> <p>树木的照片如下图所示。</p> <p></p> <img src='stimuli/trees/3.png', style='max-width: 30%;'> </img> <p><strong>你是否选择发射武器？</strong></p>","0",""
"","","","","","html-keyboard-response","60","153448","0.0-4.0-0.28","30","1","2022-10-24 10:11:53","ebf9627b049f568eb4bf28942cb89901","115.27.200.219","Mozilla/5.0 (Macintosh; Intel Mac OS X 10_15_7) AppleWebKit/605.1.15 (KHTML, like Gecko) Version/14.1 Safari/605.1.15","Macintosh","Safari","14.1","OS X","10_15_7","null","<div style=""font-size:60px;"">+</div>","null",""
"","","","","","html-button-response","61","154446","0.0-4.0-1.28","30","1","2022-10-24 10:11:53","ebf9627b049f568eb4bf28942cb89901","115.27.200.219","Mozilla/5.0 (Macintosh; Intel Mac OS X 10_15_7) AppleWebKit/605.1.15 (KHTML, like Gecko) Version/14.1 Safari/605.1.15","Macintosh","Safari","14.1","OS X","10_15_7","993","<p>作为军队的指挥官，你可以选择发射导弹杀死 <strong>1名</strong> 敌国士兵，但会炸毁附近的 <strong>1棵</strong> 敌国树木。</p> <p>树木的照片如下图所示。</p> <p></p> <img src='stimuli/trees/6.png', style='max-width: 30%;'> </img> <p><strong>你是否选择发射武器？</strong></p>","0",""
"","","","","","html-keyboard-response","62","155451","0.0-4.0-0.29","30","1","2022-10-24 10:11:53","ebf9627b049f568eb4bf28942cb89901","115.27.200.219","Mozilla/5.0 (Macintosh; Intel Mac OS X 10_15_7) AppleWebKit/605.1.15 (KHTML, like Gecko) Version/14.1 Safari/605.1.15","Macintosh","Safari","14.1","OS X","10_15_7","null","<div style=""font-size:60px;"">+</div>","null",""
"","","","","","html-button-response","63","156383","0.0-4.0-1.29","30","1","2022-10-24 10:11:53","ebf9627b049f568eb4bf28942cb89901","115.27.200.219","Mozilla/5.0 (Macintosh; Intel Mac OS X 10_15_7) AppleWebKit/605.1.15 (KHTML, like Gecko) Version/14.1 Safari/605.1.15","Macintosh","Safari","14.1","OS X","10_15_7","927","<p>作为军队的指挥官，你可以选择发射导弹杀死 <strong>9名</strong> 敌国士兵，但会炸毁附近的 <strong>1棵</strong> 敌国树木。</p> <p>树木的照片如下图所示。</p> <p></p> <img src='stimuli/trees/12.png', style='max-width: 30%;'> </img> <p><strong>你是否选择发射武器？</strong></p>","0",""
"","","","","","html-keyboard-response","64","157388","0.0-4.0-0.30","30","1","2022-10-24 10:11:53","ebf9627b049f568eb4bf28942cb89901","115.27.200.219","Mozilla/5.0 (Macintosh; Intel Mac OS X 10_15_7) AppleWebKit/605.1.15 (KHTML, like Gecko) Version/14.1 Safari/605.1.15","Macintosh","Safari","14.1","OS X","10_15_7","null","<div style=""font-size:60px;"">+</div>","null",""
"","","","","","html-button-response","65","159362","0.0-4.0-1.30","30","1","2022-10-24 10:11:53","ebf9627b049f568eb4bf28942cb89901","115.27.200.219","Mozilla/5.0 (Macintosh; Intel Mac OS X 10_15_7) AppleWebKit/605.1.15 (KHTML, like Gecko) Version/14.1 Safari/605.1.15","Macintosh","Safari","14.1","OS X","10_15_7","1968","<p>作为军队的指挥官，你可以选择发射导弹杀死 <strong>4名</strong> 敌国士兵，但会误杀附近的 <strong>1名</strong> 敌国平民。</p> <p>平民照片如下图所示。</p> <p></p> <img src='stimuli/faces/NFF5.jpg', style='max-width: 30%;'> </img> <p><strong>你是否选择发射武器？</strong></p>","0",""
"","","","","","html-keyboard-response","66","160366","0.0-4.0-0.31","30","1","2022-10-24 10:11:53","ebf9627b049f568eb4bf28942cb89901","115.27.200.219","Mozilla/5.0 (Macintosh; Intel Mac OS X 10_15_7) AppleWebKit/605.1.15 (KHTML, like Gecko) Version/14.1 Safari/605.1.15","Macintosh","Safari","14.1","OS X","10_15_7","null","<div style=""font-size:60px;"">+</div>","null",""
"","","","","","html-button-response","67","162477","0.0-4.0-1.31","30","1","2022-10-24 10:11:53","ebf9627b049f568eb4bf28942cb89901","115.27.200.219","Mozilla/5.0 (Macintosh; Intel Mac OS X 10_15_7) AppleWebKit/605.1.15 (KHTML, like Gecko) Version/14.1 Safari/605.1.15","Macintosh","Safari","14.1","OS X","10_15_7","2104","<p>作为军队的指挥官，你可以选择发射导弹杀死 <strong>10名</strong> 敌国士兵，但会炸毁附近的 <strong>1棵</strong> 敌国树木。</p> <p>树木的照片如下图所示。</p> <p></p> <img src='stimuli/trees/11.png', style='max-width: 30%;'> </img> <p><strong>你是否选择发射武器？</strong></p>","0",""
"","","","","","html-keyboard-response","68","163482","0.0-4.0-0.32","30","1","2022-10-24 10:11:53","ebf9627b049f568eb4bf28942cb89901","115.27.200.219","Mozilla/5.0 (Macintosh; Intel Mac OS X 10_15_7) AppleWebKit/605.1.15 (KHTML, like Gecko) Version/14.1 Safari/605.1.15","Macintosh","Safari","14.1","OS X","10_15_7","null","<div style=""font-size:60px;"">+</div>","null",""
"","","","","","html-button-response","69","166965","0.0-4.0-1.32","30","1","2022-10-24 10:11:53","ebf9627b049f568eb4bf28942cb89901","115.27.200.219","Mozilla/5.0 (Macintosh; Intel Mac OS X 10_15_7) AppleWebKit/605.1.15 (KHTML, like Gecko) Version/14.1 Safari/605.1.15","Macintosh","Safari","14.1","OS X","10_15_7","3478","<p>作为军队的指挥官，你可以选择发射导弹杀死 <strong>7名</strong> 敌国士兵，但会误杀附近的 <strong>1名</strong> 敌国平民。</p> <p>平民照片如下图所示。</p> <p></p> <img src='stimuli/faces/NFF4.jpg', style='max-width: 30%;'> </img> <p><strong>你是否选择发射武器？</strong></p>","0",""
"","","","","","html-keyboard-response","70","167970","0.0-4.0-0.33","30","1","2022-10-24 10:11:53","ebf9627b049f568eb4bf28942cb89901","115.27.200.219","Mozilla/5.0 (Macintosh; Intel Mac OS X 10_15_7) AppleWebKit/605.1.15 (KHTML, like Gecko) Version/14.1 Safari/605.1.15","Macintosh","Safari","14.1","OS X","10_15_7","null","<div style=""font-size:60px;"">+</div>","null",""
"","","","","","html-button-response","71","170533","0.0-4.0-1.33","30","1","2022-10-24 10:11:53","ebf9627b049f568eb4bf28942cb89901","115.27.200.219","Mozilla/5.0 (Macintosh; Intel Mac OS X 10_15_7) AppleWebKit/605.1.15 (KHTML, like Gecko) Version/14.1 Safari/605.1.15","Macintosh","Safari","14.1","OS X","10_15_7","2557","<p>作为军队的指挥官，你可以选择发射导弹杀死 <strong>5名</strong> 敌国士兵，但会误杀附近的 <strong>1名</strong> 敌国平民。</p> <p>平民照片如下图所示。</p> <p></p> <img src='stimuli/faces/NFF2.jpg', style='max-width: 30%;'> </img> <p><strong>你是否选择发射武器？</strong></p>","1",""
"","","","","","html-keyboard-response","72","171538","0.0-4.0-0.34","30","1","2022-10-24 10:11:53","ebf9627b049f568eb4bf28942cb89901","115.27.200.219","Mozilla/5.0 (Macintosh; Intel Mac OS X 10_15_7) AppleWebKit/605.1.15 (KHTML, like Gecko) Version/14.1 Safari/605.1.15","Macintosh","Safari","14.1","OS X","10_15_7","null","<div style=""font-size:60px;"">+</div>","null",""
"","","","","","html-button-response","73","173938","0.0-4.0-1.34","30","1","2022-10-24 10:11:53","ebf9627b049f568eb4bf28942cb89901","115.27.200.219","Mozilla/5.0 (Macintosh; Intel Mac OS X 10_15_7) AppleWebKit/605.1.15 (KHTML, like Gecko) Version/14.1 Safari/605.1.15","Macintosh","Safari","14.1","OS X","10_15_7","2395","<p>作为军队的指挥官，你可以选择发射导弹杀死 <strong>2名</strong> 敌国士兵，但会炸毁附近的 <strong>1棵</strong> 敌国树木。</p> <p>树木的照片如下图所示。</p> <p></p> <img src='stimuli/trees/2.png', style='max-width: 30%;'> </img> <p><strong>你是否选择发射武器？</strong></p>","1",""
"","","","","","html-keyboard-response","74","174943","0.0-4.0-0.35","30","1","2022-10-24 10:11:53","ebf9627b049f568eb4bf28942cb89901","115.27.200.219","Mozilla/5.0 (Macintosh; Intel Mac OS X 10_15_7) AppleWebKit/605.1.15 (KHTML, like Gecko) Version/14.1 Safari/605.1.15","Macintosh","Safari","14.1","OS X","10_15_7","null","<div style=""font-size:60px;"">+</div>","null",""
"","","","","","html-button-response","75","177533","0.0-4.0-1.35","30","1","2022-10-24 10:11:53","ebf9627b049f568eb4bf28942cb89901","115.27.200.219","Mozilla/5.0 (Macintosh; Intel Mac OS X 10_15_7) AppleWebKit/605.1.15 (KHTML, like Gecko) Version/14.1 Safari/605.1.15","Macintosh","Safari","14.1","OS X","10_15_7","2584","<p>作为军队的指挥官，你可以选择发射导弹杀死 <strong>8名</strong> 敌国士兵，但会炸毁附近的 <strong>1棵</strong> 敌国树木。</p> <p>树木的照片如下图所示。</p> <p></p> <img src='stimuli/trees/1.png', style='max-width: 30%;'> </img> <p><strong>你是否选择发射武器？</strong></p>","0",""
"","","","","","html-keyboard-response","76","178537","0.0-4.0-0.36","30","1","2022-10-24 10:11:53","ebf9627b049f568eb4bf28942cb89901","115.27.200.219","Mozilla/5.0 (Macintosh; Intel Mac OS X 10_15_7) AppleWebKit/605.1.15 (KHTML, like Gecko) Version/14.1 Safari/605.1.15","Macintosh","Safari","14.1","OS X","10_15_7","null","<div style=""font-size:60px;"">+</div>","null",""
"","","","","","html-button-response","77","180372","0.0-4.0-1.36","30","1","2022-10-24 10:11:53","ebf9627b049f568eb4bf28942cb89901","115.27.200.219","Mozilla/5.0 (Macintosh; Intel Mac OS X 10_15_7) AppleWebKit/605.1.15 (KHTML, like Gecko) Version/14.1 Safari/605.1.15","Macintosh","Safari","14.1","OS X","10_15_7","1830","<p>作为军队的指挥官，你可以选择发射导弹杀死 <strong>8名</strong> 敌国士兵，但会炸毁附近的 <strong>1棵</strong> 敌国树木。</p> <p>树木的照片如下图所示。</p> <p></p> <img src='stimuli/trees/6.png', style='max-width: 30%;'> </img> <p><strong>你是否选择发射武器？</strong></p>","0",""
"","","","","","html-keyboard-response","78","181377","0.0-4.0-0.37","30","1","2022-10-24 10:11:53","ebf9627b049f568eb4bf28942cb89901","115.27.200.219","Mozilla/5.0 (Macintosh; Intel Mac OS X 10_15_7) AppleWebKit/605.1.15 (KHTML, like Gecko) Version/14.1 Safari/605.1.15","Macintosh","Safari","14.1","OS X","10_15_7","null","<div style=""font-size:60px;"">+</div>","null",""
"","","","","","html-button-response","79","183537","0.0-4.0-1.37","30","1","2022-10-24 10:11:53","ebf9627b049f568eb4bf28942cb89901","115.27.200.219","Mozilla/5.0 (Macintosh; Intel Mac OS X 10_15_7) AppleWebKit/605.1.15 (KHTML, like Gecko) Version/14.1 Safari/605.1.15","Macintosh","Safari","14.1","OS X","10_15_7","2154","<p>作为军队的指挥官，你可以选择发射导弹杀死 <strong>8名</strong> 敌国士兵，但会炸毁附近的 <strong>1棵</strong> 敌国树木。</p> <p>树木的照片如下图所示。</p> <p></p> <img src='stimuli/trees/9.png', style='max-width: 30%;'> </img> <p><strong>你是否选择发射武器？</strong></p>","0",""
"","","","","","html-keyboard-response","80","184542","0.0-4.0-0.38","30","1","2022-10-24 10:11:53","ebf9627b049f568eb4bf28942cb89901","115.27.200.219","Mozilla/5.0 (Macintosh; Intel Mac OS X 10_15_7) AppleWebKit/605.1.15 (KHTML, like Gecko) Version/14.1 Safari/605.1.15","Macintosh","Safari","14.1","OS X","10_15_7","null","<div style=""font-size:60px;"">+</div>","null",""
"","","","","","html-button-response","81","186694","0.0-4.0-1.38","30","1","2022-10-24 10:11:53","ebf9627b049f568eb4bf28942cb89901","115.27.200.219","Mozilla/5.0 (Macintosh; Intel Mac OS X 10_15_7) AppleWebKit/605.1.15 (KHTML, like Gecko) Version/14.1 Safari/605.1.15","Macintosh","Safari","14.1","OS X","10_15_7","2146","<p>作为军队的指挥官，你可以选择发射导弹杀死 <strong>1名</strong> 敌国士兵，但会误杀附近的 <strong>1名</strong> 敌国平民。</p> <p>平民照片如下图所示。</p> <p></p> <img src='stimuli/faces/NFM2.jpg', style='max-width: 30%;'> </img> <p><strong>你是否选择发射武器？</strong></p>","1",""
"","","","","","html-keyboard-response","82","187698","0.0-4.0-0.39","30","1","2022-10-24 10:11:53","ebf9627b049f568eb4bf28942cb89901","115.27.200.219","Mozilla/5.0 (Macintosh; Intel Mac OS X 10_15_7) AppleWebKit/605.1.15 (KHTML, like Gecko) Version/14.1 Safari/605.1.15","Macintosh","Safari","14.1","OS X","10_15_7","null","<div style=""font-size:60px;"">+</div>","null",""
"","","","","","html-button-response","83","189987","0.0-4.0-1.39","30","1","2022-10-24 10:11:53","ebf9627b049f568eb4bf28942cb89901","115.27.200.219","Mozilla/5.0 (Macintosh; Intel Mac OS X 10_15_7) AppleWebKit/605.1.15 (KHTML, like Gecko) Version/14.1 Safari/605.1.15","Macintosh","Safari","14.1","OS X","10_15_7","2285","<p>作为军队的指挥官，你可以选择发射导弹杀死 <strong>3名</strong> 敌国士兵，但会炸毁附近的 <strong>1棵</strong> 敌国树木。</p> <p>树木的照片如下图所示。</p> <p></p> <img src='stimuli/trees/9.png', style='max-width: 30%;'> </img> <p><strong>你是否选择发射武器？</strong></p>","0",""
"","","","","","html-keyboard-response","84","190992","0.0-4.0-0.40","30","1","2022-10-24 10:11:53","ebf9627b049f568eb4bf28942cb89901","115.27.200.219","Mozilla/5.0 (Macintosh; Intel Mac OS X 10_15_7) AppleWebKit/605.1.15 (KHTML, like Gecko) Version/14.1 Safari/605.1.15","Macintosh","Safari","14.1","OS X","10_15_7","null","<div style=""font-size:60px;"">+</div>","null",""
"","","","","","html-button-response","85","193030","0.0-4.0-1.40","30","1","2022-10-24 10:11:53","ebf9627b049f568eb4bf28942cb89901","115.27.200.219","Mozilla/5.0 (Macintosh; Intel Mac OS X 10_15_7) AppleWebKit/605.1.15 (KHTML, like Gecko) Version/14.1 Safari/605.1.15","Macintosh","Safari","14.1","OS X","10_15_7","2030","<p>作为军队的指挥官，你可以选择发射导弹杀死 <strong>9名</strong> 敌国士兵，但会误杀附近的 <strong>1名</strong> 敌国平民。</p> <p>平民照片如下图所示。</p> <p></p> <img src='stimuli/faces/NFF5.jpg', style='max-width: 30%;'> </img> <p><strong>你是否选择发射武器？</strong></p>","0",""
"","","","","","html-keyboard-response","86","194036","0.0-4.0-0.41","30","1","2022-10-24 10:11:53","ebf9627b049f568eb4bf28942cb89901","115.27.200.219","Mozilla/5.0 (Macintosh; Intel Mac OS X 10_15_7) AppleWebKit/605.1.15 (KHTML, like Gecko) Version/14.1 Safari/605.1.15","Macintosh","Safari","14.1","OS X","10_15_7","null","<div style=""font-size:60px;"">+</div>","null",""
"","","","","","html-button-response","87","195777","0.0-4.0-1.41","30","1","2022-10-24 10:11:53","ebf9627b049f568eb4bf28942cb89901","115.27.200.219","Mozilla/5.0 (Macintosh; Intel Mac OS X 10_15_7) AppleWebKit/605.1.15 (KHTML, like Gecko) Version/14.1 Safari/605.1.15","Macintosh","Safari","14.1","OS X","10_15_7","1737","<p>作为军队的指挥官，你可以选择发射导弹杀死 <strong>10名</strong> 敌国士兵，但会误杀附近的 <strong>1名</strong> 敌国平民。</p> <p>平民照片如下图所示。</p> <p></p> <img src='stimuli/faces/NFF1.jpg', style='max-width: 30%;'> </img> <p><strong>你是否选择发射武器？</strong></p>","0",""
"","","","","","html-keyboard-response","88","196780","0.0-4.0-0.42","30","1","2022-10-24 10:11:53","ebf9627b049f568eb4bf28942cb89901","115.27.200.219","Mozilla/5.0 (Macintosh; Intel Mac OS X 10_15_7) AppleWebKit/605.1.15 (KHTML, like Gecko) Version/14.1 Safari/605.1.15","Macintosh","Safari","14.1","OS X","10_15_7","null","<div style=""font-size:60px;"">+</div>","null",""
"","","","","","html-button-response","89","198707","0.0-4.0-1.42","30","1","2022-10-24 10:11:53","ebf9627b049f568eb4bf28942cb89901","115.27.200.219","Mozilla/5.0 (Macintosh; Intel Mac OS X 10_15_7) AppleWebKit/605.1.15 (KHTML, like Gecko) Version/14.1 Safari/605.1.15","Macintosh","Safari","14.1","OS X","10_15_7","1917","<p>作为军队的指挥官，你可以选择发射导弹杀死 <strong>7名</strong> 敌国士兵，但会炸毁附近的 <strong>1棵</strong> 敌国树木。</p> <p>树木的照片如下图所示。</p> <p></p> <img src='stimuli/trees/7.png', style='max-width: 30%;'> </img> <p><strong>你是否选择发射武器？</strong></p>","0",""
"","","","","","html-keyboard-response","90","199711","0.0-4.0-0.43","30","1","2022-10-24 10:11:53","ebf9627b049f568eb4bf28942cb89901","115.27.200.219","Mozilla/5.0 (Macintosh; Intel Mac OS X 10_15_7) AppleWebKit/605.1.15 (KHTML, like Gecko) Version/14.1 Safari/605.1.15","Macintosh","Safari","14.1","OS X","10_15_7","null","<div style=""font-size:60px;"">+</div>","null",""
"","","","","","html-button-response","91","202080","0.0-4.0-1.43","30","1","2022-10-24 10:11:53","ebf9627b049f568eb4bf28942cb89901","115.27.200.219","Mozilla/5.0 (Macintosh; Intel Mac OS X 10_15_7) AppleWebKit/605.1.15 (KHTML, like Gecko) Version/14.1 Safari/605.1.15","Macintosh","Safari","14.1","OS X","10_15_7","2364","<p>作为军队的指挥官，你可以选择发射导弹杀死 <strong>10名</strong> 敌国士兵，但会炸毁附近的 <strong>1棵</strong> 敌国树木。</p> <p>树木的照片如下图所示。</p> <p></p> <img src='stimuli/trees/14.png', style='max-width: 30%;'> </img> <p><strong>你是否选择发射武器？</strong></p>","0",""
"","","","","","html-keyboard-response","92","203085","0.0-4.0-0.44","30","1","2022-10-24 10:11:53","ebf9627b049f568eb4bf28942cb89901","115.27.200.219","Mozilla/5.0 (Macintosh; Intel Mac OS X 10_15_7) AppleWebKit/605.1.15 (KHTML, like Gecko) Version/14.1 Safari/605.1.15","Macintosh","Safari","14.1","OS X","10_15_7","null","<div style=""font-size:60px;"">+</div>","null",""
"","","","","","html-button-response","93","206301","0.0-4.0-1.44","30","1","2022-10-24 10:11:53","ebf9627b049f568eb4bf28942cb89901","115.27.200.219","Mozilla/5.0 (Macintosh; Intel Mac OS X 10_15_7) AppleWebKit/605.1.15 (KHTML, like Gecko) Version/14.1 Safari/605.1.15","Macintosh","Safari","14.1","OS X","10_15_7","3210","<p>作为军队的指挥官，你可以选择发射导弹杀死 <strong>1名</strong> 敌国士兵，但会炸毁附近的 <strong>1棵</strong> 敌国树木。</p> <p>树木的照片如下图所示。</p> <p></p> <img src='stimuli/trees/10.png', style='max-width: 30%;'> </img> <p><strong>你是否选择发射武器？</strong></p>","1",""
"","","","","","html-keyboard-response","94","207304","0.0-4.0-0.45","30","1","2022-10-24 10:11:53","ebf9627b049f568eb4bf28942cb89901","115.27.200.219","Mozilla/5.0 (Macintosh; Intel Mac OS X 10_15_7) AppleWebKit/605.1.15 (KHTML, like Gecko) Version/14.1 Safari/605.1.15","Macintosh","Safari","14.1","OS X","10_15_7","null","<div style=""font-size:60px;"">+</div>","null",""
"","","","","","html-button-response","95","209601","0.0-4.0-1.45","30","1","2022-10-24 10:11:53","ebf9627b049f568eb4bf28942cb89901","115.27.200.219","Mozilla/5.0 (Macintosh; Intel Mac OS X 10_15_7) AppleWebKit/605.1.15 (KHTML, like Gecko) Version/14.1 Safari/605.1.15","Macintosh","Safari","14.1","OS X","10_15_7","2291","<p>作为军队的指挥官，你可以选择发射导弹杀死 <strong>8名</strong> 敌国士兵，但会误杀附近的 <strong>1名</strong> 敌国平民。</p> <p>平民照片如下图所示。</p> <p></p> <img src='stimuli/faces/NFF8.jpg', style='max-width: 30%;'> </img> <p><strong>你是否选择发射武器？</strong></p>","1",""
"","","","","","html-keyboard-response","96","210607","0.0-4.0-0.46","30","1","2022-10-24 10:11:53","ebf9627b049f568eb4bf28942cb89901","115.27.200.219","Mozilla/5.0 (Macintosh; Intel Mac OS X 10_15_7) AppleWebKit/605.1.15 (KHTML, like Gecko) Version/14.1 Safari/605.1.15","Macintosh","Safari","14.1","OS X","10_15_7","null","<div style=""font-size:60px;"">+</div>","null",""
"","","","","","html-button-response","97","212919","0.0-4.0-1.46","30","1","2022-10-24 10:11:53","ebf9627b049f568eb4bf28942cb89901","115.27.200.219","Mozilla/5.0 (Macintosh; Intel Mac OS X 10_15_7) AppleWebKit/605.1.15 (KHTML, like Gecko) Version/14.1 Safari/605.1.15","Macintosh","Safari","14.1","OS X","10_15_7","2306","<p>作为军队的指挥官，你可以选择发射导弹杀死 <strong>10名</strong> 敌国士兵，但会误杀附近的 <strong>1名</strong> 敌国平民。</p> <p>平民照片如下图所示。</p> <p></p> <img src='stimuli/faces/NFM6.jpg', style='max-width: 30%;'> </img> <p><strong>你是否选择发射武器？</strong></p>","0",""
"","","","","","html-keyboard-response","98","213925","0.0-4.0-0.47","30","1","2022-10-24 10:11:53","ebf9627b049f568eb4bf28942cb89901","115.27.200.219","Mozilla/5.0 (Macintosh; Intel Mac OS X 10_15_7) AppleWebKit/605.1.15 (KHTML, like Gecko) Version/14.1 Safari/605.1.15","Macintosh","Safari","14.1","OS X","10_15_7","null","<div style=""font-size:60px;"">+</div>","null",""
"","","","","","html-button-response","99","215357","0.0-4.0-1.47","30","1","2022-10-24 10:11:53","ebf9627b049f568eb4bf28942cb89901","115.27.200.219","Mozilla/5.0 (Macintosh; Intel Mac OS X 10_15_7) AppleWebKit/605.1.15 (KHTML, like Gecko) Version/14.1 Safari/605.1.15","Macintosh","Safari","14.1","OS X","10_15_7","1426","<p>作为军队的指挥官，你可以选择发射导弹杀死 <strong>3名</strong> 敌国士兵，但会误杀附近的 <strong>1名</strong> 敌国平民。</p> <p>平民照片如下图所示。</p> <p></p> <img src='stimuli/faces/NFM7.jpg', style='max-width: 30%;'> </img> <p><strong>你是否选择发射武器？</strong></p>","1",""
"","","","","","html-keyboard-response","100","216362","0.0-4.0-0.48","30","1","2022-10-24 10:11:53","ebf9627b049f568eb4bf28942cb89901","115.27.200.219","Mozilla/5.0 (Macintosh; Intel Mac OS X 10_15_7) AppleWebKit/605.1.15 (KHTML, like Gecko) Version/14.1 Safari/605.1.15","Macintosh","Safari","14.1","OS X","10_15_7","null","<div style=""font-size:60px;"">+</div>","null",""
"","","","","","html-button-response","101","218925","0.0-4.0-1.48","30","1","2022-10-24 10:11:53","ebf9627b049f568eb4bf28942cb89901","115.27.200.219","Mozilla/5.0 (Macintosh; Intel Mac OS X 10_15_7) AppleWebKit/605.1.15 (KHTML, like Gecko) Version/14.1 Safari/605.1.15","Macintosh","Safari","14.1","OS X","10_15_7","2557","<p>作为军队的指挥官，你可以选择发射导弹杀死 <strong>7名</strong> 敌国士兵，但会误杀附近的 <strong>1名</strong> 敌国平民。</p> <p>平民照片如下图所示。</p> <p></p> <img src='stimuli/faces/NFF3.jpg', style='max-width: 30%;'> </img> <p><strong>你是否选择发射武器？</strong></p>","1",""
"","","","","","html-keyboard-response","102","219932","0.0-4.0-0.49","30","1","2022-10-24 10:11:53","ebf9627b049f568eb4bf28942cb89901","115.27.200.219","Mozilla/5.0 (Macintosh; Intel Mac OS X 10_15_7) AppleWebKit/605.1.15 (KHTML, like Gecko) Version/14.1 Safari/605.1.15","Macintosh","Safari","14.1","OS X","10_15_7","null","<div style=""font-size:60px;"">+</div>","null",""
"","","","","","html-button-response","103","221338","0.0-4.0-1.49","30","1","2022-10-24 10:11:53","ebf9627b049f568eb4bf28942cb89901","115.27.200.219","Mozilla/5.0 (Macintosh; Intel Mac OS X 10_15_7) AppleWebKit/605.1.15 (KHTML, like Gecko) Version/14.1 Safari/605.1.15","Macintosh","Safari","14.1","OS X","10_15_7","1399","<p>作为军队的指挥官，你可以选择发射导弹杀死 <strong>5名</strong> 敌国士兵，但会炸毁附近的 <strong>1棵</strong> 敌国树木。</p> <p>树木的照片如下图所示。</p> <p></p> <img src='stimuli/trees/11.png', style='max-width: 30%;'> </img> <p><strong>你是否选择发射武器？</strong></p>","1",""
"","","","","","html-keyboard-response","104","222344","0.0-4.0-0.50","30","1","2022-10-24 10:11:53","ebf9627b049f568eb4bf28942cb89901","115.27.200.219","Mozilla/5.0 (Macintosh; Intel Mac OS X 10_15_7) AppleWebKit/605.1.15 (KHTML, like Gecko) Version/14.1 Safari/605.1.15","Macintosh","Safari","14.1","OS X","10_15_7","null","<div style=""font-size:60px;"">+</div>","null",""
"","","","","","html-button-response","105","224656","0.0-4.0-1.50","30","1","2022-10-24 10:11:53","ebf9627b049f568eb4bf28942cb89901","115.27.200.219","Mozilla/5.0 (Macintosh; Intel Mac OS X 10_15_7) AppleWebKit/605.1.15 (KHTML, like Gecko) Version/14.1 Safari/605.1.15","Macintosh","Safari","14.1","OS X","10_15_7","2305","<p>作为军队的指挥官，你可以选择发射导弹杀死 <strong>4名</strong> 敌国士兵，但会误杀附近的 <strong>1名</strong> 敌国平民。</p> <p>平民照片如下图所示。</p> <p></p> <img src='stimuli/faces/NFF4.jpg', style='max-width: 30%;'> </img> <p><strong>你是否选择发射武器？</strong></p>","1",""
"","","","","","html-keyboard-response","106","225661","0.0-4.0-0.51","30","1","2022-10-24 10:11:53","ebf9627b049f568eb4bf28942cb89901","115.27.200.219","Mozilla/5.0 (Macintosh; Intel Mac OS X 10_15_7) AppleWebKit/605.1.15 (KHTML, like Gecko) Version/14.1 Safari/605.1.15","Macintosh","Safari","14.1","OS X","10_15_7","null","<div style=""font-size:60px;"">+</div>","null",""
"","","","","","html-button-response","107","227013","0.0-4.0-1.51","30","1","2022-10-24 10:11:53","ebf9627b049f568eb4bf28942cb89901","115.27.200.219","Mozilla/5.0 (Macintosh; Intel Mac OS X 10_15_7) AppleWebKit/605.1.15 (KHTML, like Gecko) Version/14.1 Safari/605.1.15","Macintosh","Safari","14.1","OS X","10_15_7","1343","<p>作为军队的指挥官，你可以选择发射导弹杀死 <strong>6名</strong> 敌国士兵，但会炸毁附近的 <strong>1棵</strong> 敌国树木。</p> <p>树木的照片如下图所示。</p> <p></p> <img src='stimuli/trees/10.png', style='max-width: 30%;'> </img> <p><strong>你是否选择发射武器？</strong></p>","1",""
"","","","","","html-keyboard-response","108","228018","0.0-4.0-0.52","30","1","2022-10-24 10:11:53","ebf9627b049f568eb4bf28942cb89901","115.27.200.219","Mozilla/5.0 (Macintosh; Intel Mac OS X 10_15_7) AppleWebKit/605.1.15 (KHTML, like Gecko) Version/14.1 Safari/605.1.15","Macintosh","Safari","14.1","OS X","10_15_7","null","<div style=""font-size:60px;"">+</div>","null",""
"","","","","","html-button-response","109","232171","0.0-4.0-1.52","30","1","2022-10-24 10:11:53","ebf9627b049f568eb4bf28942cb89901","115.27.200.219","Mozilla/5.0 (Macintosh; Intel Mac OS X 10_15_7) AppleWebKit/605.1.15 (KHTML, like Gecko) Version/14.1 Safari/605.1.15","Macintosh","Safari","14.1","OS X","10_15_7","4147","<p>作为军队的指挥官，你可以选择发射导弹杀死 <strong>7名</strong> 敌国士兵，但会误杀附近的 <strong>1名</strong> 敌国平民。</p> <p>平民照片如下图所示。</p> <p></p> <img src='stimuli/faces/NFM5.jpg', style='max-width: 30%;'> </img> <p><strong>你是否选择发射武器？</strong></p>","0",""
"","","","","","html-keyboard-response","110","233176","0.0-4.0-0.53","30","1","2022-10-24 10:11:53","ebf9627b049f568eb4bf28942cb89901","115.27.200.219","Mozilla/5.0 (Macintosh; Intel Mac OS X 10_15_7) AppleWebKit/605.1.15 (KHTML, like Gecko) Version/14.1 Safari/605.1.15","Macintosh","Safari","14.1","OS X","10_15_7","null","<div style=""font-size:60px;"">+</div>","null",""
"","","","","","html-button-response","111","234891","0.0-4.0-1.53","30","1","2022-10-24 10:11:53","ebf9627b049f568eb4bf28942cb89901","115.27.200.219","Mozilla/5.0 (Macintosh; Intel Mac OS X 10_15_7) AppleWebKit/605.1.15 (KHTML, like Gecko) Version/14.1 Safari/605.1.15","Macintosh","Safari","14.1","OS X","10_15_7","1707","<p>作为军队的指挥官，你可以选择发射导弹杀死 <strong>8名</strong> 敌国士兵，但会炸毁附近的 <strong>1棵</strong> 敌国树木。</p> <p>树木的照片如下图所示。</p> <p></p> <img src='stimuli/trees/2.png', style='max-width: 30%;'> </img> <p><strong>你是否选择发射武器？</strong></p>","1",""
"","","","","","html-keyboard-response","112","235899","0.0-4.0-0.54","30","1","2022-10-24 10:11:53","ebf9627b049f568eb4bf28942cb89901","115.27.200.219","Mozilla/5.0 (Macintosh; Intel Mac OS X 10_15_7) AppleWebKit/605.1.15 (KHTML, like Gecko) Version/14.1 Safari/605.1.15","Macintosh","Safari","14.1","OS X","10_15_7","null","<div style=""font-size:60px;"">+</div>","null",""
"","","","","","html-button-response","113","237635","0.0-4.0-1.54","30","1","2022-10-24 10:11:53","ebf9627b049f568eb4bf28942cb89901","115.27.200.219","Mozilla/5.0 (Macintosh; Intel Mac OS X 10_15_7) AppleWebKit/605.1.15 (KHTML, like Gecko) Version/14.1 Safari/605.1.15","Macintosh","Safari","14.1","OS X","10_15_7","1732","<p>作为军队的指挥官，你可以选择发射导弹杀死 <strong>2名</strong> 敌国士兵，但会炸毁附近的 <strong>1棵</strong> 敌国树木。</p> <p>树木的照片如下图所示。</p> <p></p> <img src='stimuli/trees/14.png', style='max-width: 30%;'> </img> <p><strong>你是否选择发射武器？</strong></p>","0",""
"","","","","","html-keyboard-response","114","238642","0.0-4.0-0.55","30","1","2022-10-24 10:11:53","ebf9627b049f568eb4bf28942cb89901","115.27.200.219","Mozilla/5.0 (Macintosh; Intel Mac OS X 10_15_7) AppleWebKit/605.1.15 (KHTML, like Gecko) Version/14.1 Safari/605.1.15","Macintosh","Safari","14.1","OS X","10_15_7","null","<div style=""font-size:60px;"">+</div>","null",""
"","","","","","html-button-response","115","240251","0.0-4.0-1.55","30","1","2022-10-24 10:11:53","ebf9627b049f568eb4bf28942cb89901","115.27.200.219","Mozilla/5.0 (Macintosh; Intel Mac OS X 10_15_7) AppleWebKit/605.1.15 (KHTML, like Gecko) Version/14.1 Safari/605.1.15","Macintosh","Safari","14.1","OS X","10_15_7","1604","<p>作为军队的指挥官，你可以选择发射导弹杀死 <strong>5名</strong> 敌国士兵，但会误杀附近的 <strong>1名</strong> 敌国平民。</p> <p>平民照片如下图所示。</p> <p></p> <img src='stimuli/faces/NFF8.jpg', style='max-width: 30%;'> </img> <p><strong>你是否选择发射武器？</strong></p>","1",""
"","","","","","html-keyboard-response","116","241255","0.0-4.0-0.56","30","1","2022-10-24 10:11:53","ebf9627b049f568eb4bf28942cb89901","115.27.200.219","Mozilla/5.0 (Macintosh; Intel Mac OS X 10_15_7) AppleWebKit/605.1.15 (KHTML, like Gecko) Version/14.1 Safari/605.1.15","Macintosh","Safari","14.1","OS X","10_15_7","null","<div style=""font-size:60px;"">+</div>","null",""
"","","","","","html-button-response","117","242671","0.0-4.0-1.56","30","1","2022-10-24 10:11:53","ebf9627b049f568eb4bf28942cb89901","115.27.200.219","Mozilla/5.0 (Macintosh; Intel Mac OS X 10_15_7) AppleWebKit/605.1.15 (KHTML, like Gecko) Version/14.1 Safari/605.1.15","Macintosh","Safari","14.1","OS X","10_15_7","1407","<p>作为军队的指挥官，你可以选择发射导弹杀死 <strong>7名</strong> 敌国士兵，但会炸毁附近的 <strong>1棵</strong> 敌国树木。</p> <p>树木的照片如下图所示。</p> <p></p> <img src='stimuli/trees/8.png', style='max-width: 30%;'> </img> <p><strong>你是否选择发射武器？</strong></p>","1",""
"","","","","","html-keyboard-response","118","243678","0.0-4.0-0.57","30","1","2022-10-24 10:11:53","ebf9627b049f568eb4bf28942cb89901","115.27.200.219","Mozilla/5.0 (Macintosh; Intel Mac OS X 10_15_7) AppleWebKit/605.1.15 (KHTML, like Gecko) Version/14.1 Safari/605.1.15","Macintosh","Safari","14.1","OS X","10_15_7","null","<div style=""font-size:60px;"">+</div>","null",""
"","","","","","html-button-response","119","247983","0.0-4.0-1.57","30","1","2022-10-24 10:11:53","ebf9627b049f568eb4bf28942cb89901","115.27.200.219","Mozilla/5.0 (Macintosh; Intel Mac OS X 10_15_7) AppleWebKit/605.1.15 (KHTML, like Gecko) Version/14.1 Safari/605.1.15","Macintosh","Safari","14.1","OS X","10_15_7","4300","<p>作为军队的指挥官，你可以选择发射导弹杀死 <strong>10名</strong> 敌国士兵，但会炸毁附近的 <strong>1棵</strong> 敌国树木。</p> <p>树木的照片如下图所示。</p> <p></p> <img src='stimuli/trees/15.png', style='max-width: 30%;'> </img> <p><strong>你是否选择发射武器？</strong></p>","1",""
"","","","","","html-keyboard-response","120","248989","0.0-4.0-0.58","30","1","2022-10-24 10:11:53","ebf9627b049f568eb4bf28942cb89901","115.27.200.219","Mozilla/5.0 (Macintosh; Intel Mac OS X 10_15_7) AppleWebKit/605.1.15 (KHTML, like Gecko) Version/14.1 Safari/605.1.15","Macintosh","Safari","14.1","OS X","10_15_7","null","<div style=""font-size:60px;"">+</div>","null",""
"","","","","","html-button-response","121","250568","0.0-4.0-1.58","30","1","2022-10-24 10:11:53","ebf9627b049f568eb4bf28942cb89901","115.27.200.219","Mozilla/5.0 (Macintosh; Intel Mac OS X 10_15_7) AppleWebKit/605.1.15 (KHTML, like Gecko) Version/14.1 Safari/605.1.15","Macintosh","Safari","14.1","OS X","10_15_7","1574","<p>作为军队的指挥官，你可以选择发射导弹杀死 <strong>9名</strong> 敌国士兵，但会炸毁附近的 <strong>1棵</strong> 敌国树木。</p> <p>树木的照片如下图所示。</p> <p></p> <img src='stimuli/trees/5.png', style='max-width: 30%;'> </img> <p><strong>你是否选择发射武器？</strong></p>","0",""
"","","","","","html-keyboard-response","122","251574","0.0-4.0-0.59","30","1","2022-10-24 10:11:53","ebf9627b049f568eb4bf28942cb89901","115.27.200.219","Mozilla/5.0 (Macintosh; Intel Mac OS X 10_15_7) AppleWebKit/605.1.15 (KHTML, like Gecko) Version/14.1 Safari/605.1.15","Macintosh","Safari","14.1","OS X","10_15_7","null","<div style=""font-size:60px;"">+</div>","null",""
"","","","","","html-button-response","123","252875","0.0-4.0-1.59","30","1","2022-10-24 10:11:53","ebf9627b049f568eb4bf28942cb89901","115.27.200.219","Mozilla/5.0 (Macintosh; Intel Mac OS X 10_15_7) AppleWebKit/605.1.15 (KHTML, like Gecko) Version/14.1 Safari/605.1.15","Macintosh","Safari","14.1","OS X","10_15_7","1295","<p>作为军队的指挥官，你可以选择发射导弹杀死 <strong>3名</strong> 敌国士兵，但会炸毁附近的 <strong>1棵</strong> 敌国树木。</p> <p>树木的照片如下图所示。</p> <p></p> <img src='stimuli/trees/4.png', style='max-width: 30%;'> </img> <p><strong>你是否选择发射武器？</strong></p>","1",""
"","","","","","html-keyboard-response","124","253881","0.0-4.0-0.60","30","1","2022-10-24 10:11:53","ebf9627b049f568eb4bf28942cb89901","115.27.200.219","Mozilla/5.0 (Macintosh; Intel Mac OS X 10_15_7) AppleWebKit/605.1.15 (KHTML, like Gecko) Version/14.1 Safari/605.1.15","Macintosh","Safari","14.1","OS X","10_15_7","null","<div style=""font-size:60px;"">+</div>","null",""
"","","","","","html-button-response","125","255128","0.0-4.0-1.60","30","1","2022-10-24 10:11:53","ebf9627b049f568eb4bf28942cb89901","115.27.200.219","Mozilla/5.0 (Macintosh; Intel Mac OS X 10_15_7) AppleWebKit/605.1.15 (KHTML, like Gecko) Version/14.1 Safari/605.1.15","Macintosh","Safari","14.1","OS X","10_15_7","1239","<p>作为军队的指挥官，你可以选择发射导弹杀死 <strong>7名</strong> 敌国士兵，但会炸毁附近的 <strong>1棵</strong> 敌国树木。</p> <p>树木的照片如下图所示。</p> <p></p> <img src='stimuli/trees/16.png', style='max-width: 30%;'> </img> <p><strong>你是否选择发射武器？</strong></p>","0",""
"","","","","","html-keyboard-response","126","256134","0.0-4.0-0.61","30","1","2022-10-24 10:11:53","ebf9627b049f568eb4bf28942cb89901","115.27.200.219","Mozilla/5.0 (Macintosh; Intel Mac OS X 10_15_7) AppleWebKit/605.1.15 (KHTML, like Gecko) Version/14.1 Safari/605.1.15","Macintosh","Safari","14.1","OS X","10_15_7","null","<div style=""font-size:60px;"">+</div>","null",""
"","","","","","html-button-response","127","259519","0.0-4.0-1.61","30","1","2022-10-24 10:11:53","ebf9627b049f568eb4bf28942cb89901","115.27.200.219","Mozilla/5.0 (Macintosh; Intel Mac OS X 10_15_7) AppleWebKit/605.1.15 (KHTML, like Gecko) Version/14.1 Safari/605.1.15","Macintosh","Safari","14.1","OS X","10_15_7","3377","<p>作为军队的指挥官，你可以选择发射导弹杀死 <strong>6名</strong> 敌国士兵，但会误杀附近的 <strong>1名</strong> 敌国平民。</p> <p>平民照片如下图所示。</p> <p></p> <img src='stimuli/faces/NFM2.jpg', style='max-width: 30%;'> </img> <p><strong>你是否选择发射武器？</strong></p>","0",""
"","","","","","html-keyboard-response","128","260528","0.0-4.0-0.62","30","1","2022-10-24 10:11:53","ebf9627b049f568eb4bf28942cb89901","115.27.200.219","Mozilla/5.0 (Macintosh; Intel Mac OS X 10_15_7) AppleWebKit/605.1.15 (KHTML, like Gecko) Version/14.1 Safari/605.1.15","Macintosh","Safari","14.1","OS X","10_15_7","null","<div style=""font-size:60px;"">+</div>","null",""
"","","","","","html-button-response","129","262708","0.0-4.0-1.62","30","1","2022-10-24 10:11:53","ebf9627b049f568eb4bf28942cb89901","115.27.200.219","Mozilla/5.0 (Macintosh; Intel Mac OS X 10_15_7) AppleWebKit/605.1.15 (KHTML, like Gecko) Version/14.1 Safari/605.1.15","Macintosh","Safari","14.1","OS X","10_15_7","2175","<p>作为军队的指挥官，你可以选择发射导弹杀死 <strong>5名</strong> 敌国士兵，但会炸毁附近的 <strong>1棵</strong> 敌国树木。</p> <p>树木的照片如下图所示。</p> <p></p> <img src='stimuli/trees/16.png', style='max-width: 30%;'> </img> <p><strong>你是否选择发射武器？</strong></p>","0",""
"","","","","","html-keyboard-response","130","263717","0.0-4.0-0.63","30","1","2022-10-24 10:11:53","ebf9627b049f568eb4bf28942cb89901","115.27.200.219","Mozilla/5.0 (Macintosh; Intel Mac OS X 10_15_7) AppleWebKit/605.1.15 (KHTML, like Gecko) Version/14.1 Safari/605.1.15","Macintosh","Safari","14.1","OS X","10_15_7","null","<div style=""font-size:60px;"">+</div>","null",""
"","","","","","html-button-response","131","268327","0.0-4.0-1.63","30","1","2022-10-24 10:11:53","ebf9627b049f568eb4bf28942cb89901","115.27.200.219","Mozilla/5.0 (Macintosh; Intel Mac OS X 10_15_7) AppleWebKit/605.1.15 (KHTML, like Gecko) Version/14.1 Safari/605.1.15","Macintosh","Safari","14.1","OS X","10_15_7","4607","<p>作为军队的指挥官，你可以选择发射导弹杀死 <strong>3名</strong> 敌国士兵，但会误杀附近的 <strong>1名</strong> 敌国平民。</p> <p>平民照片如下图所示。</p> <p></p> <img src='stimuli/faces/NFF6.jpg', style='max-width: 30%;'> </img> <p><strong>你是否选择发射武器？</strong></p>","1",""
"","","","","","survey-multi-choice","132","281224","0.0-5.0","30","1","2022-10-24 10:11:53","ebf9627b049f568eb4bf28942cb89901","115.27.200.219","Mozilla/5.0 (Macintosh; Intel Mac OS X 10_15_7) AppleWebKit/605.1.15 (KHTML, like Gecko) Version/14.1 Safari/605.1.15","Macintosh","Safari","14.1","OS X","10_15_7","12892","","{""Attention1"":""""}","[0]"
"","","","","","html-button-response","133","283299","0.0-6.0","30","1","2022-10-24 10:11:53","ebf9627b049f568eb4bf28942cb89901","115.27.200.219","Mozilla/5.0 (Macintosh; Intel Mac OS X 10_15_7) AppleWebKit/605.1.15 (KHTML, like Gecko) Version/14.1 Safari/605.1.15","Macintosh","Safari","14.1","OS X","10_15_7","2071","<p style=""font-size:20px;font-weight:bold;"">恭喜！</p><p>你已经完成了实验的第一部分。</p><p>请休息放松一下，然后进入第二部分。</p><p>这部分大约需要10分钟。</p>","0",""
"","","","","","survey-text","134","304029","0.0-7.0","30","1","2022-10-24 10:11:53","ebf9627b049f568eb4bf28942cb89901","115.27.200.219","Mozilla/5.0 (Macintosh; Intel Mac OS X 10_15_7) AppleWebKit/605.1.15 (KHTML, like Gecko) Version/14.1 Safari/605.1.15","Macintosh","Safari","14.1","OS X","10_15_7","19707","","{""Age"":""22"",""Nation"":""中国"",""Born"":""山东省"",""Live"":""北京市"",""Ethnic"":""汉族"",""Alipay"":""18553332537""}",""
"","","","","","survey-multi-choice","135","330026","0.0-8.0","30","1","2022-10-24 10:11:53","ebf9627b049f568eb4bf28942cb89901","115.27.200.219","Mozilla/5.0 (Macintosh; Intel Mac OS X 10_15_7) AppleWebKit/605.1.15 (KHTML, like Gecko) Version/14.1 Safari/605.1.15","Macintosh","Safari","14.1","OS X","10_15_7","25991","","{""Gender"":""女"",""Education"":""本科毕业"",""Income"":""￥140,000-￥269,999"",""Children"":""0"",""Race"":""亚洲人""}","[0,1,2,3,4]"
"","","","","","survey-multi-select","136","338209","0.0-9.0","30","1","2022-10-24 10:11:53","ebf9627b049f568eb4bf28942cb89901","115.27.200.219","Mozilla/5.0 (Macintosh; Intel Mac OS X 10_15_7) AppleWebKit/605.1.15 (KHTML, like Gecko) Version/14.1 Safari/605.1.15","Macintosh","Safari","14.1","OS X","10_15_7","8177","","{""Marriage"":[""未婚""],""Religion"":[""无宗教信仰""]}","[0,1]"
"","","","","","survey-multi-choice","137","343083","0.0-10.0","30","1","2022-10-24 10:11:53","ebf9627b049f568eb4bf28942cb89901","115.27.200.219","Mozilla/5.0 (Macintosh; Intel Mac OS X 10_15_7) AppleWebKit/605.1.15 (KHTML, like Gecko) Version/14.1 Safari/605.1.15","Macintosh","Safari","14.1","OS X","10_15_7","4868","","{""SES"":""6""}","[0]"
"","","","","","html-button-response","138","344395","0.0-11.0","30","1","2022-10-24 10:11:53","ebf9627b049f568eb4bf28942cb89901","115.27.200.219","Mozilla/5.0 (Macintosh; Intel Mac OS X 10_15_7) AppleWebKit/605.1.15 (KHTML, like Gecko) Version/14.1 Safari/605.1.15","Macintosh","Safari","14.1","OS X","10_15_7","1305","<p><strong>请判断下列陈述在多大程度上可以形容你？</p><p> (1 = ""和我一点都不像"" to 5 = ""非常像我"".)</strong></p>","0",""
"","","","","","survey-likert","139","371671","0.0-12.0","30","1","2022-10-24 10:11:53","ebf9627b049f568eb4bf28942cb89901","115.27.200.219","Mozilla/5.0 (Macintosh; Intel Mac OS X 10_15_7) AppleWebKit/605.1.15 (KHTML, like Gecko) Version/14.1 Safari/605.1.15","Macintosh","Safari","14.1","OS X","10_15_7","27270","","{""Aggression1"":1,""Aggression2"":0,""Aggression3"":2,""Aggression4"":0,""Aggression5"":2,""Aggression6"":0,""Aggression7"":3,""Aggression8"":0,""Aggression9"":0}","[0,1,2,3,4,5,6,7,8]"
"","","","","","html-button-response","140","372826","0.0-13.0","30","1","2022-10-24 10:11:53","ebf9627b049f568eb4bf28942cb89901","115.27.200.219","Mozilla/5.0 (Macintosh; Intel Mac OS X 10_15_7) AppleWebKit/605.1.15 (KHTML, like Gecko) Version/14.1 Safari/605.1.15","Macintosh","Safari","14.1","OS X","10_15_7","1151","<p><strong>请判断你在多大程度上同意下列陈述。</strong></p>","0",""
"","","","","","survey-likert","141","461298","0.0-14.0","30","1","2022-10-24 10:11:53","ebf9627b049f568eb4bf28942cb89901","115.27.200.219","Mozilla/5.0 (Macintosh; Intel Mac OS X 10_15_7) AppleWebKit/605.1.15 (KHTML, like Gecko) Version/14.1 Safari/605.1.15","Macintosh","Safari","14.1","OS X","10_15_7","88465","","{""scale25"":3,""scale8"":2,""scale24"":1,""scale1"":2,""scale2"":3,""scale18"":3,""scale4"":2,""scale27"":1,""scale16"":1,""scale20"":1,""scale10"":3,""scale26"":3,""scale23"":2,""scale5"":2,""scale3"":3,""scale22"":4,""scale7"":3,""scale12"":3,""scale11"":3,""scale17"":4,""scale15"":1,""scale13"":1,""scale19"":2,""scale21"":3,""scale6"":3,""scale28"":3,""scale14"":1,""scale9"":2}","[24,7,23,0,1,17,3,26,15,19,9,25,22,4,2,21,6,11,10,16,14,12,18,20,5,27,13,8]"
"","","","","","html-button-response","142","462456","0.0-15.0","30","1","2022-10-24 10:11:53","ebf9627b049f568eb4bf28942cb89901","115.27.200.219","Mozilla/5.0 (Macintosh; Intel Mac OS X 10_15_7) AppleWebKit/605.1.15 (KHTML, like Gecko) Version/14.1 Safari/605.1.15","Macintosh","Safari","14.1","OS X","10_15_7","1154","<p><strong>请判断你在多大程度上同意下列陈述。</strong></p>","0",""
"","","","","","survey-likert","143","522394","0.0-16.0","30","1","2022-10-24 10:11:53","ebf9627b049f568eb4bf28942cb89901","115.27.200.219","Mozilla/5.0 (Macintosh; Intel Mac OS X 10_15_7) AppleWebKit/605.1.15 (KHTML, like Gecko) Version/14.1 Safari/605.1.15","Macintosh","Safari","14.1","OS X","10_15_7","59932","","{""sdo1"":3,""sdo7"":2,""sdo15"":3,""sdo9"":3,""sdo11"":6,""sdo10"":4,""sdo2"":3,""sdo16"":5,""sdo6"":2,""sdo13"":5,""sdo4"":1,""sdo14"":6,""sdo12"":5,""sdo5"":4,""sdo3"":3,""sdo8"":2}","[0,6,14,8,10,9,1,15,5,12,3,13,11,4,2,7]"
"","","","","","html-button-response","144","523678","0.0-17.0","30","1","2022-10-24 10:11:53","ebf9627b049f568eb4bf28942cb89901","115.27.200.219","Mozilla/5.0 (Macintosh; Intel Mac OS X 10_15_7) AppleWebKit/605.1.15 (KHTML, like Gecko) Version/14.1 Safari/605.1.15","Macintosh","Safari","14.1","OS X","10_15_7","1279","<p><strong>请判断你在多大程度上同意下列陈述。</strong></p>","0",""
"","","","","","survey-likert","145","563670","0.0-18.0","30","1","2022-10-24 10:11:53","ebf9627b049f568eb4bf28942cb89901","115.27.200.219","Mozilla/5.0 (Macintosh; Intel Mac OS X 10_15_7) AppleWebKit/605.1.15 (KHTML, like Gecko) Version/14.1 Safari/605.1.15","Macintosh","Safari","14.1","OS X","10_15_7","39984","","{""caring1"":1,""liking1"":0,""caring2"":4,""protection1"":4,""liking2"":2,""caring3"":3,""protection2"":3,""liking3"":2,""protection3"":3,""caring4"":4,""liking4"":2,""protection4"":3,""caring5"":3,""liking5"":3,""protection5"":2}","[0,1,2,3,4,5,6,7,8,9,10,11,12,13,14]"
"","","","","","html-button-response","146","565035","0.0-19.0","30","1","2022-10-24 10:11:53","ebf9627b049f568eb4bf28942cb89901","115.27.200.219","Mozilla/5.0 (Macintosh; Intel Mac OS X 10_15_7) AppleWebKit/605.1.15 (KHTML, like Gecko) Version/14.1 Safari/605.1.15","Macintosh","Safari","14.1","OS X","10_15_7","1360","<p><strong>请判断下列场景中你的内心感受有多柔软。</strong></p>","0",""
"","","","","","survey-likert","147","594927","0.0-20.0","30","1","2022-10-24 10:11:53","ebf9627b049f568eb4bf28942cb89901","115.27.200.219","Mozilla/5.0 (Macintosh; Intel Mac OS X 10_15_7) AppleWebKit/605.1.15 (KHTML, like Gecko) Version/14.1 Safari/605.1.15","Macintosh","Safari","14.1","OS X","10_15_7","29887","","{""tenderness-positive1"":4,""tenderness-negative1"":2,""tenderness-negative2"":1,""tenderness-positive2"":1,""tenderness-positive3"":3,""tenderness-negative3"":1,""tenderness-positive4"":4,""tendereness-negative4"":0,""tendernness-negative5"":1,""tenderness-positive5"":1}","[0,1,2,3,4,5,6,7,8,9]"
"","","","","","survey-multi-choice","148","604140","0.0-21.0","30","1","2022-10-24 10:11:53","ebf9627b049f568eb4bf28942cb89901","115.27.200.219","Mozilla/5.0 (Macintosh; Intel Mac OS X 10_15_7) AppleWebKit/605.1.15 (KHTML, like Gecko) Version/14.1 Safari/605.1.15","Macintosh","Safari","14.1","OS X","10_15_7","9208","","{""Attention2"":""其他""}","[0]"
"","","","","","html-button-response","149","605703","0.0-22.0","30","1","2022-10-24 10:11:53","ebf9627b049f568eb4bf28942cb89901","115.27.200.219","Mozilla/5.0 (Macintosh; Intel Mac OS X 10_15_7) AppleWebKit/605.1.15 (KHTML, like Gecko) Version/14.1 Safari/605.1.15","Macintosh","Safari","14.1","OS X","10_15_7","1557","<p><strong>请判断你在多大程度上同意下列陈述。</strong></p>","0",""
"","","","","","survey-likert","150","677560","0.0-23.0","30","1","2022-10-24 10:11:53","ebf9627b049f568eb4bf28942cb89901","115.27.200.219","Mozilla/5.0 (Macintosh; Intel Mac OS X 10_15_7) AppleWebKit/605.1.15 (KHTML, like Gecko) Version/14.1 Safari/605.1.15","Macintosh","Safari","14.1","OS X","10_15_7","71849","","{""Patri9"":0,""Nation5"":1,""Nation2"":4,""Patri8"":4,""Nation6"":4,""Patri10"":0,""Nation1"":4,""Patri5"":4,""Patri1"":4,""Nation4"":0,""Patri2"":4,""Nation8"":1,""Patri7"":4,""Patri11"":0,""Patri12"":0,""Patri6"":0,""Nation7"":4,""Nation3"":3,""Patri4"":2,""Patri3"":4}","[8,16,13,7,17,9,12,4,0,15,1,19,6,10,11,5,18,14,3,2]"
"","","","","","html-button-response","151","678618","0.0-24.0","30","1","2022-10-24 10:11:53","ebf9627b049f568eb4bf28942cb89901","115.27.200.219","Mozilla/5.0 (Macintosh; Intel Mac OS X 10_15_7) AppleWebKit/605.1.15 (KHTML, like Gecko) Version/14.1 Safari/605.1.15","Macintosh","Safari","14.1","OS X","10_15_7","1053","<p><strong>请判断你在多大程度上同意下列陈述。</strong></p>","0",""
"","","","","","survey-likert","152","736590","0.0-25.0","30","1","2022-10-24 10:11:53","ebf9627b049f568eb4bf28942cb89901","115.27.200.219","Mozilla/5.0 (Macintosh; Intel Mac OS X 10_15_7) AppleWebKit/605.1.15 (KHTML, like Gecko) Version/14.1 Safari/605.1.15","Macintosh","Safari","14.1","OS X","10_15_7","57965","","{""hi1"":7,""vc3"":6,""vi2"":1,""vi3"":5,""hi2"":8,""hc3"":5,""hc2"":4,""vc4"":6,""Robot"":6,""vc2"":7,""vc1"":8,""hi3"":1,""hc4"":8,""hc1"":8,""vi1"":1,""hi4"":8,""vi4"":5}","[0,15,5,6,1,11,10,16,7,14,13,2,12,9,4,3,8]"
"","","","","","survey-text","153","739135","0.0-26.0","30","1","2022-10-24 10:11:53","ebf9627b049f568eb4bf28942cb89901","115.27.200.219","Mozilla/5.0 (Macintosh; Intel Mac OS X 10_15_7) AppleWebKit/605.1.15 (KHTML, like Gecko) Version/14.1 Safari/605.1.15","Macintosh","Safari","14.1","OS X","10_15_7","2541","","{""Comments"":""""}",""
"","","","","","html-button-response","154","740247","0.0-27.0","30","1","2022-10-24 10:11:53","ebf9627b049f568eb4bf28942cb89901","115.27.200.219","Mozilla/5.0 (Macintosh; Intel Mac OS X 10_15_7) AppleWebKit/605.1.15 (KHTML, like Gecko) Version/14.1 Safari/605.1.15","Macintosh","Safari","14.1","OS X","10_15_7","1105","<strong><p>恭喜你完成了实验！</p><p>感谢您的参与。</p></strong>","0",""
