"success","timeout","failed_images","failed_audio","failed_video","trial_type","trial_index","time_elapsed","internal_node_id","run_id","condition","recorded_at","source_code_version","ip","user_agent","device","browser","browser_version","platform","platform_version","rt","stimulus","response","question_order"
"true","false","[]","[]","[]","preload","0","5985","0.0-0.0","35","1","2022-10-25 14:19:17","ebf9627b049f568eb4bf28942cb89901","112.40.23.199","Mozilla/5.0 (Windows NT 10.0; Win64; x64) AppleWebKit/537.36 (KHTML, like Gecko) Chrome/106.0.0.0 Safari/537.36 Edg/106.0.1370.52","WebKit","Edge","106.0.1370.52","Windows","10.0","","","",""
"true","","","","","fullscreen","1","8687","0.0-1.0","35","1","2022-10-25 14:19:17","ebf9627b049f568eb4bf28942cb89901","112.40.23.199","Mozilla/5.0 (Windows NT 10.0; Win64; x64) AppleWebKit/537.36 (KHTML, like Gecko) Chrome/106.0.0.0 Safari/537.36 Edg/106.0.1370.52","WebKit","Edge","106.0.1370.52","Windows","10.0","","","",""
"","","","","","html-button-response","2","64731","0.0-2.0","35","1","2022-10-25 14:19:17","ebf9627b049f568eb4bf28942cb89901","112.40.23.199","Mozilla/5.0 (Windows NT 10.0; Win64; x64) AppleWebKit/537.36 (KHTML, like Gecko) Chrome/106.0.0.0 Safari/537.36 Edg/106.0.1370.52","WebKit","Edge","106.0.1370.52","Windows","10.0","56043","<p style=""font-size:20px;font-weight:bold;"">实验知情同意书</p><p style=""text-align:left;""><strong>实验名称：</strong>社会冲突研究</p><p style=""text-align:left;""><strong>主要研究者：</strong>韩晓春副教授（北京师范大学心理学部）</p><p style=""text-align:left;""><strong>联系方式：</strong>发送邮件至xiaochun.han@bnu.edu.cn</p><p style=""text-align:left;""><strong>研究目的：</strong>研究旨在了解人类面对群体冲突时的决策方式，以及相关的心理学特质。实验调查大约需要20分钟。</p><p style=""text-align:left;""><strong>实验流程：</strong>实验包含两部分。第一部分呈现一系列群体冲突场景，请你决定如何对这些冲突进行反应，大约需要10分钟完成。第二部分包含一系列人口统计学信息收集和心理学问卷，大约需要10分钟完成。</p><p style=""text-align:left;""><strong>参加及退出规则：</strong>参加本实验完全取决于您的个人意愿。在参与过程中，您可以随时退出，并且不用承担任何后果。</p><p style=""text-align:left;""><strong>隐私：</strong>本实验完全匿名进行，不会收集您的姓名或其他能够识别您身份的信息。实验中收集的作答仅用作科学研究使用，可能会在学术期刊/书籍上发表，或者用于教学，您的数据未来可能会和其他研究者或实验室分享，但您的个人身份不会被识别。</p><p style=""text-align:left;""><strong>实验报酬：</strong>实验完成后，您将获得15元人民币报酬，以感谢您的时间和努力。调查问卷中包含几道题目用以测验您作答时的认真度。只有完成全部实验，并且正确回答认真度测验的被试才能获得实验报酬。实验报酬将通过支付宝转账发放。</p><p style=""text-align:left;font-size:20px;""><strong>如果您同意以上实验知情同意书的内容，请点击'同意并且开始实验'按钮；否则请关闭浏览器界面，退出实验。</strong></p>","0",""
"","","","","","html-button-response","3","68660","0.0-3.0","35","1","2022-10-25 14:19:17","ebf9627b049f568eb4bf28942cb89901","112.40.23.199","Mozilla/5.0 (Windows NT 10.0; Win64; x64) AppleWebKit/537.36 (KHTML, like Gecko) Chrome/106.0.0.0 Safari/537.36 Edg/106.0.1370.52","WebKit","Edge","106.0.1370.52","Windows","10.0","3927","<p ><strong>实验任务一：</strong></p><p>请想象你的国家与另一个国家发生了军事冲突。</p><p>你是国家军队的指挥官，你将如何在冲突中进行决策。</p><p>具体来说，作为军队指挥官，请你决定是否发射导弹进行打击。</p><p>接下来，你会面对一系列场景，请仔细阅读每个场景，然后进行决策。</p><p>这部分实验任务大约需要10分钟。</p><p><strong>实验过程中，请集中注意力。</strong></p>","0",""
"","","","","","html-keyboard-response","4","69661","0.0-4.0-0.0","35","1","2022-10-25 14:19:17","ebf9627b049f568eb4bf28942cb89901","112.40.23.199","Mozilla/5.0 (Windows NT 10.0; Win64; x64) AppleWebKit/537.36 (KHTML, like Gecko) Chrome/106.0.0.0 Safari/537.36 Edg/106.0.1370.52","WebKit","Edge","106.0.1370.52","Windows","10.0","null","<div style=""font-size:60px;"">+</div>","null",""
"","","","","","html-button-response","5","73966","0.0-4.0-1.0","35","1","2022-10-25 14:19:17","ebf9627b049f568eb4bf28942cb89901","112.40.23.199","Mozilla/5.0 (Windows NT 10.0; Win64; x64) AppleWebKit/537.36 (KHTML, like Gecko) Chrome/106.0.0.0 Safari/537.36 Edg/106.0.1370.52","WebKit","Edge","106.0.1370.52","Windows","10.0","4303","<p>作为军队的指挥官，你可以选择发射导弹杀死 <strong>1名</strong> 敌国士兵，但会误杀附近的 <strong>1名</strong> 敌国平民。</p> <p>平民照片如下图所示。</p> <p></p> <img src='stimuli/faces/NFF6.jpg', style='max-width: 30%;'> </img> <p><strong>你是否选择发射武器？</strong></p>","1",""
"","","","","","html-keyboard-response","6","74972","0.0-4.0-0.1","35","1","2022-10-25 14:19:17","ebf9627b049f568eb4bf28942cb89901","112.40.23.199","Mozilla/5.0 (Windows NT 10.0; Win64; x64) AppleWebKit/537.36 (KHTML, like Gecko) Chrome/106.0.0.0 Safari/537.36 Edg/106.0.1370.52","WebKit","Edge","106.0.1370.52","Windows","10.0","null","<div style=""font-size:60px;"">+</div>","null",""
"","","","","","html-button-response","7","376903","0.0-4.0-1.1","35","1","2022-10-25 14:19:17","ebf9627b049f568eb4bf28942cb89901","112.40.23.199","Mozilla/5.0 (Windows NT 10.0; Win64; x64) AppleWebKit/537.36 (KHTML, like Gecko) Chrome/106.0.0.0 Safari/537.36 Edg/106.0.1370.52","WebKit","Edge","106.0.1370.52","Windows","10.0","301929","<p>作为军队的指挥官，你可以选择发射导弹杀死 <strong>10名</strong> 敌国士兵，但会误杀附近的 <strong>1名</strong> 敌国平民。</p> <p>平民照片如下图所示。</p> <p></p> <img src='stimuli/faces/NFF8.jpg', style='max-width: 30%;'> </img> <p><strong>你是否选择发射武器？</strong></p>","1",""
"","","","","","html-keyboard-response","8","377905","0.0-4.0-0.2","35","1","2022-10-25 14:19:17","ebf9627b049f568eb4bf28942cb89901","112.40.23.199","Mozilla/5.0 (Windows NT 10.0; Win64; x64) AppleWebKit/537.36 (KHTML, like Gecko) Chrome/106.0.0.0 Safari/537.36 Edg/106.0.1370.52","WebKit","Edge","106.0.1370.52","Windows","10.0","null","<div style=""font-size:60px;"">+</div>","null",""
"","","","","","html-button-response","9","379880","0.0-4.0-1.2","35","1","2022-10-25 14:19:17","ebf9627b049f568eb4bf28942cb89901","112.40.23.199","Mozilla/5.0 (Windows NT 10.0; Win64; x64) AppleWebKit/537.36 (KHTML, like Gecko) Chrome/106.0.0.0 Safari/537.36 Edg/106.0.1370.52","WebKit","Edge","106.0.1370.52","Windows","10.0","1973","<p>作为军队的指挥官，你可以选择发射导弹杀死 <strong>9名</strong> 敌国士兵，但会误杀附近的 <strong>1名</strong> 敌国平民。</p> <p>平民照片如下图所示。</p> <p></p> <img src='stimuli/faces/NFM6.jpg', style='max-width: 30%;'> </img> <p><strong>你是否选择发射武器？</strong></p>","1",""
"","","","","","html-keyboard-response","10","380896","0.0-4.0-0.3","35","1","2022-10-25 14:19:17","ebf9627b049f568eb4bf28942cb89901","112.40.23.199","Mozilla/5.0 (Windows NT 10.0; Win64; x64) AppleWebKit/537.36 (KHTML, like Gecko) Chrome/106.0.0.0 Safari/537.36 Edg/106.0.1370.52","WebKit","Edge","106.0.1370.52","Windows","10.0","null","<div style=""font-size:60px;"">+</div>","null",""
"","","","","","html-button-response","11","383678","0.0-4.0-1.3","35","1","2022-10-25 14:19:17","ebf9627b049f568eb4bf28942cb89901","112.40.23.199","Mozilla/5.0 (Windows NT 10.0; Win64; x64) AppleWebKit/537.36 (KHTML, like Gecko) Chrome/106.0.0.0 Safari/537.36 Edg/106.0.1370.52","WebKit","Edge","106.0.1370.52","Windows","10.0","2781","<p>作为军队的指挥官，你可以选择发射导弹杀死 <strong>2名</strong> 敌国士兵，但会炸毁附近的 <strong>1棵</strong> 敌国树木。</p> <p>树木的照片如下图所示。</p> <p></p> <img src='stimuli/trees/9.png', style='max-width: 30%;'> </img> <p><strong>你是否选择发射武器？</strong></p>","0",""
"","","","","","html-keyboard-response","12","384695","0.0-4.0-0.4","35","1","2022-10-25 14:19:17","ebf9627b049f568eb4bf28942cb89901","112.40.23.199","Mozilla/5.0 (Windows NT 10.0; Win64; x64) AppleWebKit/537.36 (KHTML, like Gecko) Chrome/106.0.0.0 Safari/537.36 Edg/106.0.1370.52","WebKit","Edge","106.0.1370.52","Windows","10.0","null","<div style=""font-size:60px;"">+</div>","null",""
"","","","","","html-button-response","13","390276","0.0-4.0-1.4","35","1","2022-10-25 14:19:17","ebf9627b049f568eb4bf28942cb89901","112.40.23.199","Mozilla/5.0 (Windows NT 10.0; Win64; x64) AppleWebKit/537.36 (KHTML, like Gecko) Chrome/106.0.0.0 Safari/537.36 Edg/106.0.1370.52","WebKit","Edge","106.0.1370.52","Windows","10.0","5580","<p>作为军队的指挥官，你可以选择发射导弹杀死 <strong>6名</strong> 敌国士兵，但会误杀附近的 <strong>1名</strong> 敌国平民。</p> <p>平民照片如下图所示。</p> <p></p> <img src='stimuli/faces/NFM3.jpg', style='max-width: 30%;'> </img> <p><strong>你是否选择发射武器？</strong></p>","1",""
"","","","","","html-keyboard-response","14","391285","0.0-4.0-0.5","35","1","2022-10-25 14:19:17","ebf9627b049f568eb4bf28942cb89901","112.40.23.199","Mozilla/5.0 (Windows NT 10.0; Win64; x64) AppleWebKit/537.36 (KHTML, like Gecko) Chrome/106.0.0.0 Safari/537.36 Edg/106.0.1370.52","WebKit","Edge","106.0.1370.52","Windows","10.0","null","<div style=""font-size:60px;"">+</div>","null",""
"","","","","","html-button-response","15","404233","0.0-4.0-1.5","35","1","2022-10-25 14:19:17","ebf9627b049f568eb4bf28942cb89901","112.40.23.199","Mozilla/5.0 (Windows NT 10.0; Win64; x64) AppleWebKit/537.36 (KHTML, like Gecko) Chrome/106.0.0.0 Safari/537.36 Edg/106.0.1370.52","WebKit","Edge","106.0.1370.52","Windows","10.0","12947","<p>作为军队的指挥官，你可以选择发射导弹杀死 <strong>3名</strong> 敌国士兵，但会误杀附近的 <strong>1名</strong> 敌国平民。</p> <p>平民照片如下图所示。</p> <p></p> <img src='stimuli/faces/NFF5.jpg', style='max-width: 30%;'> </img> <p><strong>你是否选择发射武器？</strong></p>","1",""
"","","","","","html-keyboard-response","16","405237","0.0-4.0-0.6","35","1","2022-10-25 14:19:17","ebf9627b049f568eb4bf28942cb89901","112.40.23.199","Mozilla/5.0 (Windows NT 10.0; Win64; x64) AppleWebKit/537.36 (KHTML, like Gecko) Chrome/106.0.0.0 Safari/537.36 Edg/106.0.1370.52","WebKit","Edge","106.0.1370.52","Windows","10.0","null","<div style=""font-size:60px;"">+</div>","null",""
"","","","","","html-button-response","17","406730","0.0-4.0-1.6","35","1","2022-10-25 14:19:17","ebf9627b049f568eb4bf28942cb89901","112.40.23.199","Mozilla/5.0 (Windows NT 10.0; Win64; x64) AppleWebKit/537.36 (KHTML, like Gecko) Chrome/106.0.0.0 Safari/537.36 Edg/106.0.1370.52","WebKit","Edge","106.0.1370.52","Windows","10.0","1491","<p>作为军队的指挥官，你可以选择发射导弹杀死 <strong>1名</strong> 敌国士兵，但会炸毁附近的 <strong>1棵</strong> 敌国树木。</p> <p>树木的照片如下图所示。</p> <p></p> <img src='stimuli/trees/12.png', style='max-width: 30%;'> </img> <p><strong>你是否选择发射武器？</strong></p>","0",""
"","","","","","html-keyboard-response","18","407737","0.0-4.0-0.7","35","1","2022-10-25 14:19:17","ebf9627b049f568eb4bf28942cb89901","112.40.23.199","Mozilla/5.0 (Windows NT 10.0; Win64; x64) AppleWebKit/537.36 (KHTML, like Gecko) Chrome/106.0.0.0 Safari/537.36 Edg/106.0.1370.52","WebKit","Edge","106.0.1370.52","Windows","10.0","null","<div style=""font-size:60px;"">+</div>","null",""
"","","","","","html-button-response","19","411938","0.0-4.0-1.7","35","1","2022-10-25 14:19:17","ebf9627b049f568eb4bf28942cb89901","112.40.23.199","Mozilla/5.0 (Windows NT 10.0; Win64; x64) AppleWebKit/537.36 (KHTML, like Gecko) Chrome/106.0.0.0 Safari/537.36 Edg/106.0.1370.52","WebKit","Edge","106.0.1370.52","Windows","10.0","4200","<p>作为军队的指挥官，你可以选择发射导弹杀死 <strong>2名</strong> 敌国士兵，但会误杀附近的 <strong>1名</strong> 敌国平民。</p> <p>平民照片如下图所示。</p> <p></p> <img src='stimuli/faces/NFM2.jpg', style='max-width: 30%;'> </img> <p><strong>你是否选择发射武器？</strong></p>","1",""
"","","","","","html-keyboard-response","20","412950","0.0-4.0-0.8","35","1","2022-10-25 14:19:17","ebf9627b049f568eb4bf28942cb89901","112.40.23.199","Mozilla/5.0 (Windows NT 10.0; Win64; x64) AppleWebKit/537.36 (KHTML, like Gecko) Chrome/106.0.0.0 Safari/537.36 Edg/106.0.1370.52","WebKit","Edge","106.0.1370.52","Windows","10.0","null","<div style=""font-size:60px;"">+</div>","null",""
"","","","","","html-button-response","21","415043","0.0-4.0-1.8","35","1","2022-10-25 14:19:17","ebf9627b049f568eb4bf28942cb89901","112.40.23.199","Mozilla/5.0 (Windows NT 10.0; Win64; x64) AppleWebKit/537.36 (KHTML, like Gecko) Chrome/106.0.0.0 Safari/537.36 Edg/106.0.1370.52","WebKit","Edge","106.0.1370.52","Windows","10.0","2092","<p>作为军队的指挥官，你可以选择发射导弹杀死 <strong>8名</strong> 敌国士兵，但会误杀附近的 <strong>1名</strong> 敌国平民。</p> <p>平民照片如下图所示。</p> <p></p> <img src='stimuli/faces/NFF1.jpg', style='max-width: 30%;'> </img> <p><strong>你是否选择发射武器？</strong></p>","1",""
"","","","","","html-keyboard-response","22","416057","0.0-4.0-0.9","35","1","2022-10-25 14:19:17","ebf9627b049f568eb4bf28942cb89901","112.40.23.199","Mozilla/5.0 (Windows NT 10.0; Win64; x64) AppleWebKit/537.36 (KHTML, like Gecko) Chrome/106.0.0.0 Safari/537.36 Edg/106.0.1370.52","WebKit","Edge","106.0.1370.52","Windows","10.0","null","<div style=""font-size:60px;"">+</div>","null",""
"","","","","","html-button-response","23","417868","0.0-4.0-1.9","35","1","2022-10-25 14:19:17","ebf9627b049f568eb4bf28942cb89901","112.40.23.199","Mozilla/5.0 (Windows NT 10.0; Win64; x64) AppleWebKit/537.36 (KHTML, like Gecko) Chrome/106.0.0.0 Safari/537.36 Edg/106.0.1370.52","WebKit","Edge","106.0.1370.52","Windows","10.0","1810","<p>作为军队的指挥官，你可以选择发射导弹杀死 <strong>10名</strong> 敌国士兵，但会炸毁附近的 <strong>1棵</strong> 敌国树木。</p> <p>树木的照片如下图所示。</p> <p></p> <img src='stimuli/trees/16.png', style='max-width: 30%;'> </img> <p><strong>你是否选择发射武器？</strong></p>","0",""
"","","","","","html-keyboard-response","24","418871","0.0-4.0-0.10","35","1","2022-10-25 14:19:17","ebf9627b049f568eb4bf28942cb89901","112.40.23.199","Mozilla/5.0 (Windows NT 10.0; Win64; x64) AppleWebKit/537.36 (KHTML, like Gecko) Chrome/106.0.0.0 Safari/537.36 Edg/106.0.1370.52","WebKit","Edge","106.0.1370.52","Windows","10.0","null","<div style=""font-size:60px;"">+</div>","null",""
"","","","","","html-button-response","25","420868","0.0-4.0-1.10","35","1","2022-10-25 14:19:17","ebf9627b049f568eb4bf28942cb89901","112.40.23.199","Mozilla/5.0 (Windows NT 10.0; Win64; x64) AppleWebKit/537.36 (KHTML, like Gecko) Chrome/106.0.0.0 Safari/537.36 Edg/106.0.1370.52","WebKit","Edge","106.0.1370.52","Windows","10.0","1996","<p>作为军队的指挥官，你可以选择发射导弹杀死 <strong>5名</strong> 敌国士兵，但会误杀附近的 <strong>1名</strong> 敌国平民。</p> <p>平民照片如下图所示。</p> <p></p> <img src='stimuli/faces/NFF4.jpg', style='max-width: 30%;'> </img> <p><strong>你是否选择发射武器？</strong></p>","1",""
"","","","","","html-keyboard-response","26","421878","0.0-4.0-0.11","35","1","2022-10-25 14:19:17","ebf9627b049f568eb4bf28942cb89901","112.40.23.199","Mozilla/5.0 (Windows NT 10.0; Win64; x64) AppleWebKit/537.36 (KHTML, like Gecko) Chrome/106.0.0.0 Safari/537.36 Edg/106.0.1370.52","WebKit","Edge","106.0.1370.52","Windows","10.0","null","<div style=""font-size:60px;"">+</div>","null",""
"","","","","","html-button-response","27","423116","0.0-4.0-1.11","35","1","2022-10-25 14:19:17","ebf9627b049f568eb4bf28942cb89901","112.40.23.199","Mozilla/5.0 (Windows NT 10.0; Win64; x64) AppleWebKit/537.36 (KHTML, like Gecko) Chrome/106.0.0.0 Safari/537.36 Edg/106.0.1370.52","WebKit","Edge","106.0.1370.52","Windows","10.0","1237","<p>作为军队的指挥官，你可以选择发射导弹杀死 <strong>8名</strong> 敌国士兵，但会误杀附近的 <strong>1名</strong> 敌国平民。</p> <p>平民照片如下图所示。</p> <p></p> <img src='stimuli/faces/NFM5.jpg', style='max-width: 30%;'> </img> <p><strong>你是否选择发射武器？</strong></p>","1",""
"","","","","","html-keyboard-response","28","424127","0.0-4.0-0.12","35","1","2022-10-25 14:19:17","ebf9627b049f568eb4bf28942cb89901","112.40.23.199","Mozilla/5.0 (Windows NT 10.0; Win64; x64) AppleWebKit/537.36 (KHTML, like Gecko) Chrome/106.0.0.0 Safari/537.36 Edg/106.0.1370.52","WebKit","Edge","106.0.1370.52","Windows","10.0","null","<div style=""font-size:60px;"">+</div>","null",""
"","","","","","html-button-response","29","426381","0.0-4.0-1.12","35","1","2022-10-25 14:19:17","ebf9627b049f568eb4bf28942cb89901","112.40.23.199","Mozilla/5.0 (Windows NT 10.0; Win64; x64) AppleWebKit/537.36 (KHTML, like Gecko) Chrome/106.0.0.0 Safari/537.36 Edg/106.0.1370.52","WebKit","Edge","106.0.1370.52","Windows","10.0","2253","<p>作为军队的指挥官，你可以选择发射导弹杀死 <strong>9名</strong> 敌国士兵，但会炸毁附近的 <strong>1棵</strong> 敌国树木。</p> <p>树木的照片如下图所示。</p> <p></p> <img src='stimuli/trees/10.png', style='max-width: 30%;'> </img> <p><strong>你是否选择发射武器？</strong></p>","0",""
"","","","","","html-keyboard-response","30","427388","0.0-4.0-0.13","35","1","2022-10-25 14:19:17","ebf9627b049f568eb4bf28942cb89901","112.40.23.199","Mozilla/5.0 (Windows NT 10.0; Win64; x64) AppleWebKit/537.36 (KHTML, like Gecko) Chrome/106.0.0.0 Safari/537.36 Edg/106.0.1370.52","WebKit","Edge","106.0.1370.52","Windows","10.0","null","<div style=""font-size:60px;"">+</div>","null",""
"","","","","","html-button-response","31","428678","0.0-4.0-1.13","35","1","2022-10-25 14:19:17","ebf9627b049f568eb4bf28942cb89901","112.40.23.199","Mozilla/5.0 (Windows NT 10.0; Win64; x64) AppleWebKit/537.36 (KHTML, like Gecko) Chrome/106.0.0.0 Safari/537.36 Edg/106.0.1370.52","WebKit","Edge","106.0.1370.52","Windows","10.0","1289","<p>作为军队的指挥官，你可以选择发射导弹杀死 <strong>1名</strong> 敌国士兵，但会误杀附近的 <strong>1名</strong> 敌国平民。</p> <p>平民照片如下图所示。</p> <p></p> <img src='stimuli/faces/NFF8.jpg', style='max-width: 30%;'> </img> <p><strong>你是否选择发射武器？</strong></p>","1",""
"","","","","","html-keyboard-response","32","429682","0.0-4.0-0.14","35","1","2022-10-25 14:19:17","ebf9627b049f568eb4bf28942cb89901","112.40.23.199","Mozilla/5.0 (Windows NT 10.0; Win64; x64) AppleWebKit/537.36 (KHTML, like Gecko) Chrome/106.0.0.0 Safari/537.36 Edg/106.0.1370.52","WebKit","Edge","106.0.1370.52","Windows","10.0","null","<div style=""font-size:60px;"">+</div>","null",""
"","","","","","html-button-response","33","431506","0.0-4.0-1.14","35","1","2022-10-25 14:19:17","ebf9627b049f568eb4bf28942cb89901","112.40.23.199","Mozilla/5.0 (Windows NT 10.0; Win64; x64) AppleWebKit/537.36 (KHTML, like Gecko) Chrome/106.0.0.0 Safari/537.36 Edg/106.0.1370.52","WebKit","Edge","106.0.1370.52","Windows","10.0","1823","<p>作为军队的指挥官，你可以选择发射导弹杀死 <strong>3名</strong> 敌国士兵，但会炸毁附近的 <strong>1棵</strong> 敌国树木。</p> <p>树木的照片如下图所示。</p> <p></p> <img src='stimuli/trees/2.png', style='max-width: 30%;'> </img> <p><strong>你是否选择发射武器？</strong></p>","0",""
"","","","","","html-keyboard-response","34","432516","0.0-4.0-0.15","35","1","2022-10-25 14:19:17","ebf9627b049f568eb4bf28942cb89901","112.40.23.199","Mozilla/5.0 (Windows NT 10.0; Win64; x64) AppleWebKit/537.36 (KHTML, like Gecko) Chrome/106.0.0.0 Safari/537.36 Edg/106.0.1370.52","WebKit","Edge","106.0.1370.52","Windows","10.0","null","<div style=""font-size:60px;"">+</div>","null",""
"","","","","","html-button-response","35","433660","0.0-4.0-1.15","35","1","2022-10-25 14:19:17","ebf9627b049f568eb4bf28942cb89901","112.40.23.199","Mozilla/5.0 (Windows NT 10.0; Win64; x64) AppleWebKit/537.36 (KHTML, like Gecko) Chrome/106.0.0.0 Safari/537.36 Edg/106.0.1370.52","WebKit","Edge","106.0.1370.52","Windows","10.0","1144","<p>作为军队的指挥官，你可以选择发射导弹杀死 <strong>8名</strong> 敌国士兵，但会误杀附近的 <strong>1名</strong> 敌国平民。</p> <p>平民照片如下图所示。</p> <p></p> <img src='stimuli/faces/NFM1.jpg', style='max-width: 30%;'> </img> <p><strong>你是否选择发射武器？</strong></p>","1",""
"","","","","","html-keyboard-response","36","434662","0.0-4.0-0.16","35","1","2022-10-25 14:19:17","ebf9627b049f568eb4bf28942cb89901","112.40.23.199","Mozilla/5.0 (Windows NT 10.0; Win64; x64) AppleWebKit/537.36 (KHTML, like Gecko) Chrome/106.0.0.0 Safari/537.36 Edg/106.0.1370.52","WebKit","Edge","106.0.1370.52","Windows","10.0","null","<div style=""font-size:60px;"">+</div>","null",""
"","","","","","html-button-response","37","435859","0.0-4.0-1.16","35","1","2022-10-25 14:19:17","ebf9627b049f568eb4bf28942cb89901","112.40.23.199","Mozilla/5.0 (Windows NT 10.0; Win64; x64) AppleWebKit/537.36 (KHTML, like Gecko) Chrome/106.0.0.0 Safari/537.36 Edg/106.0.1370.52","WebKit","Edge","106.0.1370.52","Windows","10.0","1195","<p>作为军队的指挥官，你可以选择发射导弹杀死 <strong>9名</strong> 敌国士兵，但会误杀附近的 <strong>1名</strong> 敌国平民。</p> <p>平民照片如下图所示。</p> <p></p> <img src='stimuli/faces/NFF5.jpg', style='max-width: 30%;'> </img> <p><strong>你是否选择发射武器？</strong></p>","1",""
"","","","","","html-keyboard-response","38","436870","0.0-4.0-0.17","35","1","2022-10-25 14:19:17","ebf9627b049f568eb4bf28942cb89901","112.40.23.199","Mozilla/5.0 (Windows NT 10.0; Win64; x64) AppleWebKit/537.36 (KHTML, like Gecko) Chrome/106.0.0.0 Safari/537.36 Edg/106.0.1370.52","WebKit","Edge","106.0.1370.52","Windows","10.0","null","<div style=""font-size:60px;"">+</div>","null",""
"","","","","","html-button-response","39","438422","0.0-4.0-1.17","35","1","2022-10-25 14:19:17","ebf9627b049f568eb4bf28942cb89901","112.40.23.199","Mozilla/5.0 (Windows NT 10.0; Win64; x64) AppleWebKit/537.36 (KHTML, like Gecko) Chrome/106.0.0.0 Safari/537.36 Edg/106.0.1370.52","WebKit","Edge","106.0.1370.52","Windows","10.0","1551","<p>作为军队的指挥官，你可以选择发射导弹杀死 <strong>5名</strong> 敌国士兵，但会炸毁附近的 <strong>1棵</strong> 敌国树木。</p> <p>树木的照片如下图所示。</p> <p></p> <img src='stimuli/trees/15.png', style='max-width: 30%;'> </img> <p><strong>你是否选择发射武器？</strong></p>","0",""
"","","","","","html-keyboard-response","40","439428","0.0-4.0-0.18","35","1","2022-10-25 14:19:17","ebf9627b049f568eb4bf28942cb89901","112.40.23.199","Mozilla/5.0 (Windows NT 10.0; Win64; x64) AppleWebKit/537.36 (KHTML, like Gecko) Chrome/106.0.0.0 Safari/537.36 Edg/106.0.1370.52","WebKit","Edge","106.0.1370.52","Windows","10.0","null","<div style=""font-size:60px;"">+</div>","null",""
"","","","","","html-button-response","41","440481","0.0-4.0-1.18","35","1","2022-10-25 14:19:17","ebf9627b049f568eb4bf28942cb89901","112.40.23.199","Mozilla/5.0 (Windows NT 10.0; Win64; x64) AppleWebKit/537.36 (KHTML, like Gecko) Chrome/106.0.0.0 Safari/537.36 Edg/106.0.1370.52","WebKit","Edge","106.0.1370.52","Windows","10.0","1052","<p>作为军队的指挥官，你可以选择发射导弹杀死 <strong>3名</strong> 敌国士兵，但会炸毁附近的 <strong>1棵</strong> 敌国树木。</p> <p>树木的照片如下图所示。</p> <p></p> <img src='stimuli/trees/10.png', style='max-width: 30%;'> </img> <p><strong>你是否选择发射武器？</strong></p>","0",""
"","","","","","html-keyboard-response","42","441491","0.0-4.0-0.19","35","1","2022-10-25 14:19:17","ebf9627b049f568eb4bf28942cb89901","112.40.23.199","Mozilla/5.0 (Windows NT 10.0; Win64; x64) AppleWebKit/537.36 (KHTML, like Gecko) Chrome/106.0.0.0 Safari/537.36 Edg/106.0.1370.52","WebKit","Edge","106.0.1370.52","Windows","10.0","null","<div style=""font-size:60px;"">+</div>","null",""
"","","","","","html-button-response","43","442923","0.0-4.0-1.19","35","1","2022-10-25 14:19:17","ebf9627b049f568eb4bf28942cb89901","112.40.23.199","Mozilla/5.0 (Windows NT 10.0; Win64; x64) AppleWebKit/537.36 (KHTML, like Gecko) Chrome/106.0.0.0 Safari/537.36 Edg/106.0.1370.52","WebKit","Edge","106.0.1370.52","Windows","10.0","1431","<p>作为军队的指挥官，你可以选择发射导弹杀死 <strong>2名</strong> 敌国士兵，但会误杀附近的 <strong>1名</strong> 敌国平民。</p> <p>平民照片如下图所示。</p> <p></p> <img src='stimuli/faces/NFM5.jpg', style='max-width: 30%;'> </img> <p><strong>你是否选择发射武器？</strong></p>","1",""
"","","","","","html-keyboard-response","44","443941","0.0-4.0-0.20","35","1","2022-10-25 14:19:17","ebf9627b049f568eb4bf28942cb89901","112.40.23.199","Mozilla/5.0 (Windows NT 10.0; Win64; x64) AppleWebKit/537.36 (KHTML, like Gecko) Chrome/106.0.0.0 Safari/537.36 Edg/106.0.1370.52","WebKit","Edge","106.0.1370.52","Windows","10.0","null","<div style=""font-size:60px;"">+</div>","null",""
"","","","","","html-button-response","45","445054","0.0-4.0-1.20","35","1","2022-10-25 14:19:17","ebf9627b049f568eb4bf28942cb89901","112.40.23.199","Mozilla/5.0 (Windows NT 10.0; Win64; x64) AppleWebKit/537.36 (KHTML, like Gecko) Chrome/106.0.0.0 Safari/537.36 Edg/106.0.1370.52","WebKit","Edge","106.0.1370.52","Windows","10.0","1111","<p>作为军队的指挥官，你可以选择发射导弹杀死 <strong>4名</strong> 敌国士兵，但会误杀附近的 <strong>1名</strong> 敌国平民。</p> <p>平民照片如下图所示。</p> <p></p> <img src='stimuli/faces/NFM7.jpg', style='max-width: 30%;'> </img> <p><strong>你是否选择发射武器？</strong></p>","1",""
"","","","","","html-keyboard-response","46","446063","0.0-4.0-0.21","35","1","2022-10-25 14:19:17","ebf9627b049f568eb4bf28942cb89901","112.40.23.199","Mozilla/5.0 (Windows NT 10.0; Win64; x64) AppleWebKit/537.36 (KHTML, like Gecko) Chrome/106.0.0.0 Safari/537.36 Edg/106.0.1370.52","WebKit","Edge","106.0.1370.52","Windows","10.0","null","<div style=""font-size:60px;"">+</div>","null",""
"","","","","","html-button-response","47","447635","0.0-4.0-1.21","35","1","2022-10-25 14:19:17","ebf9627b049f568eb4bf28942cb89901","112.40.23.199","Mozilla/5.0 (Windows NT 10.0; Win64; x64) AppleWebKit/537.36 (KHTML, like Gecko) Chrome/106.0.0.0 Safari/537.36 Edg/106.0.1370.52","WebKit","Edge","106.0.1370.52","Windows","10.0","1571","<p>作为军队的指挥官，你可以选择发射导弹杀死 <strong>8名</strong> 敌国士兵，但会炸毁附近的 <strong>1棵</strong> 敌国树木。</p> <p>树木的照片如下图所示。</p> <p></p> <img src='stimuli/trees/13.png', style='max-width: 30%;'> </img> <p><strong>你是否选择发射武器？</strong></p>","0",""
"","","","","","html-keyboard-response","48","448652","0.0-4.0-0.22","35","1","2022-10-25 14:19:17","ebf9627b049f568eb4bf28942cb89901","112.40.23.199","Mozilla/5.0 (Windows NT 10.0; Win64; x64) AppleWebKit/537.36 (KHTML, like Gecko) Chrome/106.0.0.0 Safari/537.36 Edg/106.0.1370.52","WebKit","Edge","106.0.1370.52","Windows","10.0","null","<div style=""font-size:60px;"">+</div>","null",""
"","","","","","html-button-response","49","449736","0.0-4.0-1.22","35","1","2022-10-25 14:19:17","ebf9627b049f568eb4bf28942cb89901","112.40.23.199","Mozilla/5.0 (Windows NT 10.0; Win64; x64) AppleWebKit/537.36 (KHTML, like Gecko) Chrome/106.0.0.0 Safari/537.36 Edg/106.0.1370.52","WebKit","Edge","106.0.1370.52","Windows","10.0","1082","<p>作为军队的指挥官，你可以选择发射导弹杀死 <strong>2名</strong> 敌国士兵，但会误杀附近的 <strong>1名</strong> 敌国平民。</p> <p>平民照片如下图所示。</p> <p></p> <img src='stimuli/faces/NFF7.jpg', style='max-width: 30%;'> </img> <p><strong>你是否选择发射武器？</strong></p>","1",""
"","","","","","html-keyboard-response","50","450748","0.0-4.0-0.23","35","1","2022-10-25 14:19:17","ebf9627b049f568eb4bf28942cb89901","112.40.23.199","Mozilla/5.0 (Windows NT 10.0; Win64; x64) AppleWebKit/537.36 (KHTML, like Gecko) Chrome/106.0.0.0 Safari/537.36 Edg/106.0.1370.52","WebKit","Edge","106.0.1370.52","Windows","10.0","null","<div style=""font-size:60px;"">+</div>","null",""
"","","","","","html-button-response","51","452739","0.0-4.0-1.23","35","1","2022-10-25 14:19:17","ebf9627b049f568eb4bf28942cb89901","112.40.23.199","Mozilla/5.0 (Windows NT 10.0; Win64; x64) AppleWebKit/537.36 (KHTML, like Gecko) Chrome/106.0.0.0 Safari/537.36 Edg/106.0.1370.52","WebKit","Edge","106.0.1370.52","Windows","10.0","1990","<p>作为军队的指挥官，你可以选择发射导弹杀死 <strong>9名</strong> 敌国士兵，但会炸毁附近的 <strong>1棵</strong> 敌国树木。</p> <p>树木的照片如下图所示。</p> <p></p> <img src='stimuli/trees/7.png', style='max-width: 30%;'> </img> <p><strong>你是否选择发射武器？</strong></p>","0",""
"","","","","","html-keyboard-response","52","453740","0.0-4.0-0.24","35","1","2022-10-25 14:19:17","ebf9627b049f568eb4bf28942cb89901","112.40.23.199","Mozilla/5.0 (Windows NT 10.0; Win64; x64) AppleWebKit/537.36 (KHTML, like Gecko) Chrome/106.0.0.0 Safari/537.36 Edg/106.0.1370.52","WebKit","Edge","106.0.1370.52","Windows","10.0","null","<div style=""font-size:60px;"">+</div>","null",""
"","","","","","html-button-response","53","454883","0.0-4.0-1.24","35","1","2022-10-25 14:19:17","ebf9627b049f568eb4bf28942cb89901","112.40.23.199","Mozilla/5.0 (Windows NT 10.0; Win64; x64) AppleWebKit/537.36 (KHTML, like Gecko) Chrome/106.0.0.0 Safari/537.36 Edg/106.0.1370.52","WebKit","Edge","106.0.1370.52","Windows","10.0","1141","<p>作为军队的指挥官，你可以选择发射导弹杀死 <strong>7名</strong> 敌国士兵，但会炸毁附近的 <strong>1棵</strong> 敌国树木。</p> <p>树木的照片如下图所示。</p> <p></p> <img src='stimuli/trees/6.png', style='max-width: 30%;'> </img> <p><strong>你是否选择发射武器？</strong></p>","0",""
"","","","","","html-keyboard-response","54","455896","0.0-4.0-0.25","35","1","2022-10-25 14:19:17","ebf9627b049f568eb4bf28942cb89901","112.40.23.199","Mozilla/5.0 (Windows NT 10.0; Win64; x64) AppleWebKit/537.36 (KHTML, like Gecko) Chrome/106.0.0.0 Safari/537.36 Edg/106.0.1370.52","WebKit","Edge","106.0.1370.52","Windows","10.0","null","<div style=""font-size:60px;"">+</div>","null",""
"","","","","","html-button-response","55","456920","0.0-4.0-1.25","35","1","2022-10-25 14:19:17","ebf9627b049f568eb4bf28942cb89901","112.40.23.199","Mozilla/5.0 (Windows NT 10.0; Win64; x64) AppleWebKit/537.36 (KHTML, like Gecko) Chrome/106.0.0.0 Safari/537.36 Edg/106.0.1370.52","WebKit","Edge","106.0.1370.52","Windows","10.0","1023","<p>作为军队的指挥官，你可以选择发射导弹杀死 <strong>5名</strong> 敌国士兵，但会炸毁附近的 <strong>1棵</strong> 敌国树木。</p> <p>树木的照片如下图所示。</p> <p></p> <img src='stimuli/trees/5.png', style='max-width: 30%;'> </img> <p><strong>你是否选择发射武器？</strong></p>","0",""
"","","","","","html-keyboard-response","56","457927","0.0-4.0-0.26","35","1","2022-10-25 14:19:17","ebf9627b049f568eb4bf28942cb89901","112.40.23.199","Mozilla/5.0 (Windows NT 10.0; Win64; x64) AppleWebKit/537.36 (KHTML, like Gecko) Chrome/106.0.0.0 Safari/537.36 Edg/106.0.1370.52","WebKit","Edge","106.0.1370.52","Windows","10.0","null","<div style=""font-size:60px;"">+</div>","null",""
"","","","","","html-button-response","57","458695","0.0-4.0-1.26","35","1","2022-10-25 14:19:17","ebf9627b049f568eb4bf28942cb89901","112.40.23.199","Mozilla/5.0 (Windows NT 10.0; Win64; x64) AppleWebKit/537.36 (KHTML, like Gecko) Chrome/106.0.0.0 Safari/537.36 Edg/106.0.1370.52","WebKit","Edge","106.0.1370.52","Windows","10.0","766","<p>作为军队的指挥官，你可以选择发射导弹杀死 <strong>5名</strong> 敌国士兵，但会炸毁附近的 <strong>1棵</strong> 敌国树木。</p> <p>树木的照片如下图所示。</p> <p></p> <img src='stimuli/trees/13.png', style='max-width: 30%;'> </img> <p><strong>你是否选择发射武器？</strong></p>","0",""
"","","","","","html-keyboard-response","58","459705","0.0-4.0-0.27","35","1","2022-10-25 14:19:17","ebf9627b049f568eb4bf28942cb89901","112.40.23.199","Mozilla/5.0 (Windows NT 10.0; Win64; x64) AppleWebKit/537.36 (KHTML, like Gecko) Chrome/106.0.0.0 Safari/537.36 Edg/106.0.1370.52","WebKit","Edge","106.0.1370.52","Windows","10.0","null","<div style=""font-size:60px;"">+</div>","null",""
"","","","","","html-button-response","59","461167","0.0-4.0-1.27","35","1","2022-10-25 14:19:17","ebf9627b049f568eb4bf28942cb89901","112.40.23.199","Mozilla/5.0 (Windows NT 10.0; Win64; x64) AppleWebKit/537.36 (KHTML, like Gecko) Chrome/106.0.0.0 Safari/537.36 Edg/106.0.1370.52","WebKit","Edge","106.0.1370.52","Windows","10.0","1461","<p>作为军队的指挥官，你可以选择发射导弹杀死 <strong>5名</strong> 敌国士兵，但会误杀附近的 <strong>1名</strong> 敌国平民。</p> <p>平民照片如下图所示。</p> <p></p> <img src='stimuli/faces/NFF2.jpg', style='max-width: 30%;'> </img> <p><strong>你是否选择发射武器？</strong></p>","1",""
"","","","","","html-keyboard-response","60","462179","0.0-4.0-0.28","35","1","2022-10-25 14:19:17","ebf9627b049f568eb4bf28942cb89901","112.40.23.199","Mozilla/5.0 (Windows NT 10.0; Win64; x64) AppleWebKit/537.36 (KHTML, like Gecko) Chrome/106.0.0.0 Safari/537.36 Edg/106.0.1370.52","WebKit","Edge","106.0.1370.52","Windows","10.0","null","<div style=""font-size:60px;"">+</div>","null",""
"","","","","","html-button-response","61","463552","0.0-4.0-1.28","35","1","2022-10-25 14:19:17","ebf9627b049f568eb4bf28942cb89901","112.40.23.199","Mozilla/5.0 (Windows NT 10.0; Win64; x64) AppleWebKit/537.36 (KHTML, like Gecko) Chrome/106.0.0.0 Safari/537.36 Edg/106.0.1370.52","WebKit","Edge","106.0.1370.52","Windows","10.0","1372","<p>作为军队的指挥官，你可以选择发射导弹杀死 <strong>8名</strong> 敌国士兵，但会炸毁附近的 <strong>1棵</strong> 敌国树木。</p> <p>树木的照片如下图所示。</p> <p></p> <img src='stimuli/trees/8.png', style='max-width: 30%;'> </img> <p><strong>你是否选择发射武器？</strong></p>","0",""
"","","","","","html-keyboard-response","62","464560","0.0-4.0-0.29","35","1","2022-10-25 14:19:17","ebf9627b049f568eb4bf28942cb89901","112.40.23.199","Mozilla/5.0 (Windows NT 10.0; Win64; x64) AppleWebKit/537.36 (KHTML, like Gecko) Chrome/106.0.0.0 Safari/537.36 Edg/106.0.1370.52","WebKit","Edge","106.0.1370.52","Windows","10.0","null","<div style=""font-size:60px;"">+</div>","null",""
"","","","","","html-button-response","63","465943","0.0-4.0-1.29","35","1","2022-10-25 14:19:17","ebf9627b049f568eb4bf28942cb89901","112.40.23.199","Mozilla/5.0 (Windows NT 10.0; Win64; x64) AppleWebKit/537.36 (KHTML, like Gecko) Chrome/106.0.0.0 Safari/537.36 Edg/106.0.1370.52","WebKit","Edge","106.0.1370.52","Windows","10.0","1382","<p>作为军队的指挥官，你可以选择发射导弹杀死 <strong>5名</strong> 敌国士兵，但会误杀附近的 <strong>1名</strong> 敌国平民。</p> <p>平民照片如下图所示。</p> <p></p> <img src='stimuli/faces/NFM3.jpg', style='max-width: 30%;'> </img> <p><strong>你是否选择发射武器？</strong></p>","1",""
"","","","","","html-keyboard-response","64","466954","0.0-4.0-0.30","35","1","2022-10-25 14:19:17","ebf9627b049f568eb4bf28942cb89901","112.40.23.199","Mozilla/5.0 (Windows NT 10.0; Win64; x64) AppleWebKit/537.36 (KHTML, like Gecko) Chrome/106.0.0.0 Safari/537.36 Edg/106.0.1370.52","WebKit","Edge","106.0.1370.52","Windows","10.0","null","<div style=""font-size:60px;"">+</div>","null",""
"","","","","","html-button-response","65","467988","0.0-4.0-1.30","35","1","2022-10-25 14:19:17","ebf9627b049f568eb4bf28942cb89901","112.40.23.199","Mozilla/5.0 (Windows NT 10.0; Win64; x64) AppleWebKit/537.36 (KHTML, like Gecko) Chrome/106.0.0.0 Safari/537.36 Edg/106.0.1370.52","WebKit","Edge","106.0.1370.52","Windows","10.0","1033","<p>作为军队的指挥官，你可以选择发射导弹杀死 <strong>4名</strong> 敌国士兵，但会误杀附近的 <strong>1名</strong> 敌国平民。</p> <p>平民照片如下图所示。</p> <p></p> <img src='stimuli/faces/NFF1.jpg', style='max-width: 30%;'> </img> <p><strong>你是否选择发射武器？</strong></p>","1",""
"","","","","","html-keyboard-response","66","468997","0.0-4.0-0.31","35","1","2022-10-25 14:19:17","ebf9627b049f568eb4bf28942cb89901","112.40.23.199","Mozilla/5.0 (Windows NT 10.0; Win64; x64) AppleWebKit/537.36 (KHTML, like Gecko) Chrome/106.0.0.0 Safari/537.36 Edg/106.0.1370.52","WebKit","Edge","106.0.1370.52","Windows","10.0","null","<div style=""font-size:60px;"">+</div>","null",""
"","","","","","html-button-response","67","470354","0.0-4.0-1.31","35","1","2022-10-25 14:19:17","ebf9627b049f568eb4bf28942cb89901","112.40.23.199","Mozilla/5.0 (Windows NT 10.0; Win64; x64) AppleWebKit/537.36 (KHTML, like Gecko) Chrome/106.0.0.0 Safari/537.36 Edg/106.0.1370.52","WebKit","Edge","106.0.1370.52","Windows","10.0","1355","<p>作为军队的指挥官，你可以选择发射导弹杀死 <strong>5名</strong> 敌国士兵，但会炸毁附近的 <strong>1棵</strong> 敌国树木。</p> <p>树木的照片如下图所示。</p> <p></p> <img src='stimuli/trees/8.png', style='max-width: 30%;'> </img> <p><strong>你是否选择发射武器？</strong></p>","0",""
"","","","","","html-keyboard-response","68","471365","0.0-4.0-0.32","35","1","2022-10-25 14:19:17","ebf9627b049f568eb4bf28942cb89901","112.40.23.199","Mozilla/5.0 (Windows NT 10.0; Win64; x64) AppleWebKit/537.36 (KHTML, like Gecko) Chrome/106.0.0.0 Safari/537.36 Edg/106.0.1370.52","WebKit","Edge","106.0.1370.52","Windows","10.0","null","<div style=""font-size:60px;"">+</div>","null",""
"","","","","","html-button-response","69","472052","0.0-4.0-1.32","35","1","2022-10-25 14:19:17","ebf9627b049f568eb4bf28942cb89901","112.40.23.199","Mozilla/5.0 (Windows NT 10.0; Win64; x64) AppleWebKit/537.36 (KHTML, like Gecko) Chrome/106.0.0.0 Safari/537.36 Edg/106.0.1370.52","WebKit","Edge","106.0.1370.52","Windows","10.0","686","<p>作为军队的指挥官，你可以选择发射导弹杀死 <strong>6名</strong> 敌国士兵，但会误杀附近的 <strong>1名</strong> 敌国平民。</p> <p>平民照片如下图所示。</p> <p></p> <img src='stimuli/faces/NFM4.jpg', style='max-width: 30%;'> </img> <p><strong>你是否选择发射武器？</strong></p>","1",""
"","","","","","html-keyboard-response","70","473064","0.0-4.0-0.33","35","1","2022-10-25 14:19:17","ebf9627b049f568eb4bf28942cb89901","112.40.23.199","Mozilla/5.0 (Windows NT 10.0; Win64; x64) AppleWebKit/537.36 (KHTML, like Gecko) Chrome/106.0.0.0 Safari/537.36 Edg/106.0.1370.52","WebKit","Edge","106.0.1370.52","Windows","10.0","null","<div style=""font-size:60px;"">+</div>","null",""
"","","","","","html-button-response","71","473895","0.0-4.0-1.33","35","1","2022-10-25 14:19:17","ebf9627b049f568eb4bf28942cb89901","112.40.23.199","Mozilla/5.0 (Windows NT 10.0; Win64; x64) AppleWebKit/537.36 (KHTML, like Gecko) Chrome/106.0.0.0 Safari/537.36 Edg/106.0.1370.52","WebKit","Edge","106.0.1370.52","Windows","10.0","829","<p>作为军队的指挥官，你可以选择发射导弹杀死 <strong>8名</strong> 敌国士兵，但会炸毁附近的 <strong>1棵</strong> 敌国树木。</p> <p>树木的照片如下图所示。</p> <p></p> <img src='stimuli/trees/14.png', style='max-width: 30%;'> </img> <p><strong>你是否选择发射武器？</strong></p>","0",""
"","","","","","html-keyboard-response","72","474909","0.0-4.0-0.34","35","1","2022-10-25 14:19:17","ebf9627b049f568eb4bf28942cb89901","112.40.23.199","Mozilla/5.0 (Windows NT 10.0; Win64; x64) AppleWebKit/537.36 (KHTML, like Gecko) Chrome/106.0.0.0 Safari/537.36 Edg/106.0.1370.52","WebKit","Edge","106.0.1370.52","Windows","10.0","null","<div style=""font-size:60px;"">+</div>","null",""
"","","","","","html-button-response","73","476200","0.0-4.0-1.34","35","1","2022-10-25 14:19:17","ebf9627b049f568eb4bf28942cb89901","112.40.23.199","Mozilla/5.0 (Windows NT 10.0; Win64; x64) AppleWebKit/537.36 (KHTML, like Gecko) Chrome/106.0.0.0 Safari/537.36 Edg/106.0.1370.52","WebKit","Edge","106.0.1370.52","Windows","10.0","1290","<p>作为军队的指挥官，你可以选择发射导弹杀死 <strong>5名</strong> 敌国士兵，但会炸毁附近的 <strong>1棵</strong> 敌国树木。</p> <p>树木的照片如下图所示。</p> <p></p> <img src='stimuli/trees/14.png', style='max-width: 30%;'> </img> <p><strong>你是否选择发射武器？</strong></p>","0",""
"","","","","","html-keyboard-response","74","477210","0.0-4.0-0.35","35","1","2022-10-25 14:19:17","ebf9627b049f568eb4bf28942cb89901","112.40.23.199","Mozilla/5.0 (Windows NT 10.0; Win64; x64) AppleWebKit/537.36 (KHTML, like Gecko) Chrome/106.0.0.0 Safari/537.36 Edg/106.0.1370.52","WebKit","Edge","106.0.1370.52","Windows","10.0","null","<div style=""font-size:60px;"">+</div>","null",""
"","","","","","html-button-response","75","478055","0.0-4.0-1.35","35","1","2022-10-25 14:19:17","ebf9627b049f568eb4bf28942cb89901","112.40.23.199","Mozilla/5.0 (Windows NT 10.0; Win64; x64) AppleWebKit/537.36 (KHTML, like Gecko) Chrome/106.0.0.0 Safari/537.36 Edg/106.0.1370.52","WebKit","Edge","106.0.1370.52","Windows","10.0","843","<p>作为军队的指挥官，你可以选择发射导弹杀死 <strong>7名</strong> 敌国士兵，但会炸毁附近的 <strong>1棵</strong> 敌国树木。</p> <p>树木的照片如下图所示。</p> <p></p> <img src='stimuli/trees/5.png', style='max-width: 30%;'> </img> <p><strong>你是否选择发射武器？</strong></p>","0",""
"","","","","","html-keyboard-response","76","479061","0.0-4.0-0.36","35","1","2022-10-25 14:19:17","ebf9627b049f568eb4bf28942cb89901","112.40.23.199","Mozilla/5.0 (Windows NT 10.0; Win64; x64) AppleWebKit/537.36 (KHTML, like Gecko) Chrome/106.0.0.0 Safari/537.36 Edg/106.0.1370.52","WebKit","Edge","106.0.1370.52","Windows","10.0","null","<div style=""font-size:60px;"">+</div>","null",""
"","","","","","html-button-response","77","479789","0.0-4.0-1.36","35","1","2022-10-25 14:19:17","ebf9627b049f568eb4bf28942cb89901","112.40.23.199","Mozilla/5.0 (Windows NT 10.0; Win64; x64) AppleWebKit/537.36 (KHTML, like Gecko) Chrome/106.0.0.0 Safari/537.36 Edg/106.0.1370.52","WebKit","Edge","106.0.1370.52","Windows","10.0","727","<p>作为军队的指挥官，你可以选择发射导弹杀死 <strong>10名</strong> 敌国士兵，但会炸毁附近的 <strong>1棵</strong> 敌国树木。</p> <p>树木的照片如下图所示。</p> <p></p> <img src='stimuli/trees/4.png', style='max-width: 30%;'> </img> <p><strong>你是否选择发射武器？</strong></p>","0",""
"","","","","","html-keyboard-response","78","480799","0.0-4.0-0.37","35","1","2022-10-25 14:19:17","ebf9627b049f568eb4bf28942cb89901","112.40.23.199","Mozilla/5.0 (Windows NT 10.0; Win64; x64) AppleWebKit/537.36 (KHTML, like Gecko) Chrome/106.0.0.0 Safari/537.36 Edg/106.0.1370.52","WebKit","Edge","106.0.1370.52","Windows","10.0","null","<div style=""font-size:60px;"">+</div>","null",""
"","","","","","html-button-response","79","482244","0.0-4.0-1.37","35","1","2022-10-25 14:19:17","ebf9627b049f568eb4bf28942cb89901","112.40.23.199","Mozilla/5.0 (Windows NT 10.0; Win64; x64) AppleWebKit/537.36 (KHTML, like Gecko) Chrome/106.0.0.0 Safari/537.36 Edg/106.0.1370.52","WebKit","Edge","106.0.1370.52","Windows","10.0","1443","<p>作为军队的指挥官，你可以选择发射导弹杀死 <strong>8名</strong> 敌国士兵，但会误杀附近的 <strong>1名</strong> 敌国平民。</p> <p>平民照片如下图所示。</p> <p></p> <img src='stimuli/faces/NFF6.jpg', style='max-width: 30%;'> </img> <p><strong>你是否选择发射武器？</strong></p>","1",""
"","","","","","html-keyboard-response","80","483263","0.0-4.0-0.38","35","1","2022-10-25 14:19:17","ebf9627b049f568eb4bf28942cb89901","112.40.23.199","Mozilla/5.0 (Windows NT 10.0; Win64; x64) AppleWebKit/537.36 (KHTML, like Gecko) Chrome/106.0.0.0 Safari/537.36 Edg/106.0.1370.52","WebKit","Edge","106.0.1370.52","Windows","10.0","null","<div style=""font-size:60px;"">+</div>","null",""
"","","","","","html-button-response","81","484462","0.0-4.0-1.38","35","1","2022-10-25 14:19:17","ebf9627b049f568eb4bf28942cb89901","112.40.23.199","Mozilla/5.0 (Windows NT 10.0; Win64; x64) AppleWebKit/537.36 (KHTML, like Gecko) Chrome/106.0.0.0 Safari/537.36 Edg/106.0.1370.52","WebKit","Edge","106.0.1370.52","Windows","10.0","1197","<p>作为军队的指挥官，你可以选择发射导弹杀死 <strong>7名</strong> 敌国士兵，但会误杀附近的 <strong>1名</strong> 敌国平民。</p> <p>平民照片如下图所示。</p> <p></p> <img src='stimuli/faces/NFM8.jpg', style='max-width: 30%;'> </img> <p><strong>你是否选择发射武器？</strong></p>","1",""
"","","","","","html-keyboard-response","82","485467","0.0-4.0-0.39","35","1","2022-10-25 14:19:17","ebf9627b049f568eb4bf28942cb89901","112.40.23.199","Mozilla/5.0 (Windows NT 10.0; Win64; x64) AppleWebKit/537.36 (KHTML, like Gecko) Chrome/106.0.0.0 Safari/537.36 Edg/106.0.1370.52","WebKit","Edge","106.0.1370.52","Windows","10.0","null","<div style=""font-size:60px;"">+</div>","null",""
"","","","","","html-button-response","83","488113","0.0-4.0-1.39","35","1","2022-10-25 14:19:17","ebf9627b049f568eb4bf28942cb89901","112.40.23.199","Mozilla/5.0 (Windows NT 10.0; Win64; x64) AppleWebKit/537.36 (KHTML, like Gecko) Chrome/106.0.0.0 Safari/537.36 Edg/106.0.1370.52","WebKit","Edge","106.0.1370.52","Windows","10.0","2645","<p>作为军队的指挥官，你可以选择发射导弹杀死 <strong>5名</strong> 敌国士兵，但会炸毁附近的 <strong>1棵</strong> 敌国树木。</p> <p>树木的照片如下图所示。</p> <p></p> <img src='stimuli/trees/3.png', style='max-width: 30%;'> </img> <p><strong>你是否选择发射武器？</strong></p>","0",""
"","","","","","html-keyboard-response","84","489127","0.0-4.0-0.40","35","1","2022-10-25 14:19:17","ebf9627b049f568eb4bf28942cb89901","112.40.23.199","Mozilla/5.0 (Windows NT 10.0; Win64; x64) AppleWebKit/537.36 (KHTML, like Gecko) Chrome/106.0.0.0 Safari/537.36 Edg/106.0.1370.52","WebKit","Edge","106.0.1370.52","Windows","10.0","null","<div style=""font-size:60px;"">+</div>","null",""
"","","","","","html-button-response","85","490219","0.0-4.0-1.40","35","1","2022-10-25 14:19:17","ebf9627b049f568eb4bf28942cb89901","112.40.23.199","Mozilla/5.0 (Windows NT 10.0; Win64; x64) AppleWebKit/537.36 (KHTML, like Gecko) Chrome/106.0.0.0 Safari/537.36 Edg/106.0.1370.52","WebKit","Edge","106.0.1370.52","Windows","10.0","1091","<p>作为军队的指挥官，你可以选择发射导弹杀死 <strong>10名</strong> 敌国士兵，但会误杀附近的 <strong>1名</strong> 敌国平民。</p> <p>平民照片如下图所示。</p> <p></p> <img src='stimuli/faces/NFF2.jpg', style='max-width: 30%;'> </img> <p><strong>你是否选择发射武器？</strong></p>","1",""
"","","","","","html-keyboard-response","86","491226","0.0-4.0-0.41","35","1","2022-10-25 14:19:17","ebf9627b049f568eb4bf28942cb89901","112.40.23.199","Mozilla/5.0 (Windows NT 10.0; Win64; x64) AppleWebKit/537.36 (KHTML, like Gecko) Chrome/106.0.0.0 Safari/537.36 Edg/106.0.1370.52","WebKit","Edge","106.0.1370.52","Windows","10.0","null","<div style=""font-size:60px;"">+</div>","null",""
"","","","","","html-button-response","87","492908","0.0-4.0-1.41","35","1","2022-10-25 14:19:17","ebf9627b049f568eb4bf28942cb89901","112.40.23.199","Mozilla/5.0 (Windows NT 10.0; Win64; x64) AppleWebKit/537.36 (KHTML, like Gecko) Chrome/106.0.0.0 Safari/537.36 Edg/106.0.1370.52","WebKit","Edge","106.0.1370.52","Windows","10.0","1681","<p>作为军队的指挥官，你可以选择发射导弹杀死 <strong>2名</strong> 敌国士兵，但会误杀附近的 <strong>1名</strong> 敌国平民。</p> <p>平民照片如下图所示。</p> <p></p> <img src='stimuli/faces/NFM8.jpg', style='max-width: 30%;'> </img> <p><strong>你是否选择发射武器？</strong></p>","1",""
"","","","","","html-keyboard-response","88","493918","0.0-4.0-0.42","35","1","2022-10-25 14:19:17","ebf9627b049f568eb4bf28942cb89901","112.40.23.199","Mozilla/5.0 (Windows NT 10.0; Win64; x64) AppleWebKit/537.36 (KHTML, like Gecko) Chrome/106.0.0.0 Safari/537.36 Edg/106.0.1370.52","WebKit","Edge","106.0.1370.52","Windows","10.0","null","<div style=""font-size:60px;"">+</div>","null",""
"","","","","","html-button-response","89","495211","0.0-4.0-1.42","35","1","2022-10-25 14:19:17","ebf9627b049f568eb4bf28942cb89901","112.40.23.199","Mozilla/5.0 (Windows NT 10.0; Win64; x64) AppleWebKit/537.36 (KHTML, like Gecko) Chrome/106.0.0.0 Safari/537.36 Edg/106.0.1370.52","WebKit","Edge","106.0.1370.52","Windows","10.0","1292","<p>作为军队的指挥官，你可以选择发射导弹杀死 <strong>4名</strong> 敌国士兵，但会炸毁附近的 <strong>1棵</strong> 敌国树木。</p> <p>树木的照片如下图所示。</p> <p></p> <img src='stimuli/trees/16.png', style='max-width: 30%;'> </img> <p><strong>你是否选择发射武器？</strong></p>","0",""
"","","","","","html-keyboard-response","90","496218","0.0-4.0-0.43","35","1","2022-10-25 14:19:17","ebf9627b049f568eb4bf28942cb89901","112.40.23.199","Mozilla/5.0 (Windows NT 10.0; Win64; x64) AppleWebKit/537.36 (KHTML, like Gecko) Chrome/106.0.0.0 Safari/537.36 Edg/106.0.1370.52","WebKit","Edge","106.0.1370.52","Windows","10.0","null","<div style=""font-size:60px;"">+</div>","null",""
"","","","","","html-button-response","91","497028","0.0-4.0-1.43","35","1","2022-10-25 14:19:17","ebf9627b049f568eb4bf28942cb89901","112.40.23.199","Mozilla/5.0 (Windows NT 10.0; Win64; x64) AppleWebKit/537.36 (KHTML, like Gecko) Chrome/106.0.0.0 Safari/537.36 Edg/106.0.1370.52","WebKit","Edge","106.0.1370.52","Windows","10.0","808","<p>作为军队的指挥官，你可以选择发射导弹杀死 <strong>4名</strong> 敌国士兵，但会误杀附近的 <strong>1名</strong> 敌国平民。</p> <p>平民照片如下图所示。</p> <p></p> <img src='stimuli/faces/NFM6.jpg', style='max-width: 30%;'> </img> <p><strong>你是否选择发射武器？</strong></p>","1",""
"","","","","","html-keyboard-response","92","498039","0.0-4.0-0.44","35","1","2022-10-25 14:19:17","ebf9627b049f568eb4bf28942cb89901","112.40.23.199","Mozilla/5.0 (Windows NT 10.0; Win64; x64) AppleWebKit/537.36 (KHTML, like Gecko) Chrome/106.0.0.0 Safari/537.36 Edg/106.0.1370.52","WebKit","Edge","106.0.1370.52","Windows","10.0","null","<div style=""font-size:60px;"">+</div>","null",""
"","","","","","html-button-response","93","498752","0.0-4.0-1.44","35","1","2022-10-25 14:19:17","ebf9627b049f568eb4bf28942cb89901","112.40.23.199","Mozilla/5.0 (Windows NT 10.0; Win64; x64) AppleWebKit/537.36 (KHTML, like Gecko) Chrome/106.0.0.0 Safari/537.36 Edg/106.0.1370.52","WebKit","Edge","106.0.1370.52","Windows","10.0","711","<p>作为军队的指挥官，你可以选择发射导弹杀死 <strong>9名</strong> 敌国士兵，但会误杀附近的 <strong>1名</strong> 敌国平民。</p> <p>平民照片如下图所示。</p> <p></p> <img src='stimuli/faces/NFM7.jpg', style='max-width: 30%;'> </img> <p><strong>你是否选择发射武器？</strong></p>","1",""
"","","","","","html-keyboard-response","94","499763","0.0-4.0-0.45","35","1","2022-10-25 14:19:17","ebf9627b049f568eb4bf28942cb89901","112.40.23.199","Mozilla/5.0 (Windows NT 10.0; Win64; x64) AppleWebKit/537.36 (KHTML, like Gecko) Chrome/106.0.0.0 Safari/537.36 Edg/106.0.1370.52","WebKit","Edge","106.0.1370.52","Windows","10.0","null","<div style=""font-size:60px;"">+</div>","null",""
"","","","","","html-button-response","95","500477","0.0-4.0-1.45","35","1","2022-10-25 14:19:17","ebf9627b049f568eb4bf28942cb89901","112.40.23.199","Mozilla/5.0 (Windows NT 10.0; Win64; x64) AppleWebKit/537.36 (KHTML, like Gecko) Chrome/106.0.0.0 Safari/537.36 Edg/106.0.1370.52","WebKit","Edge","106.0.1370.52","Windows","10.0","712","<p>作为军队的指挥官，你可以选择发射导弹杀死 <strong>9名</strong> 敌国士兵，但会误杀附近的 <strong>1名</strong> 敌国平民。</p> <p>平民照片如下图所示。</p> <p></p> <img src='stimuli/faces/NFM2.jpg', style='max-width: 30%;'> </img> <p><strong>你是否选择发射武器？</strong></p>","1",""
"","","","","","html-keyboard-response","96","501489","0.0-4.0-0.46","35","1","2022-10-25 14:19:17","ebf9627b049f568eb4bf28942cb89901","112.40.23.199","Mozilla/5.0 (Windows NT 10.0; Win64; x64) AppleWebKit/537.36 (KHTML, like Gecko) Chrome/106.0.0.0 Safari/537.36 Edg/106.0.1370.52","WebKit","Edge","106.0.1370.52","Windows","10.0","null","<div style=""font-size:60px;"">+</div>","null",""
"","","","","","html-button-response","97","502842","0.0-4.0-1.46","35","1","2022-10-25 14:19:17","ebf9627b049f568eb4bf28942cb89901","112.40.23.199","Mozilla/5.0 (Windows NT 10.0; Win64; x64) AppleWebKit/537.36 (KHTML, like Gecko) Chrome/106.0.0.0 Safari/537.36 Edg/106.0.1370.52","WebKit","Edge","106.0.1370.52","Windows","10.0","1351","<p>作为军队的指挥官，你可以选择发射导弹杀死 <strong>9名</strong> 敌国士兵，但会炸毁附近的 <strong>1棵</strong> 敌国树木。</p> <p>树木的照片如下图所示。</p> <p></p> <img src='stimuli/trees/12.png', style='max-width: 30%;'> </img> <p><strong>你是否选择发射武器？</strong></p>","0",""
"","","","","","html-keyboard-response","98","503856","0.0-4.0-0.47","35","1","2022-10-25 14:19:17","ebf9627b049f568eb4bf28942cb89901","112.40.23.199","Mozilla/5.0 (Windows NT 10.0; Win64; x64) AppleWebKit/537.36 (KHTML, like Gecko) Chrome/106.0.0.0 Safari/537.36 Edg/106.0.1370.52","WebKit","Edge","106.0.1370.52","Windows","10.0","null","<div style=""font-size:60px;"">+</div>","null",""
"","","","","","html-button-response","99","505051","0.0-4.0-1.47","35","1","2022-10-25 14:19:17","ebf9627b049f568eb4bf28942cb89901","112.40.23.199","Mozilla/5.0 (Windows NT 10.0; Win64; x64) AppleWebKit/537.36 (KHTML, like Gecko) Chrome/106.0.0.0 Safari/537.36 Edg/106.0.1370.52","WebKit","Edge","106.0.1370.52","Windows","10.0","1194","<p>作为军队的指挥官，你可以选择发射导弹杀死 <strong>9名</strong> 敌国士兵，但会误杀附近的 <strong>1名</strong> 敌国平民。</p> <p>平民照片如下图所示。</p> <p></p> <img src='stimuli/faces/NFF4.jpg', style='max-width: 30%;'> </img> <p><strong>你是否选择发射武器？</strong></p>","1",""
"","","","","","html-keyboard-response","100","506059","0.0-4.0-0.48","35","1","2022-10-25 14:19:17","ebf9627b049f568eb4bf28942cb89901","112.40.23.199","Mozilla/5.0 (Windows NT 10.0; Win64; x64) AppleWebKit/537.36 (KHTML, like Gecko) Chrome/106.0.0.0 Safari/537.36 Edg/106.0.1370.52","WebKit","Edge","106.0.1370.52","Windows","10.0","null","<div style=""font-size:60px;"">+</div>","null",""
"","","","","","html-button-response","101","508039","0.0-4.0-1.48","35","1","2022-10-25 14:19:17","ebf9627b049f568eb4bf28942cb89901","112.40.23.199","Mozilla/5.0 (Windows NT 10.0; Win64; x64) AppleWebKit/537.36 (KHTML, like Gecko) Chrome/106.0.0.0 Safari/537.36 Edg/106.0.1370.52","WebKit","Edge","106.0.1370.52","Windows","10.0","1978","<p>作为军队的指挥官，你可以选择发射导弹杀死 <strong>5名</strong> 敌国士兵，但会炸毁附近的 <strong>1棵</strong> 敌国树木。</p> <p>树木的照片如下图所示。</p> <p></p> <img src='stimuli/trees/11.png', style='max-width: 30%;'> </img> <p><strong>你是否选择发射武器？</strong></p>","0",""
"","","","","","html-keyboard-response","102","509049","0.0-4.0-0.49","35","1","2022-10-25 14:19:17","ebf9627b049f568eb4bf28942cb89901","112.40.23.199","Mozilla/5.0 (Windows NT 10.0; Win64; x64) AppleWebKit/537.36 (KHTML, like Gecko) Chrome/106.0.0.0 Safari/537.36 Edg/106.0.1370.52","WebKit","Edge","106.0.1370.52","Windows","10.0","null","<div style=""font-size:60px;"">+</div>","null",""
"","","","","","html-button-response","103","509830","0.0-4.0-1.49","35","1","2022-10-25 14:19:17","ebf9627b049f568eb4bf28942cb89901","112.40.23.199","Mozilla/5.0 (Windows NT 10.0; Win64; x64) AppleWebKit/537.36 (KHTML, like Gecko) Chrome/106.0.0.0 Safari/537.36 Edg/106.0.1370.52","WebKit","Edge","106.0.1370.52","Windows","10.0","779","<p>作为军队的指挥官，你可以选择发射导弹杀死 <strong>6名</strong> 敌国士兵，但会炸毁附近的 <strong>1棵</strong> 敌国树木。</p> <p>树木的照片如下图所示。</p> <p></p> <img src='stimuli/trees/15.png', style='max-width: 30%;'> </img> <p><strong>你是否选择发射武器？</strong></p>","0",""
"","","","","","html-keyboard-response","104","510836","0.0-4.0-0.50","35","1","2022-10-25 14:19:17","ebf9627b049f568eb4bf28942cb89901","112.40.23.199","Mozilla/5.0 (Windows NT 10.0; Win64; x64) AppleWebKit/537.36 (KHTML, like Gecko) Chrome/106.0.0.0 Safari/537.36 Edg/106.0.1370.52","WebKit","Edge","106.0.1370.52","Windows","10.0","null","<div style=""font-size:60px;"">+</div>","null",""
"","","","","","html-button-response","105","511649","0.0-4.0-1.50","35","1","2022-10-25 14:19:17","ebf9627b049f568eb4bf28942cb89901","112.40.23.199","Mozilla/5.0 (Windows NT 10.0; Win64; x64) AppleWebKit/537.36 (KHTML, like Gecko) Chrome/106.0.0.0 Safari/537.36 Edg/106.0.1370.52","WebKit","Edge","106.0.1370.52","Windows","10.0","811","<p>作为军队的指挥官，你可以选择发射导弹杀死 <strong>9名</strong> 敌国士兵，但会炸毁附近的 <strong>1棵</strong> 敌国树木。</p> <p>树木的照片如下图所示。</p> <p></p> <img src='stimuli/trees/1.png', style='max-width: 30%;'> </img> <p><strong>你是否选择发射武器？</strong></p>","0",""
"","","","","","html-keyboard-response","106","512660","0.0-4.0-0.51","35","1","2022-10-25 14:19:17","ebf9627b049f568eb4bf28942cb89901","112.40.23.199","Mozilla/5.0 (Windows NT 10.0; Win64; x64) AppleWebKit/537.36 (KHTML, like Gecko) Chrome/106.0.0.0 Safari/537.36 Edg/106.0.1370.52","WebKit","Edge","106.0.1370.52","Windows","10.0","null","<div style=""font-size:60px;"">+</div>","null",""
"","","","","","html-button-response","107","514001","0.0-4.0-1.51","35","1","2022-10-25 14:19:17","ebf9627b049f568eb4bf28942cb89901","112.40.23.199","Mozilla/5.0 (Windows NT 10.0; Win64; x64) AppleWebKit/537.36 (KHTML, like Gecko) Chrome/106.0.0.0 Safari/537.36 Edg/106.0.1370.52","WebKit","Edge","106.0.1370.52","Windows","10.0","1340","<p>作为军队的指挥官，你可以选择发射导弹杀死 <strong>8名</strong> 敌国士兵，但会误杀附近的 <strong>1名</strong> 敌国平民。</p> <p>平民照片如下图所示。</p> <p></p> <img src='stimuli/faces/NFF7.jpg', style='max-width: 30%;'> </img> <p><strong>你是否选择发射武器？</strong></p>","1",""
"","","","","","html-keyboard-response","108","515009","0.0-4.0-0.52","35","1","2022-10-25 14:19:17","ebf9627b049f568eb4bf28942cb89901","112.40.23.199","Mozilla/5.0 (Windows NT 10.0; Win64; x64) AppleWebKit/537.36 (KHTML, like Gecko) Chrome/106.0.0.0 Safari/537.36 Edg/106.0.1370.52","WebKit","Edge","106.0.1370.52","Windows","10.0","null","<div style=""font-size:60px;"">+</div>","null",""
"","","","","","html-button-response","109","515838","0.0-4.0-1.52","35","1","2022-10-25 14:19:17","ebf9627b049f568eb4bf28942cb89901","112.40.23.199","Mozilla/5.0 (Windows NT 10.0; Win64; x64) AppleWebKit/537.36 (KHTML, like Gecko) Chrome/106.0.0.0 Safari/537.36 Edg/106.0.1370.52","WebKit","Edge","106.0.1370.52","Windows","10.0","827","<p>作为军队的指挥官，你可以选择发射导弹杀死 <strong>9名</strong> 敌国士兵，但会炸毁附近的 <strong>1棵</strong> 敌国树木。</p> <p>树木的照片如下图所示。</p> <p></p> <img src='stimuli/trees/9.png', style='max-width: 30%;'> </img> <p><strong>你是否选择发射武器？</strong></p>","0",""
"","","","","","html-keyboard-response","110","516848","0.0-4.0-0.53","35","1","2022-10-25 14:19:17","ebf9627b049f568eb4bf28942cb89901","112.40.23.199","Mozilla/5.0 (Windows NT 10.0; Win64; x64) AppleWebKit/537.36 (KHTML, like Gecko) Chrome/106.0.0.0 Safari/537.36 Edg/106.0.1370.52","WebKit","Edge","106.0.1370.52","Windows","10.0","null","<div style=""font-size:60px;"">+</div>","null",""
"","","","","","html-button-response","111","517688","0.0-4.0-1.53","35","1","2022-10-25 14:19:17","ebf9627b049f568eb4bf28942cb89901","112.40.23.199","Mozilla/5.0 (Windows NT 10.0; Win64; x64) AppleWebKit/537.36 (KHTML, like Gecko) Chrome/106.0.0.0 Safari/537.36 Edg/106.0.1370.52","WebKit","Edge","106.0.1370.52","Windows","10.0","838","<p>作为军队的指挥官，你可以选择发射导弹杀死 <strong>3名</strong> 敌国士兵，但会炸毁附近的 <strong>1棵</strong> 敌国树木。</p> <p>树木的照片如下图所示。</p> <p></p> <img src='stimuli/trees/4.png', style='max-width: 30%;'> </img> <p><strong>你是否选择发射武器？</strong></p>","0",""
"","","","","","html-keyboard-response","112","518699","0.0-4.0-0.54","35","1","2022-10-25 14:19:17","ebf9627b049f568eb4bf28942cb89901","112.40.23.199","Mozilla/5.0 (Windows NT 10.0; Win64; x64) AppleWebKit/537.36 (KHTML, like Gecko) Chrome/106.0.0.0 Safari/537.36 Edg/106.0.1370.52","WebKit","Edge","106.0.1370.52","Windows","10.0","null","<div style=""font-size:60px;"">+</div>","null",""
"","","","","","html-button-response","113","520881","0.0-4.0-1.54","35","1","2022-10-25 14:19:17","ebf9627b049f568eb4bf28942cb89901","112.40.23.199","Mozilla/5.0 (Windows NT 10.0; Win64; x64) AppleWebKit/537.36 (KHTML, like Gecko) Chrome/106.0.0.0 Safari/537.36 Edg/106.0.1370.52","WebKit","Edge","106.0.1370.52","Windows","10.0","2180","<p>作为军队的指挥官，你可以选择发射导弹杀死 <strong>9名</strong> 敌国士兵，但会误杀附近的 <strong>1名</strong> 敌国平民。</p> <p>平民照片如下图所示。</p> <p></p> <img src='stimuli/faces/NFF3.jpg', style='max-width: 30%;'> </img> <p><strong>你是否选择发射武器？</strong></p>","1",""
"","","","","","html-keyboard-response","114","521889","0.0-4.0-0.55","35","1","2022-10-25 14:19:17","ebf9627b049f568eb4bf28942cb89901","112.40.23.199","Mozilla/5.0 (Windows NT 10.0; Win64; x64) AppleWebKit/537.36 (KHTML, like Gecko) Chrome/106.0.0.0 Safari/537.36 Edg/106.0.1370.52","WebKit","Edge","106.0.1370.52","Windows","10.0","null","<div style=""font-size:60px;"">+</div>","null",""
"","","","","","html-button-response","115","523045","0.0-4.0-1.55","35","1","2022-10-25 14:19:17","ebf9627b049f568eb4bf28942cb89901","112.40.23.199","Mozilla/5.0 (Windows NT 10.0; Win64; x64) AppleWebKit/537.36 (KHTML, like Gecko) Chrome/106.0.0.0 Safari/537.36 Edg/106.0.1370.52","WebKit","Edge","106.0.1370.52","Windows","10.0","1154","<p>作为军队的指挥官，你可以选择发射导弹杀死 <strong>5名</strong> 敌国士兵，但会炸毁附近的 <strong>1棵</strong> 敌国树木。</p> <p>树木的照片如下图所示。</p> <p></p> <img src='stimuli/trees/7.png', style='max-width: 30%;'> </img> <p><strong>你是否选择发射武器？</strong></p>","0",""
"","","","","","html-keyboard-response","116","524052","0.0-4.0-0.56","35","1","2022-10-25 14:19:17","ebf9627b049f568eb4bf28942cb89901","112.40.23.199","Mozilla/5.0 (Windows NT 10.0; Win64; x64) AppleWebKit/537.36 (KHTML, like Gecko) Chrome/106.0.0.0 Safari/537.36 Edg/106.0.1370.52","WebKit","Edge","106.0.1370.52","Windows","10.0","null","<div style=""font-size:60px;"">+</div>","null",""
"","","","","","html-button-response","117","525890","0.0-4.0-1.56","35","1","2022-10-25 14:19:17","ebf9627b049f568eb4bf28942cb89901","112.40.23.199","Mozilla/5.0 (Windows NT 10.0; Win64; x64) AppleWebKit/537.36 (KHTML, like Gecko) Chrome/106.0.0.0 Safari/537.36 Edg/106.0.1370.52","WebKit","Edge","106.0.1370.52","Windows","10.0","1836","<p>作为军队的指挥官，你可以选择发射导弹杀死 <strong>2名</strong> 敌国士兵，但会炸毁附近的 <strong>1棵</strong> 敌国树木。</p> <p>树木的照片如下图所示。</p> <p></p> <img src='stimuli/trees/6.png', style='max-width: 30%;'> </img> <p><strong>你是否选择发射武器？</strong></p>","0",""
"","","","","","html-keyboard-response","118","526901","0.0-4.0-0.57","35","1","2022-10-25 14:19:17","ebf9627b049f568eb4bf28942cb89901","112.40.23.199","Mozilla/5.0 (Windows NT 10.0; Win64; x64) AppleWebKit/537.36 (KHTML, like Gecko) Chrome/106.0.0.0 Safari/537.36 Edg/106.0.1370.52","WebKit","Edge","106.0.1370.52","Windows","10.0","null","<div style=""font-size:60px;"">+</div>","null",""
"","","","","","html-button-response","119","529290","0.0-4.0-1.57","35","1","2022-10-25 14:19:17","ebf9627b049f568eb4bf28942cb89901","112.40.23.199","Mozilla/5.0 (Windows NT 10.0; Win64; x64) AppleWebKit/537.36 (KHTML, like Gecko) Chrome/106.0.0.0 Safari/537.36 Edg/106.0.1370.52","WebKit","Edge","106.0.1370.52","Windows","10.0","2388","<p>作为军队的指挥官，你可以选择发射导弹杀死 <strong>5名</strong> 敌国士兵，但会误杀附近的 <strong>1名</strong> 敌国平民。</p> <p>平民照片如下图所示。</p> <p></p> <img src='stimuli/faces/NFM4.jpg', style='max-width: 30%;'> </img> <p><strong>你是否选择发射武器？</strong></p>","1",""
"","","","","","html-keyboard-response","120","530301","0.0-4.0-0.58","35","1","2022-10-25 14:19:17","ebf9627b049f568eb4bf28942cb89901","112.40.23.199","Mozilla/5.0 (Windows NT 10.0; Win64; x64) AppleWebKit/537.36 (KHTML, like Gecko) Chrome/106.0.0.0 Safari/537.36 Edg/106.0.1370.52","WebKit","Edge","106.0.1370.52","Windows","10.0","null","<div style=""font-size:60px;"">+</div>","null",""
"","","","","","html-button-response","121","531561","0.0-4.0-1.58","35","1","2022-10-25 14:19:17","ebf9627b049f568eb4bf28942cb89901","112.40.23.199","Mozilla/5.0 (Windows NT 10.0; Win64; x64) AppleWebKit/537.36 (KHTML, like Gecko) Chrome/106.0.0.0 Safari/537.36 Edg/106.0.1370.52","WebKit","Edge","106.0.1370.52","Windows","10.0","1259","<p>作为军队的指挥官，你可以选择发射导弹杀死 <strong>7名</strong> 敌国士兵，但会炸毁附近的 <strong>1棵</strong> 敌国树木。</p> <p>树木的照片如下图所示。</p> <p></p> <img src='stimuli/trees/2.png', style='max-width: 30%;'> </img> <p><strong>你是否选择发射武器？</strong></p>","0",""
"","","","","","html-keyboard-response","122","532572","0.0-4.0-0.59","35","1","2022-10-25 14:19:17","ebf9627b049f568eb4bf28942cb89901","112.40.23.199","Mozilla/5.0 (Windows NT 10.0; Win64; x64) AppleWebKit/537.36 (KHTML, like Gecko) Chrome/106.0.0.0 Safari/537.36 Edg/106.0.1370.52","WebKit","Edge","106.0.1370.52","Windows","10.0","null","<div style=""font-size:60px;"">+</div>","null",""
"","","","","","html-button-response","123","533639","0.0-4.0-1.59","35","1","2022-10-25 14:19:17","ebf9627b049f568eb4bf28942cb89901","112.40.23.199","Mozilla/5.0 (Windows NT 10.0; Win64; x64) AppleWebKit/537.36 (KHTML, like Gecko) Chrome/106.0.0.0 Safari/537.36 Edg/106.0.1370.52","WebKit","Edge","106.0.1370.52","Windows","10.0","1065","<p>作为军队的指挥官，你可以选择发射导弹杀死 <strong>1名</strong> 敌国士兵，但会炸毁附近的 <strong>1棵</strong> 敌国树木。</p> <p>树木的照片如下图所示。</p> <p></p> <img src='stimuli/trees/1.png', style='max-width: 30%;'> </img> <p><strong>你是否选择发射武器？</strong></p>","0",""
"","","","","","html-keyboard-response","124","534648","0.0-4.0-0.60","35","1","2022-10-25 14:19:17","ebf9627b049f568eb4bf28942cb89901","112.40.23.199","Mozilla/5.0 (Windows NT 10.0; Win64; x64) AppleWebKit/537.36 (KHTML, like Gecko) Chrome/106.0.0.0 Safari/537.36 Edg/106.0.1370.52","WebKit","Edge","106.0.1370.52","Windows","10.0","null","<div style=""font-size:60px;"">+</div>","null",""
"","","","","","html-button-response","125","535932","0.0-4.0-1.60","35","1","2022-10-25 14:19:17","ebf9627b049f568eb4bf28942cb89901","112.40.23.199","Mozilla/5.0 (Windows NT 10.0; Win64; x64) AppleWebKit/537.36 (KHTML, like Gecko) Chrome/106.0.0.0 Safari/537.36 Edg/106.0.1370.52","WebKit","Edge","106.0.1370.52","Windows","10.0","1282","<p>作为军队的指挥官，你可以选择发射导弹杀死 <strong>3名</strong> 敌国士兵，但会误杀附近的 <strong>1名</strong> 敌国平民。</p> <p>平民照片如下图所示。</p> <p></p> <img src='stimuli/faces/NFF3.jpg', style='max-width: 30%;'> </img> <p><strong>你是否选择发射武器？</strong></p>","1",""
"","","","","","html-keyboard-response","126","536944","0.0-4.0-0.61","35","1","2022-10-25 14:19:17","ebf9627b049f568eb4bf28942cb89901","112.40.23.199","Mozilla/5.0 (Windows NT 10.0; Win64; x64) AppleWebKit/537.36 (KHTML, like Gecko) Chrome/106.0.0.0 Safari/537.36 Edg/106.0.1370.52","WebKit","Edge","106.0.1370.52","Windows","10.0","null","<div style=""font-size:60px;"">+</div>","null",""
"","","","","","html-button-response","127","537738","0.0-4.0-1.61","35","1","2022-10-25 14:19:17","ebf9627b049f568eb4bf28942cb89901","112.40.23.199","Mozilla/5.0 (Windows NT 10.0; Win64; x64) AppleWebKit/537.36 (KHTML, like Gecko) Chrome/106.0.0.0 Safari/537.36 Edg/106.0.1370.52","WebKit","Edge","106.0.1370.52","Windows","10.0","792","<p>作为军队的指挥官，你可以选择发射导弹杀死 <strong>3名</strong> 敌国士兵，但会误杀附近的 <strong>1名</strong> 敌国平民。</p> <p>平民照片如下图所示。</p> <p></p> <img src='stimuli/faces/NFM1.jpg', style='max-width: 30%;'> </img> <p><strong>你是否选择发射武器？</strong></p>","1",""
"","","","","","html-keyboard-response","128","538751","0.0-4.0-0.62","35","1","2022-10-25 14:19:17","ebf9627b049f568eb4bf28942cb89901","112.40.23.199","Mozilla/5.0 (Windows NT 10.0; Win64; x64) AppleWebKit/537.36 (KHTML, like Gecko) Chrome/106.0.0.0 Safari/537.36 Edg/106.0.1370.52","WebKit","Edge","106.0.1370.52","Windows","10.0","null","<div style=""font-size:60px;"">+</div>","null",""
"","","","","","html-button-response","129","540064","0.0-4.0-1.62","35","1","2022-10-25 14:19:17","ebf9627b049f568eb4bf28942cb89901","112.40.23.199","Mozilla/5.0 (Windows NT 10.0; Win64; x64) AppleWebKit/537.36 (KHTML, like Gecko) Chrome/106.0.0.0 Safari/537.36 Edg/106.0.1370.52","WebKit","Edge","106.0.1370.52","Windows","10.0","1312","<p>作为军队的指挥官，你可以选择发射导弹杀死 <strong>10名</strong> 敌国士兵，但会炸毁附近的 <strong>1棵</strong> 敌国树木。</p> <p>树木的照片如下图所示。</p> <p></p> <img src='stimuli/trees/3.png', style='max-width: 30%;'> </img> <p><strong>你是否选择发射武器？</strong></p>","0",""
"","","","","","html-keyboard-response","130","541076","0.0-4.0-0.63","35","1","2022-10-25 14:19:17","ebf9627b049f568eb4bf28942cb89901","112.40.23.199","Mozilla/5.0 (Windows NT 10.0; Win64; x64) AppleWebKit/537.36 (KHTML, like Gecko) Chrome/106.0.0.0 Safari/537.36 Edg/106.0.1370.52","WebKit","Edge","106.0.1370.52","Windows","10.0","null","<div style=""font-size:60px;"">+</div>","null",""
"","","","","","html-button-response","131","541867","0.0-4.0-1.63","35","1","2022-10-25 14:19:17","ebf9627b049f568eb4bf28942cb89901","112.40.23.199","Mozilla/5.0 (Windows NT 10.0; Win64; x64) AppleWebKit/537.36 (KHTML, like Gecko) Chrome/106.0.0.0 Safari/537.36 Edg/106.0.1370.52","WebKit","Edge","106.0.1370.52","Windows","10.0","790","<p>作为军队的指挥官，你可以选择发射导弹杀死 <strong>10名</strong> 敌国士兵，但会炸毁附近的 <strong>1棵</strong> 敌国树木。</p> <p>树木的照片如下图所示。</p> <p></p> <img src='stimuli/trees/11.png', style='max-width: 30%;'> </img> <p><strong>你是否选择发射武器？</strong></p>","0",""
"","","","","","survey-multi-choice","132","551847","0.0-5.0","35","1","2022-10-25 14:19:17","ebf9627b049f568eb4bf28942cb89901","112.40.23.199","Mozilla/5.0 (Windows NT 10.0; Win64; x64) AppleWebKit/537.36 (KHTML, like Gecko) Chrome/106.0.0.0 Safari/537.36 Edg/106.0.1370.52","WebKit","Edge","106.0.1370.52","Windows","10.0","9977","","{""Attention1"":""""}","[0]"
"","","","","","html-button-response","133","554141","0.0-6.0","35","1","2022-10-25 14:19:17","ebf9627b049f568eb4bf28942cb89901","112.40.23.199","Mozilla/5.0 (Windows NT 10.0; Win64; x64) AppleWebKit/537.36 (KHTML, like Gecko) Chrome/106.0.0.0 Safari/537.36 Edg/106.0.1370.52","WebKit","Edge","106.0.1370.52","Windows","10.0","2291","<p style=""font-size:20px;font-weight:bold;"">恭喜！</p><p>你已经完成了实验的第一部分。</p><p>请休息放松一下，然后进入第二部分。</p><p>这部分大约需要10分钟。</p>","0",""
"","","","","","survey-text","134","640865","0.0-7.0","35","1","2022-10-25 14:19:17","ebf9627b049f568eb4bf28942cb89901","112.40.23.199","Mozilla/5.0 (Windows NT 10.0; Win64; x64) AppleWebKit/537.36 (KHTML, like Gecko) Chrome/106.0.0.0 Safari/537.36 Edg/106.0.1370.52","WebKit","Edge","106.0.1370.52","Windows","10.0","85698","","{""Age"":""22"",""Nation"":""中国"",""Born"":""辽宁鲅鱼圈"",""Live"":""辽宁鲅鱼圈"",""Ethnic"":""汉族"",""Alipay"":""15641738767""}",""
"","","","","","survey-multi-choice","135","654856","0.0-8.0","35","1","2022-10-25 14:19:17","ebf9627b049f568eb4bf28942cb89901","112.40.23.199","Mozilla/5.0 (Windows NT 10.0; Win64; x64) AppleWebKit/537.36 (KHTML, like Gecko) Chrome/106.0.0.0 Safari/537.36 Edg/106.0.1370.52","WebKit","Edge","106.0.1370.52","Windows","10.0","13989","","{""Gender"":""男"",""Education"":""本科毕业"",""Income"":""￥270,000-￥489,999"",""Children"":""0"",""Race"":""亚洲人""}","[0,1,2,3,4]"
"","","","","","survey-multi-select","136","661963","0.0-9.0","35","1","2022-10-25 14:19:17","ebf9627b049f568eb4bf28942cb89901","112.40.23.199","Mozilla/5.0 (Windows NT 10.0; Win64; x64) AppleWebKit/537.36 (KHTML, like Gecko) Chrome/106.0.0.0 Safari/537.36 Edg/106.0.1370.52","WebKit","Edge","106.0.1370.52","Windows","10.0","7099","","{""Marriage"":[""未婚""],""Religion"":[""无宗教信仰""]}","[0,1]"
"","","","","","survey-multi-choice","137","667697","0.0-10.0","35","1","2022-10-25 14:19:17","ebf9627b049f568eb4bf28942cb89901","112.40.23.199","Mozilla/5.0 (Windows NT 10.0; Win64; x64) AppleWebKit/537.36 (KHTML, like Gecko) Chrome/106.0.0.0 Safari/537.36 Edg/106.0.1370.52","WebKit","Edge","106.0.1370.52","Windows","10.0","5731","","{""SES"":""4""}","[0]"
"","","","","","html-button-response","138","671063","0.0-11.0","35","1","2022-10-25 14:19:17","ebf9627b049f568eb4bf28942cb89901","112.40.23.199","Mozilla/5.0 (Windows NT 10.0; Win64; x64) AppleWebKit/537.36 (KHTML, like Gecko) Chrome/106.0.0.0 Safari/537.36 Edg/106.0.1370.52","WebKit","Edge","106.0.1370.52","Windows","10.0","3363","<p><strong>请判断下列陈述在多大程度上可以形容你？</p><p> (1 = ""和我一点都不像"" to 5 = ""非常像我"".)</strong></p>","0",""
"","","","","","survey-likert","139","698224","0.0-12.0","35","1","2022-10-25 14:19:17","ebf9627b049f568eb4bf28942cb89901","112.40.23.199","Mozilla/5.0 (Windows NT 10.0; Win64; x64) AppleWebKit/537.36 (KHTML, like Gecko) Chrome/106.0.0.0 Safari/537.36 Edg/106.0.1370.52","WebKit","Edge","106.0.1370.52","Windows","10.0","27156","","{""Aggression1"":0,""Aggression2"":0,""Aggression3"":2,""Aggression4"":0,""Aggression5"":3,""Aggression6"":1,""Aggression7"":3,""Aggression8"":0,""Aggression9"":0}","[0,1,2,3,4,5,6,7,8]"
"","","","","","html-button-response","140","699972","0.0-13.0","35","1","2022-10-25 14:19:17","ebf9627b049f568eb4bf28942cb89901","112.40.23.199","Mozilla/5.0 (Windows NT 10.0; Win64; x64) AppleWebKit/537.36 (KHTML, like Gecko) Chrome/106.0.0.0 Safari/537.36 Edg/106.0.1370.52","WebKit","Edge","106.0.1370.52","Windows","10.0","1746","<p><strong>请判断你在多大程度上同意下列陈述。</strong></p>","0",""
"","","","","","survey-likert","141","766903","0.0-14.0","35","1","2022-10-25 14:19:17","ebf9627b049f568eb4bf28942cb89901","112.40.23.199","Mozilla/5.0 (Windows NT 10.0; Win64; x64) AppleWebKit/537.36 (KHTML, like Gecko) Chrome/106.0.0.0 Safari/537.36 Edg/106.0.1370.52","WebKit","Edge","106.0.1370.52","Windows","10.0","66929","","{""scale7"":0,""scale12"":1,""scale8"":4,""scale24"":0,""scale3"":1,""scale18"":0,""scale26"":3,""scale28"":4,""scale13"":0,""scale22"":3,""scale27"":2,""scale17"":2,""scale20"":4,""scale14"":1,""scale16"":4,""scale1"":2,""scale25"":3,""scale6"":2,""scale9"":4,""scale23"":3,""scale4"":0,""scale21"":3,""scale11"":4,""scale19"":3,""scale10"":2,""scale5"":4,""scale15"":0,""scale2"":4}","[6,11,7,23,2,17,25,27,12,21,26,16,19,13,15,0,24,5,8,22,3,20,10,18,9,4,14,1]"
"","","","","","html-button-response","142","768774","0.0-15.0","35","1","2022-10-25 14:19:17","ebf9627b049f568eb4bf28942cb89901","112.40.23.199","Mozilla/5.0 (Windows NT 10.0; Win64; x64) AppleWebKit/537.36 (KHTML, like Gecko) Chrome/106.0.0.0 Safari/537.36 Edg/106.0.1370.52","WebKit","Edge","106.0.1370.52","Windows","10.0","1868","<p><strong>请判断你在多大程度上同意下列陈述。</strong></p>","0",""
"","","","","","survey-likert","143","818860","0.0-16.0","35","1","2022-10-25 14:19:17","ebf9627b049f568eb4bf28942cb89901","112.40.23.199","Mozilla/5.0 (Windows NT 10.0; Win64; x64) AppleWebKit/537.36 (KHTML, like Gecko) Chrome/106.0.0.0 Safari/537.36 Edg/106.0.1370.52","WebKit","Edge","106.0.1370.52","Windows","10.0","50085","","{""sdo8"":0,""sdo11"":6,""sdo15"":5,""sdo9"":6,""sdo6"":0,""sdo2"":0,""sdo10"":6,""sdo4"":0,""sdo5"":0,""sdo12"":6,""sdo16"":6,""sdo13"":5,""sdo7"":0,""sdo14"":6,""sdo3"":0,""sdo1"":0}","[7,10,14,8,5,1,9,3,4,11,15,12,6,13,2,0]"
"","","","","","html-button-response","144","820428","0.0-17.0","35","1","2022-10-25 14:19:17","ebf9627b049f568eb4bf28942cb89901","112.40.23.199","Mozilla/5.0 (Windows NT 10.0; Win64; x64) AppleWebKit/537.36 (KHTML, like Gecko) Chrome/106.0.0.0 Safari/537.36 Edg/106.0.1370.52","WebKit","Edge","106.0.1370.52","Windows","10.0","1564","<p><strong>请判断你在多大程度上同意下列陈述。</strong></p>","0",""
"","","","","","survey-likert","145","859798","0.0-18.0","35","1","2022-10-25 14:19:17","ebf9627b049f568eb4bf28942cb89901","112.40.23.199","Mozilla/5.0 (Windows NT 10.0; Win64; x64) AppleWebKit/537.36 (KHTML, like Gecko) Chrome/106.0.0.0 Safari/537.36 Edg/106.0.1370.52","WebKit","Edge","106.0.1370.52","Windows","10.0","39370","","{""caring1"":4,""liking1"":0,""caring2"":4,""protection1"":3,""liking2"":0,""caring3"":4,""protection2"":1,""liking3"":0,""protection3"":4,""caring4"":3,""liking4"":0,""protection4"":3,""caring5"":4,""liking5"":2,""protection5"":1}","[0,1,2,3,4,5,6,7,8,9,10,11,12,13,14]"
"","","","","","html-button-response","146","861368","0.0-19.0","35","1","2022-10-25 14:19:17","ebf9627b049f568eb4bf28942cb89901","112.40.23.199","Mozilla/5.0 (Windows NT 10.0; Win64; x64) AppleWebKit/537.36 (KHTML, like Gecko) Chrome/106.0.0.0 Safari/537.36 Edg/106.0.1370.52","WebKit","Edge","106.0.1370.52","Windows","10.0","1566","<p><strong>请判断下列场景中你的内心感受有多柔软。</strong></p>","0",""
"","","","","","survey-likert","147","887609","0.0-20.0","35","1","2022-10-25 14:19:17","ebf9627b049f568eb4bf28942cb89901","112.40.23.199","Mozilla/5.0 (Windows NT 10.0; Win64; x64) AppleWebKit/537.36 (KHTML, like Gecko) Chrome/106.0.0.0 Safari/537.36 Edg/106.0.1370.52","WebKit","Edge","106.0.1370.52","Windows","10.0","26239","","{""tenderness-positive1"":4,""tenderness-negative1"":3,""tenderness-negative2"":4,""tenderness-positive2"":4,""tenderness-positive3"":3,""tenderness-negative3"":4,""tenderness-positive4"":3,""tendereness-negative4"":3,""tendernness-negative5"":4,""tenderness-positive5"":3}","[0,1,2,3,4,5,6,7,8,9]"
"","","","","","survey-multi-choice","148","901470","0.0-21.0","35","1","2022-10-25 14:19:17","ebf9627b049f568eb4bf28942cb89901","112.40.23.199","Mozilla/5.0 (Windows NT 10.0; Win64; x64) AppleWebKit/537.36 (KHTML, like Gecko) Chrome/106.0.0.0 Safari/537.36 Edg/106.0.1370.52","WebKit","Edge","106.0.1370.52","Windows","10.0","13858","","{""Attention2"":""其他""}","[0]"
"","","","","","html-button-response","149","903311","0.0-22.0","35","1","2022-10-25 14:19:17","ebf9627b049f568eb4bf28942cb89901","112.40.23.199","Mozilla/5.0 (Windows NT 10.0; Win64; x64) AppleWebKit/537.36 (KHTML, like Gecko) Chrome/106.0.0.0 Safari/537.36 Edg/106.0.1370.52","WebKit","Edge","106.0.1370.52","Windows","10.0","1838","<p><strong>请判断你在多大程度上同意下列陈述。</strong></p>","0",""
"","","","","","survey-likert","150","985622","0.0-23.0","35","1","2022-10-25 14:19:17","ebf9627b049f568eb4bf28942cb89901","112.40.23.199","Mozilla/5.0 (Windows NT 10.0; Win64; x64) AppleWebKit/537.36 (KHTML, like Gecko) Chrome/106.0.0.0 Safari/537.36 Edg/106.0.1370.52","WebKit","Edge","106.0.1370.52","Windows","10.0","82303","","{""Patri10"":0,""Nation8"":0,""Nation7"":4,""Nation3"":2,""Nation4"":1,""Patri6"":0,""Patri9"":0,""Patri1"":4,""Patri8"":4,""Nation1"":3,""Nation5"":0,""Patri2"":4,""Patri4"":3,""Patri5"":4,""Patri7"":4,""Nation6"":4,""Patri11"":0,""Patri3"":4,""Nation2"":4,""Patri12"":1}","[9,19,18,14,15,5,8,0,7,12,16,1,3,4,6,17,10,2,13,11]"
"","","","","","html-button-response","151","987493","0.0-24.0","35","1","2022-10-25 14:19:17","ebf9627b049f568eb4bf28942cb89901","112.40.23.199","Mozilla/5.0 (Windows NT 10.0; Win64; x64) AppleWebKit/537.36 (KHTML, like Gecko) Chrome/106.0.0.0 Safari/537.36 Edg/106.0.1370.52","WebKit","Edge","106.0.1370.52","Windows","10.0","1867","<p><strong>请判断你在多大程度上同意下列陈述。</strong></p>","0",""
"","","","","","survey-likert","152","1038493","0.0-25.0","35","1","2022-10-25 14:19:17","ebf9627b049f568eb4bf28942cb89901","112.40.23.199","Mozilla/5.0 (Windows NT 10.0; Win64; x64) AppleWebKit/537.36 (KHTML, like Gecko) Chrome/106.0.0.0 Safari/537.36 Edg/106.0.1370.52","WebKit","Edge","106.0.1370.52","Windows","10.0","50999","","{""hi3"":2,""hi1"":7,""vi3"":6,""vc2"":8,""vc3"":7,""hc4"":8,""vi2"":3,""hi2"":6,""vi1"":7,""hc3"":8,""hi4"":6,""vi4"":3,""vc4"":6,""hc2"":7,""hc1"":8,""Robot"":6,""vc1"":8}","[2,0,6,14,15,12,5,1,4,11,3,8,16,10,9,7,13]"
"","","","","","survey-text","153","1050449","0.0-26.0","35","1","2022-10-25 14:19:17","ebf9627b049f568eb4bf28942cb89901","112.40.23.199","Mozilla/5.0 (Windows NT 10.0; Win64; x64) AppleWebKit/537.36 (KHTML, like Gecko) Chrome/106.0.0.0 Safari/537.36 Edg/106.0.1370.52","WebKit","Edge","106.0.1370.52","Windows","10.0","11938","","{""Comments"":""没有""}",""
"","","","","","html-button-response","154","1064808","0.0-27.0","35","1","2022-10-25 14:19:17","ebf9627b049f568eb4bf28942cb89901","112.40.23.199","Mozilla/5.0 (Windows NT 10.0; Win64; x64) AppleWebKit/537.36 (KHTML, like Gecko) Chrome/106.0.0.0 Safari/537.36 Edg/106.0.1370.52","WebKit","Edge","106.0.1370.52","Windows","10.0","14356","<strong><p>恭喜你完成了实验！</p><p>感谢您的参与。</p></strong>","0",""
