"success","timeout","failed_images","failed_audio","failed_video","trial_type","trial_index","time_elapsed","internal_node_id","run_id","condition","recorded_at","source_code_version","ip","user_agent","device","browser","browser_version","platform","platform_version","rt","stimulus","response","question_order"
"true","false","[]","[]","[]","preload","0","3381","0.0-0.0","4","1","2022-10-20 06:25:16","ebf9627b049f568eb4bf28942cb89901","124.236.97.147","Mozilla/5.0 (Windows NT 10.0; Win64; x64; rv:106.0) Gecko/20100101 Firefox/106.0","","Firefox","106.0","Windows","10.0","","","",""
"true","","","","","fullscreen","1","13197","0.0-1.0","4","1","2022-10-20 06:25:16","ebf9627b049f568eb4bf28942cb89901","124.236.97.147","Mozilla/5.0 (Windows NT 10.0; Win64; x64; rv:106.0) Gecko/20100101 Firefox/106.0","","Firefox","106.0","Windows","10.0","","","",""
"","","","","","html-button-response","2","31904","0.0-2.0","4","1","2022-10-20 06:25:16","ebf9627b049f568eb4bf28942cb89901","124.236.97.147","Mozilla/5.0 (Windows NT 10.0; Win64; x64; rv:106.0) Gecko/20100101 Firefox/106.0","","Firefox","106.0","Windows","10.0","18702","<p style=""font-size:20px;font-weight:bold;"">实验知情同意书</p><p style=""text-align:left;""><strong>实验名称：</strong>社会冲突研究</p><p style=""text-align:left;""><strong>主要研究者：</strong>韩晓春副教授（北京师范大学心理学部）</p><p style=""text-align:left;""><strong>联系方式：</strong>发送邮件至xiaochun.han@bnu.edu.cn</p><p style=""text-align:left;""><strong>研究目的：</strong>研究旨在了解人类面对群体冲突时的决策方式，以及相关的心理学特质。实验调查大约需要20分钟。</p><p style=""text-align:left;""><strong>实验流程：</strong>实验包含两部分。第一部分呈现一系列群体冲突场景，请你决定如何对这些冲突进行反应，大约需要10分钟完成。第二部分包含一系列人口统计学信息收集和心理学问卷，大约需要10分钟完成。</p><p style=""text-align:left;""><strong>参加及退出规则：</strong>参加本实验完全取决于您的个人意愿。在参与过程中，您可以随时退出，并且不用承担任何后果。</p><p style=""text-align:left;""><strong>隐私：</strong>本实验完全匿名进行，不会收集您的姓名或其他能够识别您身份的信息。实验中收集的作答仅用作科学研究使用，可能会在学术期刊/书籍上发表，或者用于教学，您的数据未来可能会和其他研究者或实验室分享，但您的个人身份不会被识别。</p><p style=""text-align:left;""><strong>实验报酬：</strong>实验完成后，您将获得15元人民币报酬，以感谢您的时间和努力。调查问卷中包含几道题目用以测验您作答时的认真度。只有完成全部实验，并且正确回答认真度测验的被试才能获得实验报酬。实验报酬将通过支付宝转账发放。</p><p style=""text-align:left;font-size:20px;""><strong>如果您同意以上实验知情同意书的内容，请点击'同意并且开始实验'按钮；否则请关闭浏览器界面，退出实验。</strong></p>","0",""
"","","","","","html-button-response","3","33601","0.0-3.0","4","1","2022-10-20 06:25:16","ebf9627b049f568eb4bf28942cb89901","124.236.97.147","Mozilla/5.0 (Windows NT 10.0; Win64; x64; rv:106.0) Gecko/20100101 Firefox/106.0","","Firefox","106.0","Windows","10.0","1693","<p ><strong>实验任务一：</strong></p><p>请想象你的国家与另一个国家发生了军事冲突。</p><p>你是国家军队的指挥官，你将如何在冲突中进行决策。</p><p>具体来说，作为军队指挥官，请你决定是否发射导弹进行打击。</p><p>接下来，你会面对一系列场景，请仔细阅读每个场景，然后进行决策。</p><p>这部分实验任务大约需要10分钟。</p><p><strong>实验过程中，请集中注意力。</strong></p>","0",""
"","","","","","html-keyboard-response","4","34613","0.0-4.0-0.0","4","1","2022-10-20 06:25:16","ebf9627b049f568eb4bf28942cb89901","124.236.97.147","Mozilla/5.0 (Windows NT 10.0; Win64; x64; rv:106.0) Gecko/20100101 Firefox/106.0","","Firefox","106.0","Windows","10.0","null","<div style=""font-size:60px;"">+</div>","null",""
"","","","","","html-button-response","5","38001","0.0-4.0-1.0","4","1","2022-10-20 06:25:16","ebf9627b049f568eb4bf28942cb89901","124.236.97.147","Mozilla/5.0 (Windows NT 10.0; Win64; x64; rv:106.0) Gecko/20100101 Firefox/106.0","","Firefox","106.0","Windows","10.0","3384","<p>作为军队的指挥官，你可以选择发射导弹杀死 <strong>9名</strong> 敌国士兵，但会误杀附近的 <strong>1名</strong> 敌国平民。</p> <p>平民照片如下图所示。</p> <p></p> <img src='stimuli/faces/NFF6.jpg', style='max-width: 30%;'> </img> <p><strong>你是否选择发射武器？</strong></p>","0",""
"","","","","","html-keyboard-response","6","39016","0.0-4.0-0.1","4","1","2022-10-20 06:25:16","ebf9627b049f568eb4bf28942cb89901","124.236.97.147","Mozilla/5.0 (Windows NT 10.0; Win64; x64; rv:106.0) Gecko/20100101 Firefox/106.0","","Firefox","106.0","Windows","10.0","null","<div style=""font-size:60px;"">+</div>","null",""
"","","","","","html-button-response","7","43241","0.0-4.0-1.1","4","1","2022-10-20 06:25:16","ebf9627b049f568eb4bf28942cb89901","124.236.97.147","Mozilla/5.0 (Windows NT 10.0; Win64; x64; rv:106.0) Gecko/20100101 Firefox/106.0","","Firefox","106.0","Windows","10.0","4223","<p>作为军队的指挥官，你可以选择发射导弹杀死 <strong>2名</strong> 敌国士兵，但会炸毁附近的 <strong>1棵</strong> 敌国树木。</p> <p>树木的照片如下图所示。</p> <p></p> <img src='stimuli/trees/4.png', style='max-width: 30%;'> </img> <p><strong>你是否选择发射武器？</strong></p>","0",""
"","","","","","html-keyboard-response","8","44258","0.0-4.0-0.2","4","1","2022-10-20 06:25:16","ebf9627b049f568eb4bf28942cb89901","124.236.97.147","Mozilla/5.0 (Windows NT 10.0; Win64; x64; rv:106.0) Gecko/20100101 Firefox/106.0","","Firefox","106.0","Windows","10.0","null","<div style=""font-size:60px;"">+</div>","null",""
"","","","","","html-button-response","9","49496","0.0-4.0-1.2","4","1","2022-10-20 06:25:16","ebf9627b049f568eb4bf28942cb89901","124.236.97.147","Mozilla/5.0 (Windows NT 10.0; Win64; x64; rv:106.0) Gecko/20100101 Firefox/106.0","","Firefox","106.0","Windows","10.0","5236","<p>作为军队的指挥官，你可以选择发射导弹杀死 <strong>5名</strong> 敌国士兵，但会误杀附近的 <strong>1名</strong> 敌国平民。</p> <p>平民照片如下图所示。</p> <p></p> <img src='stimuli/faces/NFF5.jpg', style='max-width: 30%;'> </img> <p><strong>你是否选择发射武器？</strong></p>","1",""
"","","","","","html-keyboard-response","10","50503","0.0-4.0-0.3","4","1","2022-10-20 06:25:16","ebf9627b049f568eb4bf28942cb89901","124.236.97.147","Mozilla/5.0 (Windows NT 10.0; Win64; x64; rv:106.0) Gecko/20100101 Firefox/106.0","","Firefox","106.0","Windows","10.0","null","<div style=""font-size:60px;"">+</div>","null",""
"","","","","","html-button-response","11","54112","0.0-4.0-1.3","4","1","2022-10-20 06:25:16","ebf9627b049f568eb4bf28942cb89901","124.236.97.147","Mozilla/5.0 (Windows NT 10.0; Win64; x64; rv:106.0) Gecko/20100101 Firefox/106.0","","Firefox","106.0","Windows","10.0","3608","<p>作为军队的指挥官，你可以选择发射导弹杀死 <strong>6名</strong> 敌国士兵，但会误杀附近的 <strong>1名</strong> 敌国平民。</p> <p>平民照片如下图所示。</p> <p></p> <img src='stimuli/faces/NFF2.jpg', style='max-width: 30%;'> </img> <p><strong>你是否选择发射武器？</strong></p>","1",""
"","","","","","html-keyboard-response","12","55115","0.0-4.0-0.4","4","1","2022-10-20 06:25:16","ebf9627b049f568eb4bf28942cb89901","124.236.97.147","Mozilla/5.0 (Windows NT 10.0; Win64; x64; rv:106.0) Gecko/20100101 Firefox/106.0","","Firefox","106.0","Windows","10.0","null","<div style=""font-size:60px;"">+</div>","null",""
"","","","","","html-button-response","13","56448","0.0-4.0-1.4","4","1","2022-10-20 06:25:16","ebf9627b049f568eb4bf28942cb89901","124.236.97.147","Mozilla/5.0 (Windows NT 10.0; Win64; x64; rv:106.0) Gecko/20100101 Firefox/106.0","","Firefox","106.0","Windows","10.0","1331","<p>作为军队的指挥官，你可以选择发射导弹杀死 <strong>10名</strong> 敌国士兵，但会炸毁附近的 <strong>1棵</strong> 敌国树木。</p> <p>树木的照片如下图所示。</p> <p></p> <img src='stimuli/trees/11.png', style='max-width: 30%;'> </img> <p><strong>你是否选择发射武器？</strong></p>","0",""
"","","","","","html-keyboard-response","14","57452","0.0-4.0-0.5","4","1","2022-10-20 06:25:16","ebf9627b049f568eb4bf28942cb89901","124.236.97.147","Mozilla/5.0 (Windows NT 10.0; Win64; x64; rv:106.0) Gecko/20100101 Firefox/106.0","","Firefox","106.0","Windows","10.0","null","<div style=""font-size:60px;"">+</div>","null",""
"","","","","","html-button-response","15","59136","0.0-4.0-1.5","4","1","2022-10-20 06:25:16","ebf9627b049f568eb4bf28942cb89901","124.236.97.147","Mozilla/5.0 (Windows NT 10.0; Win64; x64; rv:106.0) Gecko/20100101 Firefox/106.0","","Firefox","106.0","Windows","10.0","1683","<p>作为军队的指挥官，你可以选择发射导弹杀死 <strong>1名</strong> 敌国士兵，但会误杀附近的 <strong>1名</strong> 敌国平民。</p> <p>平民照片如下图所示。</p> <p></p> <img src='stimuli/faces/NFM1.jpg', style='max-width: 30%;'> </img> <p><strong>你是否选择发射武器？</strong></p>","1",""
"","","","","","html-keyboard-response","16","60149","0.0-4.0-0.6","4","1","2022-10-20 06:25:16","ebf9627b049f568eb4bf28942cb89901","124.236.97.147","Mozilla/5.0 (Windows NT 10.0; Win64; x64; rv:106.0) Gecko/20100101 Firefox/106.0","","Firefox","106.0","Windows","10.0","null","<div style=""font-size:60px;"">+</div>","null",""
"","","","","","html-button-response","17","63048","0.0-4.0-1.6","4","1","2022-10-20 06:25:16","ebf9627b049f568eb4bf28942cb89901","124.236.97.147","Mozilla/5.0 (Windows NT 10.0; Win64; x64; rv:106.0) Gecko/20100101 Firefox/106.0","","Firefox","106.0","Windows","10.0","2897","<p>作为军队的指挥官，你可以选择发射导弹杀死 <strong>1名</strong> 敌国士兵，但会误杀附近的 <strong>1名</strong> 敌国平民。</p> <p>平民照片如下图所示。</p> <p></p> <img src='stimuli/faces/NFM5.jpg', style='max-width: 30%;'> </img> <p><strong>你是否选择发射武器？</strong></p>","1",""
"","","","","","html-keyboard-response","18","64051","0.0-4.0-0.7","4","1","2022-10-20 06:25:16","ebf9627b049f568eb4bf28942cb89901","124.236.97.147","Mozilla/5.0 (Windows NT 10.0; Win64; x64; rv:106.0) Gecko/20100101 Firefox/106.0","","Firefox","106.0","Windows","10.0","null","<div style=""font-size:60px;"">+</div>","null",""
"","","","","","html-button-response","19","65480","0.0-4.0-1.7","4","1","2022-10-20 06:25:16","ebf9627b049f568eb4bf28942cb89901","124.236.97.147","Mozilla/5.0 (Windows NT 10.0; Win64; x64; rv:106.0) Gecko/20100101 Firefox/106.0","","Firefox","106.0","Windows","10.0","1427","<p>作为军队的指挥官，你可以选择发射导弹杀死 <strong>10名</strong> 敌国士兵，但会炸毁附近的 <strong>1棵</strong> 敌国树木。</p> <p>树木的照片如下图所示。</p> <p></p> <img src='stimuli/trees/4.png', style='max-width: 30%;'> </img> <p><strong>你是否选择发射武器？</strong></p>","0",""
"","","","","","html-keyboard-response","20","66492","0.0-4.0-0.8","4","1","2022-10-20 06:25:16","ebf9627b049f568eb4bf28942cb89901","124.236.97.147","Mozilla/5.0 (Windows NT 10.0; Win64; x64; rv:106.0) Gecko/20100101 Firefox/106.0","","Firefox","106.0","Windows","10.0","null","<div style=""font-size:60px;"">+</div>","null",""
"","","","","","html-button-response","21","68224","0.0-4.0-1.8","4","1","2022-10-20 06:25:16","ebf9627b049f568eb4bf28942cb89901","124.236.97.147","Mozilla/5.0 (Windows NT 10.0; Win64; x64; rv:106.0) Gecko/20100101 Firefox/106.0","","Firefox","106.0","Windows","10.0","1729","<p>作为军队的指挥官，你可以选择发射导弹杀死 <strong>5名</strong> 敌国士兵，但会误杀附近的 <strong>1名</strong> 敌国平民。</p> <p>平民照片如下图所示。</p> <p></p> <img src='stimuli/faces/NFF3.jpg', style='max-width: 30%;'> </img> <p><strong>你是否选择发射武器？</strong></p>","1",""
"","","","","","html-keyboard-response","22","69230","0.0-4.0-0.9","4","1","2022-10-20 06:25:16","ebf9627b049f568eb4bf28942cb89901","124.236.97.147","Mozilla/5.0 (Windows NT 10.0; Win64; x64; rv:106.0) Gecko/20100101 Firefox/106.0","","Firefox","106.0","Windows","10.0","null","<div style=""font-size:60px;"">+</div>","null",""
"","","","","","html-button-response","23","76161","0.0-4.0-1.9","4","1","2022-10-20 06:25:16","ebf9627b049f568eb4bf28942cb89901","124.236.97.147","Mozilla/5.0 (Windows NT 10.0; Win64; x64; rv:106.0) Gecko/20100101 Firefox/106.0","","Firefox","106.0","Windows","10.0","6924","<p>作为军队的指挥官，你可以选择发射导弹杀死 <strong>10名</strong> 敌国士兵，但会误杀附近的 <strong>1名</strong> 敌国平民。</p> <p>平民照片如下图所示。</p> <p></p> <img src='stimuli/faces/NFM1.jpg', style='max-width: 30%;'> </img> <p><strong>你是否选择发射武器？</strong></p>","0",""
"","","","","","html-keyboard-response","24","77174","0.0-4.0-0.10","4","1","2022-10-20 06:25:16","ebf9627b049f568eb4bf28942cb89901","124.236.97.147","Mozilla/5.0 (Windows NT 10.0; Win64; x64; rv:106.0) Gecko/20100101 Firefox/106.0","","Firefox","106.0","Windows","10.0","null","<div style=""font-size:60px;"">+</div>","null",""
"","","","","","html-button-response","25","85449","0.0-4.0-1.10","4","1","2022-10-20 06:25:16","ebf9627b049f568eb4bf28942cb89901","124.236.97.147","Mozilla/5.0 (Windows NT 10.0; Win64; x64; rv:106.0) Gecko/20100101 Firefox/106.0","","Firefox","106.0","Windows","10.0","8268","<p>作为军队的指挥官，你可以选择发射导弹杀死 <strong>2名</strong> 敌国士兵，但会炸毁附近的 <strong>1棵</strong> 敌国树木。</p> <p>树木的照片如下图所示。</p> <p></p> <img src='stimuli/trees/7.png', style='max-width: 30%;'> </img> <p><strong>你是否选择发射武器？</strong></p>","0",""
"","","","","","html-keyboard-response","26","86461","0.0-4.0-0.11","4","1","2022-10-20 06:25:16","ebf9627b049f568eb4bf28942cb89901","124.236.97.147","Mozilla/5.0 (Windows NT 10.0; Win64; x64; rv:106.0) Gecko/20100101 Firefox/106.0","","Firefox","106.0","Windows","10.0","null","<div style=""font-size:60px;"">+</div>","null",""
"","","","","","html-button-response","27","87976","0.0-4.0-1.11","4","1","2022-10-20 06:25:16","ebf9627b049f568eb4bf28942cb89901","124.236.97.147","Mozilla/5.0 (Windows NT 10.0; Win64; x64; rv:106.0) Gecko/20100101 Firefox/106.0","","Firefox","106.0","Windows","10.0","1513","<p>作为军队的指挥官，你可以选择发射导弹杀死 <strong>8名</strong> 敌国士兵，但会误杀附近的 <strong>1名</strong> 敌国平民。</p> <p>平民照片如下图所示。</p> <p></p> <img src='stimuli/faces/NFM8.jpg', style='max-width: 30%;'> </img> <p><strong>你是否选择发射武器？</strong></p>","0",""
"","","","","","html-keyboard-response","28","88990","0.0-4.0-0.12","4","1","2022-10-20 06:25:16","ebf9627b049f568eb4bf28942cb89901","124.236.97.147","Mozilla/5.0 (Windows NT 10.0; Win64; x64; rv:106.0) Gecko/20100101 Firefox/106.0","","Firefox","106.0","Windows","10.0","null","<div style=""font-size:60px;"">+</div>","null",""
"","","","","","html-button-response","29","90441","0.0-4.0-1.12","4","1","2022-10-20 06:25:16","ebf9627b049f568eb4bf28942cb89901","124.236.97.147","Mozilla/5.0 (Windows NT 10.0; Win64; x64; rv:106.0) Gecko/20100101 Firefox/106.0","","Firefox","106.0","Windows","10.0","1449","<p>作为军队的指挥官，你可以选择发射导弹杀死 <strong>2名</strong> 敌国士兵，但会误杀附近的 <strong>1名</strong> 敌国平民。</p> <p>平民照片如下图所示。</p> <p></p> <img src='stimuli/faces/NFF1.jpg', style='max-width: 30%;'> </img> <p><strong>你是否选择发射武器？</strong></p>","1",""
"","","","","","html-keyboard-response","30","91445","0.0-4.0-0.13","4","1","2022-10-20 06:25:16","ebf9627b049f568eb4bf28942cb89901","124.236.97.147","Mozilla/5.0 (Windows NT 10.0; Win64; x64; rv:106.0) Gecko/20100101 Firefox/106.0","","Firefox","106.0","Windows","10.0","null","<div style=""font-size:60px;"">+</div>","null",""
"","","","","","html-button-response","31","93376","0.0-4.0-1.13","4","1","2022-10-20 06:25:16","ebf9627b049f568eb4bf28942cb89901","124.236.97.147","Mozilla/5.0 (Windows NT 10.0; Win64; x64; rv:106.0) Gecko/20100101 Firefox/106.0","","Firefox","106.0","Windows","10.0","1928","<p>作为军队的指挥官，你可以选择发射导弹杀死 <strong>8名</strong> 敌国士兵，但会误杀附近的 <strong>1名</strong> 敌国平民。</p> <p>平民照片如下图所示。</p> <p></p> <img src='stimuli/faces/NFM7.jpg', style='max-width: 30%;'> </img> <p><strong>你是否选择发射武器？</strong></p>","0",""
"","","","","","html-keyboard-response","32","94385","0.0-4.0-0.14","4","1","2022-10-20 06:25:16","ebf9627b049f568eb4bf28942cb89901","124.236.97.147","Mozilla/5.0 (Windows NT 10.0; Win64; x64; rv:106.0) Gecko/20100101 Firefox/106.0","","Firefox","106.0","Windows","10.0","null","<div style=""font-size:60px;"">+</div>","null",""
"","","","","","html-button-response","33","95736","0.0-4.0-1.14","4","1","2022-10-20 06:25:16","ebf9627b049f568eb4bf28942cb89901","124.236.97.147","Mozilla/5.0 (Windows NT 10.0; Win64; x64; rv:106.0) Gecko/20100101 Firefox/106.0","","Firefox","106.0","Windows","10.0","1348","<p>作为军队的指挥官，你可以选择发射导弹杀死 <strong>7名</strong> 敌国士兵，但会误杀附近的 <strong>1名</strong> 敌国平民。</p> <p>平民照片如下图所示。</p> <p></p> <img src='stimuli/faces/NFF1.jpg', style='max-width: 30%;'> </img> <p><strong>你是否选择发射武器？</strong></p>","1",""
"","","","","","html-keyboard-response","34","96745","0.0-4.0-0.15","4","1","2022-10-20 06:25:16","ebf9627b049f568eb4bf28942cb89901","124.236.97.147","Mozilla/5.0 (Windows NT 10.0; Win64; x64; rv:106.0) Gecko/20100101 Firefox/106.0","","Firefox","106.0","Windows","10.0","null","<div style=""font-size:60px;"">+</div>","null",""
"","","","","","html-button-response","35","98152","0.0-4.0-1.15","4","1","2022-10-20 06:25:16","ebf9627b049f568eb4bf28942cb89901","124.236.97.147","Mozilla/5.0 (Windows NT 10.0; Win64; x64; rv:106.0) Gecko/20100101 Firefox/106.0","","Firefox","106.0","Windows","10.0","1404","<p>作为军队的指挥官，你可以选择发射导弹杀死 <strong>6名</strong> 敌国士兵，但会误杀附近的 <strong>1名</strong> 敌国平民。</p> <p>平民照片如下图所示。</p> <p></p> <img src='stimuli/faces/NFF7.jpg', style='max-width: 30%;'> </img> <p><strong>你是否选择发射武器？</strong></p>","1",""
"","","","","","html-keyboard-response","36","99161","0.0-4.0-0.16","4","1","2022-10-20 06:25:16","ebf9627b049f568eb4bf28942cb89901","124.236.97.147","Mozilla/5.0 (Windows NT 10.0; Win64; x64; rv:106.0) Gecko/20100101 Firefox/106.0","","Firefox","106.0","Windows","10.0","null","<div style=""font-size:60px;"">+</div>","null",""
"","","","","","html-button-response","37","100488","0.0-4.0-1.16","4","1","2022-10-20 06:25:16","ebf9627b049f568eb4bf28942cb89901","124.236.97.147","Mozilla/5.0 (Windows NT 10.0; Win64; x64; rv:106.0) Gecko/20100101 Firefox/106.0","","Firefox","106.0","Windows","10.0","1326","<p>作为军队的指挥官，你可以选择发射导弹杀死 <strong>3名</strong> 敌国士兵，但会炸毁附近的 <strong>1棵</strong> 敌国树木。</p> <p>树木的照片如下图所示。</p> <p></p> <img src='stimuli/trees/10.png', style='max-width: 30%;'> </img> <p><strong>你是否选择发射武器？</strong></p>","0",""
"","","","","","html-keyboard-response","38","101493","0.0-4.0-0.17","4","1","2022-10-20 06:25:16","ebf9627b049f568eb4bf28942cb89901","124.236.97.147","Mozilla/5.0 (Windows NT 10.0; Win64; x64; rv:106.0) Gecko/20100101 Firefox/106.0","","Firefox","106.0","Windows","10.0","null","<div style=""font-size:60px;"">+</div>","null",""
"","","","","","html-button-response","39","102953","0.0-4.0-1.17","4","1","2022-10-20 06:25:16","ebf9627b049f568eb4bf28942cb89901","124.236.97.147","Mozilla/5.0 (Windows NT 10.0; Win64; x64; rv:106.0) Gecko/20100101 Firefox/106.0","","Firefox","106.0","Windows","10.0","1456","<p>作为军队的指挥官，你可以选择发射导弹杀死 <strong>4名</strong> 敌国士兵，但会误杀附近的 <strong>1名</strong> 敌国平民。</p> <p>平民照片如下图所示。</p> <p></p> <img src='stimuli/faces/NFF4.jpg', style='max-width: 30%;'> </img> <p><strong>你是否选择发射武器？</strong></p>","1",""
"","","","","","html-keyboard-response","40","103956","0.0-4.0-0.18","4","1","2022-10-20 06:25:16","ebf9627b049f568eb4bf28942cb89901","124.236.97.147","Mozilla/5.0 (Windows NT 10.0; Win64; x64; rv:106.0) Gecko/20100101 Firefox/106.0","","Firefox","106.0","Windows","10.0","null","<div style=""font-size:60px;"">+</div>","null",""
"","","","","","html-button-response","41","105176","0.0-4.0-1.18","4","1","2022-10-20 06:25:16","ebf9627b049f568eb4bf28942cb89901","124.236.97.147","Mozilla/5.0 (Windows NT 10.0; Win64; x64; rv:106.0) Gecko/20100101 Firefox/106.0","","Firefox","106.0","Windows","10.0","1216","<p>作为军队的指挥官，你可以选择发射导弹杀死 <strong>4名</strong> 敌国士兵，但会炸毁附近的 <strong>1棵</strong> 敌国树木。</p> <p>树木的照片如下图所示。</p> <p></p> <img src='stimuli/trees/1.png', style='max-width: 30%;'> </img> <p><strong>你是否选择发射武器？</strong></p>","0",""
"","","","","","html-keyboard-response","42","106188","0.0-4.0-0.19","4","1","2022-10-20 06:25:16","ebf9627b049f568eb4bf28942cb89901","124.236.97.147","Mozilla/5.0 (Windows NT 10.0; Win64; x64; rv:106.0) Gecko/20100101 Firefox/106.0","","Firefox","106.0","Windows","10.0","null","<div style=""font-size:60px;"">+</div>","null",""
"","","","","","html-button-response","43","107816","0.0-4.0-1.19","4","1","2022-10-20 06:25:16","ebf9627b049f568eb4bf28942cb89901","124.236.97.147","Mozilla/5.0 (Windows NT 10.0; Win64; x64; rv:106.0) Gecko/20100101 Firefox/106.0","","Firefox","106.0","Windows","10.0","1625","<p>作为军队的指挥官，你可以选择发射导弹杀死 <strong>1名</strong> 敌国士兵，但会误杀附近的 <strong>1名</strong> 敌国平民。</p> <p>平民照片如下图所示。</p> <p></p> <img src='stimuli/faces/NFF8.jpg', style='max-width: 30%;'> </img> <p><strong>你是否选择发射武器？</strong></p>","1",""
"","","","","","html-keyboard-response","44","108820","0.0-4.0-0.20","4","1","2022-10-20 06:25:16","ebf9627b049f568eb4bf28942cb89901","124.236.97.147","Mozilla/5.0 (Windows NT 10.0; Win64; x64; rv:106.0) Gecko/20100101 Firefox/106.0","","Firefox","106.0","Windows","10.0","null","<div style=""font-size:60px;"">+</div>","null",""
"","","","","","html-button-response","45","110000","0.0-4.0-1.20","4","1","2022-10-20 06:25:16","ebf9627b049f568eb4bf28942cb89901","124.236.97.147","Mozilla/5.0 (Windows NT 10.0; Win64; x64; rv:106.0) Gecko/20100101 Firefox/106.0","","Firefox","106.0","Windows","10.0","1176","<p>作为军队的指挥官，你可以选择发射导弹杀死 <strong>1名</strong> 敌国士兵，但会误杀附近的 <strong>1名</strong> 敌国平民。</p> <p>平民照片如下图所示。</p> <p></p> <img src='stimuli/faces/NFM7.jpg', style='max-width: 30%;'> </img> <p><strong>你是否选择发射武器？</strong></p>","1",""
"","","","","","html-keyboard-response","46","111017","0.0-4.0-0.21","4","1","2022-10-20 06:25:16","ebf9627b049f568eb4bf28942cb89901","124.236.97.147","Mozilla/5.0 (Windows NT 10.0; Win64; x64; rv:106.0) Gecko/20100101 Firefox/106.0","","Firefox","106.0","Windows","10.0","null","<div style=""font-size:60px;"">+</div>","null",""
"","","","","","html-button-response","47","112552","0.0-4.0-1.21","4","1","2022-10-20 06:25:16","ebf9627b049f568eb4bf28942cb89901","124.236.97.147","Mozilla/5.0 (Windows NT 10.0; Win64; x64; rv:106.0) Gecko/20100101 Firefox/106.0","","Firefox","106.0","Windows","10.0","1531","<p>作为军队的指挥官，你可以选择发射导弹杀死 <strong>5名</strong> 敌国士兵，但会炸毁附近的 <strong>1棵</strong> 敌国树木。</p> <p>树木的照片如下图所示。</p> <p></p> <img src='stimuli/trees/15.png', style='max-width: 30%;'> </img> <p><strong>你是否选择发射武器？</strong></p>","0",""
"","","","","","html-keyboard-response","48","113562","0.0-4.0-0.22","4","1","2022-10-20 06:25:16","ebf9627b049f568eb4bf28942cb89901","124.236.97.147","Mozilla/5.0 (Windows NT 10.0; Win64; x64; rv:106.0) Gecko/20100101 Firefox/106.0","","Firefox","106.0","Windows","10.0","null","<div style=""font-size:60px;"">+</div>","null",""
"","","","","","html-button-response","49","114777","0.0-4.0-1.22","4","1","2022-10-20 06:25:16","ebf9627b049f568eb4bf28942cb89901","124.236.97.147","Mozilla/5.0 (Windows NT 10.0; Win64; x64; rv:106.0) Gecko/20100101 Firefox/106.0","","Firefox","106.0","Windows","10.0","1212","<p>作为军队的指挥官，你可以选择发射导弹杀死 <strong>3名</strong> 敌国士兵，但会炸毁附近的 <strong>1棵</strong> 敌国树木。</p> <p>树木的照片如下图所示。</p> <p></p> <img src='stimuli/trees/5.png', style='max-width: 30%;'> </img> <p><strong>你是否选择发射武器？</strong></p>","0",""
"","","","","","html-keyboard-response","50","115792","0.0-4.0-0.23","4","1","2022-10-20 06:25:16","ebf9627b049f568eb4bf28942cb89901","124.236.97.147","Mozilla/5.0 (Windows NT 10.0; Win64; x64; rv:106.0) Gecko/20100101 Firefox/106.0","","Firefox","106.0","Windows","10.0","null","<div style=""font-size:60px;"">+</div>","null",""
"","","","","","html-button-response","51","116969","0.0-4.0-1.23","4","1","2022-10-20 06:25:16","ebf9627b049f568eb4bf28942cb89901","124.236.97.147","Mozilla/5.0 (Windows NT 10.0; Win64; x64; rv:106.0) Gecko/20100101 Firefox/106.0","","Firefox","106.0","Windows","10.0","1173","<p>作为军队的指挥官，你可以选择发射导弹杀死 <strong>6名</strong> 敌国士兵，但会炸毁附近的 <strong>1棵</strong> 敌国树木。</p> <p>树木的照片如下图所示。</p> <p></p> <img src='stimuli/trees/8.png', style='max-width: 30%;'> </img> <p><strong>你是否选择发射武器？</strong></p>","0",""
"","","","","","html-keyboard-response","52","117975","0.0-4.0-0.24","4","1","2022-10-20 06:25:16","ebf9627b049f568eb4bf28942cb89901","124.236.97.147","Mozilla/5.0 (Windows NT 10.0; Win64; x64; rv:106.0) Gecko/20100101 Firefox/106.0","","Firefox","106.0","Windows","10.0","null","<div style=""font-size:60px;"">+</div>","null",""
"","","","","","html-button-response","53","118840","0.0-4.0-1.24","4","1","2022-10-20 06:25:16","ebf9627b049f568eb4bf28942cb89901","124.236.97.147","Mozilla/5.0 (Windows NT 10.0; Win64; x64; rv:106.0) Gecko/20100101 Firefox/106.0","","Firefox","106.0","Windows","10.0","863","<p>作为军队的指挥官，你可以选择发射导弹杀死 <strong>7名</strong> 敌国士兵，但会炸毁附近的 <strong>1棵</strong> 敌国树木。</p> <p>树木的照片如下图所示。</p> <p></p> <img src='stimuli/trees/9.png', style='max-width: 30%;'> </img> <p><strong>你是否选择发射武器？</strong></p>","0",""
"","","","","","html-keyboard-response","54","119857","0.0-4.0-0.25","4","1","2022-10-20 06:25:16","ebf9627b049f568eb4bf28942cb89901","124.236.97.147","Mozilla/5.0 (Windows NT 10.0; Win64; x64; rv:106.0) Gecko/20100101 Firefox/106.0","","Firefox","106.0","Windows","10.0","null","<div style=""font-size:60px;"">+</div>","null",""
"","","","","","html-button-response","55","121448","0.0-4.0-1.25","4","1","2022-10-20 06:25:16","ebf9627b049f568eb4bf28942cb89901","124.236.97.147","Mozilla/5.0 (Windows NT 10.0; Win64; x64; rv:106.0) Gecko/20100101 Firefox/106.0","","Firefox","106.0","Windows","10.0","1586","<p>作为军队的指挥官，你可以选择发射导弹杀死 <strong>6名</strong> 敌国士兵，但会误杀附近的 <strong>1名</strong> 敌国平民。</p> <p>平民照片如下图所示。</p> <p></p> <img src='stimuli/faces/NFM4.jpg', style='max-width: 30%;'> </img> <p><strong>你是否选择发射武器？</strong></p>","1",""
"","","","","","html-keyboard-response","56","122451","0.0-4.0-0.26","4","1","2022-10-20 06:25:16","ebf9627b049f568eb4bf28942cb89901","124.236.97.147","Mozilla/5.0 (Windows NT 10.0; Win64; x64; rv:106.0) Gecko/20100101 Firefox/106.0","","Firefox","106.0","Windows","10.0","null","<div style=""font-size:60px;"">+</div>","null",""
"","","","","","html-button-response","57","123576","0.0-4.0-1.26","4","1","2022-10-20 06:25:16","ebf9627b049f568eb4bf28942cb89901","124.236.97.147","Mozilla/5.0 (Windows NT 10.0; Win64; x64; rv:106.0) Gecko/20100101 Firefox/106.0","","Firefox","106.0","Windows","10.0","1121","<p>作为军队的指挥官，你可以选择发射导弹杀死 <strong>7名</strong> 敌国士兵，但会炸毁附近的 <strong>1棵</strong> 敌国树木。</p> <p>树木的照片如下图所示。</p> <p></p> <img src='stimuli/trees/15.png', style='max-width: 30%;'> </img> <p><strong>你是否选择发射武器？</strong></p>","0",""
"","","","","","html-keyboard-response","58","124583","0.0-4.0-0.27","4","1","2022-10-20 06:25:16","ebf9627b049f568eb4bf28942cb89901","124.236.97.147","Mozilla/5.0 (Windows NT 10.0; Win64; x64; rv:106.0) Gecko/20100101 Firefox/106.0","","Firefox","106.0","Windows","10.0","null","<div style=""font-size:60px;"">+</div>","null",""
"","","","","","html-button-response","59","125585","0.0-4.0-1.27","4","1","2022-10-20 06:25:16","ebf9627b049f568eb4bf28942cb89901","124.236.97.147","Mozilla/5.0 (Windows NT 10.0; Win64; x64; rv:106.0) Gecko/20100101 Firefox/106.0","","Firefox","106.0","Windows","10.0","997","<p>作为军队的指挥官，你可以选择发射导弹杀死 <strong>5名</strong> 敌国士兵，但会炸毁附近的 <strong>1棵</strong> 敌国树木。</p> <p>树木的照片如下图所示。</p> <p></p> <img src='stimuli/trees/11.png', style='max-width: 30%;'> </img> <p><strong>你是否选择发射武器？</strong></p>","0",""
"","","","","","html-keyboard-response","60","126594","0.0-4.0-0.28","4","1","2022-10-20 06:25:16","ebf9627b049f568eb4bf28942cb89901","124.236.97.147","Mozilla/5.0 (Windows NT 10.0; Win64; x64; rv:106.0) Gecko/20100101 Firefox/106.0","","Firefox","106.0","Windows","10.0","null","<div style=""font-size:60px;"">+</div>","null",""
"","","","","","html-button-response","61","128152","0.0-4.0-1.28","4","1","2022-10-20 06:25:16","ebf9627b049f568eb4bf28942cb89901","124.236.97.147","Mozilla/5.0 (Windows NT 10.0; Win64; x64; rv:106.0) Gecko/20100101 Firefox/106.0","","Firefox","106.0","Windows","10.0","1553","<p>作为军队的指挥官，你可以选择发射导弹杀死 <strong>9名</strong> 敌国士兵，但会误杀附近的 <strong>1名</strong> 敌国平民。</p> <p>平民照片如下图所示。</p> <p></p> <img src='stimuli/faces/NFF5.jpg', style='max-width: 30%;'> </img> <p><strong>你是否选择发射武器？</strong></p>","0",""
"","","","","","html-keyboard-response","62","129160","0.0-4.0-0.29","4","1","2022-10-20 06:25:16","ebf9627b049f568eb4bf28942cb89901","124.236.97.147","Mozilla/5.0 (Windows NT 10.0; Win64; x64; rv:106.0) Gecko/20100101 Firefox/106.0","","Firefox","106.0","Windows","10.0","null","<div style=""font-size:60px;"">+</div>","null",""
"","","","","","html-button-response","63","131601","0.0-4.0-1.29","4","1","2022-10-20 06:25:16","ebf9627b049f568eb4bf28942cb89901","124.236.97.147","Mozilla/5.0 (Windows NT 10.0; Win64; x64; rv:106.0) Gecko/20100101 Firefox/106.0","","Firefox","106.0","Windows","10.0","2436","<p>作为军队的指挥官，你可以选择发射导弹杀死 <strong>7名</strong> 敌国士兵，但会误杀附近的 <strong>1名</strong> 敌国平民。</p> <p>平民照片如下图所示。</p> <p></p> <img src='stimuli/faces/NFF4.jpg', style='max-width: 30%;'> </img> <p><strong>你是否选择发射武器？</strong></p>","0",""
"","","","","","html-keyboard-response","64","132616","0.0-4.0-0.30","4","1","2022-10-20 06:25:16","ebf9627b049f568eb4bf28942cb89901","124.236.97.147","Mozilla/5.0 (Windows NT 10.0; Win64; x64; rv:106.0) Gecko/20100101 Firefox/106.0","","Firefox","106.0","Windows","10.0","null","<div style=""font-size:60px;"">+</div>","null",""
"","","","","","html-button-response","65","133537","0.0-4.0-1.30","4","1","2022-10-20 06:25:16","ebf9627b049f568eb4bf28942cb89901","124.236.97.147","Mozilla/5.0 (Windows NT 10.0; Win64; x64; rv:106.0) Gecko/20100101 Firefox/106.0","","Firefox","106.0","Windows","10.0","916","<p>作为军队的指挥官，你可以选择发射导弹杀死 <strong>2名</strong> 敌国士兵，但会炸毁附近的 <strong>1棵</strong> 敌国树木。</p> <p>树木的照片如下图所示。</p> <p></p> <img src='stimuli/trees/13.png', style='max-width: 30%;'> </img> <p><strong>你是否选择发射武器？</strong></p>","0",""
"","","","","","html-keyboard-response","66","134558","0.0-4.0-0.31","4","1","2022-10-20 06:25:16","ebf9627b049f568eb4bf28942cb89901","124.236.97.147","Mozilla/5.0 (Windows NT 10.0; Win64; x64; rv:106.0) Gecko/20100101 Firefox/106.0","","Firefox","106.0","Windows","10.0","null","<div style=""font-size:60px;"">+</div>","null",""
"","","","","","html-button-response","67","135489","0.0-4.0-1.31","4","1","2022-10-20 06:25:16","ebf9627b049f568eb4bf28942cb89901","124.236.97.147","Mozilla/5.0 (Windows NT 10.0; Win64; x64; rv:106.0) Gecko/20100101 Firefox/106.0","","Firefox","106.0","Windows","10.0","925","<p>作为军队的指挥官，你可以选择发射导弹杀死 <strong>10名</strong> 敌国士兵，但会炸毁附近的 <strong>1棵</strong> 敌国树木。</p> <p>树木的照片如下图所示。</p> <p></p> <img src='stimuli/trees/14.png', style='max-width: 30%;'> </img> <p><strong>你是否选择发射武器？</strong></p>","0",""
"","","","","","html-keyboard-response","68","136507","0.0-4.0-0.32","4","1","2022-10-20 06:25:16","ebf9627b049f568eb4bf28942cb89901","124.236.97.147","Mozilla/5.0 (Windows NT 10.0; Win64; x64; rv:106.0) Gecko/20100101 Firefox/106.0","","Firefox","106.0","Windows","10.0","null","<div style=""font-size:60px;"">+</div>","null",""
"","","","","","html-button-response","69","137352","0.0-4.0-1.32","4","1","2022-10-20 06:25:16","ebf9627b049f568eb4bf28942cb89901","124.236.97.147","Mozilla/5.0 (Windows NT 10.0; Win64; x64; rv:106.0) Gecko/20100101 Firefox/106.0","","Firefox","106.0","Windows","10.0","840","<p>作为军队的指挥官，你可以选择发射导弹杀死 <strong>6名</strong> 敌国士兵，但会炸毁附近的 <strong>1棵</strong> 敌国树木。</p> <p>树木的照片如下图所示。</p> <p></p> <img src='stimuli/trees/13.png', style='max-width: 30%;'> </img> <p><strong>你是否选择发射武器？</strong></p>","0",""
"","","","","","html-keyboard-response","70","138370","0.0-4.0-0.33","4","1","2022-10-20 06:25:16","ebf9627b049f568eb4bf28942cb89901","124.236.97.147","Mozilla/5.0 (Windows NT 10.0; Win64; x64; rv:106.0) Gecko/20100101 Firefox/106.0","","Firefox","106.0","Windows","10.0","null","<div style=""font-size:60px;"">+</div>","null",""
"","","","","","html-button-response","71","139336","0.0-4.0-1.33","4","1","2022-10-20 06:25:16","ebf9627b049f568eb4bf28942cb89901","124.236.97.147","Mozilla/5.0 (Windows NT 10.0; Win64; x64; rv:106.0) Gecko/20100101 Firefox/106.0","","Firefox","106.0","Windows","10.0","958","<p>作为军队的指挥官，你可以选择发射导弹杀死 <strong>6名</strong> 敌国士兵，但会炸毁附近的 <strong>1棵</strong> 敌国树木。</p> <p>树木的照片如下图所示。</p> <p></p> <img src='stimuli/trees/12.png', style='max-width: 30%;'> </img> <p><strong>你是否选择发射武器？</strong></p>","0",""
"","","","","","html-keyboard-response","72","140348","0.0-4.0-0.34","4","1","2022-10-20 06:25:16","ebf9627b049f568eb4bf28942cb89901","124.236.97.147","Mozilla/5.0 (Windows NT 10.0; Win64; x64; rv:106.0) Gecko/20100101 Firefox/106.0","","Firefox","106.0","Windows","10.0","null","<div style=""font-size:60px;"">+</div>","null",""
"","","","","","html-button-response","73","141881","0.0-4.0-1.34","4","1","2022-10-20 06:25:16","ebf9627b049f568eb4bf28942cb89901","124.236.97.147","Mozilla/5.0 (Windows NT 10.0; Win64; x64; rv:106.0) Gecko/20100101 Firefox/106.0","","Firefox","106.0","Windows","10.0","1526","<p>作为军队的指挥官，你可以选择发射导弹杀死 <strong>1名</strong> 敌国士兵，但会误杀附近的 <strong>1名</strong> 敌国平民。</p> <p>平民照片如下图所示。</p> <p></p> <img src='stimuli/faces/NFF2.jpg', style='max-width: 30%;'> </img> <p><strong>你是否选择发射武器？</strong></p>","1",""
"","","","","","html-keyboard-response","74","142887","0.0-4.0-0.35","4","1","2022-10-20 06:25:16","ebf9627b049f568eb4bf28942cb89901","124.236.97.147","Mozilla/5.0 (Windows NT 10.0; Win64; x64; rv:106.0) Gecko/20100101 Firefox/106.0","","Firefox","106.0","Windows","10.0","null","<div style=""font-size:60px;"">+</div>","null",""
"","","","","","html-button-response","75","144521","0.0-4.0-1.35","4","1","2022-10-20 06:25:16","ebf9627b049f568eb4bf28942cb89901","124.236.97.147","Mozilla/5.0 (Windows NT 10.0; Win64; x64; rv:106.0) Gecko/20100101 Firefox/106.0","","Firefox","106.0","Windows","10.0","1626","<p>作为军队的指挥官，你可以选择发射导弹杀死 <strong>8名</strong> 敌国士兵，但会炸毁附近的 <strong>1棵</strong> 敌国树木。</p> <p>树木的照片如下图所示。</p> <p></p> <img src='stimuli/trees/7.png', style='max-width: 30%;'> </img> <p><strong>你是否选择发射武器？</strong></p>","0",""
"","","","","","html-keyboard-response","76","145537","0.0-4.0-0.36","4","1","2022-10-20 06:25:16","ebf9627b049f568eb4bf28942cb89901","124.236.97.147","Mozilla/5.0 (Windows NT 10.0; Win64; x64; rv:106.0) Gecko/20100101 Firefox/106.0","","Firefox","106.0","Windows","10.0","null","<div style=""font-size:60px;"">+</div>","null",""
"","","","","","html-button-response","77","150920","0.0-4.0-1.36","4","1","2022-10-20 06:25:16","ebf9627b049f568eb4bf28942cb89901","124.236.97.147","Mozilla/5.0 (Windows NT 10.0; Win64; x64; rv:106.0) Gecko/20100101 Firefox/106.0","","Firefox","106.0","Windows","10.0","5376","<p>作为军队的指挥官，你可以选择发射导弹杀死 <strong>5名</strong> 敌国士兵，但会炸毁附近的 <strong>1棵</strong> 敌国树木。</p> <p>树木的照片如下图所示。</p> <p></p> <img src='stimuli/trees/14.png', style='max-width: 30%;'> </img> <p><strong>你是否选择发射武器？</strong></p>","0",""
"","","","","","html-keyboard-response","78","151930","0.0-4.0-0.37","4","1","2022-10-20 06:25:16","ebf9627b049f568eb4bf28942cb89901","124.236.97.147","Mozilla/5.0 (Windows NT 10.0; Win64; x64; rv:106.0) Gecko/20100101 Firefox/106.0","","Firefox","106.0","Windows","10.0","null","<div style=""font-size:60px;"">+</div>","null",""
"","","","","","html-button-response","79","152976","0.0-4.0-1.37","4","1","2022-10-20 06:25:16","ebf9627b049f568eb4bf28942cb89901","124.236.97.147","Mozilla/5.0 (Windows NT 10.0; Win64; x64; rv:106.0) Gecko/20100101 Firefox/106.0","","Firefox","106.0","Windows","10.0","1040","<p>作为军队的指挥官，你可以选择发射导弹杀死 <strong>3名</strong> 敌国士兵，但会炸毁附近的 <strong>1棵</strong> 敌国树木。</p> <p>树木的照片如下图所示。</p> <p></p> <img src='stimuli/trees/6.png', style='max-width: 30%;'> </img> <p><strong>你是否选择发射武器？</strong></p>","0",""
"","","","","","html-keyboard-response","80","153989","0.0-4.0-0.38","4","1","2022-10-20 06:25:16","ebf9627b049f568eb4bf28942cb89901","124.236.97.147","Mozilla/5.0 (Windows NT 10.0; Win64; x64; rv:106.0) Gecko/20100101 Firefox/106.0","","Firefox","106.0","Windows","10.0","null","<div style=""font-size:60px;"">+</div>","null",""
"","","","","","html-button-response","81","154689","0.0-4.0-1.38","4","1","2022-10-20 06:25:16","ebf9627b049f568eb4bf28942cb89901","124.236.97.147","Mozilla/5.0 (Windows NT 10.0; Win64; x64; rv:106.0) Gecko/20100101 Firefox/106.0","","Firefox","106.0","Windows","10.0","692","<p>作为军队的指挥官，你可以选择发射导弹杀死 <strong>6名</strong> 敌国士兵，但会炸毁附近的 <strong>1棵</strong> 敌国树木。</p> <p>树木的照片如下图所示。</p> <p></p> <img src='stimuli/trees/5.png', style='max-width: 30%;'> </img> <p><strong>你是否选择发射武器？</strong></p>","0",""
"","","","","","html-keyboard-response","82","155700","0.0-4.0-0.39","4","1","2022-10-20 06:25:16","ebf9627b049f568eb4bf28942cb89901","124.236.97.147","Mozilla/5.0 (Windows NT 10.0; Win64; x64; rv:106.0) Gecko/20100101 Firefox/106.0","","Firefox","106.0","Windows","10.0","null","<div style=""font-size:60px;"">+</div>","null",""
"","","","","","html-button-response","83","156360","0.0-4.0-1.39","4","1","2022-10-20 06:25:16","ebf9627b049f568eb4bf28942cb89901","124.236.97.147","Mozilla/5.0 (Windows NT 10.0; Win64; x64; rv:106.0) Gecko/20100101 Firefox/106.0","","Firefox","106.0","Windows","10.0","657","<p>作为军队的指挥官，你可以选择发射导弹杀死 <strong>8名</strong> 敌国士兵，但会炸毁附近的 <strong>1棵</strong> 敌国树木。</p> <p>树木的照片如下图所示。</p> <p></p> <img src='stimuli/trees/1.png', style='max-width: 30%;'> </img> <p><strong>你是否选择发射武器？</strong></p>","0",""
"","","","","","html-keyboard-response","84","157376","0.0-4.0-0.40","4","1","2022-10-20 06:25:16","ebf9627b049f568eb4bf28942cb89901","124.236.97.147","Mozilla/5.0 (Windows NT 10.0; Win64; x64; rv:106.0) Gecko/20100101 Firefox/106.0","","Firefox","106.0","Windows","10.0","null","<div style=""font-size:60px;"">+</div>","null",""
"","","","","","html-button-response","85","158536","0.0-4.0-1.40","4","1","2022-10-20 06:25:16","ebf9627b049f568eb4bf28942cb89901","124.236.97.147","Mozilla/5.0 (Windows NT 10.0; Win64; x64; rv:106.0) Gecko/20100101 Firefox/106.0","","Firefox","106.0","Windows","10.0","1156","<p>作为军队的指挥官，你可以选择发射导弹杀死 <strong>4名</strong> 敌国士兵，但会炸毁附近的 <strong>1棵</strong> 敌国树木。</p> <p>树木的照片如下图所示。</p> <p></p> <img src='stimuli/trees/3.png', style='max-width: 30%;'> </img> <p><strong>你是否选择发射武器？</strong></p>","0",""
"","","","","","html-keyboard-response","86","159550","0.0-4.0-0.41","4","1","2022-10-20 06:25:16","ebf9627b049f568eb4bf28942cb89901","124.236.97.147","Mozilla/5.0 (Windows NT 10.0; Win64; x64; rv:106.0) Gecko/20100101 Firefox/106.0","","Firefox","106.0","Windows","10.0","null","<div style=""font-size:60px;"">+</div>","null",""
"","","","","","html-button-response","87","161000","0.0-4.0-1.41","4","1","2022-10-20 06:25:16","ebf9627b049f568eb4bf28942cb89901","124.236.97.147","Mozilla/5.0 (Windows NT 10.0; Win64; x64; rv:106.0) Gecko/20100101 Firefox/106.0","","Firefox","106.0","Windows","10.0","1446","<p>作为军队的指挥官，你可以选择发射导弹杀死 <strong>1名</strong> 敌国士兵，但会误杀附近的 <strong>1名</strong> 敌国平民。</p> <p>平民照片如下图所示。</p> <p></p> <img src='stimuli/faces/NFM8.jpg', style='max-width: 30%;'> </img> <p><strong>你是否选择发射武器？</strong></p>","1",""
"","","","","","html-keyboard-response","88","162018","0.0-4.0-0.42","4","1","2022-10-20 06:25:16","ebf9627b049f568eb4bf28942cb89901","124.236.97.147","Mozilla/5.0 (Windows NT 10.0; Win64; x64; rv:106.0) Gecko/20100101 Firefox/106.0","","Firefox","106.0","Windows","10.0","null","<div style=""font-size:60px;"">+</div>","null",""
"","","","","","html-button-response","89","163160","0.0-4.0-1.42","4","1","2022-10-20 06:25:16","ebf9627b049f568eb4bf28942cb89901","124.236.97.147","Mozilla/5.0 (Windows NT 10.0; Win64; x64; rv:106.0) Gecko/20100101 Firefox/106.0","","Firefox","106.0","Windows","10.0","1137","<p>作为军队的指挥官，你可以选择发射导弹杀死 <strong>7名</strong> 敌国士兵，但会炸毁附近的 <strong>1棵</strong> 敌国树木。</p> <p>树木的照片如下图所示。</p> <p></p> <img src='stimuli/trees/3.png', style='max-width: 30%;'> </img> <p><strong>你是否选择发射武器？</strong></p>","0",""
"","","","","","html-keyboard-response","90","164177","0.0-4.0-0.43","4","1","2022-10-20 06:25:16","ebf9627b049f568eb4bf28942cb89901","124.236.97.147","Mozilla/5.0 (Windows NT 10.0; Win64; x64; rv:106.0) Gecko/20100101 Firefox/106.0","","Firefox","106.0","Windows","10.0","null","<div style=""font-size:60px;"">+</div>","null",""
"","","","","","html-button-response","91","165368","0.0-4.0-1.43","4","1","2022-10-20 06:25:16","ebf9627b049f568eb4bf28942cb89901","124.236.97.147","Mozilla/5.0 (Windows NT 10.0; Win64; x64; rv:106.0) Gecko/20100101 Firefox/106.0","","Firefox","106.0","Windows","10.0","1186","<p>作为军队的指挥官，你可以选择发射导弹杀死 <strong>5名</strong> 敌国士兵，但会炸毁附近的 <strong>1棵</strong> 敌国树木。</p> <p>树木的照片如下图所示。</p> <p></p> <img src='stimuli/trees/8.png', style='max-width: 30%;'> </img> <p><strong>你是否选择发射武器？</strong></p>","0",""
"","","","","","html-keyboard-response","92","166376","0.0-4.0-0.44","4","1","2022-10-20 06:25:16","ebf9627b049f568eb4bf28942cb89901","124.236.97.147","Mozilla/5.0 (Windows NT 10.0; Win64; x64; rv:106.0) Gecko/20100101 Firefox/106.0","","Firefox","106.0","Windows","10.0","null","<div style=""font-size:60px;"">+</div>","null",""
"","","","","","html-button-response","93","170409","0.0-4.0-1.44","4","1","2022-10-20 06:25:16","ebf9627b049f568eb4bf28942cb89901","124.236.97.147","Mozilla/5.0 (Windows NT 10.0; Win64; x64; rv:106.0) Gecko/20100101 Firefox/106.0","","Firefox","106.0","Windows","10.0","4026","<p>作为军队的指挥官，你可以选择发射导弹杀死 <strong>4名</strong> 敌国士兵，但会误杀附近的 <strong>1名</strong> 敌国平民。</p> <p>平民照片如下图所示。</p> <p></p> <img src='stimuli/faces/NFM3.jpg', style='max-width: 30%;'> </img> <p><strong>你是否选择发射武器？</strong></p>","1",""
"","","","","","html-keyboard-response","94","171424","0.0-4.0-0.45","4","1","2022-10-20 06:25:16","ebf9627b049f568eb4bf28942cb89901","124.236.97.147","Mozilla/5.0 (Windows NT 10.0; Win64; x64; rv:106.0) Gecko/20100101 Firefox/106.0","","Firefox","106.0","Windows","10.0","null","<div style=""font-size:60px;"">+</div>","null",""
"","","","","","html-button-response","95","172688","0.0-4.0-1.45","4","1","2022-10-20 06:25:16","ebf9627b049f568eb4bf28942cb89901","124.236.97.147","Mozilla/5.0 (Windows NT 10.0; Win64; x64; rv:106.0) Gecko/20100101 Firefox/106.0","","Firefox","106.0","Windows","10.0","1260","<p>作为军队的指挥官，你可以选择发射导弹杀死 <strong>4名</strong> 敌国士兵，但会误杀附近的 <strong>1名</strong> 敌国平民。</p> <p>平民照片如下图所示。</p> <p></p> <img src='stimuli/faces/NFF7.jpg', style='max-width: 30%;'> </img> <p><strong>你是否选择发射武器？</strong></p>","1",""
"","","","","","html-keyboard-response","96","173703","0.0-4.0-0.46","4","1","2022-10-20 06:25:16","ebf9627b049f568eb4bf28942cb89901","124.236.97.147","Mozilla/5.0 (Windows NT 10.0; Win64; x64; rv:106.0) Gecko/20100101 Firefox/106.0","","Firefox","106.0","Windows","10.0","null","<div style=""font-size:60px;"">+</div>","null",""
"","","","","","html-button-response","97","176240","0.0-4.0-1.46","4","1","2022-10-20 06:25:16","ebf9627b049f568eb4bf28942cb89901","124.236.97.147","Mozilla/5.0 (Windows NT 10.0; Win64; x64; rv:106.0) Gecko/20100101 Firefox/106.0","","Firefox","106.0","Windows","10.0","2532","<p>作为军队的指挥官，你可以选择发射导弹杀死 <strong>7名</strong> 敌国士兵，但会误杀附近的 <strong>1名</strong> 敌国平民。</p> <p>平民照片如下图所示。</p> <p></p> <img src='stimuli/faces/NFF8.jpg', style='max-width: 30%;'> </img> <p><strong>你是否选择发射武器？</strong></p>","0",""
"","","","","","html-keyboard-response","98","177251","0.0-4.0-0.47","4","1","2022-10-20 06:25:16","ebf9627b049f568eb4bf28942cb89901","124.236.97.147","Mozilla/5.0 (Windows NT 10.0; Win64; x64; rv:106.0) Gecko/20100101 Firefox/106.0","","Firefox","106.0","Windows","10.0","null","<div style=""font-size:60px;"">+</div>","null",""
"","","","","","html-button-response","99","178360","0.0-4.0-1.47","4","1","2022-10-20 06:25:16","ebf9627b049f568eb4bf28942cb89901","124.236.97.147","Mozilla/5.0 (Windows NT 10.0; Win64; x64; rv:106.0) Gecko/20100101 Firefox/106.0","","Firefox","106.0","Windows","10.0","1104","<p>作为军队的指挥官，你可以选择发射导弹杀死 <strong>9名</strong> 敌国士兵，但会炸毁附近的 <strong>1棵</strong> 敌国树木。</p> <p>树木的照片如下图所示。</p> <p></p> <img src='stimuli/trees/6.png', style='max-width: 30%;'> </img> <p><strong>你是否选择发射武器？</strong></p>","0",""
"","","","","","html-keyboard-response","100","179370","0.0-4.0-0.48","4","1","2022-10-20 06:25:16","ebf9627b049f568eb4bf28942cb89901","124.236.97.147","Mozilla/5.0 (Windows NT 10.0; Win64; x64; rv:106.0) Gecko/20100101 Firefox/106.0","","Firefox","106.0","Windows","10.0","null","<div style=""font-size:60px;"">+</div>","null",""
"","","","","","html-button-response","101","180632","0.0-4.0-1.48","4","1","2022-10-20 06:25:16","ebf9627b049f568eb4bf28942cb89901","124.236.97.147","Mozilla/5.0 (Windows NT 10.0; Win64; x64; rv:106.0) Gecko/20100101 Firefox/106.0","","Firefox","106.0","Windows","10.0","1259","<p>作为军队的指挥官，你可以选择发射导弹杀死 <strong>8名</strong> 敌国士兵，但会误杀附近的 <strong>1名</strong> 敌国平民。</p> <p>平民照片如下图所示。</p> <p></p> <img src='stimuli/faces/NFM3.jpg', style='max-width: 30%;'> </img> <p><strong>你是否选择发射武器？</strong></p>","0",""
"","","","","","html-keyboard-response","102","181644","0.0-4.0-0.49","4","1","2022-10-20 06:25:16","ebf9627b049f568eb4bf28942cb89901","124.236.97.147","Mozilla/5.0 (Windows NT 10.0; Win64; x64; rv:106.0) Gecko/20100101 Firefox/106.0","","Firefox","106.0","Windows","10.0","null","<div style=""font-size:60px;"">+</div>","null",""
"","","","","","html-button-response","103","182992","0.0-4.0-1.49","4","1","2022-10-20 06:25:16","ebf9627b049f568eb4bf28942cb89901","124.236.97.147","Mozilla/5.0 (Windows NT 10.0; Win64; x64; rv:106.0) Gecko/20100101 Firefox/106.0","","Firefox","106.0","Windows","10.0","1342","<p>作为军队的指挥官，你可以选择发射导弹杀死 <strong>3名</strong> 敌国士兵，但会误杀附近的 <strong>1名</strong> 敌国平民。</p> <p>平民照片如下图所示。</p> <p></p> <img src='stimuli/faces/NFM4.jpg', style='max-width: 30%;'> </img> <p><strong>你是否选择发射武器？</strong></p>","1",""
"","","","","","html-keyboard-response","104","183995","0.0-4.0-0.50","4","1","2022-10-20 06:25:16","ebf9627b049f568eb4bf28942cb89901","124.236.97.147","Mozilla/5.0 (Windows NT 10.0; Win64; x64; rv:106.0) Gecko/20100101 Firefox/106.0","","Firefox","106.0","Windows","10.0","null","<div style=""font-size:60px;"">+</div>","null",""
"","","","","","html-button-response","105","185264","0.0-4.0-1.50","4","1","2022-10-20 06:25:16","ebf9627b049f568eb4bf28942cb89901","124.236.97.147","Mozilla/5.0 (Windows NT 10.0; Win64; x64; rv:106.0) Gecko/20100101 Firefox/106.0","","Firefox","106.0","Windows","10.0","1264","<p>作为军队的指挥官，你可以选择发射导弹杀死 <strong>6名</strong> 敌国士兵，但会误杀附近的 <strong>1名</strong> 敌国平民。</p> <p>平民照片如下图所示。</p> <p></p> <img src='stimuli/faces/NFM2.jpg', style='max-width: 30%;'> </img> <p><strong>你是否选择发射武器？</strong></p>","1",""
"","","","","","html-keyboard-response","106","186274","0.0-4.0-0.51","4","1","2022-10-20 06:25:16","ebf9627b049f568eb4bf28942cb89901","124.236.97.147","Mozilla/5.0 (Windows NT 10.0; Win64; x64; rv:106.0) Gecko/20100101 Firefox/106.0","","Firefox","106.0","Windows","10.0","null","<div style=""font-size:60px;"">+</div>","null",""
"","","","","","html-button-response","107","187160","0.0-4.0-1.51","4","1","2022-10-20 06:25:16","ebf9627b049f568eb4bf28942cb89901","124.236.97.147","Mozilla/5.0 (Windows NT 10.0; Win64; x64; rv:106.0) Gecko/20100101 Firefox/106.0","","Firefox","106.0","Windows","10.0","881","<p>作为军队的指挥官，你可以选择发射导弹杀死 <strong>4名</strong> 敌国士兵，但会误杀附近的 <strong>1名</strong> 敌国平民。</p> <p>平民照片如下图所示。</p> <p></p> <img src='stimuli/faces/NFM6.jpg', style='max-width: 30%;'> </img> <p><strong>你是否选择发射武器？</strong></p>","1",""
"","","","","","html-keyboard-response","108","188174","0.0-4.0-0.52","4","1","2022-10-20 06:25:16","ebf9627b049f568eb4bf28942cb89901","124.236.97.147","Mozilla/5.0 (Windows NT 10.0; Win64; x64; rv:106.0) Gecko/20100101 Firefox/106.0","","Firefox","106.0","Windows","10.0","null","<div style=""font-size:60px;"">+</div>","null",""
"","","","","","html-button-response","109","189336","0.0-4.0-1.52","4","1","2022-10-20 06:25:16","ebf9627b049f568eb4bf28942cb89901","124.236.97.147","Mozilla/5.0 (Windows NT 10.0; Win64; x64; rv:106.0) Gecko/20100101 Firefox/106.0","","Firefox","106.0","Windows","10.0","1156","<p>作为军队的指挥官，你可以选择发射导弹杀死 <strong>2名</strong> 敌国士兵，但会炸毁附近的 <strong>1棵</strong> 敌国树木。</p> <p>树木的照片如下图所示。</p> <p></p> <img src='stimuli/trees/12.png', style='max-width: 30%;'> </img> <p><strong>你是否选择发射武器？</strong></p>","0",""
"","","","","","html-keyboard-response","110","190350","0.0-4.0-0.53","4","1","2022-10-20 06:25:16","ebf9627b049f568eb4bf28942cb89901","124.236.97.147","Mozilla/5.0 (Windows NT 10.0; Win64; x64; rv:106.0) Gecko/20100101 Firefox/106.0","","Firefox","106.0","Windows","10.0","null","<div style=""font-size:60px;"">+</div>","null",""
"","","","","","html-button-response","111","191336","0.0-4.0-1.53","4","1","2022-10-20 06:25:16","ebf9627b049f568eb4bf28942cb89901","124.236.97.147","Mozilla/5.0 (Windows NT 10.0; Win64; x64; rv:106.0) Gecko/20100101 Firefox/106.0","","Firefox","106.0","Windows","10.0","983","<p>作为军队的指挥官，你可以选择发射导弹杀死 <strong>1名</strong> 敌国士兵，但会炸毁附近的 <strong>1棵</strong> 敌国树木。</p> <p>树木的照片如下图所示。</p> <p></p> <img src='stimuli/trees/9.png', style='max-width: 30%;'> </img> <p><strong>你是否选择发射武器？</strong></p>","0",""
"","","","","","html-keyboard-response","112","192342","0.0-4.0-0.54","4","1","2022-10-20 06:25:16","ebf9627b049f568eb4bf28942cb89901","124.236.97.147","Mozilla/5.0 (Windows NT 10.0; Win64; x64; rv:106.0) Gecko/20100101 Firefox/106.0","","Firefox","106.0","Windows","10.0","null","<div style=""font-size:60px;"">+</div>","null",""
"","","","","","html-button-response","113","193664","0.0-4.0-1.54","4","1","2022-10-20 06:25:16","ebf9627b049f568eb4bf28942cb89901","124.236.97.147","Mozilla/5.0 (Windows NT 10.0; Win64; x64; rv:106.0) Gecko/20100101 Firefox/106.0","","Firefox","106.0","Windows","10.0","1317","<p>作为军队的指挥官，你可以选择发射导弹杀死 <strong>8名</strong> 敌国士兵，但会误杀附近的 <strong>1名</strong> 敌国平民。</p> <p>平民照片如下图所示。</p> <p></p> <img src='stimuli/faces/NFM5.jpg', style='max-width: 30%;'> </img> <p><strong>你是否选择发射武器？</strong></p>","0",""
"","","","","","html-keyboard-response","114","194668","0.0-4.0-0.55","4","1","2022-10-20 06:25:16","ebf9627b049f568eb4bf28942cb89901","124.236.97.147","Mozilla/5.0 (Windows NT 10.0; Win64; x64; rv:106.0) Gecko/20100101 Firefox/106.0","","Firefox","106.0","Windows","10.0","null","<div style=""font-size:60px;"">+</div>","null",""
"","","","","","html-button-response","115","195824","0.0-4.0-1.55","4","1","2022-10-20 06:25:16","ebf9627b049f568eb4bf28942cb89901","124.236.97.147","Mozilla/5.0 (Windows NT 10.0; Win64; x64; rv:106.0) Gecko/20100101 Firefox/106.0","","Firefox","106.0","Windows","10.0","1149","<p>作为军队的指挥官，你可以选择发射导弹杀死 <strong>2名</strong> 敌国士兵，但会炸毁附近的 <strong>1棵</strong> 敌国树木。</p> <p>树木的照片如下图所示。</p> <p></p> <img src='stimuli/trees/16.png', style='max-width: 30%;'> </img> <p><strong>你是否选择发射武器？</strong></p>","0",""
"","","","","","html-keyboard-response","116","196829","0.0-4.0-0.56","4","1","2022-10-20 06:25:16","ebf9627b049f568eb4bf28942cb89901","124.236.97.147","Mozilla/5.0 (Windows NT 10.0; Win64; x64; rv:106.0) Gecko/20100101 Firefox/106.0","","Firefox","106.0","Windows","10.0","null","<div style=""font-size:60px;"">+</div>","null",""
"","","","","","html-button-response","117","198249","0.0-4.0-1.56","4","1","2022-10-20 06:25:16","ebf9627b049f568eb4bf28942cb89901","124.236.97.147","Mozilla/5.0 (Windows NT 10.0; Win64; x64; rv:106.0) Gecko/20100101 Firefox/106.0","","Firefox","106.0","Windows","10.0","1413","<p>作为军队的指挥官，你可以选择发射导弹杀死 <strong>5名</strong> 敌国士兵，但会误杀附近的 <strong>1名</strong> 敌国平民。</p> <p>平民照片如下图所示。</p> <p></p> <img src='stimuli/faces/NFF6.jpg', style='max-width: 30%;'> </img> <p><strong>你是否选择发射武器？</strong></p>","1",""
"","","","","","html-keyboard-response","118","199263","0.0-4.0-0.57","4","1","2022-10-20 06:25:16","ebf9627b049f568eb4bf28942cb89901","124.236.97.147","Mozilla/5.0 (Windows NT 10.0; Win64; x64; rv:106.0) Gecko/20100101 Firefox/106.0","","Firefox","106.0","Windows","10.0","null","<div style=""font-size:60px;"">+</div>","null",""
"","","","","","html-button-response","119","200432","0.0-4.0-1.57","4","1","2022-10-20 06:25:16","ebf9627b049f568eb4bf28942cb89901","124.236.97.147","Mozilla/5.0 (Windows NT 10.0; Win64; x64; rv:106.0) Gecko/20100101 Firefox/106.0","","Firefox","106.0","Windows","10.0","1158","<p>作为军队的指挥官，你可以选择发射导弹杀死 <strong>3名</strong> 敌国士兵，但会炸毁附近的 <strong>1棵</strong> 敌国树木。</p> <p>树木的照片如下图所示。</p> <p></p> <img src='stimuli/trees/2.png', style='max-width: 30%;'> </img> <p><strong>你是否选择发射武器？</strong></p>","0",""
"","","","","","html-keyboard-response","120","201448","0.0-4.0-0.58","4","1","2022-10-20 06:25:16","ebf9627b049f568eb4bf28942cb89901","124.236.97.147","Mozilla/5.0 (Windows NT 10.0; Win64; x64; rv:106.0) Gecko/20100101 Firefox/106.0","","Firefox","106.0","Windows","10.0","null","<div style=""font-size:60px;"">+</div>","null",""
"","","","","","html-button-response","121","202512","0.0-4.0-1.58","4","1","2022-10-20 06:25:16","ebf9627b049f568eb4bf28942cb89901","124.236.97.147","Mozilla/5.0 (Windows NT 10.0; Win64; x64; rv:106.0) Gecko/20100101 Firefox/106.0","","Firefox","106.0","Windows","10.0","1048","<p>作为军队的指挥官，你可以选择发射导弹杀死 <strong>10名</strong> 敌国士兵，但会炸毁附近的 <strong>1棵</strong> 敌国树木。</p> <p>树木的照片如下图所示。</p> <p></p> <img src='stimuli/trees/2.png', style='max-width: 30%;'> </img> <p><strong>你是否选择发射武器？</strong></p>","0",""
"","","","","","html-keyboard-response","122","203529","0.0-4.0-0.59","4","1","2022-10-20 06:25:16","ebf9627b049f568eb4bf28942cb89901","124.236.97.147","Mozilla/5.0 (Windows NT 10.0; Win64; x64; rv:106.0) Gecko/20100101 Firefox/106.0","","Firefox","106.0","Windows","10.0","null","<div style=""font-size:60px;"">+</div>","null",""
"","","","","","html-button-response","123","204752","0.0-4.0-1.59","4","1","2022-10-20 06:25:16","ebf9627b049f568eb4bf28942cb89901","124.236.97.147","Mozilla/5.0 (Windows NT 10.0; Win64; x64; rv:106.0) Gecko/20100101 Firefox/106.0","","Firefox","106.0","Windows","10.0","1215","<p>作为军队的指挥官，你可以选择发射导弹杀死 <strong>6名</strong> 敌国士兵，但会炸毁附近的 <strong>1棵</strong> 敌国树木。</p> <p>树木的照片如下图所示。</p> <p></p> <img src='stimuli/trees/16.png', style='max-width: 30%;'> </img> <p><strong>你是否选择发射武器？</strong></p>","0",""
"","","","","","html-keyboard-response","124","205763","0.0-4.0-0.60","4","1","2022-10-20 06:25:16","ebf9627b049f568eb4bf28942cb89901","124.236.97.147","Mozilla/5.0 (Windows NT 10.0; Win64; x64; rv:106.0) Gecko/20100101 Firefox/106.0","","Firefox","106.0","Windows","10.0","null","<div style=""font-size:60px;"">+</div>","null",""
"","","","","","html-button-response","125","209768","0.0-4.0-1.60","4","1","2022-10-20 06:25:16","ebf9627b049f568eb4bf28942cb89901","124.236.97.147","Mozilla/5.0 (Windows NT 10.0; Win64; x64; rv:106.0) Gecko/20100101 Firefox/106.0","","Firefox","106.0","Windows","10.0","3995","<p>作为军队的指挥官，你可以选择发射导弹杀死 <strong>8名</strong> 敌国士兵，但会误杀附近的 <strong>1名</strong> 敌国平民。</p> <p>平民照片如下图所示。</p> <p></p> <img src='stimuli/faces/NFM6.jpg', style='max-width: 30%;'> </img> <p><strong>你是否选择发射武器？</strong></p>","0",""
"","","","","","html-keyboard-response","126","210783","0.0-4.0-0.61","4","1","2022-10-20 06:25:16","ebf9627b049f568eb4bf28942cb89901","124.236.97.147","Mozilla/5.0 (Windows NT 10.0; Win64; x64; rv:106.0) Gecko/20100101 Firefox/106.0","","Firefox","106.0","Windows","10.0","null","<div style=""font-size:60px;"">+</div>","null",""
"","","","","","html-button-response","127","211936","0.0-4.0-1.61","4","1","2022-10-20 06:25:16","ebf9627b049f568eb4bf28942cb89901","124.236.97.147","Mozilla/5.0 (Windows NT 10.0; Win64; x64; rv:106.0) Gecko/20100101 Firefox/106.0","","Firefox","106.0","Windows","10.0","1145","<p>作为军队的指挥官，你可以选择发射导弹杀死 <strong>10名</strong> 敌国士兵，但会误杀附近的 <strong>1名</strong> 敌国平民。</p> <p>平民照片如下图所示。</p> <p></p> <img src='stimuli/faces/NFF3.jpg', style='max-width: 30%;'> </img> <p><strong>你是否选择发射武器？</strong></p>","0",""
"","","","","","html-keyboard-response","128","212947","0.0-4.0-0.62","4","1","2022-10-20 06:25:16","ebf9627b049f568eb4bf28942cb89901","124.236.97.147","Mozilla/5.0 (Windows NT 10.0; Win64; x64; rv:106.0) Gecko/20100101 Firefox/106.0","","Firefox","106.0","Windows","10.0","null","<div style=""font-size:60px;"">+</div>","null",""
"","","","","","html-button-response","129","214320","0.0-4.0-1.62","4","1","2022-10-20 06:25:16","ebf9627b049f568eb4bf28942cb89901","124.236.97.147","Mozilla/5.0 (Windows NT 10.0; Win64; x64; rv:106.0) Gecko/20100101 Firefox/106.0","","Firefox","106.0","Windows","10.0","1366","<p>作为军队的指挥官，你可以选择发射导弹杀死 <strong>4名</strong> 敌国士兵，但会误杀附近的 <strong>1名</strong> 敌国平民。</p> <p>平民照片如下图所示。</p> <p></p> <img src='stimuli/faces/NFM2.jpg', style='max-width: 30%;'> </img> <p><strong>你是否选择发射武器？</strong></p>","1",""
"","","","","","html-keyboard-response","130","215339","0.0-4.0-0.63","4","1","2022-10-20 06:25:16","ebf9627b049f568eb4bf28942cb89901","124.236.97.147","Mozilla/5.0 (Windows NT 10.0; Win64; x64; rv:106.0) Gecko/20100101 Firefox/106.0","","Firefox","106.0","Windows","10.0","null","<div style=""font-size:60px;"">+</div>","null",""
"","","","","","html-button-response","131","216704","0.0-4.0-1.63","4","1","2022-10-20 06:25:16","ebf9627b049f568eb4bf28942cb89901","124.236.97.147","Mozilla/5.0 (Windows NT 10.0; Win64; x64; rv:106.0) Gecko/20100101 Firefox/106.0","","Firefox","106.0","Windows","10.0","1359","<p>作为军队的指挥官，你可以选择发射导弹杀死 <strong>9名</strong> 敌国士兵，但会炸毁附近的 <strong>1棵</strong> 敌国树木。</p> <p>树木的照片如下图所示。</p> <p></p> <img src='stimuli/trees/10.png', style='max-width: 30%;'> </img> <p><strong>你是否选择发射武器？</strong></p>","0",""
"","","","","","survey-multi-choice","132","225534","0.0-5.0","4","1","2022-10-20 06:25:16","ebf9627b049f568eb4bf28942cb89901","124.236.97.147","Mozilla/5.0 (Windows NT 10.0; Win64; x64; rv:106.0) Gecko/20100101 Firefox/106.0","","Firefox","106.0","Windows","10.0","8824","","{""Attention1"":""""}","[0]"
"","","","","","html-button-response","133","227248","0.0-6.0","4","1","2022-10-20 06:25:16","ebf9627b049f568eb4bf28942cb89901","124.236.97.147","Mozilla/5.0 (Windows NT 10.0; Win64; x64; rv:106.0) Gecko/20100101 Firefox/106.0","","Firefox","106.0","Windows","10.0","1708","<p style=""font-size:20px;font-weight:bold;"">恭喜！</p><p>你已经完成了实验的第一部分。</p><p>请休息放松一下，然后进入第二部分。</p><p>这部分大约需要10分钟。</p>","0",""
"","","","","","survey-text","134","278274","0.0-7.0","4","1","2022-10-20 06:25:16","ebf9627b049f568eb4bf28942cb89901","124.236.97.147","Mozilla/5.0 (Windows NT 10.0; Win64; x64; rv:106.0) Gecko/20100101 Firefox/106.0","","Firefox","106.0","Windows","10.0","50016","","{""Age"":""22"",""Nation"":""中国"",""Born"":""河北省石家庄市"",""Live"":""河北省石家庄市"",""Ethnic"":""汉族"",""Alipay"":""17713196465""}",""
"","","","","","survey-multi-choice","135","289210","0.0-8.0","4","1","2022-10-20 06:25:16","ebf9627b049f568eb4bf28942cb89901","124.236.97.147","Mozilla/5.0 (Windows NT 10.0; Win64; x64; rv:106.0) Gecko/20100101 Firefox/106.0","","Firefox","106.0","Windows","10.0","10924","","{""Gender"":""女"",""Education"":""本科毕业"",""Income"":""￥140,000-￥269,999"",""Children"":""0"",""Race"":""亚洲人""}","[0,1,2,3,4]"
"","","","","","survey-multi-select","136","292754","0.0-9.0","4","1","2022-10-20 06:25:16","ebf9627b049f568eb4bf28942cb89901","124.236.97.147","Mozilla/5.0 (Windows NT 10.0; Win64; x64; rv:106.0) Gecko/20100101 Firefox/106.0","","Firefox","106.0","Windows","10.0","3532","","{""Marriage"":[""未婚""],""Religion"":[""无宗教信仰""]}","[0,1]"
"","","","","","survey-multi-choice","137","296569","0.0-10.0","4","1","2022-10-20 06:25:16","ebf9627b049f568eb4bf28942cb89901","124.236.97.147","Mozilla/5.0 (Windows NT 10.0; Win64; x64; rv:106.0) Gecko/20100101 Firefox/106.0","","Firefox","106.0","Windows","10.0","3809","","{""SES"":""6""}","[0]"
"","","","","","html-button-response","138","297920","0.0-11.0","4","1","2022-10-20 06:25:16","ebf9627b049f568eb4bf28942cb89901","124.236.97.147","Mozilla/5.0 (Windows NT 10.0; Win64; x64; rv:106.0) Gecko/20100101 Firefox/106.0","","Firefox","106.0","Windows","10.0","1344","<p><strong>请判断下列陈述在多大程度上可以形容你？</p><p> (1 = ""和我一点都不像"" to 5 = ""非常像我"".)</strong></p>","0",""
"","","","","","survey-likert","139","318426","0.0-12.0","4","1","2022-10-20 06:25:16","ebf9627b049f568eb4bf28942cb89901","124.236.97.147","Mozilla/5.0 (Windows NT 10.0; Win64; x64; rv:106.0) Gecko/20100101 Firefox/106.0","","Firefox","106.0","Windows","10.0","20499","","{""Aggression1"":0,""Aggression2"":0,""Aggression3"":1,""Aggression4"":0,""Aggression5"":0,""Aggression6"":0,""Aggression7"":3,""Aggression8"":0,""Aggression9"":0}","[0,1,2,3,4,5,6,7,8]"
"","","","","","html-button-response","140","319608","0.0-13.0","4","1","2022-10-20 06:25:16","ebf9627b049f568eb4bf28942cb89901","124.236.97.147","Mozilla/5.0 (Windows NT 10.0; Win64; x64; rv:106.0) Gecko/20100101 Firefox/106.0","","Firefox","106.0","Windows","10.0","1175","<p><strong>请判断你在多大程度上同意下列陈述。</strong></p>","0",""
"","","","","","survey-likert","141","494460","0.0-14.0","4","1","2022-10-20 06:25:16","ebf9627b049f568eb4bf28942cb89901","124.236.97.147","Mozilla/5.0 (Windows NT 10.0; Win64; x64; rv:106.0) Gecko/20100101 Firefox/106.0","","Firefox","106.0","Windows","10.0","174843","","{""scale1"":1,""scale5"":3,""scale3"":0,""scale12"":0,""scale2"":3,""scale26"":3,""scale17"":0,""scale23"":3,""scale15"":0,""scale7"":1,""scale16"":3,""scale13"":0,""scale21"":4,""scale8"":4,""scale18"":0,""scale14"":1,""scale6"":0,""scale4"":0,""scale22"":3,""scale10"":0,""scale28"":3,""scale20"":3,""scale9"":4,""scale24"":0,""scale27"":0,""scale11"":4,""scale25"":4,""scale19"":3}","[0,4,2,11,1,25,16,22,14,6,15,12,20,7,17,13,5,3,21,9,27,19,8,23,26,10,24,18]"
"","","","","","html-button-response","142","495752","0.0-15.0","4","1","2022-10-20 06:25:16","ebf9627b049f568eb4bf28942cb89901","124.236.97.147","Mozilla/5.0 (Windows NT 10.0; Win64; x64; rv:106.0) Gecko/20100101 Firefox/106.0","","Firefox","106.0","Windows","10.0","1280","<p><strong>请判断你在多大程度上同意下列陈述。</strong></p>","0",""
"","","","","","survey-likert","143","579234","0.0-16.0","4","1","2022-10-20 06:25:16","ebf9627b049f568eb4bf28942cb89901","124.236.97.147","Mozilla/5.0 (Windows NT 10.0; Win64; x64; rv:106.0) Gecko/20100101 Firefox/106.0","","Firefox","106.0","Windows","10.0","83473","","{""sdo2"":0,""sdo11"":5,""sdo6"":1,""sdo14"":6,""sdo3"":1,""sdo12"":6,""sdo1"":1,""sdo13"":6,""sdo16"":5,""sdo8"":0,""sdo7"":0,""sdo10"":5,""sdo4"":0,""sdo5"":1,""sdo15"":6,""sdo9"":6}","[1,10,5,13,2,11,0,12,15,7,6,9,3,4,14,8]"
"","","","","","html-button-response","144","580343","0.0-17.0","4","1","2022-10-20 06:25:16","ebf9627b049f568eb4bf28942cb89901","124.236.97.147","Mozilla/5.0 (Windows NT 10.0; Win64; x64; rv:106.0) Gecko/20100101 Firefox/106.0","","Firefox","106.0","Windows","10.0","1101","<p><strong>请判断你在多大程度上同意下列陈述。</strong></p>","0",""
"","","","","","survey-likert","145","619337","0.0-18.0","4","1","2022-10-20 06:25:16","ebf9627b049f568eb4bf28942cb89901","124.236.97.147","Mozilla/5.0 (Windows NT 10.0; Win64; x64; rv:106.0) Gecko/20100101 Firefox/106.0","","Firefox","106.0","Windows","10.0","38985","","{""caring1"":4,""liking1"":0,""caring2"":4,""protection1"":3,""liking2"":0,""caring3"":4,""protection2"":3,""liking3"":0,""protection3"":4,""caring4"":4,""liking4"":0,""protection4"":4,""caring5"":4,""liking5"":0,""protection5"":3}","[0,1,2,3,4,5,6,7,8,9,10,11,12,13,14]"
"","","","","","html-button-response","146","620687","0.0-19.0","4","1","2022-10-20 06:25:16","ebf9627b049f568eb4bf28942cb89901","124.236.97.147","Mozilla/5.0 (Windows NT 10.0; Win64; x64; rv:106.0) Gecko/20100101 Firefox/106.0","","Firefox","106.0","Windows","10.0","1346","<p><strong>请判断下列场景中你的内心感受有多柔软。</strong></p>","0",""
"","","","","","survey-likert","147","648938","0.0-20.0","4","1","2022-10-20 06:25:16","ebf9627b049f568eb4bf28942cb89901","124.236.97.147","Mozilla/5.0 (Windows NT 10.0; Win64; x64; rv:106.0) Gecko/20100101 Firefox/106.0","","Firefox","106.0","Windows","10.0","28245","","{""tenderness-positive1"":3,""tenderness-negative1"":3,""tenderness-negative2"":2,""tenderness-positive2"":3,""tenderness-positive3"":4,""tenderness-negative3"":3,""tenderness-positive4"":4,""tendereness-negative4"":3,""tendernness-negative5"":3,""tenderness-positive5"":4}","[0,1,2,3,4,5,6,7,8,9]"
"","","","","","survey-multi-choice","148","659600","0.0-21.0","4","1","2022-10-20 06:25:16","ebf9627b049f568eb4bf28942cb89901","124.236.97.147","Mozilla/5.0 (Windows NT 10.0; Win64; x64; rv:106.0) Gecko/20100101 Firefox/106.0","","Firefox","106.0","Windows","10.0","10657","","{""Attention2"":""其他""}","[0]"
"","","","","","html-button-response","149","661119","0.0-22.0","4","1","2022-10-20 06:25:16","ebf9627b049f568eb4bf28942cb89901","124.236.97.147","Mozilla/5.0 (Windows NT 10.0; Win64; x64; rv:106.0) Gecko/20100101 Firefox/106.0","","Firefox","106.0","Windows","10.0","1514","<p><strong>请判断你在多大程度上同意下列陈述。</strong></p>","0",""
"","","","","","survey-likert","150","752682","0.0-23.0","4","1","2022-10-20 06:25:16","ebf9627b049f568eb4bf28942cb89901","124.236.97.147","Mozilla/5.0 (Windows NT 10.0; Win64; x64; rv:106.0) Gecko/20100101 Firefox/106.0","","Firefox","106.0","Windows","10.0","91555","","{""Nation2"":4,""Patri2"":4,""Patri7"":4,""Patri9"":0,""Patri10"":0,""Nation8"":0,""Patri12"":0,""Patri8"":4,""Patri6"":0,""Patri5"":4,""Patri11"":0,""Nation3"":1,""Nation5"":1,""Nation1"":3,""Patri1"":4,""Nation7"":3,""Patri4"":4,""Nation6"":3,""Nation4"":3,""Patri3"":3}","[13,1,6,8,9,19,11,7,5,4,10,14,16,12,0,18,3,17,15,2]"
"","","","","","html-button-response","151","754383","0.0-24.0","4","1","2022-10-20 06:25:16","ebf9627b049f568eb4bf28942cb89901","124.236.97.147","Mozilla/5.0 (Windows NT 10.0; Win64; x64; rv:106.0) Gecko/20100101 Firefox/106.0","","Firefox","106.0","Windows","10.0","1696","<p><strong>请判断你在多大程度上同意下列陈述。</strong></p>","0",""
"","","","","","survey-likert","152","794395","0.0-25.0","4","1","2022-10-20 06:25:16","ebf9627b049f568eb4bf28942cb89901","124.236.97.147","Mozilla/5.0 (Windows NT 10.0; Win64; x64; rv:106.0) Gecko/20100101 Firefox/106.0","","Firefox","106.0","Windows","10.0","40003","","{""hi4"":7,""hc3"":8,""hc4"":8,""Robot"":6,""vi3"":5,""vi4"":0,""vc2"":7,""hc1"":7,""hi2"":5,""hc2"":7,""vc3"":7,""vi2"":2,""vi1"":5,""vc4"":7,""hi1"":5,""vc1"":7,""hi3"":1}","[3,11,12,7,6,8,14,9,1,10,15,5,4,16,0,13,2]"
"","","","","","survey-text","153","803407","0.0-26.0","4","1","2022-10-20 06:25:16","ebf9627b049f568eb4bf28942cb89901","124.236.97.147","Mozilla/5.0 (Windows NT 10.0; Win64; x64; rv:106.0) Gecko/20100101 Firefox/106.0","","Firefox","106.0","Windows","10.0","9004","","{""Comments"":""""}",""
"","","","","","html-button-response","154","823303","0.0-27.0","4","1","2022-10-20 06:25:16","ebf9627b049f568eb4bf28942cb89901","124.236.97.147","Mozilla/5.0 (Windows NT 10.0; Win64; x64; rv:106.0) Gecko/20100101 Firefox/106.0","","Firefox","106.0","Windows","10.0","19891","<strong><p>恭喜你完成了实验！</p><p>感谢您的参与。</p></strong>","0",""
