"success","timeout","failed_images","failed_audio","failed_video","trial_type","trial_index","time_elapsed","internal_node_id","run_id","condition","recorded_at","source_code_version","ip","user_agent","device","browser","browser_version","platform","platform_version","rt","stimulus","response","question_order"
"true","false","[]","[]","[]","preload","0","1774","0.0-0.0","42","1","2022-10-27 09:29:09","ebf9627b049f568eb4bf28942cb89901","113.78.199.106","Mozilla/5.0 (Windows NT 10.0; Win64; x64) AppleWebKit/537.36 (KHTML, like Gecko) Chrome/106.0.0.0 Safari/537.36 Edg/106.0.1370.52","WebKit","Edge","106.0.1370.52","Windows","10.0","","","",""
"true","","","","","fullscreen","1","139935","0.0-1.0","42","1","2022-10-27 09:29:09","ebf9627b049f568eb4bf28942cb89901","113.78.199.106","Mozilla/5.0 (Windows NT 10.0; Win64; x64) AppleWebKit/537.36 (KHTML, like Gecko) Chrome/106.0.0.0 Safari/537.36 Edg/106.0.1370.52","WebKit","Edge","106.0.1370.52","Windows","10.0","","","",""
"","","","","","html-button-response","2","153622","0.0-2.0","42","1","2022-10-27 09:29:09","ebf9627b049f568eb4bf28942cb89901","113.78.199.106","Mozilla/5.0 (Windows NT 10.0; Win64; x64) AppleWebKit/537.36 (KHTML, like Gecko) Chrome/106.0.0.0 Safari/537.36 Edg/106.0.1370.52","WebKit","Edge","106.0.1370.52","Windows","10.0","13684","<p style=""font-size:20px;font-weight:bold;"">实验知情同意书</p><p style=""text-align:left;""><strong>实验名称：</strong>社会冲突研究</p><p style=""text-align:left;""><strong>主要研究者：</strong>韩晓春副教授（北京师范大学心理学部）</p><p style=""text-align:left;""><strong>联系方式：</strong>发送邮件至xiaochun.han@bnu.edu.cn</p><p style=""text-align:left;""><strong>研究目的：</strong>研究旨在了解人类面对群体冲突时的决策方式，以及相关的心理学特质。实验调查大约需要20分钟。</p><p style=""text-align:left;""><strong>实验流程：</strong>实验包含两部分。第一部分呈现一系列群体冲突场景，请你决定如何对这些冲突进行反应，大约需要10分钟完成。第二部分包含一系列人口统计学信息收集和心理学问卷，大约需要10分钟完成。</p><p style=""text-align:left;""><strong>参加及退出规则：</strong>参加本实验完全取决于您的个人意愿。在参与过程中，您可以随时退出，并且不用承担任何后果。</p><p style=""text-align:left;""><strong>隐私：</strong>本实验完全匿名进行，不会收集您的姓名或其他能够识别您身份的信息。实验中收集的作答仅用作科学研究使用，可能会在学术期刊/书籍上发表，或者用于教学，您的数据未来可能会和其他研究者或实验室分享，但您的个人身份不会被识别。</p><p style=""text-align:left;""><strong>实验报酬：</strong>实验完成后，您将获得15元人民币报酬，以感谢您的时间和努力。调查问卷中包含几道题目用以测验您作答时的认真度。只有完成全部实验，并且正确回答认真度测验的被试才能获得实验报酬。实验报酬将通过支付宝转账发放。</p><p style=""text-align:left;font-size:20px;""><strong>如果您同意以上实验知情同意书的内容，请点击'同意并且开始实验'按钮；否则请关闭浏览器界面，退出实验。</strong></p>","0",""
"","","","","","html-button-response","3","155853","0.0-3.0","42","1","2022-10-27 09:29:09","ebf9627b049f568eb4bf28942cb89901","113.78.199.106","Mozilla/5.0 (Windows NT 10.0; Win64; x64) AppleWebKit/537.36 (KHTML, like Gecko) Chrome/106.0.0.0 Safari/537.36 Edg/106.0.1370.52","WebKit","Edge","106.0.1370.52","Windows","10.0","2229","<p ><strong>实验任务一：</strong></p><p>请想象你的国家与另一个国家发生了军事冲突。</p><p>你是国家军队的指挥官，你将如何在冲突中进行决策。</p><p>具体来说，作为军队指挥官，请你决定是否发射导弹进行打击。</p><p>接下来，你会面对一系列场景，请仔细阅读每个场景，然后进行决策。</p><p>这部分实验任务大约需要10分钟。</p><p><strong>实验过程中，请集中注意力。</strong></p>","0",""
"","","","","","html-keyboard-response","4","156856","0.0-4.0-0.0","42","1","2022-10-27 09:29:09","ebf9627b049f568eb4bf28942cb89901","113.78.199.106","Mozilla/5.0 (Windows NT 10.0; Win64; x64) AppleWebKit/537.36 (KHTML, like Gecko) Chrome/106.0.0.0 Safari/537.36 Edg/106.0.1370.52","WebKit","Edge","106.0.1370.52","Windows","10.0","null","<div style=""font-size:60px;"">+</div>","null",""
"","","","","","html-button-response","5","161189","0.0-4.0-1.0","42","1","2022-10-27 09:29:09","ebf9627b049f568eb4bf28942cb89901","113.78.199.106","Mozilla/5.0 (Windows NT 10.0; Win64; x64) AppleWebKit/537.36 (KHTML, like Gecko) Chrome/106.0.0.0 Safari/537.36 Edg/106.0.1370.52","WebKit","Edge","106.0.1370.52","Windows","10.0","4330","<p>作为军队的指挥官，你可以选择发射导弹杀死 <strong>4名</strong> 敌国士兵，但会误杀附近的 <strong>1名</strong> 敌国平民。</p> <p>平民照片如下图所示。</p> <p></p> <img src='stimuli/faces/NFM6.jpg', style='max-width: 30%;'> </img> <p><strong>你是否选择发射武器？</strong></p>","0",""
"","","","","","html-keyboard-response","6","162193","0.0-4.0-0.1","42","1","2022-10-27 09:29:09","ebf9627b049f568eb4bf28942cb89901","113.78.199.106","Mozilla/5.0 (Windows NT 10.0; Win64; x64) AppleWebKit/537.36 (KHTML, like Gecko) Chrome/106.0.0.0 Safari/537.36 Edg/106.0.1370.52","WebKit","Edge","106.0.1370.52","Windows","10.0","null","<div style=""font-size:60px;"">+</div>","null",""
"","","","","","html-button-response","7","164397","0.0-4.0-1.1","42","1","2022-10-27 09:29:09","ebf9627b049f568eb4bf28942cb89901","113.78.199.106","Mozilla/5.0 (Windows NT 10.0; Win64; x64) AppleWebKit/537.36 (KHTML, like Gecko) Chrome/106.0.0.0 Safari/537.36 Edg/106.0.1370.52","WebKit","Edge","106.0.1370.52","Windows","10.0","2200","<p>作为军队的指挥官，你可以选择发射导弹杀死 <strong>3名</strong> 敌国士兵，但会误杀附近的 <strong>1名</strong> 敌国平民。</p> <p>平民照片如下图所示。</p> <p></p> <img src='stimuli/faces/NFM8.jpg', style='max-width: 30%;'> </img> <p><strong>你是否选择发射武器？</strong></p>","1",""
"","","","","","html-keyboard-response","8","165409","0.0-4.0-0.2","42","1","2022-10-27 09:29:09","ebf9627b049f568eb4bf28942cb89901","113.78.199.106","Mozilla/5.0 (Windows NT 10.0; Win64; x64) AppleWebKit/537.36 (KHTML, like Gecko) Chrome/106.0.0.0 Safari/537.36 Edg/106.0.1370.52","WebKit","Edge","106.0.1370.52","Windows","10.0","null","<div style=""font-size:60px;"">+</div>","null",""
"","","","","","html-button-response","9","172303","0.0-4.0-1.2","42","1","2022-10-27 09:29:09","ebf9627b049f568eb4bf28942cb89901","113.78.199.106","Mozilla/5.0 (Windows NT 10.0; Win64; x64) AppleWebKit/537.36 (KHTML, like Gecko) Chrome/106.0.0.0 Safari/537.36 Edg/106.0.1370.52","WebKit","Edge","106.0.1370.52","Windows","10.0","6888","<p>作为军队的指挥官，你可以选择发射导弹杀死 <strong>8名</strong> 敌国士兵，但会误杀附近的 <strong>1名</strong> 敌国平民。</p> <p>平民照片如下图所示。</p> <p></p> <img src='stimuli/faces/NFM4.jpg', style='max-width: 30%;'> </img> <p><strong>你是否选择发射武器？</strong></p>","0",""
"","","","","","html-keyboard-response","10","173312","0.0-4.0-0.3","42","1","2022-10-27 09:29:09","ebf9627b049f568eb4bf28942cb89901","113.78.199.106","Mozilla/5.0 (Windows NT 10.0; Win64; x64) AppleWebKit/537.36 (KHTML, like Gecko) Chrome/106.0.0.0 Safari/537.36 Edg/106.0.1370.52","WebKit","Edge","106.0.1370.52","Windows","10.0","null","<div style=""font-size:60px;"">+</div>","null",""
"","","","","","html-button-response","11","174589","0.0-4.0-1.3","42","1","2022-10-27 09:29:09","ebf9627b049f568eb4bf28942cb89901","113.78.199.106","Mozilla/5.0 (Windows NT 10.0; Win64; x64) AppleWebKit/537.36 (KHTML, like Gecko) Chrome/106.0.0.0 Safari/537.36 Edg/106.0.1370.52","WebKit","Edge","106.0.1370.52","Windows","10.0","1273","<p>作为军队的指挥官，你可以选择发射导弹杀死 <strong>10名</strong> 敌国士兵，但会炸毁附近的 <strong>1棵</strong> 敌国树木。</p> <p>树木的照片如下图所示。</p> <p></p> <img src='stimuli/trees/2.png', style='max-width: 30%;'> </img> <p><strong>你是否选择发射武器？</strong></p>","0",""
"","","","","","html-keyboard-response","12","175598","0.0-4.0-0.4","42","1","2022-10-27 09:29:09","ebf9627b049f568eb4bf28942cb89901","113.78.199.106","Mozilla/5.0 (Windows NT 10.0; Win64; x64) AppleWebKit/537.36 (KHTML, like Gecko) Chrome/106.0.0.0 Safari/537.36 Edg/106.0.1370.52","WebKit","Edge","106.0.1370.52","Windows","10.0","null","<div style=""font-size:60px;"">+</div>","null",""
"","","","","","html-button-response","13","178654","0.0-4.0-1.4","42","1","2022-10-27 09:29:09","ebf9627b049f568eb4bf28942cb89901","113.78.199.106","Mozilla/5.0 (Windows NT 10.0; Win64; x64) AppleWebKit/537.36 (KHTML, like Gecko) Chrome/106.0.0.0 Safari/537.36 Edg/106.0.1370.52","WebKit","Edge","106.0.1370.52","Windows","10.0","3054","<p>作为军队的指挥官，你可以选择发射导弹杀死 <strong>7名</strong> 敌国士兵，但会炸毁附近的 <strong>1棵</strong> 敌国树木。</p> <p>树木的照片如下图所示。</p> <p></p> <img src='stimuli/trees/12.png', style='max-width: 30%;'> </img> <p><strong>你是否选择发射武器？</strong></p>","0",""
"","","","","","html-keyboard-response","14","179672","0.0-4.0-0.5","42","1","2022-10-27 09:29:09","ebf9627b049f568eb4bf28942cb89901","113.78.199.106","Mozilla/5.0 (Windows NT 10.0; Win64; x64) AppleWebKit/537.36 (KHTML, like Gecko) Chrome/106.0.0.0 Safari/537.36 Edg/106.0.1370.52","WebKit","Edge","106.0.1370.52","Windows","10.0","null","<div style=""font-size:60px;"">+</div>","null",""
"","","","","","html-button-response","15","187438","0.0-4.0-1.5","42","1","2022-10-27 09:29:09","ebf9627b049f568eb4bf28942cb89901","113.78.199.106","Mozilla/5.0 (Windows NT 10.0; Win64; x64) AppleWebKit/537.36 (KHTML, like Gecko) Chrome/106.0.0.0 Safari/537.36 Edg/106.0.1370.52","WebKit","Edge","106.0.1370.52","Windows","10.0","7761","<p>作为军队的指挥官，你可以选择发射导弹杀死 <strong>9名</strong> 敌国士兵，但会误杀附近的 <strong>1名</strong> 敌国平民。</p> <p>平民照片如下图所示。</p> <p></p> <img src='stimuli/faces/NFF6.jpg', style='max-width: 30%;'> </img> <p><strong>你是否选择发射武器？</strong></p>","0",""
"","","","","","html-keyboard-response","16","188445","0.0-4.0-0.6","42","1","2022-10-27 09:29:09","ebf9627b049f568eb4bf28942cb89901","113.78.199.106","Mozilla/5.0 (Windows NT 10.0; Win64; x64) AppleWebKit/537.36 (KHTML, like Gecko) Chrome/106.0.0.0 Safari/537.36 Edg/106.0.1370.52","WebKit","Edge","106.0.1370.52","Windows","10.0","null","<div style=""font-size:60px;"">+</div>","null",""
"","","","","","html-button-response","17","196487","0.0-4.0-1.6","42","1","2022-10-27 09:29:09","ebf9627b049f568eb4bf28942cb89901","113.78.199.106","Mozilla/5.0 (Windows NT 10.0; Win64; x64) AppleWebKit/537.36 (KHTML, like Gecko) Chrome/106.0.0.0 Safari/537.36 Edg/106.0.1370.52","WebKit","Edge","106.0.1370.52","Windows","10.0","8038","<p>作为军队的指挥官，你可以选择发射导弹杀死 <strong>6名</strong> 敌国士兵，但会误杀附近的 <strong>1名</strong> 敌国平民。</p> <p>平民照片如下图所示。</p> <p></p> <img src='stimuli/faces/NFM1.jpg', style='max-width: 30%;'> </img> <p><strong>你是否选择发射武器？</strong></p>","0",""
"","","","","","html-keyboard-response","18","197497","0.0-4.0-0.7","42","1","2022-10-27 09:29:09","ebf9627b049f568eb4bf28942cb89901","113.78.199.106","Mozilla/5.0 (Windows NT 10.0; Win64; x64) AppleWebKit/537.36 (KHTML, like Gecko) Chrome/106.0.0.0 Safari/537.36 Edg/106.0.1370.52","WebKit","Edge","106.0.1370.52","Windows","10.0","null","<div style=""font-size:60px;"">+</div>","null",""
"","","","","","html-button-response","19","198614","0.0-4.0-1.7","42","1","2022-10-27 09:29:09","ebf9627b049f568eb4bf28942cb89901","113.78.199.106","Mozilla/5.0 (Windows NT 10.0; Win64; x64) AppleWebKit/537.36 (KHTML, like Gecko) Chrome/106.0.0.0 Safari/537.36 Edg/106.0.1370.52","WebKit","Edge","106.0.1370.52","Windows","10.0","1112","<p>作为军队的指挥官，你可以选择发射导弹杀死 <strong>8名</strong> 敌国士兵，但会炸毁附近的 <strong>1棵</strong> 敌国树木。</p> <p>树木的照片如下图所示。</p> <p></p> <img src='stimuli/trees/5.png', style='max-width: 30%;'> </img> <p><strong>你是否选择发射武器？</strong></p>","0",""
"","","","","","html-keyboard-response","20","199619","0.0-4.0-0.8","42","1","2022-10-27 09:29:09","ebf9627b049f568eb4bf28942cb89901","113.78.199.106","Mozilla/5.0 (Windows NT 10.0; Win64; x64) AppleWebKit/537.36 (KHTML, like Gecko) Chrome/106.0.0.0 Safari/537.36 Edg/106.0.1370.52","WebKit","Edge","106.0.1370.52","Windows","10.0","null","<div style=""font-size:60px;"">+</div>","null",""
"","","","","","html-button-response","21","201349","0.0-4.0-1.8","42","1","2022-10-27 09:29:09","ebf9627b049f568eb4bf28942cb89901","113.78.199.106","Mozilla/5.0 (Windows NT 10.0; Win64; x64) AppleWebKit/537.36 (KHTML, like Gecko) Chrome/106.0.0.0 Safari/537.36 Edg/106.0.1370.52","WebKit","Edge","106.0.1370.52","Windows","10.0","1727","<p>作为军队的指挥官，你可以选择发射导弹杀死 <strong>3名</strong> 敌国士兵，但会炸毁附近的 <strong>1棵</strong> 敌国树木。</p> <p>树木的照片如下图所示。</p> <p></p> <img src='stimuli/trees/11.png', style='max-width: 30%;'> </img> <p><strong>你是否选择发射武器？</strong></p>","1",""
"","","","","","html-keyboard-response","22","202357","0.0-4.0-0.9","42","1","2022-10-27 09:29:09","ebf9627b049f568eb4bf28942cb89901","113.78.199.106","Mozilla/5.0 (Windows NT 10.0; Win64; x64) AppleWebKit/537.36 (KHTML, like Gecko) Chrome/106.0.0.0 Safari/537.36 Edg/106.0.1370.52","WebKit","Edge","106.0.1370.52","Windows","10.0","null","<div style=""font-size:60px;"">+</div>","null",""
"","","","","","html-button-response","23","205334","0.0-4.0-1.9","42","1","2022-10-27 09:29:09","ebf9627b049f568eb4bf28942cb89901","113.78.199.106","Mozilla/5.0 (Windows NT 10.0; Win64; x64) AppleWebKit/537.36 (KHTML, like Gecko) Chrome/106.0.0.0 Safari/537.36 Edg/106.0.1370.52","WebKit","Edge","106.0.1370.52","Windows","10.0","2974","<p>作为军队的指挥官，你可以选择发射导弹杀死 <strong>6名</strong> 敌国士兵，但会误杀附近的 <strong>1名</strong> 敌国平民。</p> <p>平民照片如下图所示。</p> <p></p> <img src='stimuli/faces/NFM6.jpg', style='max-width: 30%;'> </img> <p><strong>你是否选择发射武器？</strong></p>","0",""
"","","","","","html-keyboard-response","24","206343","0.0-4.0-0.10","42","1","2022-10-27 09:29:09","ebf9627b049f568eb4bf28942cb89901","113.78.199.106","Mozilla/5.0 (Windows NT 10.0; Win64; x64) AppleWebKit/537.36 (KHTML, like Gecko) Chrome/106.0.0.0 Safari/537.36 Edg/106.0.1370.52","WebKit","Edge","106.0.1370.52","Windows","10.0","null","<div style=""font-size:60px;"">+</div>","null",""
"","","","","","html-button-response","25","208174","0.0-4.0-1.10","42","1","2022-10-27 09:29:09","ebf9627b049f568eb4bf28942cb89901","113.78.199.106","Mozilla/5.0 (Windows NT 10.0; Win64; x64) AppleWebKit/537.36 (KHTML, like Gecko) Chrome/106.0.0.0 Safari/537.36 Edg/106.0.1370.52","WebKit","Edge","106.0.1370.52","Windows","10.0","1826","<p>作为军队的指挥官，你可以选择发射导弹杀死 <strong>7名</strong> 敌国士兵，但会炸毁附近的 <strong>1棵</strong> 敌国树木。</p> <p>树木的照片如下图所示。</p> <p></p> <img src='stimuli/trees/10.png', style='max-width: 30%;'> </img> <p><strong>你是否选择发射武器？</strong></p>","0",""
"","","","","","html-keyboard-response","26","209181","0.0-4.0-0.11","42","1","2022-10-27 09:29:09","ebf9627b049f568eb4bf28942cb89901","113.78.199.106","Mozilla/5.0 (Windows NT 10.0; Win64; x64) AppleWebKit/537.36 (KHTML, like Gecko) Chrome/106.0.0.0 Safari/537.36 Edg/106.0.1370.52","WebKit","Edge","106.0.1370.52","Windows","10.0","null","<div style=""font-size:60px;"">+</div>","null",""
"","","","","","html-button-response","27","211519","0.0-4.0-1.11","42","1","2022-10-27 09:29:09","ebf9627b049f568eb4bf28942cb89901","113.78.199.106","Mozilla/5.0 (Windows NT 10.0; Win64; x64) AppleWebKit/537.36 (KHTML, like Gecko) Chrome/106.0.0.0 Safari/537.36 Edg/106.0.1370.52","WebKit","Edge","106.0.1370.52","Windows","10.0","2333","<p>作为军队的指挥官，你可以选择发射导弹杀死 <strong>6名</strong> 敌国士兵，但会炸毁附近的 <strong>1棵</strong> 敌国树木。</p> <p>树木的照片如下图所示。</p> <p></p> <img src='stimuli/trees/4.png', style='max-width: 30%;'> </img> <p><strong>你是否选择发射武器？</strong></p>","0",""
"","","","","","html-keyboard-response","28","212521","0.0-4.0-0.12","42","1","2022-10-27 09:29:09","ebf9627b049f568eb4bf28942cb89901","113.78.199.106","Mozilla/5.0 (Windows NT 10.0; Win64; x64) AppleWebKit/537.36 (KHTML, like Gecko) Chrome/106.0.0.0 Safari/537.36 Edg/106.0.1370.52","WebKit","Edge","106.0.1370.52","Windows","10.0","null","<div style=""font-size:60px;"">+</div>","null",""
"","","","","","html-button-response","29","216902","0.0-4.0-1.12","42","1","2022-10-27 09:29:09","ebf9627b049f568eb4bf28942cb89901","113.78.199.106","Mozilla/5.0 (Windows NT 10.0; Win64; x64) AppleWebKit/537.36 (KHTML, like Gecko) Chrome/106.0.0.0 Safari/537.36 Edg/106.0.1370.52","WebKit","Edge","106.0.1370.52","Windows","10.0","4377","<p>作为军队的指挥官，你可以选择发射导弹杀死 <strong>1名</strong> 敌国士兵，但会误杀附近的 <strong>1名</strong> 敌国平民。</p> <p>平民照片如下图所示。</p> <p></p> <img src='stimuli/faces/NFM1.jpg', style='max-width: 30%;'> </img> <p><strong>你是否选择发射武器？</strong></p>","1",""
"","","","","","html-keyboard-response","30","217904","0.0-4.0-0.13","42","1","2022-10-27 09:29:09","ebf9627b049f568eb4bf28942cb89901","113.78.199.106","Mozilla/5.0 (Windows NT 10.0; Win64; x64) AppleWebKit/537.36 (KHTML, like Gecko) Chrome/106.0.0.0 Safari/537.36 Edg/106.0.1370.52","WebKit","Edge","106.0.1370.52","Windows","10.0","null","<div style=""font-size:60px;"">+</div>","null",""
"","","","","","html-button-response","31","223317","0.0-4.0-1.13","42","1","2022-10-27 09:29:09","ebf9627b049f568eb4bf28942cb89901","113.78.199.106","Mozilla/5.0 (Windows NT 10.0; Win64; x64) AppleWebKit/537.36 (KHTML, like Gecko) Chrome/106.0.0.0 Safari/537.36 Edg/106.0.1370.52","WebKit","Edge","106.0.1370.52","Windows","10.0","5411","<p>作为军队的指挥官，你可以选择发射导弹杀死 <strong>7名</strong> 敌国士兵，但会误杀附近的 <strong>1名</strong> 敌国平民。</p> <p>平民照片如下图所示。</p> <p></p> <img src='stimuli/faces/NFF7.jpg', style='max-width: 30%;'> </img> <p><strong>你是否选择发射武器？</strong></p>","0",""
"","","","","","html-keyboard-response","32","224329","0.0-4.0-0.14","42","1","2022-10-27 09:29:09","ebf9627b049f568eb4bf28942cb89901","113.78.199.106","Mozilla/5.0 (Windows NT 10.0; Win64; x64) AppleWebKit/537.36 (KHTML, like Gecko) Chrome/106.0.0.0 Safari/537.36 Edg/106.0.1370.52","WebKit","Edge","106.0.1370.52","Windows","10.0","null","<div style=""font-size:60px;"">+</div>","null",""
"","","","","","html-button-response","33","226639","0.0-4.0-1.14","42","1","2022-10-27 09:29:09","ebf9627b049f568eb4bf28942cb89901","113.78.199.106","Mozilla/5.0 (Windows NT 10.0; Win64; x64) AppleWebKit/537.36 (KHTML, like Gecko) Chrome/106.0.0.0 Safari/537.36 Edg/106.0.1370.52","WebKit","Edge","106.0.1370.52","Windows","10.0","2305","<p>作为军队的指挥官，你可以选择发射导弹杀死 <strong>7名</strong> 敌国士兵，但会炸毁附近的 <strong>1棵</strong> 敌国树木。</p> <p>树木的照片如下图所示。</p> <p></p> <img src='stimuli/trees/8.png', style='max-width: 30%;'> </img> <p><strong>你是否选择发射武器？</strong></p>","0",""
"","","","","","html-keyboard-response","34","227643","0.0-4.0-0.15","42","1","2022-10-27 09:29:09","ebf9627b049f568eb4bf28942cb89901","113.78.199.106","Mozilla/5.0 (Windows NT 10.0; Win64; x64) AppleWebKit/537.36 (KHTML, like Gecko) Chrome/106.0.0.0 Safari/537.36 Edg/106.0.1370.52","WebKit","Edge","106.0.1370.52","Windows","10.0","null","<div style=""font-size:60px;"">+</div>","null",""
"","","","","","html-button-response","35","233253","0.0-4.0-1.15","42","1","2022-10-27 09:29:09","ebf9627b049f568eb4bf28942cb89901","113.78.199.106","Mozilla/5.0 (Windows NT 10.0; Win64; x64) AppleWebKit/537.36 (KHTML, like Gecko) Chrome/106.0.0.0 Safari/537.36 Edg/106.0.1370.52","WebKit","Edge","106.0.1370.52","Windows","10.0","5607","<p>作为军队的指挥官，你可以选择发射导弹杀死 <strong>9名</strong> 敌国士兵，但会误杀附近的 <strong>1名</strong> 敌国平民。</p> <p>平民照片如下图所示。</p> <p></p> <img src='stimuli/faces/NFF5.jpg', style='max-width: 30%;'> </img> <p><strong>你是否选择发射武器？</strong></p>","0",""
"","","","","","html-keyboard-response","36","234261","0.0-4.0-0.16","42","1","2022-10-27 09:29:09","ebf9627b049f568eb4bf28942cb89901","113.78.199.106","Mozilla/5.0 (Windows NT 10.0; Win64; x64) AppleWebKit/537.36 (KHTML, like Gecko) Chrome/106.0.0.0 Safari/537.36 Edg/106.0.1370.52","WebKit","Edge","106.0.1370.52","Windows","10.0","null","<div style=""font-size:60px;"">+</div>","null",""
"","","","","","html-button-response","37","244461","0.0-4.0-1.16","42","1","2022-10-27 09:29:09","ebf9627b049f568eb4bf28942cb89901","113.78.199.106","Mozilla/5.0 (Windows NT 10.0; Win64; x64) AppleWebKit/537.36 (KHTML, like Gecko) Chrome/106.0.0.0 Safari/537.36 Edg/106.0.1370.52","WebKit","Edge","106.0.1370.52","Windows","10.0","10197","<p>作为军队的指挥官，你可以选择发射导弹杀死 <strong>10名</strong> 敌国士兵，但会误杀附近的 <strong>1名</strong> 敌国平民。</p> <p>平民照片如下图所示。</p> <p></p> <img src='stimuli/faces/NFF3.jpg', style='max-width: 30%;'> </img> <p><strong>你是否选择发射武器？</strong></p>","0",""
"","","","","","html-keyboard-response","38","245478","0.0-4.0-0.17","42","1","2022-10-27 09:29:09","ebf9627b049f568eb4bf28942cb89901","113.78.199.106","Mozilla/5.0 (Windows NT 10.0; Win64; x64) AppleWebKit/537.36 (KHTML, like Gecko) Chrome/106.0.0.0 Safari/537.36 Edg/106.0.1370.52","WebKit","Edge","106.0.1370.52","Windows","10.0","null","<div style=""font-size:60px;"">+</div>","null",""
"","","","","","html-button-response","39","247151","0.0-4.0-1.17","42","1","2022-10-27 09:29:09","ebf9627b049f568eb4bf28942cb89901","113.78.199.106","Mozilla/5.0 (Windows NT 10.0; Win64; x64) AppleWebKit/537.36 (KHTML, like Gecko) Chrome/106.0.0.0 Safari/537.36 Edg/106.0.1370.52","WebKit","Edge","106.0.1370.52","Windows","10.0","1668","<p>作为军队的指挥官，你可以选择发射导弹杀死 <strong>7名</strong> 敌国士兵，但会误杀附近的 <strong>1名</strong> 敌国平民。</p> <p>平民照片如下图所示。</p> <p></p> <img src='stimuli/faces/NFF4.jpg', style='max-width: 30%;'> </img> <p><strong>你是否选择发射武器？</strong></p>","0",""
"","","","","","html-keyboard-response","40","248156","0.0-4.0-0.18","42","1","2022-10-27 09:29:09","ebf9627b049f568eb4bf28942cb89901","113.78.199.106","Mozilla/5.0 (Windows NT 10.0; Win64; x64) AppleWebKit/537.36 (KHTML, like Gecko) Chrome/106.0.0.0 Safari/537.36 Edg/106.0.1370.52","WebKit","Edge","106.0.1370.52","Windows","10.0","null","<div style=""font-size:60px;"">+</div>","null",""
"","","","","","html-button-response","41","249854","0.0-4.0-1.18","42","1","2022-10-27 09:29:09","ebf9627b049f568eb4bf28942cb89901","113.78.199.106","Mozilla/5.0 (Windows NT 10.0; Win64; x64) AppleWebKit/537.36 (KHTML, like Gecko) Chrome/106.0.0.0 Safari/537.36 Edg/106.0.1370.52","WebKit","Edge","106.0.1370.52","Windows","10.0","1692","<p>作为军队的指挥官，你可以选择发射导弹杀死 <strong>7名</strong> 敌国士兵，但会炸毁附近的 <strong>1棵</strong> 敌国树木。</p> <p>树木的照片如下图所示。</p> <p></p> <img src='stimuli/trees/14.png', style='max-width: 30%;'> </img> <p><strong>你是否选择发射武器？</strong></p>","0",""
"","","","","","html-keyboard-response","42","250860","0.0-4.0-0.19","42","1","2022-10-27 09:29:09","ebf9627b049f568eb4bf28942cb89901","113.78.199.106","Mozilla/5.0 (Windows NT 10.0; Win64; x64) AppleWebKit/537.36 (KHTML, like Gecko) Chrome/106.0.0.0 Safari/537.36 Edg/106.0.1370.52","WebKit","Edge","106.0.1370.52","Windows","10.0","null","<div style=""font-size:60px;"">+</div>","null",""
"","","","","","html-button-response","43","253685","0.0-4.0-1.19","42","1","2022-10-27 09:29:09","ebf9627b049f568eb4bf28942cb89901","113.78.199.106","Mozilla/5.0 (Windows NT 10.0; Win64; x64) AppleWebKit/537.36 (KHTML, like Gecko) Chrome/106.0.0.0 Safari/537.36 Edg/106.0.1370.52","WebKit","Edge","106.0.1370.52","Windows","10.0","2820","<p>作为军队的指挥官，你可以选择发射导弹杀死 <strong>4名</strong> 敌国士兵，但会炸毁附近的 <strong>1棵</strong> 敌国树木。</p> <p>树木的照片如下图所示。</p> <p></p> <img src='stimuli/trees/14.png', style='max-width: 30%;'> </img> <p><strong>你是否选择发射武器？</strong></p>","0",""
"","","","","","html-keyboard-response","44","254701","0.0-4.0-0.20","42","1","2022-10-27 09:29:09","ebf9627b049f568eb4bf28942cb89901","113.78.199.106","Mozilla/5.0 (Windows NT 10.0; Win64; x64) AppleWebKit/537.36 (KHTML, like Gecko) Chrome/106.0.0.0 Safari/537.36 Edg/106.0.1370.52","WebKit","Edge","106.0.1370.52","Windows","10.0","null","<div style=""font-size:60px;"">+</div>","null",""
"","","","","","html-button-response","45","255606","0.0-4.0-1.20","42","1","2022-10-27 09:29:09","ebf9627b049f568eb4bf28942cb89901","113.78.199.106","Mozilla/5.0 (Windows NT 10.0; Win64; x64) AppleWebKit/537.36 (KHTML, like Gecko) Chrome/106.0.0.0 Safari/537.36 Edg/106.0.1370.52","WebKit","Edge","106.0.1370.52","Windows","10.0","902","<p>作为军队的指挥官，你可以选择发射导弹杀死 <strong>5名</strong> 敌国士兵，但会炸毁附近的 <strong>1棵</strong> 敌国树木。</p> <p>树木的照片如下图所示。</p> <p></p> <img src='stimuli/trees/5.png', style='max-width: 30%;'> </img> <p><strong>你是否选择发射武器？</strong></p>","0",""
"","","","","","html-keyboard-response","46","256624","0.0-4.0-0.21","42","1","2022-10-27 09:29:09","ebf9627b049f568eb4bf28942cb89901","113.78.199.106","Mozilla/5.0 (Windows NT 10.0; Win64; x64) AppleWebKit/537.36 (KHTML, like Gecko) Chrome/106.0.0.0 Safari/537.36 Edg/106.0.1370.52","WebKit","Edge","106.0.1370.52","Windows","10.0","null","<div style=""font-size:60px;"">+</div>","null",""
"","","","","","html-button-response","47","257941","0.0-4.0-1.21","42","1","2022-10-27 09:29:09","ebf9627b049f568eb4bf28942cb89901","113.78.199.106","Mozilla/5.0 (Windows NT 10.0; Win64; x64) AppleWebKit/537.36 (KHTML, like Gecko) Chrome/106.0.0.0 Safari/537.36 Edg/106.0.1370.52","WebKit","Edge","106.0.1370.52","Windows","10.0","1314","<p>作为军队的指挥官，你可以选择发射导弹杀死 <strong>3名</strong> 敌国士兵，但会炸毁附近的 <strong>1棵</strong> 敌国树木。</p> <p>树木的照片如下图所示。</p> <p></p> <img src='stimuli/trees/9.png', style='max-width: 30%;'> </img> <p><strong>你是否选择发射武器？</strong></p>","1",""
"","","","","","html-keyboard-response","48","258950","0.0-4.0-0.22","42","1","2022-10-27 09:29:09","ebf9627b049f568eb4bf28942cb89901","113.78.199.106","Mozilla/5.0 (Windows NT 10.0; Win64; x64) AppleWebKit/537.36 (KHTML, like Gecko) Chrome/106.0.0.0 Safari/537.36 Edg/106.0.1370.52","WebKit","Edge","106.0.1370.52","Windows","10.0","null","<div style=""font-size:60px;"">+</div>","null",""
"","","","","","html-button-response","49","260389","0.0-4.0-1.22","42","1","2022-10-27 09:29:09","ebf9627b049f568eb4bf28942cb89901","113.78.199.106","Mozilla/5.0 (Windows NT 10.0; Win64; x64) AppleWebKit/537.36 (KHTML, like Gecko) Chrome/106.0.0.0 Safari/537.36 Edg/106.0.1370.52","WebKit","Edge","106.0.1370.52","Windows","10.0","1432","<p>作为军队的指挥官，你可以选择发射导弹杀死 <strong>5名</strong> 敌国士兵，但会误杀附近的 <strong>1名</strong> 敌国平民。</p> <p>平民照片如下图所示。</p> <p></p> <img src='stimuli/faces/NFF5.jpg', style='max-width: 30%;'> </img> <p><strong>你是否选择发射武器？</strong></p>","0",""
"","","","","","html-keyboard-response","50","261405","0.0-4.0-0.23","42","1","2022-10-27 09:29:09","ebf9627b049f568eb4bf28942cb89901","113.78.199.106","Mozilla/5.0 (Windows NT 10.0; Win64; x64) AppleWebKit/537.36 (KHTML, like Gecko) Chrome/106.0.0.0 Safari/537.36 Edg/106.0.1370.52","WebKit","Edge","106.0.1370.52","Windows","10.0","null","<div style=""font-size:60px;"">+</div>","null",""
"","","","","","html-button-response","51","262285","0.0-4.0-1.23","42","1","2022-10-27 09:29:09","ebf9627b049f568eb4bf28942cb89901","113.78.199.106","Mozilla/5.0 (Windows NT 10.0; Win64; x64) AppleWebKit/537.36 (KHTML, like Gecko) Chrome/106.0.0.0 Safari/537.36 Edg/106.0.1370.52","WebKit","Edge","106.0.1370.52","Windows","10.0","875","<p>作为军队的指挥官，你可以选择发射导弹杀死 <strong>5名</strong> 敌国士兵，但会炸毁附近的 <strong>1棵</strong> 敌国树木。</p> <p>树木的照片如下图所示。</p> <p></p> <img src='stimuli/trees/7.png', style='max-width: 30%;'> </img> <p><strong>你是否选择发射武器？</strong></p>","0",""
"","","","","","html-keyboard-response","52","263294","0.0-4.0-0.24","42","1","2022-10-27 09:29:09","ebf9627b049f568eb4bf28942cb89901","113.78.199.106","Mozilla/5.0 (Windows NT 10.0; Win64; x64) AppleWebKit/537.36 (KHTML, like Gecko) Chrome/106.0.0.0 Safari/537.36 Edg/106.0.1370.52","WebKit","Edge","106.0.1370.52","Windows","10.0","null","<div style=""font-size:60px;"">+</div>","null",""
"","","","","","html-button-response","53","264149","0.0-4.0-1.24","42","1","2022-10-27 09:29:09","ebf9627b049f568eb4bf28942cb89901","113.78.199.106","Mozilla/5.0 (Windows NT 10.0; Win64; x64) AppleWebKit/537.36 (KHTML, like Gecko) Chrome/106.0.0.0 Safari/537.36 Edg/106.0.1370.52","WebKit","Edge","106.0.1370.52","Windows","10.0","849","<p>作为军队的指挥官，你可以选择发射导弹杀死 <strong>8名</strong> 敌国士兵，但会误杀附近的 <strong>1名</strong> 敌国平民。</p> <p>平民照片如下图所示。</p> <p></p> <img src='stimuli/faces/NFM8.jpg', style='max-width: 30%;'> </img> <p><strong>你是否选择发射武器？</strong></p>","0",""
"","","","","","html-keyboard-response","54","265154","0.0-4.0-0.25","42","1","2022-10-27 09:29:09","ebf9627b049f568eb4bf28942cb89901","113.78.199.106","Mozilla/5.0 (Windows NT 10.0; Win64; x64) AppleWebKit/537.36 (KHTML, like Gecko) Chrome/106.0.0.0 Safari/537.36 Edg/106.0.1370.52","WebKit","Edge","106.0.1370.52","Windows","10.0","null","<div style=""font-size:60px;"">+</div>","null",""
"","","","","","html-button-response","55","266454","0.0-4.0-1.25","42","1","2022-10-27 09:29:09","ebf9627b049f568eb4bf28942cb89901","113.78.199.106","Mozilla/5.0 (Windows NT 10.0; Win64; x64) AppleWebKit/537.36 (KHTML, like Gecko) Chrome/106.0.0.0 Safari/537.36 Edg/106.0.1370.52","WebKit","Edge","106.0.1370.52","Windows","10.0","1294","<p>作为军队的指挥官，你可以选择发射导弹杀死 <strong>6名</strong> 敌国士兵，但会误杀附近的 <strong>1名</strong> 敌国平民。</p> <p>平民照片如下图所示。</p> <p></p> <img src='stimuli/faces/NFM5.jpg', style='max-width: 30%;'> </img> <p><strong>你是否选择发射武器？</strong></p>","0",""
"","","","","","html-keyboard-response","56","267471","0.0-4.0-0.26","42","1","2022-10-27 09:29:09","ebf9627b049f568eb4bf28942cb89901","113.78.199.106","Mozilla/5.0 (Windows NT 10.0; Win64; x64) AppleWebKit/537.36 (KHTML, like Gecko) Chrome/106.0.0.0 Safari/537.36 Edg/106.0.1370.52","WebKit","Edge","106.0.1370.52","Windows","10.0","null","<div style=""font-size:60px;"">+</div>","null",""
"","","","","","html-button-response","57","276557","0.0-4.0-1.26","42","1","2022-10-27 09:29:09","ebf9627b049f568eb4bf28942cb89901","113.78.199.106","Mozilla/5.0 (Windows NT 10.0; Win64; x64) AppleWebKit/537.36 (KHTML, like Gecko) Chrome/106.0.0.0 Safari/537.36 Edg/106.0.1370.52","WebKit","Edge","106.0.1370.52","Windows","10.0","9082","<p>作为军队的指挥官，你可以选择发射导弹杀死 <strong>1名</strong> 敌国士兵，但会误杀附近的 <strong>1名</strong> 敌国平民。</p> <p>平民照片如下图所示。</p> <p></p> <img src='stimuli/faces/NFM2.jpg', style='max-width: 30%;'> </img> <p><strong>你是否选择发射武器？</strong></p>","1",""
"","","","","","html-keyboard-response","58","277574","0.0-4.0-0.27","42","1","2022-10-27 09:29:09","ebf9627b049f568eb4bf28942cb89901","113.78.199.106","Mozilla/5.0 (Windows NT 10.0; Win64; x64) AppleWebKit/537.36 (KHTML, like Gecko) Chrome/106.0.0.0 Safari/537.36 Edg/106.0.1370.52","WebKit","Edge","106.0.1370.52","Windows","10.0","null","<div style=""font-size:60px;"">+</div>","null",""
"","","","","","html-button-response","59","279069","0.0-4.0-1.27","42","1","2022-10-27 09:29:09","ebf9627b049f568eb4bf28942cb89901","113.78.199.106","Mozilla/5.0 (Windows NT 10.0; Win64; x64) AppleWebKit/537.36 (KHTML, like Gecko) Chrome/106.0.0.0 Safari/537.36 Edg/106.0.1370.52","WebKit","Edge","106.0.1370.52","Windows","10.0","1489","<p>作为军队的指挥官，你可以选择发射导弹杀死 <strong>10名</strong> 敌国士兵，但会误杀附近的 <strong>1名</strong> 敌国平民。</p> <p>平民照片如下图所示。</p> <p></p> <img src='stimuli/faces/NFM3.jpg', style='max-width: 30%;'> </img> <p><strong>你是否选择发射武器？</strong></p>","0",""
"","","","","","html-keyboard-response","60","280082","0.0-4.0-0.28","42","1","2022-10-27 09:29:09","ebf9627b049f568eb4bf28942cb89901","113.78.199.106","Mozilla/5.0 (Windows NT 10.0; Win64; x64) AppleWebKit/537.36 (KHTML, like Gecko) Chrome/106.0.0.0 Safari/537.36 Edg/106.0.1370.52","WebKit","Edge","106.0.1370.52","Windows","10.0","null","<div style=""font-size:60px;"">+</div>","null",""
"","","","","","html-button-response","61","282709","0.0-4.0-1.28","42","1","2022-10-27 09:29:09","ebf9627b049f568eb4bf28942cb89901","113.78.199.106","Mozilla/5.0 (Windows NT 10.0; Win64; x64) AppleWebKit/537.36 (KHTML, like Gecko) Chrome/106.0.0.0 Safari/537.36 Edg/106.0.1370.52","WebKit","Edge","106.0.1370.52","Windows","10.0","2621","<p>作为军队的指挥官，你可以选择发射导弹杀死 <strong>3名</strong> 敌国士兵，但会炸毁附近的 <strong>1棵</strong> 敌国树木。</p> <p>树木的照片如下图所示。</p> <p></p> <img src='stimuli/trees/2.png', style='max-width: 30%;'> </img> <p><strong>你是否选择发射武器？</strong></p>","0",""
"","","","","","html-keyboard-response","62","283715","0.0-4.0-0.29","42","1","2022-10-27 09:29:09","ebf9627b049f568eb4bf28942cb89901","113.78.199.106","Mozilla/5.0 (Windows NT 10.0; Win64; x64) AppleWebKit/537.36 (KHTML, like Gecko) Chrome/106.0.0.0 Safari/537.36 Edg/106.0.1370.52","WebKit","Edge","106.0.1370.52","Windows","10.0","null","<div style=""font-size:60px;"">+</div>","null",""
"","","","","","html-button-response","63","284845","0.0-4.0-1.29","42","1","2022-10-27 09:29:09","ebf9627b049f568eb4bf28942cb89901","113.78.199.106","Mozilla/5.0 (Windows NT 10.0; Win64; x64) AppleWebKit/537.36 (KHTML, like Gecko) Chrome/106.0.0.0 Safari/537.36 Edg/106.0.1370.52","WebKit","Edge","106.0.1370.52","Windows","10.0","1124","<p>作为军队的指挥官，你可以选择发射导弹杀死 <strong>4名</strong> 敌国士兵，但会误杀附近的 <strong>1名</strong> 敌国平民。</p> <p>平民照片如下图所示。</p> <p></p> <img src='stimuli/faces/NFF4.jpg', style='max-width: 30%;'> </img> <p><strong>你是否选择发射武器？</strong></p>","0",""
"","","","","","html-keyboard-response","64","285850","0.0-4.0-0.30","42","1","2022-10-27 09:29:09","ebf9627b049f568eb4bf28942cb89901","113.78.199.106","Mozilla/5.0 (Windows NT 10.0; Win64; x64) AppleWebKit/537.36 (KHTML, like Gecko) Chrome/106.0.0.0 Safari/537.36 Edg/106.0.1370.52","WebKit","Edge","106.0.1370.52","Windows","10.0","null","<div style=""font-size:60px;"">+</div>","null",""
"","","","","","html-button-response","65","287109","0.0-4.0-1.30","42","1","2022-10-27 09:29:09","ebf9627b049f568eb4bf28942cb89901","113.78.199.106","Mozilla/5.0 (Windows NT 10.0; Win64; x64) AppleWebKit/537.36 (KHTML, like Gecko) Chrome/106.0.0.0 Safari/537.36 Edg/106.0.1370.52","WebKit","Edge","106.0.1370.52","Windows","10.0","1254","<p>作为军队的指挥官，你可以选择发射导弹杀死 <strong>6名</strong> 敌国士兵，但会炸毁附近的 <strong>1棵</strong> 敌国树木。</p> <p>树木的照片如下图所示。</p> <p></p> <img src='stimuli/trees/16.png', style='max-width: 30%;'> </img> <p><strong>你是否选择发射武器？</strong></p>","0",""
"","","","","","html-keyboard-response","66","288119","0.0-4.0-0.31","42","1","2022-10-27 09:29:09","ebf9627b049f568eb4bf28942cb89901","113.78.199.106","Mozilla/5.0 (Windows NT 10.0; Win64; x64) AppleWebKit/537.36 (KHTML, like Gecko) Chrome/106.0.0.0 Safari/537.36 Edg/106.0.1370.52","WebKit","Edge","106.0.1370.52","Windows","10.0","null","<div style=""font-size:60px;"">+</div>","null",""
"","","","","","html-button-response","67","289437","0.0-4.0-1.31","42","1","2022-10-27 09:29:09","ebf9627b049f568eb4bf28942cb89901","113.78.199.106","Mozilla/5.0 (Windows NT 10.0; Win64; x64) AppleWebKit/537.36 (KHTML, like Gecko) Chrome/106.0.0.0 Safari/537.36 Edg/106.0.1370.52","WebKit","Edge","106.0.1370.52","Windows","10.0","1313","<p>作为军队的指挥官，你可以选择发射导弹杀死 <strong>1名</strong> 敌国士兵，但会炸毁附近的 <strong>1棵</strong> 敌国树木。</p> <p>树木的照片如下图所示。</p> <p></p> <img src='stimuli/trees/12.png', style='max-width: 30%;'> </img> <p><strong>你是否选择发射武器？</strong></p>","1",""
"","","","","","html-keyboard-response","68","290450","0.0-4.0-0.32","42","1","2022-10-27 09:29:09","ebf9627b049f568eb4bf28942cb89901","113.78.199.106","Mozilla/5.0 (Windows NT 10.0; Win64; x64) AppleWebKit/537.36 (KHTML, like Gecko) Chrome/106.0.0.0 Safari/537.36 Edg/106.0.1370.52","WebKit","Edge","106.0.1370.52","Windows","10.0","null","<div style=""font-size:60px;"">+</div>","null",""
"","","","","","html-button-response","69","294989","0.0-4.0-1.32","42","1","2022-10-27 09:29:09","ebf9627b049f568eb4bf28942cb89901","113.78.199.106","Mozilla/5.0 (Windows NT 10.0; Win64; x64) AppleWebKit/537.36 (KHTML, like Gecko) Chrome/106.0.0.0 Safari/537.36 Edg/106.0.1370.52","WebKit","Edge","106.0.1370.52","Windows","10.0","4533","<p>作为军队的指挥官，你可以选择发射导弹杀死 <strong>8名</strong> 敌国士兵，但会炸毁附近的 <strong>1棵</strong> 敌国树木。</p> <p>树木的照片如下图所示。</p> <p></p> <img src='stimuli/trees/15.png', style='max-width: 30%;'> </img> <p><strong>你是否选择发射武器？</strong></p>","0",""
"","","","","","html-keyboard-response","70","295993","0.0-4.0-0.33","42","1","2022-10-27 09:29:09","ebf9627b049f568eb4bf28942cb89901","113.78.199.106","Mozilla/5.0 (Windows NT 10.0; Win64; x64) AppleWebKit/537.36 (KHTML, like Gecko) Chrome/106.0.0.0 Safari/537.36 Edg/106.0.1370.52","WebKit","Edge","106.0.1370.52","Windows","10.0","null","<div style=""font-size:60px;"">+</div>","null",""
"","","","","","html-button-response","71","297645","0.0-4.0-1.33","42","1","2022-10-27 09:29:09","ebf9627b049f568eb4bf28942cb89901","113.78.199.106","Mozilla/5.0 (Windows NT 10.0; Win64; x64) AppleWebKit/537.36 (KHTML, like Gecko) Chrome/106.0.0.0 Safari/537.36 Edg/106.0.1370.52","WebKit","Edge","106.0.1370.52","Windows","10.0","1645","<p>作为军队的指挥官，你可以选择发射导弹杀死 <strong>2名</strong> 敌国士兵，但会误杀附近的 <strong>1名</strong> 敌国平民。</p> <p>平民照片如下图所示。</p> <p></p> <img src='stimuli/faces/NFM7.jpg', style='max-width: 30%;'> </img> <p><strong>你是否选择发射武器？</strong></p>","1",""
"","","","","","html-keyboard-response","72","298648","0.0-4.0-0.34","42","1","2022-10-27 09:29:09","ebf9627b049f568eb4bf28942cb89901","113.78.199.106","Mozilla/5.0 (Windows NT 10.0; Win64; x64) AppleWebKit/537.36 (KHTML, like Gecko) Chrome/106.0.0.0 Safari/537.36 Edg/106.0.1370.52","WebKit","Edge","106.0.1370.52","Windows","10.0","null","<div style=""font-size:60px;"">+</div>","null",""
"","","","","","html-button-response","73","302350","0.0-4.0-1.34","42","1","2022-10-27 09:29:09","ebf9627b049f568eb4bf28942cb89901","113.78.199.106","Mozilla/5.0 (Windows NT 10.0; Win64; x64) AppleWebKit/537.36 (KHTML, like Gecko) Chrome/106.0.0.0 Safari/537.36 Edg/106.0.1370.52","WebKit","Edge","106.0.1370.52","Windows","10.0","3699","<p>作为军队的指挥官，你可以选择发射导弹杀死 <strong>1名</strong> 敌国士兵，但会误杀附近的 <strong>1名</strong> 敌国平民。</p> <p>平民照片如下图所示。</p> <p></p> <img src='stimuli/faces/NFF6.jpg', style='max-width: 30%;'> </img> <p><strong>你是否选择发射武器？</strong></p>","1",""
"","","","","","html-keyboard-response","74","303359","0.0-4.0-0.35","42","1","2022-10-27 09:29:09","ebf9627b049f568eb4bf28942cb89901","113.78.199.106","Mozilla/5.0 (Windows NT 10.0; Win64; x64) AppleWebKit/537.36 (KHTML, like Gecko) Chrome/106.0.0.0 Safari/537.36 Edg/106.0.1370.52","WebKit","Edge","106.0.1370.52","Windows","10.0","null","<div style=""font-size:60px;"">+</div>","null",""
"","","","","","html-button-response","75","306829","0.0-4.0-1.35","42","1","2022-10-27 09:29:09","ebf9627b049f568eb4bf28942cb89901","113.78.199.106","Mozilla/5.0 (Windows NT 10.0; Win64; x64) AppleWebKit/537.36 (KHTML, like Gecko) Chrome/106.0.0.0 Safari/537.36 Edg/106.0.1370.52","WebKit","Edge","106.0.1370.52","Windows","10.0","3467","<p>作为军队的指挥官，你可以选择发射导弹杀死 <strong>10名</strong> 敌国士兵，但会误杀附近的 <strong>1名</strong> 敌国平民。</p> <p>平民照片如下图所示。</p> <p></p> <img src='stimuli/faces/NFM2.jpg', style='max-width: 30%;'> </img> <p><strong>你是否选择发射武器？</strong></p>","0",""
"","","","","","html-keyboard-response","76","307832","0.0-4.0-0.36","42","1","2022-10-27 09:29:09","ebf9627b049f568eb4bf28942cb89901","113.78.199.106","Mozilla/5.0 (Windows NT 10.0; Win64; x64) AppleWebKit/537.36 (KHTML, like Gecko) Chrome/106.0.0.0 Safari/537.36 Edg/106.0.1370.52","WebKit","Edge","106.0.1370.52","Windows","10.0","null","<div style=""font-size:60px;"">+</div>","null",""
"","","","","","html-button-response","77","309957","0.0-4.0-1.36","42","1","2022-10-27 09:29:09","ebf9627b049f568eb4bf28942cb89901","113.78.199.106","Mozilla/5.0 (Windows NT 10.0; Win64; x64) AppleWebKit/537.36 (KHTML, like Gecko) Chrome/106.0.0.0 Safari/537.36 Edg/106.0.1370.52","WebKit","Edge","106.0.1370.52","Windows","10.0","2117","<p>作为军队的指挥官，你可以选择发射导弹杀死 <strong>5名</strong> 敌国士兵，但会炸毁附近的 <strong>1棵</strong> 敌国树木。</p> <p>树木的照片如下图所示。</p> <p></p> <img src='stimuli/trees/6.png', style='max-width: 30%;'> </img> <p><strong>你是否选择发射武器？</strong></p>","0",""
"","","","","","html-keyboard-response","78","310964","0.0-4.0-0.37","42","1","2022-10-27 09:29:09","ebf9627b049f568eb4bf28942cb89901","113.78.199.106","Mozilla/5.0 (Windows NT 10.0; Win64; x64) AppleWebKit/537.36 (KHTML, like Gecko) Chrome/106.0.0.0 Safari/537.36 Edg/106.0.1370.52","WebKit","Edge","106.0.1370.52","Windows","10.0","null","<div style=""font-size:60px;"">+</div>","null",""
"","","","","","html-button-response","79","312517","0.0-4.0-1.37","42","1","2022-10-27 09:29:09","ebf9627b049f568eb4bf28942cb89901","113.78.199.106","Mozilla/5.0 (Windows NT 10.0; Win64; x64) AppleWebKit/537.36 (KHTML, like Gecko) Chrome/106.0.0.0 Safari/537.36 Edg/106.0.1370.52","WebKit","Edge","106.0.1370.52","Windows","10.0","1549","<p>作为军队的指挥官，你可以选择发射导弹杀死 <strong>4名</strong> 敌国士兵，但会误杀附近的 <strong>1名</strong> 敌国平民。</p> <p>平民照片如下图所示。</p> <p></p> <img src='stimuli/faces/NFF8.jpg', style='max-width: 30%;'> </img> <p><strong>你是否选择发射武器？</strong></p>","0",""
"","","","","","html-keyboard-response","80","313530","0.0-4.0-0.38","42","1","2022-10-27 09:29:09","ebf9627b049f568eb4bf28942cb89901","113.78.199.106","Mozilla/5.0 (Windows NT 10.0; Win64; x64) AppleWebKit/537.36 (KHTML, like Gecko) Chrome/106.0.0.0 Safari/537.36 Edg/106.0.1370.52","WebKit","Edge","106.0.1370.52","Windows","10.0","null","<div style=""font-size:60px;"">+</div>","null",""
"","","","","","html-button-response","81","315045","0.0-4.0-1.38","42","1","2022-10-27 09:29:09","ebf9627b049f568eb4bf28942cb89901","113.78.199.106","Mozilla/5.0 (Windows NT 10.0; Win64; x64) AppleWebKit/537.36 (KHTML, like Gecko) Chrome/106.0.0.0 Safari/537.36 Edg/106.0.1370.52","WebKit","Edge","106.0.1370.52","Windows","10.0","1507","<p>作为军队的指挥官，你可以选择发射导弹杀死 <strong>3名</strong> 敌国士兵，但会炸毁附近的 <strong>1棵</strong> 敌国树木。</p> <p>树木的照片如下图所示。</p> <p></p> <img src='stimuli/trees/13.png', style='max-width: 30%;'> </img> <p><strong>你是否选择发射武器？</strong></p>","1",""
"","","","","","html-keyboard-response","82","316065","0.0-4.0-0.39","42","1","2022-10-27 09:29:09","ebf9627b049f568eb4bf28942cb89901","113.78.199.106","Mozilla/5.0 (Windows NT 10.0; Win64; x64) AppleWebKit/537.36 (KHTML, like Gecko) Chrome/106.0.0.0 Safari/537.36 Edg/106.0.1370.52","WebKit","Edge","106.0.1370.52","Windows","10.0","null","<div style=""font-size:60px;"">+</div>","null",""
"","","","","","html-button-response","83","317197","0.0-4.0-1.39","42","1","2022-10-27 09:29:09","ebf9627b049f568eb4bf28942cb89901","113.78.199.106","Mozilla/5.0 (Windows NT 10.0; Win64; x64) AppleWebKit/537.36 (KHTML, like Gecko) Chrome/106.0.0.0 Safari/537.36 Edg/106.0.1370.52","WebKit","Edge","106.0.1370.52","Windows","10.0","1123","<p>作为军队的指挥官，你可以选择发射导弹杀死 <strong>7名</strong> 敌国士兵，但会炸毁附近的 <strong>1棵</strong> 敌国树木。</p> <p>树木的照片如下图所示。</p> <p></p> <img src='stimuli/trees/9.png', style='max-width: 30%;'> </img> <p><strong>你是否选择发射武器？</strong></p>","0",""
"","","","","","html-keyboard-response","84","318207","0.0-4.0-0.40","42","1","2022-10-27 09:29:09","ebf9627b049f568eb4bf28942cb89901","113.78.199.106","Mozilla/5.0 (Windows NT 10.0; Win64; x64) AppleWebKit/537.36 (KHTML, like Gecko) Chrome/106.0.0.0 Safari/537.36 Edg/106.0.1370.52","WebKit","Edge","106.0.1370.52","Windows","10.0","null","<div style=""font-size:60px;"">+</div>","null",""
"","","","","","html-button-response","85","319686","0.0-4.0-1.40","42","1","2022-10-27 09:29:09","ebf9627b049f568eb4bf28942cb89901","113.78.199.106","Mozilla/5.0 (Windows NT 10.0; Win64; x64) AppleWebKit/537.36 (KHTML, like Gecko) Chrome/106.0.0.0 Safari/537.36 Edg/106.0.1370.52","WebKit","Edge","106.0.1370.52","Windows","10.0","1475","<p>作为军队的指挥官，你可以选择发射导弹杀死 <strong>10名</strong> 敌国士兵，但会误杀附近的 <strong>1名</strong> 敌国平民。</p> <p>平民照片如下图所示。</p> <p></p> <img src='stimuli/faces/NFF2.jpg', style='max-width: 30%;'> </img> <p><strong>你是否选择发射武器？</strong></p>","0",""
"","","","","","html-keyboard-response","86","320703","0.0-4.0-0.41","42","1","2022-10-27 09:29:09","ebf9627b049f568eb4bf28942cb89901","113.78.199.106","Mozilla/5.0 (Windows NT 10.0; Win64; x64) AppleWebKit/537.36 (KHTML, like Gecko) Chrome/106.0.0.0 Safari/537.36 Edg/106.0.1370.52","WebKit","Edge","106.0.1370.52","Windows","10.0","null","<div style=""font-size:60px;"">+</div>","null",""
"","","","","","html-button-response","87","330534","0.0-4.0-1.41","42","1","2022-10-27 09:29:09","ebf9627b049f568eb4bf28942cb89901","113.78.199.106","Mozilla/5.0 (Windows NT 10.0; Win64; x64) AppleWebKit/537.36 (KHTML, like Gecko) Chrome/106.0.0.0 Safari/537.36 Edg/106.0.1370.52","WebKit","Edge","106.0.1370.52","Windows","10.0","9827","<p>作为军队的指挥官，你可以选择发射导弹杀死 <strong>9名</strong> 敌国士兵，但会误杀附近的 <strong>1名</strong> 敌国平民。</p> <p>平民照片如下图所示。</p> <p></p> <img src='stimuli/faces/NFF1.jpg', style='max-width: 30%;'> </img> <p><strong>你是否选择发射武器？</strong></p>","0",""
"","","","","","html-keyboard-response","88","331552","0.0-4.0-0.42","42","1","2022-10-27 09:29:09","ebf9627b049f568eb4bf28942cb89901","113.78.199.106","Mozilla/5.0 (Windows NT 10.0; Win64; x64) AppleWebKit/537.36 (KHTML, like Gecko) Chrome/106.0.0.0 Safari/537.36 Edg/106.0.1370.52","WebKit","Edge","106.0.1370.52","Windows","10.0","null","<div style=""font-size:60px;"">+</div>","null",""
"","","","","","html-button-response","89","332246","0.0-4.0-1.42","42","1","2022-10-27 09:29:09","ebf9627b049f568eb4bf28942cb89901","113.78.199.106","Mozilla/5.0 (Windows NT 10.0; Win64; x64) AppleWebKit/537.36 (KHTML, like Gecko) Chrome/106.0.0.0 Safari/537.36 Edg/106.0.1370.52","WebKit","Edge","106.0.1370.52","Windows","10.0","688","<p>作为军队的指挥官，你可以选择发射导弹杀死 <strong>9名</strong> 敌国士兵，但会炸毁附近的 <strong>1棵</strong> 敌国树木。</p> <p>树木的照片如下图所示。</p> <p></p> <img src='stimuli/trees/6.png', style='max-width: 30%;'> </img> <p><strong>你是否选择发射武器？</strong></p>","0",""
"","","","","","html-keyboard-response","90","333249","0.0-4.0-0.43","42","1","2022-10-27 09:29:09","ebf9627b049f568eb4bf28942cb89901","113.78.199.106","Mozilla/5.0 (Windows NT 10.0; Win64; x64) AppleWebKit/537.36 (KHTML, like Gecko) Chrome/106.0.0.0 Safari/537.36 Edg/106.0.1370.52","WebKit","Edge","106.0.1370.52","Windows","10.0","null","<div style=""font-size:60px;"">+</div>","null",""
"","","","","","html-button-response","91","334264","0.0-4.0-1.43","42","1","2022-10-27 09:29:09","ebf9627b049f568eb4bf28942cb89901","113.78.199.106","Mozilla/5.0 (Windows NT 10.0; Win64; x64) AppleWebKit/537.36 (KHTML, like Gecko) Chrome/106.0.0.0 Safari/537.36 Edg/106.0.1370.52","WebKit","Edge","106.0.1370.52","Windows","10.0","1012","<p>作为军队的指挥官，你可以选择发射导弹杀死 <strong>4名</strong> 敌国士兵，但会误杀附近的 <strong>1名</strong> 敌国平民。</p> <p>平民照片如下图所示。</p> <p></p> <img src='stimuli/faces/NFF3.jpg', style='max-width: 30%;'> </img> <p><strong>你是否选择发射武器？</strong></p>","1",""
"","","","","","html-keyboard-response","92","335268","0.0-4.0-0.44","42","1","2022-10-27 09:29:09","ebf9627b049f568eb4bf28942cb89901","113.78.199.106","Mozilla/5.0 (Windows NT 10.0; Win64; x64) AppleWebKit/537.36 (KHTML, like Gecko) Chrome/106.0.0.0 Safari/537.36 Edg/106.0.1370.52","WebKit","Edge","106.0.1370.52","Windows","10.0","null","<div style=""font-size:60px;"">+</div>","null",""
"","","","","","html-button-response","93","336534","0.0-4.0-1.44","42","1","2022-10-27 09:29:09","ebf9627b049f568eb4bf28942cb89901","113.78.199.106","Mozilla/5.0 (Windows NT 10.0; Win64; x64) AppleWebKit/537.36 (KHTML, like Gecko) Chrome/106.0.0.0 Safari/537.36 Edg/106.0.1370.52","WebKit","Edge","106.0.1370.52","Windows","10.0","1257","<p>作为军队的指挥官，你可以选择发射导弹杀死 <strong>4名</strong> 敌国士兵，但会炸毁附近的 <strong>1棵</strong> 敌国树木。</p> <p>树木的照片如下图所示。</p> <p></p> <img src='stimuli/trees/1.png', style='max-width: 30%;'> </img> <p><strong>你是否选择发射武器？</strong></p>","1",""
"","","","","","html-keyboard-response","94","337539","0.0-4.0-0.45","42","1","2022-10-27 09:29:09","ebf9627b049f568eb4bf28942cb89901","113.78.199.106","Mozilla/5.0 (Windows NT 10.0; Win64; x64) AppleWebKit/537.36 (KHTML, like Gecko) Chrome/106.0.0.0 Safari/537.36 Edg/106.0.1370.52","WebKit","Edge","106.0.1370.52","Windows","10.0","null","<div style=""font-size:60px;"">+</div>","null",""
"","","","","","html-button-response","95","341079","0.0-4.0-1.45","42","1","2022-10-27 09:29:09","ebf9627b049f568eb4bf28942cb89901","113.78.199.106","Mozilla/5.0 (Windows NT 10.0; Win64; x64) AppleWebKit/537.36 (KHTML, like Gecko) Chrome/106.0.0.0 Safari/537.36 Edg/106.0.1370.52","WebKit","Edge","106.0.1370.52","Windows","10.0","3530","<p>作为军队的指挥官，你可以选择发射导弹杀死 <strong>4名</strong> 敌国士兵，但会误杀附近的 <strong>1名</strong> 敌国平民。</p> <p>平民照片如下图所示。</p> <p></p> <img src='stimuli/faces/NFF2.jpg', style='max-width: 30%;'> </img> <p><strong>你是否选择发射武器？</strong></p>","0",""
"","","","","","html-keyboard-response","96","342097","0.0-4.0-0.46","42","1","2022-10-27 09:29:09","ebf9627b049f568eb4bf28942cb89901","113.78.199.106","Mozilla/5.0 (Windows NT 10.0; Win64; x64) AppleWebKit/537.36 (KHTML, like Gecko) Chrome/106.0.0.0 Safari/537.36 Edg/106.0.1370.52","WebKit","Edge","106.0.1370.52","Windows","10.0","null","<div style=""font-size:60px;"">+</div>","null",""
"","","","","","html-button-response","97","345926","0.0-4.0-1.46","42","1","2022-10-27 09:29:09","ebf9627b049f568eb4bf28942cb89901","113.78.199.106","Mozilla/5.0 (Windows NT 10.0; Win64; x64) AppleWebKit/537.36 (KHTML, like Gecko) Chrome/106.0.0.0 Safari/537.36 Edg/106.0.1370.52","WebKit","Edge","106.0.1370.52","Windows","10.0","3822","<p>作为军队的指挥官，你可以选择发射导弹杀死 <strong>6名</strong> 敌国士兵，但会误杀附近的 <strong>1名</strong> 敌国平民。</p> <p>平民照片如下图所示。</p> <p></p> <img src='stimuli/faces/NFM7.jpg', style='max-width: 30%;'> </img> <p><strong>你是否选择发射武器？</strong></p>","0",""
"","","","","","html-keyboard-response","98","346943","0.0-4.0-0.47","42","1","2022-10-27 09:29:09","ebf9627b049f568eb4bf28942cb89901","113.78.199.106","Mozilla/5.0 (Windows NT 10.0; Win64; x64) AppleWebKit/537.36 (KHTML, like Gecko) Chrome/106.0.0.0 Safari/537.36 Edg/106.0.1370.52","WebKit","Edge","106.0.1370.52","Windows","10.0","null","<div style=""font-size:60px;"">+</div>","null",""
"","","","","","html-button-response","99","348294","0.0-4.0-1.47","42","1","2022-10-27 09:29:09","ebf9627b049f568eb4bf28942cb89901","113.78.199.106","Mozilla/5.0 (Windows NT 10.0; Win64; x64) AppleWebKit/537.36 (KHTML, like Gecko) Chrome/106.0.0.0 Safari/537.36 Edg/106.0.1370.52","WebKit","Edge","106.0.1370.52","Windows","10.0","1348","<p>作为军队的指挥官，你可以选择发射导弹杀死 <strong>1名</strong> 敌国士兵，但会误杀附近的 <strong>1名</strong> 敌国平民。</p> <p>平民照片如下图所示。</p> <p></p> <img src='stimuli/faces/NFM4.jpg', style='max-width: 30%;'> </img> <p><strong>你是否选择发射武器？</strong></p>","1",""
"","","","","","html-keyboard-response","100","349307","0.0-4.0-0.48","42","1","2022-10-27 09:29:09","ebf9627b049f568eb4bf28942cb89901","113.78.199.106","Mozilla/5.0 (Windows NT 10.0; Win64; x64) AppleWebKit/537.36 (KHTML, like Gecko) Chrome/106.0.0.0 Safari/537.36 Edg/106.0.1370.52","WebKit","Edge","106.0.1370.52","Windows","10.0","null","<div style=""font-size:60px;"">+</div>","null",""
"","","","","","html-button-response","101","374254","0.0-4.0-1.48","42","1","2022-10-27 09:29:09","ebf9627b049f568eb4bf28942cb89901","113.78.199.106","Mozilla/5.0 (Windows NT 10.0; Win64; x64) AppleWebKit/537.36 (KHTML, like Gecko) Chrome/106.0.0.0 Safari/537.36 Edg/106.0.1370.52","WebKit","Edge","106.0.1370.52","Windows","10.0","24938","<p>作为军队的指挥官，你可以选择发射导弹杀死 <strong>3名</strong> 敌国士兵，但会误杀附近的 <strong>1名</strong> 敌国平民。</p> <p>平民照片如下图所示。</p> <p></p> <img src='stimuli/faces/NFM3.jpg', style='max-width: 30%;'> </img> <p><strong>你是否选择发射武器？</strong></p>","1",""
"","","","","","html-keyboard-response","102","375267","0.0-4.0-0.49","42","1","2022-10-27 09:29:09","ebf9627b049f568eb4bf28942cb89901","113.78.199.106","Mozilla/5.0 (Windows NT 10.0; Win64; x64) AppleWebKit/537.36 (KHTML, like Gecko) Chrome/106.0.0.0 Safari/537.36 Edg/106.0.1370.52","WebKit","Edge","106.0.1370.52","Windows","10.0","null","<div style=""font-size:60px;"">+</div>","null",""
"","","","","","html-button-response","103","376486","0.0-4.0-1.49","42","1","2022-10-27 09:29:09","ebf9627b049f568eb4bf28942cb89901","113.78.199.106","Mozilla/5.0 (Windows NT 10.0; Win64; x64) AppleWebKit/537.36 (KHTML, like Gecko) Chrome/106.0.0.0 Safari/537.36 Edg/106.0.1370.52","WebKit","Edge","106.0.1370.52","Windows","10.0","1216","<p>作为军队的指挥官，你可以选择发射导弹杀死 <strong>7名</strong> 敌国士兵，但会炸毁附近的 <strong>1棵</strong> 敌国树木。</p> <p>树木的照片如下图所示。</p> <p></p> <img src='stimuli/trees/1.png', style='max-width: 30%;'> </img> <p><strong>你是否选择发射武器？</strong></p>","0",""
"","","","","","html-keyboard-response","104","377499","0.0-4.0-0.50","42","1","2022-10-27 09:29:09","ebf9627b049f568eb4bf28942cb89901","113.78.199.106","Mozilla/5.0 (Windows NT 10.0; Win64; x64) AppleWebKit/537.36 (KHTML, like Gecko) Chrome/106.0.0.0 Safari/537.36 Edg/106.0.1370.52","WebKit","Edge","106.0.1370.52","Windows","10.0","null","<div style=""font-size:60px;"">+</div>","null",""
"","","","","","html-button-response","105","378677","0.0-4.0-1.50","42","1","2022-10-27 09:29:09","ebf9627b049f568eb4bf28942cb89901","113.78.199.106","Mozilla/5.0 (Windows NT 10.0; Win64; x64) AppleWebKit/537.36 (KHTML, like Gecko) Chrome/106.0.0.0 Safari/537.36 Edg/106.0.1370.52","WebKit","Edge","106.0.1370.52","Windows","10.0","1172","<p>作为军队的指挥官，你可以选择发射导弹杀死 <strong>5名</strong> 敌国士兵，但会炸毁附近的 <strong>1棵</strong> 敌国树木。</p> <p>树木的照片如下图所示。</p> <p></p> <img src='stimuli/trees/16.png', style='max-width: 30%;'> </img> <p><strong>你是否选择发射武器？</strong></p>","0",""
"","","","","","html-keyboard-response","106","379694","0.0-4.0-0.51","42","1","2022-10-27 09:29:09","ebf9627b049f568eb4bf28942cb89901","113.78.199.106","Mozilla/5.0 (Windows NT 10.0; Win64; x64) AppleWebKit/537.36 (KHTML, like Gecko) Chrome/106.0.0.0 Safari/537.36 Edg/106.0.1370.52","WebKit","Edge","106.0.1370.52","Windows","10.0","null","<div style=""font-size:60px;"">+</div>","null",""
"","","","","","html-button-response","107","380965","0.0-4.0-1.51","42","1","2022-10-27 09:29:09","ebf9627b049f568eb4bf28942cb89901","113.78.199.106","Mozilla/5.0 (Windows NT 10.0; Win64; x64) AppleWebKit/537.36 (KHTML, like Gecko) Chrome/106.0.0.0 Safari/537.36 Edg/106.0.1370.52","WebKit","Edge","106.0.1370.52","Windows","10.0","1268","<p>作为军队的指挥官，你可以选择发射导弹杀死 <strong>6名</strong> 敌国士兵，但会炸毁附近的 <strong>1棵</strong> 敌国树木。</p> <p>树木的照片如下图所示。</p> <p></p> <img src='stimuli/trees/3.png', style='max-width: 30%;'> </img> <p><strong>你是否选择发射武器？</strong></p>","0",""
"","","","","","html-keyboard-response","108","381971","0.0-4.0-0.52","42","1","2022-10-27 09:29:09","ebf9627b049f568eb4bf28942cb89901","113.78.199.106","Mozilla/5.0 (Windows NT 10.0; Win64; x64) AppleWebKit/537.36 (KHTML, like Gecko) Chrome/106.0.0.0 Safari/537.36 Edg/106.0.1370.52","WebKit","Edge","106.0.1370.52","Windows","10.0","null","<div style=""font-size:60px;"">+</div>","null",""
"","","","","","html-button-response","109","384550","0.0-4.0-1.52","42","1","2022-10-27 09:29:09","ebf9627b049f568eb4bf28942cb89901","113.78.199.106","Mozilla/5.0 (Windows NT 10.0; Win64; x64) AppleWebKit/537.36 (KHTML, like Gecko) Chrome/106.0.0.0 Safari/537.36 Edg/106.0.1370.52","WebKit","Edge","106.0.1370.52","Windows","10.0","2570","<p>作为军队的指挥官，你可以选择发射导弹杀死 <strong>6名</strong> 敌国士兵，但会炸毁附近的 <strong>1棵</strong> 敌国树木。</p> <p>树木的照片如下图所示。</p> <p></p> <img src='stimuli/trees/7.png', style='max-width: 30%;'> </img> <p><strong>你是否选择发射武器？</strong></p>","0",""
"","","","","","html-keyboard-response","110","385569","0.0-4.0-0.53","42","1","2022-10-27 09:29:09","ebf9627b049f568eb4bf28942cb89901","113.78.199.106","Mozilla/5.0 (Windows NT 10.0; Win64; x64) AppleWebKit/537.36 (KHTML, like Gecko) Chrome/106.0.0.0 Safari/537.36 Edg/106.0.1370.52","WebKit","Edge","106.0.1370.52","Windows","10.0","null","<div style=""font-size:60px;"">+</div>","null",""
"","","","","","html-button-response","111","386861","0.0-4.0-1.53","42","1","2022-10-27 09:29:09","ebf9627b049f568eb4bf28942cb89901","113.78.199.106","Mozilla/5.0 (Windows NT 10.0; Win64; x64) AppleWebKit/537.36 (KHTML, like Gecko) Chrome/106.0.0.0 Safari/537.36 Edg/106.0.1370.52","WebKit","Edge","106.0.1370.52","Windows","10.0","1286","<p>作为军队的指挥官，你可以选择发射导弹杀死 <strong>9名</strong> 敌国士兵，但会炸毁附近的 <strong>1棵</strong> 敌国树木。</p> <p>树木的照片如下图所示。</p> <p></p> <img src='stimuli/trees/11.png', style='max-width: 30%;'> </img> <p><strong>你是否选择发射武器？</strong></p>","0",""
"","","","","","html-keyboard-response","112","387874","0.0-4.0-0.54","42","1","2022-10-27 09:29:09","ebf9627b049f568eb4bf28942cb89901","113.78.199.106","Mozilla/5.0 (Windows NT 10.0; Win64; x64) AppleWebKit/537.36 (KHTML, like Gecko) Chrome/106.0.0.0 Safari/537.36 Edg/106.0.1370.52","WebKit","Edge","106.0.1370.52","Windows","10.0","null","<div style=""font-size:60px;"">+</div>","null",""
"","","","","","html-button-response","113","389317","0.0-4.0-1.54","42","1","2022-10-27 09:29:09","ebf9627b049f568eb4bf28942cb89901","113.78.199.106","Mozilla/5.0 (Windows NT 10.0; Win64; x64) AppleWebKit/537.36 (KHTML, like Gecko) Chrome/106.0.0.0 Safari/537.36 Edg/106.0.1370.52","WebKit","Edge","106.0.1370.52","Windows","10.0","1437","<p>作为军队的指挥官，你可以选择发射导弹杀死 <strong>4名</strong> 敌国士兵，但会误杀附近的 <strong>1名</strong> 敌国平民。</p> <p>平民照片如下图所示。</p> <p></p> <img src='stimuli/faces/NFF7.jpg', style='max-width: 30%;'> </img> <p><strong>你是否选择发射武器？</strong></p>","1",""
"","","","","","html-keyboard-response","114","390330","0.0-4.0-0.55","42","1","2022-10-27 09:29:09","ebf9627b049f568eb4bf28942cb89901","113.78.199.106","Mozilla/5.0 (Windows NT 10.0; Win64; x64) AppleWebKit/537.36 (KHTML, like Gecko) Chrome/106.0.0.0 Safari/537.36 Edg/106.0.1370.52","WebKit","Edge","106.0.1370.52","Windows","10.0","null","<div style=""font-size:60px;"">+</div>","null",""
"","","","","","html-button-response","115","391414","0.0-4.0-1.55","42","1","2022-10-27 09:29:09","ebf9627b049f568eb4bf28942cb89901","113.78.199.106","Mozilla/5.0 (Windows NT 10.0; Win64; x64) AppleWebKit/537.36 (KHTML, like Gecko) Chrome/106.0.0.0 Safari/537.36 Edg/106.0.1370.52","WebKit","Edge","106.0.1370.52","Windows","10.0","1075","<p>作为军队的指挥官，你可以选择发射导弹杀死 <strong>2名</strong> 敌国士兵，但会炸毁附近的 <strong>1棵</strong> 敌国树木。</p> <p>树木的照片如下图所示。</p> <p></p> <img src='stimuli/trees/8.png', style='max-width: 30%;'> </img> <p><strong>你是否选择发射武器？</strong></p>","1",""
"","","","","","html-keyboard-response","116","392427","0.0-4.0-0.56","42","1","2022-10-27 09:29:09","ebf9627b049f568eb4bf28942cb89901","113.78.199.106","Mozilla/5.0 (Windows NT 10.0; Win64; x64) AppleWebKit/537.36 (KHTML, like Gecko) Chrome/106.0.0.0 Safari/537.36 Edg/106.0.1370.52","WebKit","Edge","106.0.1370.52","Windows","10.0","null","<div style=""font-size:60px;"">+</div>","null",""
"","","","","","html-button-response","117","393790","0.0-4.0-1.56","42","1","2022-10-27 09:29:09","ebf9627b049f568eb4bf28942cb89901","113.78.199.106","Mozilla/5.0 (Windows NT 10.0; Win64; x64) AppleWebKit/537.36 (KHTML, like Gecko) Chrome/106.0.0.0 Safari/537.36 Edg/106.0.1370.52","WebKit","Edge","106.0.1370.52","Windows","10.0","1356","<p>作为军队的指挥官，你可以选择发射导弹杀死 <strong>7名</strong> 敌国士兵，但会炸毁附近的 <strong>1棵</strong> 敌国树木。</p> <p>树木的照片如下图所示。</p> <p></p> <img src='stimuli/trees/13.png', style='max-width: 30%;'> </img> <p><strong>你是否选择发射武器？</strong></p>","0",""
"","","","","","html-keyboard-response","118","394805","0.0-4.0-0.57","42","1","2022-10-27 09:29:09","ebf9627b049f568eb4bf28942cb89901","113.78.199.106","Mozilla/5.0 (Windows NT 10.0; Win64; x64) AppleWebKit/537.36 (KHTML, like Gecko) Chrome/106.0.0.0 Safari/537.36 Edg/106.0.1370.52","WebKit","Edge","106.0.1370.52","Windows","10.0","null","<div style=""font-size:60px;"">+</div>","null",""
"","","","","","html-button-response","119","395631","0.0-4.0-1.57","42","1","2022-10-27 09:29:09","ebf9627b049f568eb4bf28942cb89901","113.78.199.106","Mozilla/5.0 (Windows NT 10.0; Win64; x64) AppleWebKit/537.36 (KHTML, like Gecko) Chrome/106.0.0.0 Safari/537.36 Edg/106.0.1370.52","WebKit","Edge","106.0.1370.52","Windows","10.0","820","<p>作为军队的指挥官，你可以选择发射导弹杀死 <strong>3名</strong> 敌国士兵，但会误杀附近的 <strong>1名</strong> 敌国平民。</p> <p>平民照片如下图所示。</p> <p></p> <img src='stimuli/faces/NFF1.jpg', style='max-width: 30%;'> </img> <p><strong>你是否选择发射武器？</strong></p>","1",""
"","","","","","html-keyboard-response","120","396639","0.0-4.0-0.58","42","1","2022-10-27 09:29:09","ebf9627b049f568eb4bf28942cb89901","113.78.199.106","Mozilla/5.0 (Windows NT 10.0; Win64; x64) AppleWebKit/537.36 (KHTML, like Gecko) Chrome/106.0.0.0 Safari/537.36 Edg/106.0.1370.52","WebKit","Edge","106.0.1370.52","Windows","10.0","null","<div style=""font-size:60px;"">+</div>","null",""
"","","","","","html-button-response","121","397982","0.0-4.0-1.58","42","1","2022-10-27 09:29:09","ebf9627b049f568eb4bf28942cb89901","113.78.199.106","Mozilla/5.0 (Windows NT 10.0; Win64; x64) AppleWebKit/537.36 (KHTML, like Gecko) Chrome/106.0.0.0 Safari/537.36 Edg/106.0.1370.52","WebKit","Edge","106.0.1370.52","Windows","10.0","1340","<p>作为军队的指挥官，你可以选择发射导弹杀死 <strong>2名</strong> 敌国士兵，但会炸毁附近的 <strong>1棵</strong> 敌国树木。</p> <p>树木的照片如下图所示。</p> <p></p> <img src='stimuli/trees/4.png', style='max-width: 30%;'> </img> <p><strong>你是否选择发射武器？</strong></p>","1",""
"","","","","","html-keyboard-response","122","399000","0.0-4.0-0.59","42","1","2022-10-27 09:29:09","ebf9627b049f568eb4bf28942cb89901","113.78.199.106","Mozilla/5.0 (Windows NT 10.0; Win64; x64) AppleWebKit/537.36 (KHTML, like Gecko) Chrome/106.0.0.0 Safari/537.36 Edg/106.0.1370.52","WebKit","Edge","106.0.1370.52","Windows","10.0","null","<div style=""font-size:60px;"">+</div>","null",""
"","","","","","html-button-response","123","399990","0.0-4.0-1.59","42","1","2022-10-27 09:29:09","ebf9627b049f568eb4bf28942cb89901","113.78.199.106","Mozilla/5.0 (Windows NT 10.0; Win64; x64) AppleWebKit/537.36 (KHTML, like Gecko) Chrome/106.0.0.0 Safari/537.36 Edg/106.0.1370.52","WebKit","Edge","106.0.1370.52","Windows","10.0","980","<p>作为军队的指挥官，你可以选择发射导弹杀死 <strong>5名</strong> 敌国士兵，但会炸毁附近的 <strong>1棵</strong> 敌国树木。</p> <p>树木的照片如下图所示。</p> <p></p> <img src='stimuli/trees/15.png', style='max-width: 30%;'> </img> <p><strong>你是否选择发射武器？</strong></p>","0",""
"","","","","","html-keyboard-response","124","401004","0.0-4.0-0.60","42","1","2022-10-27 09:29:09","ebf9627b049f568eb4bf28942cb89901","113.78.199.106","Mozilla/5.0 (Windows NT 10.0; Win64; x64) AppleWebKit/537.36 (KHTML, like Gecko) Chrome/106.0.0.0 Safari/537.36 Edg/106.0.1370.52","WebKit","Edge","106.0.1370.52","Windows","10.0","null","<div style=""font-size:60px;"">+</div>","null",""
"","","","","","html-button-response","125","402462","0.0-4.0-1.60","42","1","2022-10-27 09:29:09","ebf9627b049f568eb4bf28942cb89901","113.78.199.106","Mozilla/5.0 (Windows NT 10.0; Win64; x64) AppleWebKit/537.36 (KHTML, like Gecko) Chrome/106.0.0.0 Safari/537.36 Edg/106.0.1370.52","WebKit","Edge","106.0.1370.52","Windows","10.0","1451","<p>作为军队的指挥官，你可以选择发射导弹杀死 <strong>4名</strong> 敌国士兵，但会炸毁附近的 <strong>1棵</strong> 敌国树木。</p> <p>树木的照片如下图所示。</p> <p></p> <img src='stimuli/trees/3.png', style='max-width: 30%;'> </img> <p><strong>你是否选择发射武器？</strong></p>","0",""
"","","","","","html-keyboard-response","126","403480","0.0-4.0-0.61","42","1","2022-10-27 09:29:09","ebf9627b049f568eb4bf28942cb89901","113.78.199.106","Mozilla/5.0 (Windows NT 10.0; Win64; x64) AppleWebKit/537.36 (KHTML, like Gecko) Chrome/106.0.0.0 Safari/537.36 Edg/106.0.1370.52","WebKit","Edge","106.0.1370.52","Windows","10.0","null","<div style=""font-size:60px;"">+</div>","null",""
"","","","","","html-button-response","127","404518","0.0-4.0-1.61","42","1","2022-10-27 09:29:09","ebf9627b049f568eb4bf28942cb89901","113.78.199.106","Mozilla/5.0 (Windows NT 10.0; Win64; x64) AppleWebKit/537.36 (KHTML, like Gecko) Chrome/106.0.0.0 Safari/537.36 Edg/106.0.1370.52","WebKit","Edge","106.0.1370.52","Windows","10.0","1028","<p>作为军队的指挥官，你可以选择发射导弹杀死 <strong>2名</strong> 敌国士兵，但会误杀附近的 <strong>1名</strong> 敌国平民。</p> <p>平民照片如下图所示。</p> <p></p> <img src='stimuli/faces/NFM5.jpg', style='max-width: 30%;'> </img> <p><strong>你是否选择发射武器？</strong></p>","1",""
"","","","","","html-keyboard-response","128","405534","0.0-4.0-0.62","42","1","2022-10-27 09:29:09","ebf9627b049f568eb4bf28942cb89901","113.78.199.106","Mozilla/5.0 (Windows NT 10.0; Win64; x64) AppleWebKit/537.36 (KHTML, like Gecko) Chrome/106.0.0.0 Safari/537.36 Edg/106.0.1370.52","WebKit","Edge","106.0.1370.52","Windows","10.0","null","<div style=""font-size:60px;"">+</div>","null",""
"","","","","","html-button-response","129","406381","0.0-4.0-1.62","42","1","2022-10-27 09:29:09","ebf9627b049f568eb4bf28942cb89901","113.78.199.106","Mozilla/5.0 (Windows NT 10.0; Win64; x64) AppleWebKit/537.36 (KHTML, like Gecko) Chrome/106.0.0.0 Safari/537.36 Edg/106.0.1370.52","WebKit","Edge","106.0.1370.52","Windows","10.0","842","<p>作为军队的指挥官，你可以选择发射导弹杀死 <strong>10名</strong> 敌国士兵，但会误杀附近的 <strong>1名</strong> 敌国平民。</p> <p>平民照片如下图所示。</p> <p></p> <img src='stimuli/faces/NFF8.jpg', style='max-width: 30%;'> </img> <p><strong>你是否选择发射武器？</strong></p>","0",""
"","","","","","html-keyboard-response","130","407388","0.0-4.0-0.63","42","1","2022-10-27 09:29:09","ebf9627b049f568eb4bf28942cb89901","113.78.199.106","Mozilla/5.0 (Windows NT 10.0; Win64; x64) AppleWebKit/537.36 (KHTML, like Gecko) Chrome/106.0.0.0 Safari/537.36 Edg/106.0.1370.52","WebKit","Edge","106.0.1370.52","Windows","10.0","null","<div style=""font-size:60px;"">+</div>","null",""
"","","","","","html-button-response","131","408182","0.0-4.0-1.63","42","1","2022-10-27 09:29:09","ebf9627b049f568eb4bf28942cb89901","113.78.199.106","Mozilla/5.0 (Windows NT 10.0; Win64; x64) AppleWebKit/537.36 (KHTML, like Gecko) Chrome/106.0.0.0 Safari/537.36 Edg/106.0.1370.52","WebKit","Edge","106.0.1370.52","Windows","10.0","785","<p>作为军队的指挥官，你可以选择发射导弹杀死 <strong>1名</strong> 敌国士兵，但会炸毁附近的 <strong>1棵</strong> 敌国树木。</p> <p>树木的照片如下图所示。</p> <p></p> <img src='stimuli/trees/10.png', style='max-width: 30%;'> </img> <p><strong>你是否选择发射武器？</strong></p>","1",""
"","","","","","survey-multi-choice","132","414079","0.0-5.0","42","1","2022-10-27 09:29:09","ebf9627b049f568eb4bf28942cb89901","113.78.199.106","Mozilla/5.0 (Windows NT 10.0; Win64; x64) AppleWebKit/537.36 (KHTML, like Gecko) Chrome/106.0.0.0 Safari/537.36 Edg/106.0.1370.52","WebKit","Edge","106.0.1370.52","Windows","10.0","5889","","{""Attention1"":""""}","[0]"
"","","","","","html-button-response","133","417470","0.0-6.0","42","1","2022-10-27 09:29:09","ebf9627b049f568eb4bf28942cb89901","113.78.199.106","Mozilla/5.0 (Windows NT 10.0; Win64; x64) AppleWebKit/537.36 (KHTML, like Gecko) Chrome/106.0.0.0 Safari/537.36 Edg/106.0.1370.52","WebKit","Edge","106.0.1370.52","Windows","10.0","3380","<p style=""font-size:20px;font-weight:bold;"">恭喜！</p><p>你已经完成了实验的第一部分。</p><p>请休息放松一下，然后进入第二部分。</p><p>这部分大约需要10分钟。</p>","0",""
"","","","","","survey-text","134","582767","0.0-7.0","42","1","2022-10-27 09:29:09","ebf9627b049f568eb4bf28942cb89901","113.78.199.106","Mozilla/5.0 (Windows NT 10.0; Win64; x64) AppleWebKit/537.36 (KHTML, like Gecko) Chrome/106.0.0.0 Safari/537.36 Edg/106.0.1370.52","WebKit","Edge","106.0.1370.52","Windows","10.0","164275","","{""Age"":""21"",""Nation"":""中国"",""Born"":""广东省湛江市"",""Live"":""广东省广州市"",""Ethnic"":""汉族"",""Alipay"":""13686208905""}",""
"","","","","","survey-multi-choice","135","599142","0.0-8.0","42","1","2022-10-27 09:29:09","ebf9627b049f568eb4bf28942cb89901","113.78.199.106","Mozilla/5.0 (Windows NT 10.0; Win64; x64) AppleWebKit/537.36 (KHTML, like Gecko) Chrome/106.0.0.0 Safari/537.36 Edg/106.0.1370.52","WebKit","Edge","106.0.1370.52","Windows","10.0","16367","","{""Gender"":""男"",""Education"":""本科毕业"",""Income"":""￥140,000-￥269,999"",""Children"":""0"",""Race"":""亚洲人""}","[0,1,2,3,4]"
"","","","","","survey-multi-select","136","603855","0.0-9.0","42","1","2022-10-27 09:29:09","ebf9627b049f568eb4bf28942cb89901","113.78.199.106","Mozilla/5.0 (Windows NT 10.0; Win64; x64) AppleWebKit/537.36 (KHTML, like Gecko) Chrome/106.0.0.0 Safari/537.36 Edg/106.0.1370.52","WebKit","Edge","106.0.1370.52","Windows","10.0","4687","","{""Marriage"":[""未婚""],""Religion"":[""无宗教信仰""]}","[0,1]"
"","","","","","survey-multi-choice","137","642719","0.0-10.0","42","1","2022-10-27 09:29:09","ebf9627b049f568eb4bf28942cb89901","113.78.199.106","Mozilla/5.0 (Windows NT 10.0; Win64; x64) AppleWebKit/537.36 (KHTML, like Gecko) Chrome/106.0.0.0 Safari/537.36 Edg/106.0.1370.52","WebKit","Edge","106.0.1370.52","Windows","10.0","38856","","{""SES"":""6""}","[0]"
"","","","","","html-button-response","138","644326","0.0-11.0","42","1","2022-10-27 09:29:09","ebf9627b049f568eb4bf28942cb89901","113.78.199.106","Mozilla/5.0 (Windows NT 10.0; Win64; x64) AppleWebKit/537.36 (KHTML, like Gecko) Chrome/106.0.0.0 Safari/537.36 Edg/106.0.1370.52","WebKit","Edge","106.0.1370.52","Windows","10.0","1598","<p><strong>请判断下列陈述在多大程度上可以形容你？</p><p> (1 = ""和我一点都不像"" to 5 = ""非常像我"".)</strong></p>","0",""
"","","","","","survey-likert","139","743096","0.0-12.0","42","1","2022-10-27 09:29:09","ebf9627b049f568eb4bf28942cb89901","113.78.199.106","Mozilla/5.0 (Windows NT 10.0; Win64; x64) AppleWebKit/537.36 (KHTML, like Gecko) Chrome/106.0.0.0 Safari/537.36 Edg/106.0.1370.52","WebKit","Edge","106.0.1370.52","Windows","10.0","98763","","{""Aggression1"":0,""Aggression2"":2,""Aggression3"":4,""Aggression4"":0,""Aggression5"":2,""Aggression6"":4,""Aggression7"":3,""Aggression8"":0,""Aggression9"":0}","[0,1,2,3,4,5,6,7,8]"
"","","","","","html-button-response","140","744413","0.0-13.0","42","1","2022-10-27 09:29:09","ebf9627b049f568eb4bf28942cb89901","113.78.199.106","Mozilla/5.0 (Windows NT 10.0; Win64; x64) AppleWebKit/537.36 (KHTML, like Gecko) Chrome/106.0.0.0 Safari/537.36 Edg/106.0.1370.52","WebKit","Edge","106.0.1370.52","Windows","10.0","1307","<p><strong>请判断你在多大程度上同意下列陈述。</strong></p>","0",""
"","","","","","survey-likert","141","882354","0.0-14.0","42","1","2022-10-27 09:29:09","ebf9627b049f568eb4bf28942cb89901","113.78.199.106","Mozilla/5.0 (Windows NT 10.0; Win64; x64) AppleWebKit/537.36 (KHTML, like Gecko) Chrome/106.0.0.0 Safari/537.36 Edg/106.0.1370.52","WebKit","Edge","106.0.1370.52","Windows","10.0","137930","","{""scale17"":2,""scale22"":1,""scale14"":3,""scale12"":1,""scale3"":1,""scale23"":2,""scale13"":1,""scale1"":0,""scale25"":4,""scale6"":2,""scale4"":1,""scale26"":1,""scale5"":2,""scale24"":0,""scale2"":2,""scale7"":1,""scale18"":1,""scale8"":4,""scale28"":3,""scale21"":3,""scale9"":1,""scale10"":2,""scale15"":3,""scale27"":1,""scale20"":1,""scale16"":1,""scale19"":3,""scale11"":4}","[16,21,13,11,2,22,12,0,24,5,3,25,4,23,1,6,17,7,27,20,8,9,14,26,19,15,18,10]"
"","","","","","html-button-response","142","883493","0.0-15.0","42","1","2022-10-27 09:29:09","ebf9627b049f568eb4bf28942cb89901","113.78.199.106","Mozilla/5.0 (Windows NT 10.0; Win64; x64) AppleWebKit/537.36 (KHTML, like Gecko) Chrome/106.0.0.0 Safari/537.36 Edg/106.0.1370.52","WebKit","Edge","106.0.1370.52","Windows","10.0","1129","<p><strong>请判断你在多大程度上同意下列陈述。</strong></p>","0",""
"","","","","","survey-likert","143","944760","0.0-16.0","42","1","2022-10-27 09:29:09","ebf9627b049f568eb4bf28942cb89901","113.78.199.106","Mozilla/5.0 (Windows NT 10.0; Win64; x64) AppleWebKit/537.36 (KHTML, like Gecko) Chrome/106.0.0.0 Safari/537.36 Edg/106.0.1370.52","WebKit","Edge","106.0.1370.52","Windows","10.0","61259","","{""sdo13"":6,""sdo14"":5,""sdo15"":3,""sdo8"":2,""sdo1"":0,""sdo7"":1,""sdo10"":4,""sdo9"":5,""sdo3"":2,""sdo4"":1,""sdo11"":5,""sdo2"":0,""sdo6"":4,""sdo16"":5,""sdo12"":6,""sdo5"":2}","[12,13,14,7,0,6,9,8,2,3,10,1,5,15,11,4]"
"","","","","","html-button-response","144","945703","0.0-17.0","42","1","2022-10-27 09:29:09","ebf9627b049f568eb4bf28942cb89901","113.78.199.106","Mozilla/5.0 (Windows NT 10.0; Win64; x64) AppleWebKit/537.36 (KHTML, like Gecko) Chrome/106.0.0.0 Safari/537.36 Edg/106.0.1370.52","WebKit","Edge","106.0.1370.52","Windows","10.0","934","<p><strong>请判断你在多大程度上同意下列陈述。</strong></p>","0",""
"","","","","","survey-likert","145","978769","0.0-18.0","42","1","2022-10-27 09:29:09","ebf9627b049f568eb4bf28942cb89901","113.78.199.106","Mozilla/5.0 (Windows NT 10.0; Win64; x64) AppleWebKit/537.36 (KHTML, like Gecko) Chrome/106.0.0.0 Safari/537.36 Edg/106.0.1370.52","WebKit","Edge","106.0.1370.52","Windows","10.0","33060","","{""caring1"":3,""liking1"":0,""caring2"":4,""protection1"":3,""liking2"":1,""caring3"":4,""protection2"":3,""liking3"":0,""protection3"":3,""caring4"":4,""liking4"":0,""protection4"":3,""caring5"":3,""liking5"":2,""protection5"":3}","[0,1,2,3,4,5,6,7,8,9,10,11,12,13,14]"
"","","","","","html-button-response","146","979902","0.0-19.0","42","1","2022-10-27 09:29:09","ebf9627b049f568eb4bf28942cb89901","113.78.199.106","Mozilla/5.0 (Windows NT 10.0; Win64; x64) AppleWebKit/537.36 (KHTML, like Gecko) Chrome/106.0.0.0 Safari/537.36 Edg/106.0.1370.52","WebKit","Edge","106.0.1370.52","Windows","10.0","1126","<p><strong>请判断下列场景中你的内心感受有多柔软。</strong></p>","0",""
"","","","","","survey-likert","147","1084191","0.0-20.0","42","1","2022-10-27 09:29:09","ebf9627b049f568eb4bf28942cb89901","113.78.199.106","Mozilla/5.0 (Windows NT 10.0; Win64; x64) AppleWebKit/537.36 (KHTML, like Gecko) Chrome/106.0.0.0 Safari/537.36 Edg/106.0.1370.52","WebKit","Edge","106.0.1370.52","Windows","10.0","104282","","{""tenderness-positive1"":3,""tenderness-negative1"":1,""tenderness-negative2"":1,""tenderness-positive2"":3,""tenderness-positive3"":1,""tenderness-negative3"":0,""tenderness-positive4"":4,""tendereness-negative4"":3,""tendernness-negative5"":1,""tenderness-positive5"":4}","[0,1,2,3,4,5,6,7,8,9]"
"","","","","","survey-multi-choice","148","1090014","0.0-21.0","42","1","2022-10-27 09:29:09","ebf9627b049f568eb4bf28942cb89901","113.78.199.106","Mozilla/5.0 (Windows NT 10.0; Win64; x64) AppleWebKit/537.36 (KHTML, like Gecko) Chrome/106.0.0.0 Safari/537.36 Edg/106.0.1370.52","WebKit","Edge","106.0.1370.52","Windows","10.0","5812","","{""Attention2"":""其他""}","[0]"
"","","","","","html-button-response","149","1091062","0.0-22.0","42","1","2022-10-27 09:29:09","ebf9627b049f568eb4bf28942cb89901","113.78.199.106","Mozilla/5.0 (Windows NT 10.0; Win64; x64) AppleWebKit/537.36 (KHTML, like Gecko) Chrome/106.0.0.0 Safari/537.36 Edg/106.0.1370.52","WebKit","Edge","106.0.1370.52","Windows","10.0","1040","<p><strong>请判断你在多大程度上同意下列陈述。</strong></p>","0",""
"","","","","","survey-likert","150","1147424","0.0-23.0","42","1","2022-10-27 09:29:09","ebf9627b049f568eb4bf28942cb89901","113.78.199.106","Mozilla/5.0 (Windows NT 10.0; Win64; x64) AppleWebKit/537.36 (KHTML, like Gecko) Chrome/106.0.0.0 Safari/537.36 Edg/106.0.1370.52","WebKit","Edge","106.0.1370.52","Windows","10.0","56354","","{""Patri4"":4,""Patri8"":4,""Patri11"":0,""Nation7"":3,""Patri3"":4,""Patri1"":4,""Nation8"":1,""Patri12"":2,""Nation3"":1,""Nation2"":4,""Patri7"":4,""Patri2"":4,""Nation4"":2,""Nation1"":0,""Nation5"":0,""Patri5"":4,""Patri9"":0,""Patri6"":0,""Nation6"":2,""Patri10"":0}","[3,7,10,18,2,0,19,11,14,13,6,1,15,12,16,4,8,5,17,9]"
"","","","","","html-button-response","151","1148566","0.0-24.0","42","1","2022-10-27 09:29:09","ebf9627b049f568eb4bf28942cb89901","113.78.199.106","Mozilla/5.0 (Windows NT 10.0; Win64; x64) AppleWebKit/537.36 (KHTML, like Gecko) Chrome/106.0.0.0 Safari/537.36 Edg/106.0.1370.52","WebKit","Edge","106.0.1370.52","Windows","10.0","1133","<p><strong>请判断你在多大程度上同意下列陈述。</strong></p>","0",""
"","","","","","survey-likert","152","1194938","0.0-25.0","42","1","2022-10-27 09:29:09","ebf9627b049f568eb4bf28942cb89901","113.78.199.106","Mozilla/5.0 (Windows NT 10.0; Win64; x64) AppleWebKit/537.36 (KHTML, like Gecko) Chrome/106.0.0.0 Safari/537.36 Edg/106.0.1370.52","WebKit","Edge","106.0.1370.52","Windows","10.0","46361","","{""hi2"":6,""vi4"":1,""vc1"":8,""vc3"":6,""vi2"":5,""Robot"":6,""hi4"":7,""hi3"":5,""hi1"":6,""hc4"":7,""vc2"":8,""vc4"":5,""hc3"":6,""hc2"":7,""vi3"":5,""hc1"":6,""vi1"":6}","[1,8,13,15,5,7,3,2,0,12,14,16,11,10,6,9,4]"
"","","","","","survey-text","153","1202709","0.0-26.0","42","1","2022-10-27 09:29:09","ebf9627b049f568eb4bf28942cb89901","113.78.199.106","Mozilla/5.0 (Windows NT 10.0; Win64; x64) AppleWebKit/537.36 (KHTML, like Gecko) Chrome/106.0.0.0 Safari/537.36 Edg/106.0.1370.52","WebKit","Edge","106.0.1370.52","Windows","10.0","7749","","{""Comments"":""无""}",""
"","","","","","html-button-response","154","1203808","0.0-27.0","42","1","2022-10-27 09:29:09","ebf9627b049f568eb4bf28942cb89901","113.78.199.106","Mozilla/5.0 (Windows NT 10.0; Win64; x64) AppleWebKit/537.36 (KHTML, like Gecko) Chrome/106.0.0.0 Safari/537.36 Edg/106.0.1370.52","WebKit","Edge","106.0.1370.52","Windows","10.0","1096","<strong><p>恭喜你完成了实验！</p><p>感谢您的参与。</p></strong>","0",""
