"success","timeout","failed_images","failed_audio","failed_video","trial_type","trial_index","time_elapsed","internal_node_id","run_id","condition","recorded_at","source_code_version","ip","user_agent","device","browser","browser_version","platform","platform_version","rt","stimulus","response","question_order"
"true","false","[]","[]","[]","preload","0","72","0.0-0.0","47","1","2022-10-27 15:06:13","ebf9627b049f568eb4bf28942cb89901","112.40.33.153","Mozilla/5.0 (Windows NT 10.0; Win64; x64) AppleWebKit/537.36 (KHTML, like Gecko) Chrome/106.0.0.0 Safari/537.36 Edg/106.0.1370.52","WebKit","Edge","106.0.1370.52","Windows","10.0","","","",""
"true","","","","","fullscreen","1","941178","0.0-1.0","47","1","2022-10-27 15:06:13","ebf9627b049f568eb4bf28942cb89901","112.40.33.153","Mozilla/5.0 (Windows NT 10.0; Win64; x64) AppleWebKit/537.36 (KHTML, like Gecko) Chrome/106.0.0.0 Safari/537.36 Edg/106.0.1370.52","WebKit","Edge","106.0.1370.52","Windows","10.0","","","",""
"","","","","","html-button-response","2","945208","0.0-2.0","47","1","2022-10-27 15:06:13","ebf9627b049f568eb4bf28942cb89901","112.40.33.153","Mozilla/5.0 (Windows NT 10.0; Win64; x64) AppleWebKit/537.36 (KHTML, like Gecko) Chrome/106.0.0.0 Safari/537.36 Edg/106.0.1370.52","WebKit","Edge","106.0.1370.52","Windows","10.0","4029","<p style=""font-size:20px;font-weight:bold;"">实验知情同意书</p><p style=""text-align:left;""><strong>实验名称：</strong>社会冲突研究</p><p style=""text-align:left;""><strong>主要研究者：</strong>韩晓春副教授（北京师范大学心理学部）</p><p style=""text-align:left;""><strong>联系方式：</strong>发送邮件至xiaochun.han@bnu.edu.cn</p><p style=""text-align:left;""><strong>研究目的：</strong>研究旨在了解人类面对群体冲突时的决策方式，以及相关的心理学特质。实验调查大约需要20分钟。</p><p style=""text-align:left;""><strong>实验流程：</strong>实验包含两部分。第一部分呈现一系列群体冲突场景，请你决定如何对这些冲突进行反应，大约需要10分钟完成。第二部分包含一系列人口统计学信息收集和心理学问卷，大约需要10分钟完成。</p><p style=""text-align:left;""><strong>参加及退出规则：</strong>参加本实验完全取决于您的个人意愿。在参与过程中，您可以随时退出，并且不用承担任何后果。</p><p style=""text-align:left;""><strong>隐私：</strong>本实验完全匿名进行，不会收集您的姓名或其他能够识别您身份的信息。实验中收集的作答仅用作科学研究使用，可能会在学术期刊/书籍上发表，或者用于教学，您的数据未来可能会和其他研究者或实验室分享，但您的个人身份不会被识别。</p><p style=""text-align:left;""><strong>实验报酬：</strong>实验完成后，您将获得15元人民币报酬，以感谢您的时间和努力。调查问卷中包含几道题目用以测验您作答时的认真度。只有完成全部实验，并且正确回答认真度测验的被试才能获得实验报酬。实验报酬将通过支付宝转账发放。</p><p style=""text-align:left;font-size:20px;""><strong>如果您同意以上实验知情同意书的内容，请点击'同意并且开始实验'按钮；否则请关闭浏览器界面，退出实验。</strong></p>","0",""
"","","","","","html-button-response","3","946989","0.0-3.0","47","1","2022-10-27 15:06:13","ebf9627b049f568eb4bf28942cb89901","112.40.33.153","Mozilla/5.0 (Windows NT 10.0; Win64; x64) AppleWebKit/537.36 (KHTML, like Gecko) Chrome/106.0.0.0 Safari/537.36 Edg/106.0.1370.52","WebKit","Edge","106.0.1370.52","Windows","10.0","1780","<p ><strong>实验任务一：</strong></p><p>请想象你的国家与另一个国家发生了军事冲突。</p><p>你是国家军队的指挥官，你将如何在冲突中进行决策。</p><p>具体来说，作为军队指挥官，请你决定是否发射导弹进行打击。</p><p>接下来，你会面对一系列场景，请仔细阅读每个场景，然后进行决策。</p><p>这部分实验任务大约需要10分钟。</p><p><strong>实验过程中，请集中注意力。</strong></p>","0",""
"","","","","","html-keyboard-response","4","947991","0.0-4.0-0.0","47","1","2022-10-27 15:06:13","ebf9627b049f568eb4bf28942cb89901","112.40.33.153","Mozilla/5.0 (Windows NT 10.0; Win64; x64) AppleWebKit/537.36 (KHTML, like Gecko) Chrome/106.0.0.0 Safari/537.36 Edg/106.0.1370.52","WebKit","Edge","106.0.1370.52","Windows","10.0","null","<div style=""font-size:60px;"">+</div>","null",""
"","","","","","html-button-response","5","949874","0.0-4.0-1.0","47","1","2022-10-27 15:06:13","ebf9627b049f568eb4bf28942cb89901","112.40.33.153","Mozilla/5.0 (Windows NT 10.0; Win64; x64) AppleWebKit/537.36 (KHTML, like Gecko) Chrome/106.0.0.0 Safari/537.36 Edg/106.0.1370.52","WebKit","Edge","106.0.1370.52","Windows","10.0","1882","<p>作为军队的指挥官，你可以选择发射导弹杀死 <strong>5名</strong> 敌国士兵，但会误杀附近的 <strong>1名</strong> 敌国平民。</p> <p>平民照片如下图所示。</p> <p></p> <img src='stimuli/faces/NFM4.jpg', style='max-width: 30%;'> </img> <p><strong>你是否选择发射武器？</strong></p>","1",""
"","","","","","html-keyboard-response","6","950885","0.0-4.0-0.1","47","1","2022-10-27 15:06:13","ebf9627b049f568eb4bf28942cb89901","112.40.33.153","Mozilla/5.0 (Windows NT 10.0; Win64; x64) AppleWebKit/537.36 (KHTML, like Gecko) Chrome/106.0.0.0 Safari/537.36 Edg/106.0.1370.52","WebKit","Edge","106.0.1370.52","Windows","10.0","null","<div style=""font-size:60px;"">+</div>","null",""
"","","","","","html-button-response","7","953993","0.0-4.0-1.1","47","1","2022-10-27 15:06:13","ebf9627b049f568eb4bf28942cb89901","112.40.33.153","Mozilla/5.0 (Windows NT 10.0; Win64; x64) AppleWebKit/537.36 (KHTML, like Gecko) Chrome/106.0.0.0 Safari/537.36 Edg/106.0.1370.52","WebKit","Edge","106.0.1370.52","Windows","10.0","3107","<p>作为军队的指挥官，你可以选择发射导弹杀死 <strong>4名</strong> 敌国士兵，但会炸毁附近的 <strong>1棵</strong> 敌国树木。</p> <p>树木的照片如下图所示。</p> <p></p> <img src='stimuli/trees/16.png', style='max-width: 30%;'> </img> <p><strong>你是否选择发射武器？</strong></p>","0",""
"","","","","","html-keyboard-response","8","954997","0.0-4.0-0.2","47","1","2022-10-27 15:06:13","ebf9627b049f568eb4bf28942cb89901","112.40.33.153","Mozilla/5.0 (Windows NT 10.0; Win64; x64) AppleWebKit/537.36 (KHTML, like Gecko) Chrome/106.0.0.0 Safari/537.36 Edg/106.0.1370.52","WebKit","Edge","106.0.1370.52","Windows","10.0","null","<div style=""font-size:60px;"">+</div>","null",""
"","","","","","html-button-response","9","999066","0.0-4.0-1.2","47","1","2022-10-27 15:06:13","ebf9627b049f568eb4bf28942cb89901","112.40.33.153","Mozilla/5.0 (Windows NT 10.0; Win64; x64) AppleWebKit/537.36 (KHTML, like Gecko) Chrome/106.0.0.0 Safari/537.36 Edg/106.0.1370.52","WebKit","Edge","106.0.1370.52","Windows","10.0","44065","<p>作为军队的指挥官，你可以选择发射导弹杀死 <strong>8名</strong> 敌国士兵，但会误杀附近的 <strong>1名</strong> 敌国平民。</p> <p>平民照片如下图所示。</p> <p></p> <img src='stimuli/faces/NFM4.jpg', style='max-width: 30%;'> </img> <p><strong>你是否选择发射武器？</strong></p>","0",""
"","","","","","html-keyboard-response","10","1000069","0.0-4.0-0.3","47","1","2022-10-27 15:06:13","ebf9627b049f568eb4bf28942cb89901","112.40.33.153","Mozilla/5.0 (Windows NT 10.0; Win64; x64) AppleWebKit/537.36 (KHTML, like Gecko) Chrome/106.0.0.0 Safari/537.36 Edg/106.0.1370.52","WebKit","Edge","106.0.1370.52","Windows","10.0","null","<div style=""font-size:60px;"">+</div>","null",""
"","","","","","html-button-response","11","1001337","0.0-4.0-1.3","47","1","2022-10-27 15:06:13","ebf9627b049f568eb4bf28942cb89901","112.40.33.153","Mozilla/5.0 (Windows NT 10.0; Win64; x64) AppleWebKit/537.36 (KHTML, like Gecko) Chrome/106.0.0.0 Safari/537.36 Edg/106.0.1370.52","WebKit","Edge","106.0.1370.52","Windows","10.0","1267","<p>作为军队的指挥官，你可以选择发射导弹杀死 <strong>5名</strong> 敌国士兵，但会误杀附近的 <strong>1名</strong> 敌国平民。</p> <p>平民照片如下图所示。</p> <p></p> <img src='stimuli/faces/NFF8.jpg', style='max-width: 30%;'> </img> <p><strong>你是否选择发射武器？</strong></p>","1",""
"","","","","","html-keyboard-response","12","1002342","0.0-4.0-0.4","47","1","2022-10-27 15:06:13","ebf9627b049f568eb4bf28942cb89901","112.40.33.153","Mozilla/5.0 (Windows NT 10.0; Win64; x64) AppleWebKit/537.36 (KHTML, like Gecko) Chrome/106.0.0.0 Safari/537.36 Edg/106.0.1370.52","WebKit","Edge","106.0.1370.52","Windows","10.0","null","<div style=""font-size:60px;"">+</div>","null",""
"","","","","","html-button-response","13","1003753","0.0-4.0-1.4","47","1","2022-10-27 15:06:13","ebf9627b049f568eb4bf28942cb89901","112.40.33.153","Mozilla/5.0 (Windows NT 10.0; Win64; x64) AppleWebKit/537.36 (KHTML, like Gecko) Chrome/106.0.0.0 Safari/537.36 Edg/106.0.1370.52","WebKit","Edge","106.0.1370.52","Windows","10.0","1410","<p>作为军队的指挥官，你可以选择发射导弹杀死 <strong>2名</strong> 敌国士兵，但会炸毁附近的 <strong>1棵</strong> 敌国树木。</p> <p>树木的照片如下图所示。</p> <p></p> <img src='stimuli/trees/12.png', style='max-width: 30%;'> </img> <p><strong>你是否选择发射武器？</strong></p>","0",""
"","","","","","html-keyboard-response","14","1004766","0.0-4.0-0.5","47","1","2022-10-27 15:06:13","ebf9627b049f568eb4bf28942cb89901","112.40.33.153","Mozilla/5.0 (Windows NT 10.0; Win64; x64) AppleWebKit/537.36 (KHTML, like Gecko) Chrome/106.0.0.0 Safari/537.36 Edg/106.0.1370.52","WebKit","Edge","106.0.1370.52","Windows","10.0","null","<div style=""font-size:60px;"">+</div>","null",""
"","","","","","html-button-response","15","1006656","0.0-4.0-1.5","47","1","2022-10-27 15:06:13","ebf9627b049f568eb4bf28942cb89901","112.40.33.153","Mozilla/5.0 (Windows NT 10.0; Win64; x64) AppleWebKit/537.36 (KHTML, like Gecko) Chrome/106.0.0.0 Safari/537.36 Edg/106.0.1370.52","WebKit","Edge","106.0.1370.52","Windows","10.0","1890","<p>作为军队的指挥官，你可以选择发射导弹杀死 <strong>7名</strong> 敌国士兵，但会误杀附近的 <strong>1名</strong> 敌国平民。</p> <p>平民照片如下图所示。</p> <p></p> <img src='stimuli/faces/NFF4.jpg', style='max-width: 30%;'> </img> <p><strong>你是否选择发射武器？</strong></p>","1",""
"","","","","","html-keyboard-response","16","1007662","0.0-4.0-0.6","47","1","2022-10-27 15:06:13","ebf9627b049f568eb4bf28942cb89901","112.40.33.153","Mozilla/5.0 (Windows NT 10.0; Win64; x64) AppleWebKit/537.36 (KHTML, like Gecko) Chrome/106.0.0.0 Safari/537.36 Edg/106.0.1370.52","WebKit","Edge","106.0.1370.52","Windows","10.0","null","<div style=""font-size:60px;"">+</div>","null",""
"","","","","","html-button-response","17","1008787","0.0-4.0-1.6","47","1","2022-10-27 15:06:13","ebf9627b049f568eb4bf28942cb89901","112.40.33.153","Mozilla/5.0 (Windows NT 10.0; Win64; x64) AppleWebKit/537.36 (KHTML, like Gecko) Chrome/106.0.0.0 Safari/537.36 Edg/106.0.1370.52","WebKit","Edge","106.0.1370.52","Windows","10.0","1125","<p>作为军队的指挥官，你可以选择发射导弹杀死 <strong>4名</strong> 敌国士兵，但会误杀附近的 <strong>1名</strong> 敌国平民。</p> <p>平民照片如下图所示。</p> <p></p> <img src='stimuli/faces/NFM3.jpg', style='max-width: 30%;'> </img> <p><strong>你是否选择发射武器？</strong></p>","1",""
"","","","","","html-keyboard-response","18","1009800","0.0-4.0-0.7","47","1","2022-10-27 15:06:13","ebf9627b049f568eb4bf28942cb89901","112.40.33.153","Mozilla/5.0 (Windows NT 10.0; Win64; x64) AppleWebKit/537.36 (KHTML, like Gecko) Chrome/106.0.0.0 Safari/537.36 Edg/106.0.1370.52","WebKit","Edge","106.0.1370.52","Windows","10.0","null","<div style=""font-size:60px;"">+</div>","null",""
"","","","","","html-button-response","19","1012046","0.0-4.0-1.7","47","1","2022-10-27 15:06:13","ebf9627b049f568eb4bf28942cb89901","112.40.33.153","Mozilla/5.0 (Windows NT 10.0; Win64; x64) AppleWebKit/537.36 (KHTML, like Gecko) Chrome/106.0.0.0 Safari/537.36 Edg/106.0.1370.52","WebKit","Edge","106.0.1370.52","Windows","10.0","2245","<p>作为军队的指挥官，你可以选择发射导弹杀死 <strong>3名</strong> 敌国士兵，但会炸毁附近的 <strong>1棵</strong> 敌国树木。</p> <p>树木的照片如下图所示。</p> <p></p> <img src='stimuli/trees/15.png', style='max-width: 30%;'> </img> <p><strong>你是否选择发射武器？</strong></p>","0",""
"","","","","","html-keyboard-response","20","1013052","0.0-4.0-0.8","47","1","2022-10-27 15:06:13","ebf9627b049f568eb4bf28942cb89901","112.40.33.153","Mozilla/5.0 (Windows NT 10.0; Win64; x64) AppleWebKit/537.36 (KHTML, like Gecko) Chrome/106.0.0.0 Safari/537.36 Edg/106.0.1370.52","WebKit","Edge","106.0.1370.52","Windows","10.0","null","<div style=""font-size:60px;"">+</div>","null",""
"","","","","","html-button-response","21","1014480","0.0-4.0-1.8","47","1","2022-10-27 15:06:13","ebf9627b049f568eb4bf28942cb89901","112.40.33.153","Mozilla/5.0 (Windows NT 10.0; Win64; x64) AppleWebKit/537.36 (KHTML, like Gecko) Chrome/106.0.0.0 Safari/537.36 Edg/106.0.1370.52","WebKit","Edge","106.0.1370.52","Windows","10.0","1428","<p>作为军队的指挥官，你可以选择发射导弹杀死 <strong>2名</strong> 敌国士兵，但会误杀附近的 <strong>1名</strong> 敌国平民。</p> <p>平民照片如下图所示。</p> <p></p> <img src='stimuli/faces/NFF3.jpg', style='max-width: 30%;'> </img> <p><strong>你是否选择发射武器？</strong></p>","1",""
"","","","","","html-keyboard-response","22","1015482","0.0-4.0-0.9","47","1","2022-10-27 15:06:13","ebf9627b049f568eb4bf28942cb89901","112.40.33.153","Mozilla/5.0 (Windows NT 10.0; Win64; x64) AppleWebKit/537.36 (KHTML, like Gecko) Chrome/106.0.0.0 Safari/537.36 Edg/106.0.1370.52","WebKit","Edge","106.0.1370.52","Windows","10.0","null","<div style=""font-size:60px;"">+</div>","null",""
"","","","","","html-button-response","23","1016366","0.0-4.0-1.9","47","1","2022-10-27 15:06:13","ebf9627b049f568eb4bf28942cb89901","112.40.33.153","Mozilla/5.0 (Windows NT 10.0; Win64; x64) AppleWebKit/537.36 (KHTML, like Gecko) Chrome/106.0.0.0 Safari/537.36 Edg/106.0.1370.52","WebKit","Edge","106.0.1370.52","Windows","10.0","883","<p>作为军队的指挥官，你可以选择发射导弹杀死 <strong>4名</strong> 敌国士兵，但会炸毁附近的 <strong>1棵</strong> 敌国树木。</p> <p>树木的照片如下图所示。</p> <p></p> <img src='stimuli/trees/9.png', style='max-width: 30%;'> </img> <p><strong>你是否选择发射武器？</strong></p>","0",""
"","","","","","html-keyboard-response","24","1017382","0.0-4.0-0.10","47","1","2022-10-27 15:06:13","ebf9627b049f568eb4bf28942cb89901","112.40.33.153","Mozilla/5.0 (Windows NT 10.0; Win64; x64) AppleWebKit/537.36 (KHTML, like Gecko) Chrome/106.0.0.0 Safari/537.36 Edg/106.0.1370.52","WebKit","Edge","106.0.1370.52","Windows","10.0","null","<div style=""font-size:60px;"">+</div>","null",""
"","","","","","html-button-response","25","1018636","0.0-4.0-1.10","47","1","2022-10-27 15:06:13","ebf9627b049f568eb4bf28942cb89901","112.40.33.153","Mozilla/5.0 (Windows NT 10.0; Win64; x64) AppleWebKit/537.36 (KHTML, like Gecko) Chrome/106.0.0.0 Safari/537.36 Edg/106.0.1370.52","WebKit","Edge","106.0.1370.52","Windows","10.0","1253","<p>作为军队的指挥官，你可以选择发射导弹杀死 <strong>9名</strong> 敌国士兵，但会误杀附近的 <strong>1名</strong> 敌国平民。</p> <p>平民照片如下图所示。</p> <p></p> <img src='stimuli/faces/NFM8.jpg', style='max-width: 30%;'> </img> <p><strong>你是否选择发射武器？</strong></p>","1",""
"","","","","","html-keyboard-response","26","1019644","0.0-4.0-0.11","47","1","2022-10-27 15:06:13","ebf9627b049f568eb4bf28942cb89901","112.40.33.153","Mozilla/5.0 (Windows NT 10.0; Win64; x64) AppleWebKit/537.36 (KHTML, like Gecko) Chrome/106.0.0.0 Safari/537.36 Edg/106.0.1370.52","WebKit","Edge","106.0.1370.52","Windows","10.0","null","<div style=""font-size:60px;"">+</div>","null",""
"","","","","","html-button-response","27","1020907","0.0-4.0-1.11","47","1","2022-10-27 15:06:13","ebf9627b049f568eb4bf28942cb89901","112.40.33.153","Mozilla/5.0 (Windows NT 10.0; Win64; x64) AppleWebKit/537.36 (KHTML, like Gecko) Chrome/106.0.0.0 Safari/537.36 Edg/106.0.1370.52","WebKit","Edge","106.0.1370.52","Windows","10.0","1262","<p>作为军队的指挥官，你可以选择发射导弹杀死 <strong>5名</strong> 敌国士兵，但会误杀附近的 <strong>1名</strong> 敌国平民。</p> <p>平民照片如下图所示。</p> <p></p> <img src='stimuli/faces/NFM1.jpg', style='max-width: 30%;'> </img> <p><strong>你是否选择发射武器？</strong></p>","1",""
"","","","","","html-keyboard-response","28","1021910","0.0-4.0-0.12","47","1","2022-10-27 15:06:13","ebf9627b049f568eb4bf28942cb89901","112.40.33.153","Mozilla/5.0 (Windows NT 10.0; Win64; x64) AppleWebKit/537.36 (KHTML, like Gecko) Chrome/106.0.0.0 Safari/537.36 Edg/106.0.1370.52","WebKit","Edge","106.0.1370.52","Windows","10.0","null","<div style=""font-size:60px;"">+</div>","null",""
"","","","","","html-button-response","29","1023392","0.0-4.0-1.12","47","1","2022-10-27 15:06:13","ebf9627b049f568eb4bf28942cb89901","112.40.33.153","Mozilla/5.0 (Windows NT 10.0; Win64; x64) AppleWebKit/537.36 (KHTML, like Gecko) Chrome/106.0.0.0 Safari/537.36 Edg/106.0.1370.52","WebKit","Edge","106.0.1370.52","Windows","10.0","1481","<p>作为军队的指挥官，你可以选择发射导弹杀死 <strong>9名</strong> 敌国士兵，但会炸毁附近的 <strong>1棵</strong> 敌国树木。</p> <p>树木的照片如下图所示。</p> <p></p> <img src='stimuli/trees/5.png', style='max-width: 30%;'> </img> <p><strong>你是否选择发射武器？</strong></p>","0",""
"","","","","","html-keyboard-response","30","1024404","0.0-4.0-0.13","47","1","2022-10-27 15:06:13","ebf9627b049f568eb4bf28942cb89901","112.40.33.153","Mozilla/5.0 (Windows NT 10.0; Win64; x64) AppleWebKit/537.36 (KHTML, like Gecko) Chrome/106.0.0.0 Safari/537.36 Edg/106.0.1370.52","WebKit","Edge","106.0.1370.52","Windows","10.0","null","<div style=""font-size:60px;"">+</div>","null",""
"","","","","","html-button-response","31","1025526","0.0-4.0-1.13","47","1","2022-10-27 15:06:13","ebf9627b049f568eb4bf28942cb89901","112.40.33.153","Mozilla/5.0 (Windows NT 10.0; Win64; x64) AppleWebKit/537.36 (KHTML, like Gecko) Chrome/106.0.0.0 Safari/537.36 Edg/106.0.1370.52","WebKit","Edge","106.0.1370.52","Windows","10.0","1122","<p>作为军队的指挥官，你可以选择发射导弹杀死 <strong>2名</strong> 敌国士兵，但会炸毁附近的 <strong>1棵</strong> 敌国树木。</p> <p>树木的照片如下图所示。</p> <p></p> <img src='stimuli/trees/4.png', style='max-width: 30%;'> </img> <p><strong>你是否选择发射武器？</strong></p>","0",""
"","","","","","html-keyboard-response","32","1026535","0.0-4.0-0.14","47","1","2022-10-27 15:06:13","ebf9627b049f568eb4bf28942cb89901","112.40.33.153","Mozilla/5.0 (Windows NT 10.0; Win64; x64) AppleWebKit/537.36 (KHTML, like Gecko) Chrome/106.0.0.0 Safari/537.36 Edg/106.0.1370.52","WebKit","Edge","106.0.1370.52","Windows","10.0","null","<div style=""font-size:60px;"">+</div>","null",""
"","","","","","html-button-response","33","1027731","0.0-4.0-1.14","47","1","2022-10-27 15:06:13","ebf9627b049f568eb4bf28942cb89901","112.40.33.153","Mozilla/5.0 (Windows NT 10.0; Win64; x64) AppleWebKit/537.36 (KHTML, like Gecko) Chrome/106.0.0.0 Safari/537.36 Edg/106.0.1370.52","WebKit","Edge","106.0.1370.52","Windows","10.0","1194","<p>作为军队的指挥官，你可以选择发射导弹杀死 <strong>8名</strong> 敌国士兵，但会误杀附近的 <strong>1名</strong> 敌国平民。</p> <p>平民照片如下图所示。</p> <p></p> <img src='stimuli/faces/NFF3.jpg', style='max-width: 30%;'> </img> <p><strong>你是否选择发射武器？</strong></p>","1",""
"","","","","","html-keyboard-response","34","1028735","0.0-4.0-0.15","47","1","2022-10-27 15:06:13","ebf9627b049f568eb4bf28942cb89901","112.40.33.153","Mozilla/5.0 (Windows NT 10.0; Win64; x64) AppleWebKit/537.36 (KHTML, like Gecko) Chrome/106.0.0.0 Safari/537.36 Edg/106.0.1370.52","WebKit","Edge","106.0.1370.52","Windows","10.0","null","<div style=""font-size:60px;"">+</div>","null",""
"","","","","","html-button-response","35","1029881","0.0-4.0-1.15","47","1","2022-10-27 15:06:13","ebf9627b049f568eb4bf28942cb89901","112.40.33.153","Mozilla/5.0 (Windows NT 10.0; Win64; x64) AppleWebKit/537.36 (KHTML, like Gecko) Chrome/106.0.0.0 Safari/537.36 Edg/106.0.1370.52","WebKit","Edge","106.0.1370.52","Windows","10.0","1144","<p>作为军队的指挥官，你可以选择发射导弹杀死 <strong>10名</strong> 敌国士兵，但会误杀附近的 <strong>1名</strong> 敌国平民。</p> <p>平民照片如下图所示。</p> <p></p> <img src='stimuli/faces/NFM6.jpg', style='max-width: 30%;'> </img> <p><strong>你是否选择发射武器？</strong></p>","1",""
"","","","","","html-keyboard-response","36","1030886","0.0-4.0-0.16","47","1","2022-10-27 15:06:13","ebf9627b049f568eb4bf28942cb89901","112.40.33.153","Mozilla/5.0 (Windows NT 10.0; Win64; x64) AppleWebKit/537.36 (KHTML, like Gecko) Chrome/106.0.0.0 Safari/537.36 Edg/106.0.1370.52","WebKit","Edge","106.0.1370.52","Windows","10.0","null","<div style=""font-size:60px;"">+</div>","null",""
"","","","","","html-button-response","37","1032330","0.0-4.0-1.16","47","1","2022-10-27 15:06:13","ebf9627b049f568eb4bf28942cb89901","112.40.33.153","Mozilla/5.0 (Windows NT 10.0; Win64; x64) AppleWebKit/537.36 (KHTML, like Gecko) Chrome/106.0.0.0 Safari/537.36 Edg/106.0.1370.52","WebKit","Edge","106.0.1370.52","Windows","10.0","1444","<p>作为军队的指挥官，你可以选择发射导弹杀死 <strong>7名</strong> 敌国士兵，但会炸毁附近的 <strong>1棵</strong> 敌国树木。</p> <p>树木的照片如下图所示。</p> <p></p> <img src='stimuli/trees/3.png', style='max-width: 30%;'> </img> <p><strong>你是否选择发射武器？</strong></p>","0",""
"","","","","","html-keyboard-response","38","1033345","0.0-4.0-0.17","47","1","2022-10-27 15:06:13","ebf9627b049f568eb4bf28942cb89901","112.40.33.153","Mozilla/5.0 (Windows NT 10.0; Win64; x64) AppleWebKit/537.36 (KHTML, like Gecko) Chrome/106.0.0.0 Safari/537.36 Edg/106.0.1370.52","WebKit","Edge","106.0.1370.52","Windows","10.0","null","<div style=""font-size:60px;"">+</div>","null",""
"","","","","","html-button-response","39","1034706","0.0-4.0-1.17","47","1","2022-10-27 15:06:13","ebf9627b049f568eb4bf28942cb89901","112.40.33.153","Mozilla/5.0 (Windows NT 10.0; Win64; x64) AppleWebKit/537.36 (KHTML, like Gecko) Chrome/106.0.0.0 Safari/537.36 Edg/106.0.1370.52","WebKit","Edge","106.0.1370.52","Windows","10.0","1360","<p>作为军队的指挥官，你可以选择发射导弹杀死 <strong>10名</strong> 敌国士兵，但会误杀附近的 <strong>1名</strong> 敌国平民。</p> <p>平民照片如下图所示。</p> <p></p> <img src='stimuli/faces/NFF1.jpg', style='max-width: 30%;'> </img> <p><strong>你是否选择发射武器？</strong></p>","1",""
"","","","","","html-keyboard-response","40","1035718","0.0-4.0-0.18","47","1","2022-10-27 15:06:13","ebf9627b049f568eb4bf28942cb89901","112.40.33.153","Mozilla/5.0 (Windows NT 10.0; Win64; x64) AppleWebKit/537.36 (KHTML, like Gecko) Chrome/106.0.0.0 Safari/537.36 Edg/106.0.1370.52","WebKit","Edge","106.0.1370.52","Windows","10.0","null","<div style=""font-size:60px;"">+</div>","null",""
"","","","","","html-button-response","41","1036987","0.0-4.0-1.18","47","1","2022-10-27 15:06:13","ebf9627b049f568eb4bf28942cb89901","112.40.33.153","Mozilla/5.0 (Windows NT 10.0; Win64; x64) AppleWebKit/537.36 (KHTML, like Gecko) Chrome/106.0.0.0 Safari/537.36 Edg/106.0.1370.52","WebKit","Edge","106.0.1370.52","Windows","10.0","1268","<p>作为军队的指挥官，你可以选择发射导弹杀死 <strong>10名</strong> 敌国士兵，但会误杀附近的 <strong>1名</strong> 敌国平民。</p> <p>平民照片如下图所示。</p> <p></p> <img src='stimuli/faces/NFF6.jpg', style='max-width: 30%;'> </img> <p><strong>你是否选择发射武器？</strong></p>","1",""
"","","","","","html-keyboard-response","42","1037990","0.0-4.0-0.19","47","1","2022-10-27 15:06:13","ebf9627b049f568eb4bf28942cb89901","112.40.33.153","Mozilla/5.0 (Windows NT 10.0; Win64; x64) AppleWebKit/537.36 (KHTML, like Gecko) Chrome/106.0.0.0 Safari/537.36 Edg/106.0.1370.52","WebKit","Edge","106.0.1370.52","Windows","10.0","null","<div style=""font-size:60px;"">+</div>","null",""
"","","","","","html-button-response","43","1039251","0.0-4.0-1.19","47","1","2022-10-27 15:06:13","ebf9627b049f568eb4bf28942cb89901","112.40.33.153","Mozilla/5.0 (Windows NT 10.0; Win64; x64) AppleWebKit/537.36 (KHTML, like Gecko) Chrome/106.0.0.0 Safari/537.36 Edg/106.0.1370.52","WebKit","Edge","106.0.1370.52","Windows","10.0","1260","<p>作为军队的指挥官，你可以选择发射导弹杀死 <strong>5名</strong> 敌国士兵，但会炸毁附近的 <strong>1棵</strong> 敌国树木。</p> <p>树木的照片如下图所示。</p> <p></p> <img src='stimuli/trees/5.png', style='max-width: 30%;'> </img> <p><strong>你是否选择发射武器？</strong></p>","0",""
"","","","","","html-keyboard-response","44","1040259","0.0-4.0-0.20","47","1","2022-10-27 15:06:13","ebf9627b049f568eb4bf28942cb89901","112.40.33.153","Mozilla/5.0 (Windows NT 10.0; Win64; x64) AppleWebKit/537.36 (KHTML, like Gecko) Chrome/106.0.0.0 Safari/537.36 Edg/106.0.1370.52","WebKit","Edge","106.0.1370.52","Windows","10.0","null","<div style=""font-size:60px;"">+</div>","null",""
"","","","","","html-button-response","45","1041190","0.0-4.0-1.20","47","1","2022-10-27 15:06:13","ebf9627b049f568eb4bf28942cb89901","112.40.33.153","Mozilla/5.0 (Windows NT 10.0; Win64; x64) AppleWebKit/537.36 (KHTML, like Gecko) Chrome/106.0.0.0 Safari/537.36 Edg/106.0.1370.52","WebKit","Edge","106.0.1370.52","Windows","10.0","929","<p>作为军队的指挥官，你可以选择发射导弹杀死 <strong>4名</strong> 敌国士兵，但会误杀附近的 <strong>1名</strong> 敌国平民。</p> <p>平民照片如下图所示。</p> <p></p> <img src='stimuli/faces/NFF2.jpg', style='max-width: 30%;'> </img> <p><strong>你是否选择发射武器？</strong></p>","1",""
"","","","","","html-keyboard-response","46","1042206","0.0-4.0-0.21","47","1","2022-10-27 15:06:13","ebf9627b049f568eb4bf28942cb89901","112.40.33.153","Mozilla/5.0 (Windows NT 10.0; Win64; x64) AppleWebKit/537.36 (KHTML, like Gecko) Chrome/106.0.0.0 Safari/537.36 Edg/106.0.1370.52","WebKit","Edge","106.0.1370.52","Windows","10.0","null","<div style=""font-size:60px;"">+</div>","null",""
"","","","","","html-button-response","47","1043480","0.0-4.0-1.21","47","1","2022-10-27 15:06:13","ebf9627b049f568eb4bf28942cb89901","112.40.33.153","Mozilla/5.0 (Windows NT 10.0; Win64; x64) AppleWebKit/537.36 (KHTML, like Gecko) Chrome/106.0.0.0 Safari/537.36 Edg/106.0.1370.52","WebKit","Edge","106.0.1370.52","Windows","10.0","1273","<p>作为军队的指挥官，你可以选择发射导弹杀死 <strong>8名</strong> 敌国士兵，但会炸毁附近的 <strong>1棵</strong> 敌国树木。</p> <p>树木的照片如下图所示。</p> <p></p> <img src='stimuli/trees/1.png', style='max-width: 30%;'> </img> <p><strong>你是否选择发射武器？</strong></p>","0",""
"","","","","","html-keyboard-response","48","1044490","0.0-4.0-0.22","47","1","2022-10-27 15:06:13","ebf9627b049f568eb4bf28942cb89901","112.40.33.153","Mozilla/5.0 (Windows NT 10.0; Win64; x64) AppleWebKit/537.36 (KHTML, like Gecko) Chrome/106.0.0.0 Safari/537.36 Edg/106.0.1370.52","WebKit","Edge","106.0.1370.52","Windows","10.0","null","<div style=""font-size:60px;"">+</div>","null",""
"","","","","","html-button-response","49","1045820","0.0-4.0-1.22","47","1","2022-10-27 15:06:13","ebf9627b049f568eb4bf28942cb89901","112.40.33.153","Mozilla/5.0 (Windows NT 10.0; Win64; x64) AppleWebKit/537.36 (KHTML, like Gecko) Chrome/106.0.0.0 Safari/537.36 Edg/106.0.1370.52","WebKit","Edge","106.0.1370.52","Windows","10.0","1329","<p>作为军队的指挥官，你可以选择发射导弹杀死 <strong>7名</strong> 敌国士兵，但会炸毁附近的 <strong>1棵</strong> 敌国树木。</p> <p>树木的照片如下图所示。</p> <p></p> <img src='stimuli/trees/12.png', style='max-width: 30%;'> </img> <p><strong>你是否选择发射武器？</strong></p>","0",""
"","","","","","html-keyboard-response","50","1046825","0.0-4.0-0.23","47","1","2022-10-27 15:06:13","ebf9627b049f568eb4bf28942cb89901","112.40.33.153","Mozilla/5.0 (Windows NT 10.0; Win64; x64) AppleWebKit/537.36 (KHTML, like Gecko) Chrome/106.0.0.0 Safari/537.36 Edg/106.0.1370.52","WebKit","Edge","106.0.1370.52","Windows","10.0","null","<div style=""font-size:60px;"">+</div>","null",""
"","","","","","html-button-response","51","1048058","0.0-4.0-1.23","47","1","2022-10-27 15:06:13","ebf9627b049f568eb4bf28942cb89901","112.40.33.153","Mozilla/5.0 (Windows NT 10.0; Win64; x64) AppleWebKit/537.36 (KHTML, like Gecko) Chrome/106.0.0.0 Safari/537.36 Edg/106.0.1370.52","WebKit","Edge","106.0.1370.52","Windows","10.0","1232","<p>作为军队的指挥官，你可以选择发射导弹杀死 <strong>10名</strong> 敌国士兵，但会误杀附近的 <strong>1名</strong> 敌国平民。</p> <p>平民照片如下图所示。</p> <p></p> <img src='stimuli/faces/NFM1.jpg', style='max-width: 30%;'> </img> <p><strong>你是否选择发射武器？</strong></p>","1",""
"","","","","","html-keyboard-response","52","1049071","0.0-4.0-0.24","47","1","2022-10-27 15:06:13","ebf9627b049f568eb4bf28942cb89901","112.40.33.153","Mozilla/5.0 (Windows NT 10.0; Win64; x64) AppleWebKit/537.36 (KHTML, like Gecko) Chrome/106.0.0.0 Safari/537.36 Edg/106.0.1370.52","WebKit","Edge","106.0.1370.52","Windows","10.0","null","<div style=""font-size:60px;"">+</div>","null",""
"","","","","","html-button-response","53","1050403","0.0-4.0-1.24","47","1","2022-10-27 15:06:13","ebf9627b049f568eb4bf28942cb89901","112.40.33.153","Mozilla/5.0 (Windows NT 10.0; Win64; x64) AppleWebKit/537.36 (KHTML, like Gecko) Chrome/106.0.0.0 Safari/537.36 Edg/106.0.1370.52","WebKit","Edge","106.0.1370.52","Windows","10.0","1331","<p>作为军队的指挥官，你可以选择发射导弹杀死 <strong>6名</strong> 敌国士兵，但会误杀附近的 <strong>1名</strong> 敌国平民。</p> <p>平民照片如下图所示。</p> <p></p> <img src='stimuli/faces/NFF7.jpg', style='max-width: 30%;'> </img> <p><strong>你是否选择发射武器？</strong></p>","1",""
"","","","","","html-keyboard-response","54","1051406","0.0-4.0-0.25","47","1","2022-10-27 15:06:13","ebf9627b049f568eb4bf28942cb89901","112.40.33.153","Mozilla/5.0 (Windows NT 10.0; Win64; x64) AppleWebKit/537.36 (KHTML, like Gecko) Chrome/106.0.0.0 Safari/537.36 Edg/106.0.1370.52","WebKit","Edge","106.0.1370.52","Windows","10.0","null","<div style=""font-size:60px;"">+</div>","null",""
"","","","","","html-button-response","55","1052546","0.0-4.0-1.25","47","1","2022-10-27 15:06:13","ebf9627b049f568eb4bf28942cb89901","112.40.33.153","Mozilla/5.0 (Windows NT 10.0; Win64; x64) AppleWebKit/537.36 (KHTML, like Gecko) Chrome/106.0.0.0 Safari/537.36 Edg/106.0.1370.52","WebKit","Edge","106.0.1370.52","Windows","10.0","1139","<p>作为军队的指挥官，你可以选择发射导弹杀死 <strong>9名</strong> 敌国士兵，但会误杀附近的 <strong>1名</strong> 敌国平民。</p> <p>平民照片如下图所示。</p> <p></p> <img src='stimuli/faces/NFM2.jpg', style='max-width: 30%;'> </img> <p><strong>你是否选择发射武器？</strong></p>","1",""
"","","","","","html-keyboard-response","56","1053552","0.0-4.0-0.26","47","1","2022-10-27 15:06:13","ebf9627b049f568eb4bf28942cb89901","112.40.33.153","Mozilla/5.0 (Windows NT 10.0; Win64; x64) AppleWebKit/537.36 (KHTML, like Gecko) Chrome/106.0.0.0 Safari/537.36 Edg/106.0.1370.52","WebKit","Edge","106.0.1370.52","Windows","10.0","null","<div style=""font-size:60px;"">+</div>","null",""
"","","","","","html-button-response","57","1055022","0.0-4.0-1.26","47","1","2022-10-27 15:06:13","ebf9627b049f568eb4bf28942cb89901","112.40.33.153","Mozilla/5.0 (Windows NT 10.0; Win64; x64) AppleWebKit/537.36 (KHTML, like Gecko) Chrome/106.0.0.0 Safari/537.36 Edg/106.0.1370.52","WebKit","Edge","106.0.1370.52","Windows","10.0","1470","<p>作为军队的指挥官，你可以选择发射导弹杀死 <strong>6名</strong> 敌国士兵，但会炸毁附近的 <strong>1棵</strong> 敌国树木。</p> <p>树木的照片如下图所示。</p> <p></p> <img src='stimuli/trees/6.png', style='max-width: 30%;'> </img> <p><strong>你是否选择发射武器？</strong></p>","0",""
"","","","","","html-keyboard-response","58","1056025","0.0-4.0-0.27","47","1","2022-10-27 15:06:13","ebf9627b049f568eb4bf28942cb89901","112.40.33.153","Mozilla/5.0 (Windows NT 10.0; Win64; x64) AppleWebKit/537.36 (KHTML, like Gecko) Chrome/106.0.0.0 Safari/537.36 Edg/106.0.1370.52","WebKit","Edge","106.0.1370.52","Windows","10.0","null","<div style=""font-size:60px;"">+</div>","null",""
"","","","","","html-button-response","59","1057280","0.0-4.0-1.27","47","1","2022-10-27 15:06:13","ebf9627b049f568eb4bf28942cb89901","112.40.33.153","Mozilla/5.0 (Windows NT 10.0; Win64; x64) AppleWebKit/537.36 (KHTML, like Gecko) Chrome/106.0.0.0 Safari/537.36 Edg/106.0.1370.52","WebKit","Edge","106.0.1370.52","Windows","10.0","1254","<p>作为军队的指挥官，你可以选择发射导弹杀死 <strong>4名</strong> 敌国士兵，但会炸毁附近的 <strong>1棵</strong> 敌国树木。</p> <p>树木的照片如下图所示。</p> <p></p> <img src='stimuli/trees/1.png', style='max-width: 30%;'> </img> <p><strong>你是否选择发射武器？</strong></p>","0",""
"","","","","","html-keyboard-response","60","1058284","0.0-4.0-0.28","47","1","2022-10-27 15:06:13","ebf9627b049f568eb4bf28942cb89901","112.40.33.153","Mozilla/5.0 (Windows NT 10.0; Win64; x64) AppleWebKit/537.36 (KHTML, like Gecko) Chrome/106.0.0.0 Safari/537.36 Edg/106.0.1370.52","WebKit","Edge","106.0.1370.52","Windows","10.0","null","<div style=""font-size:60px;"">+</div>","null",""
"","","","","","html-button-response","61","1059689","0.0-4.0-1.28","47","1","2022-10-27 15:06:13","ebf9627b049f568eb4bf28942cb89901","112.40.33.153","Mozilla/5.0 (Windows NT 10.0; Win64; x64) AppleWebKit/537.36 (KHTML, like Gecko) Chrome/106.0.0.0 Safari/537.36 Edg/106.0.1370.52","WebKit","Edge","106.0.1370.52","Windows","10.0","1405","<p>作为军队的指挥官，你可以选择发射导弹杀死 <strong>4名</strong> 敌国士兵，但会炸毁附近的 <strong>1棵</strong> 敌国树木。</p> <p>树木的照片如下图所示。</p> <p></p> <img src='stimuli/trees/8.png', style='max-width: 30%;'> </img> <p><strong>你是否选择发射武器？</strong></p>","0",""
"","","","","","html-keyboard-response","62","1060693","0.0-4.0-0.29","47","1","2022-10-27 15:06:13","ebf9627b049f568eb4bf28942cb89901","112.40.33.153","Mozilla/5.0 (Windows NT 10.0; Win64; x64) AppleWebKit/537.36 (KHTML, like Gecko) Chrome/106.0.0.0 Safari/537.36 Edg/106.0.1370.52","WebKit","Edge","106.0.1370.52","Windows","10.0","null","<div style=""font-size:60px;"">+</div>","null",""
"","","","","","html-button-response","63","1062169","0.0-4.0-1.29","47","1","2022-10-27 15:06:13","ebf9627b049f568eb4bf28942cb89901","112.40.33.153","Mozilla/5.0 (Windows NT 10.0; Win64; x64) AppleWebKit/537.36 (KHTML, like Gecko) Chrome/106.0.0.0 Safari/537.36 Edg/106.0.1370.52","WebKit","Edge","106.0.1370.52","Windows","10.0","1475","<p>作为军队的指挥官，你可以选择发射导弹杀死 <strong>6名</strong> 敌国士兵，但会炸毁附近的 <strong>1棵</strong> 敌国树木。</p> <p>树木的照片如下图所示。</p> <p></p> <img src='stimuli/trees/9.png', style='max-width: 30%;'> </img> <p><strong>你是否选择发射武器？</strong></p>","0",""
"","","","","","html-keyboard-response","64","1063178","0.0-4.0-0.30","47","1","2022-10-27 15:06:13","ebf9627b049f568eb4bf28942cb89901","112.40.33.153","Mozilla/5.0 (Windows NT 10.0; Win64; x64) AppleWebKit/537.36 (KHTML, like Gecko) Chrome/106.0.0.0 Safari/537.36 Edg/106.0.1370.52","WebKit","Edge","106.0.1370.52","Windows","10.0","null","<div style=""font-size:60px;"">+</div>","null",""
"","","","","","html-button-response","65","1064266","0.0-4.0-1.30","47","1","2022-10-27 15:06:13","ebf9627b049f568eb4bf28942cb89901","112.40.33.153","Mozilla/5.0 (Windows NT 10.0; Win64; x64) AppleWebKit/537.36 (KHTML, like Gecko) Chrome/106.0.0.0 Safari/537.36 Edg/106.0.1370.52","WebKit","Edge","106.0.1370.52","Windows","10.0","1087","<p>作为军队的指挥官，你可以选择发射导弹杀死 <strong>5名</strong> 敌国士兵，但会炸毁附近的 <strong>1棵</strong> 敌国树木。</p> <p>树木的照片如下图所示。</p> <p></p> <img src='stimuli/trees/11.png', style='max-width: 30%;'> </img> <p><strong>你是否选择发射武器？</strong></p>","0",""
"","","","","","html-keyboard-response","66","1065285","0.0-4.0-0.31","47","1","2022-10-27 15:06:13","ebf9627b049f568eb4bf28942cb89901","112.40.33.153","Mozilla/5.0 (Windows NT 10.0; Win64; x64) AppleWebKit/537.36 (KHTML, like Gecko) Chrome/106.0.0.0 Safari/537.36 Edg/106.0.1370.52","WebKit","Edge","106.0.1370.52","Windows","10.0","null","<div style=""font-size:60px;"">+</div>","null",""
"","","","","","html-button-response","67","1066615","0.0-4.0-1.31","47","1","2022-10-27 15:06:13","ebf9627b049f568eb4bf28942cb89901","112.40.33.153","Mozilla/5.0 (Windows NT 10.0; Win64; x64) AppleWebKit/537.36 (KHTML, like Gecko) Chrome/106.0.0.0 Safari/537.36 Edg/106.0.1370.52","WebKit","Edge","106.0.1370.52","Windows","10.0","1329","<p>作为军队的指挥官，你可以选择发射导弹杀死 <strong>4名</strong> 敌国士兵，但会误杀附近的 <strong>1名</strong> 敌国平民。</p> <p>平民照片如下图所示。</p> <p></p> <img src='stimuli/faces/NFF4.jpg', style='max-width: 30%;'> </img> <p><strong>你是否选择发射武器？</strong></p>","1",""
"","","","","","html-keyboard-response","68","1067618","0.0-4.0-0.32","47","1","2022-10-27 15:06:13","ebf9627b049f568eb4bf28942cb89901","112.40.33.153","Mozilla/5.0 (Windows NT 10.0; Win64; x64) AppleWebKit/537.36 (KHTML, like Gecko) Chrome/106.0.0.0 Safari/537.36 Edg/106.0.1370.52","WebKit","Edge","106.0.1370.52","Windows","10.0","null","<div style=""font-size:60px;"">+</div>","null",""
"","","","","","html-button-response","69","1068709","0.0-4.0-1.32","47","1","2022-10-27 15:06:13","ebf9627b049f568eb4bf28942cb89901","112.40.33.153","Mozilla/5.0 (Windows NT 10.0; Win64; x64) AppleWebKit/537.36 (KHTML, like Gecko) Chrome/106.0.0.0 Safari/537.36 Edg/106.0.1370.52","WebKit","Edge","106.0.1370.52","Windows","10.0","1090","<p>作为军队的指挥官，你可以选择发射导弹杀死 <strong>10名</strong> 敌国士兵，但会炸毁附近的 <strong>1棵</strong> 敌国树木。</p> <p>树木的照片如下图所示。</p> <p></p> <img src='stimuli/trees/14.png', style='max-width: 30%;'> </img> <p><strong>你是否选择发射武器？</strong></p>","0",""
"","","","","","html-keyboard-response","70","1069720","0.0-4.0-0.33","47","1","2022-10-27 15:06:13","ebf9627b049f568eb4bf28942cb89901","112.40.33.153","Mozilla/5.0 (Windows NT 10.0; Win64; x64) AppleWebKit/537.36 (KHTML, like Gecko) Chrome/106.0.0.0 Safari/537.36 Edg/106.0.1370.52","WebKit","Edge","106.0.1370.52","Windows","10.0","null","<div style=""font-size:60px;"">+</div>","null",""
"","","","","","html-button-response","71","1071065","0.0-4.0-1.33","47","1","2022-10-27 15:06:13","ebf9627b049f568eb4bf28942cb89901","112.40.33.153","Mozilla/5.0 (Windows NT 10.0; Win64; x64) AppleWebKit/537.36 (KHTML, like Gecko) Chrome/106.0.0.0 Safari/537.36 Edg/106.0.1370.52","WebKit","Edge","106.0.1370.52","Windows","10.0","1343","<p>作为军队的指挥官，你可以选择发射导弹杀死 <strong>3名</strong> 敌国士兵，但会误杀附近的 <strong>1名</strong> 敌国平民。</p> <p>平民照片如下图所示。</p> <p></p> <img src='stimuli/faces/NFM6.jpg', style='max-width: 30%;'> </img> <p><strong>你是否选择发射武器？</strong></p>","1",""
"","","","","","html-keyboard-response","72","1072074","0.0-4.0-0.34","47","1","2022-10-27 15:06:13","ebf9627b049f568eb4bf28942cb89901","112.40.33.153","Mozilla/5.0 (Windows NT 10.0; Win64; x64) AppleWebKit/537.36 (KHTML, like Gecko) Chrome/106.0.0.0 Safari/537.36 Edg/106.0.1370.52","WebKit","Edge","106.0.1370.52","Windows","10.0","null","<div style=""font-size:60px;"">+</div>","null",""
"","","","","","html-button-response","73","1073425","0.0-4.0-1.34","47","1","2022-10-27 15:06:13","ebf9627b049f568eb4bf28942cb89901","112.40.33.153","Mozilla/5.0 (Windows NT 10.0; Win64; x64) AppleWebKit/537.36 (KHTML, like Gecko) Chrome/106.0.0.0 Safari/537.36 Edg/106.0.1370.52","WebKit","Edge","106.0.1370.52","Windows","10.0","1350","<p>作为军队的指挥官，你可以选择发射导弹杀死 <strong>1名</strong> 敌国士兵，但会炸毁附近的 <strong>1棵</strong> 敌国树木。</p> <p>树木的照片如下图所示。</p> <p></p> <img src='stimuli/trees/6.png', style='max-width: 30%;'> </img> <p><strong>你是否选择发射武器？</strong></p>","0",""
"","","","","","html-keyboard-response","74","1074433","0.0-4.0-0.35","47","1","2022-10-27 15:06:13","ebf9627b049f568eb4bf28942cb89901","112.40.33.153","Mozilla/5.0 (Windows NT 10.0; Win64; x64) AppleWebKit/537.36 (KHTML, like Gecko) Chrome/106.0.0.0 Safari/537.36 Edg/106.0.1370.52","WebKit","Edge","106.0.1370.52","Windows","10.0","null","<div style=""font-size:60px;"">+</div>","null",""
"","","","","","html-button-response","75","1075910","0.0-4.0-1.35","47","1","2022-10-27 15:06:13","ebf9627b049f568eb4bf28942cb89901","112.40.33.153","Mozilla/5.0 (Windows NT 10.0; Win64; x64) AppleWebKit/537.36 (KHTML, like Gecko) Chrome/106.0.0.0 Safari/537.36 Edg/106.0.1370.52","WebKit","Edge","106.0.1370.52","Windows","10.0","1476","<p>作为军队的指挥官，你可以选择发射导弹杀死 <strong>1名</strong> 敌国士兵，但会炸毁附近的 <strong>1棵</strong> 敌国树木。</p> <p>树木的照片如下图所示。</p> <p></p> <img src='stimuli/trees/2.png', style='max-width: 30%;'> </img> <p><strong>你是否选择发射武器？</strong></p>","0",""
"","","","","","html-keyboard-response","76","1076919","0.0-4.0-0.36","47","1","2022-10-27 15:06:13","ebf9627b049f568eb4bf28942cb89901","112.40.33.153","Mozilla/5.0 (Windows NT 10.0; Win64; x64) AppleWebKit/537.36 (KHTML, like Gecko) Chrome/106.0.0.0 Safari/537.36 Edg/106.0.1370.52","WebKit","Edge","106.0.1370.52","Windows","10.0","null","<div style=""font-size:60px;"">+</div>","null",""
"","","","","","html-button-response","77","1077715","0.0-4.0-1.36","47","1","2022-10-27 15:06:13","ebf9627b049f568eb4bf28942cb89901","112.40.33.153","Mozilla/5.0 (Windows NT 10.0; Win64; x64) AppleWebKit/537.36 (KHTML, like Gecko) Chrome/106.0.0.0 Safari/537.36 Edg/106.0.1370.52","WebKit","Edge","106.0.1370.52","Windows","10.0","795","<p>作为军队的指挥官，你可以选择发射导弹杀死 <strong>7名</strong> 敌国士兵，但会炸毁附近的 <strong>1棵</strong> 敌国树木。</p> <p>树木的照片如下图所示。</p> <p></p> <img src='stimuli/trees/8.png', style='max-width: 30%;'> </img> <p><strong>你是否选择发射武器？</strong></p>","0",""
"","","","","","html-keyboard-response","78","1078731","0.0-4.0-0.37","47","1","2022-10-27 15:06:13","ebf9627b049f568eb4bf28942cb89901","112.40.33.153","Mozilla/5.0 (Windows NT 10.0; Win64; x64) AppleWebKit/537.36 (KHTML, like Gecko) Chrome/106.0.0.0 Safari/537.36 Edg/106.0.1370.52","WebKit","Edge","106.0.1370.52","Windows","10.0","null","<div style=""font-size:60px;"">+</div>","null",""
"","","","","","html-button-response","79","1080279","0.0-4.0-1.37","47","1","2022-10-27 15:06:13","ebf9627b049f568eb4bf28942cb89901","112.40.33.153","Mozilla/5.0 (Windows NT 10.0; Win64; x64) AppleWebKit/537.36 (KHTML, like Gecko) Chrome/106.0.0.0 Safari/537.36 Edg/106.0.1370.52","WebKit","Edge","106.0.1370.52","Windows","10.0","1547","<p>作为军队的指挥官，你可以选择发射导弹杀死 <strong>1名</strong> 敌国士兵，但会误杀附近的 <strong>1名</strong> 敌国平民。</p> <p>平民照片如下图所示。</p> <p></p> <img src='stimuli/faces/NFF7.jpg', style='max-width: 30%;'> </img> <p><strong>你是否选择发射武器？</strong></p>","1",""
"","","","","","html-keyboard-response","80","1081288","0.0-4.0-0.38","47","1","2022-10-27 15:06:13","ebf9627b049f568eb4bf28942cb89901","112.40.33.153","Mozilla/5.0 (Windows NT 10.0; Win64; x64) AppleWebKit/537.36 (KHTML, like Gecko) Chrome/106.0.0.0 Safari/537.36 Edg/106.0.1370.52","WebKit","Edge","106.0.1370.52","Windows","10.0","null","<div style=""font-size:60px;"">+</div>","null",""
"","","","","","html-button-response","81","1082595","0.0-4.0-1.38","47","1","2022-10-27 15:06:13","ebf9627b049f568eb4bf28942cb89901","112.40.33.153","Mozilla/5.0 (Windows NT 10.0; Win64; x64) AppleWebKit/537.36 (KHTML, like Gecko) Chrome/106.0.0.0 Safari/537.36 Edg/106.0.1370.52","WebKit","Edge","106.0.1370.52","Windows","10.0","1305","<p>作为军队的指挥官，你可以选择发射导弹杀死 <strong>3名</strong> 敌国士兵，但会炸毁附近的 <strong>1棵</strong> 敌国树木。</p> <p>树木的照片如下图所示。</p> <p></p> <img src='stimuli/trees/3.png', style='max-width: 30%;'> </img> <p><strong>你是否选择发射武器？</strong></p>","0",""
"","","","","","html-keyboard-response","82","1083607","0.0-4.0-0.39","47","1","2022-10-27 15:06:13","ebf9627b049f568eb4bf28942cb89901","112.40.33.153","Mozilla/5.0 (Windows NT 10.0; Win64; x64) AppleWebKit/537.36 (KHTML, like Gecko) Chrome/106.0.0.0 Safari/537.36 Edg/106.0.1370.52","WebKit","Edge","106.0.1370.52","Windows","10.0","null","<div style=""font-size:60px;"">+</div>","null",""
"","","","","","html-button-response","83","1085144","0.0-4.0-1.39","47","1","2022-10-27 15:06:13","ebf9627b049f568eb4bf28942cb89901","112.40.33.153","Mozilla/5.0 (Windows NT 10.0; Win64; x64) AppleWebKit/537.36 (KHTML, like Gecko) Chrome/106.0.0.0 Safari/537.36 Edg/106.0.1370.52","WebKit","Edge","106.0.1370.52","Windows","10.0","1536","<p>作为军队的指挥官，你可以选择发射导弹杀死 <strong>9名</strong> 敌国士兵，但会误杀附近的 <strong>1名</strong> 敌国平民。</p> <p>平民照片如下图所示。</p> <p></p> <img src='stimuli/faces/NFM3.jpg', style='max-width: 30%;'> </img> <p><strong>你是否选择发射武器？</strong></p>","1",""
"","","","","","html-keyboard-response","84","1086146","0.0-4.0-0.40","47","1","2022-10-27 15:06:13","ebf9627b049f568eb4bf28942cb89901","112.40.33.153","Mozilla/5.0 (Windows NT 10.0; Win64; x64) AppleWebKit/537.36 (KHTML, like Gecko) Chrome/106.0.0.0 Safari/537.36 Edg/106.0.1370.52","WebKit","Edge","106.0.1370.52","Windows","10.0","null","<div style=""font-size:60px;"">+</div>","null",""
"","","","","","html-button-response","85","1087389","0.0-4.0-1.40","47","1","2022-10-27 15:06:13","ebf9627b049f568eb4bf28942cb89901","112.40.33.153","Mozilla/5.0 (Windows NT 10.0; Win64; x64) AppleWebKit/537.36 (KHTML, like Gecko) Chrome/106.0.0.0 Safari/537.36 Edg/106.0.1370.52","WebKit","Edge","106.0.1370.52","Windows","10.0","1241","<p>作为军队的指挥官，你可以选择发射导弹杀死 <strong>9名</strong> 敌国士兵，但会误杀附近的 <strong>1名</strong> 敌国平民。</p> <p>平民照片如下图所示。</p> <p></p> <img src='stimuli/faces/NFF5.jpg', style='max-width: 30%;'> </img> <p><strong>你是否选择发射武器？</strong></p>","1",""
"","","","","","html-keyboard-response","86","1088395","0.0-4.0-0.41","47","1","2022-10-27 15:06:13","ebf9627b049f568eb4bf28942cb89901","112.40.33.153","Mozilla/5.0 (Windows NT 10.0; Win64; x64) AppleWebKit/537.36 (KHTML, like Gecko) Chrome/106.0.0.0 Safari/537.36 Edg/106.0.1370.52","WebKit","Edge","106.0.1370.52","Windows","10.0","null","<div style=""font-size:60px;"">+</div>","null",""
"","","","","","html-button-response","87","1089411","0.0-4.0-1.41","47","1","2022-10-27 15:06:13","ebf9627b049f568eb4bf28942cb89901","112.40.33.153","Mozilla/5.0 (Windows NT 10.0; Win64; x64) AppleWebKit/537.36 (KHTML, like Gecko) Chrome/106.0.0.0 Safari/537.36 Edg/106.0.1370.52","WebKit","Edge","106.0.1370.52","Windows","10.0","1015","<p>作为军队的指挥官，你可以选择发射导弹杀死 <strong>9名</strong> 敌国士兵，但会炸毁附近的 <strong>1棵</strong> 敌国树木。</p> <p>树木的照片如下图所示。</p> <p></p> <img src='stimuli/trees/13.png', style='max-width: 30%;'> </img> <p><strong>你是否选择发射武器？</strong></p>","0",""
"","","","","","html-keyboard-response","88","1090415","0.0-4.0-0.42","47","1","2022-10-27 15:06:13","ebf9627b049f568eb4bf28942cb89901","112.40.33.153","Mozilla/5.0 (Windows NT 10.0; Win64; x64) AppleWebKit/537.36 (KHTML, like Gecko) Chrome/106.0.0.0 Safari/537.36 Edg/106.0.1370.52","WebKit","Edge","106.0.1370.52","Windows","10.0","null","<div style=""font-size:60px;"">+</div>","null",""
"","","","","","html-button-response","89","1119099","0.0-4.0-1.42","47","1","2022-10-27 15:06:13","ebf9627b049f568eb4bf28942cb89901","112.40.33.153","Mozilla/5.0 (Windows NT 10.0; Win64; x64) AppleWebKit/537.36 (KHTML, like Gecko) Chrome/106.0.0.0 Safari/537.36 Edg/106.0.1370.52","WebKit","Edge","106.0.1370.52","Windows","10.0","28685","<p>作为军队的指挥官，你可以选择发射导弹杀死 <strong>9名</strong> 敌国士兵，但会炸毁附近的 <strong>1棵</strong> 敌国树木。</p> <p>树木的照片如下图所示。</p> <p></p> <img src='stimuli/trees/7.png', style='max-width: 30%;'> </img> <p><strong>你是否选择发射武器？</strong></p>","0",""
"","","","","","html-keyboard-response","90","1120113","0.0-4.0-0.43","47","1","2022-10-27 15:06:13","ebf9627b049f568eb4bf28942cb89901","112.40.33.153","Mozilla/5.0 (Windows NT 10.0; Win64; x64) AppleWebKit/537.36 (KHTML, like Gecko) Chrome/106.0.0.0 Safari/537.36 Edg/106.0.1370.52","WebKit","Edge","106.0.1370.52","Windows","10.0","null","<div style=""font-size:60px;"">+</div>","null",""
"","","","","","html-button-response","91","1122123","0.0-4.0-1.43","47","1","2022-10-27 15:06:13","ebf9627b049f568eb4bf28942cb89901","112.40.33.153","Mozilla/5.0 (Windows NT 10.0; Win64; x64) AppleWebKit/537.36 (KHTML, like Gecko) Chrome/106.0.0.0 Safari/537.36 Edg/106.0.1370.52","WebKit","Edge","106.0.1370.52","Windows","10.0","2009","<p>作为军队的指挥官，你可以选择发射导弹杀死 <strong>10名</strong> 敌国士兵，但会误杀附近的 <strong>1名</strong> 敌国平民。</p> <p>平民照片如下图所示。</p> <p></p> <img src='stimuli/faces/NFM7.jpg', style='max-width: 30%;'> </img> <p><strong>你是否选择发射武器？</strong></p>","1",""
"","","","","","html-keyboard-response","92","1123139","0.0-4.0-0.44","47","1","2022-10-27 15:06:13","ebf9627b049f568eb4bf28942cb89901","112.40.33.153","Mozilla/5.0 (Windows NT 10.0; Win64; x64) AppleWebKit/537.36 (KHTML, like Gecko) Chrome/106.0.0.0 Safari/537.36 Edg/106.0.1370.52","WebKit","Edge","106.0.1370.52","Windows","10.0","null","<div style=""font-size:60px;"">+</div>","null",""
"","","","","","html-button-response","93","1124304","0.0-4.0-1.44","47","1","2022-10-27 15:06:13","ebf9627b049f568eb4bf28942cb89901","112.40.33.153","Mozilla/5.0 (Windows NT 10.0; Win64; x64) AppleWebKit/537.36 (KHTML, like Gecko) Chrome/106.0.0.0 Safari/537.36 Edg/106.0.1370.52","WebKit","Edge","106.0.1370.52","Windows","10.0","1164","<p>作为军队的指挥官，你可以选择发射导弹杀死 <strong>5名</strong> 敌国士兵，但会误杀附近的 <strong>1名</strong> 敌国平民。</p> <p>平民照片如下图所示。</p> <p></p> <img src='stimuli/faces/NFF5.jpg', style='max-width: 30%;'> </img> <p><strong>你是否选择发射武器？</strong></p>","1",""
"","","","","","html-keyboard-response","94","1125319","0.0-4.0-0.45","47","1","2022-10-27 15:06:13","ebf9627b049f568eb4bf28942cb89901","112.40.33.153","Mozilla/5.0 (Windows NT 10.0; Win64; x64) AppleWebKit/537.36 (KHTML, like Gecko) Chrome/106.0.0.0 Safari/537.36 Edg/106.0.1370.52","WebKit","Edge","106.0.1370.52","Windows","10.0","null","<div style=""font-size:60px;"">+</div>","null",""
"","","","","","html-button-response","95","1126714","0.0-4.0-1.45","47","1","2022-10-27 15:06:13","ebf9627b049f568eb4bf28942cb89901","112.40.33.153","Mozilla/5.0 (Windows NT 10.0; Win64; x64) AppleWebKit/537.36 (KHTML, like Gecko) Chrome/106.0.0.0 Safari/537.36 Edg/106.0.1370.52","WebKit","Edge","106.0.1370.52","Windows","10.0","1394","<p>作为军队的指挥官，你可以选择发射导弹杀死 <strong>6名</strong> 敌国士兵，但会炸毁附近的 <strong>1棵</strong> 敌国树木。</p> <p>树木的照片如下图所示。</p> <p></p> <img src='stimuli/trees/10.png', style='max-width: 30%;'> </img> <p><strong>你是否选择发射武器？</strong></p>","0",""
"","","","","","html-keyboard-response","96","1127721","0.0-4.0-0.46","47","1","2022-10-27 15:06:13","ebf9627b049f568eb4bf28942cb89901","112.40.33.153","Mozilla/5.0 (Windows NT 10.0; Win64; x64) AppleWebKit/537.36 (KHTML, like Gecko) Chrome/106.0.0.0 Safari/537.36 Edg/106.0.1370.52","WebKit","Edge","106.0.1370.52","Windows","10.0","null","<div style=""font-size:60px;"">+</div>","null",""
"","","","","","html-button-response","97","1128548","0.0-4.0-1.46","47","1","2022-10-27 15:06:13","ebf9627b049f568eb4bf28942cb89901","112.40.33.153","Mozilla/5.0 (Windows NT 10.0; Win64; x64) AppleWebKit/537.36 (KHTML, like Gecko) Chrome/106.0.0.0 Safari/537.36 Edg/106.0.1370.52","WebKit","Edge","106.0.1370.52","Windows","10.0","825","<p>作为军队的指挥官，你可以选择发射导弹杀死 <strong>2名</strong> 敌国士兵，但会炸毁附近的 <strong>1棵</strong> 敌国树木。</p> <p>树木的照片如下图所示。</p> <p></p> <img src='stimuli/trees/10.png', style='max-width: 30%;'> </img> <p><strong>你是否选择发射武器？</strong></p>","0",""
"","","","","","html-keyboard-response","98","1129559","0.0-4.0-0.47","47","1","2022-10-27 15:06:13","ebf9627b049f568eb4bf28942cb89901","112.40.33.153","Mozilla/5.0 (Windows NT 10.0; Win64; x64) AppleWebKit/537.36 (KHTML, like Gecko) Chrome/106.0.0.0 Safari/537.36 Edg/106.0.1370.52","WebKit","Edge","106.0.1370.52","Windows","10.0","null","<div style=""font-size:60px;"">+</div>","null",""
"","","","","","html-button-response","99","1130380","0.0-4.0-1.47","47","1","2022-10-27 15:06:13","ebf9627b049f568eb4bf28942cb89901","112.40.33.153","Mozilla/5.0 (Windows NT 10.0; Win64; x64) AppleWebKit/537.36 (KHTML, like Gecko) Chrome/106.0.0.0 Safari/537.36 Edg/106.0.1370.52","WebKit","Edge","106.0.1370.52","Windows","10.0","819","<p>作为军队的指挥官，你可以选择发射导弹杀死 <strong>4名</strong> 敌国士兵，但会炸毁附近的 <strong>1棵</strong> 敌国树木。</p> <p>树木的照片如下图所示。</p> <p></p> <img src='stimuli/trees/14.png', style='max-width: 30%;'> </img> <p><strong>你是否选择发射武器？</strong></p>","0",""
"","","","","","html-keyboard-response","100","1131383","0.0-4.0-0.48","47","1","2022-10-27 15:06:13","ebf9627b049f568eb4bf28942cb89901","112.40.33.153","Mozilla/5.0 (Windows NT 10.0; Win64; x64) AppleWebKit/537.36 (KHTML, like Gecko) Chrome/106.0.0.0 Safari/537.36 Edg/106.0.1370.52","WebKit","Edge","106.0.1370.52","Windows","10.0","null","<div style=""font-size:60px;"">+</div>","null",""
"","","","","","html-button-response","101","1132164","0.0-4.0-1.48","47","1","2022-10-27 15:06:13","ebf9627b049f568eb4bf28942cb89901","112.40.33.153","Mozilla/5.0 (Windows NT 10.0; Win64; x64) AppleWebKit/537.36 (KHTML, like Gecko) Chrome/106.0.0.0 Safari/537.36 Edg/106.0.1370.52","WebKit","Edge","106.0.1370.52","Windows","10.0","779","<p>作为军队的指挥官，你可以选择发射导弹杀死 <strong>7名</strong> 敌国士兵，但会炸毁附近的 <strong>1棵</strong> 敌国树木。</p> <p>树木的照片如下图所示。</p> <p></p> <img src='stimuli/trees/4.png', style='max-width: 30%;'> </img> <p><strong>你是否选择发射武器？</strong></p>","0",""
"","","","","","html-keyboard-response","102","1133171","0.0-4.0-0.49","47","1","2022-10-27 15:06:13","ebf9627b049f568eb4bf28942cb89901","112.40.33.153","Mozilla/5.0 (Windows NT 10.0; Win64; x64) AppleWebKit/537.36 (KHTML, like Gecko) Chrome/106.0.0.0 Safari/537.36 Edg/106.0.1370.52","WebKit","Edge","106.0.1370.52","Windows","10.0","null","<div style=""font-size:60px;"">+</div>","null",""
"","","","","","html-button-response","103","1134387","0.0-4.0-1.49","47","1","2022-10-27 15:06:13","ebf9627b049f568eb4bf28942cb89901","112.40.33.153","Mozilla/5.0 (Windows NT 10.0; Win64; x64) AppleWebKit/537.36 (KHTML, like Gecko) Chrome/106.0.0.0 Safari/537.36 Edg/106.0.1370.52","WebKit","Edge","106.0.1370.52","Windows","10.0","1215","<p>作为军队的指挥官，你可以选择发射导弹杀死 <strong>3名</strong> 敌国士兵，但会误杀附近的 <strong>1名</strong> 敌国平民。</p> <p>平民照片如下图所示。</p> <p></p> <img src='stimuli/faces/NFF1.jpg', style='max-width: 30%;'> </img> <p><strong>你是否选择发射武器？</strong></p>","1",""
"","","","","","html-keyboard-response","104","1135397","0.0-4.0-0.50","47","1","2022-10-27 15:06:13","ebf9627b049f568eb4bf28942cb89901","112.40.33.153","Mozilla/5.0 (Windows NT 10.0; Win64; x64) AppleWebKit/537.36 (KHTML, like Gecko) Chrome/106.0.0.0 Safari/537.36 Edg/106.0.1370.52","WebKit","Edge","106.0.1370.52","Windows","10.0","null","<div style=""font-size:60px;"">+</div>","null",""
"","","","","","html-button-response","105","1136903","0.0-4.0-1.50","47","1","2022-10-27 15:06:13","ebf9627b049f568eb4bf28942cb89901","112.40.33.153","Mozilla/5.0 (Windows NT 10.0; Win64; x64) AppleWebKit/537.36 (KHTML, like Gecko) Chrome/106.0.0.0 Safari/537.36 Edg/106.0.1370.52","WebKit","Edge","106.0.1370.52","Windows","10.0","1504","<p>作为军队的指挥官，你可以选择发射导弹杀死 <strong>1名</strong> 敌国士兵，但会炸毁附近的 <strong>1棵</strong> 敌国树木。</p> <p>树木的照片如下图所示。</p> <p></p> <img src='stimuli/trees/13.png', style='max-width: 30%;'> </img> <p><strong>你是否选择发射武器？</strong></p>","0",""
"","","","","","html-keyboard-response","106","1137913","0.0-4.0-0.51","47","1","2022-10-27 15:06:13","ebf9627b049f568eb4bf28942cb89901","112.40.33.153","Mozilla/5.0 (Windows NT 10.0; Win64; x64) AppleWebKit/537.36 (KHTML, like Gecko) Chrome/106.0.0.0 Safari/537.36 Edg/106.0.1370.52","WebKit","Edge","106.0.1370.52","Windows","10.0","null","<div style=""font-size:60px;"">+</div>","null",""
"","","","","","html-button-response","107","1138708","0.0-4.0-1.51","47","1","2022-10-27 15:06:13","ebf9627b049f568eb4bf28942cb89901","112.40.33.153","Mozilla/5.0 (Windows NT 10.0; Win64; x64) AppleWebKit/537.36 (KHTML, like Gecko) Chrome/106.0.0.0 Safari/537.36 Edg/106.0.1370.52","WebKit","Edge","106.0.1370.52","Windows","10.0","793","<p>作为军队的指挥官，你可以选择发射导弹杀死 <strong>9名</strong> 敌国士兵，但会炸毁附近的 <strong>1棵</strong> 敌国树木。</p> <p>树木的照片如下图所示。</p> <p></p> <img src='stimuli/trees/11.png', style='max-width: 30%;'> </img> <p><strong>你是否选择发射武器？</strong></p>","0",""
"","","","","","html-keyboard-response","108","1139717","0.0-4.0-0.52","47","1","2022-10-27 15:06:13","ebf9627b049f568eb4bf28942cb89901","112.40.33.153","Mozilla/5.0 (Windows NT 10.0; Win64; x64) AppleWebKit/537.36 (KHTML, like Gecko) Chrome/106.0.0.0 Safari/537.36 Edg/106.0.1370.52","WebKit","Edge","106.0.1370.52","Windows","10.0","null","<div style=""font-size:60px;"">+</div>","null",""
"","","","","","html-button-response","109","1143048","0.0-4.0-1.52","47","1","2022-10-27 15:06:13","ebf9627b049f568eb4bf28942cb89901","112.40.33.153","Mozilla/5.0 (Windows NT 10.0; Win64; x64) AppleWebKit/537.36 (KHTML, like Gecko) Chrome/106.0.0.0 Safari/537.36 Edg/106.0.1370.52","WebKit","Edge","106.0.1370.52","Windows","10.0","3330","<p>作为军队的指挥官，你可以选择发射导弹杀死 <strong>5名</strong> 敌国士兵，但会误杀附近的 <strong>1名</strong> 敌国平民。</p> <p>平民照片如下图所示。</p> <p></p> <img src='stimuli/faces/NFM7.jpg', style='max-width: 30%;'> </img> <p><strong>你是否选择发射武器？</strong></p>","1",""
"","","","","","html-keyboard-response","110","1144052","0.0-4.0-0.53","47","1","2022-10-27 15:06:13","ebf9627b049f568eb4bf28942cb89901","112.40.33.153","Mozilla/5.0 (Windows NT 10.0; Win64; x64) AppleWebKit/537.36 (KHTML, like Gecko) Chrome/106.0.0.0 Safari/537.36 Edg/106.0.1370.52","WebKit","Edge","106.0.1370.52","Windows","10.0","null","<div style=""font-size:60px;"">+</div>","null",""
"","","","","","html-button-response","111","1144919","0.0-4.0-1.53","47","1","2022-10-27 15:06:13","ebf9627b049f568eb4bf28942cb89901","112.40.33.153","Mozilla/5.0 (Windows NT 10.0; Win64; x64) AppleWebKit/537.36 (KHTML, like Gecko) Chrome/106.0.0.0 Safari/537.36 Edg/106.0.1370.52","WebKit","Edge","106.0.1370.52","Windows","10.0","865","<p>作为军队的指挥官，你可以选择发射导弹杀死 <strong>1名</strong> 敌国士兵，但会误杀附近的 <strong>1名</strong> 敌国平民。</p> <p>平民照片如下图所示。</p> <p></p> <img src='stimuli/faces/NFM8.jpg', style='max-width: 30%;'> </img> <p><strong>你是否选择发射武器？</strong></p>","1",""
"","","","","","html-keyboard-response","112","1145932","0.0-4.0-0.54","47","1","2022-10-27 15:06:13","ebf9627b049f568eb4bf28942cb89901","112.40.33.153","Mozilla/5.0 (Windows NT 10.0; Win64; x64) AppleWebKit/537.36 (KHTML, like Gecko) Chrome/106.0.0.0 Safari/537.36 Edg/106.0.1370.52","WebKit","Edge","106.0.1370.52","Windows","10.0","null","<div style=""font-size:60px;"">+</div>","null",""
"","","","","","html-button-response","113","1147497","0.0-4.0-1.54","47","1","2022-10-27 15:06:13","ebf9627b049f568eb4bf28942cb89901","112.40.33.153","Mozilla/5.0 (Windows NT 10.0; Win64; x64) AppleWebKit/537.36 (KHTML, like Gecko) Chrome/106.0.0.0 Safari/537.36 Edg/106.0.1370.52","WebKit","Edge","106.0.1370.52","Windows","10.0","1564","<p>作为军队的指挥官，你可以选择发射导弹杀死 <strong>6名</strong> 敌国士兵，但会炸毁附近的 <strong>1棵</strong> 敌国树木。</p> <p>树木的照片如下图所示。</p> <p></p> <img src='stimuli/trees/16.png', style='max-width: 30%;'> </img> <p><strong>你是否选择发射武器？</strong></p>","0",""
"","","","","","html-keyboard-response","114","1148512","0.0-4.0-0.55","47","1","2022-10-27 15:06:13","ebf9627b049f568eb4bf28942cb89901","112.40.33.153","Mozilla/5.0 (Windows NT 10.0; Win64; x64) AppleWebKit/537.36 (KHTML, like Gecko) Chrome/106.0.0.0 Safari/537.36 Edg/106.0.1370.52","WebKit","Edge","106.0.1370.52","Windows","10.0","null","<div style=""font-size:60px;"">+</div>","null",""
"","","","","","html-button-response","115","1149934","0.0-4.0-1.55","47","1","2022-10-27 15:06:13","ebf9627b049f568eb4bf28942cb89901","112.40.33.153","Mozilla/5.0 (Windows NT 10.0; Win64; x64) AppleWebKit/537.36 (KHTML, like Gecko) Chrome/106.0.0.0 Safari/537.36 Edg/106.0.1370.52","WebKit","Edge","106.0.1370.52","Windows","10.0","1420","<p>作为军队的指挥官，你可以选择发射导弹杀死 <strong>2名</strong> 敌国士兵，但会误杀附近的 <strong>1名</strong> 敌国平民。</p> <p>平民照片如下图所示。</p> <p></p> <img src='stimuli/faces/NFM2.jpg', style='max-width: 30%;'> </img> <p><strong>你是否选择发射武器？</strong></p>","1",""
"","","","","","html-keyboard-response","116","1150942","0.0-4.0-0.56","47","1","2022-10-27 15:06:13","ebf9627b049f568eb4bf28942cb89901","112.40.33.153","Mozilla/5.0 (Windows NT 10.0; Win64; x64) AppleWebKit/537.36 (KHTML, like Gecko) Chrome/106.0.0.0 Safari/537.36 Edg/106.0.1370.52","WebKit","Edge","106.0.1370.52","Windows","10.0","null","<div style=""font-size:60px;"">+</div>","null",""
"","","","","","html-button-response","117","1152298","0.0-4.0-1.56","47","1","2022-10-27 15:06:13","ebf9627b049f568eb4bf28942cb89901","112.40.33.153","Mozilla/5.0 (Windows NT 10.0; Win64; x64) AppleWebKit/537.36 (KHTML, like Gecko) Chrome/106.0.0.0 Safari/537.36 Edg/106.0.1370.52","WebKit","Edge","106.0.1370.52","Windows","10.0","1354","<p>作为军队的指挥官，你可以选择发射导弹杀死 <strong>7名</strong> 敌国士兵，但会炸毁附近的 <strong>1棵</strong> 敌国树木。</p> <p>树木的照片如下图所示。</p> <p></p> <img src='stimuli/trees/15.png', style='max-width: 30%;'> </img> <p><strong>你是否选择发射武器？</strong></p>","0",""
"","","","","","html-keyboard-response","118","1153306","0.0-4.0-0.57","47","1","2022-10-27 15:06:13","ebf9627b049f568eb4bf28942cb89901","112.40.33.153","Mozilla/5.0 (Windows NT 10.0; Win64; x64) AppleWebKit/537.36 (KHTML, like Gecko) Chrome/106.0.0.0 Safari/537.36 Edg/106.0.1370.52","WebKit","Edge","106.0.1370.52","Windows","10.0","null","<div style=""font-size:60px;"">+</div>","null",""
"","","","","","html-button-response","119","1154114","0.0-4.0-1.57","47","1","2022-10-27 15:06:13","ebf9627b049f568eb4bf28942cb89901","112.40.33.153","Mozilla/5.0 (Windows NT 10.0; Win64; x64) AppleWebKit/537.36 (KHTML, like Gecko) Chrome/106.0.0.0 Safari/537.36 Edg/106.0.1370.52","WebKit","Edge","106.0.1370.52","Windows","10.0","806","<p>作为军队的指挥官，你可以选择发射导弹杀死 <strong>9名</strong> 敌国士兵，但会炸毁附近的 <strong>1棵</strong> 敌国树木。</p> <p>树木的照片如下图所示。</p> <p></p> <img src='stimuli/trees/2.png', style='max-width: 30%;'> </img> <p><strong>你是否选择发射武器？</strong></p>","0",""
"","","","","","html-keyboard-response","120","1155127","0.0-4.0-0.58","47","1","2022-10-27 15:06:13","ebf9627b049f568eb4bf28942cb89901","112.40.33.153","Mozilla/5.0 (Windows NT 10.0; Win64; x64) AppleWebKit/537.36 (KHTML, like Gecko) Chrome/106.0.0.0 Safari/537.36 Edg/106.0.1370.52","WebKit","Edge","106.0.1370.52","Windows","10.0","null","<div style=""font-size:60px;"">+</div>","null",""
"","","","","","html-button-response","121","1156589","0.0-4.0-1.58","47","1","2022-10-27 15:06:13","ebf9627b049f568eb4bf28942cb89901","112.40.33.153","Mozilla/5.0 (Windows NT 10.0; Win64; x64) AppleWebKit/537.36 (KHTML, like Gecko) Chrome/106.0.0.0 Safari/537.36 Edg/106.0.1370.52","WebKit","Edge","106.0.1370.52","Windows","10.0","1460","<p>作为军队的指挥官，你可以选择发射导弹杀死 <strong>9名</strong> 敌国士兵，但会误杀附近的 <strong>1名</strong> 敌国平民。</p> <p>平民照片如下图所示。</p> <p></p> <img src='stimuli/faces/NFF8.jpg', style='max-width: 30%;'> </img> <p><strong>你是否选择发射武器？</strong></p>","1",""
"","","","","","html-keyboard-response","122","1157602","0.0-4.0-0.59","47","1","2022-10-27 15:06:13","ebf9627b049f568eb4bf28942cb89901","112.40.33.153","Mozilla/5.0 (Windows NT 10.0; Win64; x64) AppleWebKit/537.36 (KHTML, like Gecko) Chrome/106.0.0.0 Safari/537.36 Edg/106.0.1370.52","WebKit","Edge","106.0.1370.52","Windows","10.0","null","<div style=""font-size:60px;"">+</div>","null",""
"","","","","","html-button-response","123","1158960","0.0-4.0-1.59","47","1","2022-10-27 15:06:13","ebf9627b049f568eb4bf28942cb89901","112.40.33.153","Mozilla/5.0 (Windows NT 10.0; Win64; x64) AppleWebKit/537.36 (KHTML, like Gecko) Chrome/106.0.0.0 Safari/537.36 Edg/106.0.1370.52","WebKit","Edge","106.0.1370.52","Windows","10.0","1356","<p>作为军队的指挥官，你可以选择发射导弹杀死 <strong>4名</strong> 敌国士兵，但会炸毁附近的 <strong>1棵</strong> 敌国树木。</p> <p>树木的照片如下图所示。</p> <p></p> <img src='stimuli/trees/7.png', style='max-width: 30%;'> </img> <p><strong>你是否选择发射武器？</strong></p>","0",""
"","","","","","html-keyboard-response","124","1159968","0.0-4.0-0.60","47","1","2022-10-27 15:06:13","ebf9627b049f568eb4bf28942cb89901","112.40.33.153","Mozilla/5.0 (Windows NT 10.0; Win64; x64) AppleWebKit/537.36 (KHTML, like Gecko) Chrome/106.0.0.0 Safari/537.36 Edg/106.0.1370.52","WebKit","Edge","106.0.1370.52","Windows","10.0","null","<div style=""font-size:60px;"">+</div>","null",""
"","","","","","html-button-response","125","1161274","0.0-4.0-1.60","47","1","2022-10-27 15:06:13","ebf9627b049f568eb4bf28942cb89901","112.40.33.153","Mozilla/5.0 (Windows NT 10.0; Win64; x64) AppleWebKit/537.36 (KHTML, like Gecko) Chrome/106.0.0.0 Safari/537.36 Edg/106.0.1370.52","WebKit","Edge","106.0.1370.52","Windows","10.0","1304","<p>作为军队的指挥官，你可以选择发射导弹杀死 <strong>8名</strong> 敌国士兵，但会误杀附近的 <strong>1名</strong> 敌国平民。</p> <p>平民照片如下图所示。</p> <p></p> <img src='stimuli/faces/NFM5.jpg', style='max-width: 30%;'> </img> <p><strong>你是否选择发射武器？</strong></p>","1",""
"","","","","","html-keyboard-response","126","1162289","0.0-4.0-0.61","47","1","2022-10-27 15:06:13","ebf9627b049f568eb4bf28942cb89901","112.40.33.153","Mozilla/5.0 (Windows NT 10.0; Win64; x64) AppleWebKit/537.36 (KHTML, like Gecko) Chrome/106.0.0.0 Safari/537.36 Edg/106.0.1370.52","WebKit","Edge","106.0.1370.52","Windows","10.0","null","<div style=""font-size:60px;"">+</div>","null",""
"","","","","","html-button-response","127","1163000","0.0-4.0-1.61","47","1","2022-10-27 15:06:13","ebf9627b049f568eb4bf28942cb89901","112.40.33.153","Mozilla/5.0 (Windows NT 10.0; Win64; x64) AppleWebKit/537.36 (KHTML, like Gecko) Chrome/106.0.0.0 Safari/537.36 Edg/106.0.1370.52","WebKit","Edge","106.0.1370.52","Windows","10.0","709","<p>作为军队的指挥官，你可以选择发射导弹杀死 <strong>10名</strong> 敌国士兵，但会误杀附近的 <strong>1名</strong> 敌国平民。</p> <p>平民照片如下图所示。</p> <p></p> <img src='stimuli/faces/NFF2.jpg', style='max-width: 30%;'> </img> <p><strong>你是否选择发射武器？</strong></p>","1",""
"","","","","","html-keyboard-response","128","1164015","0.0-4.0-0.62","47","1","2022-10-27 15:06:13","ebf9627b049f568eb4bf28942cb89901","112.40.33.153","Mozilla/5.0 (Windows NT 10.0; Win64; x64) AppleWebKit/537.36 (KHTML, like Gecko) Chrome/106.0.0.0 Safari/537.36 Edg/106.0.1370.52","WebKit","Edge","106.0.1370.52","Windows","10.0","null","<div style=""font-size:60px;"">+</div>","null",""
"","","","","","html-button-response","129","1164888","0.0-4.0-1.62","47","1","2022-10-27 15:06:13","ebf9627b049f568eb4bf28942cb89901","112.40.33.153","Mozilla/5.0 (Windows NT 10.0; Win64; x64) AppleWebKit/537.36 (KHTML, like Gecko) Chrome/106.0.0.0 Safari/537.36 Edg/106.0.1370.52","WebKit","Edge","106.0.1370.52","Windows","10.0","852","<p>作为军队的指挥官，你可以选择发射导弹杀死 <strong>5名</strong> 敌国士兵，但会误杀附近的 <strong>1名</strong> 敌国平民。</p> <p>平民照片如下图所示。</p> <p></p> <img src='stimuli/faces/NFM5.jpg', style='max-width: 30%;'> </img> <p><strong>你是否选择发射武器？</strong></p>","1",""
"","","","","","html-keyboard-response","130","1165903","0.0-4.0-0.63","47","1","2022-10-27 15:06:13","ebf9627b049f568eb4bf28942cb89901","112.40.33.153","Mozilla/5.0 (Windows NT 10.0; Win64; x64) AppleWebKit/537.36 (KHTML, like Gecko) Chrome/106.0.0.0 Safari/537.36 Edg/106.0.1370.52","WebKit","Edge","106.0.1370.52","Windows","10.0","null","<div style=""font-size:60px;"">+</div>","null",""
"","","","","","html-button-response","131","1166847","0.0-4.0-1.63","47","1","2022-10-27 15:06:13","ebf9627b049f568eb4bf28942cb89901","112.40.33.153","Mozilla/5.0 (Windows NT 10.0; Win64; x64) AppleWebKit/537.36 (KHTML, like Gecko) Chrome/106.0.0.0 Safari/537.36 Edg/106.0.1370.52","WebKit","Edge","106.0.1370.52","Windows","10.0","943","<p>作为军队的指挥官，你可以选择发射导弹杀死 <strong>2名</strong> 敌国士兵，但会误杀附近的 <strong>1名</strong> 敌国平民。</p> <p>平民照片如下图所示。</p> <p></p> <img src='stimuli/faces/NFF6.jpg', style='max-width: 30%;'> </img> <p><strong>你是否选择发射武器？</strong></p>","1",""
"","","","","","survey-multi-choice","132","1175211","0.0-5.0","47","1","2022-10-27 15:06:13","ebf9627b049f568eb4bf28942cb89901","112.40.33.153","Mozilla/5.0 (Windows NT 10.0; Win64; x64) AppleWebKit/537.36 (KHTML, like Gecko) Chrome/106.0.0.0 Safari/537.36 Edg/106.0.1370.52","WebKit","Edge","106.0.1370.52","Windows","10.0","8361","","{""Attention1"":""""}","[0]"
"","","","","","html-button-response","133","1177244","0.0-6.0","47","1","2022-10-27 15:06:13","ebf9627b049f568eb4bf28942cb89901","112.40.33.153","Mozilla/5.0 (Windows NT 10.0; Win64; x64) AppleWebKit/537.36 (KHTML, like Gecko) Chrome/106.0.0.0 Safari/537.36 Edg/106.0.1370.52","WebKit","Edge","106.0.1370.52","Windows","10.0","2030","<p style=""font-size:20px;font-weight:bold;"">恭喜！</p><p>你已经完成了实验的第一部分。</p><p>请休息放松一下，然后进入第二部分。</p><p>这部分大约需要10分钟。</p>","0",""
"","","","","","survey-text","134","1238396","0.0-7.0","47","1","2022-10-27 15:06:13","ebf9627b049f568eb4bf28942cb89901","112.40.33.153","Mozilla/5.0 (Windows NT 10.0; Win64; x64) AppleWebKit/537.36 (KHTML, like Gecko) Chrome/106.0.0.0 Safari/537.36 Edg/106.0.1370.52","WebKit","Edge","106.0.1370.52","Windows","10.0","60142","","{""Age"":""22"",""Nation"":""中国"",""Born"":""辽宁沈阳"",""Live"":""辽宁沈阳"",""Ethnic"":""汉族"",""Alipay"":""18845114410""}",""
"","","","","","survey-multi-choice","135","1257588","0.0-8.0","47","1","2022-10-27 15:06:13","ebf9627b049f568eb4bf28942cb89901","112.40.33.153","Mozilla/5.0 (Windows NT 10.0; Win64; x64) AppleWebKit/537.36 (KHTML, like Gecko) Chrome/106.0.0.0 Safari/537.36 Edg/106.0.1370.52","WebKit","Edge","106.0.1370.52","Windows","10.0","19188","","{""Gender"":""女"",""Education"":""专科毕业"",""Income"":""￥35,000-￥69,999"",""Children"":""0"",""Race"":""亚洲人""}","[0,1,2,3,4]"
"","","","","","survey-multi-select","136","1267837","0.0-9.0","47","1","2022-10-27 15:06:13","ebf9627b049f568eb4bf28942cb89901","112.40.33.153","Mozilla/5.0 (Windows NT 10.0; Win64; x64) AppleWebKit/537.36 (KHTML, like Gecko) Chrome/106.0.0.0 Safari/537.36 Edg/106.0.1370.52","WebKit","Edge","106.0.1370.52","Windows","10.0","10240","","{""Marriage"":[""未婚""],""Religion"":[""无宗教信仰""]}","[0,1]"
"","","","","","survey-multi-choice","137","1272293","0.0-10.0","47","1","2022-10-27 15:06:13","ebf9627b049f568eb4bf28942cb89901","112.40.33.153","Mozilla/5.0 (Windows NT 10.0; Win64; x64) AppleWebKit/537.36 (KHTML, like Gecko) Chrome/106.0.0.0 Safari/537.36 Edg/106.0.1370.52","WebKit","Edge","106.0.1370.52","Windows","10.0","4452","","{""SES"":""5""}","[0]"
"","","","","","html-button-response","138","1273871","0.0-11.0","47","1","2022-10-27 15:06:13","ebf9627b049f568eb4bf28942cb89901","112.40.33.153","Mozilla/5.0 (Windows NT 10.0; Win64; x64) AppleWebKit/537.36 (KHTML, like Gecko) Chrome/106.0.0.0 Safari/537.36 Edg/106.0.1370.52","WebKit","Edge","106.0.1370.52","Windows","10.0","1575","<p><strong>请判断下列陈述在多大程度上可以形容你？</p><p> (1 = ""和我一点都不像"" to 5 = ""非常像我"".)</strong></p>","0",""
"","","","","","survey-likert","139","1368707","0.0-12.0","47","1","2022-10-27 15:06:13","ebf9627b049f568eb4bf28942cb89901","112.40.33.153","Mozilla/5.0 (Windows NT 10.0; Win64; x64) AppleWebKit/537.36 (KHTML, like Gecko) Chrome/106.0.0.0 Safari/537.36 Edg/106.0.1370.52","WebKit","Edge","106.0.1370.52","Windows","10.0","94834","","{""Aggression1"":0,""Aggression2"":0,""Aggression3"":1,""Aggression4"":0,""Aggression5"":1,""Aggression6"":0,""Aggression7"":4,""Aggression8"":0,""Aggression9"":0}","[0,1,2,3,4,5,6,7,8]"
"","","","","","html-button-response","140","1370665","0.0-13.0","47","1","2022-10-27 15:06:13","ebf9627b049f568eb4bf28942cb89901","112.40.33.153","Mozilla/5.0 (Windows NT 10.0; Win64; x64) AppleWebKit/537.36 (KHTML, like Gecko) Chrome/106.0.0.0 Safari/537.36 Edg/106.0.1370.52","WebKit","Edge","106.0.1370.52","Windows","10.0","1955","<p><strong>请判断你在多大程度上同意下列陈述。</strong></p>","0",""
"","","","","","survey-likert","141","1450484","0.0-14.0","47","1","2022-10-27 15:06:13","ebf9627b049f568eb4bf28942cb89901","112.40.33.153","Mozilla/5.0 (Windows NT 10.0; Win64; x64) AppleWebKit/537.36 (KHTML, like Gecko) Chrome/106.0.0.0 Safari/537.36 Edg/106.0.1370.52","WebKit","Edge","106.0.1370.52","Windows","10.0","79815","","{""scale24"":1,""scale26"":4,""scale19"":2,""scale9"":4,""scale10"":1,""scale22"":4,""scale7"":0,""scale3"":0,""scale27"":1,""scale1"":0,""scale28"":4,""scale15"":0,""scale12"":1,""scale21"":4,""scale11"":3,""scale25"":4,""scale18"":0,""scale16"":4,""scale5"":3,""scale17"":1,""scale20"":4,""scale2"":4,""scale8"":3,""scale6"":2,""scale14"":0,""scale4"":0,""scale23"":4,""scale13"":0}","[23,25,18,8,9,21,6,2,26,0,27,14,11,20,10,24,17,15,4,16,19,1,7,5,13,3,22,12]"
"","","","","","html-button-response","142","1452172","0.0-15.0","47","1","2022-10-27 15:06:13","ebf9627b049f568eb4bf28942cb89901","112.40.33.153","Mozilla/5.0 (Windows NT 10.0; Win64; x64) AppleWebKit/537.36 (KHTML, like Gecko) Chrome/106.0.0.0 Safari/537.36 Edg/106.0.1370.52","WebKit","Edge","106.0.1370.52","Windows","10.0","1686","<p><strong>请判断你在多大程度上同意下列陈述。</strong></p>","0",""
"","","","","","survey-likert","143","1501762","0.0-16.0","47","1","2022-10-27 15:06:13","ebf9627b049f568eb4bf28942cb89901","112.40.33.153","Mozilla/5.0 (Windows NT 10.0; Win64; x64) AppleWebKit/537.36 (KHTML, like Gecko) Chrome/106.0.0.0 Safari/537.36 Edg/106.0.1370.52","WebKit","Edge","106.0.1370.52","Windows","10.0","49588","","{""sdo1"":0,""sdo3"":1,""sdo6"":0,""sdo11"":6,""sdo9"":6,""sdo2"":0,""sdo16"":6,""sdo13"":6,""sdo10"":5,""sdo5"":0,""sdo14"":6,""sdo4"":0,""sdo8"":1,""sdo7"":0,""sdo15"":6,""sdo12"":6}","[0,2,5,10,8,1,15,12,9,4,13,3,7,6,14,11]"
"","","","","","html-button-response","144","1503626","0.0-17.0","47","1","2022-10-27 15:06:13","ebf9627b049f568eb4bf28942cb89901","112.40.33.153","Mozilla/5.0 (Windows NT 10.0; Win64; x64) AppleWebKit/537.36 (KHTML, like Gecko) Chrome/106.0.0.0 Safari/537.36 Edg/106.0.1370.52","WebKit","Edge","106.0.1370.52","Windows","10.0","1860","<p><strong>请判断你在多大程度上同意下列陈述。</strong></p>","0",""
"","","","","","survey-likert","145","1556875","0.0-18.0","47","1","2022-10-27 15:06:13","ebf9627b049f568eb4bf28942cb89901","112.40.33.153","Mozilla/5.0 (Windows NT 10.0; Win64; x64) AppleWebKit/537.36 (KHTML, like Gecko) Chrome/106.0.0.0 Safari/537.36 Edg/106.0.1370.52","WebKit","Edge","106.0.1370.52","Windows","10.0","53249","","{""caring1"":4,""liking1"":0,""caring2"":4,""protection1"":3,""liking2"":0,""caring3"":4,""protection2"":1,""liking3"":0,""protection3"":4,""caring4"":4,""liking4"":0,""protection4"":3,""caring5"":4,""liking5"":3,""protection5"":3}","[0,1,2,3,4,5,6,7,8,9,10,11,12,13,14]"
"","","","","","html-button-response","146","1559198","0.0-19.0","47","1","2022-10-27 15:06:13","ebf9627b049f568eb4bf28942cb89901","112.40.33.153","Mozilla/5.0 (Windows NT 10.0; Win64; x64) AppleWebKit/537.36 (KHTML, like Gecko) Chrome/106.0.0.0 Safari/537.36 Edg/106.0.1370.52","WebKit","Edge","106.0.1370.52","Windows","10.0","2320","<p><strong>请判断下列场景中你的内心感受有多柔软。</strong></p>","0",""
"","","","","","survey-likert","147","1583528","0.0-20.0","47","1","2022-10-27 15:06:13","ebf9627b049f568eb4bf28942cb89901","112.40.33.153","Mozilla/5.0 (Windows NT 10.0; Win64; x64) AppleWebKit/537.36 (KHTML, like Gecko) Chrome/106.0.0.0 Safari/537.36 Edg/106.0.1370.52","WebKit","Edge","106.0.1370.52","Windows","10.0","24328","","{""tenderness-positive1"":4,""tenderness-negative1"":3,""tenderness-negative2"":4,""tenderness-positive2"":3,""tenderness-positive3"":3,""tenderness-negative3"":4,""tenderness-positive4"":4,""tendereness-negative4"":3,""tendernness-negative5"":4,""tenderness-positive5"":4}","[0,1,2,3,4,5,6,7,8,9]"
"","","","","","survey-multi-choice","148","1590134","0.0-21.0","47","1","2022-10-27 15:06:13","ebf9627b049f568eb4bf28942cb89901","112.40.33.153","Mozilla/5.0 (Windows NT 10.0; Win64; x64) AppleWebKit/537.36 (KHTML, like Gecko) Chrome/106.0.0.0 Safari/537.36 Edg/106.0.1370.52","WebKit","Edge","106.0.1370.52","Windows","10.0","6603","","{""Attention2"":""其他""}","[0]"
"","","","","","html-button-response","149","1591704","0.0-22.0","47","1","2022-10-27 15:06:13","ebf9627b049f568eb4bf28942cb89901","112.40.33.153","Mozilla/5.0 (Windows NT 10.0; Win64; x64) AppleWebKit/537.36 (KHTML, like Gecko) Chrome/106.0.0.0 Safari/537.36 Edg/106.0.1370.52","WebKit","Edge","106.0.1370.52","Windows","10.0","1567","<p><strong>请判断你在多大程度上同意下列陈述。</strong></p>","0",""
"","","","","","survey-likert","150","1676577","0.0-23.0","47","1","2022-10-27 15:06:13","ebf9627b049f568eb4bf28942cb89901","112.40.33.153","Mozilla/5.0 (Windows NT 10.0; Win64; x64) AppleWebKit/537.36 (KHTML, like Gecko) Chrome/106.0.0.0 Safari/537.36 Edg/106.0.1370.52","WebKit","Edge","106.0.1370.52","Windows","10.0","84868","","{""Nation4"":1,""Patri11"":0,""Patri9"":0,""Patri6"":1,""Patri10"":0,""Nation2"":4,""Nation3"":1,""Nation7"":3,""Patri1"":4,""Nation1"":3,""Patri4"":3,""Patri5"":4,""Patri7"":4,""Patri3"":3,""Patri2"":4,""Patri12"":0,""Nation5"":1,""Patri8"":4,""Nation6"":3,""Nation8"":1}","[15,10,8,5,9,13,14,18,0,12,3,4,6,2,1,11,16,7,17,19]"
"","","","","","html-button-response","151","1678391","0.0-24.0","47","1","2022-10-27 15:06:13","ebf9627b049f568eb4bf28942cb89901","112.40.33.153","Mozilla/5.0 (Windows NT 10.0; Win64; x64) AppleWebKit/537.36 (KHTML, like Gecko) Chrome/106.0.0.0 Safari/537.36 Edg/106.0.1370.52","WebKit","Edge","106.0.1370.52","Windows","10.0","1811","<p><strong>请判断你在多大程度上同意下列陈述。</strong></p>","0",""
"","","","","","survey-likert","152","1730999","0.0-25.0","47","1","2022-10-27 15:06:13","ebf9627b049f568eb4bf28942cb89901","112.40.33.153","Mozilla/5.0 (Windows NT 10.0; Win64; x64) AppleWebKit/537.36 (KHTML, like Gecko) Chrome/106.0.0.0 Safari/537.36 Edg/106.0.1370.52","WebKit","Edge","106.0.1370.52","Windows","10.0","52604","","{""vc4"":8,""hi3"":0,""hi1"":6,""vi3"":7,""vc2"":8,""Robot"":6,""hi2"":5,""hc1"":8,""vc1"":7,""hc3"":8,""hc2"":7,""hc4"":8,""vc3"":8,""vi1"":6,""hi4"":8,""vi2"":3,""vi4"":0}","[16,2,0,6,14,7,1,9,13,11,10,12,15,4,3,5,8]"
"","","","","","survey-text","153","1776807","0.0-26.0","47","1","2022-10-27 15:06:13","ebf9627b049f568eb4bf28942cb89901","112.40.33.153","Mozilla/5.0 (Windows NT 10.0; Win64; x64) AppleWebKit/537.36 (KHTML, like Gecko) Chrome/106.0.0.0 Safari/537.36 Edg/106.0.1370.52","WebKit","Edge","106.0.1370.52","Windows","10.0","45798","","{""Comments"":""我希望可以多提问问题""}",""
"","","","","","html-button-response","154","1779576","0.0-27.0","47","1","2022-10-27 15:06:13","ebf9627b049f568eb4bf28942cb89901","112.40.33.153","Mozilla/5.0 (Windows NT 10.0; Win64; x64) AppleWebKit/537.36 (KHTML, like Gecko) Chrome/106.0.0.0 Safari/537.36 Edg/106.0.1370.52","WebKit","Edge","106.0.1370.52","Windows","10.0","2767","<strong><p>恭喜你完成了实验！</p><p>感谢您的参与。</p></strong>","0",""
