"success","timeout","failed_images","failed_audio","failed_video","trial_type","trial_index","time_elapsed","internal_node_id","run_id","condition","recorded_at","source_code_version","ip","user_agent","device","browser","browser_version","platform","platform_version","rt","stimulus","response","question_order"
"true","false","[]","[]","[]","preload","0","2243","0.0-0.0","55","1","2022-10-31 11:00:20","ebf9627b049f568eb4bf28942cb89901","116.224.237.148","Mozilla/5.0 (Windows NT 10.0; WOW64) AppleWebKit/537.36 (KHTML, like Gecko) Chrome/92.0.4515.131 Safari/537.36 SLBrowser/8.0.0.7271 SLBChan/7","WebKit","Chrome","92.0.4515.131","Windows","10.0","","","",""
"true","","","","","fullscreen","1","23522","0.0-1.0","55","1","2022-10-31 11:00:20","ebf9627b049f568eb4bf28942cb89901","116.224.237.148","Mozilla/5.0 (Windows NT 10.0; WOW64) AppleWebKit/537.36 (KHTML, like Gecko) Chrome/92.0.4515.131 Safari/537.36 SLBrowser/8.0.0.7271 SLBChan/7","WebKit","Chrome","92.0.4515.131","Windows","10.0","","","",""
"","","","","","html-button-response","2","53192","0.0-2.0","55","1","2022-10-31 11:00:20","ebf9627b049f568eb4bf28942cb89901","116.224.237.148","Mozilla/5.0 (Windows NT 10.0; WOW64) AppleWebKit/537.36 (KHTML, like Gecko) Chrome/92.0.4515.131 Safari/537.36 SLBrowser/8.0.0.7271 SLBChan/7","WebKit","Chrome","92.0.4515.131","Windows","10.0","29667","<p style=""font-size:20px;font-weight:bold;"">实验知情同意书</p><p style=""text-align:left;""><strong>实验名称：</strong>社会冲突研究</p><p style=""text-align:left;""><strong>主要研究者：</strong>韩晓春副教授（北京师范大学心理学部）</p><p style=""text-align:left;""><strong>联系方式：</strong>发送邮件至xiaochun.han@bnu.edu.cn</p><p style=""text-align:left;""><strong>研究目的：</strong>研究旨在了解人类面对群体冲突时的决策方式，以及相关的心理学特质。实验调查大约需要20分钟。</p><p style=""text-align:left;""><strong>实验流程：</strong>实验包含两部分。第一部分呈现一系列群体冲突场景，请你决定如何对这些冲突进行反应，大约需要10分钟完成。第二部分包含一系列人口统计学信息收集和心理学问卷，大约需要10分钟完成。</p><p style=""text-align:left;""><strong>参加及退出规则：</strong>参加本实验完全取决于您的个人意愿。在参与过程中，您可以随时退出，并且不用承担任何后果。</p><p style=""text-align:left;""><strong>隐私：</strong>本实验完全匿名进行，不会收集您的姓名或其他能够识别您身份的信息。实验中收集的作答仅用作科学研究使用，可能会在学术期刊/书籍上发表，或者用于教学，您的数据未来可能会和其他研究者或实验室分享，但您的个人身份不会被识别。</p><p style=""text-align:left;""><strong>实验报酬：</strong>实验完成后，您将获得15元人民币报酬，以感谢您的时间和努力。调查问卷中包含几道题目用以测验您作答时的认真度。只有完成全部实验，并且正确回答认真度测验的被试才能获得实验报酬。实验报酬将通过支付宝转账发放。</p><p style=""text-align:left;font-size:20px;""><strong>如果您同意以上实验知情同意书的内容，请点击'同意并且开始实验'按钮；否则请关闭浏览器界面，退出实验。</strong></p>","0",""
"","","","","","html-button-response","3","87600","0.0-3.0","55","1","2022-10-31 11:00:20","ebf9627b049f568eb4bf28942cb89901","116.224.237.148","Mozilla/5.0 (Windows NT 10.0; WOW64) AppleWebKit/537.36 (KHTML, like Gecko) Chrome/92.0.4515.131 Safari/537.36 SLBrowser/8.0.0.7271 SLBChan/7","WebKit","Chrome","92.0.4515.131","Windows","10.0","34406","<p ><strong>实验任务一：</strong></p><p>请想象你的国家与另一个国家发生了军事冲突。</p><p>你是国家军队的指挥官，你将如何在冲突中进行决策。</p><p>具体来说，作为军队指挥官，请你决定是否发射导弹进行打击。</p><p>接下来，你会面对一系列场景，请仔细阅读每个场景，然后进行决策。</p><p>这部分实验任务大约需要10分钟。</p><p><strong>实验过程中，请集中注意力。</strong></p>","0",""
"","","","","","html-keyboard-response","4","88604","0.0-4.0-0.0","55","1","2022-10-31 11:00:20","ebf9627b049f568eb4bf28942cb89901","116.224.237.148","Mozilla/5.0 (Windows NT 10.0; WOW64) AppleWebKit/537.36 (KHTML, like Gecko) Chrome/92.0.4515.131 Safari/537.36 SLBrowser/8.0.0.7271 SLBChan/7","WebKit","Chrome","92.0.4515.131","Windows","10.0","null","<div style=""font-size:60px;"">+</div>","null",""
"","","","","","html-button-response","5","104895","0.0-4.0-1.0","55","1","2022-10-31 11:00:20","ebf9627b049f568eb4bf28942cb89901","116.224.237.148","Mozilla/5.0 (Windows NT 10.0; WOW64) AppleWebKit/537.36 (KHTML, like Gecko) Chrome/92.0.4515.131 Safari/537.36 SLBrowser/8.0.0.7271 SLBChan/7","WebKit","Chrome","92.0.4515.131","Windows","10.0","16288","<p>作为军队的指挥官，你可以选择发射导弹杀死 <strong>1名</strong> 敌国士兵，但会误杀附近的 <strong>1名</strong> 敌国平民。</p> <p>平民照片如下图所示。</p> <p></p> <img src='stimuli/faces/NFM2.jpg', style='max-width: 30%;'> </img> <p><strong>你是否选择发射武器？</strong></p>","1",""
"","","","","","html-keyboard-response","6","105899","0.0-4.0-0.1","55","1","2022-10-31 11:00:20","ebf9627b049f568eb4bf28942cb89901","116.224.237.148","Mozilla/5.0 (Windows NT 10.0; WOW64) AppleWebKit/537.36 (KHTML, like Gecko) Chrome/92.0.4515.131 Safari/537.36 SLBrowser/8.0.0.7271 SLBChan/7","WebKit","Chrome","92.0.4515.131","Windows","10.0","null","<div style=""font-size:60px;"">+</div>","null",""
"","","","","","html-button-response","7","115127","0.0-4.0-1.1","55","1","2022-10-31 11:00:20","ebf9627b049f568eb4bf28942cb89901","116.224.237.148","Mozilla/5.0 (Windows NT 10.0; WOW64) AppleWebKit/537.36 (KHTML, like Gecko) Chrome/92.0.4515.131 Safari/537.36 SLBrowser/8.0.0.7271 SLBChan/7","WebKit","Chrome","92.0.4515.131","Windows","10.0","9226","<p>作为军队的指挥官，你可以选择发射导弹杀死 <strong>1名</strong> 敌国士兵，但会误杀附近的 <strong>1名</strong> 敌国平民。</p> <p>平民照片如下图所示。</p> <p></p> <img src='stimuli/faces/NFM5.jpg', style='max-width: 30%;'> </img> <p><strong>你是否选择发射武器？</strong></p>","1",""
"","","","","","html-keyboard-response","8","116129","0.0-4.0-0.2","55","1","2022-10-31 11:00:20","ebf9627b049f568eb4bf28942cb89901","116.224.237.148","Mozilla/5.0 (Windows NT 10.0; WOW64) AppleWebKit/537.36 (KHTML, like Gecko) Chrome/92.0.4515.131 Safari/537.36 SLBrowser/8.0.0.7271 SLBChan/7","WebKit","Chrome","92.0.4515.131","Windows","10.0","null","<div style=""font-size:60px;"">+</div>","null",""
"","","","","","html-button-response","9","122968","0.0-4.0-1.2","55","1","2022-10-31 11:00:20","ebf9627b049f568eb4bf28942cb89901","116.224.237.148","Mozilla/5.0 (Windows NT 10.0; WOW64) AppleWebKit/537.36 (KHTML, like Gecko) Chrome/92.0.4515.131 Safari/537.36 SLBrowser/8.0.0.7271 SLBChan/7","WebKit","Chrome","92.0.4515.131","Windows","10.0","6836","<p>作为军队的指挥官，你可以选择发射导弹杀死 <strong>2名</strong> 敌国士兵，但会炸毁附近的 <strong>1棵</strong> 敌国树木。</p> <p>树木的照片如下图所示。</p> <p></p> <img src='stimuli/trees/15.png', style='max-width: 30%;'> </img> <p><strong>你是否选择发射武器？</strong></p>","0",""
"","","","","","html-keyboard-response","10","123971","0.0-4.0-0.3","55","1","2022-10-31 11:00:20","ebf9627b049f568eb4bf28942cb89901","116.224.237.148","Mozilla/5.0 (Windows NT 10.0; WOW64) AppleWebKit/537.36 (KHTML, like Gecko) Chrome/92.0.4515.131 Safari/537.36 SLBrowser/8.0.0.7271 SLBChan/7","WebKit","Chrome","92.0.4515.131","Windows","10.0","null","<div style=""font-size:60px;"">+</div>","null",""
"","","","","","html-button-response","11","138481","0.0-4.0-1.3","55","1","2022-10-31 11:00:20","ebf9627b049f568eb4bf28942cb89901","116.224.237.148","Mozilla/5.0 (Windows NT 10.0; WOW64) AppleWebKit/537.36 (KHTML, like Gecko) Chrome/92.0.4515.131 Safari/537.36 SLBrowser/8.0.0.7271 SLBChan/7","WebKit","Chrome","92.0.4515.131","Windows","10.0","14508","<p>作为军队的指挥官，你可以选择发射导弹杀死 <strong>2名</strong> 敌国士兵，但会误杀附近的 <strong>1名</strong> 敌国平民。</p> <p>平民照片如下图所示。</p> <p></p> <img src='stimuli/faces/NFF4.jpg', style='max-width: 30%;'> </img> <p><strong>你是否选择发射武器？</strong></p>","1",""
"","","","","","html-keyboard-response","12","139483","0.0-4.0-0.4","55","1","2022-10-31 11:00:20","ebf9627b049f568eb4bf28942cb89901","116.224.237.148","Mozilla/5.0 (Windows NT 10.0; WOW64) AppleWebKit/537.36 (KHTML, like Gecko) Chrome/92.0.4515.131 Safari/537.36 SLBrowser/8.0.0.7271 SLBChan/7","WebKit","Chrome","92.0.4515.131","Windows","10.0","null","<div style=""font-size:60px;"">+</div>","null",""
"","","","","","html-button-response","13","141839","0.0-4.0-1.4","55","1","2022-10-31 11:00:20","ebf9627b049f568eb4bf28942cb89901","116.224.237.148","Mozilla/5.0 (Windows NT 10.0; WOW64) AppleWebKit/537.36 (KHTML, like Gecko) Chrome/92.0.4515.131 Safari/537.36 SLBrowser/8.0.0.7271 SLBChan/7","WebKit","Chrome","92.0.4515.131","Windows","10.0","2354","<p>作为军队的指挥官，你可以选择发射导弹杀死 <strong>10名</strong> 敌国士兵，但会炸毁附近的 <strong>1棵</strong> 敌国树木。</p> <p>树木的照片如下图所示。</p> <p></p> <img src='stimuli/trees/7.png', style='max-width: 30%;'> </img> <p><strong>你是否选择发射武器？</strong></p>","0",""
"","","","","","html-keyboard-response","14","142842","0.0-4.0-0.5","55","1","2022-10-31 11:00:20","ebf9627b049f568eb4bf28942cb89901","116.224.237.148","Mozilla/5.0 (Windows NT 10.0; WOW64) AppleWebKit/537.36 (KHTML, like Gecko) Chrome/92.0.4515.131 Safari/537.36 SLBrowser/8.0.0.7271 SLBChan/7","WebKit","Chrome","92.0.4515.131","Windows","10.0","null","<div style=""font-size:60px;"">+</div>","null",""
"","","","","","html-button-response","15","146935","0.0-4.0-1.5","55","1","2022-10-31 11:00:20","ebf9627b049f568eb4bf28942cb89901","116.224.237.148","Mozilla/5.0 (Windows NT 10.0; WOW64) AppleWebKit/537.36 (KHTML, like Gecko) Chrome/92.0.4515.131 Safari/537.36 SLBrowser/8.0.0.7271 SLBChan/7","WebKit","Chrome","92.0.4515.131","Windows","10.0","4090","<p>作为军队的指挥官，你可以选择发射导弹杀死 <strong>7名</strong> 敌国士兵，但会误杀附近的 <strong>1名</strong> 敌国平民。</p> <p>平民照片如下图所示。</p> <p></p> <img src='stimuli/faces/NFF2.jpg', style='max-width: 30%;'> </img> <p><strong>你是否选择发射武器？</strong></p>","0",""
"","","","","","html-keyboard-response","16","147936","0.0-4.0-0.6","55","1","2022-10-31 11:00:20","ebf9627b049f568eb4bf28942cb89901","116.224.237.148","Mozilla/5.0 (Windows NT 10.0; WOW64) AppleWebKit/537.36 (KHTML, like Gecko) Chrome/92.0.4515.131 Safari/537.36 SLBrowser/8.0.0.7271 SLBChan/7","WebKit","Chrome","92.0.4515.131","Windows","10.0","null","<div style=""font-size:60px;"">+</div>","null",""
"","","","","","html-button-response","17","149400","0.0-4.0-1.6","55","1","2022-10-31 11:00:20","ebf9627b049f568eb4bf28942cb89901","116.224.237.148","Mozilla/5.0 (Windows NT 10.0; WOW64) AppleWebKit/537.36 (KHTML, like Gecko) Chrome/92.0.4515.131 Safari/537.36 SLBrowser/8.0.0.7271 SLBChan/7","WebKit","Chrome","92.0.4515.131","Windows","10.0","1461","<p>作为军队的指挥官，你可以选择发射导弹杀死 <strong>6名</strong> 敌国士兵，但会误杀附近的 <strong>1名</strong> 敌国平民。</p> <p>平民照片如下图所示。</p> <p></p> <img src='stimuli/faces/NFM6.jpg', style='max-width: 30%;'> </img> <p><strong>你是否选择发射武器？</strong></p>","0",""
"","","","","","html-keyboard-response","18","150403","0.0-4.0-0.7","55","1","2022-10-31 11:00:20","ebf9627b049f568eb4bf28942cb89901","116.224.237.148","Mozilla/5.0 (Windows NT 10.0; WOW64) AppleWebKit/537.36 (KHTML, like Gecko) Chrome/92.0.4515.131 Safari/537.36 SLBrowser/8.0.0.7271 SLBChan/7","WebKit","Chrome","92.0.4515.131","Windows","10.0","null","<div style=""font-size:60px;"">+</div>","null",""
"","","","","","html-button-response","19","155232","0.0-4.0-1.7","55","1","2022-10-31 11:00:20","ebf9627b049f568eb4bf28942cb89901","116.224.237.148","Mozilla/5.0 (Windows NT 10.0; WOW64) AppleWebKit/537.36 (KHTML, like Gecko) Chrome/92.0.4515.131 Safari/537.36 SLBrowser/8.0.0.7271 SLBChan/7","WebKit","Chrome","92.0.4515.131","Windows","10.0","4827","<p>作为军队的指挥官，你可以选择发射导弹杀死 <strong>2名</strong> 敌国士兵，但会误杀附近的 <strong>1名</strong> 敌国平民。</p> <p>平民照片如下图所示。</p> <p></p> <img src='stimuli/faces/NFF2.jpg', style='max-width: 30%;'> </img> <p><strong>你是否选择发射武器？</strong></p>","1",""
"","","","","","html-keyboard-response","20","156235","0.0-4.0-0.8","55","1","2022-10-31 11:00:20","ebf9627b049f568eb4bf28942cb89901","116.224.237.148","Mozilla/5.0 (Windows NT 10.0; WOW64) AppleWebKit/537.36 (KHTML, like Gecko) Chrome/92.0.4515.131 Safari/537.36 SLBrowser/8.0.0.7271 SLBChan/7","WebKit","Chrome","92.0.4515.131","Windows","10.0","null","<div style=""font-size:60px;"">+</div>","null",""
"","","","","","html-button-response","21","161576","0.0-4.0-1.8","55","1","2022-10-31 11:00:20","ebf9627b049f568eb4bf28942cb89901","116.224.237.148","Mozilla/5.0 (Windows NT 10.0; WOW64) AppleWebKit/537.36 (KHTML, like Gecko) Chrome/92.0.4515.131 Safari/537.36 SLBrowser/8.0.0.7271 SLBChan/7","WebKit","Chrome","92.0.4515.131","Windows","10.0","5339","<p>作为军队的指挥官，你可以选择发射导弹杀死 <strong>2名</strong> 敌国士兵，但会误杀附近的 <strong>1名</strong> 敌国平民。</p> <p>平民照片如下图所示。</p> <p></p> <img src='stimuli/faces/NFF8.jpg', style='max-width: 30%;'> </img> <p><strong>你是否选择发射武器？</strong></p>","1",""
"","","","","","html-keyboard-response","22","162578","0.0-4.0-0.9","55","1","2022-10-31 11:00:20","ebf9627b049f568eb4bf28942cb89901","116.224.237.148","Mozilla/5.0 (Windows NT 10.0; WOW64) AppleWebKit/537.36 (KHTML, like Gecko) Chrome/92.0.4515.131 Safari/537.36 SLBrowser/8.0.0.7271 SLBChan/7","WebKit","Chrome","92.0.4515.131","Windows","10.0","null","<div style=""font-size:60px;"">+</div>","null",""
"","","","","","html-button-response","23","164392","0.0-4.0-1.9","55","1","2022-10-31 11:00:20","ebf9627b049f568eb4bf28942cb89901","116.224.237.148","Mozilla/5.0 (Windows NT 10.0; WOW64) AppleWebKit/537.36 (KHTML, like Gecko) Chrome/92.0.4515.131 Safari/537.36 SLBrowser/8.0.0.7271 SLBChan/7","WebKit","Chrome","92.0.4515.131","Windows","10.0","1811","<p>作为军队的指挥官，你可以选择发射导弹杀死 <strong>10名</strong> 敌国士兵，但会误杀附近的 <strong>1名</strong> 敌国平民。</p> <p>平民照片如下图所示。</p> <p></p> <img src='stimuli/faces/NFF7.jpg', style='max-width: 30%;'> </img> <p><strong>你是否选择发射武器？</strong></p>","1",""
"","","","","","html-keyboard-response","24","165394","0.0-4.0-0.10","55","1","2022-10-31 11:00:20","ebf9627b049f568eb4bf28942cb89901","116.224.237.148","Mozilla/5.0 (Windows NT 10.0; WOW64) AppleWebKit/537.36 (KHTML, like Gecko) Chrome/92.0.4515.131 Safari/537.36 SLBrowser/8.0.0.7271 SLBChan/7","WebKit","Chrome","92.0.4515.131","Windows","10.0","null","<div style=""font-size:60px;"">+</div>","null",""
"","","","","","html-button-response","25","167776","0.0-4.0-1.10","55","1","2022-10-31 11:00:20","ebf9627b049f568eb4bf28942cb89901","116.224.237.148","Mozilla/5.0 (Windows NT 10.0; WOW64) AppleWebKit/537.36 (KHTML, like Gecko) Chrome/92.0.4515.131 Safari/537.36 SLBrowser/8.0.0.7271 SLBChan/7","WebKit","Chrome","92.0.4515.131","Windows","10.0","2380","<p>作为军队的指挥官，你可以选择发射导弹杀死 <strong>9名</strong> 敌国士兵，但会炸毁附近的 <strong>1棵</strong> 敌国树木。</p> <p>树木的照片如下图所示。</p> <p></p> <img src='stimuli/trees/2.png', style='max-width: 30%;'> </img> <p><strong>你是否选择发射武器？</strong></p>","0",""
"","","","","","html-keyboard-response","26","168779","0.0-4.0-0.11","55","1","2022-10-31 11:00:20","ebf9627b049f568eb4bf28942cb89901","116.224.237.148","Mozilla/5.0 (Windows NT 10.0; WOW64) AppleWebKit/537.36 (KHTML, like Gecko) Chrome/92.0.4515.131 Safari/537.36 SLBrowser/8.0.0.7271 SLBChan/7","WebKit","Chrome","92.0.4515.131","Windows","10.0","null","<div style=""font-size:60px;"">+</div>","null",""
"","","","","","html-button-response","27","169984","0.0-4.0-1.11","55","1","2022-10-31 11:00:20","ebf9627b049f568eb4bf28942cb89901","116.224.237.148","Mozilla/5.0 (Windows NT 10.0; WOW64) AppleWebKit/537.36 (KHTML, like Gecko) Chrome/92.0.4515.131 Safari/537.36 SLBrowser/8.0.0.7271 SLBChan/7","WebKit","Chrome","92.0.4515.131","Windows","10.0","1202","<p>作为军队的指挥官，你可以选择发射导弹杀死 <strong>2名</strong> 敌国士兵，但会炸毁附近的 <strong>1棵</strong> 敌国树木。</p> <p>树木的照片如下图所示。</p> <p></p> <img src='stimuli/trees/9.png', style='max-width: 30%;'> </img> <p><strong>你是否选择发射武器？</strong></p>","0",""
"","","","","","html-keyboard-response","28","170987","0.0-4.0-0.12","55","1","2022-10-31 11:00:20","ebf9627b049f568eb4bf28942cb89901","116.224.237.148","Mozilla/5.0 (Windows NT 10.0; WOW64) AppleWebKit/537.36 (KHTML, like Gecko) Chrome/92.0.4515.131 Safari/537.36 SLBrowser/8.0.0.7271 SLBChan/7","WebKit","Chrome","92.0.4515.131","Windows","10.0","null","<div style=""font-size:60px;"">+</div>","null",""
"","","","","","html-button-response","29","175080","0.0-4.0-1.12","55","1","2022-10-31 11:00:20","ebf9627b049f568eb4bf28942cb89901","116.224.237.148","Mozilla/5.0 (Windows NT 10.0; WOW64) AppleWebKit/537.36 (KHTML, like Gecko) Chrome/92.0.4515.131 Safari/537.36 SLBrowser/8.0.0.7271 SLBChan/7","WebKit","Chrome","92.0.4515.131","Windows","10.0","4091","<p>作为军队的指挥官，你可以选择发射导弹杀死 <strong>6名</strong> 敌国士兵，但会误杀附近的 <strong>1名</strong> 敌国平民。</p> <p>平民照片如下图所示。</p> <p></p> <img src='stimuli/faces/NFF5.jpg', style='max-width: 30%;'> </img> <p><strong>你是否选择发射武器？</strong></p>","1",""
"","","","","","html-keyboard-response","30","176084","0.0-4.0-0.13","55","1","2022-10-31 11:00:20","ebf9627b049f568eb4bf28942cb89901","116.224.237.148","Mozilla/5.0 (Windows NT 10.0; WOW64) AppleWebKit/537.36 (KHTML, like Gecko) Chrome/92.0.4515.131 Safari/537.36 SLBrowser/8.0.0.7271 SLBChan/7","WebKit","Chrome","92.0.4515.131","Windows","10.0","null","<div style=""font-size:60px;"">+</div>","null",""
"","","","","","html-button-response","31","181255","0.0-4.0-1.13","55","1","2022-10-31 11:00:20","ebf9627b049f568eb4bf28942cb89901","116.224.237.148","Mozilla/5.0 (Windows NT 10.0; WOW64) AppleWebKit/537.36 (KHTML, like Gecko) Chrome/92.0.4515.131 Safari/537.36 SLBrowser/8.0.0.7271 SLBChan/7","WebKit","Chrome","92.0.4515.131","Windows","10.0","5169","<p>作为军队的指挥官，你可以选择发射导弹杀死 <strong>7名</strong> 敌国士兵，但会炸毁附近的 <strong>1棵</strong> 敌国树木。</p> <p>树木的照片如下图所示。</p> <p></p> <img src='stimuli/trees/15.png', style='max-width: 30%;'> </img> <p><strong>你是否选择发射武器？</strong></p>","0",""
"","","","","","html-keyboard-response","32","182259","0.0-4.0-0.14","55","1","2022-10-31 11:00:20","ebf9627b049f568eb4bf28942cb89901","116.224.237.148","Mozilla/5.0 (Windows NT 10.0; WOW64) AppleWebKit/537.36 (KHTML, like Gecko) Chrome/92.0.4515.131 Safari/537.36 SLBrowser/8.0.0.7271 SLBChan/7","WebKit","Chrome","92.0.4515.131","Windows","10.0","null","<div style=""font-size:60px;"">+</div>","null",""
"","","","","","html-button-response","33","184968","0.0-4.0-1.14","55","1","2022-10-31 11:00:20","ebf9627b049f568eb4bf28942cb89901","116.224.237.148","Mozilla/5.0 (Windows NT 10.0; WOW64) AppleWebKit/537.36 (KHTML, like Gecko) Chrome/92.0.4515.131 Safari/537.36 SLBrowser/8.0.0.7271 SLBChan/7","WebKit","Chrome","92.0.4515.131","Windows","10.0","2706","<p>作为军队的指挥官，你可以选择发射导弹杀死 <strong>7名</strong> 敌国士兵，但会炸毁附近的 <strong>1棵</strong> 敌国树木。</p> <p>树木的照片如下图所示。</p> <p></p> <img src='stimuli/trees/12.png', style='max-width: 30%;'> </img> <p><strong>你是否选择发射武器？</strong></p>","0",""
"","","","","","html-keyboard-response","34","185970","0.0-4.0-0.15","55","1","2022-10-31 11:00:20","ebf9627b049f568eb4bf28942cb89901","116.224.237.148","Mozilla/5.0 (Windows NT 10.0; WOW64) AppleWebKit/537.36 (KHTML, like Gecko) Chrome/92.0.4515.131 Safari/537.36 SLBrowser/8.0.0.7271 SLBChan/7","WebKit","Chrome","92.0.4515.131","Windows","10.0","null","<div style=""font-size:60px;"">+</div>","null",""
"","","","","","html-button-response","35","190192","0.0-4.0-1.15","55","1","2022-10-31 11:00:20","ebf9627b049f568eb4bf28942cb89901","116.224.237.148","Mozilla/5.0 (Windows NT 10.0; WOW64) AppleWebKit/537.36 (KHTML, like Gecko) Chrome/92.0.4515.131 Safari/537.36 SLBrowser/8.0.0.7271 SLBChan/7","WebKit","Chrome","92.0.4515.131","Windows","10.0","4219","<p>作为军队的指挥官，你可以选择发射导弹杀死 <strong>8名</strong> 敌国士兵，但会误杀附近的 <strong>1名</strong> 敌国平民。</p> <p>平民照片如下图所示。</p> <p></p> <img src='stimuli/faces/NFM4.jpg', style='max-width: 30%;'> </img> <p><strong>你是否选择发射武器？</strong></p>","0",""
"","","","","","html-keyboard-response","36","191195","0.0-4.0-0.16","55","1","2022-10-31 11:00:20","ebf9627b049f568eb4bf28942cb89901","116.224.237.148","Mozilla/5.0 (Windows NT 10.0; WOW64) AppleWebKit/537.36 (KHTML, like Gecko) Chrome/92.0.4515.131 Safari/537.36 SLBrowser/8.0.0.7271 SLBChan/7","WebKit","Chrome","92.0.4515.131","Windows","10.0","null","<div style=""font-size:60px;"">+</div>","null",""
"","","","","","html-button-response","37","195336","0.0-4.0-1.16","55","1","2022-10-31 11:00:20","ebf9627b049f568eb4bf28942cb89901","116.224.237.148","Mozilla/5.0 (Windows NT 10.0; WOW64) AppleWebKit/537.36 (KHTML, like Gecko) Chrome/92.0.4515.131 Safari/537.36 SLBrowser/8.0.0.7271 SLBChan/7","WebKit","Chrome","92.0.4515.131","Windows","10.0","4139","<p>作为军队的指挥官，你可以选择发射导弹杀死 <strong>6名</strong> 敌国士兵，但会误杀附近的 <strong>1名</strong> 敌国平民。</p> <p>平民照片如下图所示。</p> <p></p> <img src='stimuli/faces/NFM5.jpg', style='max-width: 30%;'> </img> <p><strong>你是否选择发射武器？</strong></p>","0",""
"","","","","","html-keyboard-response","38","196339","0.0-4.0-0.17","55","1","2022-10-31 11:00:20","ebf9627b049f568eb4bf28942cb89901","116.224.237.148","Mozilla/5.0 (Windows NT 10.0; WOW64) AppleWebKit/537.36 (KHTML, like Gecko) Chrome/92.0.4515.131 Safari/537.36 SLBrowser/8.0.0.7271 SLBChan/7","WebKit","Chrome","92.0.4515.131","Windows","10.0","null","<div style=""font-size:60px;"">+</div>","null",""
"","","","","","html-button-response","39","197967","0.0-4.0-1.17","55","1","2022-10-31 11:00:20","ebf9627b049f568eb4bf28942cb89901","116.224.237.148","Mozilla/5.0 (Windows NT 10.0; WOW64) AppleWebKit/537.36 (KHTML, like Gecko) Chrome/92.0.4515.131 Safari/537.36 SLBrowser/8.0.0.7271 SLBChan/7","WebKit","Chrome","92.0.4515.131","Windows","10.0","1626","<p>作为军队的指挥官，你可以选择发射导弹杀死 <strong>9名</strong> 敌国士兵，但会炸毁附近的 <strong>1棵</strong> 敌国树木。</p> <p>树木的照片如下图所示。</p> <p></p> <img src='stimuli/trees/16.png', style='max-width: 30%;'> </img> <p><strong>你是否选择发射武器？</strong></p>","0",""
"","","","","","html-keyboard-response","40","198970","0.0-4.0-0.18","55","1","2022-10-31 11:00:20","ebf9627b049f568eb4bf28942cb89901","116.224.237.148","Mozilla/5.0 (Windows NT 10.0; WOW64) AppleWebKit/537.36 (KHTML, like Gecko) Chrome/92.0.4515.131 Safari/537.36 SLBrowser/8.0.0.7271 SLBChan/7","WebKit","Chrome","92.0.4515.131","Windows","10.0","null","<div style=""font-size:60px;"">+</div>","null",""
"","","","","","html-button-response","41","200368","0.0-4.0-1.18","55","1","2022-10-31 11:00:20","ebf9627b049f568eb4bf28942cb89901","116.224.237.148","Mozilla/5.0 (Windows NT 10.0; WOW64) AppleWebKit/537.36 (KHTML, like Gecko) Chrome/92.0.4515.131 Safari/537.36 SLBrowser/8.0.0.7271 SLBChan/7","WebKit","Chrome","92.0.4515.131","Windows","10.0","1395","<p>作为军队的指挥官，你可以选择发射导弹杀死 <strong>6名</strong> 敌国士兵，但会炸毁附近的 <strong>1棵</strong> 敌国树木。</p> <p>树木的照片如下图所示。</p> <p></p> <img src='stimuli/trees/4.png', style='max-width: 30%;'> </img> <p><strong>你是否选择发射武器？</strong></p>","0",""
"","","","","","html-keyboard-response","42","201371","0.0-4.0-0.19","55","1","2022-10-31 11:00:20","ebf9627b049f568eb4bf28942cb89901","116.224.237.148","Mozilla/5.0 (Windows NT 10.0; WOW64) AppleWebKit/537.36 (KHTML, like Gecko) Chrome/92.0.4515.131 Safari/537.36 SLBrowser/8.0.0.7271 SLBChan/7","WebKit","Chrome","92.0.4515.131","Windows","10.0","null","<div style=""font-size:60px;"">+</div>","null",""
"","","","","","html-button-response","43","203137","0.0-4.0-1.19","55","1","2022-10-31 11:00:20","ebf9627b049f568eb4bf28942cb89901","116.224.237.148","Mozilla/5.0 (Windows NT 10.0; WOW64) AppleWebKit/537.36 (KHTML, like Gecko) Chrome/92.0.4515.131 Safari/537.36 SLBrowser/8.0.0.7271 SLBChan/7","WebKit","Chrome","92.0.4515.131","Windows","10.0","1763","<p>作为军队的指挥官，你可以选择发射导弹杀死 <strong>4名</strong> 敌国士兵，但会炸毁附近的 <strong>1棵</strong> 敌国树木。</p> <p>树木的照片如下图所示。</p> <p></p> <img src='stimuli/trees/16.png', style='max-width: 30%;'> </img> <p><strong>你是否选择发射武器？</strong></p>","0",""
"","","","","","html-keyboard-response","44","204140","0.0-4.0-0.20","55","1","2022-10-31 11:00:20","ebf9627b049f568eb4bf28942cb89901","116.224.237.148","Mozilla/5.0 (Windows NT 10.0; WOW64) AppleWebKit/537.36 (KHTML, like Gecko) Chrome/92.0.4515.131 Safari/537.36 SLBrowser/8.0.0.7271 SLBChan/7","WebKit","Chrome","92.0.4515.131","Windows","10.0","null","<div style=""font-size:60px;"">+</div>","null",""
"","","","","","html-button-response","45","205096","0.0-4.0-1.20","55","1","2022-10-31 11:00:20","ebf9627b049f568eb4bf28942cb89901","116.224.237.148","Mozilla/5.0 (Windows NT 10.0; WOW64) AppleWebKit/537.36 (KHTML, like Gecko) Chrome/92.0.4515.131 Safari/537.36 SLBrowser/8.0.0.7271 SLBChan/7","WebKit","Chrome","92.0.4515.131","Windows","10.0","952","<p>作为军队的指挥官，你可以选择发射导弹杀死 <strong>8名</strong> 敌国士兵，但会炸毁附近的 <strong>1棵</strong> 敌国树木。</p> <p>树木的照片如下图所示。</p> <p></p> <img src='stimuli/trees/9.png', style='max-width: 30%;'> </img> <p><strong>你是否选择发射武器？</strong></p>","0",""
"","","","","","html-keyboard-response","46","206099","0.0-4.0-0.21","55","1","2022-10-31 11:00:20","ebf9627b049f568eb4bf28942cb89901","116.224.237.148","Mozilla/5.0 (Windows NT 10.0; WOW64) AppleWebKit/537.36 (KHTML, like Gecko) Chrome/92.0.4515.131 Safari/537.36 SLBrowser/8.0.0.7271 SLBChan/7","WebKit","Chrome","92.0.4515.131","Windows","10.0","null","<div style=""font-size:60px;"">+</div>","null",""
"","","","","","html-button-response","47","207088","0.0-4.0-1.21","55","1","2022-10-31 11:00:20","ebf9627b049f568eb4bf28942cb89901","116.224.237.148","Mozilla/5.0 (Windows NT 10.0; WOW64) AppleWebKit/537.36 (KHTML, like Gecko) Chrome/92.0.4515.131 Safari/537.36 SLBrowser/8.0.0.7271 SLBChan/7","WebKit","Chrome","92.0.4515.131","Windows","10.0","985","<p>作为军队的指挥官，你可以选择发射导弹杀死 <strong>3名</strong> 敌国士兵，但会炸毁附近的 <strong>1棵</strong> 敌国树木。</p> <p>树木的照片如下图所示。</p> <p></p> <img src='stimuli/trees/12.png', style='max-width: 30%;'> </img> <p><strong>你是否选择发射武器？</strong></p>","0",""
"","","","","","html-keyboard-response","48","208090","0.0-4.0-0.22","55","1","2022-10-31 11:00:20","ebf9627b049f568eb4bf28942cb89901","116.224.237.148","Mozilla/5.0 (Windows NT 10.0; WOW64) AppleWebKit/537.36 (KHTML, like Gecko) Chrome/92.0.4515.131 Safari/537.36 SLBrowser/8.0.0.7271 SLBChan/7","WebKit","Chrome","92.0.4515.131","Windows","10.0","null","<div style=""font-size:60px;"">+</div>","null",""
"","","","","","html-button-response","49","208807","0.0-4.0-1.22","55","1","2022-10-31 11:00:20","ebf9627b049f568eb4bf28942cb89901","116.224.237.148","Mozilla/5.0 (Windows NT 10.0; WOW64) AppleWebKit/537.36 (KHTML, like Gecko) Chrome/92.0.4515.131 Safari/537.36 SLBrowser/8.0.0.7271 SLBChan/7","WebKit","Chrome","92.0.4515.131","Windows","10.0","714","<p>作为军队的指挥官，你可以选择发射导弹杀死 <strong>2名</strong> 敌国士兵，但会炸毁附近的 <strong>1棵</strong> 敌国树木。</p> <p>树木的照片如下图所示。</p> <p></p> <img src='stimuli/trees/4.png', style='max-width: 30%;'> </img> <p><strong>你是否选择发射武器？</strong></p>","0",""
"","","","","","html-keyboard-response","50","209810","0.0-4.0-0.23","55","1","2022-10-31 11:00:20","ebf9627b049f568eb4bf28942cb89901","116.224.237.148","Mozilla/5.0 (Windows NT 10.0; WOW64) AppleWebKit/537.36 (KHTML, like Gecko) Chrome/92.0.4515.131 Safari/537.36 SLBrowser/8.0.0.7271 SLBChan/7","WebKit","Chrome","92.0.4515.131","Windows","10.0","null","<div style=""font-size:60px;"">+</div>","null",""
"","","","","","html-button-response","51","216143","0.0-4.0-1.23","55","1","2022-10-31 11:00:20","ebf9627b049f568eb4bf28942cb89901","116.224.237.148","Mozilla/5.0 (Windows NT 10.0; WOW64) AppleWebKit/537.36 (KHTML, like Gecko) Chrome/92.0.4515.131 Safari/537.36 SLBrowser/8.0.0.7271 SLBChan/7","WebKit","Chrome","92.0.4515.131","Windows","10.0","6330","<p>作为军队的指挥官，你可以选择发射导弹杀死 <strong>6名</strong> 敌国士兵，但会误杀附近的 <strong>1名</strong> 敌国平民。</p> <p>平民照片如下图所示。</p> <p></p> <img src='stimuli/faces/NFM1.jpg', style='max-width: 30%;'> </img> <p><strong>你是否选择发射武器？</strong></p>","1",""
"","","","","","html-keyboard-response","52","217146","0.0-4.0-0.24","55","1","2022-10-31 11:00:20","ebf9627b049f568eb4bf28942cb89901","116.224.237.148","Mozilla/5.0 (Windows NT 10.0; WOW64) AppleWebKit/537.36 (KHTML, like Gecko) Chrome/92.0.4515.131 Safari/537.36 SLBrowser/8.0.0.7271 SLBChan/7","WebKit","Chrome","92.0.4515.131","Windows","10.0","null","<div style=""font-size:60px;"">+</div>","null",""
"","","","","","html-button-response","53","218552","0.0-4.0-1.24","55","1","2022-10-31 11:00:20","ebf9627b049f568eb4bf28942cb89901","116.224.237.148","Mozilla/5.0 (Windows NT 10.0; WOW64) AppleWebKit/537.36 (KHTML, like Gecko) Chrome/92.0.4515.131 Safari/537.36 SLBrowser/8.0.0.7271 SLBChan/7","WebKit","Chrome","92.0.4515.131","Windows","10.0","1402","<p>作为军队的指挥官，你可以选择发射导弹杀死 <strong>6名</strong> 敌国士兵，但会炸毁附近的 <strong>1棵</strong> 敌国树木。</p> <p>树木的照片如下图所示。</p> <p></p> <img src='stimuli/trees/6.png', style='max-width: 30%;'> </img> <p><strong>你是否选择发射武器？</strong></p>","0",""
"","","","","","html-keyboard-response","54","219556","0.0-4.0-0.25","55","1","2022-10-31 11:00:20","ebf9627b049f568eb4bf28942cb89901","116.224.237.148","Mozilla/5.0 (Windows NT 10.0; WOW64) AppleWebKit/537.36 (KHTML, like Gecko) Chrome/92.0.4515.131 Safari/537.36 SLBrowser/8.0.0.7271 SLBChan/7","WebKit","Chrome","92.0.4515.131","Windows","10.0","null","<div style=""font-size:60px;"">+</div>","null",""
"","","","","","html-button-response","55","220880","0.0-4.0-1.25","55","1","2022-10-31 11:00:20","ebf9627b049f568eb4bf28942cb89901","116.224.237.148","Mozilla/5.0 (Windows NT 10.0; WOW64) AppleWebKit/537.36 (KHTML, like Gecko) Chrome/92.0.4515.131 Safari/537.36 SLBrowser/8.0.0.7271 SLBChan/7","WebKit","Chrome","92.0.4515.131","Windows","10.0","1321","<p>作为军队的指挥官，你可以选择发射导弹杀死 <strong>4名</strong> 敌国士兵，但会炸毁附近的 <strong>1棵</strong> 敌国树木。</p> <p>树木的照片如下图所示。</p> <p></p> <img src='stimuli/trees/14.png', style='max-width: 30%;'> </img> <p><strong>你是否选择发射武器？</strong></p>","0",""
"","","","","","html-keyboard-response","56","221884","0.0-4.0-0.26","55","1","2022-10-31 11:00:20","ebf9627b049f568eb4bf28942cb89901","116.224.237.148","Mozilla/5.0 (Windows NT 10.0; WOW64) AppleWebKit/537.36 (KHTML, like Gecko) Chrome/92.0.4515.131 Safari/537.36 SLBrowser/8.0.0.7271 SLBChan/7","WebKit","Chrome","92.0.4515.131","Windows","10.0","null","<div style=""font-size:60px;"">+</div>","null",""
"","","","","","html-button-response","57","224776","0.0-4.0-1.26","55","1","2022-10-31 11:00:20","ebf9627b049f568eb4bf28942cb89901","116.224.237.148","Mozilla/5.0 (Windows NT 10.0; WOW64) AppleWebKit/537.36 (KHTML, like Gecko) Chrome/92.0.4515.131 Safari/537.36 SLBrowser/8.0.0.7271 SLBChan/7","WebKit","Chrome","92.0.4515.131","Windows","10.0","2890","<p>作为军队的指挥官，你可以选择发射导弹杀死 <strong>5名</strong> 敌国士兵，但会误杀附近的 <strong>1名</strong> 敌国平民。</p> <p>平民照片如下图所示。</p> <p></p> <img src='stimuli/faces/NFF3.jpg', style='max-width: 30%;'> </img> <p><strong>你是否选择发射武器？</strong></p>","1",""
"","","","","","html-keyboard-response","58","225779","0.0-4.0-0.27","55","1","2022-10-31 11:00:20","ebf9627b049f568eb4bf28942cb89901","116.224.237.148","Mozilla/5.0 (Windows NT 10.0; WOW64) AppleWebKit/537.36 (KHTML, like Gecko) Chrome/92.0.4515.131 Safari/537.36 SLBrowser/8.0.0.7271 SLBChan/7","WebKit","Chrome","92.0.4515.131","Windows","10.0","null","<div style=""font-size:60px;"">+</div>","null",""
"","","","","","html-button-response","59","226904","0.0-4.0-1.27","55","1","2022-10-31 11:00:20","ebf9627b049f568eb4bf28942cb89901","116.224.237.148","Mozilla/5.0 (Windows NT 10.0; WOW64) AppleWebKit/537.36 (KHTML, like Gecko) Chrome/92.0.4515.131 Safari/537.36 SLBrowser/8.0.0.7271 SLBChan/7","WebKit","Chrome","92.0.4515.131","Windows","10.0","1122","<p>作为军队的指挥官，你可以选择发射导弹杀死 <strong>8名</strong> 敌国士兵，但会炸毁附近的 <strong>1棵</strong> 敌国树木。</p> <p>树木的照片如下图所示。</p> <p></p> <img src='stimuli/trees/13.png', style='max-width: 30%;'> </img> <p><strong>你是否选择发射武器？</strong></p>","0",""
"","","","","","html-keyboard-response","60","227907","0.0-4.0-0.28","55","1","2022-10-31 11:00:20","ebf9627b049f568eb4bf28942cb89901","116.224.237.148","Mozilla/5.0 (Windows NT 10.0; WOW64) AppleWebKit/537.36 (KHTML, like Gecko) Chrome/92.0.4515.131 Safari/537.36 SLBrowser/8.0.0.7271 SLBChan/7","WebKit","Chrome","92.0.4515.131","Windows","10.0","null","<div style=""font-size:60px;"">+</div>","null",""
"","","","","","html-button-response","61","232360","0.0-4.0-1.28","55","1","2022-10-31 11:00:20","ebf9627b049f568eb4bf28942cb89901","116.224.237.148","Mozilla/5.0 (Windows NT 10.0; WOW64) AppleWebKit/537.36 (KHTML, like Gecko) Chrome/92.0.4515.131 Safari/537.36 SLBrowser/8.0.0.7271 SLBChan/7","WebKit","Chrome","92.0.4515.131","Windows","10.0","4450","<p>作为军队的指挥官，你可以选择发射导弹杀死 <strong>10名</strong> 敌国士兵，但会误杀附近的 <strong>1名</strong> 敌国平民。</p> <p>平民照片如下图所示。</p> <p></p> <img src='stimuli/faces/NFM3.jpg', style='max-width: 30%;'> </img> <p><strong>你是否选择发射武器？</strong></p>","0",""
"","","","","","html-keyboard-response","62","233363","0.0-4.0-0.29","55","1","2022-10-31 11:00:20","ebf9627b049f568eb4bf28942cb89901","116.224.237.148","Mozilla/5.0 (Windows NT 10.0; WOW64) AppleWebKit/537.36 (KHTML, like Gecko) Chrome/92.0.4515.131 Safari/537.36 SLBrowser/8.0.0.7271 SLBChan/7","WebKit","Chrome","92.0.4515.131","Windows","10.0","null","<div style=""font-size:60px;"">+</div>","null",""
"","","","","","html-button-response","63","234504","0.0-4.0-1.29","55","1","2022-10-31 11:00:20","ebf9627b049f568eb4bf28942cb89901","116.224.237.148","Mozilla/5.0 (Windows NT 10.0; WOW64) AppleWebKit/537.36 (KHTML, like Gecko) Chrome/92.0.4515.131 Safari/537.36 SLBrowser/8.0.0.7271 SLBChan/7","WebKit","Chrome","92.0.4515.131","Windows","10.0","1138","<p>作为军队的指挥官，你可以选择发射导弹杀死 <strong>9名</strong> 敌国士兵，但会炸毁附近的 <strong>1棵</strong> 敌国树木。</p> <p>树木的照片如下图所示。</p> <p></p> <img src='stimuli/trees/11.png', style='max-width: 30%;'> </img> <p><strong>你是否选择发射武器？</strong></p>","0",""
"","","","","","html-keyboard-response","64","235507","0.0-4.0-0.30","55","1","2022-10-31 11:00:20","ebf9627b049f568eb4bf28942cb89901","116.224.237.148","Mozilla/5.0 (Windows NT 10.0; WOW64) AppleWebKit/537.36 (KHTML, like Gecko) Chrome/92.0.4515.131 Safari/537.36 SLBrowser/8.0.0.7271 SLBChan/7","WebKit","Chrome","92.0.4515.131","Windows","10.0","null","<div style=""font-size:60px;"">+</div>","null",""
"","","","","","html-button-response","65","236175","0.0-4.0-1.30","55","1","2022-10-31 11:00:20","ebf9627b049f568eb4bf28942cb89901","116.224.237.148","Mozilla/5.0 (Windows NT 10.0; WOW64) AppleWebKit/537.36 (KHTML, like Gecko) Chrome/92.0.4515.131 Safari/537.36 SLBrowser/8.0.0.7271 SLBChan/7","WebKit","Chrome","92.0.4515.131","Windows","10.0","664","<p>作为军队的指挥官，你可以选择发射导弹杀死 <strong>8名</strong> 敌国士兵，但会炸毁附近的 <strong>1棵</strong> 敌国树木。</p> <p>树木的照片如下图所示。</p> <p></p> <img src='stimuli/trees/5.png', style='max-width: 30%;'> </img> <p><strong>你是否选择发射武器？</strong></p>","0",""
"","","","","","html-keyboard-response","66","237179","0.0-4.0-0.31","55","1","2022-10-31 11:00:20","ebf9627b049f568eb4bf28942cb89901","116.224.237.148","Mozilla/5.0 (Windows NT 10.0; WOW64) AppleWebKit/537.36 (KHTML, like Gecko) Chrome/92.0.4515.131 Safari/537.36 SLBrowser/8.0.0.7271 SLBChan/7","WebKit","Chrome","92.0.4515.131","Windows","10.0","null","<div style=""font-size:60px;"">+</div>","null",""
"","","","","","html-button-response","67","239783","0.0-4.0-1.31","55","1","2022-10-31 11:00:20","ebf9627b049f568eb4bf28942cb89901","116.224.237.148","Mozilla/5.0 (Windows NT 10.0; WOW64) AppleWebKit/537.36 (KHTML, like Gecko) Chrome/92.0.4515.131 Safari/537.36 SLBrowser/8.0.0.7271 SLBChan/7","WebKit","Chrome","92.0.4515.131","Windows","10.0","2601","<p>作为军队的指挥官，你可以选择发射导弹杀死 <strong>10名</strong> 敌国士兵，但会误杀附近的 <strong>1名</strong> 敌国平民。</p> <p>平民照片如下图所示。</p> <p></p> <img src='stimuli/faces/NFF6.jpg', style='max-width: 30%;'> </img> <p><strong>你是否选择发射武器？</strong></p>","1",""
"","","","","","html-keyboard-response","68","240787","0.0-4.0-0.32","55","1","2022-10-31 11:00:20","ebf9627b049f568eb4bf28942cb89901","116.224.237.148","Mozilla/5.0 (Windows NT 10.0; WOW64) AppleWebKit/537.36 (KHTML, like Gecko) Chrome/92.0.4515.131 Safari/537.36 SLBrowser/8.0.0.7271 SLBChan/7","WebKit","Chrome","92.0.4515.131","Windows","10.0","null","<div style=""font-size:60px;"">+</div>","null",""
"","","","","","html-button-response","69","241551","0.0-4.0-1.32","55","1","2022-10-31 11:00:20","ebf9627b049f568eb4bf28942cb89901","116.224.237.148","Mozilla/5.0 (Windows NT 10.0; WOW64) AppleWebKit/537.36 (KHTML, like Gecko) Chrome/92.0.4515.131 Safari/537.36 SLBrowser/8.0.0.7271 SLBChan/7","WebKit","Chrome","92.0.4515.131","Windows","10.0","761","<p>作为军队的指挥官，你可以选择发射导弹杀死 <strong>7名</strong> 敌国士兵，但会炸毁附近的 <strong>1棵</strong> 敌国树木。</p> <p>树木的照片如下图所示。</p> <p></p> <img src='stimuli/trees/14.png', style='max-width: 30%;'> </img> <p><strong>你是否选择发射武器？</strong></p>","0",""
"","","","","","html-keyboard-response","70","242554","0.0-4.0-0.33","55","1","2022-10-31 11:00:20","ebf9627b049f568eb4bf28942cb89901","116.224.237.148","Mozilla/5.0 (Windows NT 10.0; WOW64) AppleWebKit/537.36 (KHTML, like Gecko) Chrome/92.0.4515.131 Safari/537.36 SLBrowser/8.0.0.7271 SLBChan/7","WebKit","Chrome","92.0.4515.131","Windows","10.0","null","<div style=""font-size:60px;"">+</div>","null",""
"","","","","","html-button-response","71","244888","0.0-4.0-1.33","55","1","2022-10-31 11:00:20","ebf9627b049f568eb4bf28942cb89901","116.224.237.148","Mozilla/5.0 (Windows NT 10.0; WOW64) AppleWebKit/537.36 (KHTML, like Gecko) Chrome/92.0.4515.131 Safari/537.36 SLBrowser/8.0.0.7271 SLBChan/7","WebKit","Chrome","92.0.4515.131","Windows","10.0","2330","<p>作为军队的指挥官，你可以选择发射导弹杀死 <strong>10名</strong> 敌国士兵，但会误杀附近的 <strong>1名</strong> 敌国平民。</p> <p>平民照片如下图所示。</p> <p></p> <img src='stimuli/faces/NFM8.jpg', style='max-width: 30%;'> </img> <p><strong>你是否选择发射武器？</strong></p>","0",""
"","","","","","html-keyboard-response","72","245891","0.0-4.0-0.34","55","1","2022-10-31 11:00:20","ebf9627b049f568eb4bf28942cb89901","116.224.237.148","Mozilla/5.0 (Windows NT 10.0; WOW64) AppleWebKit/537.36 (KHTML, like Gecko) Chrome/92.0.4515.131 Safari/537.36 SLBrowser/8.0.0.7271 SLBChan/7","WebKit","Chrome","92.0.4515.131","Windows","10.0","null","<div style=""font-size:60px;"">+</div>","null",""
"","","","","","html-button-response","73","249031","0.0-4.0-1.34","55","1","2022-10-31 11:00:20","ebf9627b049f568eb4bf28942cb89901","116.224.237.148","Mozilla/5.0 (Windows NT 10.0; WOW64) AppleWebKit/537.36 (KHTML, like Gecko) Chrome/92.0.4515.131 Safari/537.36 SLBrowser/8.0.0.7271 SLBChan/7","WebKit","Chrome","92.0.4515.131","Windows","10.0","3138","<p>作为军队的指挥官，你可以选择发射导弹杀死 <strong>4名</strong> 敌国士兵，但会误杀附近的 <strong>1名</strong> 敌国平民。</p> <p>平民照片如下图所示。</p> <p></p> <img src='stimuli/faces/NFM4.jpg', style='max-width: 30%;'> </img> <p><strong>你是否选择发射武器？</strong></p>","0",""
"","","","","","html-keyboard-response","74","250034","0.0-4.0-0.35","55","1","2022-10-31 11:00:20","ebf9627b049f568eb4bf28942cb89901","116.224.237.148","Mozilla/5.0 (Windows NT 10.0; WOW64) AppleWebKit/537.36 (KHTML, like Gecko) Chrome/92.0.4515.131 Safari/537.36 SLBrowser/8.0.0.7271 SLBChan/7","WebKit","Chrome","92.0.4515.131","Windows","10.0","null","<div style=""font-size:60px;"">+</div>","null",""
"","","","","","html-button-response","75","250959","0.0-4.0-1.35","55","1","2022-10-31 11:00:20","ebf9627b049f568eb4bf28942cb89901","116.224.237.148","Mozilla/5.0 (Windows NT 10.0; WOW64) AppleWebKit/537.36 (KHTML, like Gecko) Chrome/92.0.4515.131 Safari/537.36 SLBrowser/8.0.0.7271 SLBChan/7","WebKit","Chrome","92.0.4515.131","Windows","10.0","921","<p>作为军队的指挥官，你可以选择发射导弹杀死 <strong>10名</strong> 敌国士兵，但会炸毁附近的 <strong>1棵</strong> 敌国树木。</p> <p>树木的照片如下图所示。</p> <p></p> <img src='stimuli/trees/8.png', style='max-width: 30%;'> </img> <p><strong>你是否选择发射武器？</strong></p>","0",""
"","","","","","html-keyboard-response","76","251962","0.0-4.0-0.36","55","1","2022-10-31 11:00:20","ebf9627b049f568eb4bf28942cb89901","116.224.237.148","Mozilla/5.0 (Windows NT 10.0; WOW64) AppleWebKit/537.36 (KHTML, like Gecko) Chrome/92.0.4515.131 Safari/537.36 SLBrowser/8.0.0.7271 SLBChan/7","WebKit","Chrome","92.0.4515.131","Windows","10.0","null","<div style=""font-size:60px;"">+</div>","null",""
"","","","","","html-button-response","77","252767","0.0-4.0-1.36","55","1","2022-10-31 11:00:20","ebf9627b049f568eb4bf28942cb89901","116.224.237.148","Mozilla/5.0 (Windows NT 10.0; WOW64) AppleWebKit/537.36 (KHTML, like Gecko) Chrome/92.0.4515.131 Safari/537.36 SLBrowser/8.0.0.7271 SLBChan/7","WebKit","Chrome","92.0.4515.131","Windows","10.0","801","<p>作为军队的指挥官，你可以选择发射导弹杀死 <strong>4名</strong> 敌国士兵，但会炸毁附近的 <strong>1棵</strong> 敌国树木。</p> <p>树木的照片如下图所示。</p> <p></p> <img src='stimuli/trees/3.png', style='max-width: 30%;'> </img> <p><strong>你是否选择发射武器？</strong></p>","0",""
"","","","","","html-keyboard-response","78","253770","0.0-4.0-0.37","55","1","2022-10-31 11:00:20","ebf9627b049f568eb4bf28942cb89901","116.224.237.148","Mozilla/5.0 (Windows NT 10.0; WOW64) AppleWebKit/537.36 (KHTML, like Gecko) Chrome/92.0.4515.131 Safari/537.36 SLBrowser/8.0.0.7271 SLBChan/7","WebKit","Chrome","92.0.4515.131","Windows","10.0","null","<div style=""font-size:60px;"">+</div>","null",""
"","","","","","html-button-response","79","254415","0.0-4.0-1.37","55","1","2022-10-31 11:00:20","ebf9627b049f568eb4bf28942cb89901","116.224.237.148","Mozilla/5.0 (Windows NT 10.0; WOW64) AppleWebKit/537.36 (KHTML, like Gecko) Chrome/92.0.4515.131 Safari/537.36 SLBrowser/8.0.0.7271 SLBChan/7","WebKit","Chrome","92.0.4515.131","Windows","10.0","641","<p>作为军队的指挥官，你可以选择发射导弹杀死 <strong>5名</strong> 敌国士兵，但会炸毁附近的 <strong>1棵</strong> 敌国树木。</p> <p>树木的照片如下图所示。</p> <p></p> <img src='stimuli/trees/8.png', style='max-width: 30%;'> </img> <p><strong>你是否选择发射武器？</strong></p>","0",""
"","","","","","html-keyboard-response","80","255419","0.0-4.0-0.38","55","1","2022-10-31 11:00:20","ebf9627b049f568eb4bf28942cb89901","116.224.237.148","Mozilla/5.0 (Windows NT 10.0; WOW64) AppleWebKit/537.36 (KHTML, like Gecko) Chrome/92.0.4515.131 Safari/537.36 SLBrowser/8.0.0.7271 SLBChan/7","WebKit","Chrome","92.0.4515.131","Windows","10.0","null","<div style=""font-size:60px;"">+</div>","null",""
"","","","","","html-button-response","81","256895","0.0-4.0-1.38","55","1","2022-10-31 11:00:20","ebf9627b049f568eb4bf28942cb89901","116.224.237.148","Mozilla/5.0 (Windows NT 10.0; WOW64) AppleWebKit/537.36 (KHTML, like Gecko) Chrome/92.0.4515.131 Safari/537.36 SLBrowser/8.0.0.7271 SLBChan/7","WebKit","Chrome","92.0.4515.131","Windows","10.0","1473","<p>作为军队的指挥官，你可以选择发射导弹杀死 <strong>2名</strong> 敌国士兵，但会误杀附近的 <strong>1名</strong> 敌国平民。</p> <p>平民照片如下图所示。</p> <p></p> <img src='stimuli/faces/NFM7.jpg', style='max-width: 30%;'> </img> <p><strong>你是否选择发射武器？</strong></p>","0",""
"","","","","","html-keyboard-response","82","257899","0.0-4.0-0.39","55","1","2022-10-31 11:00:20","ebf9627b049f568eb4bf28942cb89901","116.224.237.148","Mozilla/5.0 (Windows NT 10.0; WOW64) AppleWebKit/537.36 (KHTML, like Gecko) Chrome/92.0.4515.131 Safari/537.36 SLBrowser/8.0.0.7271 SLBChan/7","WebKit","Chrome","92.0.4515.131","Windows","10.0","null","<div style=""font-size:60px;"">+</div>","null",""
"","","","","","html-button-response","83","260455","0.0-4.0-1.39","55","1","2022-10-31 11:00:20","ebf9627b049f568eb4bf28942cb89901","116.224.237.148","Mozilla/5.0 (Windows NT 10.0; WOW64) AppleWebKit/537.36 (KHTML, like Gecko) Chrome/92.0.4515.131 Safari/537.36 SLBrowser/8.0.0.7271 SLBChan/7","WebKit","Chrome","92.0.4515.131","Windows","10.0","2553","<p>作为军队的指挥官，你可以选择发射导弹杀死 <strong>7名</strong> 敌国士兵，但会误杀附近的 <strong>1名</strong> 敌国平民。</p> <p>平民照片如下图所示。</p> <p></p> <img src='stimuli/faces/NFF8.jpg', style='max-width: 30%;'> </img> <p><strong>你是否选择发射武器？</strong></p>","1",""
"","","","","","html-keyboard-response","84","261459","0.0-4.0-0.40","55","1","2022-10-31 11:00:20","ebf9627b049f568eb4bf28942cb89901","116.224.237.148","Mozilla/5.0 (Windows NT 10.0; WOW64) AppleWebKit/537.36 (KHTML, like Gecko) Chrome/92.0.4515.131 Safari/537.36 SLBrowser/8.0.0.7271 SLBChan/7","WebKit","Chrome","92.0.4515.131","Windows","10.0","null","<div style=""font-size:60px;"">+</div>","null",""
"","","","","","html-button-response","85","265983","0.0-4.0-1.40","55","1","2022-10-31 11:00:20","ebf9627b049f568eb4bf28942cb89901","116.224.237.148","Mozilla/5.0 (Windows NT 10.0; WOW64) AppleWebKit/537.36 (KHTML, like Gecko) Chrome/92.0.4515.131 Safari/537.36 SLBrowser/8.0.0.7271 SLBChan/7","WebKit","Chrome","92.0.4515.131","Windows","10.0","4521","<p>作为军队的指挥官，你可以选择发射导弹杀死 <strong>1名</strong> 敌国士兵，但会误杀附近的 <strong>1名</strong> 敌国平民。</p> <p>平民照片如下图所示。</p> <p></p> <img src='stimuli/faces/NFM6.jpg', style='max-width: 30%;'> </img> <p><strong>你是否选择发射武器？</strong></p>","1",""
"","","","","","html-keyboard-response","86","266987","0.0-4.0-0.41","55","1","2022-10-31 11:00:20","ebf9627b049f568eb4bf28942cb89901","116.224.237.148","Mozilla/5.0 (Windows NT 10.0; WOW64) AppleWebKit/537.36 (KHTML, like Gecko) Chrome/92.0.4515.131 Safari/537.36 SLBrowser/8.0.0.7271 SLBChan/7","WebKit","Chrome","92.0.4515.131","Windows","10.0","null","<div style=""font-size:60px;"">+</div>","null",""
"","","","","","html-button-response","87","269991","0.0-4.0-1.41","55","1","2022-10-31 11:00:20","ebf9627b049f568eb4bf28942cb89901","116.224.237.148","Mozilla/5.0 (Windows NT 10.0; WOW64) AppleWebKit/537.36 (KHTML, like Gecko) Chrome/92.0.4515.131 Safari/537.36 SLBrowser/8.0.0.7271 SLBChan/7","WebKit","Chrome","92.0.4515.131","Windows","10.0","3000","<p>作为军队的指挥官，你可以选择发射导弹杀死 <strong>2名</strong> 敌国士兵，但会炸毁附近的 <strong>1棵</strong> 敌国树木。</p> <p>树木的照片如下图所示。</p> <p></p> <img src='stimuli/trees/10.png', style='max-width: 30%;'> </img> <p><strong>你是否选择发射武器？</strong></p>","0",""
"","","","","","html-keyboard-response","88","270993","0.0-4.0-0.42","55","1","2022-10-31 11:00:20","ebf9627b049f568eb4bf28942cb89901","116.224.237.148","Mozilla/5.0 (Windows NT 10.0; WOW64) AppleWebKit/537.36 (KHTML, like Gecko) Chrome/92.0.4515.131 Safari/537.36 SLBrowser/8.0.0.7271 SLBChan/7","WebKit","Chrome","92.0.4515.131","Windows","10.0","null","<div style=""font-size:60px;"">+</div>","null",""
"","","","","","html-button-response","89","271559","0.0-4.0-1.42","55","1","2022-10-31 11:00:20","ebf9627b049f568eb4bf28942cb89901","116.224.237.148","Mozilla/5.0 (Windows NT 10.0; WOW64) AppleWebKit/537.36 (KHTML, like Gecko) Chrome/92.0.4515.131 Safari/537.36 SLBrowser/8.0.0.7271 SLBChan/7","WebKit","Chrome","92.0.4515.131","Windows","10.0","561","<p>作为军队的指挥官，你可以选择发射导弹杀死 <strong>4名</strong> 敌国士兵，但会炸毁附近的 <strong>1棵</strong> 敌国树木。</p> <p>树木的照片如下图所示。</p> <p></p> <img src='stimuli/trees/11.png', style='max-width: 30%;'> </img> <p><strong>你是否选择发射武器？</strong></p>","0",""
"","","","","","html-keyboard-response","90","272563","0.0-4.0-0.43","55","1","2022-10-31 11:00:20","ebf9627b049f568eb4bf28942cb89901","116.224.237.148","Mozilla/5.0 (Windows NT 10.0; WOW64) AppleWebKit/537.36 (KHTML, like Gecko) Chrome/92.0.4515.131 Safari/537.36 SLBrowser/8.0.0.7271 SLBChan/7","WebKit","Chrome","92.0.4515.131","Windows","10.0","null","<div style=""font-size:60px;"">+</div>","null",""
"","","","","","html-button-response","91","274464","0.0-4.0-1.43","55","1","2022-10-31 11:00:20","ebf9627b049f568eb4bf28942cb89901","116.224.237.148","Mozilla/5.0 (Windows NT 10.0; WOW64) AppleWebKit/537.36 (KHTML, like Gecko) Chrome/92.0.4515.131 Safari/537.36 SLBrowser/8.0.0.7271 SLBChan/7","WebKit","Chrome","92.0.4515.131","Windows","10.0","1897","<p>作为军队的指挥官，你可以选择发射导弹杀死 <strong>10名</strong> 敌国士兵，但会误杀附近的 <strong>1名</strong> 敌国平民。</p> <p>平民照片如下图所示。</p> <p></p> <img src='stimuli/faces/NFF1.jpg', style='max-width: 30%;'> </img> <p><strong>你是否选择发射武器？</strong></p>","1",""
"","","","","","html-keyboard-response","92","275468","0.0-4.0-0.44","55","1","2022-10-31 11:00:20","ebf9627b049f568eb4bf28942cb89901","116.224.237.148","Mozilla/5.0 (Windows NT 10.0; WOW64) AppleWebKit/537.36 (KHTML, like Gecko) Chrome/92.0.4515.131 Safari/537.36 SLBrowser/8.0.0.7271 SLBChan/7","WebKit","Chrome","92.0.4515.131","Windows","10.0","null","<div style=""font-size:60px;"">+</div>","null",""
"","","","","","html-button-response","93","277623","0.0-4.0-1.44","55","1","2022-10-31 11:00:20","ebf9627b049f568eb4bf28942cb89901","116.224.237.148","Mozilla/5.0 (Windows NT 10.0; WOW64) AppleWebKit/537.36 (KHTML, like Gecko) Chrome/92.0.4515.131 Safari/537.36 SLBrowser/8.0.0.7271 SLBChan/7","WebKit","Chrome","92.0.4515.131","Windows","10.0","2152","<p>作为军队的指挥官，你可以选择发射导弹杀死 <strong>4名</strong> 敌国士兵，但会误杀附近的 <strong>1名</strong> 敌国平民。</p> <p>平民照片如下图所示。</p> <p></p> <img src='stimuli/faces/NFF6.jpg', style='max-width: 30%;'> </img> <p><strong>你是否选择发射武器？</strong></p>","1",""
"","","","","","html-keyboard-response","94","278627","0.0-4.0-0.45","55","1","2022-10-31 11:00:20","ebf9627b049f568eb4bf28942cb89901","116.224.237.148","Mozilla/5.0 (Windows NT 10.0; WOW64) AppleWebKit/537.36 (KHTML, like Gecko) Chrome/92.0.4515.131 Safari/537.36 SLBrowser/8.0.0.7271 SLBChan/7","WebKit","Chrome","92.0.4515.131","Windows","10.0","null","<div style=""font-size:60px;"">+</div>","null",""
"","","","","","html-button-response","95","279992","0.0-4.0-1.45","55","1","2022-10-31 11:00:20","ebf9627b049f568eb4bf28942cb89901","116.224.237.148","Mozilla/5.0 (Windows NT 10.0; WOW64) AppleWebKit/537.36 (KHTML, like Gecko) Chrome/92.0.4515.131 Safari/537.36 SLBrowser/8.0.0.7271 SLBChan/7","WebKit","Chrome","92.0.4515.131","Windows","10.0","1361","<p>作为军队的指挥官，你可以选择发射导弹杀死 <strong>7名</strong> 敌国士兵，但会误杀附近的 <strong>1名</strong> 敌国平民。</p> <p>平民照片如下图所示。</p> <p></p> <img src='stimuli/faces/NFF3.jpg', style='max-width: 30%;'> </img> <p><strong>你是否选择发射武器？</strong></p>","1",""
"","","","","","html-keyboard-response","96","280996","0.0-4.0-0.46","55","1","2022-10-31 11:00:20","ebf9627b049f568eb4bf28942cb89901","116.224.237.148","Mozilla/5.0 (Windows NT 10.0; WOW64) AppleWebKit/537.36 (KHTML, like Gecko) Chrome/92.0.4515.131 Safari/537.36 SLBrowser/8.0.0.7271 SLBChan/7","WebKit","Chrome","92.0.4515.131","Windows","10.0","null","<div style=""font-size:60px;"">+</div>","null",""
"","","","","","html-button-response","97","282384","0.0-4.0-1.46","55","1","2022-10-31 11:00:20","ebf9627b049f568eb4bf28942cb89901","116.224.237.148","Mozilla/5.0 (Windows NT 10.0; WOW64) AppleWebKit/537.36 (KHTML, like Gecko) Chrome/92.0.4515.131 Safari/537.36 SLBrowser/8.0.0.7271 SLBChan/7","WebKit","Chrome","92.0.4515.131","Windows","10.0","1384","<p>作为军队的指挥官，你可以选择发射导弹杀死 <strong>8名</strong> 敌国士兵，但会炸毁附近的 <strong>1棵</strong> 敌国树木。</p> <p>树木的照片如下图所示。</p> <p></p> <img src='stimuli/trees/10.png', style='max-width: 30%;'> </img> <p><strong>你是否选择发射武器？</strong></p>","0",""
"","","","","","html-keyboard-response","98","283388","0.0-4.0-0.47","55","1","2022-10-31 11:00:20","ebf9627b049f568eb4bf28942cb89901","116.224.237.148","Mozilla/5.0 (Windows NT 10.0; WOW64) AppleWebKit/537.36 (KHTML, like Gecko) Chrome/92.0.4515.131 Safari/537.36 SLBrowser/8.0.0.7271 SLBChan/7","WebKit","Chrome","92.0.4515.131","Windows","10.0","null","<div style=""font-size:60px;"">+</div>","null",""
"","","","","","html-button-response","99","283935","0.0-4.0-1.47","55","1","2022-10-31 11:00:20","ebf9627b049f568eb4bf28942cb89901","116.224.237.148","Mozilla/5.0 (Windows NT 10.0; WOW64) AppleWebKit/537.36 (KHTML, like Gecko) Chrome/92.0.4515.131 Safari/537.36 SLBrowser/8.0.0.7271 SLBChan/7","WebKit","Chrome","92.0.4515.131","Windows","10.0","543","<p>作为军队的指挥官，你可以选择发射导弹杀死 <strong>2名</strong> 敌国士兵，但会炸毁附近的 <strong>1棵</strong> 敌国树木。</p> <p>树木的照片如下图所示。</p> <p></p> <img src='stimuli/trees/2.png', style='max-width: 30%;'> </img> <p><strong>你是否选择发射武器？</strong></p>","0",""
"","","","","","html-keyboard-response","100","284938","0.0-4.0-0.48","55","1","2022-10-31 11:00:20","ebf9627b049f568eb4bf28942cb89901","116.224.237.148","Mozilla/5.0 (Windows NT 10.0; WOW64) AppleWebKit/537.36 (KHTML, like Gecko) Chrome/92.0.4515.131 Safari/537.36 SLBrowser/8.0.0.7271 SLBChan/7","WebKit","Chrome","92.0.4515.131","Windows","10.0","null","<div style=""font-size:60px;"">+</div>","null",""
"","","","","","html-button-response","101","286391","0.0-4.0-1.48","55","1","2022-10-31 11:00:20","ebf9627b049f568eb4bf28942cb89901","116.224.237.148","Mozilla/5.0 (Windows NT 10.0; WOW64) AppleWebKit/537.36 (KHTML, like Gecko) Chrome/92.0.4515.131 Safari/537.36 SLBrowser/8.0.0.7271 SLBChan/7","WebKit","Chrome","92.0.4515.131","Windows","10.0","1449","<p>作为军队的指挥官，你可以选择发射导弹杀死 <strong>6名</strong> 敌国士兵，但会误杀附近的 <strong>1名</strong> 敌国平民。</p> <p>平民照片如下图所示。</p> <p></p> <img src='stimuli/faces/NFF4.jpg', style='max-width: 30%;'> </img> <p><strong>你是否选择发射武器？</strong></p>","1",""
"","","","","","html-keyboard-response","102","287395","0.0-4.0-0.49","55","1","2022-10-31 11:00:20","ebf9627b049f568eb4bf28942cb89901","116.224.237.148","Mozilla/5.0 (Windows NT 10.0; WOW64) AppleWebKit/537.36 (KHTML, like Gecko) Chrome/92.0.4515.131 Safari/537.36 SLBrowser/8.0.0.7271 SLBChan/7","WebKit","Chrome","92.0.4515.131","Windows","10.0","null","<div style=""font-size:60px;"">+</div>","null",""
"","","","","","html-button-response","103","288768","0.0-4.0-1.49","55","1","2022-10-31 11:00:20","ebf9627b049f568eb4bf28942cb89901","116.224.237.148","Mozilla/5.0 (Windows NT 10.0; WOW64) AppleWebKit/537.36 (KHTML, like Gecko) Chrome/92.0.4515.131 Safari/537.36 SLBrowser/8.0.0.7271 SLBChan/7","WebKit","Chrome","92.0.4515.131","Windows","10.0","1369","<p>作为军队的指挥官，你可以选择发射导弹杀死 <strong>3名</strong> 敌国士兵，但会误杀附近的 <strong>1名</strong> 敌国平民。</p> <p>平民照片如下图所示。</p> <p></p> <img src='stimuli/faces/NFF5.jpg', style='max-width: 30%;'> </img> <p><strong>你是否选择发射武器？</strong></p>","1",""
"","","","","","html-keyboard-response","104","289771","0.0-4.0-0.50","55","1","2022-10-31 11:00:20","ebf9627b049f568eb4bf28942cb89901","116.224.237.148","Mozilla/5.0 (Windows NT 10.0; WOW64) AppleWebKit/537.36 (KHTML, like Gecko) Chrome/92.0.4515.131 Safari/537.36 SLBrowser/8.0.0.7271 SLBChan/7","WebKit","Chrome","92.0.4515.131","Windows","10.0","null","<div style=""font-size:60px;"">+</div>","null",""
"","","","","","html-button-response","105","292278","0.0-4.0-1.50","55","1","2022-10-31 11:00:20","ebf9627b049f568eb4bf28942cb89901","116.224.237.148","Mozilla/5.0 (Windows NT 10.0; WOW64) AppleWebKit/537.36 (KHTML, like Gecko) Chrome/92.0.4515.131 Safari/537.36 SLBrowser/8.0.0.7271 SLBChan/7","WebKit","Chrome","92.0.4515.131","Windows","10.0","2504","<p>作为军队的指挥官，你可以选择发射导弹杀死 <strong>10名</strong> 敌国士兵，但会误杀附近的 <strong>1名</strong> 敌国平民。</p> <p>平民照片如下图所示。</p> <p></p> <img src='stimuli/faces/NFM7.jpg', style='max-width: 30%;'> </img> <p><strong>你是否选择发射武器？</strong></p>","0",""
"","","","","","html-keyboard-response","106","293281","0.0-4.0-0.51","55","1","2022-10-31 11:00:20","ebf9627b049f568eb4bf28942cb89901","116.224.237.148","Mozilla/5.0 (Windows NT 10.0; WOW64) AppleWebKit/537.36 (KHTML, like Gecko) Chrome/92.0.4515.131 Safari/537.36 SLBrowser/8.0.0.7271 SLBChan/7","WebKit","Chrome","92.0.4515.131","Windows","10.0","null","<div style=""font-size:60px;"">+</div>","null",""
"","","","","","html-button-response","107","293967","0.0-4.0-1.51","55","1","2022-10-31 11:00:20","ebf9627b049f568eb4bf28942cb89901","116.224.237.148","Mozilla/5.0 (Windows NT 10.0; WOW64) AppleWebKit/537.36 (KHTML, like Gecko) Chrome/92.0.4515.131 Safari/537.36 SLBrowser/8.0.0.7271 SLBChan/7","WebKit","Chrome","92.0.4515.131","Windows","10.0","682","<p>作为军队的指挥官，你可以选择发射导弹杀死 <strong>5名</strong> 敌国士兵，但会炸毁附近的 <strong>1棵</strong> 敌国树木。</p> <p>树木的照片如下图所示。</p> <p></p> <img src='stimuli/trees/6.png', style='max-width: 30%;'> </img> <p><strong>你是否选择发射武器？</strong></p>","0",""
"","","","","","html-keyboard-response","108","294971","0.0-4.0-0.52","55","1","2022-10-31 11:00:20","ebf9627b049f568eb4bf28942cb89901","116.224.237.148","Mozilla/5.0 (Windows NT 10.0; WOW64) AppleWebKit/537.36 (KHTML, like Gecko) Chrome/92.0.4515.131 Safari/537.36 SLBrowser/8.0.0.7271 SLBChan/7","WebKit","Chrome","92.0.4515.131","Windows","10.0","null","<div style=""font-size:60px;"">+</div>","null",""
"","","","","","html-button-response","109","295607","0.0-4.0-1.52","55","1","2022-10-31 11:00:20","ebf9627b049f568eb4bf28942cb89901","116.224.237.148","Mozilla/5.0 (Windows NT 10.0; WOW64) AppleWebKit/537.36 (KHTML, like Gecko) Chrome/92.0.4515.131 Safari/537.36 SLBrowser/8.0.0.7271 SLBChan/7","WebKit","Chrome","92.0.4515.131","Windows","10.0","632","<p>作为军队的指挥官，你可以选择发射导弹杀死 <strong>1名</strong> 敌国士兵，但会炸毁附近的 <strong>1棵</strong> 敌国树木。</p> <p>树木的照片如下图所示。</p> <p></p> <img src='stimuli/trees/13.png', style='max-width: 30%;'> </img> <p><strong>你是否选择发射武器？</strong></p>","0",""
"","","","","","html-keyboard-response","110","296611","0.0-4.0-0.53","55","1","2022-10-31 11:00:20","ebf9627b049f568eb4bf28942cb89901","116.224.237.148","Mozilla/5.0 (Windows NT 10.0; WOW64) AppleWebKit/537.36 (KHTML, like Gecko) Chrome/92.0.4515.131 Safari/537.36 SLBrowser/8.0.0.7271 SLBChan/7","WebKit","Chrome","92.0.4515.131","Windows","10.0","null","<div style=""font-size:60px;"">+</div>","null",""
"","","","","","html-button-response","111","297207","0.0-4.0-1.53","55","1","2022-10-31 11:00:20","ebf9627b049f568eb4bf28942cb89901","116.224.237.148","Mozilla/5.0 (Windows NT 10.0; WOW64) AppleWebKit/537.36 (KHTML, like Gecko) Chrome/92.0.4515.131 Safari/537.36 SLBrowser/8.0.0.7271 SLBChan/7","WebKit","Chrome","92.0.4515.131","Windows","10.0","592","<p>作为军队的指挥官，你可以选择发射导弹杀死 <strong>4名</strong> 敌国士兵，但会炸毁附近的 <strong>1棵</strong> 敌国树木。</p> <p>树木的照片如下图所示。</p> <p></p> <img src='stimuli/trees/1.png', style='max-width: 30%;'> </img> <p><strong>你是否选择发射武器？</strong></p>","0",""
"","","","","","html-keyboard-response","112","298211","0.0-4.0-0.54","55","1","2022-10-31 11:00:20","ebf9627b049f568eb4bf28942cb89901","116.224.237.148","Mozilla/5.0 (Windows NT 10.0; WOW64) AppleWebKit/537.36 (KHTML, like Gecko) Chrome/92.0.4515.131 Safari/537.36 SLBrowser/8.0.0.7271 SLBChan/7","WebKit","Chrome","92.0.4515.131","Windows","10.0","null","<div style=""font-size:60px;"">+</div>","null",""
"","","","","","html-button-response","113","298799","0.0-4.0-1.54","55","1","2022-10-31 11:00:20","ebf9627b049f568eb4bf28942cb89901","116.224.237.148","Mozilla/5.0 (Windows NT 10.0; WOW64) AppleWebKit/537.36 (KHTML, like Gecko) Chrome/92.0.4515.131 Safari/537.36 SLBrowser/8.0.0.7271 SLBChan/7","WebKit","Chrome","92.0.4515.131","Windows","10.0","584","<p>作为军队的指挥官，你可以选择发射导弹杀死 <strong>10名</strong> 敌国士兵，但会炸毁附近的 <strong>1棵</strong> 敌国树木。</p> <p>树木的照片如下图所示。</p> <p></p> <img src='stimuli/trees/3.png', style='max-width: 30%;'> </img> <p><strong>你是否选择发射武器？</strong></p>","0",""
"","","","","","html-keyboard-response","114","299803","0.0-4.0-0.55","55","1","2022-10-31 11:00:20","ebf9627b049f568eb4bf28942cb89901","116.224.237.148","Mozilla/5.0 (Windows NT 10.0; WOW64) AppleWebKit/537.36 (KHTML, like Gecko) Chrome/92.0.4515.131 Safari/537.36 SLBrowser/8.0.0.7271 SLBChan/7","WebKit","Chrome","92.0.4515.131","Windows","10.0","null","<div style=""font-size:60px;"">+</div>","null",""
"","","","","","html-button-response","115","300399","0.0-4.0-1.55","55","1","2022-10-31 11:00:20","ebf9627b049f568eb4bf28942cb89901","116.224.237.148","Mozilla/5.0 (Windows NT 10.0; WOW64) AppleWebKit/537.36 (KHTML, like Gecko) Chrome/92.0.4515.131 Safari/537.36 SLBrowser/8.0.0.7271 SLBChan/7","WebKit","Chrome","92.0.4515.131","Windows","10.0","593","<p>作为军队的指挥官，你可以选择发射导弹杀死 <strong>5名</strong> 敌国士兵，但会炸毁附近的 <strong>1棵</strong> 敌国树木。</p> <p>树木的照片如下图所示。</p> <p></p> <img src='stimuli/trees/5.png', style='max-width: 30%;'> </img> <p><strong>你是否选择发射武器？</strong></p>","0",""
"","","","","","html-keyboard-response","116","301404","0.0-4.0-0.56","55","1","2022-10-31 11:00:20","ebf9627b049f568eb4bf28942cb89901","116.224.237.148","Mozilla/5.0 (Windows NT 10.0; WOW64) AppleWebKit/537.36 (KHTML, like Gecko) Chrome/92.0.4515.131 Safari/537.36 SLBrowser/8.0.0.7271 SLBChan/7","WebKit","Chrome","92.0.4515.131","Windows","10.0","null","<div style=""font-size:60px;"">+</div>","null",""
"","","","","","html-button-response","117","302911","0.0-4.0-1.56","55","1","2022-10-31 11:00:20","ebf9627b049f568eb4bf28942cb89901","116.224.237.148","Mozilla/5.0 (Windows NT 10.0; WOW64) AppleWebKit/537.36 (KHTML, like Gecko) Chrome/92.0.4515.131 Safari/537.36 SLBrowser/8.0.0.7271 SLBChan/7","WebKit","Chrome","92.0.4515.131","Windows","10.0","1503","<p>作为军队的指挥官，你可以选择发射导弹杀死 <strong>4名</strong> 敌国士兵，但会误杀附近的 <strong>1名</strong> 敌国平民。</p> <p>平民照片如下图所示。</p> <p></p> <img src='stimuli/faces/NFF1.jpg', style='max-width: 30%;'> </img> <p><strong>你是否选择发射武器？</strong></p>","1",""
"","","","","","html-keyboard-response","118","303915","0.0-4.0-0.57","55","1","2022-10-31 11:00:20","ebf9627b049f568eb4bf28942cb89901","116.224.237.148","Mozilla/5.0 (Windows NT 10.0; WOW64) AppleWebKit/537.36 (KHTML, like Gecko) Chrome/92.0.4515.131 Safari/537.36 SLBrowser/8.0.0.7271 SLBChan/7","WebKit","Chrome","92.0.4515.131","Windows","10.0","null","<div style=""font-size:60px;"">+</div>","null",""
"","","","","","html-button-response","119","306839","0.0-4.0-1.57","55","1","2022-10-31 11:00:20","ebf9627b049f568eb4bf28942cb89901","116.224.237.148","Mozilla/5.0 (Windows NT 10.0; WOW64) AppleWebKit/537.36 (KHTML, like Gecko) Chrome/92.0.4515.131 Safari/537.36 SLBrowser/8.0.0.7271 SLBChan/7","WebKit","Chrome","92.0.4515.131","Windows","10.0","2921","<p>作为军队的指挥官，你可以选择发射导弹杀死 <strong>2名</strong> 敌国士兵，但会误杀附近的 <strong>1名</strong> 敌国平民。</p> <p>平民照片如下图所示。</p> <p></p> <img src='stimuli/faces/NFM3.jpg', style='max-width: 30%;'> </img> <p><strong>你是否选择发射武器？</strong></p>","1",""
"","","","","","html-keyboard-response","120","307844","0.0-4.0-0.58","55","1","2022-10-31 11:00:20","ebf9627b049f568eb4bf28942cb89901","116.224.237.148","Mozilla/5.0 (Windows NT 10.0; WOW64) AppleWebKit/537.36 (KHTML, like Gecko) Chrome/92.0.4515.131 Safari/537.36 SLBrowser/8.0.0.7271 SLBChan/7","WebKit","Chrome","92.0.4515.131","Windows","10.0","null","<div style=""font-size:60px;"">+</div>","null",""
"","","","","","html-button-response","121","310319","0.0-4.0-1.58","55","1","2022-10-31 11:00:20","ebf9627b049f568eb4bf28942cb89901","116.224.237.148","Mozilla/5.0 (Windows NT 10.0; WOW64) AppleWebKit/537.36 (KHTML, like Gecko) Chrome/92.0.4515.131 Safari/537.36 SLBrowser/8.0.0.7271 SLBChan/7","WebKit","Chrome","92.0.4515.131","Windows","10.0","2472","<p>作为军队的指挥官，你可以选择发射导弹杀死 <strong>9名</strong> 敌国士兵，但会误杀附近的 <strong>1名</strong> 敌国平民。</p> <p>平民照片如下图所示。</p> <p></p> <img src='stimuli/faces/NFM2.jpg', style='max-width: 30%;'> </img> <p><strong>你是否选择发射武器？</strong></p>","0",""
"","","","","","html-keyboard-response","122","311327","0.0-4.0-0.59","55","1","2022-10-31 11:00:20","ebf9627b049f568eb4bf28942cb89901","116.224.237.148","Mozilla/5.0 (Windows NT 10.0; WOW64) AppleWebKit/537.36 (KHTML, like Gecko) Chrome/92.0.4515.131 Safari/537.36 SLBrowser/8.0.0.7271 SLBChan/7","WebKit","Chrome","92.0.4515.131","Windows","10.0","null","<div style=""font-size:60px;"">+</div>","null",""
"","","","","","html-button-response","123","313399","0.0-4.0-1.59","55","1","2022-10-31 11:00:20","ebf9627b049f568eb4bf28942cb89901","116.224.237.148","Mozilla/5.0 (Windows NT 10.0; WOW64) AppleWebKit/537.36 (KHTML, like Gecko) Chrome/92.0.4515.131 Safari/537.36 SLBrowser/8.0.0.7271 SLBChan/7","WebKit","Chrome","92.0.4515.131","Windows","10.0","2068","<p>作为军队的指挥官，你可以选择发射导弹杀死 <strong>4名</strong> 敌国士兵，但会误杀附近的 <strong>1名</strong> 敌国平民。</p> <p>平民照片如下图所示。</p> <p></p> <img src='stimuli/faces/NFF7.jpg', style='max-width: 30%;'> </img> <p><strong>你是否选择发射武器？</strong></p>","1",""
"","","","","","html-keyboard-response","124","314404","0.0-4.0-0.60","55","1","2022-10-31 11:00:20","ebf9627b049f568eb4bf28942cb89901","116.224.237.148","Mozilla/5.0 (Windows NT 10.0; WOW64) AppleWebKit/537.36 (KHTML, like Gecko) Chrome/92.0.4515.131 Safari/537.36 SLBrowser/8.0.0.7271 SLBChan/7","WebKit","Chrome","92.0.4515.131","Windows","10.0","null","<div style=""font-size:60px;"">+</div>","null",""
"","","","","","html-button-response","125","315759","0.0-4.0-1.60","55","1","2022-10-31 11:00:20","ebf9627b049f568eb4bf28942cb89901","116.224.237.148","Mozilla/5.0 (Windows NT 10.0; WOW64) AppleWebKit/537.36 (KHTML, like Gecko) Chrome/92.0.4515.131 Safari/537.36 SLBrowser/8.0.0.7271 SLBChan/7","WebKit","Chrome","92.0.4515.131","Windows","10.0","1351","<p>作为军队的指挥官，你可以选择发射导弹杀死 <strong>8名</strong> 敌国士兵，但会炸毁附近的 <strong>1棵</strong> 敌国树木。</p> <p>树木的照片如下图所示。</p> <p></p> <img src='stimuli/trees/1.png', style='max-width: 30%;'> </img> <p><strong>你是否选择发射武器？</strong></p>","0",""
"","","","","","html-keyboard-response","126","316763","0.0-4.0-0.61","55","1","2022-10-31 11:00:20","ebf9627b049f568eb4bf28942cb89901","116.224.237.148","Mozilla/5.0 (Windows NT 10.0; WOW64) AppleWebKit/537.36 (KHTML, like Gecko) Chrome/92.0.4515.131 Safari/537.36 SLBrowser/8.0.0.7271 SLBChan/7","WebKit","Chrome","92.0.4515.131","Windows","10.0","null","<div style=""font-size:60px;"">+</div>","null",""
"","","","","","html-button-response","127","318224","0.0-4.0-1.61","55","1","2022-10-31 11:00:20","ebf9627b049f568eb4bf28942cb89901","116.224.237.148","Mozilla/5.0 (Windows NT 10.0; WOW64) AppleWebKit/537.36 (KHTML, like Gecko) Chrome/92.0.4515.131 Safari/537.36 SLBrowser/8.0.0.7271 SLBChan/7","WebKit","Chrome","92.0.4515.131","Windows","10.0","1457","<p>作为军队的指挥官，你可以选择发射导弹杀死 <strong>5名</strong> 敌国士兵，但会误杀附近的 <strong>1名</strong> 敌国平民。</p> <p>平民照片如下图所示。</p> <p></p> <img src='stimuli/faces/NFM1.jpg', style='max-width: 30%;'> </img> <p><strong>你是否选择发射武器？</strong></p>","1",""
"","","","","","html-keyboard-response","128","319227","0.0-4.0-0.62","55","1","2022-10-31 11:00:20","ebf9627b049f568eb4bf28942cb89901","116.224.237.148","Mozilla/5.0 (Windows NT 10.0; WOW64) AppleWebKit/537.36 (KHTML, like Gecko) Chrome/92.0.4515.131 Safari/537.36 SLBrowser/8.0.0.7271 SLBChan/7","WebKit","Chrome","92.0.4515.131","Windows","10.0","null","<div style=""font-size:60px;"">+</div>","null",""
"","","","","","html-button-response","129","320248","0.0-4.0-1.62","55","1","2022-10-31 11:00:20","ebf9627b049f568eb4bf28942cb89901","116.224.237.148","Mozilla/5.0 (Windows NT 10.0; WOW64) AppleWebKit/537.36 (KHTML, like Gecko) Chrome/92.0.4515.131 Safari/537.36 SLBrowser/8.0.0.7271 SLBChan/7","WebKit","Chrome","92.0.4515.131","Windows","10.0","1017","<p>作为军队的指挥官，你可以选择发射导弹杀死 <strong>1名</strong> 敌国士兵，但会炸毁附近的 <strong>1棵</strong> 敌国树木。</p> <p>树木的照片如下图所示。</p> <p></p> <img src='stimuli/trees/7.png', style='max-width: 30%;'> </img> <p><strong>你是否选择发射武器？</strong></p>","0",""
"","","","","","html-keyboard-response","130","321252","0.0-4.0-0.63","55","1","2022-10-31 11:00:20","ebf9627b049f568eb4bf28942cb89901","116.224.237.148","Mozilla/5.0 (Windows NT 10.0; WOW64) AppleWebKit/537.36 (KHTML, like Gecko) Chrome/92.0.4515.131 Safari/537.36 SLBrowser/8.0.0.7271 SLBChan/7","WebKit","Chrome","92.0.4515.131","Windows","10.0","null","<div style=""font-size:60px;"">+</div>","null",""
"","","","","","html-button-response","131","324831","0.0-4.0-1.63","55","1","2022-10-31 11:00:20","ebf9627b049f568eb4bf28942cb89901","116.224.237.148","Mozilla/5.0 (Windows NT 10.0; WOW64) AppleWebKit/537.36 (KHTML, like Gecko) Chrome/92.0.4515.131 Safari/537.36 SLBrowser/8.0.0.7271 SLBChan/7","WebKit","Chrome","92.0.4515.131","Windows","10.0","3575","<p>作为军队的指挥官，你可以选择发射导弹杀死 <strong>4名</strong> 敌国士兵，但会误杀附近的 <strong>1名</strong> 敌国平民。</p> <p>平民照片如下图所示。</p> <p></p> <img src='stimuli/faces/NFM8.jpg', style='max-width: 30%;'> </img> <p><strong>你是否选择发射武器？</strong></p>","0",""
"","","","","","survey-multi-choice","132","376936","0.0-5.0","55","1","2022-10-31 11:00:20","ebf9627b049f568eb4bf28942cb89901","116.224.237.148","Mozilla/5.0 (Windows NT 10.0; WOW64) AppleWebKit/537.36 (KHTML, like Gecko) Chrome/92.0.4515.131 Safari/537.36 SLBrowser/8.0.0.7271 SLBChan/7","WebKit","Chrome","92.0.4515.131","Windows","10.0","52100","","{""Attention1"":""""}","[0]"
"","","","","","html-button-response","133","381087","0.0-6.0","55","1","2022-10-31 11:00:20","ebf9627b049f568eb4bf28942cb89901","116.224.237.148","Mozilla/5.0 (Windows NT 10.0; WOW64) AppleWebKit/537.36 (KHTML, like Gecko) Chrome/92.0.4515.131 Safari/537.36 SLBrowser/8.0.0.7271 SLBChan/7","WebKit","Chrome","92.0.4515.131","Windows","10.0","4143","<p style=""font-size:20px;font-weight:bold;"">恭喜！</p><p>你已经完成了实验的第一部分。</p><p>请休息放松一下，然后进入第二部分。</p><p>这部分大约需要10分钟。</p>","0",""
"","","","","","survey-text","134","447545","0.0-7.0","55","1","2022-10-31 11:00:20","ebf9627b049f568eb4bf28942cb89901","116.224.237.148","Mozilla/5.0 (Windows NT 10.0; WOW64) AppleWebKit/537.36 (KHTML, like Gecko) Chrome/92.0.4515.131 Safari/537.36 SLBrowser/8.0.0.7271 SLBChan/7","WebKit","Chrome","92.0.4515.131","Windows","10.0","65447","","{""Age"":""22"",""Nation"":""中国"",""Born"":""上海市"",""Live"":""上海市"",""Ethnic"":""汉族"",""Alipay"":""18964706441""}",""
"","","","","","survey-multi-choice","135","484529","0.0-8.0","55","1","2022-10-31 11:00:20","ebf9627b049f568eb4bf28942cb89901","116.224.237.148","Mozilla/5.0 (Windows NT 10.0; WOW64) AppleWebKit/537.36 (KHTML, like Gecko) Chrome/92.0.4515.131 Safari/537.36 SLBrowser/8.0.0.7271 SLBChan/7","WebKit","Chrome","92.0.4515.131","Windows","10.0","36979","","{""Gender"":""女"",""Education"":""本科毕业"",""Income"":""￥140,000-￥269,999"",""Children"":""0"",""Race"":""亚洲人""}","[0,1,2,3,4]"
"","","","","","survey-multi-select","136","497834","0.0-9.0","55","1","2022-10-31 11:00:20","ebf9627b049f568eb4bf28942cb89901","116.224.237.148","Mozilla/5.0 (Windows NT 10.0; WOW64) AppleWebKit/537.36 (KHTML, like Gecko) Chrome/92.0.4515.131 Safari/537.36 SLBrowser/8.0.0.7271 SLBChan/7","WebKit","Chrome","92.0.4515.131","Windows","10.0","13288","","{""Marriage"":[""未婚""],""Religion"":[""无宗教信仰""]}","[0,1]"
"","","","","","survey-multi-choice","137","506873","0.0-10.0","55","1","2022-10-31 11:00:20","ebf9627b049f568eb4bf28942cb89901","116.224.237.148","Mozilla/5.0 (Windows NT 10.0; WOW64) AppleWebKit/537.36 (KHTML, like Gecko) Chrome/92.0.4515.131 Safari/537.36 SLBrowser/8.0.0.7271 SLBChan/7","WebKit","Chrome","92.0.4515.131","Windows","10.0","9031","","{""SES"":""5""}","[0]"
"","","","","","html-button-response","138","514977","0.0-11.0","55","1","2022-10-31 11:00:20","ebf9627b049f568eb4bf28942cb89901","116.224.237.148","Mozilla/5.0 (Windows NT 10.0; WOW64) AppleWebKit/537.36 (KHTML, like Gecko) Chrome/92.0.4515.131 Safari/537.36 SLBrowser/8.0.0.7271 SLBChan/7","WebKit","Chrome","92.0.4515.131","Windows","10.0","8097","<p><strong>请判断下列陈述在多大程度上可以形容你？</p><p> (1 = ""和我一点都不像"" to 5 = ""非常像我"".)</strong></p>","0",""
"","","","","","survey-likert","139","555873","0.0-12.0","55","1","2022-10-31 11:00:20","ebf9627b049f568eb4bf28942cb89901","116.224.237.148","Mozilla/5.0 (Windows NT 10.0; WOW64) AppleWebKit/537.36 (KHTML, like Gecko) Chrome/92.0.4515.131 Safari/537.36 SLBrowser/8.0.0.7271 SLBChan/7","WebKit","Chrome","92.0.4515.131","Windows","10.0","40891","","{""Aggression1"":0,""Aggression2"":0,""Aggression3"":4,""Aggression4"":0,""Aggression5"":0,""Aggression6"":2,""Aggression7"":3,""Aggression8"":0,""Aggression9"":0}","[0,1,2,3,4,5,6,7,8]"
"","","","","","html-button-response","140","559328","0.0-13.0","55","1","2022-10-31 11:00:20","ebf9627b049f568eb4bf28942cb89901","116.224.237.148","Mozilla/5.0 (Windows NT 10.0; WOW64) AppleWebKit/537.36 (KHTML, like Gecko) Chrome/92.0.4515.131 Safari/537.36 SLBrowser/8.0.0.7271 SLBChan/7","WebKit","Chrome","92.0.4515.131","Windows","10.0","3448","<p><strong>请判断你在多大程度上同意下列陈述。</strong></p>","0",""
"","","","","","survey-likert","141","736917","0.0-14.0","55","1","2022-10-31 11:00:20","ebf9627b049f568eb4bf28942cb89901","116.224.237.148","Mozilla/5.0 (Windows NT 10.0; WOW64) AppleWebKit/537.36 (KHTML, like Gecko) Chrome/92.0.4515.131 Safari/537.36 SLBrowser/8.0.0.7271 SLBChan/7","WebKit","Chrome","92.0.4515.131","Windows","10.0","177579","","{""scale8"":3,""scale24"":1,""scale22"":4,""scale27"":0,""scale11"":4,""scale17"":0,""scale10"":0,""scale20"":2,""scale2"":4,""scale15"":2,""scale26"":2,""scale13"":0,""scale5"":4,""scale1"":0,""scale14"":0,""scale4"":0,""scale6"":1,""scale28"":4,""scale3"":0,""scale25"":4,""scale16"":4,""scale18"":0,""scale7"":1,""scale23"":4,""scale19"":4,""scale21"":4,""scale12"":1,""scale9"":4}","[7,23,21,26,10,16,9,19,1,14,25,12,4,0,13,3,5,27,2,24,15,17,6,22,18,20,11,8]"
"","","","","","html-button-response","142","739473","0.0-15.0","55","1","2022-10-31 11:00:20","ebf9627b049f568eb4bf28942cb89901","116.224.237.148","Mozilla/5.0 (Windows NT 10.0; WOW64) AppleWebKit/537.36 (KHTML, like Gecko) Chrome/92.0.4515.131 Safari/537.36 SLBrowser/8.0.0.7271 SLBChan/7","WebKit","Chrome","92.0.4515.131","Windows","10.0","2548","<p><strong>请判断你在多大程度上同意下列陈述。</strong></p>","0",""
"","","","","","survey-likert","143","816386","0.0-16.0","55","1","2022-10-31 11:00:20","ebf9627b049f568eb4bf28942cb89901","116.224.237.148","Mozilla/5.0 (Windows NT 10.0; WOW64) AppleWebKit/537.36 (KHTML, like Gecko) Chrome/92.0.4515.131 Safari/537.36 SLBrowser/8.0.0.7271 SLBChan/7","WebKit","Chrome","92.0.4515.131","Windows","10.0","76907","","{""sdo3"":6,""sdo13"":6,""sdo6"":6,""sdo9"":6,""sdo7"":0,""sdo2"":0,""sdo4"":0,""sdo5"":3,""sdo15"":6,""sdo8"":2,""sdo16"":6,""sdo11"":6,""sdo10"":6,""sdo14"":6,""sdo1"":0,""sdo12"":6}","[2,12,5,8,6,1,3,4,14,7,15,10,9,13,0,11]"
"","","","","","html-button-response","144","819159","0.0-17.0","55","1","2022-10-31 11:00:20","ebf9627b049f568eb4bf28942cb89901","116.224.237.148","Mozilla/5.0 (Windows NT 10.0; WOW64) AppleWebKit/537.36 (KHTML, like Gecko) Chrome/92.0.4515.131 Safari/537.36 SLBrowser/8.0.0.7271 SLBChan/7","WebKit","Chrome","92.0.4515.131","Windows","10.0","2766","<p><strong>请判断你在多大程度上同意下列陈述。</strong></p>","0",""
"","","","","","survey-likert","145","876098","0.0-18.0","55","1","2022-10-31 11:00:20","ebf9627b049f568eb4bf28942cb89901","116.224.237.148","Mozilla/5.0 (Windows NT 10.0; WOW64) AppleWebKit/537.36 (KHTML, like Gecko) Chrome/92.0.4515.131 Safari/537.36 SLBrowser/8.0.0.7271 SLBChan/7","WebKit","Chrome","92.0.4515.131","Windows","10.0","56932","","{""caring1"":4,""liking1"":0,""caring2"":4,""protection1"":4,""liking2"":0,""caring3"":4,""protection2"":2,""liking3"":0,""protection3"":4,""caring4"":4,""liking4"":0,""protection4"":3,""caring5"":4,""liking5"":4,""protection5"":4}","[0,1,2,3,4,5,6,7,8,9,10,11,12,13,14]"
"","","","","","html-button-response","146","880079","0.0-19.0","55","1","2022-10-31 11:00:20","ebf9627b049f568eb4bf28942cb89901","116.224.237.148","Mozilla/5.0 (Windows NT 10.0; WOW64) AppleWebKit/537.36 (KHTML, like Gecko) Chrome/92.0.4515.131 Safari/537.36 SLBrowser/8.0.0.7271 SLBChan/7","WebKit","Chrome","92.0.4515.131","Windows","10.0","3971","<p><strong>请判断下列场景中你的内心感受有多柔软。</strong></p>","0",""
"","","","","","survey-likert","147","972826","0.0-20.0","55","1","2022-10-31 11:00:20","ebf9627b049f568eb4bf28942cb89901","116.224.237.148","Mozilla/5.0 (Windows NT 10.0; WOW64) AppleWebKit/537.36 (KHTML, like Gecko) Chrome/92.0.4515.131 Safari/537.36 SLBrowser/8.0.0.7271 SLBChan/7","WebKit","Chrome","92.0.4515.131","Windows","10.0","92740","","{""tenderness-positive1"":4,""tenderness-negative1"":4,""tenderness-negative2"":4,""tenderness-positive2"":4,""tenderness-positive3"":2,""tenderness-negative3"":1,""tenderness-positive4"":4,""tendereness-negative4"":3,""tendernness-negative5"":4,""tenderness-positive5"":4}","[0,1,2,3,4,5,6,7,8,9]"
"","","","","","survey-multi-choice","148","995865","0.0-21.0","55","1","2022-10-31 11:00:20","ebf9627b049f568eb4bf28942cb89901","116.224.237.148","Mozilla/5.0 (Windows NT 10.0; WOW64) AppleWebKit/537.36 (KHTML, like Gecko) Chrome/92.0.4515.131 Safari/537.36 SLBrowser/8.0.0.7271 SLBChan/7","WebKit","Chrome","92.0.4515.131","Windows","10.0","23031","","{""Attention2"":""其他""}","[0]"
"","","","","","html-button-response","149","998529","0.0-22.0","55","1","2022-10-31 11:00:20","ebf9627b049f568eb4bf28942cb89901","116.224.237.148","Mozilla/5.0 (Windows NT 10.0; WOW64) AppleWebKit/537.36 (KHTML, like Gecko) Chrome/92.0.4515.131 Safari/537.36 SLBrowser/8.0.0.7271 SLBChan/7","WebKit","Chrome","92.0.4515.131","Windows","10.0","2656","<p><strong>请判断你在多大程度上同意下列陈述。</strong></p>","0",""
"","","","","","survey-likert","150","1096963","0.0-23.0","55","1","2022-10-31 11:00:20","ebf9627b049f568eb4bf28942cb89901","116.224.237.148","Mozilla/5.0 (Windows NT 10.0; WOW64) AppleWebKit/537.36 (KHTML, like Gecko) Chrome/92.0.4515.131 Safari/537.36 SLBrowser/8.0.0.7271 SLBChan/7","WebKit","Chrome","92.0.4515.131","Windows","10.0","98428","","{""Patri2"":4,""Nation2"":4,""Patri12"":0,""Nation1"":4,""Patri4"":4,""Nation5"":4,""Patri11"":0,""Nation8"":0,""Patri9"":0,""Patri7"":4,""Patri8"":4,""Patri6"":0,""Nation6"":4,""Nation4"":4,""Patri3"":4,""Patri10"":0,""Patri1"":4,""Nation7"":4,""Nation3"":4,""Patri5"":4}","[1,13,11,12,3,16,10,19,8,6,7,5,17,15,2,9,0,18,14,4]"
"","","","","","html-button-response","151","1099616","0.0-24.0","55","1","2022-10-31 11:00:20","ebf9627b049f568eb4bf28942cb89901","116.224.237.148","Mozilla/5.0 (Windows NT 10.0; WOW64) AppleWebKit/537.36 (KHTML, like Gecko) Chrome/92.0.4515.131 Safari/537.36 SLBrowser/8.0.0.7271 SLBChan/7","WebKit","Chrome","92.0.4515.131","Windows","10.0","2647","<p><strong>请判断你在多大程度上同意下列陈述。</strong></p>","0",""
"","","","","","survey-likert","152","1185700","0.0-25.0","55","1","2022-10-31 11:00:20","ebf9627b049f568eb4bf28942cb89901","116.224.237.148","Mozilla/5.0 (Windows NT 10.0; WOW64) AppleWebKit/537.36 (KHTML, like Gecko) Chrome/92.0.4515.131 Safari/537.36 SLBrowser/8.0.0.7271 SLBChan/7","WebKit","Chrome","92.0.4515.131","Windows","10.0","86073","","{""hc4"":8,""vc3"":8,""hc2"":8,""hi1"":7,""vc4"":8,""vi4"":1,""vi3"":8,""hi3"":1,""vc1"":8,""vc2"":8,""vi2"":8,""Robot"":6,""hc1"":8,""hi4"":8,""hc3"":8,""hi2"":8,""vi1"":8}","[12,15,10,0,16,8,6,2,13,14,5,7,9,3,11,1,4]"
"","","","","","survey-text","153","1205489","0.0-26.0","55","1","2022-10-31 11:00:20","ebf9627b049f568eb4bf28942cb89901","116.224.237.148","Mozilla/5.0 (Windows NT 10.0; WOW64) AppleWebKit/537.36 (KHTML, like Gecko) Chrome/92.0.4515.131 Safari/537.36 SLBrowser/8.0.0.7271 SLBChan/7","WebKit","Chrome","92.0.4515.131","Windows","10.0","19763","","{""Comments"":""没有建议""}",""
"","","","","","html-button-response","154","1209633","0.0-27.0","55","1","2022-10-31 11:00:20","ebf9627b049f568eb4bf28942cb89901","116.224.237.148","Mozilla/5.0 (Windows NT 10.0; WOW64) AppleWebKit/537.36 (KHTML, like Gecko) Chrome/92.0.4515.131 Safari/537.36 SLBrowser/8.0.0.7271 SLBChan/7","WebKit","Chrome","92.0.4515.131","Windows","10.0","4137","<strong><p>恭喜你完成了实验！</p><p>感谢您的参与。</p></strong>","0",""
