"success","timeout","failed_images","failed_audio","failed_video","trial_type","trial_index","time_elapsed","internal_node_id","run_id","condition","recorded_at","source_code_version","ip","user_agent","device","browser","browser_version","platform","platform_version","rt","stimulus","response","question_order"
"true","false","[]","[]","[]","preload","0","2790","0.0-0.0","58","1","2022-11-02 02:19:53","ebf9627b049f568eb4bf28942cb89901","124.16.149.42","Mozilla/5.0 (Macintosh; Intel Mac OS X 10_15_7) AppleWebKit/537.36 (KHTML, like Gecko) Chrome/106.0.0.0 Safari/537.36","Macintosh","Chrome","106.0.0.0","OS X","10_15_7","","","",""
"true","","","","","fullscreen","1","5041","0.0-1.0","58","1","2022-11-02 02:19:53","ebf9627b049f568eb4bf28942cb89901","124.16.149.42","Mozilla/5.0 (Macintosh; Intel Mac OS X 10_15_7) AppleWebKit/537.36 (KHTML, like Gecko) Chrome/106.0.0.0 Safari/537.36","Macintosh","Chrome","106.0.0.0","OS X","10_15_7","","","",""
"","","","","","html-button-response","2","10006","0.0-2.0","58","1","2022-11-02 02:19:53","ebf9627b049f568eb4bf28942cb89901","124.16.149.42","Mozilla/5.0 (Macintosh; Intel Mac OS X 10_15_7) AppleWebKit/537.36 (KHTML, like Gecko) Chrome/106.0.0.0 Safari/537.36","Macintosh","Chrome","106.0.0.0","OS X","10_15_7","4963","<p style=""font-size:20px;font-weight:bold;"">实验知情同意书</p><p style=""text-align:left;""><strong>实验名称：</strong>社会冲突研究</p><p style=""text-align:left;""><strong>主要研究者：</strong>韩晓春副教授（北京师范大学心理学部）</p><p style=""text-align:left;""><strong>联系方式：</strong>发送邮件至xiaochun.han@bnu.edu.cn</p><p style=""text-align:left;""><strong>研究目的：</strong>研究旨在了解人类面对群体冲突时的决策方式，以及相关的心理学特质。实验调查大约需要20分钟。</p><p style=""text-align:left;""><strong>实验流程：</strong>实验包含两部分。第一部分呈现一系列群体冲突场景，请你决定如何对这些冲突进行反应，大约需要10分钟完成。第二部分包含一系列人口统计学信息收集和心理学问卷，大约需要10分钟完成。</p><p style=""text-align:left;""><strong>参加及退出规则：</strong>参加本实验完全取决于您的个人意愿。在参与过程中，您可以随时退出，并且不用承担任何后果。</p><p style=""text-align:left;""><strong>隐私：</strong>本实验完全匿名进行，不会收集您的姓名或其他能够识别您身份的信息。实验中收集的作答仅用作科学研究使用，可能会在学术期刊/书籍上发表，或者用于教学，您的数据未来可能会和其他研究者或实验室分享，但您的个人身份不会被识别。</p><p style=""text-align:left;""><strong>实验报酬：</strong>实验完成后，您将获得15元人民币报酬，以感谢您的时间和努力。调查问卷中包含几道题目用以测验您作答时的认真度。只有完成全部实验，并且正确回答认真度测验的被试才能获得实验报酬。实验报酬将通过支付宝转账发放。</p><p style=""text-align:left;font-size:20px;""><strong>如果您同意以上实验知情同意书的内容，请点击'同意并且开始实验'按钮；否则请关闭浏览器界面，退出实验。</strong></p>","0",""
"","","","","","html-button-response","3","21286","0.0-3.0","58","1","2022-11-02 02:19:53","ebf9627b049f568eb4bf28942cb89901","124.16.149.42","Mozilla/5.0 (Macintosh; Intel Mac OS X 10_15_7) AppleWebKit/537.36 (KHTML, like Gecko) Chrome/106.0.0.0 Safari/537.36","Macintosh","Chrome","106.0.0.0","OS X","10_15_7","11278","<p ><strong>实验任务一：</strong></p><p>请想象你的国家与另一个国家发生了军事冲突。</p><p>你是国家军队的指挥官，你将如何在冲突中进行决策。</p><p>具体来说，作为军队指挥官，请你决定是否发射导弹进行打击。</p><p>接下来，你会面对一系列场景，请仔细阅读每个场景，然后进行决策。</p><p>这部分实验任务大约需要10分钟。</p><p><strong>实验过程中，请集中注意力。</strong></p>","0",""
"","","","","","html-keyboard-response","4","22293","0.0-4.0-0.0","58","1","2022-11-02 02:19:53","ebf9627b049f568eb4bf28942cb89901","124.16.149.42","Mozilla/5.0 (Macintosh; Intel Mac OS X 10_15_7) AppleWebKit/537.36 (KHTML, like Gecko) Chrome/106.0.0.0 Safari/537.36","Macintosh","Chrome","106.0.0.0","OS X","10_15_7","null","<div style=""font-size:60px;"">+</div>","null",""
"","","","","","html-button-response","5","31341","0.0-4.0-1.0","58","1","2022-11-02 02:19:53","ebf9627b049f568eb4bf28942cb89901","124.16.149.42","Mozilla/5.0 (Macintosh; Intel Mac OS X 10_15_7) AppleWebKit/537.36 (KHTML, like Gecko) Chrome/106.0.0.0 Safari/537.36","Macintosh","Chrome","106.0.0.0","OS X","10_15_7","9044","<p>作为军队的指挥官，你可以选择发射导弹杀死 <strong>9名</strong> 敌国士兵，但会误杀附近的 <strong>1名</strong> 敌国平民。</p> <p>平民照片如下图所示。</p> <p></p> <img src='stimuli/faces/NFF1.jpg', style='max-width: 30%;'> </img> <p><strong>你是否选择发射武器？</strong></p>","0",""
"","","","","","html-keyboard-response","6","32344","0.0-4.0-0.1","58","1","2022-11-02 02:19:53","ebf9627b049f568eb4bf28942cb89901","124.16.149.42","Mozilla/5.0 (Macintosh; Intel Mac OS X 10_15_7) AppleWebKit/537.36 (KHTML, like Gecko) Chrome/106.0.0.0 Safari/537.36","Macintosh","Chrome","106.0.0.0","OS X","10_15_7","null","<div style=""font-size:60px;"">+</div>","null",""
"","","","","","html-button-response","7","34588","0.0-4.0-1.1","58","1","2022-11-02 02:19:53","ebf9627b049f568eb4bf28942cb89901","124.16.149.42","Mozilla/5.0 (Macintosh; Intel Mac OS X 10_15_7) AppleWebKit/537.36 (KHTML, like Gecko) Chrome/106.0.0.0 Safari/537.36","Macintosh","Chrome","106.0.0.0","OS X","10_15_7","2241","<p>作为军队的指挥官，你可以选择发射导弹杀死 <strong>10名</strong> 敌国士兵，但会误杀附近的 <strong>1名</strong> 敌国平民。</p> <p>平民照片如下图所示。</p> <p></p> <img src='stimuli/faces/NFM7.jpg', style='max-width: 30%;'> </img> <p><strong>你是否选择发射武器？</strong></p>","0",""
"","","","","","html-keyboard-response","8","35592","0.0-4.0-0.2","58","1","2022-11-02 02:19:53","ebf9627b049f568eb4bf28942cb89901","124.16.149.42","Mozilla/5.0 (Macintosh; Intel Mac OS X 10_15_7) AppleWebKit/537.36 (KHTML, like Gecko) Chrome/106.0.0.0 Safari/537.36","Macintosh","Chrome","106.0.0.0","OS X","10_15_7","null","<div style=""font-size:60px;"">+</div>","null",""
"","","","","","html-button-response","9","45704","0.0-4.0-1.2","58","1","2022-11-02 02:19:53","ebf9627b049f568eb4bf28942cb89901","124.16.149.42","Mozilla/5.0 (Macintosh; Intel Mac OS X 10_15_7) AppleWebKit/537.36 (KHTML, like Gecko) Chrome/106.0.0.0 Safari/537.36","Macintosh","Chrome","106.0.0.0","OS X","10_15_7","10109","<p>作为军队的指挥官，你可以选择发射导弹杀死 <strong>2名</strong> 敌国士兵，但会误杀附近的 <strong>1名</strong> 敌国平民。</p> <p>平民照片如下图所示。</p> <p></p> <img src='stimuli/faces/NFM3.jpg', style='max-width: 30%;'> </img> <p><strong>你是否选择发射武器？</strong></p>","0",""
"","","","","","html-keyboard-response","10","46709","0.0-4.0-0.3","58","1","2022-11-02 02:19:53","ebf9627b049f568eb4bf28942cb89901","124.16.149.42","Mozilla/5.0 (Macintosh; Intel Mac OS X 10_15_7) AppleWebKit/537.36 (KHTML, like Gecko) Chrome/106.0.0.0 Safari/537.36","Macintosh","Chrome","106.0.0.0","OS X","10_15_7","null","<div style=""font-size:60px;"">+</div>","null",""
"","","","","","html-button-response","11","48567","0.0-4.0-1.3","58","1","2022-11-02 02:19:53","ebf9627b049f568eb4bf28942cb89901","124.16.149.42","Mozilla/5.0 (Macintosh; Intel Mac OS X 10_15_7) AppleWebKit/537.36 (KHTML, like Gecko) Chrome/106.0.0.0 Safari/537.36","Macintosh","Chrome","106.0.0.0","OS X","10_15_7","1856","<p>作为军队的指挥官，你可以选择发射导弹杀死 <strong>5名</strong> 敌国士兵，但会误杀附近的 <strong>1名</strong> 敌国平民。</p> <p>平民照片如下图所示。</p> <p></p> <img src='stimuli/faces/NFF6.jpg', style='max-width: 30%;'> </img> <p><strong>你是否选择发射武器？</strong></p>","0",""
"","","","","","html-keyboard-response","12","49571","0.0-4.0-0.4","58","1","2022-11-02 02:19:53","ebf9627b049f568eb4bf28942cb89901","124.16.149.42","Mozilla/5.0 (Macintosh; Intel Mac OS X 10_15_7) AppleWebKit/537.36 (KHTML, like Gecko) Chrome/106.0.0.0 Safari/537.36","Macintosh","Chrome","106.0.0.0","OS X","10_15_7","null","<div style=""font-size:60px;"">+</div>","null",""
"","","","","","html-button-response","13","51994","0.0-4.0-1.4","58","1","2022-11-02 02:19:53","ebf9627b049f568eb4bf28942cb89901","124.16.149.42","Mozilla/5.0 (Macintosh; Intel Mac OS X 10_15_7) AppleWebKit/537.36 (KHTML, like Gecko) Chrome/106.0.0.0 Safari/537.36","Macintosh","Chrome","106.0.0.0","OS X","10_15_7","2421","<p>作为军队的指挥官，你可以选择发射导弹杀死 <strong>9名</strong> 敌国士兵，但会炸毁附近的 <strong>1棵</strong> 敌国树木。</p> <p>树木的照片如下图所示。</p> <p></p> <img src='stimuli/trees/10.png', style='max-width: 30%;'> </img> <p><strong>你是否选择发射武器？</strong></p>","0",""
"","","","","","html-keyboard-response","14","52998","0.0-4.0-0.5","58","1","2022-11-02 02:19:53","ebf9627b049f568eb4bf28942cb89901","124.16.149.42","Mozilla/5.0 (Macintosh; Intel Mac OS X 10_15_7) AppleWebKit/537.36 (KHTML, like Gecko) Chrome/106.0.0.0 Safari/537.36","Macintosh","Chrome","106.0.0.0","OS X","10_15_7","null","<div style=""font-size:60px;"">+</div>","null",""
"","","","","","html-button-response","15","55860","0.0-4.0-1.5","58","1","2022-11-02 02:19:53","ebf9627b049f568eb4bf28942cb89901","124.16.149.42","Mozilla/5.0 (Macintosh; Intel Mac OS X 10_15_7) AppleWebKit/537.36 (KHTML, like Gecko) Chrome/106.0.0.0 Safari/537.36","Macintosh","Chrome","106.0.0.0","OS X","10_15_7","2859","<p>作为军队的指挥官，你可以选择发射导弹杀死 <strong>9名</strong> 敌国士兵，但会误杀附近的 <strong>1名</strong> 敌国平民。</p> <p>平民照片如下图所示。</p> <p></p> <img src='stimuli/faces/NFM1.jpg', style='max-width: 30%;'> </img> <p><strong>你是否选择发射武器？</strong></p>","0",""
"","","","","","html-keyboard-response","16","56866","0.0-4.0-0.6","58","1","2022-11-02 02:19:53","ebf9627b049f568eb4bf28942cb89901","124.16.149.42","Mozilla/5.0 (Macintosh; Intel Mac OS X 10_15_7) AppleWebKit/537.36 (KHTML, like Gecko) Chrome/106.0.0.0 Safari/537.36","Macintosh","Chrome","106.0.0.0","OS X","10_15_7","null","<div style=""font-size:60px;"">+</div>","null",""
"","","","","","html-button-response","17","58666","0.0-4.0-1.6","58","1","2022-11-02 02:19:53","ebf9627b049f568eb4bf28942cb89901","124.16.149.42","Mozilla/5.0 (Macintosh; Intel Mac OS X 10_15_7) AppleWebKit/537.36 (KHTML, like Gecko) Chrome/106.0.0.0 Safari/537.36","Macintosh","Chrome","106.0.0.0","OS X","10_15_7","1797","<p>作为军队的指挥官，你可以选择发射导弹杀死 <strong>2名</strong> 敌国士兵，但会炸毁附近的 <strong>1棵</strong> 敌国树木。</p> <p>树木的照片如下图所示。</p> <p></p> <img src='stimuli/trees/7.png', style='max-width: 30%;'> </img> <p><strong>你是否选择发射武器？</strong></p>","0",""
"","","","","","html-keyboard-response","18","59672","0.0-4.0-0.7","58","1","2022-11-02 02:19:53","ebf9627b049f568eb4bf28942cb89901","124.16.149.42","Mozilla/5.0 (Macintosh; Intel Mac OS X 10_15_7) AppleWebKit/537.36 (KHTML, like Gecko) Chrome/106.0.0.0 Safari/537.36","Macintosh","Chrome","106.0.0.0","OS X","10_15_7","null","<div style=""font-size:60px;"">+</div>","null",""
"","","","","","html-button-response","19","61188","0.0-4.0-1.7","58","1","2022-11-02 02:19:53","ebf9627b049f568eb4bf28942cb89901","124.16.149.42","Mozilla/5.0 (Macintosh; Intel Mac OS X 10_15_7) AppleWebKit/537.36 (KHTML, like Gecko) Chrome/106.0.0.0 Safari/537.36","Macintosh","Chrome","106.0.0.0","OS X","10_15_7","1512","<p>作为军队的指挥官，你可以选择发射导弹杀死 <strong>3名</strong> 敌国士兵，但会炸毁附近的 <strong>1棵</strong> 敌国树木。</p> <p>树木的照片如下图所示。</p> <p></p> <img src='stimuli/trees/12.png', style='max-width: 30%;'> </img> <p><strong>你是否选择发射武器？</strong></p>","0",""
"","","","","","html-keyboard-response","20","62190","0.0-4.0-0.8","58","1","2022-11-02 02:19:53","ebf9627b049f568eb4bf28942cb89901","124.16.149.42","Mozilla/5.0 (Macintosh; Intel Mac OS X 10_15_7) AppleWebKit/537.36 (KHTML, like Gecko) Chrome/106.0.0.0 Safari/537.36","Macintosh","Chrome","106.0.0.0","OS X","10_15_7","null","<div style=""font-size:60px;"">+</div>","null",""
"","","","","","html-button-response","21","63452","0.0-4.0-1.8","58","1","2022-11-02 02:19:53","ebf9627b049f568eb4bf28942cb89901","124.16.149.42","Mozilla/5.0 (Macintosh; Intel Mac OS X 10_15_7) AppleWebKit/537.36 (KHTML, like Gecko) Chrome/106.0.0.0 Safari/537.36","Macintosh","Chrome","106.0.0.0","OS X","10_15_7","1261","<p>作为军队的指挥官，你可以选择发射导弹杀死 <strong>7名</strong> 敌国士兵，但会炸毁附近的 <strong>1棵</strong> 敌国树木。</p> <p>树木的照片如下图所示。</p> <p></p> <img src='stimuli/trees/3.png', style='max-width: 30%;'> </img> <p><strong>你是否选择发射武器？</strong></p>","0",""
"","","","","","html-keyboard-response","22","64455","0.0-4.0-0.9","58","1","2022-11-02 02:19:53","ebf9627b049f568eb4bf28942cb89901","124.16.149.42","Mozilla/5.0 (Macintosh; Intel Mac OS X 10_15_7) AppleWebKit/537.36 (KHTML, like Gecko) Chrome/106.0.0.0 Safari/537.36","Macintosh","Chrome","106.0.0.0","OS X","10_15_7","null","<div style=""font-size:60px;"">+</div>","null",""
"","","","","","html-button-response","23","67611","0.0-4.0-1.9","58","1","2022-11-02 02:19:53","ebf9627b049f568eb4bf28942cb89901","124.16.149.42","Mozilla/5.0 (Macintosh; Intel Mac OS X 10_15_7) AppleWebKit/537.36 (KHTML, like Gecko) Chrome/106.0.0.0 Safari/537.36","Macintosh","Chrome","106.0.0.0","OS X","10_15_7","3154","<p>作为军队的指挥官，你可以选择发射导弹杀死 <strong>3名</strong> 敌国士兵，但会误杀附近的 <strong>1名</strong> 敌国平民。</p> <p>平民照片如下图所示。</p> <p></p> <img src='stimuli/faces/NFF3.jpg', style='max-width: 30%;'> </img> <p><strong>你是否选择发射武器？</strong></p>","0",""
"","","","","","html-keyboard-response","24","68617","0.0-4.0-0.10","58","1","2022-11-02 02:19:53","ebf9627b049f568eb4bf28942cb89901","124.16.149.42","Mozilla/5.0 (Macintosh; Intel Mac OS X 10_15_7) AppleWebKit/537.36 (KHTML, like Gecko) Chrome/106.0.0.0 Safari/537.36","Macintosh","Chrome","106.0.0.0","OS X","10_15_7","null","<div style=""font-size:60px;"">+</div>","null",""
"","","","","","html-button-response","25","70770","0.0-4.0-1.10","58","1","2022-11-02 02:19:53","ebf9627b049f568eb4bf28942cb89901","124.16.149.42","Mozilla/5.0 (Macintosh; Intel Mac OS X 10_15_7) AppleWebKit/537.36 (KHTML, like Gecko) Chrome/106.0.0.0 Safari/537.36","Macintosh","Chrome","106.0.0.0","OS X","10_15_7","2150","<p>作为军队的指挥官，你可以选择发射导弹杀死 <strong>10名</strong> 敌国士兵，但会误杀附近的 <strong>1名</strong> 敌国平民。</p> <p>平民照片如下图所示。</p> <p></p> <img src='stimuli/faces/NFM4.jpg', style='max-width: 30%;'> </img> <p><strong>你是否选择发射武器？</strong></p>","0",""
"","","","","","html-keyboard-response","26","71774","0.0-4.0-0.11","58","1","2022-11-02 02:19:53","ebf9627b049f568eb4bf28942cb89901","124.16.149.42","Mozilla/5.0 (Macintosh; Intel Mac OS X 10_15_7) AppleWebKit/537.36 (KHTML, like Gecko) Chrome/106.0.0.0 Safari/537.36","Macintosh","Chrome","106.0.0.0","OS X","10_15_7","null","<div style=""font-size:60px;"">+</div>","null",""
"","","","","","html-button-response","27","73452","0.0-4.0-1.11","58","1","2022-11-02 02:19:53","ebf9627b049f568eb4bf28942cb89901","124.16.149.42","Mozilla/5.0 (Macintosh; Intel Mac OS X 10_15_7) AppleWebKit/537.36 (KHTML, like Gecko) Chrome/106.0.0.0 Safari/537.36","Macintosh","Chrome","106.0.0.0","OS X","10_15_7","1674","<p>作为军队的指挥官，你可以选择发射导弹杀死 <strong>9名</strong> 敌国士兵，但会误杀附近的 <strong>1名</strong> 敌国平民。</p> <p>平民照片如下图所示。</p> <p></p> <img src='stimuli/faces/NFM8.jpg', style='max-width: 30%;'> </img> <p><strong>你是否选择发射武器？</strong></p>","0",""
"","","","","","html-keyboard-response","28","74454","0.0-4.0-0.12","58","1","2022-11-02 02:19:53","ebf9627b049f568eb4bf28942cb89901","124.16.149.42","Mozilla/5.0 (Macintosh; Intel Mac OS X 10_15_7) AppleWebKit/537.36 (KHTML, like Gecko) Chrome/106.0.0.0 Safari/537.36","Macintosh","Chrome","106.0.0.0","OS X","10_15_7","null","<div style=""font-size:60px;"">+</div>","null",""
"","","","","","html-button-response","29","76171","0.0-4.0-1.12","58","1","2022-11-02 02:19:53","ebf9627b049f568eb4bf28942cb89901","124.16.149.42","Mozilla/5.0 (Macintosh; Intel Mac OS X 10_15_7) AppleWebKit/537.36 (KHTML, like Gecko) Chrome/106.0.0.0 Safari/537.36","Macintosh","Chrome","106.0.0.0","OS X","10_15_7","1713","<p>作为军队的指挥官，你可以选择发射导弹杀死 <strong>1名</strong> 敌国士兵，但会误杀附近的 <strong>1名</strong> 敌国平民。</p> <p>平民照片如下图所示。</p> <p></p> <img src='stimuli/faces/NFM7.jpg', style='max-width: 30%;'> </img> <p><strong>你是否选择发射武器？</strong></p>","1",""
"","","","","","html-keyboard-response","30","77175","0.0-4.0-0.13","58","1","2022-11-02 02:19:53","ebf9627b049f568eb4bf28942cb89901","124.16.149.42","Mozilla/5.0 (Macintosh; Intel Mac OS X 10_15_7) AppleWebKit/537.36 (KHTML, like Gecko) Chrome/106.0.0.0 Safari/537.36","Macintosh","Chrome","106.0.0.0","OS X","10_15_7","null","<div style=""font-size:60px;"">+</div>","null",""
"","","","","","html-button-response","31","79818","0.0-4.0-1.13","58","1","2022-11-02 02:19:53","ebf9627b049f568eb4bf28942cb89901","124.16.149.42","Mozilla/5.0 (Macintosh; Intel Mac OS X 10_15_7) AppleWebKit/537.36 (KHTML, like Gecko) Chrome/106.0.0.0 Safari/537.36","Macintosh","Chrome","106.0.0.0","OS X","10_15_7","2639","<p>作为军队的指挥官，你可以选择发射导弹杀死 <strong>3名</strong> 敌国士兵，但会炸毁附近的 <strong>1棵</strong> 敌国树木。</p> <p>树木的照片如下图所示。</p> <p></p> <img src='stimuli/trees/14.png', style='max-width: 30%;'> </img> <p><strong>你是否选择发射武器？</strong></p>","0",""
"","","","","","html-keyboard-response","32","80822","0.0-4.0-0.14","58","1","2022-11-02 02:19:53","ebf9627b049f568eb4bf28942cb89901","124.16.149.42","Mozilla/5.0 (Macintosh; Intel Mac OS X 10_15_7) AppleWebKit/537.36 (KHTML, like Gecko) Chrome/106.0.0.0 Safari/537.36","Macintosh","Chrome","106.0.0.0","OS X","10_15_7","null","<div style=""font-size:60px;"">+</div>","null",""
"","","","","","html-button-response","33","81983","0.0-4.0-1.14","58","1","2022-11-02 02:19:53","ebf9627b049f568eb4bf28942cb89901","124.16.149.42","Mozilla/5.0 (Macintosh; Intel Mac OS X 10_15_7) AppleWebKit/537.36 (KHTML, like Gecko) Chrome/106.0.0.0 Safari/537.36","Macintosh","Chrome","106.0.0.0","OS X","10_15_7","1159","<p>作为军队的指挥官，你可以选择发射导弹杀死 <strong>7名</strong> 敌国士兵，但会炸毁附近的 <strong>1棵</strong> 敌国树木。</p> <p>树木的照片如下图所示。</p> <p></p> <img src='stimuli/trees/7.png', style='max-width: 30%;'> </img> <p><strong>你是否选择发射武器？</strong></p>","0",""
"","","","","","html-keyboard-response","34","82987","0.0-4.0-0.15","58","1","2022-11-02 02:19:53","ebf9627b049f568eb4bf28942cb89901","124.16.149.42","Mozilla/5.0 (Macintosh; Intel Mac OS X 10_15_7) AppleWebKit/537.36 (KHTML, like Gecko) Chrome/106.0.0.0 Safari/537.36","Macintosh","Chrome","106.0.0.0","OS X","10_15_7","null","<div style=""font-size:60px;"">+</div>","null",""
"","","","","","html-button-response","35","85601","0.0-4.0-1.15","58","1","2022-11-02 02:19:53","ebf9627b049f568eb4bf28942cb89901","124.16.149.42","Mozilla/5.0 (Macintosh; Intel Mac OS X 10_15_7) AppleWebKit/537.36 (KHTML, like Gecko) Chrome/106.0.0.0 Safari/537.36","Macintosh","Chrome","106.0.0.0","OS X","10_15_7","2611","<p>作为军队的指挥官，你可以选择发射导弹杀死 <strong>9名</strong> 敌国士兵，但会误杀附近的 <strong>1名</strong> 敌国平民。</p> <p>平民照片如下图所示。</p> <p></p> <img src='stimuli/faces/NFF5.jpg', style='max-width: 30%;'> </img> <p><strong>你是否选择发射武器？</strong></p>","0",""
"","","","","","html-keyboard-response","36","86605","0.0-4.0-0.16","58","1","2022-11-02 02:19:53","ebf9627b049f568eb4bf28942cb89901","124.16.149.42","Mozilla/5.0 (Macintosh; Intel Mac OS X 10_15_7) AppleWebKit/537.36 (KHTML, like Gecko) Chrome/106.0.0.0 Safari/537.36","Macintosh","Chrome","106.0.0.0","OS X","10_15_7","null","<div style=""font-size:60px;"">+</div>","null",""
"","","","","","html-button-response","37","88907","0.0-4.0-1.16","58","1","2022-11-02 02:19:53","ebf9627b049f568eb4bf28942cb89901","124.16.149.42","Mozilla/5.0 (Macintosh; Intel Mac OS X 10_15_7) AppleWebKit/537.36 (KHTML, like Gecko) Chrome/106.0.0.0 Safari/537.36","Macintosh","Chrome","106.0.0.0","OS X","10_15_7","2300","<p>作为军队的指挥官，你可以选择发射导弹杀死 <strong>1名</strong> 敌国士兵，但会炸毁附近的 <strong>1棵</strong> 敌国树木。</p> <p>树木的照片如下图所示。</p> <p></p> <img src='stimuli/trees/1.png', style='max-width: 30%;'> </img> <p><strong>你是否选择发射武器？</strong></p>","0",""
"","","","","","html-keyboard-response","38","89910","0.0-4.0-0.17","58","1","2022-11-02 02:19:53","ebf9627b049f568eb4bf28942cb89901","124.16.149.42","Mozilla/5.0 (Macintosh; Intel Mac OS X 10_15_7) AppleWebKit/537.36 (KHTML, like Gecko) Chrome/106.0.0.0 Safari/537.36","Macintosh","Chrome","106.0.0.0","OS X","10_15_7","null","<div style=""font-size:60px;"">+</div>","null",""
"","","","","","html-button-response","39","91396","0.0-4.0-1.17","58","1","2022-11-02 02:19:53","ebf9627b049f568eb4bf28942cb89901","124.16.149.42","Mozilla/5.0 (Macintosh; Intel Mac OS X 10_15_7) AppleWebKit/537.36 (KHTML, like Gecko) Chrome/106.0.0.0 Safari/537.36","Macintosh","Chrome","106.0.0.0","OS X","10_15_7","1482","<p>作为军队的指挥官，你可以选择发射导弹杀死 <strong>10名</strong> 敌国士兵，但会误杀附近的 <strong>1名</strong> 敌国平民。</p> <p>平民照片如下图所示。</p> <p></p> <img src='stimuli/faces/NFM3.jpg', style='max-width: 30%;'> </img> <p><strong>你是否选择发射武器？</strong></p>","0",""
"","","","","","html-keyboard-response","40","92403","0.0-4.0-0.18","58","1","2022-11-02 02:19:53","ebf9627b049f568eb4bf28942cb89901","124.16.149.42","Mozilla/5.0 (Macintosh; Intel Mac OS X 10_15_7) AppleWebKit/537.36 (KHTML, like Gecko) Chrome/106.0.0.0 Safari/537.36","Macintosh","Chrome","106.0.0.0","OS X","10_15_7","null","<div style=""font-size:60px;"">+</div>","null",""
"","","","","","html-button-response","41","93890","0.0-4.0-1.18","58","1","2022-11-02 02:19:53","ebf9627b049f568eb4bf28942cb89901","124.16.149.42","Mozilla/5.0 (Macintosh; Intel Mac OS X 10_15_7) AppleWebKit/537.36 (KHTML, like Gecko) Chrome/106.0.0.0 Safari/537.36","Macintosh","Chrome","106.0.0.0","OS X","10_15_7","1483","<p>作为军队的指挥官，你可以选择发射导弹杀死 <strong>5名</strong> 敌国士兵，但会误杀附近的 <strong>1名</strong> 敌国平民。</p> <p>平民照片如下图所示。</p> <p></p> <img src='stimuli/faces/NFM2.jpg', style='max-width: 30%;'> </img> <p><strong>你是否选择发射武器？</strong></p>","0",""
"","","","","","html-keyboard-response","42","94894","0.0-4.0-0.19","58","1","2022-11-02 02:19:53","ebf9627b049f568eb4bf28942cb89901","124.16.149.42","Mozilla/5.0 (Macintosh; Intel Mac OS X 10_15_7) AppleWebKit/537.36 (KHTML, like Gecko) Chrome/106.0.0.0 Safari/537.36","Macintosh","Chrome","106.0.0.0","OS X","10_15_7","null","<div style=""font-size:60px;"">+</div>","null",""
"","","","","","html-button-response","43","96127","0.0-4.0-1.19","58","1","2022-11-02 02:19:53","ebf9627b049f568eb4bf28942cb89901","124.16.149.42","Mozilla/5.0 (Macintosh; Intel Mac OS X 10_15_7) AppleWebKit/537.36 (KHTML, like Gecko) Chrome/106.0.0.0 Safari/537.36","Macintosh","Chrome","106.0.0.0","OS X","10_15_7","1232","<p>作为军队的指挥官，你可以选择发射导弹杀死 <strong>1名</strong> 敌国士兵，但会炸毁附近的 <strong>1棵</strong> 敌国树木。</p> <p>树木的照片如下图所示。</p> <p></p> <img src='stimuli/trees/3.png', style='max-width: 30%;'> </img> <p><strong>你是否选择发射武器？</strong></p>","0",""
"","","","","","html-keyboard-response","44","97130","0.0-4.0-0.20","58","1","2022-11-02 02:19:53","ebf9627b049f568eb4bf28942cb89901","124.16.149.42","Mozilla/5.0 (Macintosh; Intel Mac OS X 10_15_7) AppleWebKit/537.36 (KHTML, like Gecko) Chrome/106.0.0.0 Safari/537.36","Macintosh","Chrome","106.0.0.0","OS X","10_15_7","null","<div style=""font-size:60px;"">+</div>","null",""
"","","","","","html-button-response","45","98241","0.0-4.0-1.20","58","1","2022-11-02 02:19:53","ebf9627b049f568eb4bf28942cb89901","124.16.149.42","Mozilla/5.0 (Macintosh; Intel Mac OS X 10_15_7) AppleWebKit/537.36 (KHTML, like Gecko) Chrome/106.0.0.0 Safari/537.36","Macintosh","Chrome","106.0.0.0","OS X","10_15_7","1109","<p>作为军队的指挥官，你可以选择发射导弹杀死 <strong>7名</strong> 敌国士兵，但会炸毁附近的 <strong>1棵</strong> 敌国树木。</p> <p>树木的照片如下图所示。</p> <p></p> <img src='stimuli/trees/16.png', style='max-width: 30%;'> </img> <p><strong>你是否选择发射武器？</strong></p>","0",""
"","","","","","html-keyboard-response","46","99248","0.0-4.0-0.21","58","1","2022-11-02 02:19:53","ebf9627b049f568eb4bf28942cb89901","124.16.149.42","Mozilla/5.0 (Macintosh; Intel Mac OS X 10_15_7) AppleWebKit/537.36 (KHTML, like Gecko) Chrome/106.0.0.0 Safari/537.36","Macintosh","Chrome","106.0.0.0","OS X","10_15_7","null","<div style=""font-size:60px;"">+</div>","null",""
"","","","","","html-button-response","47","100873","0.0-4.0-1.21","58","1","2022-11-02 02:19:53","ebf9627b049f568eb4bf28942cb89901","124.16.149.42","Mozilla/5.0 (Macintosh; Intel Mac OS X 10_15_7) AppleWebKit/537.36 (KHTML, like Gecko) Chrome/106.0.0.0 Safari/537.36","Macintosh","Chrome","106.0.0.0","OS X","10_15_7","1623","<p>作为军队的指挥官，你可以选择发射导弹杀死 <strong>7名</strong> 敌国士兵，但会炸毁附近的 <strong>1棵</strong> 敌国树木。</p> <p>树木的照片如下图所示。</p> <p></p> <img src='stimuli/trees/2.png', style='max-width: 30%;'> </img> <p><strong>你是否选择发射武器？</strong></p>","0",""
"","","","","","html-keyboard-response","48","101880","0.0-4.0-0.22","58","1","2022-11-02 02:19:53","ebf9627b049f568eb4bf28942cb89901","124.16.149.42","Mozilla/5.0 (Macintosh; Intel Mac OS X 10_15_7) AppleWebKit/537.36 (KHTML, like Gecko) Chrome/106.0.0.0 Safari/537.36","Macintosh","Chrome","106.0.0.0","OS X","10_15_7","null","<div style=""font-size:60px;"">+</div>","null",""
"","","","","","html-button-response","49","103093","0.0-4.0-1.22","58","1","2022-11-02 02:19:53","ebf9627b049f568eb4bf28942cb89901","124.16.149.42","Mozilla/5.0 (Macintosh; Intel Mac OS X 10_15_7) AppleWebKit/537.36 (KHTML, like Gecko) Chrome/106.0.0.0 Safari/537.36","Macintosh","Chrome","106.0.0.0","OS X","10_15_7","1211","<p>作为军队的指挥官，你可以选择发射导弹杀死 <strong>6名</strong> 敌国士兵，但会炸毁附近的 <strong>1棵</strong> 敌国树木。</p> <p>树木的照片如下图所示。</p> <p></p> <img src='stimuli/trees/11.png', style='max-width: 30%;'> </img> <p><strong>你是否选择发射武器？</strong></p>","0",""
"","","","","","html-keyboard-response","50","104100","0.0-4.0-0.23","58","1","2022-11-02 02:19:53","ebf9627b049f568eb4bf28942cb89901","124.16.149.42","Mozilla/5.0 (Macintosh; Intel Mac OS X 10_15_7) AppleWebKit/537.36 (KHTML, like Gecko) Chrome/106.0.0.0 Safari/537.36","Macintosh","Chrome","106.0.0.0","OS X","10_15_7","null","<div style=""font-size:60px;"">+</div>","null",""
"","","","","","html-button-response","51","105838","0.0-4.0-1.23","58","1","2022-11-02 02:19:53","ebf9627b049f568eb4bf28942cb89901","124.16.149.42","Mozilla/5.0 (Macintosh; Intel Mac OS X 10_15_7) AppleWebKit/537.36 (KHTML, like Gecko) Chrome/106.0.0.0 Safari/537.36","Macintosh","Chrome","106.0.0.0","OS X","10_15_7","1737","<p>作为军队的指挥官，你可以选择发射导弹杀死 <strong>5名</strong> 敌国士兵，但会炸毁附近的 <strong>1棵</strong> 敌国树木。</p> <p>树木的照片如下图所示。</p> <p></p> <img src='stimuli/trees/11.png', style='max-width: 30%;'> </img> <p><strong>你是否选择发射武器？</strong></p>","0",""
"","","","","","html-keyboard-response","52","106841","0.0-4.0-0.24","58","1","2022-11-02 02:19:53","ebf9627b049f568eb4bf28942cb89901","124.16.149.42","Mozilla/5.0 (Macintosh; Intel Mac OS X 10_15_7) AppleWebKit/537.36 (KHTML, like Gecko) Chrome/106.0.0.0 Safari/537.36","Macintosh","Chrome","106.0.0.0","OS X","10_15_7","null","<div style=""font-size:60px;"">+</div>","null",""
"","","","","","html-button-response","53","108053","0.0-4.0-1.24","58","1","2022-11-02 02:19:53","ebf9627b049f568eb4bf28942cb89901","124.16.149.42","Mozilla/5.0 (Macintosh; Intel Mac OS X 10_15_7) AppleWebKit/537.36 (KHTML, like Gecko) Chrome/106.0.0.0 Safari/537.36","Macintosh","Chrome","106.0.0.0","OS X","10_15_7","1209","<p>作为军队的指挥官，你可以选择发射导弹杀死 <strong>7名</strong> 敌国士兵，但会炸毁附近的 <strong>1棵</strong> 敌国树木。</p> <p>树木的照片如下图所示。</p> <p></p> <img src='stimuli/trees/9.png', style='max-width: 30%;'> </img> <p><strong>你是否选择发射武器？</strong></p>","0",""
"","","","","","html-keyboard-response","54","109060","0.0-4.0-0.25","58","1","2022-11-02 02:19:53","ebf9627b049f568eb4bf28942cb89901","124.16.149.42","Mozilla/5.0 (Macintosh; Intel Mac OS X 10_15_7) AppleWebKit/537.36 (KHTML, like Gecko) Chrome/106.0.0.0 Safari/537.36","Macintosh","Chrome","106.0.0.0","OS X","10_15_7","null","<div style=""font-size:60px;"">+</div>","null",""
"","","","","","html-button-response","55","110357","0.0-4.0-1.25","58","1","2022-11-02 02:19:53","ebf9627b049f568eb4bf28942cb89901","124.16.149.42","Mozilla/5.0 (Macintosh; Intel Mac OS X 10_15_7) AppleWebKit/537.36 (KHTML, like Gecko) Chrome/106.0.0.0 Safari/537.36","Macintosh","Chrome","106.0.0.0","OS X","10_15_7","1293","<p>作为军队的指挥官，你可以选择发射导弹杀死 <strong>10名</strong> 敌国士兵，但会炸毁附近的 <strong>1棵</strong> 敌国树木。</p> <p>树木的照片如下图所示。</p> <p></p> <img src='stimuli/trees/15.png', style='max-width: 30%;'> </img> <p><strong>你是否选择发射武器？</strong></p>","0",""
"","","","","","html-keyboard-response","56","111360","0.0-4.0-0.26","58","1","2022-11-02 02:19:53","ebf9627b049f568eb4bf28942cb89901","124.16.149.42","Mozilla/5.0 (Macintosh; Intel Mac OS X 10_15_7) AppleWebKit/537.36 (KHTML, like Gecko) Chrome/106.0.0.0 Safari/537.36","Macintosh","Chrome","106.0.0.0","OS X","10_15_7","null","<div style=""font-size:60px;"">+</div>","null",""
"","","","","","html-button-response","57","113890","0.0-4.0-1.26","58","1","2022-11-02 02:19:53","ebf9627b049f568eb4bf28942cb89901","124.16.149.42","Mozilla/5.0 (Macintosh; Intel Mac OS X 10_15_7) AppleWebKit/537.36 (KHTML, like Gecko) Chrome/106.0.0.0 Safari/537.36","Macintosh","Chrome","106.0.0.0","OS X","10_15_7","2526","<p>作为军队的指挥官，你可以选择发射导弹杀死 <strong>3名</strong> 敌国士兵，但会误杀附近的 <strong>1名</strong> 敌国平民。</p> <p>平民照片如下图所示。</p> <p></p> <img src='stimuli/faces/NFF5.jpg', style='max-width: 30%;'> </img> <p><strong>你是否选择发射武器？</strong></p>","0",""
"","","","","","html-keyboard-response","58","114897","0.0-4.0-0.27","58","1","2022-11-02 02:19:53","ebf9627b049f568eb4bf28942cb89901","124.16.149.42","Mozilla/5.0 (Macintosh; Intel Mac OS X 10_15_7) AppleWebKit/537.36 (KHTML, like Gecko) Chrome/106.0.0.0 Safari/537.36","Macintosh","Chrome","106.0.0.0","OS X","10_15_7","null","<div style=""font-size:60px;"">+</div>","null",""
"","","","","","html-button-response","59","116054","0.0-4.0-1.27","58","1","2022-11-02 02:19:53","ebf9627b049f568eb4bf28942cb89901","124.16.149.42","Mozilla/5.0 (Macintosh; Intel Mac OS X 10_15_7) AppleWebKit/537.36 (KHTML, like Gecko) Chrome/106.0.0.0 Safari/537.36","Macintosh","Chrome","106.0.0.0","OS X","10_15_7","1155","<p>作为军队的指挥官，你可以选择发射导弹杀死 <strong>3名</strong> 敌国士兵，但会炸毁附近的 <strong>1棵</strong> 敌国树木。</p> <p>树木的照片如下图所示。</p> <p></p> <img src='stimuli/trees/2.png', style='max-width: 30%;'> </img> <p><strong>你是否选择发射武器？</strong></p>","0",""
"","","","","","html-keyboard-response","60","117058","0.0-4.0-0.28","58","1","2022-11-02 02:19:53","ebf9627b049f568eb4bf28942cb89901","124.16.149.42","Mozilla/5.0 (Macintosh; Intel Mac OS X 10_15_7) AppleWebKit/537.36 (KHTML, like Gecko) Chrome/106.0.0.0 Safari/537.36","Macintosh","Chrome","106.0.0.0","OS X","10_15_7","null","<div style=""font-size:60px;"">+</div>","null",""
"","","","","","html-button-response","61","118997","0.0-4.0-1.28","58","1","2022-11-02 02:19:53","ebf9627b049f568eb4bf28942cb89901","124.16.149.42","Mozilla/5.0 (Macintosh; Intel Mac OS X 10_15_7) AppleWebKit/537.36 (KHTML, like Gecko) Chrome/106.0.0.0 Safari/537.36","Macintosh","Chrome","106.0.0.0","OS X","10_15_7","1934","<p>作为军队的指挥官，你可以选择发射导弹杀死 <strong>1名</strong> 敌国士兵，但会误杀附近的 <strong>1名</strong> 敌国平民。</p> <p>平民照片如下图所示。</p> <p></p> <img src='stimuli/faces/NFM6.jpg', style='max-width: 30%;'> </img> <p><strong>你是否选择发射武器？</strong></p>","1",""
"","","","","","html-keyboard-response","62","119999","0.0-4.0-0.29","58","1","2022-11-02 02:19:53","ebf9627b049f568eb4bf28942cb89901","124.16.149.42","Mozilla/5.0 (Macintosh; Intel Mac OS X 10_15_7) AppleWebKit/537.36 (KHTML, like Gecko) Chrome/106.0.0.0 Safari/537.36","Macintosh","Chrome","106.0.0.0","OS X","10_15_7","null","<div style=""font-size:60px;"">+</div>","null",""
"","","","","","html-button-response","63","122027","0.0-4.0-1.29","58","1","2022-11-02 02:19:53","ebf9627b049f568eb4bf28942cb89901","124.16.149.42","Mozilla/5.0 (Macintosh; Intel Mac OS X 10_15_7) AppleWebKit/537.36 (KHTML, like Gecko) Chrome/106.0.0.0 Safari/537.36","Macintosh","Chrome","106.0.0.0","OS X","10_15_7","2024","<p>作为军队的指挥官，你可以选择发射导弹杀死 <strong>3名</strong> 敌国士兵，但会炸毁附近的 <strong>1棵</strong> 敌国树木。</p> <p>树木的照片如下图所示。</p> <p></p> <img src='stimuli/trees/9.png', style='max-width: 30%;'> </img> <p><strong>你是否选择发射武器？</strong></p>","0",""
"","","","","","html-keyboard-response","64","123032","0.0-4.0-0.30","58","1","2022-11-02 02:19:53","ebf9627b049f568eb4bf28942cb89901","124.16.149.42","Mozilla/5.0 (Macintosh; Intel Mac OS X 10_15_7) AppleWebKit/537.36 (KHTML, like Gecko) Chrome/106.0.0.0 Safari/537.36","Macintosh","Chrome","106.0.0.0","OS X","10_15_7","null","<div style=""font-size:60px;"">+</div>","null",""
"","","","","","html-button-response","65","124125","0.0-4.0-1.30","58","1","2022-11-02 02:19:53","ebf9627b049f568eb4bf28942cb89901","124.16.149.42","Mozilla/5.0 (Macintosh; Intel Mac OS X 10_15_7) AppleWebKit/537.36 (KHTML, like Gecko) Chrome/106.0.0.0 Safari/537.36","Macintosh","Chrome","106.0.0.0","OS X","10_15_7","1090","<p>作为军队的指挥官，你可以选择发射导弹杀死 <strong>8名</strong> 敌国士兵，但会炸毁附近的 <strong>1棵</strong> 敌国树木。</p> <p>树木的照片如下图所示。</p> <p></p> <img src='stimuli/trees/12.png', style='max-width: 30%;'> </img> <p><strong>你是否选择发射武器？</strong></p>","0",""
"","","","","","html-keyboard-response","66","125132","0.0-4.0-0.31","58","1","2022-11-02 02:19:53","ebf9627b049f568eb4bf28942cb89901","124.16.149.42","Mozilla/5.0 (Macintosh; Intel Mac OS X 10_15_7) AppleWebKit/537.36 (KHTML, like Gecko) Chrome/106.0.0.0 Safari/537.36","Macintosh","Chrome","106.0.0.0","OS X","10_15_7","null","<div style=""font-size:60px;"">+</div>","null",""
"","","","","","html-button-response","67","126757","0.0-4.0-1.31","58","1","2022-11-02 02:19:53","ebf9627b049f568eb4bf28942cb89901","124.16.149.42","Mozilla/5.0 (Macintosh; Intel Mac OS X 10_15_7) AppleWebKit/537.36 (KHTML, like Gecko) Chrome/106.0.0.0 Safari/537.36","Macintosh","Chrome","106.0.0.0","OS X","10_15_7","1620","<p>作为军队的指挥官，你可以选择发射导弹杀死 <strong>9名</strong> 敌国士兵，但会炸毁附近的 <strong>1棵</strong> 敌国树木。</p> <p>树木的照片如下图所示。</p> <p></p> <img src='stimuli/trees/8.png', style='max-width: 30%;'> </img> <p><strong>你是否选择发射武器？</strong></p>","0",""
"","","","","","html-keyboard-response","68","127760","0.0-4.0-0.32","58","1","2022-11-02 02:19:53","ebf9627b049f568eb4bf28942cb89901","124.16.149.42","Mozilla/5.0 (Macintosh; Intel Mac OS X 10_15_7) AppleWebKit/537.36 (KHTML, like Gecko) Chrome/106.0.0.0 Safari/537.36","Macintosh","Chrome","106.0.0.0","OS X","10_15_7","null","<div style=""font-size:60px;"">+</div>","null",""
"","","","","","html-button-response","69","128988","0.0-4.0-1.32","58","1","2022-11-02 02:19:53","ebf9627b049f568eb4bf28942cb89901","124.16.149.42","Mozilla/5.0 (Macintosh; Intel Mac OS X 10_15_7) AppleWebKit/537.36 (KHTML, like Gecko) Chrome/106.0.0.0 Safari/537.36","Macintosh","Chrome","106.0.0.0","OS X","10_15_7","1226","<p>作为军队的指挥官，你可以选择发射导弹杀死 <strong>8名</strong> 敌国士兵，但会炸毁附近的 <strong>1棵</strong> 敌国树木。</p> <p>树木的照片如下图所示。</p> <p></p> <img src='stimuli/trees/14.png', style='max-width: 30%;'> </img> <p><strong>你是否选择发射武器？</strong></p>","0",""
"","","","","","html-keyboard-response","70","129994","0.0-4.0-0.33","58","1","2022-11-02 02:19:53","ebf9627b049f568eb4bf28942cb89901","124.16.149.42","Mozilla/5.0 (Macintosh; Intel Mac OS X 10_15_7) AppleWebKit/537.36 (KHTML, like Gecko) Chrome/106.0.0.0 Safari/537.36","Macintosh","Chrome","106.0.0.0","OS X","10_15_7","null","<div style=""font-size:60px;"">+</div>","null",""
"","","","","","html-button-response","71","131738","0.0-4.0-1.33","58","1","2022-11-02 02:19:53","ebf9627b049f568eb4bf28942cb89901","124.16.149.42","Mozilla/5.0 (Macintosh; Intel Mac OS X 10_15_7) AppleWebKit/537.36 (KHTML, like Gecko) Chrome/106.0.0.0 Safari/537.36","Macintosh","Chrome","106.0.0.0","OS X","10_15_7","1740","<p>作为军队的指挥官，你可以选择发射导弹杀死 <strong>4名</strong> 敌国士兵，但会炸毁附近的 <strong>1棵</strong> 敌国树木。</p> <p>树木的照片如下图所示。</p> <p></p> <img src='stimuli/trees/16.png', style='max-width: 30%;'> </img> <p><strong>你是否选择发射武器？</strong></p>","0",""
"","","","","","html-keyboard-response","72","132743","0.0-4.0-0.34","58","1","2022-11-02 02:19:53","ebf9627b049f568eb4bf28942cb89901","124.16.149.42","Mozilla/5.0 (Macintosh; Intel Mac OS X 10_15_7) AppleWebKit/537.36 (KHTML, like Gecko) Chrome/106.0.0.0 Safari/537.36","Macintosh","Chrome","106.0.0.0","OS X","10_15_7","null","<div style=""font-size:60px;"">+</div>","null",""
"","","","","","html-button-response","73","134052","0.0-4.0-1.34","58","1","2022-11-02 02:19:53","ebf9627b049f568eb4bf28942cb89901","124.16.149.42","Mozilla/5.0 (Macintosh; Intel Mac OS X 10_15_7) AppleWebKit/537.36 (KHTML, like Gecko) Chrome/106.0.0.0 Safari/537.36","Macintosh","Chrome","106.0.0.0","OS X","10_15_7","1303","<p>作为军队的指挥官，你可以选择发射导弹杀死 <strong>4名</strong> 敌国士兵，但会炸毁附近的 <strong>1棵</strong> 敌国树木。</p> <p>树木的照片如下图所示。</p> <p></p> <img src='stimuli/trees/8.png', style='max-width: 30%;'> </img> <p><strong>你是否选择发射武器？</strong></p>","0",""
"","","","","","html-keyboard-response","74","135059","0.0-4.0-0.35","58","1","2022-11-02 02:19:53","ebf9627b049f568eb4bf28942cb89901","124.16.149.42","Mozilla/5.0 (Macintosh; Intel Mac OS X 10_15_7) AppleWebKit/537.36 (KHTML, like Gecko) Chrome/106.0.0.0 Safari/537.36","Macintosh","Chrome","106.0.0.0","OS X","10_15_7","null","<div style=""font-size:60px;"">+</div>","null",""
"","","","","","html-button-response","75","136687","0.0-4.0-1.35","58","1","2022-11-02 02:19:53","ebf9627b049f568eb4bf28942cb89901","124.16.149.42","Mozilla/5.0 (Macintosh; Intel Mac OS X 10_15_7) AppleWebKit/537.36 (KHTML, like Gecko) Chrome/106.0.0.0 Safari/537.36","Macintosh","Chrome","106.0.0.0","OS X","10_15_7","1622","<p>作为军队的指挥官，你可以选择发射导弹杀死 <strong>7名</strong> 敌国士兵，但会误杀附近的 <strong>1名</strong> 敌国平民。</p> <p>平民照片如下图所示。</p> <p></p> <img src='stimuli/faces/NFM2.jpg', style='max-width: 30%;'> </img> <p><strong>你是否选择发射武器？</strong></p>","0",""
"","","","","","html-keyboard-response","76","137691","0.0-4.0-0.36","58","1","2022-11-02 02:19:53","ebf9627b049f568eb4bf28942cb89901","124.16.149.42","Mozilla/5.0 (Macintosh; Intel Mac OS X 10_15_7) AppleWebKit/537.36 (KHTML, like Gecko) Chrome/106.0.0.0 Safari/537.36","Macintosh","Chrome","106.0.0.0","OS X","10_15_7","null","<div style=""font-size:60px;"">+</div>","null",""
"","","","","","html-button-response","77","139395","0.0-4.0-1.36","58","1","2022-11-02 02:19:53","ebf9627b049f568eb4bf28942cb89901","124.16.149.42","Mozilla/5.0 (Macintosh; Intel Mac OS X 10_15_7) AppleWebKit/537.36 (KHTML, like Gecko) Chrome/106.0.0.0 Safari/537.36","Macintosh","Chrome","106.0.0.0","OS X","10_15_7","1700","<p>作为军队的指挥官，你可以选择发射导弹杀死 <strong>2名</strong> 敌国士兵，但会炸毁附近的 <strong>1棵</strong> 敌国树木。</p> <p>树木的照片如下图所示。</p> <p></p> <img src='stimuli/trees/15.png', style='max-width: 30%;'> </img> <p><strong>你是否选择发射武器？</strong></p>","0",""
"","","","","","html-keyboard-response","78","140404","0.0-4.0-0.37","58","1","2022-11-02 02:19:53","ebf9627b049f568eb4bf28942cb89901","124.16.149.42","Mozilla/5.0 (Macintosh; Intel Mac OS X 10_15_7) AppleWebKit/537.36 (KHTML, like Gecko) Chrome/106.0.0.0 Safari/537.36","Macintosh","Chrome","106.0.0.0","OS X","10_15_7","null","<div style=""font-size:60px;"">+</div>","null",""
"","","","","","html-button-response","79","141373","0.0-4.0-1.37","58","1","2022-11-02 02:19:53","ebf9627b049f568eb4bf28942cb89901","124.16.149.42","Mozilla/5.0 (Macintosh; Intel Mac OS X 10_15_7) AppleWebKit/537.36 (KHTML, like Gecko) Chrome/106.0.0.0 Safari/537.36","Macintosh","Chrome","106.0.0.0","OS X","10_15_7","964","<p>作为军队的指挥官，你可以选择发射导弹杀死 <strong>7名</strong> 敌国士兵，但会误杀附近的 <strong>1名</strong> 敌国平民。</p> <p>平民照片如下图所示。</p> <p></p> <img src='stimuli/faces/NFM6.jpg', style='max-width: 30%;'> </img> <p><strong>你是否选择发射武器？</strong></p>","0",""
"","","","","","html-keyboard-response","80","142377","0.0-4.0-0.38","58","1","2022-11-02 02:19:53","ebf9627b049f568eb4bf28942cb89901","124.16.149.42","Mozilla/5.0 (Macintosh; Intel Mac OS X 10_15_7) AppleWebKit/537.36 (KHTML, like Gecko) Chrome/106.0.0.0 Safari/537.36","Macintosh","Chrome","106.0.0.0","OS X","10_15_7","null","<div style=""font-size:60px;"">+</div>","null",""
"","","","","","html-button-response","81","147969","0.0-4.0-1.38","58","1","2022-11-02 02:19:53","ebf9627b049f568eb4bf28942cb89901","124.16.149.42","Mozilla/5.0 (Macintosh; Intel Mac OS X 10_15_7) AppleWebKit/537.36 (KHTML, like Gecko) Chrome/106.0.0.0 Safari/537.36","Macintosh","Chrome","106.0.0.0","OS X","10_15_7","5588","<p>作为军队的指挥官，你可以选择发射导弹杀死 <strong>1名</strong> 敌国士兵，但会炸毁附近的 <strong>1棵</strong> 敌国树木。</p> <p>树木的照片如下图所示。</p> <p></p> <img src='stimuli/trees/4.png', style='max-width: 30%;'> </img> <p><strong>你是否选择发射武器？</strong></p>","0",""
"","","","","","html-keyboard-response","82","148975","0.0-4.0-0.39","58","1","2022-11-02 02:19:53","ebf9627b049f568eb4bf28942cb89901","124.16.149.42","Mozilla/5.0 (Macintosh; Intel Mac OS X 10_15_7) AppleWebKit/537.36 (KHTML, like Gecko) Chrome/106.0.0.0 Safari/537.36","Macintosh","Chrome","106.0.0.0","OS X","10_15_7","null","<div style=""font-size:60px;"">+</div>","null",""
"","","","","","html-button-response","83","150248","0.0-4.0-1.39","58","1","2022-11-02 02:19:53","ebf9627b049f568eb4bf28942cb89901","124.16.149.42","Mozilla/5.0 (Macintosh; Intel Mac OS X 10_15_7) AppleWebKit/537.36 (KHTML, like Gecko) Chrome/106.0.0.0 Safari/537.36","Macintosh","Chrome","106.0.0.0","OS X","10_15_7","1266","<p>作为军队的指挥官，你可以选择发射导弹杀死 <strong>10名</strong> 敌国士兵，但会炸毁附近的 <strong>1棵</strong> 敌国树木。</p> <p>树木的照片如下图所示。</p> <p></p> <img src='stimuli/trees/5.png', style='max-width: 30%;'> </img> <p><strong>你是否选择发射武器？</strong></p>","0",""
"","","","","","html-keyboard-response","84","151255","0.0-4.0-0.40","58","1","2022-11-02 02:19:53","ebf9627b049f568eb4bf28942cb89901","124.16.149.42","Mozilla/5.0 (Macintosh; Intel Mac OS X 10_15_7) AppleWebKit/537.36 (KHTML, like Gecko) Chrome/106.0.0.0 Safari/537.36","Macintosh","Chrome","106.0.0.0","OS X","10_15_7","null","<div style=""font-size:60px;"">+</div>","null",""
"","","","","","html-button-response","85","153469","0.0-4.0-1.40","58","1","2022-11-02 02:19:53","ebf9627b049f568eb4bf28942cb89901","124.16.149.42","Mozilla/5.0 (Macintosh; Intel Mac OS X 10_15_7) AppleWebKit/537.36 (KHTML, like Gecko) Chrome/106.0.0.0 Safari/537.36","Macintosh","Chrome","106.0.0.0","OS X","10_15_7","2212","<p>作为军队的指挥官，你可以选择发射导弹杀死 <strong>8名</strong> 敌国士兵，但会误杀附近的 <strong>1名</strong> 敌国平民。</p> <p>平民照片如下图所示。</p> <p></p> <img src='stimuli/faces/NFF6.jpg', style='max-width: 30%;'> </img> <p><strong>你是否选择发射武器？</strong></p>","0",""
"","","","","","html-keyboard-response","86","154477","0.0-4.0-0.41","58","1","2022-11-02 02:19:53","ebf9627b049f568eb4bf28942cb89901","124.16.149.42","Mozilla/5.0 (Macintosh; Intel Mac OS X 10_15_7) AppleWebKit/537.36 (KHTML, like Gecko) Chrome/106.0.0.0 Safari/537.36","Macintosh","Chrome","106.0.0.0","OS X","10_15_7","null","<div style=""font-size:60px;"">+</div>","null",""
"","","","","","html-button-response","87","155477","0.0-4.0-1.41","58","1","2022-11-02 02:19:53","ebf9627b049f568eb4bf28942cb89901","124.16.149.42","Mozilla/5.0 (Macintosh; Intel Mac OS X 10_15_7) AppleWebKit/537.36 (KHTML, like Gecko) Chrome/106.0.0.0 Safari/537.36","Macintosh","Chrome","106.0.0.0","OS X","10_15_7","997","<p>作为军队的指挥官，你可以选择发射导弹杀死 <strong>8名</strong> 敌国士兵，但会误杀附近的 <strong>1名</strong> 敌国平民。</p> <p>平民照片如下图所示。</p> <p></p> <img src='stimuli/faces/NFF3.jpg', style='max-width: 30%;'> </img> <p><strong>你是否选择发射武器？</strong></p>","0",""
"","","","","","html-keyboard-response","88","156483","0.0-4.0-0.42","58","1","2022-11-02 02:19:53","ebf9627b049f568eb4bf28942cb89901","124.16.149.42","Mozilla/5.0 (Macintosh; Intel Mac OS X 10_15_7) AppleWebKit/537.36 (KHTML, like Gecko) Chrome/106.0.0.0 Safari/537.36","Macintosh","Chrome","106.0.0.0","OS X","10_15_7","null","<div style=""font-size:60px;"">+</div>","null",""
"","","","","","html-button-response","89","157963","0.0-4.0-1.42","58","1","2022-11-02 02:19:53","ebf9627b049f568eb4bf28942cb89901","124.16.149.42","Mozilla/5.0 (Macintosh; Intel Mac OS X 10_15_7) AppleWebKit/537.36 (KHTML, like Gecko) Chrome/106.0.0.0 Safari/537.36","Macintosh","Chrome","106.0.0.0","OS X","10_15_7","1477","<p>作为军队的指挥官，你可以选择发射导弹杀死 <strong>1名</strong> 敌国士兵，但会误杀附近的 <strong>1名</strong> 敌国平民。</p> <p>平民照片如下图所示。</p> <p></p> <img src='stimuli/faces/NFM5.jpg', style='max-width: 30%;'> </img> <p><strong>你是否选择发射武器？</strong></p>","1",""
"","","","","","html-keyboard-response","90","158968","0.0-4.0-0.43","58","1","2022-11-02 02:19:53","ebf9627b049f568eb4bf28942cb89901","124.16.149.42","Mozilla/5.0 (Macintosh; Intel Mac OS X 10_15_7) AppleWebKit/537.36 (KHTML, like Gecko) Chrome/106.0.0.0 Safari/537.36","Macintosh","Chrome","106.0.0.0","OS X","10_15_7","null","<div style=""font-size:60px;"">+</div>","null",""
"","","","","","html-button-response","91","160570","0.0-4.0-1.43","58","1","2022-11-02 02:19:53","ebf9627b049f568eb4bf28942cb89901","124.16.149.42","Mozilla/5.0 (Macintosh; Intel Mac OS X 10_15_7) AppleWebKit/537.36 (KHTML, like Gecko) Chrome/106.0.0.0 Safari/537.36","Macintosh","Chrome","106.0.0.0","OS X","10_15_7","1599","<p>作为军队的指挥官，你可以选择发射导弹杀死 <strong>7名</strong> 敌国士兵，但会误杀附近的 <strong>1名</strong> 敌国平民。</p> <p>平民照片如下图所示。</p> <p></p> <img src='stimuli/faces/NFF7.jpg', style='max-width: 30%;'> </img> <p><strong>你是否选择发射武器？</strong></p>","0",""
"","","","","","html-keyboard-response","92","161579","0.0-4.0-0.44","58","1","2022-11-02 02:19:53","ebf9627b049f568eb4bf28942cb89901","124.16.149.42","Mozilla/5.0 (Macintosh; Intel Mac OS X 10_15_7) AppleWebKit/537.36 (KHTML, like Gecko) Chrome/106.0.0.0 Safari/537.36","Macintosh","Chrome","106.0.0.0","OS X","10_15_7","null","<div style=""font-size:60px;"">+</div>","null",""
"","","","","","html-button-response","93","163137","0.0-4.0-1.44","58","1","2022-11-02 02:19:53","ebf9627b049f568eb4bf28942cb89901","124.16.149.42","Mozilla/5.0 (Macintosh; Intel Mac OS X 10_15_7) AppleWebKit/537.36 (KHTML, like Gecko) Chrome/106.0.0.0 Safari/537.36","Macintosh","Chrome","106.0.0.0","OS X","10_15_7","1553","<p>作为军队的指挥官，你可以选择发射导弹杀死 <strong>3名</strong> 敌国士兵，但会误杀附近的 <strong>1名</strong> 敌国平民。</p> <p>平民照片如下图所示。</p> <p></p> <img src='stimuli/faces/NFF2.jpg', style='max-width: 30%;'> </img> <p><strong>你是否选择发射武器？</strong></p>","0",""
"","","","","","html-keyboard-response","94","164140","0.0-4.0-0.45","58","1","2022-11-02 02:19:53","ebf9627b049f568eb4bf28942cb89901","124.16.149.42","Mozilla/5.0 (Macintosh; Intel Mac OS X 10_15_7) AppleWebKit/537.36 (KHTML, like Gecko) Chrome/106.0.0.0 Safari/537.36","Macintosh","Chrome","106.0.0.0","OS X","10_15_7","null","<div style=""font-size:60px;"">+</div>","null",""
"","","","","","html-button-response","95","165093","0.0-4.0-1.45","58","1","2022-11-02 02:19:53","ebf9627b049f568eb4bf28942cb89901","124.16.149.42","Mozilla/5.0 (Macintosh; Intel Mac OS X 10_15_7) AppleWebKit/537.36 (KHTML, like Gecko) Chrome/106.0.0.0 Safari/537.36","Macintosh","Chrome","106.0.0.0","OS X","10_15_7","950","<p>作为军队的指挥官，你可以选择发射导弹杀死 <strong>2名</strong> 敌国士兵，但会炸毁附近的 <strong>1棵</strong> 敌国树木。</p> <p>树木的照片如下图所示。</p> <p></p> <img src='stimuli/trees/13.png', style='max-width: 30%;'> </img> <p><strong>你是否选择发射武器？</strong></p>","0",""
"","","","","","html-keyboard-response","96","166102","0.0-4.0-0.46","58","1","2022-11-02 02:19:53","ebf9627b049f568eb4bf28942cb89901","124.16.149.42","Mozilla/5.0 (Macintosh; Intel Mac OS X 10_15_7) AppleWebKit/537.36 (KHTML, like Gecko) Chrome/106.0.0.0 Safari/537.36","Macintosh","Chrome","106.0.0.0","OS X","10_15_7","null","<div style=""font-size:60px;"">+</div>","null",""
"","","","","","html-button-response","97","167019","0.0-4.0-1.46","58","1","2022-11-02 02:19:53","ebf9627b049f568eb4bf28942cb89901","124.16.149.42","Mozilla/5.0 (Macintosh; Intel Mac OS X 10_15_7) AppleWebKit/537.36 (KHTML, like Gecko) Chrome/106.0.0.0 Safari/537.36","Macintosh","Chrome","106.0.0.0","OS X","10_15_7","912","<p>作为军队的指挥官，你可以选择发射导弹杀死 <strong>7名</strong> 敌国士兵，但会炸毁附近的 <strong>1棵</strong> 敌国树木。</p> <p>树木的照片如下图所示。</p> <p></p> <img src='stimuli/trees/6.png', style='max-width: 30%;'> </img> <p><strong>你是否选择发射武器？</strong></p>","0",""
"","","","","","html-keyboard-response","98","168022","0.0-4.0-0.47","58","1","2022-11-02 02:19:53","ebf9627b049f568eb4bf28942cb89901","124.16.149.42","Mozilla/5.0 (Macintosh; Intel Mac OS X 10_15_7) AppleWebKit/537.36 (KHTML, like Gecko) Chrome/106.0.0.0 Safari/537.36","Macintosh","Chrome","106.0.0.0","OS X","10_15_7","null","<div style=""font-size:60px;"">+</div>","null",""
"","","","","","html-button-response","99","169553","0.0-4.0-1.47","58","1","2022-11-02 02:19:53","ebf9627b049f568eb4bf28942cb89901","124.16.149.42","Mozilla/5.0 (Macintosh; Intel Mac OS X 10_15_7) AppleWebKit/537.36 (KHTML, like Gecko) Chrome/106.0.0.0 Safari/537.36","Macintosh","Chrome","106.0.0.0","OS X","10_15_7","1527","<p>作为军队的指挥官，你可以选择发射导弹杀死 <strong>2名</strong> 敌国士兵，但会误杀附近的 <strong>1名</strong> 敌国平民。</p> <p>平民照片如下图所示。</p> <p></p> <img src='stimuli/faces/NFF1.jpg', style='max-width: 30%;'> </img> <p><strong>你是否选择发射武器？</strong></p>","0",""
"","","","","","html-keyboard-response","100","170560","0.0-4.0-0.48","58","1","2022-11-02 02:19:53","ebf9627b049f568eb4bf28942cb89901","124.16.149.42","Mozilla/5.0 (Macintosh; Intel Mac OS X 10_15_7) AppleWebKit/537.36 (KHTML, like Gecko) Chrome/106.0.0.0 Safari/537.36","Macintosh","Chrome","106.0.0.0","OS X","10_15_7","null","<div style=""font-size:60px;"">+</div>","null",""
"","","","","","html-button-response","101","171425","0.0-4.0-1.48","58","1","2022-11-02 02:19:53","ebf9627b049f568eb4bf28942cb89901","124.16.149.42","Mozilla/5.0 (Macintosh; Intel Mac OS X 10_15_7) AppleWebKit/537.36 (KHTML, like Gecko) Chrome/106.0.0.0 Safari/537.36","Macintosh","Chrome","106.0.0.0","OS X","10_15_7","860","<p>作为军队的指挥官，你可以选择发射导弹杀死 <strong>10名</strong> 敌国士兵，但会误杀附近的 <strong>1名</strong> 敌国平民。</p> <p>平民照片如下图所示。</p> <p></p> <img src='stimuli/faces/NFF8.jpg', style='max-width: 30%;'> </img> <p><strong>你是否选择发射武器？</strong></p>","0",""
"","","","","","html-keyboard-response","102","172430","0.0-4.0-0.49","58","1","2022-11-02 02:19:53","ebf9627b049f568eb4bf28942cb89901","124.16.149.42","Mozilla/5.0 (Macintosh; Intel Mac OS X 10_15_7) AppleWebKit/537.36 (KHTML, like Gecko) Chrome/106.0.0.0 Safari/537.36","Macintosh","Chrome","106.0.0.0","OS X","10_15_7","null","<div style=""font-size:60px;"">+</div>","null",""
"","","","","","html-button-response","103","173205","0.0-4.0-1.49","58","1","2022-11-02 02:19:53","ebf9627b049f568eb4bf28942cb89901","124.16.149.42","Mozilla/5.0 (Macintosh; Intel Mac OS X 10_15_7) AppleWebKit/537.36 (KHTML, like Gecko) Chrome/106.0.0.0 Safari/537.36","Macintosh","Chrome","106.0.0.0","OS X","10_15_7","769","<p>作为军队的指挥官，你可以选择发射导弹杀死 <strong>10名</strong> 敌国士兵，但会炸毁附近的 <strong>1棵</strong> 敌国树木。</p> <p>树木的照片如下图所示。</p> <p></p> <img src='stimuli/trees/4.png', style='max-width: 30%;'> </img> <p><strong>你是否选择发射武器？</strong></p>","0",""
"","","","","","html-keyboard-response","104","174214","0.0-4.0-0.50","58","1","2022-11-02 02:19:53","ebf9627b049f568eb4bf28942cb89901","124.16.149.42","Mozilla/5.0 (Macintosh; Intel Mac OS X 10_15_7) AppleWebKit/537.36 (KHTML, like Gecko) Chrome/106.0.0.0 Safari/537.36","Macintosh","Chrome","106.0.0.0","OS X","10_15_7","null","<div style=""font-size:60px;"">+</div>","null",""
"","","","","","html-button-response","105","175283","0.0-4.0-1.50","58","1","2022-11-02 02:19:53","ebf9627b049f568eb4bf28942cb89901","124.16.149.42","Mozilla/5.0 (Macintosh; Intel Mac OS X 10_15_7) AppleWebKit/537.36 (KHTML, like Gecko) Chrome/106.0.0.0 Safari/537.36","Macintosh","Chrome","106.0.0.0","OS X","10_15_7","1064","<p>作为军队的指挥官，你可以选择发射导弹杀死 <strong>10名</strong> 敌国士兵，但会炸毁附近的 <strong>1棵</strong> 敌国树木。</p> <p>树木的照片如下图所示。</p> <p></p> <img src='stimuli/trees/1.png', style='max-width: 30%;'> </img> <p><strong>你是否选择发射武器？</strong></p>","0",""
"","","","","","html-keyboard-response","106","176292","0.0-4.0-0.51","58","1","2022-11-02 02:19:53","ebf9627b049f568eb4bf28942cb89901","124.16.149.42","Mozilla/5.0 (Macintosh; Intel Mac OS X 10_15_7) AppleWebKit/537.36 (KHTML, like Gecko) Chrome/106.0.0.0 Safari/537.36","Macintosh","Chrome","106.0.0.0","OS X","10_15_7","null","<div style=""font-size:60px;"">+</div>","null",""
"","","","","","html-button-response","107","177472","0.0-4.0-1.51","58","1","2022-11-02 02:19:53","ebf9627b049f568eb4bf28942cb89901","124.16.149.42","Mozilla/5.0 (Macintosh; Intel Mac OS X 10_15_7) AppleWebKit/537.36 (KHTML, like Gecko) Chrome/106.0.0.0 Safari/537.36","Macintosh","Chrome","106.0.0.0","OS X","10_15_7","1177","<p>作为军队的指挥官，你可以选择发射导弹杀死 <strong>9名</strong> 敌国士兵，但会误杀附近的 <strong>1名</strong> 敌国平民。</p> <p>平民照片如下图所示。</p> <p></p> <img src='stimuli/faces/NFM5.jpg', style='max-width: 30%;'> </img> <p><strong>你是否选择发射武器？</strong></p>","0",""
"","","","","","html-keyboard-response","108","178481","0.0-4.0-0.52","58","1","2022-11-02 02:19:53","ebf9627b049f568eb4bf28942cb89901","124.16.149.42","Mozilla/5.0 (Macintosh; Intel Mac OS X 10_15_7) AppleWebKit/537.36 (KHTML, like Gecko) Chrome/106.0.0.0 Safari/537.36","Macintosh","Chrome","106.0.0.0","OS X","10_15_7","null","<div style=""font-size:60px;"">+</div>","null",""
"","","","","","html-button-response","109","179299","0.0-4.0-1.52","58","1","2022-11-02 02:19:53","ebf9627b049f568eb4bf28942cb89901","124.16.149.42","Mozilla/5.0 (Macintosh; Intel Mac OS X 10_15_7) AppleWebKit/537.36 (KHTML, like Gecko) Chrome/106.0.0.0 Safari/537.36","Macintosh","Chrome","106.0.0.0","OS X","10_15_7","815","<p>作为军队的指挥官，你可以选择发射导弹杀死 <strong>2名</strong> 敌国士兵，但会炸毁附近的 <strong>1棵</strong> 敌国树木。</p> <p>树木的照片如下图所示。</p> <p></p> <img src='stimuli/trees/10.png', style='max-width: 30%;'> </img> <p><strong>你是否选择发射武器？</strong></p>","0",""
"","","","","","html-keyboard-response","110","180306","0.0-4.0-0.53","58","1","2022-11-02 02:19:53","ebf9627b049f568eb4bf28942cb89901","124.16.149.42","Mozilla/5.0 (Macintosh; Intel Mac OS X 10_15_7) AppleWebKit/537.36 (KHTML, like Gecko) Chrome/106.0.0.0 Safari/537.36","Macintosh","Chrome","106.0.0.0","OS X","10_15_7","null","<div style=""font-size:60px;"">+</div>","null",""
"","","","","","html-button-response","111","181124","0.0-4.0-1.53","58","1","2022-11-02 02:19:53","ebf9627b049f568eb4bf28942cb89901","124.16.149.42","Mozilla/5.0 (Macintosh; Intel Mac OS X 10_15_7) AppleWebKit/537.36 (KHTML, like Gecko) Chrome/106.0.0.0 Safari/537.36","Macintosh","Chrome","106.0.0.0","OS X","10_15_7","813","<p>作为军队的指挥官，你可以选择发射导弹杀死 <strong>7名</strong> 敌国士兵，但会炸毁附近的 <strong>1棵</strong> 敌国树木。</p> <p>树木的照片如下图所示。</p> <p></p> <img src='stimuli/trees/13.png', style='max-width: 30%;'> </img> <p><strong>你是否选择发射武器？</strong></p>","0",""
"","","","","","html-keyboard-response","112","182132","0.0-4.0-0.54","58","1","2022-11-02 02:19:53","ebf9627b049f568eb4bf28942cb89901","124.16.149.42","Mozilla/5.0 (Macintosh; Intel Mac OS X 10_15_7) AppleWebKit/537.36 (KHTML, like Gecko) Chrome/106.0.0.0 Safari/537.36","Macintosh","Chrome","106.0.0.0","OS X","10_15_7","null","<div style=""font-size:60px;"">+</div>","null",""
"","","","","","html-button-response","113","183214","0.0-4.0-1.54","58","1","2022-11-02 02:19:53","ebf9627b049f568eb4bf28942cb89901","124.16.149.42","Mozilla/5.0 (Macintosh; Intel Mac OS X 10_15_7) AppleWebKit/537.36 (KHTML, like Gecko) Chrome/106.0.0.0 Safari/537.36","Macintosh","Chrome","106.0.0.0","OS X","10_15_7","1076","<p>作为军队的指挥官，你可以选择发射导弹杀死 <strong>3名</strong> 敌国士兵，但会误杀附近的 <strong>1名</strong> 敌国平民。</p> <p>平民照片如下图所示。</p> <p></p> <img src='stimuli/faces/NFF7.jpg', style='max-width: 30%;'> </img> <p><strong>你是否选择发射武器？</strong></p>","0",""
"","","","","","html-keyboard-response","114","184221","0.0-4.0-0.55","58","1","2022-11-02 02:19:53","ebf9627b049f568eb4bf28942cb89901","124.16.149.42","Mozilla/5.0 (Macintosh; Intel Mac OS X 10_15_7) AppleWebKit/537.36 (KHTML, like Gecko) Chrome/106.0.0.0 Safari/537.36","Macintosh","Chrome","106.0.0.0","OS X","10_15_7","null","<div style=""font-size:60px;"">+</div>","null",""
"","","","","","html-button-response","115","185814","0.0-4.0-1.55","58","1","2022-11-02 02:19:53","ebf9627b049f568eb4bf28942cb89901","124.16.149.42","Mozilla/5.0 (Macintosh; Intel Mac OS X 10_15_7) AppleWebKit/537.36 (KHTML, like Gecko) Chrome/106.0.0.0 Safari/537.36","Macintosh","Chrome","106.0.0.0","OS X","10_15_7","1587","<p>作为军队的指挥官，你可以选择发射导弹杀死 <strong>1名</strong> 敌国士兵，但会误杀附近的 <strong>1名</strong> 敌国平民。</p> <p>平民照片如下图所示。</p> <p></p> <img src='stimuli/faces/NFM1.jpg', style='max-width: 30%;'> </img> <p><strong>你是否选择发射武器？</strong></p>","1",""
"","","","","","html-keyboard-response","116","186823","0.0-4.0-0.56","58","1","2022-11-02 02:19:53","ebf9627b049f568eb4bf28942cb89901","124.16.149.42","Mozilla/5.0 (Macintosh; Intel Mac OS X 10_15_7) AppleWebKit/537.36 (KHTML, like Gecko) Chrome/106.0.0.0 Safari/537.36","Macintosh","Chrome","106.0.0.0","OS X","10_15_7","null","<div style=""font-size:60px;"">+</div>","null",""
"","","","","","html-button-response","117","188594","0.0-4.0-1.56","58","1","2022-11-02 02:19:53","ebf9627b049f568eb4bf28942cb89901","124.16.149.42","Mozilla/5.0 (Macintosh; Intel Mac OS X 10_15_7) AppleWebKit/537.36 (KHTML, like Gecko) Chrome/106.0.0.0 Safari/537.36","Macintosh","Chrome","106.0.0.0","OS X","10_15_7","1765","<p>作为军队的指挥官，你可以选择发射导弹杀死 <strong>5名</strong> 敌国士兵，但会炸毁附近的 <strong>1棵</strong> 敌国树木。</p> <p>树木的照片如下图所示。</p> <p></p> <img src='stimuli/trees/6.png', style='max-width: 30%;'> </img> <p><strong>你是否选择发射武器？</strong></p>","0",""
"","","","","","html-keyboard-response","118","189602","0.0-4.0-0.57","58","1","2022-11-02 02:19:53","ebf9627b049f568eb4bf28942cb89901","124.16.149.42","Mozilla/5.0 (Macintosh; Intel Mac OS X 10_15_7) AppleWebKit/537.36 (KHTML, like Gecko) Chrome/106.0.0.0 Safari/537.36","Macintosh","Chrome","106.0.0.0","OS X","10_15_7","null","<div style=""font-size:60px;"">+</div>","null",""
"","","","","","html-button-response","119","191332","0.0-4.0-1.57","58","1","2022-11-02 02:19:53","ebf9627b049f568eb4bf28942cb89901","124.16.149.42","Mozilla/5.0 (Macintosh; Intel Mac OS X 10_15_7) AppleWebKit/537.36 (KHTML, like Gecko) Chrome/106.0.0.0 Safari/537.36","Macintosh","Chrome","106.0.0.0","OS X","10_15_7","1723","<p>作为军队的指挥官，你可以选择发射导弹杀死 <strong>1名</strong> 敌国士兵，但会误杀附近的 <strong>1名</strong> 敌国平民。</p> <p>平民照片如下图所示。</p> <p></p> <img src='stimuli/faces/NFF4.jpg', style='max-width: 30%;'> </img> <p><strong>你是否选择发射武器？</strong></p>","1",""
"","","","","","html-keyboard-response","120","192338","0.0-4.0-0.58","58","1","2022-11-02 02:19:53","ebf9627b049f568eb4bf28942cb89901","124.16.149.42","Mozilla/5.0 (Macintosh; Intel Mac OS X 10_15_7) AppleWebKit/537.36 (KHTML, like Gecko) Chrome/106.0.0.0 Safari/537.36","Macintosh","Chrome","106.0.0.0","OS X","10_15_7","null","<div style=""font-size:60px;"">+</div>","null",""
"","","","","","html-button-response","121","193468","0.0-4.0-1.58","58","1","2022-11-02 02:19:53","ebf9627b049f568eb4bf28942cb89901","124.16.149.42","Mozilla/5.0 (Macintosh; Intel Mac OS X 10_15_7) AppleWebKit/537.36 (KHTML, like Gecko) Chrome/106.0.0.0 Safari/537.36","Macintosh","Chrome","106.0.0.0","OS X","10_15_7","1065","<p>作为军队的指挥官，你可以选择发射导弹杀死 <strong>1名</strong> 敌国士兵，但会误杀附近的 <strong>1名</strong> 敌国平民。</p> <p>平民照片如下图所示。</p> <p></p> <img src='stimuli/faces/NFM8.jpg', style='max-width: 30%;'> </img> <p><strong>你是否选择发射武器？</strong></p>","1",""
"","","","","","html-keyboard-response","122","194476","0.0-4.0-0.59","58","1","2022-11-02 02:19:53","ebf9627b049f568eb4bf28942cb89901","124.16.149.42","Mozilla/5.0 (Macintosh; Intel Mac OS X 10_15_7) AppleWebKit/537.36 (KHTML, like Gecko) Chrome/106.0.0.0 Safari/537.36","Macintosh","Chrome","106.0.0.0","OS X","10_15_7","null","<div style=""font-size:60px;"">+</div>","null",""
"","","","","","html-button-response","123","195873","0.0-4.0-1.59","58","1","2022-11-02 02:19:53","ebf9627b049f568eb4bf28942cb89901","124.16.149.42","Mozilla/5.0 (Macintosh; Intel Mac OS X 10_15_7) AppleWebKit/537.36 (KHTML, like Gecko) Chrome/106.0.0.0 Safari/537.36","Macintosh","Chrome","106.0.0.0","OS X","10_15_7","1394","<p>作为军队的指挥官，你可以选择发射导弹杀死 <strong>5名</strong> 敌国士兵，但会误杀附近的 <strong>1名</strong> 敌国平民。</p> <p>平民照片如下图所示。</p> <p></p> <img src='stimuli/faces/NFM4.jpg', style='max-width: 30%;'> </img> <p><strong>你是否选择发射武器？</strong></p>","0",""
"","","","","","html-keyboard-response","124","196879","0.0-4.0-0.60","58","1","2022-11-02 02:19:53","ebf9627b049f568eb4bf28942cb89901","124.16.149.42","Mozilla/5.0 (Macintosh; Intel Mac OS X 10_15_7) AppleWebKit/537.36 (KHTML, like Gecko) Chrome/106.0.0.0 Safari/537.36","Macintosh","Chrome","106.0.0.0","OS X","10_15_7","null","<div style=""font-size:60px;"">+</div>","null",""
"","","","","","html-button-response","125","197631","0.0-4.0-1.60","58","1","2022-11-02 02:19:53","ebf9627b049f568eb4bf28942cb89901","124.16.149.42","Mozilla/5.0 (Macintosh; Intel Mac OS X 10_15_7) AppleWebKit/537.36 (KHTML, like Gecko) Chrome/106.0.0.0 Safari/537.36","Macintosh","Chrome","106.0.0.0","OS X","10_15_7","746","<p>作为军队的指挥官，你可以选择发射导弹杀死 <strong>5名</strong> 敌国士兵，但会炸毁附近的 <strong>1棵</strong> 敌国树木。</p> <p>树木的照片如下图所示。</p> <p></p> <img src='stimuli/trees/5.png', style='max-width: 30%;'> </img> <p><strong>你是否选择发射武器？</strong></p>","0",""
"","","","","","html-keyboard-response","126","198635","0.0-4.0-0.61","58","1","2022-11-02 02:19:53","ebf9627b049f568eb4bf28942cb89901","124.16.149.42","Mozilla/5.0 (Macintosh; Intel Mac OS X 10_15_7) AppleWebKit/537.36 (KHTML, like Gecko) Chrome/106.0.0.0 Safari/537.36","Macintosh","Chrome","106.0.0.0","OS X","10_15_7","null","<div style=""font-size:60px;"">+</div>","null",""
"","","","","","html-button-response","127","201562","0.0-4.0-1.61","58","1","2022-11-02 02:19:53","ebf9627b049f568eb4bf28942cb89901","124.16.149.42","Mozilla/5.0 (Macintosh; Intel Mac OS X 10_15_7) AppleWebKit/537.36 (KHTML, like Gecko) Chrome/106.0.0.0 Safari/537.36","Macintosh","Chrome","106.0.0.0","OS X","10_15_7","2922","<p>作为军队的指挥官，你可以选择发射导弹杀死 <strong>10名</strong> 敌国士兵，但会误杀附近的 <strong>1名</strong> 敌国平民。</p> <p>平民照片如下图所示。</p> <p></p> <img src='stimuli/faces/NFF2.jpg', style='max-width: 30%;'> </img> <p><strong>你是否选择发射武器？</strong></p>","0",""
"","","","","","html-keyboard-response","128","202572","0.0-4.0-0.62","58","1","2022-11-02 02:19:53","ebf9627b049f568eb4bf28942cb89901","124.16.149.42","Mozilla/5.0 (Macintosh; Intel Mac OS X 10_15_7) AppleWebKit/537.36 (KHTML, like Gecko) Chrome/106.0.0.0 Safari/537.36","Macintosh","Chrome","106.0.0.0","OS X","10_15_7","null","<div style=""font-size:60px;"">+</div>","null",""
"","","","","","html-button-response","129","206382","0.0-4.0-1.62","58","1","2022-11-02 02:19:53","ebf9627b049f568eb4bf28942cb89901","124.16.149.42","Mozilla/5.0 (Macintosh; Intel Mac OS X 10_15_7) AppleWebKit/537.36 (KHTML, like Gecko) Chrome/106.0.0.0 Safari/537.36","Macintosh","Chrome","106.0.0.0","OS X","10_15_7","3804","<p>作为军队的指挥官，你可以选择发射导弹杀死 <strong>5名</strong> 敌国士兵，但会误杀附近的 <strong>1名</strong> 敌国平民。</p> <p>平民照片如下图所示。</p> <p></p> <img src='stimuli/faces/NFF8.jpg', style='max-width: 30%;'> </img> <p><strong>你是否选择发射武器？</strong></p>","0",""
"","","","","","html-keyboard-response","130","207391","0.0-4.0-0.63","58","1","2022-11-02 02:19:53","ebf9627b049f568eb4bf28942cb89901","124.16.149.42","Mozilla/5.0 (Macintosh; Intel Mac OS X 10_15_7) AppleWebKit/537.36 (KHTML, like Gecko) Chrome/106.0.0.0 Safari/537.36","Macintosh","Chrome","106.0.0.0","OS X","10_15_7","null","<div style=""font-size:60px;"">+</div>","null",""
"","","","","","html-button-response","131","208663","0.0-4.0-1.63","58","1","2022-11-02 02:19:53","ebf9627b049f568eb4bf28942cb89901","124.16.149.42","Mozilla/5.0 (Macintosh; Intel Mac OS X 10_15_7) AppleWebKit/537.36 (KHTML, like Gecko) Chrome/106.0.0.0 Safari/537.36","Macintosh","Chrome","106.0.0.0","OS X","10_15_7","1268","<p>作为军队的指挥官，你可以选择发射导弹杀死 <strong>10名</strong> 敌国士兵，但会误杀附近的 <strong>1名</strong> 敌国平民。</p> <p>平民照片如下图所示。</p> <p></p> <img src='stimuli/faces/NFF4.jpg', style='max-width: 30%;'> </img> <p><strong>你是否选择发射武器？</strong></p>","0",""
"","","","","","survey-multi-choice","132","223559","0.0-5.0","58","1","2022-11-02 02:19:53","ebf9627b049f568eb4bf28942cb89901","124.16.149.42","Mozilla/5.0 (Macintosh; Intel Mac OS X 10_15_7) AppleWebKit/537.36 (KHTML, like Gecko) Chrome/106.0.0.0 Safari/537.36","Macintosh","Chrome","106.0.0.0","OS X","10_15_7","14891","","{""Attention1"":""""}","[0]"
"","","","","","html-button-response","133","225997","0.0-6.0","58","1","2022-11-02 02:19:53","ebf9627b049f568eb4bf28942cb89901","124.16.149.42","Mozilla/5.0 (Macintosh; Intel Mac OS X 10_15_7) AppleWebKit/537.36 (KHTML, like Gecko) Chrome/106.0.0.0 Safari/537.36","Macintosh","Chrome","106.0.0.0","OS X","10_15_7","2431","<p style=""font-size:20px;font-weight:bold;"">恭喜！</p><p>你已经完成了实验的第一部分。</p><p>请休息放松一下，然后进入第二部分。</p><p>这部分大约需要10分钟。</p>","0",""
"","","","","","survey-text","134","269186","0.0-7.0","58","1","2022-11-02 02:19:53","ebf9627b049f568eb4bf28942cb89901","124.16.149.42","Mozilla/5.0 (Macintosh; Intel Mac OS X 10_15_7) AppleWebKit/537.36 (KHTML, like Gecko) Chrome/106.0.0.0 Safari/537.36","Macintosh","Chrome","106.0.0.0","OS X","10_15_7","42180","","{""Age"":""24"",""Nation"":""中国"",""Born"":""黑龙江省牡丹江市"",""Live"":""北京市"",""Ethnic"":""汉族"",""Alipay"":""137911943@qq.com""}",""
"","","","","","survey-multi-choice","135","285590","0.0-8.0","58","1","2022-11-02 02:19:53","ebf9627b049f568eb4bf28942cb89901","124.16.149.42","Mozilla/5.0 (Macintosh; Intel Mac OS X 10_15_7) AppleWebKit/537.36 (KHTML, like Gecko) Chrome/106.0.0.0 Safari/537.36","Macintosh","Chrome","106.0.0.0","OS X","10_15_7","16398","","{""Gender"":""女"",""Education"":""博士研究生毕业"",""Income"":""￥140,000-￥269,999"",""Children"":""0"",""Race"":""亚洲人""}","[0,1,2,3,4]"
"","","","","","survey-multi-select","136","290479","0.0-9.0","58","1","2022-11-02 02:19:53","ebf9627b049f568eb4bf28942cb89901","124.16.149.42","Mozilla/5.0 (Macintosh; Intel Mac OS X 10_15_7) AppleWebKit/537.36 (KHTML, like Gecko) Chrome/106.0.0.0 Safari/537.36","Macintosh","Chrome","106.0.0.0","OS X","10_15_7","4868","","{""Marriage"":[""未婚""],""Religion"":[""无宗教信仰""]}","[0,1]"
"","","","","","survey-multi-choice","137","303300","0.0-10.0","58","1","2022-11-02 02:19:53","ebf9627b049f568eb4bf28942cb89901","124.16.149.42","Mozilla/5.0 (Macintosh; Intel Mac OS X 10_15_7) AppleWebKit/537.36 (KHTML, like Gecko) Chrome/106.0.0.0 Safari/537.36","Macintosh","Chrome","106.0.0.0","OS X","10_15_7","12813","","{""SES"":""4""}","[0]"
"","","","","","html-button-response","138","306286","0.0-11.0","58","1","2022-11-02 02:19:53","ebf9627b049f568eb4bf28942cb89901","124.16.149.42","Mozilla/5.0 (Macintosh; Intel Mac OS X 10_15_7) AppleWebKit/537.36 (KHTML, like Gecko) Chrome/106.0.0.0 Safari/537.36","Macintosh","Chrome","106.0.0.0","OS X","10_15_7","2978","<p><strong>请判断下列陈述在多大程度上可以形容你？</p><p> (1 = ""和我一点都不像"" to 5 = ""非常像我"".)</strong></p>","0",""
"","","","","","survey-likert","139","344396","0.0-12.0","58","1","2022-11-02 02:19:53","ebf9627b049f568eb4bf28942cb89901","124.16.149.42","Mozilla/5.0 (Macintosh; Intel Mac OS X 10_15_7) AppleWebKit/537.36 (KHTML, like Gecko) Chrome/106.0.0.0 Safari/537.36","Macintosh","Chrome","106.0.0.0","OS X","10_15_7","38105","","{""Aggression1"":2,""Aggression2"":1,""Aggression3"":4,""Aggression4"":0,""Aggression5"":3,""Aggression6"":3,""Aggression7"":2,""Aggression8"":1,""Aggression9"":3}","[0,1,2,3,4,5,6,7,8]"
"","","","","","html-button-response","140","346457","0.0-13.0","58","1","2022-11-02 02:19:53","ebf9627b049f568eb4bf28942cb89901","124.16.149.42","Mozilla/5.0 (Macintosh; Intel Mac OS X 10_15_7) AppleWebKit/537.36 (KHTML, like Gecko) Chrome/106.0.0.0 Safari/537.36","Macintosh","Chrome","106.0.0.0","OS X","10_15_7","2054","<p><strong>请判断你在多大程度上同意下列陈述。</strong></p>","0",""
"","","","","","survey-likert","141","426404","0.0-14.0","58","1","2022-11-02 02:19:53","ebf9627b049f568eb4bf28942cb89901","124.16.149.42","Mozilla/5.0 (Macintosh; Intel Mac OS X 10_15_7) AppleWebKit/537.36 (KHTML, like Gecko) Chrome/106.0.0.0 Safari/537.36","Macintosh","Chrome","106.0.0.0","OS X","10_15_7","79941","","{""scale13"":1,""scale1"":3,""scale23"":4,""scale3"":1,""scale16"":3,""scale24"":1,""scale14"":1,""scale5"":3,""scale12"":1,""scale21"":3,""scale8"":3,""scale19"":2,""scale17"":4,""scale27"":2,""scale10"":3,""scale25"":1,""scale11"":3,""scale2"":1,""scale18"":1,""scale15"":3,""scale7"":1,""scale26"":3,""scale28"":2,""scale20"":3,""scale9"":3,""scale22"":3,""scale6"":4,""scale4"":1}","[12,0,22,2,15,23,13,4,11,20,7,18,16,26,9,24,10,1,17,14,6,25,27,19,8,21,5,3]"
"","","","","","html-button-response","142","430276","0.0-15.0","58","1","2022-11-02 02:19:53","ebf9627b049f568eb4bf28942cb89901","124.16.149.42","Mozilla/5.0 (Macintosh; Intel Mac OS X 10_15_7) AppleWebKit/537.36 (KHTML, like Gecko) Chrome/106.0.0.0 Safari/537.36","Macintosh","Chrome","106.0.0.0","OS X","10_15_7","3865","<p><strong>请判断你在多大程度上同意下列陈述。</strong></p>","0",""
"","","","","","survey-likert","143","509114","0.0-16.0","58","1","2022-11-02 02:19:53","ebf9627b049f568eb4bf28942cb89901","124.16.149.42","Mozilla/5.0 (Macintosh; Intel Mac OS X 10_15_7) AppleWebKit/537.36 (KHTML, like Gecko) Chrome/106.0.0.0 Safari/537.36","Macintosh","Chrome","106.0.0.0","OS X","10_15_7","78832","","{""sdo11"":5,""sdo9"":4,""sdo13"":5,""sdo4"":6,""sdo10"":5,""sdo2"":3,""sdo8"":4,""sdo14"":3,""sdo1"":1,""sdo12"":5,""sdo5"":4,""sdo6"":1,""sdo7"":0,""sdo16"":6,""sdo15"":5,""sdo3"":4}","[10,8,12,3,9,1,7,13,0,11,4,5,6,15,14,2]"
"","","","","","html-button-response","144","510588","0.0-17.0","58","1","2022-11-02 02:19:53","ebf9627b049f568eb4bf28942cb89901","124.16.149.42","Mozilla/5.0 (Macintosh; Intel Mac OS X 10_15_7) AppleWebKit/537.36 (KHTML, like Gecko) Chrome/106.0.0.0 Safari/537.36","Macintosh","Chrome","106.0.0.0","OS X","10_15_7","1466","<p><strong>请判断你在多大程度上同意下列陈述。</strong></p>","0",""
"","","","","","survey-likert","145","558701","0.0-18.0","58","1","2022-11-02 02:19:53","ebf9627b049f568eb4bf28942cb89901","124.16.149.42","Mozilla/5.0 (Macintosh; Intel Mac OS X 10_15_7) AppleWebKit/537.36 (KHTML, like Gecko) Chrome/106.0.0.0 Safari/537.36","Macintosh","Chrome","106.0.0.0","OS X","10_15_7","48109","","{""caring1"":2,""liking1"":3,""caring2"":3,""protection1"":3,""liking2"":2,""caring3"":2,""protection2"":1,""liking3"":3,""protection3"":3,""caring4"":4,""liking4"":2,""protection4"":1,""caring5"":2,""liking5"":2,""protection5"":2}","[0,1,2,3,4,5,6,7,8,9,10,11,12,13,14]"
"","","","","","html-button-response","146","560061","0.0-19.0","58","1","2022-11-02 02:19:53","ebf9627b049f568eb4bf28942cb89901","124.16.149.42","Mozilla/5.0 (Macintosh; Intel Mac OS X 10_15_7) AppleWebKit/537.36 (KHTML, like Gecko) Chrome/106.0.0.0 Safari/537.36","Macintosh","Chrome","106.0.0.0","OS X","10_15_7","1351","<p><strong>请判断下列场景中你的内心感受有多柔软。</strong></p>","0",""
"","","","","","survey-likert","147","596907","0.0-20.0","58","1","2022-11-02 02:19:53","ebf9627b049f568eb4bf28942cb89901","124.16.149.42","Mozilla/5.0 (Macintosh; Intel Mac OS X 10_15_7) AppleWebKit/537.36 (KHTML, like Gecko) Chrome/106.0.0.0 Safari/537.36","Macintosh","Chrome","106.0.0.0","OS X","10_15_7","36841","","{""tenderness-positive1"":3,""tenderness-negative1"":1,""tenderness-negative2"":0,""tenderness-positive2"":3,""tenderness-positive3"":3,""tenderness-negative3"":1,""tenderness-positive4"":4,""tendereness-negative4"":0,""tendernness-negative5"":1,""tenderness-positive5"":2}","[0,1,2,3,4,5,6,7,8,9]"
"","","","","","survey-multi-choice","148","611529","0.0-21.0","58","1","2022-11-02 02:19:53","ebf9627b049f568eb4bf28942cb89901","124.16.149.42","Mozilla/5.0 (Macintosh; Intel Mac OS X 10_15_7) AppleWebKit/537.36 (KHTML, like Gecko) Chrome/106.0.0.0 Safari/537.36","Macintosh","Chrome","106.0.0.0","OS X","10_15_7","14614","","{""Attention2"":""其他""}","[0]"
"","","","","","html-button-response","149","613287","0.0-22.0","58","1","2022-11-02 02:19:53","ebf9627b049f568eb4bf28942cb89901","124.16.149.42","Mozilla/5.0 (Macintosh; Intel Mac OS X 10_15_7) AppleWebKit/537.36 (KHTML, like Gecko) Chrome/106.0.0.0 Safari/537.36","Macintosh","Chrome","106.0.0.0","OS X","10_15_7","1749","<p><strong>请判断你在多大程度上同意下列陈述。</strong></p>","0",""
"","","","","","survey-likert","150","726648","0.0-23.0","58","1","2022-11-02 02:19:53","ebf9627b049f568eb4bf28942cb89901","124.16.149.42","Mozilla/5.0 (Macintosh; Intel Mac OS X 10_15_7) AppleWebKit/537.36 (KHTML, like Gecko) Chrome/106.0.0.0 Safari/537.36","Macintosh","Chrome","106.0.0.0","OS X","10_15_7","113356","","{""Patri7"":4,""Patri9"":2,""Nation7"":4,""Nation1"":2,""Nation8"":1,""Nation6"":2,""Patri3"":4,""Patri6"":1,""Patri4"":4,""Nation3"":3,""Patri10"":0,""Nation2"":4,""Patri5"":4,""Nation5"":1,""Patri12"":1,""Patri2"":4,""Patri1"":4,""Patri11"":0,""Nation4"":0,""Patri8"":4}","[6,8,18,12,19,17,2,5,3,14,9,13,4,16,11,1,0,10,15,7]"
"","","","","","html-button-response","151","728074","0.0-24.0","58","1","2022-11-02 02:19:53","ebf9627b049f568eb4bf28942cb89901","124.16.149.42","Mozilla/5.0 (Macintosh; Intel Mac OS X 10_15_7) AppleWebKit/537.36 (KHTML, like Gecko) Chrome/106.0.0.0 Safari/537.36","Macintosh","Chrome","106.0.0.0","OS X","10_15_7","1418","<p><strong>请判断你在多大程度上同意下列陈述。</strong></p>","0",""
"","","","","","survey-likert","152","792049","0.0-25.0","58","1","2022-11-02 02:19:53","ebf9627b049f568eb4bf28942cb89901","124.16.149.42","Mozilla/5.0 (Macintosh; Intel Mac OS X 10_15_7) AppleWebKit/537.36 (KHTML, like Gecko) Chrome/106.0.0.0 Safari/537.36","Macintosh","Chrome","106.0.0.0","OS X","10_15_7","63970","","{""vi3"":7,""vc3"":1,""hi3"":7,""vi4"":6,""Robot"":6,""hc4"":7,""hc3"":7,""vc4"":4,""hi1"":5,""hi2"":7,""hc2"":6,""vc2"":7,""hi4"":6,""hc1"":6,""vc1"":7,""vi1"":4,""vi2"":4}","[6,15,2,8,7,12,11,16,0,1,10,14,3,9,13,4,5]"
"","","","","","survey-text","153","800076","0.0-26.0","58","1","2022-11-02 02:19:53","ebf9627b049f568eb4bf28942cb89901","124.16.149.42","Mozilla/5.0 (Macintosh; Intel Mac OS X 10_15_7) AppleWebKit/537.36 (KHTML, like Gecko) Chrome/106.0.0.0 Safari/537.36","Macintosh","Chrome","106.0.0.0","OS X","10_15_7","8010","","{""Comments"":""无""}",""
"","","","","","html-button-response","154","801420","0.0-27.0","58","1","2022-11-02 02:19:53","ebf9627b049f568eb4bf28942cb89901","124.16.149.42","Mozilla/5.0 (Macintosh; Intel Mac OS X 10_15_7) AppleWebKit/537.36 (KHTML, like Gecko) Chrome/106.0.0.0 Safari/537.36","Macintosh","Chrome","106.0.0.0","OS X","10_15_7","1340","<strong><p>恭喜你完成了实验！</p><p>感谢您的参与。</p></strong>","0",""
