"success","timeout","failed_images","failed_audio","failed_video","trial_type","trial_index","time_elapsed","internal_node_id","run_id","condition","recorded_at","source_code_version","ip","user_agent","device","browser","browser_version","platform","platform_version","rt","stimulus","response","question_order"
"true","false","[]","[]","[]","preload","0","10","0.0-0.0","63","1","2022-11-05 14:42:27","ebf9627b049f568eb4bf28942cb89901","106.114.112.147","Mozilla/5.0 (Macintosh; Intel Mac OS X 10_15_7) AppleWebKit/605.1.15 (KHTML, like Gecko) Version/15.5 Safari/605.1.15","Macintosh","Safari","15.5","OS X","10_15_7","","","",""
"true","","","","","fullscreen","1","3311","0.0-1.0","63","1","2022-11-05 14:42:27","ebf9627b049f568eb4bf28942cb89901","106.114.112.147","Mozilla/5.0 (Macintosh; Intel Mac OS X 10_15_7) AppleWebKit/605.1.15 (KHTML, like Gecko) Version/15.5 Safari/605.1.15","Macintosh","Safari","15.5","OS X","10_15_7","","","",""
"","","","","","html-button-response","2","4978","0.0-2.0","63","1","2022-11-05 14:42:27","ebf9627b049f568eb4bf28942cb89901","106.114.112.147","Mozilla/5.0 (Macintosh; Intel Mac OS X 10_15_7) AppleWebKit/605.1.15 (KHTML, like Gecko) Version/15.5 Safari/605.1.15","Macintosh","Safari","15.5","OS X","10_15_7","1664","<p style=""font-size:20px;font-weight:bold;"">实验知情同意书</p><p style=""text-align:left;""><strong>实验名称：</strong>社会冲突研究</p><p style=""text-align:left;""><strong>主要研究者：</strong>韩晓春副教授（北京师范大学心理学部）</p><p style=""text-align:left;""><strong>联系方式：</strong>发送邮件至xiaochun.han@bnu.edu.cn</p><p style=""text-align:left;""><strong>研究目的：</strong>研究旨在了解人类面对群体冲突时的决策方式，以及相关的心理学特质。实验调查大约需要20分钟。</p><p style=""text-align:left;""><strong>实验流程：</strong>实验包含两部分。第一部分呈现一系列群体冲突场景，请你决定如何对这些冲突进行反应，大约需要10分钟完成。第二部分包含一系列人口统计学信息收集和心理学问卷，大约需要10分钟完成。</p><p style=""text-align:left;""><strong>参加及退出规则：</strong>参加本实验完全取决于您的个人意愿。在参与过程中，您可以随时退出，并且不用承担任何后果。</p><p style=""text-align:left;""><strong>隐私：</strong>本实验完全匿名进行，不会收集您的姓名或其他能够识别您身份的信息。实验中收集的作答仅用作科学研究使用，可能会在学术期刊/书籍上发表，或者用于教学，您的数据未来可能会和其他研究者或实验室分享，但您的个人身份不会被识别。</p><p style=""text-align:left;""><strong>实验报酬：</strong>实验完成后，您将获得15元人民币报酬，以感谢您的时间和努力。调查问卷中包含几道题目用以测验您作答时的认真度。只有完成全部实验，并且正确回答认真度测验的被试才能获得实验报酬。实验报酬将通过支付宝转账发放。</p><p style=""text-align:left;font-size:20px;""><strong>如果您同意以上实验知情同意书的内容，请点击'同意并且开始实验'按钮；否则请关闭浏览器界面，退出实验。</strong></p>","0",""
"","","","","","html-button-response","3","6402","0.0-3.0","63","1","2022-11-05 14:42:27","ebf9627b049f568eb4bf28942cb89901","106.114.112.147","Mozilla/5.0 (Macintosh; Intel Mac OS X 10_15_7) AppleWebKit/605.1.15 (KHTML, like Gecko) Version/15.5 Safari/605.1.15","Macintosh","Safari","15.5","OS X","10_15_7","1425","<p ><strong>实验任务一：</strong></p><p>请想象你的国家与另一个国家发生了军事冲突。</p><p>你是国家军队的指挥官，你将如何在冲突中进行决策。</p><p>具体来说，作为军队指挥官，请你决定是否发射导弹进行打击。</p><p>接下来，你会面对一系列场景，请仔细阅读每个场景，然后进行决策。</p><p>这部分实验任务大约需要10分钟。</p><p><strong>实验过程中，请集中注意力。</strong></p>","0",""
"","","","","","html-keyboard-response","4","7404","0.0-4.0-0.0","63","1","2022-11-05 14:42:27","ebf9627b049f568eb4bf28942cb89901","106.114.112.147","Mozilla/5.0 (Macintosh; Intel Mac OS X 10_15_7) AppleWebKit/605.1.15 (KHTML, like Gecko) Version/15.5 Safari/605.1.15","Macintosh","Safari","15.5","OS X","10_15_7","null","<div style=""font-size:60px;"">+</div>","null",""
"","","","","","html-button-response","5","15221","0.0-4.0-1.0","63","1","2022-11-05 14:42:27","ebf9627b049f568eb4bf28942cb89901","106.114.112.147","Mozilla/5.0 (Macintosh; Intel Mac OS X 10_15_7) AppleWebKit/605.1.15 (KHTML, like Gecko) Version/15.5 Safari/605.1.15","Macintosh","Safari","15.5","OS X","10_15_7","7813","<p>作为军队的指挥官，你可以选择发射导弹杀死 <strong>8名</strong> 敌国士兵，但会炸毁附近的 <strong>1棵</strong> 敌国树木。</p> <p>树木的照片如下图所示。</p> <p></p> <img src='stimuli/trees/8.png', style='max-width: 30%;'> </img> <p><strong>你是否选择发射武器？</strong></p>","0",""
"","","","","","html-keyboard-response","6","16222","0.0-4.0-0.1","63","1","2022-11-05 14:42:27","ebf9627b049f568eb4bf28942cb89901","106.114.112.147","Mozilla/5.0 (Macintosh; Intel Mac OS X 10_15_7) AppleWebKit/605.1.15 (KHTML, like Gecko) Version/15.5 Safari/605.1.15","Macintosh","Safari","15.5","OS X","10_15_7","null","<div style=""font-size:60px;"">+</div>","null",""
"","","","","","html-button-response","7","17547","0.0-4.0-1.1","63","1","2022-11-05 14:42:27","ebf9627b049f568eb4bf28942cb89901","106.114.112.147","Mozilla/5.0 (Macintosh; Intel Mac OS X 10_15_7) AppleWebKit/605.1.15 (KHTML, like Gecko) Version/15.5 Safari/605.1.15","Macintosh","Safari","15.5","OS X","10_15_7","1323","<p>作为军队的指挥官，你可以选择发射导弹杀死 <strong>2名</strong> 敌国士兵，但会误杀附近的 <strong>1名</strong> 敌国平民。</p> <p>平民照片如下图所示。</p> <p></p> <img src='stimuli/faces/NFM6.jpg', style='max-width: 30%;'> </img> <p><strong>你是否选择发射武器？</strong></p>","1",""
"","","","","","html-keyboard-response","8","18549","0.0-4.0-0.2","63","1","2022-11-05 14:42:27","ebf9627b049f568eb4bf28942cb89901","106.114.112.147","Mozilla/5.0 (Macintosh; Intel Mac OS X 10_15_7) AppleWebKit/605.1.15 (KHTML, like Gecko) Version/15.5 Safari/605.1.15","Macintosh","Safari","15.5","OS X","10_15_7","null","<div style=""font-size:60px;"">+</div>","null",""
"","","","","","html-button-response","9","19575","0.0-4.0-1.2","63","1","2022-11-05 14:42:27","ebf9627b049f568eb4bf28942cb89901","106.114.112.147","Mozilla/5.0 (Macintosh; Intel Mac OS X 10_15_7) AppleWebKit/605.1.15 (KHTML, like Gecko) Version/15.5 Safari/605.1.15","Macintosh","Safari","15.5","OS X","10_15_7","1022","<p>作为军队的指挥官，你可以选择发射导弹杀死 <strong>6名</strong> 敌国士兵，但会误杀附近的 <strong>1名</strong> 敌国平民。</p> <p>平民照片如下图所示。</p> <p></p> <img src='stimuli/faces/NFM5.jpg', style='max-width: 30%;'> </img> <p><strong>你是否选择发射武器？</strong></p>","1",""
"","","","","","html-keyboard-response","10","20577","0.0-4.0-0.3","63","1","2022-11-05 14:42:27","ebf9627b049f568eb4bf28942cb89901","106.114.112.147","Mozilla/5.0 (Macintosh; Intel Mac OS X 10_15_7) AppleWebKit/605.1.15 (KHTML, like Gecko) Version/15.5 Safari/605.1.15","Macintosh","Safari","15.5","OS X","10_15_7","null","<div style=""font-size:60px;"">+</div>","null",""
"","","","","","html-button-response","11","22140","0.0-4.0-1.3","63","1","2022-11-05 14:42:27","ebf9627b049f568eb4bf28942cb89901","106.114.112.147","Mozilla/5.0 (Macintosh; Intel Mac OS X 10_15_7) AppleWebKit/605.1.15 (KHTML, like Gecko) Version/15.5 Safari/605.1.15","Macintosh","Safari","15.5","OS X","10_15_7","1562","<p>作为军队的指挥官，你可以选择发射导弹杀死 <strong>5名</strong> 敌国士兵，但会炸毁附近的 <strong>1棵</strong> 敌国树木。</p> <p>树木的照片如下图所示。</p> <p></p> <img src='stimuli/trees/5.png', style='max-width: 30%;'> </img> <p><strong>你是否选择发射武器？</strong></p>","0",""
"","","","","","html-keyboard-response","12","23143","0.0-4.0-0.4","63","1","2022-11-05 14:42:27","ebf9627b049f568eb4bf28942cb89901","106.114.112.147","Mozilla/5.0 (Macintosh; Intel Mac OS X 10_15_7) AppleWebKit/605.1.15 (KHTML, like Gecko) Version/15.5 Safari/605.1.15","Macintosh","Safari","15.5","OS X","10_15_7","null","<div style=""font-size:60px;"">+</div>","null",""
"","","","","","html-button-response","13","24159","0.0-4.0-1.4","63","1","2022-11-05 14:42:27","ebf9627b049f568eb4bf28942cb89901","106.114.112.147","Mozilla/5.0 (Macintosh; Intel Mac OS X 10_15_7) AppleWebKit/605.1.15 (KHTML, like Gecko) Version/15.5 Safari/605.1.15","Macintosh","Safari","15.5","OS X","10_15_7","1012","<p>作为军队的指挥官，你可以选择发射导弹杀死 <strong>3名</strong> 敌国士兵，但会炸毁附近的 <strong>1棵</strong> 敌国树木。</p> <p>树木的照片如下图所示。</p> <p></p> <img src='stimuli/trees/10.png', style='max-width: 30%;'> </img> <p><strong>你是否选择发射武器？</strong></p>","0",""
"","","","","","html-keyboard-response","14","25161","0.0-4.0-0.5","63","1","2022-11-05 14:42:27","ebf9627b049f568eb4bf28942cb89901","106.114.112.147","Mozilla/5.0 (Macintosh; Intel Mac OS X 10_15_7) AppleWebKit/605.1.15 (KHTML, like Gecko) Version/15.5 Safari/605.1.15","Macintosh","Safari","15.5","OS X","10_15_7","null","<div style=""font-size:60px;"">+</div>","null",""
"","","","","","html-button-response","15","25723","0.0-4.0-1.5","63","1","2022-11-05 14:42:27","ebf9627b049f568eb4bf28942cb89901","106.114.112.147","Mozilla/5.0 (Macintosh; Intel Mac OS X 10_15_7) AppleWebKit/605.1.15 (KHTML, like Gecko) Version/15.5 Safari/605.1.15","Macintosh","Safari","15.5","OS X","10_15_7","559","<p>作为军队的指挥官，你可以选择发射导弹杀死 <strong>9名</strong> 敌国士兵，但会炸毁附近的 <strong>1棵</strong> 敌国树木。</p> <p>树木的照片如下图所示。</p> <p></p> <img src='stimuli/trees/13.png', style='max-width: 30%;'> </img> <p><strong>你是否选择发射武器？</strong></p>","0",""
"","","","","","html-keyboard-response","16","26725","0.0-4.0-0.6","63","1","2022-11-05 14:42:27","ebf9627b049f568eb4bf28942cb89901","106.114.112.147","Mozilla/5.0 (Macintosh; Intel Mac OS X 10_15_7) AppleWebKit/605.1.15 (KHTML, like Gecko) Version/15.5 Safari/605.1.15","Macintosh","Safari","15.5","OS X","10_15_7","null","<div style=""font-size:60px;"">+</div>","null",""
"","","","","","html-button-response","17","27806","0.0-4.0-1.6","63","1","2022-11-05 14:42:27","ebf9627b049f568eb4bf28942cb89901","106.114.112.147","Mozilla/5.0 (Macintosh; Intel Mac OS X 10_15_7) AppleWebKit/605.1.15 (KHTML, like Gecko) Version/15.5 Safari/605.1.15","Macintosh","Safari","15.5","OS X","10_15_7","1079","<p>作为军队的指挥官，你可以选择发射导弹杀死 <strong>3名</strong> 敌国士兵，但会误杀附近的 <strong>1名</strong> 敌国平民。</p> <p>平民照片如下图所示。</p> <p></p> <img src='stimuli/faces/NFF6.jpg', style='max-width: 30%;'> </img> <p><strong>你是否选择发射武器？</strong></p>","1",""
"","","","","","html-keyboard-response","18","28808","0.0-4.0-0.7","63","1","2022-11-05 14:42:27","ebf9627b049f568eb4bf28942cb89901","106.114.112.147","Mozilla/5.0 (Macintosh; Intel Mac OS X 10_15_7) AppleWebKit/605.1.15 (KHTML, like Gecko) Version/15.5 Safari/605.1.15","Macintosh","Safari","15.5","OS X","10_15_7","null","<div style=""font-size:60px;"">+</div>","null",""
"","","","","","html-button-response","19","29410","0.0-4.0-1.7","63","1","2022-11-05 14:42:27","ebf9627b049f568eb4bf28942cb89901","106.114.112.147","Mozilla/5.0 (Macintosh; Intel Mac OS X 10_15_7) AppleWebKit/605.1.15 (KHTML, like Gecko) Version/15.5 Safari/605.1.15","Macintosh","Safari","15.5","OS X","10_15_7","600","<p>作为军队的指挥官，你可以选择发射导弹杀死 <strong>2名</strong> 敌国士兵，但会炸毁附近的 <strong>1棵</strong> 敌国树木。</p> <p>树木的照片如下图所示。</p> <p></p> <img src='stimuli/trees/6.png', style='max-width: 30%;'> </img> <p><strong>你是否选择发射武器？</strong></p>","0",""
"","","","","","html-keyboard-response","20","30413","0.0-4.0-0.8","63","1","2022-11-05 14:42:27","ebf9627b049f568eb4bf28942cb89901","106.114.112.147","Mozilla/5.0 (Macintosh; Intel Mac OS X 10_15_7) AppleWebKit/605.1.15 (KHTML, like Gecko) Version/15.5 Safari/605.1.15","Macintosh","Safari","15.5","OS X","10_15_7","null","<div style=""font-size:60px;"">+</div>","null",""
"","","","","","html-button-response","21","30940","0.0-4.0-1.8","63","1","2022-11-05 14:42:27","ebf9627b049f568eb4bf28942cb89901","106.114.112.147","Mozilla/5.0 (Macintosh; Intel Mac OS X 10_15_7) AppleWebKit/605.1.15 (KHTML, like Gecko) Version/15.5 Safari/605.1.15","Macintosh","Safari","15.5","OS X","10_15_7","525","<p>作为军队的指挥官，你可以选择发射导弹杀死 <strong>6名</strong> 敌国士兵，但会炸毁附近的 <strong>1棵</strong> 敌国树木。</p> <p>树木的照片如下图所示。</p> <p></p> <img src='stimuli/trees/10.png', style='max-width: 30%;'> </img> <p><strong>你是否选择发射武器？</strong></p>","0",""
"","","","","","html-keyboard-response","22","31942","0.0-4.0-0.9","63","1","2022-11-05 14:42:27","ebf9627b049f568eb4bf28942cb89901","106.114.112.147","Mozilla/5.0 (Macintosh; Intel Mac OS X 10_15_7) AppleWebKit/605.1.15 (KHTML, like Gecko) Version/15.5 Safari/605.1.15","Macintosh","Safari","15.5","OS X","10_15_7","null","<div style=""font-size:60px;"">+</div>","null",""
"","","","","","html-button-response","23","33056","0.0-4.0-1.9","63","1","2022-11-05 14:42:27","ebf9627b049f568eb4bf28942cb89901","106.114.112.147","Mozilla/5.0 (Macintosh; Intel Mac OS X 10_15_7) AppleWebKit/605.1.15 (KHTML, like Gecko) Version/15.5 Safari/605.1.15","Macintosh","Safari","15.5","OS X","10_15_7","1110","<p>作为军队的指挥官，你可以选择发射导弹杀死 <strong>3名</strong> 敌国士兵，但会误杀附近的 <strong>1名</strong> 敌国平民。</p> <p>平民照片如下图所示。</p> <p></p> <img src='stimuli/faces/NFF2.jpg', style='max-width: 30%;'> </img> <p><strong>你是否选择发射武器？</strong></p>","1",""
"","","","","","html-keyboard-response","24","34058","0.0-4.0-0.10","63","1","2022-11-05 14:42:27","ebf9627b049f568eb4bf28942cb89901","106.114.112.147","Mozilla/5.0 (Macintosh; Intel Mac OS X 10_15_7) AppleWebKit/605.1.15 (KHTML, like Gecko) Version/15.5 Safari/605.1.15","Macintosh","Safari","15.5","OS X","10_15_7","null","<div style=""font-size:60px;"">+</div>","null",""
"","","","","","html-button-response","25","35364","0.0-4.0-1.10","63","1","2022-11-05 14:42:27","ebf9627b049f568eb4bf28942cb89901","106.114.112.147","Mozilla/5.0 (Macintosh; Intel Mac OS X 10_15_7) AppleWebKit/605.1.15 (KHTML, like Gecko) Version/15.5 Safari/605.1.15","Macintosh","Safari","15.5","OS X","10_15_7","1303","<p>作为军队的指挥官，你可以选择发射导弹杀死 <strong>9名</strong> 敌国士兵，但会误杀附近的 <strong>1名</strong> 敌国平民。</p> <p>平民照片如下图所示。</p> <p></p> <img src='stimuli/faces/NFF4.jpg', style='max-width: 30%;'> </img> <p><strong>你是否选择发射武器？</strong></p>","1",""
"","","","","","html-keyboard-response","26","36366","0.0-4.0-0.11","63","1","2022-11-05 14:42:27","ebf9627b049f568eb4bf28942cb89901","106.114.112.147","Mozilla/5.0 (Macintosh; Intel Mac OS X 10_15_7) AppleWebKit/605.1.15 (KHTML, like Gecko) Version/15.5 Safari/605.1.15","Macintosh","Safari","15.5","OS X","10_15_7","null","<div style=""font-size:60px;"">+</div>","null",""
"","","","","","html-button-response","27","37663","0.0-4.0-1.11","63","1","2022-11-05 14:42:27","ebf9627b049f568eb4bf28942cb89901","106.114.112.147","Mozilla/5.0 (Macintosh; Intel Mac OS X 10_15_7) AppleWebKit/605.1.15 (KHTML, like Gecko) Version/15.5 Safari/605.1.15","Macintosh","Safari","15.5","OS X","10_15_7","1293","<p>作为军队的指挥官，你可以选择发射导弹杀死 <strong>8名</strong> 敌国士兵，但会误杀附近的 <strong>1名</strong> 敌国平民。</p> <p>平民照片如下图所示。</p> <p></p> <img src='stimuli/faces/NFF8.jpg', style='max-width: 30%;'> </img> <p><strong>你是否选择发射武器？</strong></p>","1",""
"","","","","","html-keyboard-response","28","38665","0.0-4.0-0.12","63","1","2022-11-05 14:42:27","ebf9627b049f568eb4bf28942cb89901","106.114.112.147","Mozilla/5.0 (Macintosh; Intel Mac OS X 10_15_7) AppleWebKit/605.1.15 (KHTML, like Gecko) Version/15.5 Safari/605.1.15","Macintosh","Safari","15.5","OS X","10_15_7","null","<div style=""font-size:60px;"">+</div>","null",""
"","","","","","html-button-response","29","39546","0.0-4.0-1.12","63","1","2022-11-05 14:42:27","ebf9627b049f568eb4bf28942cb89901","106.114.112.147","Mozilla/5.0 (Macintosh; Intel Mac OS X 10_15_7) AppleWebKit/605.1.15 (KHTML, like Gecko) Version/15.5 Safari/605.1.15","Macintosh","Safari","15.5","OS X","10_15_7","877","<p>作为军队的指挥官，你可以选择发射导弹杀死 <strong>5名</strong> 敌国士兵，但会误杀附近的 <strong>1名</strong> 敌国平民。</p> <p>平民照片如下图所示。</p> <p></p> <img src='stimuli/faces/NFF8.jpg', style='max-width: 30%;'> </img> <p><strong>你是否选择发射武器？</strong></p>","1",""
"","","","","","html-keyboard-response","30","40548","0.0-4.0-0.13","63","1","2022-11-05 14:42:27","ebf9627b049f568eb4bf28942cb89901","106.114.112.147","Mozilla/5.0 (Macintosh; Intel Mac OS X 10_15_7) AppleWebKit/605.1.15 (KHTML, like Gecko) Version/15.5 Safari/605.1.15","Macintosh","Safari","15.5","OS X","10_15_7","null","<div style=""font-size:60px;"">+</div>","null",""
"","","","","","html-button-response","31","41413","0.0-4.0-1.13","63","1","2022-11-05 14:42:27","ebf9627b049f568eb4bf28942cb89901","106.114.112.147","Mozilla/5.0 (Macintosh; Intel Mac OS X 10_15_7) AppleWebKit/605.1.15 (KHTML, like Gecko) Version/15.5 Safari/605.1.15","Macintosh","Safari","15.5","OS X","10_15_7","863","<p>作为军队的指挥官，你可以选择发射导弹杀死 <strong>7名</strong> 敌国士兵，但会误杀附近的 <strong>1名</strong> 敌国平民。</p> <p>平民照片如下图所示。</p> <p></p> <img src='stimuli/faces/NFM1.jpg', style='max-width: 30%;'> </img> <p><strong>你是否选择发射武器？</strong></p>","1",""
"","","","","","html-keyboard-response","32","42414","0.0-4.0-0.14","63","1","2022-11-05 14:42:27","ebf9627b049f568eb4bf28942cb89901","106.114.112.147","Mozilla/5.0 (Macintosh; Intel Mac OS X 10_15_7) AppleWebKit/605.1.15 (KHTML, like Gecko) Version/15.5 Safari/605.1.15","Macintosh","Safari","15.5","OS X","10_15_7","null","<div style=""font-size:60px;"">+</div>","null",""
"","","","","","html-button-response","33","43296","0.0-4.0-1.14","63","1","2022-11-05 14:42:27","ebf9627b049f568eb4bf28942cb89901","106.114.112.147","Mozilla/5.0 (Macintosh; Intel Mac OS X 10_15_7) AppleWebKit/605.1.15 (KHTML, like Gecko) Version/15.5 Safari/605.1.15","Macintosh","Safari","15.5","OS X","10_15_7","879","<p>作为军队的指挥官，你可以选择发射导弹杀死 <strong>6名</strong> 敌国士兵，但会误杀附近的 <strong>1名</strong> 敌国平民。</p> <p>平民照片如下图所示。</p> <p></p> <img src='stimuli/faces/NFM8.jpg', style='max-width: 30%;'> </img> <p><strong>你是否选择发射武器？</strong></p>","1",""
"","","","","","html-keyboard-response","34","44298","0.0-4.0-0.15","63","1","2022-11-05 14:42:27","ebf9627b049f568eb4bf28942cb89901","106.114.112.147","Mozilla/5.0 (Macintosh; Intel Mac OS X 10_15_7) AppleWebKit/605.1.15 (KHTML, like Gecko) Version/15.5 Safari/605.1.15","Macintosh","Safari","15.5","OS X","10_15_7","null","<div style=""font-size:60px;"">+</div>","null",""
"","","","","","html-button-response","35","45090","0.0-4.0-1.15","63","1","2022-11-05 14:42:27","ebf9627b049f568eb4bf28942cb89901","106.114.112.147","Mozilla/5.0 (Macintosh; Intel Mac OS X 10_15_7) AppleWebKit/605.1.15 (KHTML, like Gecko) Version/15.5 Safari/605.1.15","Macintosh","Safari","15.5","OS X","10_15_7","790","<p>作为军队的指挥官，你可以选择发射导弹杀死 <strong>4名</strong> 敌国士兵，但会误杀附近的 <strong>1名</strong> 敌国平民。</p> <p>平民照片如下图所示。</p> <p></p> <img src='stimuli/faces/NFF3.jpg', style='max-width: 30%;'> </img> <p><strong>你是否选择发射武器？</strong></p>","1",""
"","","","","","html-keyboard-response","36","46092","0.0-4.0-0.16","63","1","2022-11-05 14:42:27","ebf9627b049f568eb4bf28942cb89901","106.114.112.147","Mozilla/5.0 (Macintosh; Intel Mac OS X 10_15_7) AppleWebKit/605.1.15 (KHTML, like Gecko) Version/15.5 Safari/605.1.15","Macintosh","Safari","15.5","OS X","10_15_7","null","<div style=""font-size:60px;"">+</div>","null",""
"","","","","","html-button-response","37","47558","0.0-4.0-1.16","63","1","2022-11-05 14:42:27","ebf9627b049f568eb4bf28942cb89901","106.114.112.147","Mozilla/5.0 (Macintosh; Intel Mac OS X 10_15_7) AppleWebKit/605.1.15 (KHTML, like Gecko) Version/15.5 Safari/605.1.15","Macintosh","Safari","15.5","OS X","10_15_7","1465","<p>作为军队的指挥官，你可以选择发射导弹杀死 <strong>5名</strong> 敌国士兵，但会误杀附近的 <strong>1名</strong> 敌国平民。</p> <p>平民照片如下图所示。</p> <p></p> <img src='stimuli/faces/NFM7.jpg', style='max-width: 30%;'> </img> <p><strong>你是否选择发射武器？</strong></p>","1",""
"","","","","","html-keyboard-response","38","48560","0.0-4.0-0.17","63","1","2022-11-05 14:42:27","ebf9627b049f568eb4bf28942cb89901","106.114.112.147","Mozilla/5.0 (Macintosh; Intel Mac OS X 10_15_7) AppleWebKit/605.1.15 (KHTML, like Gecko) Version/15.5 Safari/605.1.15","Macintosh","Safari","15.5","OS X","10_15_7","null","<div style=""font-size:60px;"">+</div>","null",""
"","","","","","html-button-response","39","49449","0.0-4.0-1.17","63","1","2022-11-05 14:42:27","ebf9627b049f568eb4bf28942cb89901","106.114.112.147","Mozilla/5.0 (Macintosh; Intel Mac OS X 10_15_7) AppleWebKit/605.1.15 (KHTML, like Gecko) Version/15.5 Safari/605.1.15","Macintosh","Safari","15.5","OS X","10_15_7","885","<p>作为军队的指挥官，你可以选择发射导弹杀死 <strong>5名</strong> 敌国士兵，但会炸毁附近的 <strong>1棵</strong> 敌国树木。</p> <p>树木的照片如下图所示。</p> <p></p> <img src='stimuli/trees/3.png', style='max-width: 30%;'> </img> <p><strong>你是否选择发射武器？</strong></p>","0",""
"","","","","","html-keyboard-response","40","50451","0.0-4.0-0.18","63","1","2022-11-05 14:42:27","ebf9627b049f568eb4bf28942cb89901","106.114.112.147","Mozilla/5.0 (Macintosh; Intel Mac OS X 10_15_7) AppleWebKit/605.1.15 (KHTML, like Gecko) Version/15.5 Safari/605.1.15","Macintosh","Safari","15.5","OS X","10_15_7","null","<div style=""font-size:60px;"">+</div>","null",""
"","","","","","html-button-response","41","51480","0.0-4.0-1.18","63","1","2022-11-05 14:42:27","ebf9627b049f568eb4bf28942cb89901","106.114.112.147","Mozilla/5.0 (Macintosh; Intel Mac OS X 10_15_7) AppleWebKit/605.1.15 (KHTML, like Gecko) Version/15.5 Safari/605.1.15","Macintosh","Safari","15.5","OS X","10_15_7","1025","<p>作为军队的指挥官，你可以选择发射导弹杀死 <strong>9名</strong> 敌国士兵，但会误杀附近的 <strong>1名</strong> 敌国平民。</p> <p>平民照片如下图所示。</p> <p></p> <img src='stimuli/faces/NFF1.jpg', style='max-width: 30%;'> </img> <p><strong>你是否选择发射武器？</strong></p>","1",""
"","","","","","html-keyboard-response","42","52484","0.0-4.0-0.19","63","1","2022-11-05 14:42:27","ebf9627b049f568eb4bf28942cb89901","106.114.112.147","Mozilla/5.0 (Macintosh; Intel Mac OS X 10_15_7) AppleWebKit/605.1.15 (KHTML, like Gecko) Version/15.5 Safari/605.1.15","Macintosh","Safari","15.5","OS X","10_15_7","null","<div style=""font-size:60px;"">+</div>","null",""
"","","","","","html-button-response","43","53414","0.0-4.0-1.19","63","1","2022-11-05 14:42:27","ebf9627b049f568eb4bf28942cb89901","106.114.112.147","Mozilla/5.0 (Macintosh; Intel Mac OS X 10_15_7) AppleWebKit/605.1.15 (KHTML, like Gecko) Version/15.5 Safari/605.1.15","Macintosh","Safari","15.5","OS X","10_15_7","926","<p>作为军队的指挥官，你可以选择发射导弹杀死 <strong>10名</strong> 敌国士兵，但会误杀附近的 <strong>1名</strong> 敌国平民。</p> <p>平民照片如下图所示。</p> <p></p> <img src='stimuli/faces/NFF7.jpg', style='max-width: 30%;'> </img> <p><strong>你是否选择发射武器？</strong></p>","1",""
"","","","","","html-keyboard-response","44","54417","0.0-4.0-0.20","63","1","2022-11-05 14:42:27","ebf9627b049f568eb4bf28942cb89901","106.114.112.147","Mozilla/5.0 (Macintosh; Intel Mac OS X 10_15_7) AppleWebKit/605.1.15 (KHTML, like Gecko) Version/15.5 Safari/605.1.15","Macintosh","Safari","15.5","OS X","10_15_7","null","<div style=""font-size:60px;"">+</div>","null",""
"","","","","","html-button-response","45","55275","0.0-4.0-1.20","63","1","2022-11-05 14:42:27","ebf9627b049f568eb4bf28942cb89901","106.114.112.147","Mozilla/5.0 (Macintosh; Intel Mac OS X 10_15_7) AppleWebKit/605.1.15 (KHTML, like Gecko) Version/15.5 Safari/605.1.15","Macintosh","Safari","15.5","OS X","10_15_7","853","<p>作为军队的指挥官，你可以选择发射导弹杀死 <strong>4名</strong> 敌国士兵，但会炸毁附近的 <strong>1棵</strong> 敌国树木。</p> <p>树木的照片如下图所示。</p> <p></p> <img src='stimuli/trees/7.png', style='max-width: 30%;'> </img> <p><strong>你是否选择发射武器？</strong></p>","0",""
"","","","","","html-keyboard-response","46","56277","0.0-4.0-0.21","63","1","2022-11-05 14:42:27","ebf9627b049f568eb4bf28942cb89901","106.114.112.147","Mozilla/5.0 (Macintosh; Intel Mac OS X 10_15_7) AppleWebKit/605.1.15 (KHTML, like Gecko) Version/15.5 Safari/605.1.15","Macintosh","Safari","15.5","OS X","10_15_7","null","<div style=""font-size:60px;"">+</div>","null",""
"","","","","","html-button-response","47","57280","0.0-4.0-1.21","63","1","2022-11-05 14:42:27","ebf9627b049f568eb4bf28942cb89901","106.114.112.147","Mozilla/5.0 (Macintosh; Intel Mac OS X 10_15_7) AppleWebKit/605.1.15 (KHTML, like Gecko) Version/15.5 Safari/605.1.15","Macintosh","Safari","15.5","OS X","10_15_7","1000","<p>作为军队的指挥官，你可以选择发射导弹杀死 <strong>4名</strong> 敌国士兵，但会误杀附近的 <strong>1名</strong> 敌国平民。</p> <p>平民照片如下图所示。</p> <p></p> <img src='stimuli/faces/NFM8.jpg', style='max-width: 30%;'> </img> <p><strong>你是否选择发射武器？</strong></p>","1",""
"","","","","","html-keyboard-response","48","58282","0.0-4.0-0.22","63","1","2022-11-05 14:42:27","ebf9627b049f568eb4bf28942cb89901","106.114.112.147","Mozilla/5.0 (Macintosh; Intel Mac OS X 10_15_7) AppleWebKit/605.1.15 (KHTML, like Gecko) Version/15.5 Safari/605.1.15","Macintosh","Safari","15.5","OS X","10_15_7","null","<div style=""font-size:60px;"">+</div>","null",""
"","","","","","html-button-response","49","59131","0.0-4.0-1.22","63","1","2022-11-05 14:42:27","ebf9627b049f568eb4bf28942cb89901","106.114.112.147","Mozilla/5.0 (Macintosh; Intel Mac OS X 10_15_7) AppleWebKit/605.1.15 (KHTML, like Gecko) Version/15.5 Safari/605.1.15","Macintosh","Safari","15.5","OS X","10_15_7","846","<p>作为军队的指挥官，你可以选择发射导弹杀死 <strong>8名</strong> 敌国士兵，但会误杀附近的 <strong>1名</strong> 敌国平民。</p> <p>平民照片如下图所示。</p> <p></p> <img src='stimuli/faces/NFF2.jpg', style='max-width: 30%;'> </img> <p><strong>你是否选择发射武器？</strong></p>","1",""
"","","","","","html-keyboard-response","50","60133","0.0-4.0-0.23","63","1","2022-11-05 14:42:27","ebf9627b049f568eb4bf28942cb89901","106.114.112.147","Mozilla/5.0 (Macintosh; Intel Mac OS X 10_15_7) AppleWebKit/605.1.15 (KHTML, like Gecko) Version/15.5 Safari/605.1.15","Macintosh","Safari","15.5","OS X","10_15_7","null","<div style=""font-size:60px;"">+</div>","null",""
"","","","","","html-button-response","51","61176","0.0-4.0-1.23","63","1","2022-11-05 14:42:27","ebf9627b049f568eb4bf28942cb89901","106.114.112.147","Mozilla/5.0 (Macintosh; Intel Mac OS X 10_15_7) AppleWebKit/605.1.15 (KHTML, like Gecko) Version/15.5 Safari/605.1.15","Macintosh","Safari","15.5","OS X","10_15_7","1038","<p>作为军队的指挥官，你可以选择发射导弹杀死 <strong>8名</strong> 敌国士兵，但会误杀附近的 <strong>1名</strong> 敌国平民。</p> <p>平民照片如下图所示。</p> <p></p> <img src='stimuli/faces/NFF5.jpg', style='max-width: 30%;'> </img> <p><strong>你是否选择发射武器？</strong></p>","1",""
"","","","","","html-keyboard-response","52","62178","0.0-4.0-0.24","63","1","2022-11-05 14:42:27","ebf9627b049f568eb4bf28942cb89901","106.114.112.147","Mozilla/5.0 (Macintosh; Intel Mac OS X 10_15_7) AppleWebKit/605.1.15 (KHTML, like Gecko) Version/15.5 Safari/605.1.15","Macintosh","Safari","15.5","OS X","10_15_7","null","<div style=""font-size:60px;"">+</div>","null",""
"","","","","","html-button-response","53","63975","0.0-4.0-1.24","63","1","2022-11-05 14:42:27","ebf9627b049f568eb4bf28942cb89901","106.114.112.147","Mozilla/5.0 (Macintosh; Intel Mac OS X 10_15_7) AppleWebKit/605.1.15 (KHTML, like Gecko) Version/15.5 Safari/605.1.15","Macintosh","Safari","15.5","OS X","10_15_7","1793","<p>作为军队的指挥官，你可以选择发射导弹杀死 <strong>8名</strong> 敌国士兵，但会炸毁附近的 <strong>1棵</strong> 敌国树木。</p> <p>树木的照片如下图所示。</p> <p></p> <img src='stimuli/trees/16.png', style='max-width: 30%;'> </img> <p><strong>你是否选择发射武器？</strong></p>","0",""
"","","","","","html-keyboard-response","54","64977","0.0-4.0-0.25","63","1","2022-11-05 14:42:27","ebf9627b049f568eb4bf28942cb89901","106.114.112.147","Mozilla/5.0 (Macintosh; Intel Mac OS X 10_15_7) AppleWebKit/605.1.15 (KHTML, like Gecko) Version/15.5 Safari/605.1.15","Macintosh","Safari","15.5","OS X","10_15_7","null","<div style=""font-size:60px;"">+</div>","null",""
"","","","","","html-button-response","55","66064","0.0-4.0-1.25","63","1","2022-11-05 14:42:27","ebf9627b049f568eb4bf28942cb89901","106.114.112.147","Mozilla/5.0 (Macintosh; Intel Mac OS X 10_15_7) AppleWebKit/605.1.15 (KHTML, like Gecko) Version/15.5 Safari/605.1.15","Macintosh","Safari","15.5","OS X","10_15_7","1083","<p>作为军队的指挥官，你可以选择发射导弹杀死 <strong>2名</strong> 敌国士兵，但会误杀附近的 <strong>1名</strong> 敌国平民。</p> <p>平民照片如下图所示。</p> <p></p> <img src='stimuli/faces/NFF4.jpg', style='max-width: 30%;'> </img> <p><strong>你是否选择发射武器？</strong></p>","1",""
"","","","","","html-keyboard-response","56","67065","0.0-4.0-0.26","63","1","2022-11-05 14:42:27","ebf9627b049f568eb4bf28942cb89901","106.114.112.147","Mozilla/5.0 (Macintosh; Intel Mac OS X 10_15_7) AppleWebKit/605.1.15 (KHTML, like Gecko) Version/15.5 Safari/605.1.15","Macintosh","Safari","15.5","OS X","10_15_7","null","<div style=""font-size:60px;"">+</div>","null",""
"","","","","","html-button-response","57","67772","0.0-4.0-1.26","63","1","2022-11-05 14:42:27","ebf9627b049f568eb4bf28942cb89901","106.114.112.147","Mozilla/5.0 (Macintosh; Intel Mac OS X 10_15_7) AppleWebKit/605.1.15 (KHTML, like Gecko) Version/15.5 Safari/605.1.15","Macintosh","Safari","15.5","OS X","10_15_7","702","<p>作为军队的指挥官，你可以选择发射导弹杀死 <strong>2名</strong> 敌国士兵，但会炸毁附近的 <strong>1棵</strong> 敌国树木。</p> <p>树木的照片如下图所示。</p> <p></p> <img src='stimuli/trees/9.png', style='max-width: 30%;'> </img> <p><strong>你是否选择发射武器？</strong></p>","0",""
"","","","","","html-keyboard-response","58","68775","0.0-4.0-0.27","63","1","2022-11-05 14:42:27","ebf9627b049f568eb4bf28942cb89901","106.114.112.147","Mozilla/5.0 (Macintosh; Intel Mac OS X 10_15_7) AppleWebKit/605.1.15 (KHTML, like Gecko) Version/15.5 Safari/605.1.15","Macintosh","Safari","15.5","OS X","10_15_7","null","<div style=""font-size:60px;"">+</div>","null",""
"","","","","","html-button-response","59","69705","0.0-4.0-1.27","63","1","2022-11-05 14:42:27","ebf9627b049f568eb4bf28942cb89901","106.114.112.147","Mozilla/5.0 (Macintosh; Intel Mac OS X 10_15_7) AppleWebKit/605.1.15 (KHTML, like Gecko) Version/15.5 Safari/605.1.15","Macintosh","Safari","15.5","OS X","10_15_7","926","<p>作为军队的指挥官，你可以选择发射导弹杀死 <strong>3名</strong> 敌国士兵，但会误杀附近的 <strong>1名</strong> 敌国平民。</p> <p>平民照片如下图所示。</p> <p></p> <img src='stimuli/faces/NFM5.jpg', style='max-width: 30%;'> </img> <p><strong>你是否选择发射武器？</strong></p>","1",""
"","","","","","html-keyboard-response","60","70707","0.0-4.0-0.28","63","1","2022-11-05 14:42:27","ebf9627b049f568eb4bf28942cb89901","106.114.112.147","Mozilla/5.0 (Macintosh; Intel Mac OS X 10_15_7) AppleWebKit/605.1.15 (KHTML, like Gecko) Version/15.5 Safari/605.1.15","Macintosh","Safari","15.5","OS X","10_15_7","null","<div style=""font-size:60px;"">+</div>","null",""
"","","","","","html-button-response","61","71663","0.0-4.0-1.28","63","1","2022-11-05 14:42:27","ebf9627b049f568eb4bf28942cb89901","106.114.112.147","Mozilla/5.0 (Macintosh; Intel Mac OS X 10_15_7) AppleWebKit/605.1.15 (KHTML, like Gecko) Version/15.5 Safari/605.1.15","Macintosh","Safari","15.5","OS X","10_15_7","954","<p>作为军队的指挥官，你可以选择发射导弹杀死 <strong>10名</strong> 敌国士兵，但会误杀附近的 <strong>1名</strong> 敌国平民。</p> <p>平民照片如下图所示。</p> <p></p> <img src='stimuli/faces/NFM6.jpg', style='max-width: 30%;'> </img> <p><strong>你是否选择发射武器？</strong></p>","1",""
"","","","","","html-keyboard-response","62","72665","0.0-4.0-0.29","63","1","2022-11-05 14:42:27","ebf9627b049f568eb4bf28942cb89901","106.114.112.147","Mozilla/5.0 (Macintosh; Intel Mac OS X 10_15_7) AppleWebKit/605.1.15 (KHTML, like Gecko) Version/15.5 Safari/605.1.15","Macintosh","Safari","15.5","OS X","10_15_7","null","<div style=""font-size:60px;"">+</div>","null",""
"","","","","","html-button-response","63","73864","0.0-4.0-1.29","63","1","2022-11-05 14:42:27","ebf9627b049f568eb4bf28942cb89901","106.114.112.147","Mozilla/5.0 (Macintosh; Intel Mac OS X 10_15_7) AppleWebKit/605.1.15 (KHTML, like Gecko) Version/15.5 Safari/605.1.15","Macintosh","Safari","15.5","OS X","10_15_7","1195","<p>作为军队的指挥官，你可以选择发射导弹杀死 <strong>9名</strong> 敌国士兵，但会炸毁附近的 <strong>1棵</strong> 敌国树木。</p> <p>树木的照片如下图所示。</p> <p></p> <img src='stimuli/trees/1.png', style='max-width: 30%;'> </img> <p><strong>你是否选择发射武器？</strong></p>","0",""
"","","","","","html-keyboard-response","64","74865","0.0-4.0-0.30","63","1","2022-11-05 14:42:27","ebf9627b049f568eb4bf28942cb89901","106.114.112.147","Mozilla/5.0 (Macintosh; Intel Mac OS X 10_15_7) AppleWebKit/605.1.15 (KHTML, like Gecko) Version/15.5 Safari/605.1.15","Macintosh","Safari","15.5","OS X","10_15_7","null","<div style=""font-size:60px;"">+</div>","null",""
"","","","","","html-button-response","65","75940","0.0-4.0-1.30","63","1","2022-11-05 14:42:27","ebf9627b049f568eb4bf28942cb89901","106.114.112.147","Mozilla/5.0 (Macintosh; Intel Mac OS X 10_15_7) AppleWebKit/605.1.15 (KHTML, like Gecko) Version/15.5 Safari/605.1.15","Macintosh","Safari","15.5","OS X","10_15_7","1070","<p>作为军队的指挥官，你可以选择发射导弹杀死 <strong>2名</strong> 敌国士兵，但会误杀附近的 <strong>1名</strong> 敌国平民。</p> <p>平民照片如下图所示。</p> <p></p> <img src='stimuli/faces/NFF5.jpg', style='max-width: 30%;'> </img> <p><strong>你是否选择发射武器？</strong></p>","1",""
"","","","","","html-keyboard-response","66","76944","0.0-4.0-0.31","63","1","2022-11-05 14:42:27","ebf9627b049f568eb4bf28942cb89901","106.114.112.147","Mozilla/5.0 (Macintosh; Intel Mac OS X 10_15_7) AppleWebKit/605.1.15 (KHTML, like Gecko) Version/15.5 Safari/605.1.15","Macintosh","Safari","15.5","OS X","10_15_7","null","<div style=""font-size:60px;"">+</div>","null",""
"","","","","","html-button-response","67","78013","0.0-4.0-1.31","63","1","2022-11-05 14:42:27","ebf9627b049f568eb4bf28942cb89901","106.114.112.147","Mozilla/5.0 (Macintosh; Intel Mac OS X 10_15_7) AppleWebKit/605.1.15 (KHTML, like Gecko) Version/15.5 Safari/605.1.15","Macintosh","Safari","15.5","OS X","10_15_7","1065","<p>作为军队的指挥官，你可以选择发射导弹杀死 <strong>10名</strong> 敌国士兵，但会炸毁附近的 <strong>1棵</strong> 敌国树木。</p> <p>树木的照片如下图所示。</p> <p></p> <img src='stimuli/trees/7.png', style='max-width: 30%;'> </img> <p><strong>你是否选择发射武器？</strong></p>","0",""
"","","","","","html-keyboard-response","68","79016","0.0-4.0-0.32","63","1","2022-11-05 14:42:27","ebf9627b049f568eb4bf28942cb89901","106.114.112.147","Mozilla/5.0 (Macintosh; Intel Mac OS X 10_15_7) AppleWebKit/605.1.15 (KHTML, like Gecko) Version/15.5 Safari/605.1.15","Macintosh","Safari","15.5","OS X","10_15_7","null","<div style=""font-size:60px;"">+</div>","null",""
"","","","","","html-button-response","69","79958","0.0-4.0-1.32","63","1","2022-11-05 14:42:27","ebf9627b049f568eb4bf28942cb89901","106.114.112.147","Mozilla/5.0 (Macintosh; Intel Mac OS X 10_15_7) AppleWebKit/605.1.15 (KHTML, like Gecko) Version/15.5 Safari/605.1.15","Macintosh","Safari","15.5","OS X","10_15_7","938","<p>作为军队的指挥官，你可以选择发射导弹杀死 <strong>10名</strong> 敌国士兵，但会炸毁附近的 <strong>1棵</strong> 敌国树木。</p> <p>树木的照片如下图所示。</p> <p></p> <img src='stimuli/trees/9.png', style='max-width: 30%;'> </img> <p><strong>你是否选择发射武器？</strong></p>","0",""
"","","","","","html-keyboard-response","70","80961","0.0-4.0-0.33","63","1","2022-11-05 14:42:27","ebf9627b049f568eb4bf28942cb89901","106.114.112.147","Mozilla/5.0 (Macintosh; Intel Mac OS X 10_15_7) AppleWebKit/605.1.15 (KHTML, like Gecko) Version/15.5 Safari/605.1.15","Macintosh","Safari","15.5","OS X","10_15_7","null","<div style=""font-size:60px;"">+</div>","null",""
"","","","","","html-button-response","71","84632","0.0-4.0-1.33","63","1","2022-11-05 14:42:27","ebf9627b049f568eb4bf28942cb89901","106.114.112.147","Mozilla/5.0 (Macintosh; Intel Mac OS X 10_15_7) AppleWebKit/605.1.15 (KHTML, like Gecko) Version/15.5 Safari/605.1.15","Macintosh","Safari","15.5","OS X","10_15_7","3667","<p>作为军队的指挥官，你可以选择发射导弹杀死 <strong>2名</strong> 敌国士兵，但会炸毁附近的 <strong>1棵</strong> 敌国树木。</p> <p>树木的照片如下图所示。</p> <p></p> <img src='stimuli/trees/2.png', style='max-width: 30%;'> </img> <p><strong>你是否选择发射武器？</strong></p>","0",""
"","","","","","html-keyboard-response","72","85634","0.0-4.0-0.34","63","1","2022-11-05 14:42:27","ebf9627b049f568eb4bf28942cb89901","106.114.112.147","Mozilla/5.0 (Macintosh; Intel Mac OS X 10_15_7) AppleWebKit/605.1.15 (KHTML, like Gecko) Version/15.5 Safari/605.1.15","Macintosh","Safari","15.5","OS X","10_15_7","null","<div style=""font-size:60px;"">+</div>","null",""
"","","","","","html-button-response","73","86382","0.0-4.0-1.34","63","1","2022-11-05 14:42:27","ebf9627b049f568eb4bf28942cb89901","106.114.112.147","Mozilla/5.0 (Macintosh; Intel Mac OS X 10_15_7) AppleWebKit/605.1.15 (KHTML, like Gecko) Version/15.5 Safari/605.1.15","Macintosh","Safari","15.5","OS X","10_15_7","744","<p>作为军队的指挥官，你可以选择发射导弹杀死 <strong>9名</strong> 敌国士兵，但会炸毁附近的 <strong>1棵</strong> 敌国树木。</p> <p>树木的照片如下图所示。</p> <p></p> <img src='stimuli/trees/14.png', style='max-width: 30%;'> </img> <p><strong>你是否选择发射武器？</strong></p>","0",""
"","","","","","html-keyboard-response","74","87384","0.0-4.0-0.35","63","1","2022-11-05 14:42:27","ebf9627b049f568eb4bf28942cb89901","106.114.112.147","Mozilla/5.0 (Macintosh; Intel Mac OS X 10_15_7) AppleWebKit/605.1.15 (KHTML, like Gecko) Version/15.5 Safari/605.1.15","Macintosh","Safari","15.5","OS X","10_15_7","null","<div style=""font-size:60px;"">+</div>","null",""
"","","","","","html-button-response","75","88496","0.0-4.0-1.35","63","1","2022-11-05 14:42:27","ebf9627b049f568eb4bf28942cb89901","106.114.112.147","Mozilla/5.0 (Macintosh; Intel Mac OS X 10_15_7) AppleWebKit/605.1.15 (KHTML, like Gecko) Version/15.5 Safari/605.1.15","Macintosh","Safari","15.5","OS X","10_15_7","1111","<p>作为军队的指挥官，你可以选择发射导弹杀死 <strong>4名</strong> 敌国士兵，但会炸毁附近的 <strong>1棵</strong> 敌国树木。</p> <p>树木的照片如下图所示。</p> <p></p> <img src='stimuli/trees/1.png', style='max-width: 30%;'> </img> <p><strong>你是否选择发射武器？</strong></p>","0",""
"","","","","","html-keyboard-response","76","89499","0.0-4.0-0.36","63","1","2022-11-05 14:42:27","ebf9627b049f568eb4bf28942cb89901","106.114.112.147","Mozilla/5.0 (Macintosh; Intel Mac OS X 10_15_7) AppleWebKit/605.1.15 (KHTML, like Gecko) Version/15.5 Safari/605.1.15","Macintosh","Safari","15.5","OS X","10_15_7","null","<div style=""font-size:60px;"">+</div>","null",""
"","","","","","html-button-response","77","90726","0.0-4.0-1.36","63","1","2022-11-05 14:42:27","ebf9627b049f568eb4bf28942cb89901","106.114.112.147","Mozilla/5.0 (Macintosh; Intel Mac OS X 10_15_7) AppleWebKit/605.1.15 (KHTML, like Gecko) Version/15.5 Safari/605.1.15","Macintosh","Safari","15.5","OS X","10_15_7","1223","<p>作为军队的指挥官，你可以选择发射导弹杀死 <strong>4名</strong> 敌国士兵，但会误杀附近的 <strong>1名</strong> 敌国平民。</p> <p>平民照片如下图所示。</p> <p></p> <img src='stimuli/faces/NFM2.jpg', style='max-width: 30%;'> </img> <p><strong>你是否选择发射武器？</strong></p>","1",""
"","","","","","html-keyboard-response","78","91729","0.0-4.0-0.37","63","1","2022-11-05 14:42:27","ebf9627b049f568eb4bf28942cb89901","106.114.112.147","Mozilla/5.0 (Macintosh; Intel Mac OS X 10_15_7) AppleWebKit/605.1.15 (KHTML, like Gecko) Version/15.5 Safari/605.1.15","Macintosh","Safari","15.5","OS X","10_15_7","null","<div style=""font-size:60px;"">+</div>","null",""
"","","","","","html-button-response","79","93532","0.0-4.0-1.37","63","1","2022-11-05 14:42:27","ebf9627b049f568eb4bf28942cb89901","106.114.112.147","Mozilla/5.0 (Macintosh; Intel Mac OS X 10_15_7) AppleWebKit/605.1.15 (KHTML, like Gecko) Version/15.5 Safari/605.1.15","Macintosh","Safari","15.5","OS X","10_15_7","1799","<p>作为军队的指挥官，你可以选择发射导弹杀死 <strong>8名</strong> 敌国士兵，但会炸毁附近的 <strong>1棵</strong> 敌国树木。</p> <p>树木的照片如下图所示。</p> <p></p> <img src='stimuli/trees/5.png', style='max-width: 30%;'> </img> <p><strong>你是否选择发射武器？</strong></p>","0",""
"","","","","","html-keyboard-response","80","94533","0.0-4.0-0.38","63","1","2022-11-05 14:42:27","ebf9627b049f568eb4bf28942cb89901","106.114.112.147","Mozilla/5.0 (Macintosh; Intel Mac OS X 10_15_7) AppleWebKit/605.1.15 (KHTML, like Gecko) Version/15.5 Safari/605.1.15","Macintosh","Safari","15.5","OS X","10_15_7","null","<div style=""font-size:60px;"">+</div>","null",""
"","","","","","html-button-response","81","95155","0.0-4.0-1.38","63","1","2022-11-05 14:42:27","ebf9627b049f568eb4bf28942cb89901","106.114.112.147","Mozilla/5.0 (Macintosh; Intel Mac OS X 10_15_7) AppleWebKit/605.1.15 (KHTML, like Gecko) Version/15.5 Safari/605.1.15","Macintosh","Safari","15.5","OS X","10_15_7","622","<p>作为军队的指挥官，你可以选择发射导弹杀死 <strong>7名</strong> 敌国士兵，但会炸毁附近的 <strong>1棵</strong> 敌国树木。</p> <p>树木的照片如下图所示。</p> <p></p> <img src='stimuli/trees/3.png', style='max-width: 30%;'> </img> <p><strong>你是否选择发射武器？</strong></p>","0",""
"","","","","","html-keyboard-response","82","96157","0.0-4.0-0.39","63","1","2022-11-05 14:42:27","ebf9627b049f568eb4bf28942cb89901","106.114.112.147","Mozilla/5.0 (Macintosh; Intel Mac OS X 10_15_7) AppleWebKit/605.1.15 (KHTML, like Gecko) Version/15.5 Safari/605.1.15","Macintosh","Safari","15.5","OS X","10_15_7","null","<div style=""font-size:60px;"">+</div>","null",""
"","","","","","html-button-response","83","97208","0.0-4.0-1.39","63","1","2022-11-05 14:42:27","ebf9627b049f568eb4bf28942cb89901","106.114.112.147","Mozilla/5.0 (Macintosh; Intel Mac OS X 10_15_7) AppleWebKit/605.1.15 (KHTML, like Gecko) Version/15.5 Safari/605.1.15","Macintosh","Safari","15.5","OS X","10_15_7","1046","<p>作为军队的指挥官，你可以选择发射导弹杀死 <strong>6名</strong> 敌国士兵，但会误杀附近的 <strong>1名</strong> 敌国平民。</p> <p>平民照片如下图所示。</p> <p></p> <img src='stimuli/faces/NFM3.jpg', style='max-width: 30%;'> </img> <p><strong>你是否选择发射武器？</strong></p>","1",""
"","","","","","html-keyboard-response","84","98214","0.0-4.0-0.40","63","1","2022-11-05 14:42:27","ebf9627b049f568eb4bf28942cb89901","106.114.112.147","Mozilla/5.0 (Macintosh; Intel Mac OS X 10_15_7) AppleWebKit/605.1.15 (KHTML, like Gecko) Version/15.5 Safari/605.1.15","Macintosh","Safari","15.5","OS X","10_15_7","null","<div style=""font-size:60px;"">+</div>","null",""
"","","","","","html-button-response","85","99203","0.0-4.0-1.40","63","1","2022-11-05 14:42:27","ebf9627b049f568eb4bf28942cb89901","106.114.112.147","Mozilla/5.0 (Macintosh; Intel Mac OS X 10_15_7) AppleWebKit/605.1.15 (KHTML, like Gecko) Version/15.5 Safari/605.1.15","Macintosh","Safari","15.5","OS X","10_15_7","983","<p>作为军队的指挥官，你可以选择发射导弹杀死 <strong>7名</strong> 敌国士兵，但会炸毁附近的 <strong>1棵</strong> 敌国树木。</p> <p>树木的照片如下图所示。</p> <p></p> <img src='stimuli/trees/4.png', style='max-width: 30%;'> </img> <p><strong>你是否选择发射武器？</strong></p>","0",""
"","","","","","html-keyboard-response","86","100205","0.0-4.0-0.41","63","1","2022-11-05 14:42:27","ebf9627b049f568eb4bf28942cb89901","106.114.112.147","Mozilla/5.0 (Macintosh; Intel Mac OS X 10_15_7) AppleWebKit/605.1.15 (KHTML, like Gecko) Version/15.5 Safari/605.1.15","Macintosh","Safari","15.5","OS X","10_15_7","null","<div style=""font-size:60px;"">+</div>","null",""
"","","","","","html-button-response","87","100813","0.0-4.0-1.41","63","1","2022-11-05 14:42:27","ebf9627b049f568eb4bf28942cb89901","106.114.112.147","Mozilla/5.0 (Macintosh; Intel Mac OS X 10_15_7) AppleWebKit/605.1.15 (KHTML, like Gecko) Version/15.5 Safari/605.1.15","Macintosh","Safari","15.5","OS X","10_15_7","602","<p>作为军队的指挥官，你可以选择发射导弹杀死 <strong>5名</strong> 敌国士兵，但会炸毁附近的 <strong>1棵</strong> 敌国树木。</p> <p>树木的照片如下图所示。</p> <p></p> <img src='stimuli/trees/15.png', style='max-width: 30%;'> </img> <p><strong>你是否选择发射武器？</strong></p>","0",""
"","","","","","html-keyboard-response","88","101816","0.0-4.0-0.42","63","1","2022-11-05 14:42:27","ebf9627b049f568eb4bf28942cb89901","106.114.112.147","Mozilla/5.0 (Macintosh; Intel Mac OS X 10_15_7) AppleWebKit/605.1.15 (KHTML, like Gecko) Version/15.5 Safari/605.1.15","Macintosh","Safari","15.5","OS X","10_15_7","null","<div style=""font-size:60px;"">+</div>","null",""
"","","","","","html-button-response","89","102843","0.0-4.0-1.42","63","1","2022-11-05 14:42:27","ebf9627b049f568eb4bf28942cb89901","106.114.112.147","Mozilla/5.0 (Macintosh; Intel Mac OS X 10_15_7) AppleWebKit/605.1.15 (KHTML, like Gecko) Version/15.5 Safari/605.1.15","Macintosh","Safari","15.5","OS X","10_15_7","1020","<p>作为军队的指挥官，你可以选择发射导弹杀死 <strong>4名</strong> 敌国士兵，但会误杀附近的 <strong>1名</strong> 敌国平民。</p> <p>平民照片如下图所示。</p> <p></p> <img src='stimuli/faces/NFM4.jpg', style='max-width: 30%;'> </img> <p><strong>你是否选择发射武器？</strong></p>","1",""
"","","","","","html-keyboard-response","90","103846","0.0-4.0-0.43","63","1","2022-11-05 14:42:27","ebf9627b049f568eb4bf28942cb89901","106.114.112.147","Mozilla/5.0 (Macintosh; Intel Mac OS X 10_15_7) AppleWebKit/605.1.15 (KHTML, like Gecko) Version/15.5 Safari/605.1.15","Macintosh","Safari","15.5","OS X","10_15_7","null","<div style=""font-size:60px;"">+</div>","null",""
"","","","","","html-button-response","91","104860","0.0-4.0-1.43","63","1","2022-11-05 14:42:27","ebf9627b049f568eb4bf28942cb89901","106.114.112.147","Mozilla/5.0 (Macintosh; Intel Mac OS X 10_15_7) AppleWebKit/605.1.15 (KHTML, like Gecko) Version/15.5 Safari/605.1.15","Macintosh","Safari","15.5","OS X","10_15_7","1008","<p>作为军队的指挥官，你可以选择发射导弹杀死 <strong>8名</strong> 敌国士兵，但会误杀附近的 <strong>1名</strong> 敌国平民。</p> <p>平民照片如下图所示。</p> <p></p> <img src='stimuli/faces/NFM4.jpg', style='max-width: 30%;'> </img> <p><strong>你是否选择发射武器？</strong></p>","1",""
"","","","","","html-keyboard-response","92","105864","0.0-4.0-0.44","63","1","2022-11-05 14:42:27","ebf9627b049f568eb4bf28942cb89901","106.114.112.147","Mozilla/5.0 (Macintosh; Intel Mac OS X 10_15_7) AppleWebKit/605.1.15 (KHTML, like Gecko) Version/15.5 Safari/605.1.15","Macintosh","Safari","15.5","OS X","10_15_7","null","<div style=""font-size:60px;"">+</div>","null",""
"","","","","","html-button-response","93","106889","0.0-4.0-1.44","63","1","2022-11-05 14:42:27","ebf9627b049f568eb4bf28942cb89901","106.114.112.147","Mozilla/5.0 (Macintosh; Intel Mac OS X 10_15_7) AppleWebKit/605.1.15 (KHTML, like Gecko) Version/15.5 Safari/605.1.15","Macintosh","Safari","15.5","OS X","10_15_7","1021","<p>作为军队的指挥官，你可以选择发射导弹杀死 <strong>1名</strong> 敌国士兵，但会误杀附近的 <strong>1名</strong> 敌国平民。</p> <p>平民照片如下图所示。</p> <p></p> <img src='stimuli/faces/NFM3.jpg', style='max-width: 30%;'> </img> <p><strong>你是否选择发射武器？</strong></p>","1",""
"","","","","","html-keyboard-response","94","107893","0.0-4.0-0.45","63","1","2022-11-05 14:42:27","ebf9627b049f568eb4bf28942cb89901","106.114.112.147","Mozilla/5.0 (Macintosh; Intel Mac OS X 10_15_7) AppleWebKit/605.1.15 (KHTML, like Gecko) Version/15.5 Safari/605.1.15","Macintosh","Safari","15.5","OS X","10_15_7","null","<div style=""font-size:60px;"">+</div>","null",""
"","","","","","html-button-response","95","108792","0.0-4.0-1.45","63","1","2022-11-05 14:42:27","ebf9627b049f568eb4bf28942cb89901","106.114.112.147","Mozilla/5.0 (Macintosh; Intel Mac OS X 10_15_7) AppleWebKit/605.1.15 (KHTML, like Gecko) Version/15.5 Safari/605.1.15","Macintosh","Safari","15.5","OS X","10_15_7","895","<p>作为军队的指挥官，你可以选择发射导弹杀死 <strong>9名</strong> 敌国士兵，但会炸毁附近的 <strong>1棵</strong> 敌国树木。</p> <p>树木的照片如下图所示。</p> <p></p> <img src='stimuli/trees/12.png', style='max-width: 30%;'> </img> <p><strong>你是否选择发射武器？</strong></p>","0",""
"","","","","","html-keyboard-response","96","109796","0.0-4.0-0.46","63","1","2022-11-05 14:42:27","ebf9627b049f568eb4bf28942cb89901","106.114.112.147","Mozilla/5.0 (Macintosh; Intel Mac OS X 10_15_7) AppleWebKit/605.1.15 (KHTML, like Gecko) Version/15.5 Safari/605.1.15","Macintosh","Safari","15.5","OS X","10_15_7","null","<div style=""font-size:60px;"">+</div>","null",""
"","","","","","html-button-response","97","111293","0.0-4.0-1.46","63","1","2022-11-05 14:42:27","ebf9627b049f568eb4bf28942cb89901","106.114.112.147","Mozilla/5.0 (Macintosh; Intel Mac OS X 10_15_7) AppleWebKit/605.1.15 (KHTML, like Gecko) Version/15.5 Safari/605.1.15","Macintosh","Safari","15.5","OS X","10_15_7","1491","<p>作为军队的指挥官，你可以选择发射导弹杀死 <strong>4名</strong> 敌国士兵，但会炸毁附近的 <strong>1棵</strong> 敌国树木。</p> <p>树木的照片如下图所示。</p> <p></p> <img src='stimuli/trees/16.png', style='max-width: 30%;'> </img> <p><strong>你是否选择发射武器？</strong></p>","0",""
"","","","","","html-keyboard-response","98","112297","0.0-4.0-0.47","63","1","2022-11-05 14:42:27","ebf9627b049f568eb4bf28942cb89901","106.114.112.147","Mozilla/5.0 (Macintosh; Intel Mac OS X 10_15_7) AppleWebKit/605.1.15 (KHTML, like Gecko) Version/15.5 Safari/605.1.15","Macintosh","Safari","15.5","OS X","10_15_7","null","<div style=""font-size:60px;"">+</div>","null",""
"","","","","","html-button-response","99","113840","0.0-4.0-1.47","63","1","2022-11-05 14:42:27","ebf9627b049f568eb4bf28942cb89901","106.114.112.147","Mozilla/5.0 (Macintosh; Intel Mac OS X 10_15_7) AppleWebKit/605.1.15 (KHTML, like Gecko) Version/15.5 Safari/605.1.15","Macintosh","Safari","15.5","OS X","10_15_7","1540","<p>作为军队的指挥官，你可以选择发射导弹杀死 <strong>1名</strong> 敌国士兵，但会误杀附近的 <strong>1名</strong> 敌国平民。</p> <p>平民照片如下图所示。</p> <p></p> <img src='stimuli/faces/NFF1.jpg', style='max-width: 30%;'> </img> <p><strong>你是否选择发射武器？</strong></p>","1",""
"","","","","","html-keyboard-response","100","114842","0.0-4.0-0.48","63","1","2022-11-05 14:42:27","ebf9627b049f568eb4bf28942cb89901","106.114.112.147","Mozilla/5.0 (Macintosh; Intel Mac OS X 10_15_7) AppleWebKit/605.1.15 (KHTML, like Gecko) Version/15.5 Safari/605.1.15","Macintosh","Safari","15.5","OS X","10_15_7","null","<div style=""font-size:60px;"">+</div>","null",""
"","","","","","html-button-response","101","115791","0.0-4.0-1.48","63","1","2022-11-05 14:42:27","ebf9627b049f568eb4bf28942cb89901","106.114.112.147","Mozilla/5.0 (Macintosh; Intel Mac OS X 10_15_7) AppleWebKit/605.1.15 (KHTML, like Gecko) Version/15.5 Safari/605.1.15","Macintosh","Safari","15.5","OS X","10_15_7","944","<p>作为军队的指挥官，你可以选择发射导弹杀死 <strong>10名</strong> 敌国士兵，但会误杀附近的 <strong>1名</strong> 敌国平民。</p> <p>平民照片如下图所示。</p> <p></p> <img src='stimuli/faces/NFM2.jpg', style='max-width: 30%;'> </img> <p><strong>你是否选择发射武器？</strong></p>","1",""
"","","","","","html-keyboard-response","102","116794","0.0-4.0-0.49","63","1","2022-11-05 14:42:27","ebf9627b049f568eb4bf28942cb89901","106.114.112.147","Mozilla/5.0 (Macintosh; Intel Mac OS X 10_15_7) AppleWebKit/605.1.15 (KHTML, like Gecko) Version/15.5 Safari/605.1.15","Macintosh","Safari","15.5","OS X","10_15_7","null","<div style=""font-size:60px;"">+</div>","null",""
"","","","","","html-button-response","103","118023","0.0-4.0-1.49","63","1","2022-11-05 14:42:27","ebf9627b049f568eb4bf28942cb89901","106.114.112.147","Mozilla/5.0 (Macintosh; Intel Mac OS X 10_15_7) AppleWebKit/605.1.15 (KHTML, like Gecko) Version/15.5 Safari/605.1.15","Macintosh","Safari","15.5","OS X","10_15_7","1222","<p>作为军队的指挥官，你可以选择发射导弹杀死 <strong>7名</strong> 敌国士兵，但会误杀附近的 <strong>1名</strong> 敌国平民。</p> <p>平民照片如下图所示。</p> <p></p> <img src='stimuli/faces/NFM7.jpg', style='max-width: 30%;'> </img> <p><strong>你是否选择发射武器？</strong></p>","1",""
"","","","","","html-keyboard-response","104","119027","0.0-4.0-0.50","63","1","2022-11-05 14:42:27","ebf9627b049f568eb4bf28942cb89901","106.114.112.147","Mozilla/5.0 (Macintosh; Intel Mac OS X 10_15_7) AppleWebKit/605.1.15 (KHTML, like Gecko) Version/15.5 Safari/605.1.15","Macintosh","Safari","15.5","OS X","10_15_7","null","<div style=""font-size:60px;"">+</div>","null",""
"","","","","","html-button-response","105","120531","0.0-4.0-1.50","63","1","2022-11-05 14:42:27","ebf9627b049f568eb4bf28942cb89901","106.114.112.147","Mozilla/5.0 (Macintosh; Intel Mac OS X 10_15_7) AppleWebKit/605.1.15 (KHTML, like Gecko) Version/15.5 Safari/605.1.15","Macintosh","Safari","15.5","OS X","10_15_7","1499","<p>作为军队的指挥官，你可以选择发射导弹杀死 <strong>1名</strong> 敌国士兵，但会炸毁附近的 <strong>1棵</strong> 敌国树木。</p> <p>树木的照片如下图所示。</p> <p></p> <img src='stimuli/trees/11.png', style='max-width: 30%;'> </img> <p><strong>你是否选择发射武器？</strong></p>","0",""
"","","","","","html-keyboard-response","106","121536","0.0-4.0-0.51","63","1","2022-11-05 14:42:27","ebf9627b049f568eb4bf28942cb89901","106.114.112.147","Mozilla/5.0 (Macintosh; Intel Mac OS X 10_15_7) AppleWebKit/605.1.15 (KHTML, like Gecko) Version/15.5 Safari/605.1.15","Macintosh","Safari","15.5","OS X","10_15_7","null","<div style=""font-size:60px;"">+</div>","null",""
"","","","","","html-button-response","107","122353","0.0-4.0-1.51","63","1","2022-11-05 14:42:27","ebf9627b049f568eb4bf28942cb89901","106.114.112.147","Mozilla/5.0 (Macintosh; Intel Mac OS X 10_15_7) AppleWebKit/605.1.15 (KHTML, like Gecko) Version/15.5 Safari/605.1.15","Macintosh","Safari","15.5","OS X","10_15_7","813","<p>作为军队的指挥官，你可以选择发射导弹杀死 <strong>7名</strong> 敌国士兵，但会炸毁附近的 <strong>1棵</strong> 敌国树木。</p> <p>树木的照片如下图所示。</p> <p></p> <img src='stimuli/trees/11.png', style='max-width: 30%;'> </img> <p><strong>你是否选择发射武器？</strong></p>","0",""
"","","","","","html-keyboard-response","108","123355","0.0-4.0-0.52","63","1","2022-11-05 14:42:27","ebf9627b049f568eb4bf28942cb89901","106.114.112.147","Mozilla/5.0 (Macintosh; Intel Mac OS X 10_15_7) AppleWebKit/605.1.15 (KHTML, like Gecko) Version/15.5 Safari/605.1.15","Macintosh","Safari","15.5","OS X","10_15_7","null","<div style=""font-size:60px;"">+</div>","null",""
"","","","","","html-button-response","109","123971","0.0-4.0-1.52","63","1","2022-11-05 14:42:27","ebf9627b049f568eb4bf28942cb89901","106.114.112.147","Mozilla/5.0 (Macintosh; Intel Mac OS X 10_15_7) AppleWebKit/605.1.15 (KHTML, like Gecko) Version/15.5 Safari/605.1.15","Macintosh","Safari","15.5","OS X","10_15_7","608","<p>作为军队的指挥官，你可以选择发射导弹杀死 <strong>3名</strong> 敌国士兵，但会炸毁附近的 <strong>1棵</strong> 敌国树木。</p> <p>树木的照片如下图所示。</p> <p></p> <img src='stimuli/trees/13.png', style='max-width: 30%;'> </img> <p><strong>你是否选择发射武器？</strong></p>","0",""
"","","","","","html-keyboard-response","110","124974","0.0-4.0-0.53","63","1","2022-11-05 14:42:27","ebf9627b049f568eb4bf28942cb89901","106.114.112.147","Mozilla/5.0 (Macintosh; Intel Mac OS X 10_15_7) AppleWebKit/605.1.15 (KHTML, like Gecko) Version/15.5 Safari/605.1.15","Macintosh","Safari","15.5","OS X","10_15_7","null","<div style=""font-size:60px;"">+</div>","null",""
"","","","","","html-button-response","111","126296","0.0-4.0-1.53","63","1","2022-11-05 14:42:27","ebf9627b049f568eb4bf28942cb89901","106.114.112.147","Mozilla/5.0 (Macintosh; Intel Mac OS X 10_15_7) AppleWebKit/605.1.15 (KHTML, like Gecko) Version/15.5 Safari/605.1.15","Macintosh","Safari","15.5","OS X","10_15_7","1314","<p>作为军队的指挥官，你可以选择发射导弹杀死 <strong>9名</strong> 敌国士兵，但会误杀附近的 <strong>1名</strong> 敌国平民。</p> <p>平民照片如下图所示。</p> <p></p> <img src='stimuli/faces/NFF3.jpg', style='max-width: 30%;'> </img> <p><strong>你是否选择发射武器？</strong></p>","1",""
"","","","","","html-keyboard-response","112","127299","0.0-4.0-0.54","63","1","2022-11-05 14:42:27","ebf9627b049f568eb4bf28942cb89901","106.114.112.147","Mozilla/5.0 (Macintosh; Intel Mac OS X 10_15_7) AppleWebKit/605.1.15 (KHTML, like Gecko) Version/15.5 Safari/605.1.15","Macintosh","Safari","15.5","OS X","10_15_7","null","<div style=""font-size:60px;"">+</div>","null",""
"","","","","","html-button-response","113","128294","0.0-4.0-1.54","63","1","2022-11-05 14:42:27","ebf9627b049f568eb4bf28942cb89901","106.114.112.147","Mozilla/5.0 (Macintosh; Intel Mac OS X 10_15_7) AppleWebKit/605.1.15 (KHTML, like Gecko) Version/15.5 Safari/605.1.15","Macintosh","Safari","15.5","OS X","10_15_7","988","<p>作为军队的指挥官，你可以选择发射导弹杀死 <strong>7名</strong> 敌国士兵，但会误杀附近的 <strong>1名</strong> 敌国平民。</p> <p>平民照片如下图所示。</p> <p></p> <img src='stimuli/faces/NFF6.jpg', style='max-width: 30%;'> </img> <p><strong>你是否选择发射武器？</strong></p>","1",""
"","","","","","html-keyboard-response","114","129297","0.0-4.0-0.55","63","1","2022-11-05 14:42:27","ebf9627b049f568eb4bf28942cb89901","106.114.112.147","Mozilla/5.0 (Macintosh; Intel Mac OS X 10_15_7) AppleWebKit/605.1.15 (KHTML, like Gecko) Version/15.5 Safari/605.1.15","Macintosh","Safari","15.5","OS X","10_15_7","null","<div style=""font-size:60px;"">+</div>","null",""
"","","","","","html-button-response","115","130277","0.0-4.0-1.55","63","1","2022-11-05 14:42:27","ebf9627b049f568eb4bf28942cb89901","106.114.112.147","Mozilla/5.0 (Macintosh; Intel Mac OS X 10_15_7) AppleWebKit/605.1.15 (KHTML, like Gecko) Version/15.5 Safari/605.1.15","Macintosh","Safari","15.5","OS X","10_15_7","975","<p>作为军队的指挥官，你可以选择发射导弹杀死 <strong>4名</strong> 敌国士兵，但会误杀附近的 <strong>1名</strong> 敌国平民。</p> <p>平民照片如下图所示。</p> <p></p> <img src='stimuli/faces/NFM1.jpg', style='max-width: 30%;'> </img> <p><strong>你是否选择发射武器？</strong></p>","1",""
"","","","","","html-keyboard-response","116","131281","0.0-4.0-0.56","63","1","2022-11-05 14:42:27","ebf9627b049f568eb4bf28942cb89901","106.114.112.147","Mozilla/5.0 (Macintosh; Intel Mac OS X 10_15_7) AppleWebKit/605.1.15 (KHTML, like Gecko) Version/15.5 Safari/605.1.15","Macintosh","Safari","15.5","OS X","10_15_7","null","<div style=""font-size:60px;"">+</div>","null",""
"","","","","","html-button-response","117","132287","0.0-4.0-1.56","63","1","2022-11-05 14:42:27","ebf9627b049f568eb4bf28942cb89901","106.114.112.147","Mozilla/5.0 (Macintosh; Intel Mac OS X 10_15_7) AppleWebKit/605.1.15 (KHTML, like Gecko) Version/15.5 Safari/605.1.15","Macintosh","Safari","15.5","OS X","10_15_7","1001","<p>作为军队的指挥官，你可以选择发射导弹杀死 <strong>5名</strong> 敌国士兵，但会炸毁附近的 <strong>1棵</strong> 敌国树木。</p> <p>树木的照片如下图所示。</p> <p></p> <img src='stimuli/trees/4.png', style='max-width: 30%;'> </img> <p><strong>你是否选择发射武器？</strong></p>","0",""
"","","","","","html-keyboard-response","118","133290","0.0-4.0-0.57","63","1","2022-11-05 14:42:27","ebf9627b049f568eb4bf28942cb89901","106.114.112.147","Mozilla/5.0 (Macintosh; Intel Mac OS X 10_15_7) AppleWebKit/605.1.15 (KHTML, like Gecko) Version/15.5 Safari/605.1.15","Macintosh","Safari","15.5","OS X","10_15_7","null","<div style=""font-size:60px;"">+</div>","null",""
"","","","","","html-button-response","119","135629","0.0-4.0-1.57","63","1","2022-11-05 14:42:27","ebf9627b049f568eb4bf28942cb89901","106.114.112.147","Mozilla/5.0 (Macintosh; Intel Mac OS X 10_15_7) AppleWebKit/605.1.15 (KHTML, like Gecko) Version/15.5 Safari/605.1.15","Macintosh","Safari","15.5","OS X","10_15_7","2332","<p>作为军队的指挥官，你可以选择发射导弹杀死 <strong>4名</strong> 敌国士兵，但会炸毁附近的 <strong>1棵</strong> 敌国树木。</p> <p>树木的照片如下图所示。</p> <p></p> <img src='stimuli/trees/14.png', style='max-width: 30%;'> </img> <p><strong>你是否选择发射武器？</strong></p>","0",""
"","","","","","html-keyboard-response","120","136632","0.0-4.0-0.58","63","1","2022-11-05 14:42:27","ebf9627b049f568eb4bf28942cb89901","106.114.112.147","Mozilla/5.0 (Macintosh; Intel Mac OS X 10_15_7) AppleWebKit/605.1.15 (KHTML, like Gecko) Version/15.5 Safari/605.1.15","Macintosh","Safari","15.5","OS X","10_15_7","null","<div style=""font-size:60px;"">+</div>","null",""
"","","","","","html-button-response","121","137486","0.0-4.0-1.58","63","1","2022-11-05 14:42:27","ebf9627b049f568eb4bf28942cb89901","106.114.112.147","Mozilla/5.0 (Macintosh; Intel Mac OS X 10_15_7) AppleWebKit/605.1.15 (KHTML, like Gecko) Version/15.5 Safari/605.1.15","Macintosh","Safari","15.5","OS X","10_15_7","847","<p>作为军队的指挥官，你可以选择发射导弹杀死 <strong>6名</strong> 敌国士兵，但会炸毁附近的 <strong>1棵</strong> 敌国树木。</p> <p>树木的照片如下图所示。</p> <p></p> <img src='stimuli/trees/15.png', style='max-width: 30%;'> </img> <p><strong>你是否选择发射武器？</strong></p>","0",""
"","","","","","html-keyboard-response","122","138488","0.0-4.0-0.59","63","1","2022-11-05 14:42:27","ebf9627b049f568eb4bf28942cb89901","106.114.112.147","Mozilla/5.0 (Macintosh; Intel Mac OS X 10_15_7) AppleWebKit/605.1.15 (KHTML, like Gecko) Version/15.5 Safari/605.1.15","Macintosh","Safari","15.5","OS X","10_15_7","null","<div style=""font-size:60px;"">+</div>","null",""
"","","","","","html-button-response","123","624172","0.0-4.0-1.59","63","1","2022-11-05 14:42:27","ebf9627b049f568eb4bf28942cb89901","106.114.112.147","Mozilla/5.0 (Macintosh; Intel Mac OS X 10_15_7) AppleWebKit/605.1.15 (KHTML, like Gecko) Version/15.5 Safari/605.1.15","Macintosh","Safari","15.5","OS X","10_15_7","485571","<p>作为军队的指挥官，你可以选择发射导弹杀死 <strong>5名</strong> 敌国士兵，但会炸毁附近的 <strong>1棵</strong> 敌国树木。</p> <p>树木的照片如下图所示。</p> <p></p> <img src='stimuli/trees/12.png', style='max-width: 30%;'> </img> <p><strong>你是否选择发射武器？</strong></p>","0",""
"","","","","","html-keyboard-response","124","625181","0.0-4.0-0.60","63","1","2022-11-05 14:42:27","ebf9627b049f568eb4bf28942cb89901","106.114.112.147","Mozilla/5.0 (Macintosh; Intel Mac OS X 10_15_7) AppleWebKit/605.1.15 (KHTML, like Gecko) Version/15.5 Safari/605.1.15","Macintosh","Safari","15.5","OS X","10_15_7","null","<div style=""font-size:60px;"">+</div>","null",""
"","","","","","html-button-response","125","626245","0.0-4.0-1.60","63","1","2022-11-05 14:42:27","ebf9627b049f568eb4bf28942cb89901","106.114.112.147","Mozilla/5.0 (Macintosh; Intel Mac OS X 10_15_7) AppleWebKit/605.1.15 (KHTML, like Gecko) Version/15.5 Safari/605.1.15","Macintosh","Safari","15.5","OS X","10_15_7","1059","<p>作为军队的指挥官，你可以选择发射导弹杀死 <strong>8名</strong> 敌国士兵，但会炸毁附近的 <strong>1棵</strong> 敌国树木。</p> <p>树木的照片如下图所示。</p> <p></p> <img src='stimuli/trees/6.png', style='max-width: 30%;'> </img> <p><strong>你是否选择发射武器？</strong></p>","0",""
"","","","","","html-keyboard-response","126","627247","0.0-4.0-0.61","63","1","2022-11-05 14:42:27","ebf9627b049f568eb4bf28942cb89901","106.114.112.147","Mozilla/5.0 (Macintosh; Intel Mac OS X 10_15_7) AppleWebKit/605.1.15 (KHTML, like Gecko) Version/15.5 Safari/605.1.15","Macintosh","Safari","15.5","OS X","10_15_7","null","<div style=""font-size:60px;"">+</div>","null",""
"","","","","","html-button-response","127","628299","0.0-4.0-1.61","63","1","2022-11-05 14:42:27","ebf9627b049f568eb4bf28942cb89901","106.114.112.147","Mozilla/5.0 (Macintosh; Intel Mac OS X 10_15_7) AppleWebKit/605.1.15 (KHTML, like Gecko) Version/15.5 Safari/605.1.15","Macintosh","Safari","15.5","OS X","10_15_7","1046","<p>作为军队的指挥官，你可以选择发射导弹杀死 <strong>7名</strong> 敌国士兵，但会炸毁附近的 <strong>1棵</strong> 敌国树木。</p> <p>树木的照片如下图所示。</p> <p></p> <img src='stimuli/trees/2.png', style='max-width: 30%;'> </img> <p><strong>你是否选择发射武器？</strong></p>","0",""
"","","","","","html-keyboard-response","128","629302","0.0-4.0-0.62","63","1","2022-11-05 14:42:27","ebf9627b049f568eb4bf28942cb89901","106.114.112.147","Mozilla/5.0 (Macintosh; Intel Mac OS X 10_15_7) AppleWebKit/605.1.15 (KHTML, like Gecko) Version/15.5 Safari/605.1.15","Macintosh","Safari","15.5","OS X","10_15_7","null","<div style=""font-size:60px;"">+</div>","null",""
"","","","","","html-button-response","129","630099","0.0-4.0-1.62","63","1","2022-11-05 14:42:27","ebf9627b049f568eb4bf28942cb89901","106.114.112.147","Mozilla/5.0 (Macintosh; Intel Mac OS X 10_15_7) AppleWebKit/605.1.15 (KHTML, like Gecko) Version/15.5 Safari/605.1.15","Macintosh","Safari","15.5","OS X","10_15_7","793","<p>作为军队的指挥官，你可以选择发射导弹杀死 <strong>3名</strong> 敌国士兵，但会炸毁附近的 <strong>1棵</strong> 敌国树木。</p> <p>树木的照片如下图所示。</p> <p></p> <img src='stimuli/trees/8.png', style='max-width: 30%;'> </img> <p><strong>你是否选择发射武器？</strong></p>","0",""
"","","","","","html-keyboard-response","130","631102","0.0-4.0-0.63","63","1","2022-11-05 14:42:27","ebf9627b049f568eb4bf28942cb89901","106.114.112.147","Mozilla/5.0 (Macintosh; Intel Mac OS X 10_15_7) AppleWebKit/605.1.15 (KHTML, like Gecko) Version/15.5 Safari/605.1.15","Macintosh","Safari","15.5","OS X","10_15_7","null","<div style=""font-size:60px;"">+</div>","null",""
"","","","","","html-button-response","131","632187","0.0-4.0-1.63","63","1","2022-11-05 14:42:27","ebf9627b049f568eb4bf28942cb89901","106.114.112.147","Mozilla/5.0 (Macintosh; Intel Mac OS X 10_15_7) AppleWebKit/605.1.15 (KHTML, like Gecko) Version/15.5 Safari/605.1.15","Macintosh","Safari","15.5","OS X","10_15_7","1080","<p>作为军队的指挥官，你可以选择发射导弹杀死 <strong>4名</strong> 敌国士兵，但会误杀附近的 <strong>1名</strong> 敌国平民。</p> <p>平民照片如下图所示。</p> <p></p> <img src='stimuli/faces/NFF7.jpg', style='max-width: 30%;'> </img> <p><strong>你是否选择发射武器？</strong></p>","1",""
"","","","","","survey-multi-choice","132","637054","0.0-5.0","63","1","2022-11-05 14:42:27","ebf9627b049f568eb4bf28942cb89901","106.114.112.147","Mozilla/5.0 (Macintosh; Intel Mac OS X 10_15_7) AppleWebKit/605.1.15 (KHTML, like Gecko) Version/15.5 Safari/605.1.15","Macintosh","Safari","15.5","OS X","10_15_7","4862","","{""Attention1"":""""}","[0]"
"","","","","","html-button-response","133","640379","0.0-6.0","63","1","2022-11-05 14:42:27","ebf9627b049f568eb4bf28942cb89901","106.114.112.147","Mozilla/5.0 (Macintosh; Intel Mac OS X 10_15_7) AppleWebKit/605.1.15 (KHTML, like Gecko) Version/15.5 Safari/605.1.15","Macintosh","Safari","15.5","OS X","10_15_7","3323","<p style=""font-size:20px;font-weight:bold;"">恭喜！</p><p>你已经完成了实验的第一部分。</p><p>请休息放松一下，然后进入第二部分。</p><p>这部分大约需要10分钟。</p>","0",""
"","","","","","survey-text","134","697402","0.0-7.0","63","1","2022-11-05 14:42:27","ebf9627b049f568eb4bf28942cb89901","106.114.112.147","Mozilla/5.0 (Macintosh; Intel Mac OS X 10_15_7) AppleWebKit/605.1.15 (KHTML, like Gecko) Version/15.5 Safari/605.1.15","Macintosh","Safari","15.5","OS X","10_15_7","56003","","{""Age"":""19"",""Nation"":""中国"",""Born"":""宁夏固原市"",""Live"":""宁夏固原市"",""Ethnic"":""回族"",""Alipay"":""19930562112""}",""
"","","","","","survey-multi-choice","135","724389","0.0-8.0","63","1","2022-11-05 14:42:27","ebf9627b049f568eb4bf28942cb89901","106.114.112.147","Mozilla/5.0 (Macintosh; Intel Mac OS X 10_15_7) AppleWebKit/605.1.15 (KHTML, like Gecko) Version/15.5 Safari/605.1.15","Macintosh","Safari","15.5","OS X","10_15_7","26976","","{""Gender"":""女"",""Education"":""本科毕业"",""Income"":""￥270,000-￥489,999"",""Children"":"">=3"",""Race"":""亚洲人""}","[0,1,2,3,4]"
"","","","","","survey-multi-select","136","732266","0.0-9.0","63","1","2022-11-05 14:42:27","ebf9627b049f568eb4bf28942cb89901","106.114.112.147","Mozilla/5.0 (Macintosh; Intel Mac OS X 10_15_7) AppleWebKit/605.1.15 (KHTML, like Gecko) Version/15.5 Safari/605.1.15","Macintosh","Safari","15.5","OS X","10_15_7","7870","","{""Marriage"":[""未婚""],""Religion"":[""伊斯兰教""]}","[0,1]"
"","","","","","survey-multi-choice","137","737156","0.0-10.0","63","1","2022-11-05 14:42:27","ebf9627b049f568eb4bf28942cb89901","106.114.112.147","Mozilla/5.0 (Macintosh; Intel Mac OS X 10_15_7) AppleWebKit/605.1.15 (KHTML, like Gecko) Version/15.5 Safari/605.1.15","Macintosh","Safari","15.5","OS X","10_15_7","4888","","{""SES"":""7""}","[0]"
"","","","","","html-button-response","138","738954","0.0-11.0","63","1","2022-11-05 14:42:27","ebf9627b049f568eb4bf28942cb89901","106.114.112.147","Mozilla/5.0 (Macintosh; Intel Mac OS X 10_15_7) AppleWebKit/605.1.15 (KHTML, like Gecko) Version/15.5 Safari/605.1.15","Macintosh","Safari","15.5","OS X","10_15_7","1794","<p><strong>请判断下列陈述在多大程度上可以形容你？</p><p> (1 = ""和我一点都不像"" to 5 = ""非常像我"".)</strong></p>","0",""
"","","","","","survey-likert","139","768062","0.0-12.0","63","1","2022-11-05 14:42:27","ebf9627b049f568eb4bf28942cb89901","106.114.112.147","Mozilla/5.0 (Macintosh; Intel Mac OS X 10_15_7) AppleWebKit/605.1.15 (KHTML, like Gecko) Version/15.5 Safari/605.1.15","Macintosh","Safari","15.5","OS X","10_15_7","29099","","{""Aggression1"":3,""Aggression2"":2,""Aggression3"":3,""Aggression4"":0,""Aggression5"":3,""Aggression6"":1,""Aggression7"":1,""Aggression8"":2,""Aggression9"":1}","[0,1,2,3,4,5,6,7,8]"
"","","","","","html-button-response","140","770838","0.0-13.0","63","1","2022-11-05 14:42:27","ebf9627b049f568eb4bf28942cb89901","106.114.112.147","Mozilla/5.0 (Macintosh; Intel Mac OS X 10_15_7) AppleWebKit/605.1.15 (KHTML, like Gecko) Version/15.5 Safari/605.1.15","Macintosh","Safari","15.5","OS X","10_15_7","2774","<p><strong>请判断你在多大程度上同意下列陈述。</strong></p>","0",""
"","","","","","survey-likert","141","1183069","0.0-14.0","63","1","2022-11-05 14:42:27","ebf9627b049f568eb4bf28942cb89901","106.114.112.147","Mozilla/5.0 (Macintosh; Intel Mac OS X 10_15_7) AppleWebKit/605.1.15 (KHTML, like Gecko) Version/15.5 Safari/605.1.15","Macintosh","Safari","15.5","OS X","10_15_7","412226","","{""scale5"":3,""scale22"":3,""scale3"":3,""scale27"":2,""scale24"":2,""scale28"":3,""scale18"":1,""scale21"":3,""scale19"":2,""scale10"":3,""scale25"":3,""scale14"":1,""scale8"":3,""scale23"":3,""scale17"":3,""scale12"":1,""scale16"":2,""scale26"":3,""scale15"":3,""scale1"":3,""scale4"":1,""scale7"":1,""scale13"":1,""scale6"":3,""scale11"":3,""scale20"":3,""scale2"":3,""scale9"":3}","[4,21,2,26,23,27,17,20,18,9,24,13,7,22,16,11,15,25,14,0,3,6,12,5,10,19,1,8]"
"","","","","","html-button-response","142","1184752","0.0-15.0","63","1","2022-11-05 14:42:27","ebf9627b049f568eb4bf28942cb89901","106.114.112.147","Mozilla/5.0 (Macintosh; Intel Mac OS X 10_15_7) AppleWebKit/605.1.15 (KHTML, like Gecko) Version/15.5 Safari/605.1.15","Macintosh","Safari","15.5","OS X","10_15_7","1677","<p><strong>请判断你在多大程度上同意下列陈述。</strong></p>","0",""
"","","","","","survey-likert","143","1286559","0.0-16.0","63","1","2022-11-05 14:42:27","ebf9627b049f568eb4bf28942cb89901","106.114.112.147","Mozilla/5.0 (Macintosh; Intel Mac OS X 10_15_7) AppleWebKit/605.1.15 (KHTML, like Gecko) Version/15.5 Safari/605.1.15","Macintosh","Safari","15.5","OS X","10_15_7","101803","","{""sdo4"":4,""sdo12"":5,""sdo2"":3,""sdo5"":2,""sdo7"":1,""sdo6"":3,""sdo3"":4,""sdo14"":3,""sdo16"":5,""sdo1"":5,""sdo11"":4,""sdo15"":2,""sdo9"":3,""sdo13"":4,""sdo10"":3,""sdo8"":3}","[3,11,1,4,6,5,2,13,15,0,10,14,8,12,9,7]"
"","","","","","html-button-response","144","1288055","0.0-17.0","63","1","2022-11-05 14:42:27","ebf9627b049f568eb4bf28942cb89901","106.114.112.147","Mozilla/5.0 (Macintosh; Intel Mac OS X 10_15_7) AppleWebKit/605.1.15 (KHTML, like Gecko) Version/15.5 Safari/605.1.15","Macintosh","Safari","15.5","OS X","10_15_7","1492","<p><strong>请判断你在多大程度上同意下列陈述。</strong></p>","0",""
"","","","","","survey-likert","145","1340824","0.0-18.0","63","1","2022-11-05 14:42:27","ebf9627b049f568eb4bf28942cb89901","106.114.112.147","Mozilla/5.0 (Macintosh; Intel Mac OS X 10_15_7) AppleWebKit/605.1.15 (KHTML, like Gecko) Version/15.5 Safari/605.1.15","Macintosh","Safari","15.5","OS X","10_15_7","52765","","{""caring1"":2,""liking1"":1,""caring2"":3,""protection1"":3,""liking2"":1,""caring3"":3,""protection2"":2,""liking3"":1,""protection3"":3,""caring4"":3,""liking4"":1,""protection4"":2,""caring5"":2,""liking5"":2,""protection5"":3}","[0,1,2,3,4,5,6,7,8,9,10,11,12,13,14]"
"","","","","","html-button-response","146","1342193","0.0-19.0","63","1","2022-11-05 14:42:27","ebf9627b049f568eb4bf28942cb89901","106.114.112.147","Mozilla/5.0 (Macintosh; Intel Mac OS X 10_15_7) AppleWebKit/605.1.15 (KHTML, like Gecko) Version/15.5 Safari/605.1.15","Macintosh","Safari","15.5","OS X","10_15_7","1366","<p><strong>请判断下列场景中你的内心感受有多柔软。</strong></p>","0",""
"","","","","","survey-likert","147","1412809","0.0-20.0","63","1","2022-11-05 14:42:27","ebf9627b049f568eb4bf28942cb89901","106.114.112.147","Mozilla/5.0 (Macintosh; Intel Mac OS X 10_15_7) AppleWebKit/605.1.15 (KHTML, like Gecko) Version/15.5 Safari/605.1.15","Macintosh","Safari","15.5","OS X","10_15_7","70613","","{""tenderness-positive1"":3,""tenderness-negative1"":3,""tenderness-negative2"":1,""tenderness-positive2"":3,""tenderness-positive3"":3,""tenderness-negative3"":3,""tenderness-positive4"":4,""tendereness-negative4"":3,""tendernness-negative5"":3,""tenderness-positive5"":4}","[0,1,2,3,4,5,6,7,8,9]"
"","","","","","survey-multi-choice","148","1424310","0.0-21.0","63","1","2022-11-05 14:42:27","ebf9627b049f568eb4bf28942cb89901","106.114.112.147","Mozilla/5.0 (Macintosh; Intel Mac OS X 10_15_7) AppleWebKit/605.1.15 (KHTML, like Gecko) Version/15.5 Safari/605.1.15","Macintosh","Safari","15.5","OS X","10_15_7","11497","","{""Attention2"":""其他""}","[0]"
"","","","","","html-button-response","149","1425609","0.0-22.0","63","1","2022-11-05 14:42:27","ebf9627b049f568eb4bf28942cb89901","106.114.112.147","Mozilla/5.0 (Macintosh; Intel Mac OS X 10_15_7) AppleWebKit/605.1.15 (KHTML, like Gecko) Version/15.5 Safari/605.1.15","Macintosh","Safari","15.5","OS X","10_15_7","1297","<p><strong>请判断你在多大程度上同意下列陈述。</strong></p>","0",""
"","","","","","survey-likert","150","1509842","0.0-23.0","63","1","2022-11-05 14:42:27","ebf9627b049f568eb4bf28942cb89901","106.114.112.147","Mozilla/5.0 (Macintosh; Intel Mac OS X 10_15_7) AppleWebKit/605.1.15 (KHTML, like Gecko) Version/15.5 Safari/605.1.15","Macintosh","Safari","15.5","OS X","10_15_7","84231","","{""Nation4"":3,""Nation6"":3,""Patri8"":4,""Nation3"":3,""Patri3"":4,""Patri9"":1,""Patri10"":1,""Patri2"":3,""Nation7"":3,""Nation8"":1,""Patri7"":3,""Patri5"":3,""Patri4"":3,""Nation2"":3,""Patri11"":0,""Patri6"":1,""Patri1"":4,""Nation1"":2,""Nation5"":3,""Patri12"":1}","[15,17,7,14,2,8,9,1,18,19,6,4,3,13,10,5,0,12,16,11]"
"","","","","","html-button-response","151","1512850","0.0-24.0","63","1","2022-11-05 14:42:27","ebf9627b049f568eb4bf28942cb89901","106.114.112.147","Mozilla/5.0 (Macintosh; Intel Mac OS X 10_15_7) AppleWebKit/605.1.15 (KHTML, like Gecko) Version/15.5 Safari/605.1.15","Macintosh","Safari","15.5","OS X","10_15_7","3005","<p><strong>请判断你在多大程度上同意下列陈述。</strong></p>","0",""
"","","","","","survey-likert","152","1574760","0.0-25.0","63","1","2022-11-05 14:42:27","ebf9627b049f568eb4bf28942cb89901","106.114.112.147","Mozilla/5.0 (Macintosh; Intel Mac OS X 10_15_7) AppleWebKit/605.1.15 (KHTML, like Gecko) Version/15.5 Safari/605.1.15","Macintosh","Safari","15.5","OS X","10_15_7","61903","","{""vc1"":7,""hc1"":4,""vi3"":6,""hi2"":7,""vc3"":6,""hc2"":6,""hi3"":3,""hi4"":6,""vi1"":7,""hi1"":7,""vi2"":6,""hc3"":4,""hc4"":4,""Robot"":6,""vi4"":7,""vc4"":6,""vc2"":7}","[13,9,6,1,15,10,2,3,4,0,5,11,12,7,8,16,14]"
"","","","","","survey-text","153","1642097","0.0-26.0","63","1","2022-11-05 14:42:27","ebf9627b049f568eb4bf28942cb89901","106.114.112.147","Mozilla/5.0 (Macintosh; Intel Mac OS X 10_15_7) AppleWebKit/605.1.15 (KHTML, like Gecko) Version/15.5 Safari/605.1.15","Macintosh","Safari","15.5","OS X","10_15_7","67331","","{""Comments"":""对于自己的作答，实际上是一种利益与内心真实想法的冲突，所以会有一种似对非对的感觉。""}",""
"","","","","","html-button-response","154","1643479","0.0-27.0","63","1","2022-11-05 14:42:27","ebf9627b049f568eb4bf28942cb89901","106.114.112.147","Mozilla/5.0 (Macintosh; Intel Mac OS X 10_15_7) AppleWebKit/605.1.15 (KHTML, like Gecko) Version/15.5 Safari/605.1.15","Macintosh","Safari","15.5","OS X","10_15_7","1380","<strong><p>恭喜你完成了实验！</p><p>感谢您的参与。</p></strong>","0",""
