"success","timeout","failed_images","failed_audio","failed_video","trial_type","trial_index","time_elapsed","internal_node_id","run_id","condition","recorded_at","source_code_version","ip","user_agent","device","browser","browser_version","platform","platform_version","rt","stimulus","response","question_order"
"true","false","[]","[]","[]","preload","0","5981","0.0-0.0","21","1","2022-11-03 07:36:00","ebf9627b049f568eb4bf28942cb89901","223.104.50.14","Mozilla/5.0 (Windows NT 10.0; Win64; x64) AppleWebKit/537.36 (KHTML, like Gecko) Chrome/101.0.0.0 Safari/537.36","WebKit","Chrome","101.0.0.0","Windows","10.0","","","",""
"true","","","","","fullscreen","1","15143","0.0-1.0","21","1","2022-11-03 07:36:00","ebf9627b049f568eb4bf28942cb89901","223.104.50.14","Mozilla/5.0 (Windows NT 10.0; Win64; x64) AppleWebKit/537.36 (KHTML, like Gecko) Chrome/101.0.0.0 Safari/537.36","WebKit","Chrome","101.0.0.0","Windows","10.0","","","",""
"","","","","","html-button-response","2","56131","0.0-2.0","21","1","2022-11-03 07:36:00","ebf9627b049f568eb4bf28942cb89901","223.104.50.14","Mozilla/5.0 (Windows NT 10.0; Win64; x64) AppleWebKit/537.36 (KHTML, like Gecko) Chrome/101.0.0.0 Safari/537.36","WebKit","Chrome","101.0.0.0","Windows","10.0","40986","<p style=""font-size:20px;font-weight:bold;"">实验知情同意书</p><p style=""text-align:left;""><strong>实验名称：</strong>社会冲突研究</p><p style=""text-align:left;""><strong>主要研究者：</strong>韩晓春副教授（北京师范大学心理学部）</p><p style=""text-align:left;""><strong>联系方式：</strong>发送邮件至xiaochun.han@bnu.edu.cn</p><p style=""text-align:left;""><strong>研究目的：</strong>研究旨在了解人类面对群体冲突时的决策方式，以及相关的心理学特质。实验调查大约需要20分钟。</p><p style=""text-align:left;""><strong>实验流程：</strong>实验包含两部分。第一部分呈现一系列群体冲突场景，请你决定如何对这些冲突进行反应，大约需要10分钟完成。第二部分包含一系列人口统计学信息收集和心理学问卷，大约需要10分钟完成。</p><p style=""text-align:left;""><strong>参加及退出规则：</strong>参加本实验完全取决于您的个人意愿。在参与过程中，您可以随时退出，并且不用承担任何后果。</p><p style=""text-align:left;""><strong>隐私：</strong>本实验完全匿名进行，不会收集您的姓名或其他能够识别您身份的信息。实验中收集的作答仅用作科学研究使用，可能会在学术期刊/书籍上发表，或者用于教学，您的数据未来可能会和其他研究者或实验室分享，但您的个人身份不会被识别。</p><p style=""text-align:left;""><strong>实验报酬：</strong>实验完成后，您将获得15元人民币报酬，以感谢您的时间和努力。调查问卷中包含几道题目用以测验您作答时的认真度。只有完成全部实验，并且正确回答认真度测验的被试才能获得实验报酬。实验报酬将通过支付宝转账发放。</p><p style=""text-align:left;font-size:20px;""><strong>如果您同意以上实验知情同意书的内容，请点击'同意并且开始实验'按钮；否则请关闭浏览器界面，退出实验。</strong></p>","0",""
"","","","","","html-button-response","3","70231","0.0-3.0","21","1","2022-11-03 07:36:00","ebf9627b049f568eb4bf28942cb89901","223.104.50.14","Mozilla/5.0 (Windows NT 10.0; Win64; x64) AppleWebKit/537.36 (KHTML, like Gecko) Chrome/101.0.0.0 Safari/537.36","WebKit","Chrome","101.0.0.0","Windows","10.0","14097","<p ><strong>实验任务一：</strong></p><p>请想象你的国家与另一个国家发生了军事冲突。</p><p>你是国家军队的指挥官，你将如何在冲突中进行决策。</p><p>具体来说，作为军队指挥官，请你决定是否发射导弹进行打击。</p><p>接下来，你会面对一系列场景，请仔细阅读每个场景，然后进行决策。</p><p>这部分实验任务大约需要10分钟。</p><p><strong>实验过程中，请集中注意力。</strong></p>","0",""
"","","","","","html-keyboard-response","4","71241","0.0-4.0-0.0","21","1","2022-11-03 07:36:00","ebf9627b049f568eb4bf28942cb89901","223.104.50.14","Mozilla/5.0 (Windows NT 10.0; Win64; x64) AppleWebKit/537.36 (KHTML, like Gecko) Chrome/101.0.0.0 Safari/537.36","WebKit","Chrome","101.0.0.0","Windows","10.0","null","<div style=""font-size:60px;"">+</div>","null",""
"","","","","","html-button-response","5","82407","0.0-4.0-1.0","21","1","2022-11-03 07:36:00","ebf9627b049f568eb4bf28942cb89901","223.104.50.14","Mozilla/5.0 (Windows NT 10.0; Win64; x64) AppleWebKit/537.36 (KHTML, like Gecko) Chrome/101.0.0.0 Safari/537.36","WebKit","Chrome","101.0.0.0","Windows","10.0","11163","<p>作为军队的指挥官，你可以选择发射导弹杀死 <strong>6名</strong> 敌国士兵，但会误杀附近的 <strong>1名</strong> 敌国平民。</p> <p>平民照片如下图所示。</p> <p></p> <img src='stimuli/faces/NFM6.jpg', style='max-width: 30%;'> </img> <p><strong>你是否选择发射武器？</strong></p>","0",""
"","","","","","html-keyboard-response","6","83424","0.0-4.0-0.1","21","1","2022-11-03 07:36:00","ebf9627b049f568eb4bf28942cb89901","223.104.50.14","Mozilla/5.0 (Windows NT 10.0; Win64; x64) AppleWebKit/537.36 (KHTML, like Gecko) Chrome/101.0.0.0 Safari/537.36","WebKit","Chrome","101.0.0.0","Windows","10.0","null","<div style=""font-size:60px;"">+</div>","null",""
"","","","","","html-button-response","7","88349","0.0-4.0-1.1","21","1","2022-11-03 07:36:00","ebf9627b049f568eb4bf28942cb89901","223.104.50.14","Mozilla/5.0 (Windows NT 10.0; Win64; x64) AppleWebKit/537.36 (KHTML, like Gecko) Chrome/101.0.0.0 Safari/537.36","WebKit","Chrome","101.0.0.0","Windows","10.0","4924","<p>作为军队的指挥官，你可以选择发射导弹杀死 <strong>5名</strong> 敌国士兵，但会炸毁附近的 <strong>1棵</strong> 敌国树木。</p> <p>树木的照片如下图所示。</p> <p></p> <img src='stimuli/trees/1.png', style='max-width: 30%;'> </img> <p><strong>你是否选择发射武器？</strong></p>","0",""
"","","","","","html-keyboard-response","8","89355","0.0-4.0-0.2","21","1","2022-11-03 07:36:00","ebf9627b049f568eb4bf28942cb89901","223.104.50.14","Mozilla/5.0 (Windows NT 10.0; Win64; x64) AppleWebKit/537.36 (KHTML, like Gecko) Chrome/101.0.0.0 Safari/537.36","WebKit","Chrome","101.0.0.0","Windows","10.0","null","<div style=""font-size:60px;"">+</div>","null",""
"","","","","","html-button-response","9","94425","0.0-4.0-1.2","21","1","2022-11-03 07:36:00","ebf9627b049f568eb4bf28942cb89901","223.104.50.14","Mozilla/5.0 (Windows NT 10.0; Win64; x64) AppleWebKit/537.36 (KHTML, like Gecko) Chrome/101.0.0.0 Safari/537.36","WebKit","Chrome","101.0.0.0","Windows","10.0","5068","<p>作为军队的指挥官，你可以选择发射导弹杀死 <strong>2名</strong> 敌国士兵，但会炸毁附近的 <strong>1棵</strong> 敌国树木。</p> <p>树木的照片如下图所示。</p> <p></p> <img src='stimuli/trees/14.png', style='max-width: 30%;'> </img> <p><strong>你是否选择发射武器？</strong></p>","0",""
"","","","","","html-keyboard-response","10","95441","0.0-4.0-0.3","21","1","2022-11-03 07:36:00","ebf9627b049f568eb4bf28942cb89901","223.104.50.14","Mozilla/5.0 (Windows NT 10.0; Win64; x64) AppleWebKit/537.36 (KHTML, like Gecko) Chrome/101.0.0.0 Safari/537.36","WebKit","Chrome","101.0.0.0","Windows","10.0","null","<div style=""font-size:60px;"">+</div>","null",""
"","","","","","html-button-response","11","98279","0.0-4.0-1.3","21","1","2022-11-03 07:36:00","ebf9627b049f568eb4bf28942cb89901","223.104.50.14","Mozilla/5.0 (Windows NT 10.0; Win64; x64) AppleWebKit/537.36 (KHTML, like Gecko) Chrome/101.0.0.0 Safari/537.36","WebKit","Chrome","101.0.0.0","Windows","10.0","2837","<p>作为军队的指挥官，你可以选择发射导弹杀死 <strong>6名</strong> 敌国士兵，但会炸毁附近的 <strong>1棵</strong> 敌国树木。</p> <p>树木的照片如下图所示。</p> <p></p> <img src='stimuli/trees/8.png', style='max-width: 30%;'> </img> <p><strong>你是否选择发射武器？</strong></p>","0",""
"","","","","","html-keyboard-response","12","99285","0.0-4.0-0.4","21","1","2022-11-03 07:36:00","ebf9627b049f568eb4bf28942cb89901","223.104.50.14","Mozilla/5.0 (Windows NT 10.0; Win64; x64) AppleWebKit/537.36 (KHTML, like Gecko) Chrome/101.0.0.0 Safari/537.36","WebKit","Chrome","101.0.0.0","Windows","10.0","null","<div style=""font-size:60px;"">+</div>","null",""
"","","","","","html-button-response","13","101348","0.0-4.0-1.4","21","1","2022-11-03 07:36:00","ebf9627b049f568eb4bf28942cb89901","223.104.50.14","Mozilla/5.0 (Windows NT 10.0; Win64; x64) AppleWebKit/537.36 (KHTML, like Gecko) Chrome/101.0.0.0 Safari/537.36","WebKit","Chrome","101.0.0.0","Windows","10.0","2060","<p>作为军队的指挥官，你可以选择发射导弹杀死 <strong>5名</strong> 敌国士兵，但会炸毁附近的 <strong>1棵</strong> 敌国树木。</p> <p>树木的照片如下图所示。</p> <p></p> <img src='stimuli/trees/15.png', style='max-width: 30%;'> </img> <p><strong>你是否选择发射武器？</strong></p>","0",""
"","","","","","html-keyboard-response","14","102353","0.0-4.0-0.5","21","1","2022-11-03 07:36:00","ebf9627b049f568eb4bf28942cb89901","223.104.50.14","Mozilla/5.0 (Windows NT 10.0; Win64; x64) AppleWebKit/537.36 (KHTML, like Gecko) Chrome/101.0.0.0 Safari/537.36","WebKit","Chrome","101.0.0.0","Windows","10.0","null","<div style=""font-size:60px;"">+</div>","null",""
"","","","","","html-button-response","15","106109","0.0-4.0-1.5","21","1","2022-11-03 07:36:00","ebf9627b049f568eb4bf28942cb89901","223.104.50.14","Mozilla/5.0 (Windows NT 10.0; Win64; x64) AppleWebKit/537.36 (KHTML, like Gecko) Chrome/101.0.0.0 Safari/537.36","WebKit","Chrome","101.0.0.0","Windows","10.0","3754","<p>作为军队的指挥官，你可以选择发射导弹杀死 <strong>8名</strong> 敌国士兵，但会误杀附近的 <strong>1名</strong> 敌国平民。</p> <p>平民照片如下图所示。</p> <p></p> <img src='stimuli/faces/NFM8.jpg', style='max-width: 30%;'> </img> <p><strong>你是否选择发射武器？</strong></p>","0",""
"","","","","","html-keyboard-response","16","107117","0.0-4.0-0.6","21","1","2022-11-03 07:36:00","ebf9627b049f568eb4bf28942cb89901","223.104.50.14","Mozilla/5.0 (Windows NT 10.0; Win64; x64) AppleWebKit/537.36 (KHTML, like Gecko) Chrome/101.0.0.0 Safari/537.36","WebKit","Chrome","101.0.0.0","Windows","10.0","null","<div style=""font-size:60px;"">+</div>","null",""
"","","","","","html-button-response","17","128351","0.0-4.0-1.6","21","1","2022-11-03 07:36:00","ebf9627b049f568eb4bf28942cb89901","223.104.50.14","Mozilla/5.0 (Windows NT 10.0; Win64; x64) AppleWebKit/537.36 (KHTML, like Gecko) Chrome/101.0.0.0 Safari/537.36","WebKit","Chrome","101.0.0.0","Windows","10.0","21232","<p>作为军队的指挥官，你可以选择发射导弹杀死 <strong>7名</strong> 敌国士兵，但会误杀附近的 <strong>1名</strong> 敌国平民。</p> <p>平民照片如下图所示。</p> <p></p> <img src='stimuli/faces/NFF7.jpg', style='max-width: 30%;'> </img> <p><strong>你是否选择发射武器？</strong></p>","1",""
"","","","","","html-keyboard-response","18","129356","0.0-4.0-0.7","21","1","2022-11-03 07:36:00","ebf9627b049f568eb4bf28942cb89901","223.104.50.14","Mozilla/5.0 (Windows NT 10.0; Win64; x64) AppleWebKit/537.36 (KHTML, like Gecko) Chrome/101.0.0.0 Safari/537.36","WebKit","Chrome","101.0.0.0","Windows","10.0","null","<div style=""font-size:60px;"">+</div>","null",""
"","","","","","html-button-response","19","131539","0.0-4.0-1.7","21","1","2022-11-03 07:36:00","ebf9627b049f568eb4bf28942cb89901","223.104.50.14","Mozilla/5.0 (Windows NT 10.0; Win64; x64) AppleWebKit/537.36 (KHTML, like Gecko) Chrome/101.0.0.0 Safari/537.36","WebKit","Chrome","101.0.0.0","Windows","10.0","2180","<p>作为军队的指挥官，你可以选择发射导弹杀死 <strong>5名</strong> 敌国士兵，但会炸毁附近的 <strong>1棵</strong> 敌国树木。</p> <p>树木的照片如下图所示。</p> <p></p> <img src='stimuli/trees/11.png', style='max-width: 30%;'> </img> <p><strong>你是否选择发射武器？</strong></p>","0",""
"","","","","","html-keyboard-response","20","132548","0.0-4.0-0.8","21","1","2022-11-03 07:36:00","ebf9627b049f568eb4bf28942cb89901","223.104.50.14","Mozilla/5.0 (Windows NT 10.0; Win64; x64) AppleWebKit/537.36 (KHTML, like Gecko) Chrome/101.0.0.0 Safari/537.36","WebKit","Chrome","101.0.0.0","Windows","10.0","null","<div style=""font-size:60px;"">+</div>","null",""
"","","","","","html-button-response","21","133931","0.0-4.0-1.8","21","1","2022-11-03 07:36:00","ebf9627b049f568eb4bf28942cb89901","223.104.50.14","Mozilla/5.0 (Windows NT 10.0; Win64; x64) AppleWebKit/537.36 (KHTML, like Gecko) Chrome/101.0.0.0 Safari/537.36","WebKit","Chrome","101.0.0.0","Windows","10.0","1381","<p>作为军队的指挥官，你可以选择发射导弹杀死 <strong>8名</strong> 敌国士兵，但会炸毁附近的 <strong>1棵</strong> 敌国树木。</p> <p>树木的照片如下图所示。</p> <p></p> <img src='stimuli/trees/16.png', style='max-width: 30%;'> </img> <p><strong>你是否选择发射武器？</strong></p>","0",""
"","","","","","html-keyboard-response","22","134933","0.0-4.0-0.9","21","1","2022-11-03 07:36:00","ebf9627b049f568eb4bf28942cb89901","223.104.50.14","Mozilla/5.0 (Windows NT 10.0; Win64; x64) AppleWebKit/537.36 (KHTML, like Gecko) Chrome/101.0.0.0 Safari/537.36","WebKit","Chrome","101.0.0.0","Windows","10.0","null","<div style=""font-size:60px;"">+</div>","null",""
"","","","","","html-button-response","23","137013","0.0-4.0-1.9","21","1","2022-11-03 07:36:00","ebf9627b049f568eb4bf28942cb89901","223.104.50.14","Mozilla/5.0 (Windows NT 10.0; Win64; x64) AppleWebKit/537.36 (KHTML, like Gecko) Chrome/101.0.0.0 Safari/537.36","WebKit","Chrome","101.0.0.0","Windows","10.0","2078","<p>作为军队的指挥官，你可以选择发射导弹杀死 <strong>3名</strong> 敌国士兵，但会炸毁附近的 <strong>1棵</strong> 敌国树木。</p> <p>树木的照片如下图所示。</p> <p></p> <img src='stimuli/trees/6.png', style='max-width: 30%;'> </img> <p><strong>你是否选择发射武器？</strong></p>","0",""
"","","","","","html-keyboard-response","24","138031","0.0-4.0-0.10","21","1","2022-11-03 07:36:00","ebf9627b049f568eb4bf28942cb89901","223.104.50.14","Mozilla/5.0 (Windows NT 10.0; Win64; x64) AppleWebKit/537.36 (KHTML, like Gecko) Chrome/101.0.0.0 Safari/537.36","WebKit","Chrome","101.0.0.0","Windows","10.0","null","<div style=""font-size:60px;"">+</div>","null",""
"","","","","","html-button-response","25","146298","0.0-4.0-1.10","21","1","2022-11-03 07:36:00","ebf9627b049f568eb4bf28942cb89901","223.104.50.14","Mozilla/5.0 (Windows NT 10.0; Win64; x64) AppleWebKit/537.36 (KHTML, like Gecko) Chrome/101.0.0.0 Safari/537.36","WebKit","Chrome","101.0.0.0","Windows","10.0","8265","<p>作为军队的指挥官，你可以选择发射导弹杀死 <strong>4名</strong> 敌国士兵，但会误杀附近的 <strong>1名</strong> 敌国平民。</p> <p>平民照片如下图所示。</p> <p></p> <img src='stimuli/faces/NFM4.jpg', style='max-width: 30%;'> </img> <p><strong>你是否选择发射武器？</strong></p>","1",""
"","","","","","html-keyboard-response","26","147313","0.0-4.0-0.11","21","1","2022-11-03 07:36:00","ebf9627b049f568eb4bf28942cb89901","223.104.50.14","Mozilla/5.0 (Windows NT 10.0; Win64; x64) AppleWebKit/537.36 (KHTML, like Gecko) Chrome/101.0.0.0 Safari/537.36","WebKit","Chrome","101.0.0.0","Windows","10.0","null","<div style=""font-size:60px;"">+</div>","null",""
"","","","","","html-button-response","27","150240","0.0-4.0-1.11","21","1","2022-11-03 07:36:00","ebf9627b049f568eb4bf28942cb89901","223.104.50.14","Mozilla/5.0 (Windows NT 10.0; Win64; x64) AppleWebKit/537.36 (KHTML, like Gecko) Chrome/101.0.0.0 Safari/537.36","WebKit","Chrome","101.0.0.0","Windows","10.0","2926","<p>作为军队的指挥官，你可以选择发射导弹杀死 <strong>2名</strong> 敌国士兵，但会炸毁附近的 <strong>1棵</strong> 敌国树木。</p> <p>树木的照片如下图所示。</p> <p></p> <img src='stimuli/trees/7.png', style='max-width: 30%;'> </img> <p><strong>你是否选择发射武器？</strong></p>","0",""
"","","","","","html-keyboard-response","28","151258","0.0-4.0-0.12","21","1","2022-11-03 07:36:00","ebf9627b049f568eb4bf28942cb89901","223.104.50.14","Mozilla/5.0 (Windows NT 10.0; Win64; x64) AppleWebKit/537.36 (KHTML, like Gecko) Chrome/101.0.0.0 Safari/537.36","WebKit","Chrome","101.0.0.0","Windows","10.0","null","<div style=""font-size:60px;"">+</div>","null",""
"","","","","","html-button-response","29","152624","0.0-4.0-1.12","21","1","2022-11-03 07:36:00","ebf9627b049f568eb4bf28942cb89901","223.104.50.14","Mozilla/5.0 (Windows NT 10.0; Win64; x64) AppleWebKit/537.36 (KHTML, like Gecko) Chrome/101.0.0.0 Safari/537.36","WebKit","Chrome","101.0.0.0","Windows","10.0","1365","<p>作为军队的指挥官，你可以选择发射导弹杀死 <strong>4名</strong> 敌国士兵，但会炸毁附近的 <strong>1棵</strong> 敌国树木。</p> <p>树木的照片如下图所示。</p> <p></p> <img src='stimuli/trees/16.png', style='max-width: 30%;'> </img> <p><strong>你是否选择发射武器？</strong></p>","0",""
"","","","","","html-keyboard-response","30","153641","0.0-4.0-0.13","21","1","2022-11-03 07:36:00","ebf9627b049f568eb4bf28942cb89901","223.104.50.14","Mozilla/5.0 (Windows NT 10.0; Win64; x64) AppleWebKit/537.36 (KHTML, like Gecko) Chrome/101.0.0.0 Safari/537.36","WebKit","Chrome","101.0.0.0","Windows","10.0","null","<div style=""font-size:60px;"">+</div>","null",""
"","","","","","html-button-response","31","156348","0.0-4.0-1.13","21","1","2022-11-03 07:36:00","ebf9627b049f568eb4bf28942cb89901","223.104.50.14","Mozilla/5.0 (Windows NT 10.0; Win64; x64) AppleWebKit/537.36 (KHTML, like Gecko) Chrome/101.0.0.0 Safari/537.36","WebKit","Chrome","101.0.0.0","Windows","10.0","2705","<p>作为军队的指挥官，你可以选择发射导弹杀死 <strong>5名</strong> 敌国士兵，但会误杀附近的 <strong>1名</strong> 敌国平民。</p> <p>平民照片如下图所示。</p> <p></p> <img src='stimuli/faces/NFM2.jpg', style='max-width: 30%;'> </img> <p><strong>你是否选择发射武器？</strong></p>","0",""
"","","","","","html-keyboard-response","32","157360","0.0-4.0-0.14","21","1","2022-11-03 07:36:00","ebf9627b049f568eb4bf28942cb89901","223.104.50.14","Mozilla/5.0 (Windows NT 10.0; Win64; x64) AppleWebKit/537.36 (KHTML, like Gecko) Chrome/101.0.0.0 Safari/537.36","WebKit","Chrome","101.0.0.0","Windows","10.0","null","<div style=""font-size:60px;"">+</div>","null",""
"","","","","","html-button-response","33","159966","0.0-4.0-1.14","21","1","2022-11-03 07:36:00","ebf9627b049f568eb4bf28942cb89901","223.104.50.14","Mozilla/5.0 (Windows NT 10.0; Win64; x64) AppleWebKit/537.36 (KHTML, like Gecko) Chrome/101.0.0.0 Safari/537.36","WebKit","Chrome","101.0.0.0","Windows","10.0","2603","<p>作为军队的指挥官，你可以选择发射导弹杀死 <strong>8名</strong> 敌国士兵，但会误杀附近的 <strong>1名</strong> 敌国平民。</p> <p>平民照片如下图所示。</p> <p></p> <img src='stimuli/faces/NFF2.jpg', style='max-width: 30%;'> </img> <p><strong>你是否选择发射武器？</strong></p>","0",""
"","","","","","html-keyboard-response","34","160977","0.0-4.0-0.15","21","1","2022-11-03 07:36:00","ebf9627b049f568eb4bf28942cb89901","223.104.50.14","Mozilla/5.0 (Windows NT 10.0; Win64; x64) AppleWebKit/537.36 (KHTML, like Gecko) Chrome/101.0.0.0 Safari/537.36","WebKit","Chrome","101.0.0.0","Windows","10.0","null","<div style=""font-size:60px;"">+</div>","null",""
"","","","","","html-button-response","35","166340","0.0-4.0-1.15","21","1","2022-11-03 07:36:00","ebf9627b049f568eb4bf28942cb89901","223.104.50.14","Mozilla/5.0 (Windows NT 10.0; Win64; x64) AppleWebKit/537.36 (KHTML, like Gecko) Chrome/101.0.0.0 Safari/537.36","WebKit","Chrome","101.0.0.0","Windows","10.0","5360","<p>作为军队的指挥官，你可以选择发射导弹杀死 <strong>3名</strong> 敌国士兵，但会误杀附近的 <strong>1名</strong> 敌国平民。</p> <p>平民照片如下图所示。</p> <p></p> <img src='stimuli/faces/NFM8.jpg', style='max-width: 30%;'> </img> <p><strong>你是否选择发射武器？</strong></p>","1",""
"","","","","","html-keyboard-response","36","167345","0.0-4.0-0.16","21","1","2022-11-03 07:36:00","ebf9627b049f568eb4bf28942cb89901","223.104.50.14","Mozilla/5.0 (Windows NT 10.0; Win64; x64) AppleWebKit/537.36 (KHTML, like Gecko) Chrome/101.0.0.0 Safari/537.36","WebKit","Chrome","101.0.0.0","Windows","10.0","null","<div style=""font-size:60px;"">+</div>","null",""
"","","","","","html-button-response","37","170049","0.0-4.0-1.16","21","1","2022-11-03 07:36:00","ebf9627b049f568eb4bf28942cb89901","223.104.50.14","Mozilla/5.0 (Windows NT 10.0; Win64; x64) AppleWebKit/537.36 (KHTML, like Gecko) Chrome/101.0.0.0 Safari/537.36","WebKit","Chrome","101.0.0.0","Windows","10.0","2702","<p>作为军队的指挥官，你可以选择发射导弹杀死 <strong>2名</strong> 敌国士兵，但会误杀附近的 <strong>1名</strong> 敌国平民。</p> <p>平民照片如下图所示。</p> <p></p> <img src='stimuli/faces/NFF4.jpg', style='max-width: 30%;'> </img> <p><strong>你是否选择发射武器？</strong></p>","1",""
"","","","","","html-keyboard-response","38","171060","0.0-4.0-0.17","21","1","2022-11-03 07:36:00","ebf9627b049f568eb4bf28942cb89901","223.104.50.14","Mozilla/5.0 (Windows NT 10.0; Win64; x64) AppleWebKit/537.36 (KHTML, like Gecko) Chrome/101.0.0.0 Safari/537.36","WebKit","Chrome","101.0.0.0","Windows","10.0","null","<div style=""font-size:60px;"">+</div>","null",""
"","","","","","html-button-response","39","173218","0.0-4.0-1.17","21","1","2022-11-03 07:36:00","ebf9627b049f568eb4bf28942cb89901","223.104.50.14","Mozilla/5.0 (Windows NT 10.0; Win64; x64) AppleWebKit/537.36 (KHTML, like Gecko) Chrome/101.0.0.0 Safari/537.36","WebKit","Chrome","101.0.0.0","Windows","10.0","2150","<p>作为军队的指挥官，你可以选择发射导弹杀死 <strong>10名</strong> 敌国士兵，但会炸毁附近的 <strong>1棵</strong> 敌国树木。</p> <p>树木的照片如下图所示。</p> <p></p> <img src='stimuli/trees/12.png', style='max-width: 30%;'> </img> <p><strong>你是否选择发射武器？</strong></p>","0",""
"","","","","","html-keyboard-response","40","174225","0.0-4.0-0.18","21","1","2022-11-03 07:36:00","ebf9627b049f568eb4bf28942cb89901","223.104.50.14","Mozilla/5.0 (Windows NT 10.0; Win64; x64) AppleWebKit/537.36 (KHTML, like Gecko) Chrome/101.0.0.0 Safari/537.36","WebKit","Chrome","101.0.0.0","Windows","10.0","null","<div style=""font-size:60px;"">+</div>","null",""
"","","","","","html-button-response","41","177670","0.0-4.0-1.18","21","1","2022-11-03 07:36:00","ebf9627b049f568eb4bf28942cb89901","223.104.50.14","Mozilla/5.0 (Windows NT 10.0; Win64; x64) AppleWebKit/537.36 (KHTML, like Gecko) Chrome/101.0.0.0 Safari/537.36","WebKit","Chrome","101.0.0.0","Windows","10.0","3441","<p>作为军队的指挥官，你可以选择发射导弹杀死 <strong>3名</strong> 敌国士兵，但会误杀附近的 <strong>1名</strong> 敌国平民。</p> <p>平民照片如下图所示。</p> <p></p> <img src='stimuli/faces/NFF7.jpg', style='max-width: 30%;'> </img> <p><strong>你是否选择发射武器？</strong></p>","1",""
"","","","","","html-keyboard-response","42","178675","0.0-4.0-0.19","21","1","2022-11-03 07:36:00","ebf9627b049f568eb4bf28942cb89901","223.104.50.14","Mozilla/5.0 (Windows NT 10.0; Win64; x64) AppleWebKit/537.36 (KHTML, like Gecko) Chrome/101.0.0.0 Safari/537.36","WebKit","Chrome","101.0.0.0","Windows","10.0","null","<div style=""font-size:60px;"">+</div>","null",""
"","","","","","html-button-response","43","181200","0.0-4.0-1.19","21","1","2022-11-03 07:36:00","ebf9627b049f568eb4bf28942cb89901","223.104.50.14","Mozilla/5.0 (Windows NT 10.0; Win64; x64) AppleWebKit/537.36 (KHTML, like Gecko) Chrome/101.0.0.0 Safari/537.36","WebKit","Chrome","101.0.0.0","Windows","10.0","2523","<p>作为军队的指挥官，你可以选择发射导弹杀死 <strong>6名</strong> 敌国士兵，但会炸毁附近的 <strong>1棵</strong> 敌国树木。</p> <p>树木的照片如下图所示。</p> <p></p> <img src='stimuli/trees/6.png', style='max-width: 30%;'> </img> <p><strong>你是否选择发射武器？</strong></p>","0",""
"","","","","","html-keyboard-response","44","182207","0.0-4.0-0.20","21","1","2022-11-03 07:36:00","ebf9627b049f568eb4bf28942cb89901","223.104.50.14","Mozilla/5.0 (Windows NT 10.0; Win64; x64) AppleWebKit/537.36 (KHTML, like Gecko) Chrome/101.0.0.0 Safari/537.36","WebKit","Chrome","101.0.0.0","Windows","10.0","null","<div style=""font-size:60px;"">+</div>","null",""
"","","","","","html-button-response","45","183628","0.0-4.0-1.20","21","1","2022-11-03 07:36:00","ebf9627b049f568eb4bf28942cb89901","223.104.50.14","Mozilla/5.0 (Windows NT 10.0; Win64; x64) AppleWebKit/537.36 (KHTML, like Gecko) Chrome/101.0.0.0 Safari/537.36","WebKit","Chrome","101.0.0.0","Windows","10.0","1419","<p>作为军队的指挥官，你可以选择发射导弹杀死 <strong>4名</strong> 敌国士兵，但会炸毁附近的 <strong>1棵</strong> 敌国树木。</p> <p>树木的照片如下图所示。</p> <p></p> <img src='stimuli/trees/10.png', style='max-width: 30%;'> </img> <p><strong>你是否选择发射武器？</strong></p>","0",""
"","","","","","html-keyboard-response","46","184640","0.0-4.0-0.21","21","1","2022-11-03 07:36:00","ebf9627b049f568eb4bf28942cb89901","223.104.50.14","Mozilla/5.0 (Windows NT 10.0; Win64; x64) AppleWebKit/537.36 (KHTML, like Gecko) Chrome/101.0.0.0 Safari/537.36","WebKit","Chrome","101.0.0.0","Windows","10.0","null","<div style=""font-size:60px;"">+</div>","null",""
"","","","","","html-button-response","47","185984","0.0-4.0-1.21","21","1","2022-11-03 07:36:00","ebf9627b049f568eb4bf28942cb89901","223.104.50.14","Mozilla/5.0 (Windows NT 10.0; Win64; x64) AppleWebKit/537.36 (KHTML, like Gecko) Chrome/101.0.0.0 Safari/537.36","WebKit","Chrome","101.0.0.0","Windows","10.0","1341","<p>作为军队的指挥官，你可以选择发射导弹杀死 <strong>2名</strong> 敌国士兵，但会炸毁附近的 <strong>1棵</strong> 敌国树木。</p> <p>树木的照片如下图所示。</p> <p></p> <img src='stimuli/trees/8.png', style='max-width: 30%;'> </img> <p><strong>你是否选择发射武器？</strong></p>","0",""
"","","","","","html-keyboard-response","48","186990","0.0-4.0-0.22","21","1","2022-11-03 07:36:00","ebf9627b049f568eb4bf28942cb89901","223.104.50.14","Mozilla/5.0 (Windows NT 10.0; Win64; x64) AppleWebKit/537.36 (KHTML, like Gecko) Chrome/101.0.0.0 Safari/537.36","WebKit","Chrome","101.0.0.0","Windows","10.0","null","<div style=""font-size:60px;"">+</div>","null",""
"","","","","","html-button-response","49","188080","0.0-4.0-1.22","21","1","2022-11-03 07:36:00","ebf9627b049f568eb4bf28942cb89901","223.104.50.14","Mozilla/5.0 (Windows NT 10.0; Win64; x64) AppleWebKit/537.36 (KHTML, like Gecko) Chrome/101.0.0.0 Safari/537.36","WebKit","Chrome","101.0.0.0","Windows","10.0","1087","<p>作为军队的指挥官，你可以选择发射导弹杀死 <strong>8名</strong> 敌国士兵，但会炸毁附近的 <strong>1棵</strong> 敌国树木。</p> <p>树木的照片如下图所示。</p> <p></p> <img src='stimuli/trees/11.png', style='max-width: 30%;'> </img> <p><strong>你是否选择发射武器？</strong></p>","0",""
"","","","","","html-keyboard-response","50","189090","0.0-4.0-0.23","21","1","2022-11-03 07:36:00","ebf9627b049f568eb4bf28942cb89901","223.104.50.14","Mozilla/5.0 (Windows NT 10.0; Win64; x64) AppleWebKit/537.36 (KHTML, like Gecko) Chrome/101.0.0.0 Safari/537.36","WebKit","Chrome","101.0.0.0","Windows","10.0","null","<div style=""font-size:60px;"">+</div>","null",""
"","","","","","html-button-response","51","193058","0.0-4.0-1.23","21","1","2022-11-03 07:36:00","ebf9627b049f568eb4bf28942cb89901","223.104.50.14","Mozilla/5.0 (Windows NT 10.0; Win64; x64) AppleWebKit/537.36 (KHTML, like Gecko) Chrome/101.0.0.0 Safari/537.36","WebKit","Chrome","101.0.0.0","Windows","10.0","3965","<p>作为军队的指挥官，你可以选择发射导弹杀死 <strong>3名</strong> 敌国士兵，但会误杀附近的 <strong>1名</strong> 敌国平民。</p> <p>平民照片如下图所示。</p> <p></p> <img src='stimuli/faces/NFF3.jpg', style='max-width: 30%;'> </img> <p><strong>你是否选择发射武器？</strong></p>","1",""
"","","","","","html-keyboard-response","52","194073","0.0-4.0-0.24","21","1","2022-11-03 07:36:00","ebf9627b049f568eb4bf28942cb89901","223.104.50.14","Mozilla/5.0 (Windows NT 10.0; Win64; x64) AppleWebKit/537.36 (KHTML, like Gecko) Chrome/101.0.0.0 Safari/537.36","WebKit","Chrome","101.0.0.0","Windows","10.0","null","<div style=""font-size:60px;"">+</div>","null",""
"","","","","","html-button-response","53","196528","0.0-4.0-1.24","21","1","2022-11-03 07:36:00","ebf9627b049f568eb4bf28942cb89901","223.104.50.14","Mozilla/5.0 (Windows NT 10.0; Win64; x64) AppleWebKit/537.36 (KHTML, like Gecko) Chrome/101.0.0.0 Safari/537.36","WebKit","Chrome","101.0.0.0","Windows","10.0","2453","<p>作为军队的指挥官，你可以选择发射导弹杀死 <strong>4名</strong> 敌国士兵，但会炸毁附近的 <strong>1棵</strong> 敌国树木。</p> <p>树木的照片如下图所示。</p> <p></p> <img src='stimuli/trees/2.png', style='max-width: 30%;'> </img> <p><strong>你是否选择发射武器？</strong></p>","0",""
"","","","","","html-keyboard-response","54","197539","0.0-4.0-0.25","21","1","2022-11-03 07:36:00","ebf9627b049f568eb4bf28942cb89901","223.104.50.14","Mozilla/5.0 (Windows NT 10.0; Win64; x64) AppleWebKit/537.36 (KHTML, like Gecko) Chrome/101.0.0.0 Safari/537.36","WebKit","Chrome","101.0.0.0","Windows","10.0","null","<div style=""font-size:60px;"">+</div>","null",""
"","","","","","html-button-response","55","198680","0.0-4.0-1.25","21","1","2022-11-03 07:36:00","ebf9627b049f568eb4bf28942cb89901","223.104.50.14","Mozilla/5.0 (Windows NT 10.0; Win64; x64) AppleWebKit/537.36 (KHTML, like Gecko) Chrome/101.0.0.0 Safari/537.36","WebKit","Chrome","101.0.0.0","Windows","10.0","1137","<p>作为军队的指挥官，你可以选择发射导弹杀死 <strong>6名</strong> 敌国士兵，但会炸毁附近的 <strong>1棵</strong> 敌国树木。</p> <p>树木的照片如下图所示。</p> <p></p> <img src='stimuli/trees/14.png', style='max-width: 30%;'> </img> <p><strong>你是否选择发射武器？</strong></p>","0",""
"","","","","","html-keyboard-response","56","199688","0.0-4.0-0.26","21","1","2022-11-03 07:36:00","ebf9627b049f568eb4bf28942cb89901","223.104.50.14","Mozilla/5.0 (Windows NT 10.0; Win64; x64) AppleWebKit/537.36 (KHTML, like Gecko) Chrome/101.0.0.0 Safari/537.36","WebKit","Chrome","101.0.0.0","Windows","10.0","null","<div style=""font-size:60px;"">+</div>","null",""
"","","","","","html-button-response","57","200956","0.0-4.0-1.26","21","1","2022-11-03 07:36:00","ebf9627b049f568eb4bf28942cb89901","223.104.50.14","Mozilla/5.0 (Windows NT 10.0; Win64; x64) AppleWebKit/537.36 (KHTML, like Gecko) Chrome/101.0.0.0 Safari/537.36","WebKit","Chrome","101.0.0.0","Windows","10.0","1266","<p>作为军队的指挥官，你可以选择发射导弹杀死 <strong>8名</strong> 敌国士兵，但会炸毁附近的 <strong>1棵</strong> 敌国树木。</p> <p>树木的照片如下图所示。</p> <p></p> <img src='stimuli/trees/2.png', style='max-width: 30%;'> </img> <p><strong>你是否选择发射武器？</strong></p>","0",""
"","","","","","html-keyboard-response","58","201966","0.0-4.0-0.27","21","1","2022-11-03 07:36:00","ebf9627b049f568eb4bf28942cb89901","223.104.50.14","Mozilla/5.0 (Windows NT 10.0; Win64; x64) AppleWebKit/537.36 (KHTML, like Gecko) Chrome/101.0.0.0 Safari/537.36","WebKit","Chrome","101.0.0.0","Windows","10.0","null","<div style=""font-size:60px;"">+</div>","null",""
"","","","","","html-button-response","59","203092","0.0-4.0-1.27","21","1","2022-11-03 07:36:00","ebf9627b049f568eb4bf28942cb89901","223.104.50.14","Mozilla/5.0 (Windows NT 10.0; Win64; x64) AppleWebKit/537.36 (KHTML, like Gecko) Chrome/101.0.0.0 Safari/537.36","WebKit","Chrome","101.0.0.0","Windows","10.0","1123","<p>作为军队的指挥官，你可以选择发射导弹杀死 <strong>6名</strong> 敌国士兵，但会炸毁附近的 <strong>1棵</strong> 敌国树木。</p> <p>树木的照片如下图所示。</p> <p></p> <img src='stimuli/trees/7.png', style='max-width: 30%;'> </img> <p><strong>你是否选择发射武器？</strong></p>","0",""
"","","","","","html-keyboard-response","60","204106","0.0-4.0-0.28","21","1","2022-11-03 07:36:00","ebf9627b049f568eb4bf28942cb89901","223.104.50.14","Mozilla/5.0 (Windows NT 10.0; Win64; x64) AppleWebKit/537.36 (KHTML, like Gecko) Chrome/101.0.0.0 Safari/537.36","WebKit","Chrome","101.0.0.0","Windows","10.0","null","<div style=""font-size:60px;"">+</div>","null",""
"","","","","","html-button-response","61","206175","0.0-4.0-1.28","21","1","2022-11-03 07:36:00","ebf9627b049f568eb4bf28942cb89901","223.104.50.14","Mozilla/5.0 (Windows NT 10.0; Win64; x64) AppleWebKit/537.36 (KHTML, like Gecko) Chrome/101.0.0.0 Safari/537.36","WebKit","Chrome","101.0.0.0","Windows","10.0","2066","<p>作为军队的指挥官，你可以选择发射导弹杀死 <strong>2名</strong> 敌国士兵，但会炸毁附近的 <strong>1棵</strong> 敌国树木。</p> <p>树木的照片如下图所示。</p> <p></p> <img src='stimuli/trees/4.png', style='max-width: 30%;'> </img> <p><strong>你是否选择发射武器？</strong></p>","0",""
"","","","","","html-keyboard-response","62","207190","0.0-4.0-0.29","21","1","2022-11-03 07:36:00","ebf9627b049f568eb4bf28942cb89901","223.104.50.14","Mozilla/5.0 (Windows NT 10.0; Win64; x64) AppleWebKit/537.36 (KHTML, like Gecko) Chrome/101.0.0.0 Safari/537.36","WebKit","Chrome","101.0.0.0","Windows","10.0","null","<div style=""font-size:60px;"">+</div>","null",""
"","","","","","html-button-response","63","212373","0.0-4.0-1.29","21","1","2022-11-03 07:36:00","ebf9627b049f568eb4bf28942cb89901","223.104.50.14","Mozilla/5.0 (Windows NT 10.0; Win64; x64) AppleWebKit/537.36 (KHTML, like Gecko) Chrome/101.0.0.0 Safari/537.36","WebKit","Chrome","101.0.0.0","Windows","10.0","5180","<p>作为军队的指挥官，你可以选择发射导弹杀死 <strong>5名</strong> 敌国士兵，但会误杀附近的 <strong>1名</strong> 敌国平民。</p> <p>平民照片如下图所示。</p> <p></p> <img src='stimuli/faces/NFF6.jpg', style='max-width: 30%;'> </img> <p><strong>你是否选择发射武器？</strong></p>","0",""
"","","","","","html-keyboard-response","64","213379","0.0-4.0-0.30","21","1","2022-11-03 07:36:00","ebf9627b049f568eb4bf28942cb89901","223.104.50.14","Mozilla/5.0 (Windows NT 10.0; Win64; x64) AppleWebKit/537.36 (KHTML, like Gecko) Chrome/101.0.0.0 Safari/537.36","WebKit","Chrome","101.0.0.0","Windows","10.0","null","<div style=""font-size:60px;"">+</div>","null",""
"","","","","","html-button-response","65","219727","0.0-4.0-1.30","21","1","2022-11-03 07:36:00","ebf9627b049f568eb4bf28942cb89901","223.104.50.14","Mozilla/5.0 (Windows NT 10.0; Win64; x64) AppleWebKit/537.36 (KHTML, like Gecko) Chrome/101.0.0.0 Safari/537.36","WebKit","Chrome","101.0.0.0","Windows","10.0","6345","<p>作为军队的指挥官，你可以选择发射导弹杀死 <strong>1名</strong> 敌国士兵，但会炸毁附近的 <strong>1棵</strong> 敌国树木。</p> <p>树木的照片如下图所示。</p> <p></p> <img src='stimuli/trees/3.png', style='max-width: 30%;'> </img> <p><strong>你是否选择发射武器？</strong></p>","1",""
"","","","","","html-keyboard-response","66","220736","0.0-4.0-0.31","21","1","2022-11-03 07:36:00","ebf9627b049f568eb4bf28942cb89901","223.104.50.14","Mozilla/5.0 (Windows NT 10.0; Win64; x64) AppleWebKit/537.36 (KHTML, like Gecko) Chrome/101.0.0.0 Safari/537.36","WebKit","Chrome","101.0.0.0","Windows","10.0","null","<div style=""font-size:60px;"">+</div>","null",""
"","","","","","html-button-response","67","230101","0.0-4.0-1.31","21","1","2022-11-03 07:36:00","ebf9627b049f568eb4bf28942cb89901","223.104.50.14","Mozilla/5.0 (Windows NT 10.0; Win64; x64) AppleWebKit/537.36 (KHTML, like Gecko) Chrome/101.0.0.0 Safari/537.36","WebKit","Chrome","101.0.0.0","Windows","10.0","9361","<p>作为军队的指挥官，你可以选择发射导弹杀死 <strong>4名</strong> 敌国士兵，但会误杀附近的 <strong>1名</strong> 敌国平民。</p> <p>平民照片如下图所示。</p> <p></p> <img src='stimuli/faces/NFF8.jpg', style='max-width: 30%;'> </img> <p><strong>你是否选择发射武器？</strong></p>","1",""
"","","","","","html-keyboard-response","68","231105","0.0-4.0-0.32","21","1","2022-11-03 07:36:00","ebf9627b049f568eb4bf28942cb89901","223.104.50.14","Mozilla/5.0 (Windows NT 10.0; Win64; x64) AppleWebKit/537.36 (KHTML, like Gecko) Chrome/101.0.0.0 Safari/537.36","WebKit","Chrome","101.0.0.0","Windows","10.0","null","<div style=""font-size:60px;"">+</div>","null",""
"","","","","","html-button-response","69","236802","0.0-4.0-1.32","21","1","2022-11-03 07:36:00","ebf9627b049f568eb4bf28942cb89901","223.104.50.14","Mozilla/5.0 (Windows NT 10.0; Win64; x64) AppleWebKit/537.36 (KHTML, like Gecko) Chrome/101.0.0.0 Safari/537.36","WebKit","Chrome","101.0.0.0","Windows","10.0","5694","<p>作为军队的指挥官，你可以选择发射导弹杀死 <strong>8名</strong> 敌国士兵，但会误杀附近的 <strong>1名</strong> 敌国平民。</p> <p>平民照片如下图所示。</p> <p></p> <img src='stimuli/faces/NFM5.jpg', style='max-width: 30%;'> </img> <p><strong>你是否选择发射武器？</strong></p>","0",""
"","","","","","html-keyboard-response","70","237818","0.0-4.0-0.33","21","1","2022-11-03 07:36:00","ebf9627b049f568eb4bf28942cb89901","223.104.50.14","Mozilla/5.0 (Windows NT 10.0; Win64; x64) AppleWebKit/537.36 (KHTML, like Gecko) Chrome/101.0.0.0 Safari/537.36","WebKit","Chrome","101.0.0.0","Windows","10.0","null","<div style=""font-size:60px;"">+</div>","null",""
"","","","","","html-button-response","71","240235","0.0-4.0-1.33","21","1","2022-11-03 07:36:00","ebf9627b049f568eb4bf28942cb89901","223.104.50.14","Mozilla/5.0 (Windows NT 10.0; Win64; x64) AppleWebKit/537.36 (KHTML, like Gecko) Chrome/101.0.0.0 Safari/537.36","WebKit","Chrome","101.0.0.0","Windows","10.0","2414","<p>作为军队的指挥官，你可以选择发射导弹杀死 <strong>5名</strong> 敌国士兵，但会误杀附近的 <strong>1名</strong> 敌国平民。</p> <p>平民照片如下图所示。</p> <p></p> <img src='stimuli/faces/NFF1.jpg', style='max-width: 30%;'> </img> <p><strong>你是否选择发射武器？</strong></p>","0",""
"","","","","","html-keyboard-response","72","241252","0.0-4.0-0.34","21","1","2022-11-03 07:36:00","ebf9627b049f568eb4bf28942cb89901","223.104.50.14","Mozilla/5.0 (Windows NT 10.0; Win64; x64) AppleWebKit/537.36 (KHTML, like Gecko) Chrome/101.0.0.0 Safari/537.36","WebKit","Chrome","101.0.0.0","Windows","10.0","null","<div style=""font-size:60px;"">+</div>","null",""
"","","","","","html-button-response","73","242403","0.0-4.0-1.34","21","1","2022-11-03 07:36:00","ebf9627b049f568eb4bf28942cb89901","223.104.50.14","Mozilla/5.0 (Windows NT 10.0; Win64; x64) AppleWebKit/537.36 (KHTML, like Gecko) Chrome/101.0.0.0 Safari/537.36","WebKit","Chrome","101.0.0.0","Windows","10.0","1148","<p>作为军队的指挥官，你可以选择发射导弹杀死 <strong>8名</strong> 敌国士兵，但会误杀附近的 <strong>1名</strong> 敌国平民。</p> <p>平民照片如下图所示。</p> <p></p> <img src='stimuli/faces/NFM7.jpg', style='max-width: 30%;'> </img> <p><strong>你是否选择发射武器？</strong></p>","0",""
"","","","","","html-keyboard-response","74","243410","0.0-4.0-0.35","21","1","2022-11-03 07:36:00","ebf9627b049f568eb4bf28942cb89901","223.104.50.14","Mozilla/5.0 (Windows NT 10.0; Win64; x64) AppleWebKit/537.36 (KHTML, like Gecko) Chrome/101.0.0.0 Safari/537.36","WebKit","Chrome","101.0.0.0","Windows","10.0","null","<div style=""font-size:60px;"">+</div>","null",""
"","","","","","html-button-response","75","245869","0.0-4.0-1.35","21","1","2022-11-03 07:36:00","ebf9627b049f568eb4bf28942cb89901","223.104.50.14","Mozilla/5.0 (Windows NT 10.0; Win64; x64) AppleWebKit/537.36 (KHTML, like Gecko) Chrome/101.0.0.0 Safari/537.36","WebKit","Chrome","101.0.0.0","Windows","10.0","2456","<p>作为军队的指挥官，你可以选择发射导弹杀死 <strong>6名</strong> 敌国士兵，但会误杀附近的 <strong>1名</strong> 敌国平民。</p> <p>平民照片如下图所示。</p> <p></p> <img src='stimuli/faces/NFF1.jpg', style='max-width: 30%;'> </img> <p><strong>你是否选择发射武器？</strong></p>","0",""
"","","","","","html-keyboard-response","76","246886","0.0-4.0-0.36","21","1","2022-11-03 07:36:00","ebf9627b049f568eb4bf28942cb89901","223.104.50.14","Mozilla/5.0 (Windows NT 10.0; Win64; x64) AppleWebKit/537.36 (KHTML, like Gecko) Chrome/101.0.0.0 Safari/537.36","WebKit","Chrome","101.0.0.0","Windows","10.0","null","<div style=""font-size:60px;"">+</div>","null",""
"","","","","","html-button-response","77","248745","0.0-4.0-1.36","21","1","2022-11-03 07:36:00","ebf9627b049f568eb4bf28942cb89901","223.104.50.14","Mozilla/5.0 (Windows NT 10.0; Win64; x64) AppleWebKit/537.36 (KHTML, like Gecko) Chrome/101.0.0.0 Safari/537.36","WebKit","Chrome","101.0.0.0","Windows","10.0","1857","<p>作为军队的指挥官，你可以选择发射导弹杀死 <strong>7名</strong> 敌国士兵，但会误杀附近的 <strong>1名</strong> 敌国平民。</p> <p>平民照片如下图所示。</p> <p></p> <img src='stimuli/faces/NFF8.jpg', style='max-width: 30%;'> </img> <p><strong>你是否选择发射武器？</strong></p>","0",""
"","","","","","html-keyboard-response","78","249751","0.0-4.0-0.37","21","1","2022-11-03 07:36:00","ebf9627b049f568eb4bf28942cb89901","223.104.50.14","Mozilla/5.0 (Windows NT 10.0; Win64; x64) AppleWebKit/537.36 (KHTML, like Gecko) Chrome/101.0.0.0 Safari/537.36","WebKit","Chrome","101.0.0.0","Windows","10.0","null","<div style=""font-size:60px;"">+</div>","null",""
"","","","","","html-button-response","79","251251","0.0-4.0-1.37","21","1","2022-11-03 07:36:00","ebf9627b049f568eb4bf28942cb89901","223.104.50.14","Mozilla/5.0 (Windows NT 10.0; Win64; x64) AppleWebKit/537.36 (KHTML, like Gecko) Chrome/101.0.0.0 Safari/537.36","WebKit","Chrome","101.0.0.0","Windows","10.0","1496","<p>作为军队的指挥官，你可以选择发射导弹杀死 <strong>8名</strong> 敌国士兵，但会炸毁附近的 <strong>1棵</strong> 敌国树木。</p> <p>树木的照片如下图所示。</p> <p></p> <img src='stimuli/trees/13.png', style='max-width: 30%;'> </img> <p><strong>你是否选择发射武器？</strong></p>","0",""
"","","","","","html-keyboard-response","80","252266","0.0-4.0-0.38","21","1","2022-11-03 07:36:00","ebf9627b049f568eb4bf28942cb89901","223.104.50.14","Mozilla/5.0 (Windows NT 10.0; Win64; x64) AppleWebKit/537.36 (KHTML, like Gecko) Chrome/101.0.0.0 Safari/537.36","WebKit","Chrome","101.0.0.0","Windows","10.0","null","<div style=""font-size:60px;"">+</div>","null",""
"","","","","","html-button-response","81","253693","0.0-4.0-1.38","21","1","2022-11-03 07:36:00","ebf9627b049f568eb4bf28942cb89901","223.104.50.14","Mozilla/5.0 (Windows NT 10.0; Win64; x64) AppleWebKit/537.36 (KHTML, like Gecko) Chrome/101.0.0.0 Safari/537.36","WebKit","Chrome","101.0.0.0","Windows","10.0","1424","<p>作为军队的指挥官，你可以选择发射导弹杀死 <strong>9名</strong> 敌国士兵，但会误杀附近的 <strong>1名</strong> 敌国平民。</p> <p>平民照片如下图所示。</p> <p></p> <img src='stimuli/faces/NFF5.jpg', style='max-width: 30%;'> </img> <p><strong>你是否选择发射武器？</strong></p>","0",""
"","","","","","html-keyboard-response","82","254702","0.0-4.0-0.39","21","1","2022-11-03 07:36:00","ebf9627b049f568eb4bf28942cb89901","223.104.50.14","Mozilla/5.0 (Windows NT 10.0; Win64; x64) AppleWebKit/537.36 (KHTML, like Gecko) Chrome/101.0.0.0 Safari/537.36","WebKit","Chrome","101.0.0.0","Windows","10.0","null","<div style=""font-size:60px;"">+</div>","null",""
"","","","","","html-button-response","83","256107","0.0-4.0-1.39","21","1","2022-11-03 07:36:00","ebf9627b049f568eb4bf28942cb89901","223.104.50.14","Mozilla/5.0 (Windows NT 10.0; Win64; x64) AppleWebKit/537.36 (KHTML, like Gecko) Chrome/101.0.0.0 Safari/537.36","WebKit","Chrome","101.0.0.0","Windows","10.0","1403","<p>作为军队的指挥官，你可以选择发射导弹杀死 <strong>5名</strong> 敌国士兵，但会误杀附近的 <strong>1名</strong> 敌国平民。</p> <p>平民照片如下图所示。</p> <p></p> <img src='stimuli/faces/NFM7.jpg', style='max-width: 30%;'> </img> <p><strong>你是否选择发射武器？</strong></p>","0",""
"","","","","","html-keyboard-response","84","257114","0.0-4.0-0.40","21","1","2022-11-03 07:36:00","ebf9627b049f568eb4bf28942cb89901","223.104.50.14","Mozilla/5.0 (Windows NT 10.0; Win64; x64) AppleWebKit/537.36 (KHTML, like Gecko) Chrome/101.0.0.0 Safari/537.36","WebKit","Chrome","101.0.0.0","Windows","10.0","null","<div style=""font-size:60px;"">+</div>","null",""
"","","","","","html-button-response","85","267643","0.0-4.0-1.40","21","1","2022-11-03 07:36:00","ebf9627b049f568eb4bf28942cb89901","223.104.50.14","Mozilla/5.0 (Windows NT 10.0; Win64; x64) AppleWebKit/537.36 (KHTML, like Gecko) Chrome/101.0.0.0 Safari/537.36","WebKit","Chrome","101.0.0.0","Windows","10.0","10526","<p>作为军队的指挥官，你可以选择发射导弹杀死 <strong>2名</strong> 敌国士兵，但会误杀附近的 <strong>1名</strong> 敌国平民。</p> <p>平民照片如下图所示。</p> <p></p> <img src='stimuli/faces/NFM3.jpg', style='max-width: 30%;'> </img> <p><strong>你是否选择发射武器？</strong></p>","1",""
"","","","","","html-keyboard-response","86","268652","0.0-4.0-0.41","21","1","2022-11-03 07:36:00","ebf9627b049f568eb4bf28942cb89901","223.104.50.14","Mozilla/5.0 (Windows NT 10.0; Win64; x64) AppleWebKit/537.36 (KHTML, like Gecko) Chrome/101.0.0.0 Safari/537.36","WebKit","Chrome","101.0.0.0","Windows","10.0","null","<div style=""font-size:60px;"">+</div>","null",""
"","","","","","html-button-response","87","274662","0.0-4.0-1.41","21","1","2022-11-03 07:36:00","ebf9627b049f568eb4bf28942cb89901","223.104.50.14","Mozilla/5.0 (Windows NT 10.0; Win64; x64) AppleWebKit/537.36 (KHTML, like Gecko) Chrome/101.0.0.0 Safari/537.36","WebKit","Chrome","101.0.0.0","Windows","10.0","6006","<p>作为军队的指挥官，你可以选择发射导弹杀死 <strong>4名</strong> 敌国士兵，但会误杀附近的 <strong>1名</strong> 敌国平民。</p> <p>平民照片如下图所示。</p> <p></p> <img src='stimuli/faces/NFF5.jpg', style='max-width: 30%;'> </img> <p><strong>你是否选择发射武器？</strong></p>","1",""
"","","","","","html-keyboard-response","88","275681","0.0-4.0-0.42","21","1","2022-11-03 07:36:00","ebf9627b049f568eb4bf28942cb89901","223.104.50.14","Mozilla/5.0 (Windows NT 10.0; Win64; x64) AppleWebKit/537.36 (KHTML, like Gecko) Chrome/101.0.0.0 Safari/537.36","WebKit","Chrome","101.0.0.0","Windows","10.0","null","<div style=""font-size:60px;"">+</div>","null",""
"","","","","","html-button-response","89","278245","0.0-4.0-1.42","21","1","2022-11-03 07:36:00","ebf9627b049f568eb4bf28942cb89901","223.104.50.14","Mozilla/5.0 (Windows NT 10.0; Win64; x64) AppleWebKit/537.36 (KHTML, like Gecko) Chrome/101.0.0.0 Safari/537.36","WebKit","Chrome","101.0.0.0","Windows","10.0","2557","<p>作为军队的指挥官，你可以选择发射导弹杀死 <strong>10名</strong> 敌国士兵，但会误杀附近的 <strong>1名</strong> 敌国平民。</p> <p>平民照片如下图所示。</p> <p></p> <img src='stimuli/faces/NFF3.jpg', style='max-width: 30%;'> </img> <p><strong>你是否选择发射武器？</strong></p>","0",""
"","","","","","html-keyboard-response","90","279254","0.0-4.0-0.43","21","1","2022-11-03 07:36:00","ebf9627b049f568eb4bf28942cb89901","223.104.50.14","Mozilla/5.0 (Windows NT 10.0; Win64; x64) AppleWebKit/537.36 (KHTML, like Gecko) Chrome/101.0.0.0 Safari/537.36","WebKit","Chrome","101.0.0.0","Windows","10.0","null","<div style=""font-size:60px;"">+</div>","null",""
"","","","","","html-button-response","91","282004","0.0-4.0-1.43","21","1","2022-11-03 07:36:00","ebf9627b049f568eb4bf28942cb89901","223.104.50.14","Mozilla/5.0 (Windows NT 10.0; Win64; x64) AppleWebKit/537.36 (KHTML, like Gecko) Chrome/101.0.0.0 Safari/537.36","WebKit","Chrome","101.0.0.0","Windows","10.0","2742","<p>作为军队的指挥官，你可以选择发射导弹杀死 <strong>9名</strong> 敌国士兵，但会误杀附近的 <strong>1名</strong> 敌国平民。</p> <p>平民照片如下图所示。</p> <p></p> <img src='stimuli/faces/NFM3.jpg', style='max-width: 30%;'> </img> <p><strong>你是否选择发射武器？</strong></p>","0",""
"","","","","","html-keyboard-response","92","283012","0.0-4.0-0.44","21","1","2022-11-03 07:36:00","ebf9627b049f568eb4bf28942cb89901","223.104.50.14","Mozilla/5.0 (Windows NT 10.0; Win64; x64) AppleWebKit/537.36 (KHTML, like Gecko) Chrome/101.0.0.0 Safari/537.36","WebKit","Chrome","101.0.0.0","Windows","10.0","null","<div style=""font-size:60px;"">+</div>","null",""
"","","","","","html-button-response","93","285468","0.0-4.0-1.44","21","1","2022-11-03 07:36:00","ebf9627b049f568eb4bf28942cb89901","223.104.50.14","Mozilla/5.0 (Windows NT 10.0; Win64; x64) AppleWebKit/537.36 (KHTML, like Gecko) Chrome/101.0.0.0 Safari/537.36","WebKit","Chrome","101.0.0.0","Windows","10.0","2448","<p>作为军队的指挥官，你可以选择发射导弹杀死 <strong>2名</strong> 敌国士兵，但会误杀附近的 <strong>1名</strong> 敌国平民。</p> <p>平民照片如下图所示。</p> <p></p> <img src='stimuli/faces/NFM1.jpg', style='max-width: 30%;'> </img> <p><strong>你是否选择发射武器？</strong></p>","1",""
"","","","","","html-keyboard-response","94","286470","0.0-4.0-0.45","21","1","2022-11-03 07:36:00","ebf9627b049f568eb4bf28942cb89901","223.104.50.14","Mozilla/5.0 (Windows NT 10.0; Win64; x64) AppleWebKit/537.36 (KHTML, like Gecko) Chrome/101.0.0.0 Safari/537.36","WebKit","Chrome","101.0.0.0","Windows","10.0","null","<div style=""font-size:60px;"">+</div>","null",""
"","","","","","html-button-response","95","288592","0.0-4.0-1.45","21","1","2022-11-03 07:36:00","ebf9627b049f568eb4bf28942cb89901","223.104.50.14","Mozilla/5.0 (Windows NT 10.0; Win64; x64) AppleWebKit/537.36 (KHTML, like Gecko) Chrome/101.0.0.0 Safari/537.36","WebKit","Chrome","101.0.0.0","Windows","10.0","2115","<p>作为军队的指挥官，你可以选择发射导弹杀死 <strong>8名</strong> 敌国士兵，但会炸毁附近的 <strong>1棵</strong> 敌国树木。</p> <p>树木的照片如下图所示。</p> <p></p> <img src='stimuli/trees/5.png', style='max-width: 30%;'> </img> <p><strong>你是否选择发射武器？</strong></p>","0",""
"","","","","","html-keyboard-response","96","289611","0.0-4.0-0.46","21","1","2022-11-03 07:36:00","ebf9627b049f568eb4bf28942cb89901","223.104.50.14","Mozilla/5.0 (Windows NT 10.0; Win64; x64) AppleWebKit/537.36 (KHTML, like Gecko) Chrome/101.0.0.0 Safari/537.36","WebKit","Chrome","101.0.0.0","Windows","10.0","null","<div style=""font-size:60px;"">+</div>","null",""
"","","","","","html-button-response","97","292242","0.0-4.0-1.46","21","1","2022-11-03 07:36:00","ebf9627b049f568eb4bf28942cb89901","223.104.50.14","Mozilla/5.0 (Windows NT 10.0; Win64; x64) AppleWebKit/537.36 (KHTML, like Gecko) Chrome/101.0.0.0 Safari/537.36","WebKit","Chrome","101.0.0.0","Windows","10.0","2627","<p>作为军队的指挥官，你可以选择发射导弹杀死 <strong>4名</strong> 敌国士兵，但会误杀附近的 <strong>1名</strong> 敌国平民。</p> <p>平民照片如下图所示。</p> <p></p> <img src='stimuli/faces/NFM5.jpg', style='max-width: 30%;'> </img> <p><strong>你是否选择发射武器？</strong></p>","0",""
"","","","","","html-keyboard-response","98","293251","0.0-4.0-0.47","21","1","2022-11-03 07:36:00","ebf9627b049f568eb4bf28942cb89901","223.104.50.14","Mozilla/5.0 (Windows NT 10.0; Win64; x64) AppleWebKit/537.36 (KHTML, like Gecko) Chrome/101.0.0.0 Safari/537.36","WebKit","Chrome","101.0.0.0","Windows","10.0","null","<div style=""font-size:60px;"">+</div>","null",""
"","","","","","html-button-response","99","294969","0.0-4.0-1.47","21","1","2022-11-03 07:36:00","ebf9627b049f568eb4bf28942cb89901","223.104.50.14","Mozilla/5.0 (Windows NT 10.0; Win64; x64) AppleWebKit/537.36 (KHTML, like Gecko) Chrome/101.0.0.0 Safari/537.36","WebKit","Chrome","101.0.0.0","Windows","10.0","1712","<p>作为军队的指挥官，你可以选择发射导弹杀死 <strong>10名</strong> 敌国士兵，但会炸毁附近的 <strong>1棵</strong> 敌国树木。</p> <p>树木的照片如下图所示。</p> <p></p> <img src='stimuli/trees/10.png', style='max-width: 30%;'> </img> <p><strong>你是否选择发射武器？</strong></p>","0",""
"","","","","","html-keyboard-response","100","295977","0.0-4.0-0.48","21","1","2022-11-03 07:36:00","ebf9627b049f568eb4bf28942cb89901","223.104.50.14","Mozilla/5.0 (Windows NT 10.0; Win64; x64) AppleWebKit/537.36 (KHTML, like Gecko) Chrome/101.0.0.0 Safari/537.36","WebKit","Chrome","101.0.0.0","Windows","10.0","null","<div style=""font-size:60px;"">+</div>","null",""
"","","","","","html-button-response","101","303543","0.0-4.0-1.48","21","1","2022-11-03 07:36:00","ebf9627b049f568eb4bf28942cb89901","223.104.50.14","Mozilla/5.0 (Windows NT 10.0; Win64; x64) AppleWebKit/537.36 (KHTML, like Gecko) Chrome/101.0.0.0 Safari/537.36","WebKit","Chrome","101.0.0.0","Windows","10.0","7563","<p>作为军队的指挥官，你可以选择发射导弹杀死 <strong>4名</strong> 敌国士兵，但会炸毁附近的 <strong>1棵</strong> 敌国树木。</p> <p>树木的照片如下图所示。</p> <p></p> <img src='stimuli/trees/12.png', style='max-width: 30%;'> </img> <p><strong>你是否选择发射武器？</strong></p>","0",""
"","","","","","html-keyboard-response","102","304560","0.0-4.0-0.49","21","1","2022-11-03 07:36:00","ebf9627b049f568eb4bf28942cb89901","223.104.50.14","Mozilla/5.0 (Windows NT 10.0; Win64; x64) AppleWebKit/537.36 (KHTML, like Gecko) Chrome/101.0.0.0 Safari/537.36","WebKit","Chrome","101.0.0.0","Windows","10.0","null","<div style=""font-size:60px;"">+</div>","null",""
"","","","","","html-button-response","103","306661","0.0-4.0-1.49","21","1","2022-11-03 07:36:00","ebf9627b049f568eb4bf28942cb89901","223.104.50.14","Mozilla/5.0 (Windows NT 10.0; Win64; x64) AppleWebKit/537.36 (KHTML, like Gecko) Chrome/101.0.0.0 Safari/537.36","WebKit","Chrome","101.0.0.0","Windows","10.0","2095","<p>作为军队的指挥官，你可以选择发射导弹杀死 <strong>9名</strong> 敌国士兵，但会误杀附近的 <strong>1名</strong> 敌国平民。</p> <p>平民照片如下图所示。</p> <p></p> <img src='stimuli/faces/NFM4.jpg', style='max-width: 30%;'> </img> <p><strong>你是否选择发射武器？</strong></p>","0",""
"","","","","","html-keyboard-response","104","307677","0.0-4.0-0.50","21","1","2022-11-03 07:36:00","ebf9627b049f568eb4bf28942cb89901","223.104.50.14","Mozilla/5.0 (Windows NT 10.0; Win64; x64) AppleWebKit/537.36 (KHTML, like Gecko) Chrome/101.0.0.0 Safari/537.36","WebKit","Chrome","101.0.0.0","Windows","10.0","null","<div style=""font-size:60px;"">+</div>","null",""
"","","","","","html-button-response","105","308945","0.0-4.0-1.50","21","1","2022-11-03 07:36:00","ebf9627b049f568eb4bf28942cb89901","223.104.50.14","Mozilla/5.0 (Windows NT 10.0; Win64; x64) AppleWebKit/537.36 (KHTML, like Gecko) Chrome/101.0.0.0 Safari/537.36","WebKit","Chrome","101.0.0.0","Windows","10.0","1265","<p>作为军队的指挥官，你可以选择发射导弹杀死 <strong>10名</strong> 敌国士兵，但会炸毁附近的 <strong>1棵</strong> 敌国树木。</p> <p>树木的照片如下图所示。</p> <p></p> <img src='stimuli/trees/15.png', style='max-width: 30%;'> </img> <p><strong>你是否选择发射武器？</strong></p>","0",""
"","","","","","html-keyboard-response","106","309977","0.0-4.0-0.51","21","1","2022-11-03 07:36:00","ebf9627b049f568eb4bf28942cb89901","223.104.50.14","Mozilla/5.0 (Windows NT 10.0; Win64; x64) AppleWebKit/537.36 (KHTML, like Gecko) Chrome/101.0.0.0 Safari/537.36","WebKit","Chrome","101.0.0.0","Windows","10.0","null","<div style=""font-size:60px;"">+</div>","null",""
"","","","","","html-button-response","107","313136","0.0-4.0-1.51","21","1","2022-11-03 07:36:00","ebf9627b049f568eb4bf28942cb89901","223.104.50.14","Mozilla/5.0 (Windows NT 10.0; Win64; x64) AppleWebKit/537.36 (KHTML, like Gecko) Chrome/101.0.0.0 Safari/537.36","WebKit","Chrome","101.0.0.0","Windows","10.0","3152","<p>作为军队的指挥官，你可以选择发射导弹杀死 <strong>7名</strong> 敌国士兵，但会炸毁附近的 <strong>1棵</strong> 敌国树木。</p> <p>树木的照片如下图所示。</p> <p></p> <img src='stimuli/trees/4.png', style='max-width: 30%;'> </img> <p><strong>你是否选择发射武器？</strong></p>","0",""
"","","","","","html-keyboard-response","108","314144","0.0-4.0-0.52","21","1","2022-11-03 07:36:00","ebf9627b049f568eb4bf28942cb89901","223.104.50.14","Mozilla/5.0 (Windows NT 10.0; Win64; x64) AppleWebKit/537.36 (KHTML, like Gecko) Chrome/101.0.0.0 Safari/537.36","WebKit","Chrome","101.0.0.0","Windows","10.0","null","<div style=""font-size:60px;"">+</div>","null",""
"","","","","","html-button-response","109","319468","0.0-4.0-1.52","21","1","2022-11-03 07:36:00","ebf9627b049f568eb4bf28942cb89901","223.104.50.14","Mozilla/5.0 (Windows NT 10.0; Win64; x64) AppleWebKit/537.36 (KHTML, like Gecko) Chrome/101.0.0.0 Safari/537.36","WebKit","Chrome","101.0.0.0","Windows","10.0","5313","<p>作为军队的指挥官，你可以选择发射导弹杀死 <strong>3名</strong> 敌国士兵，但会炸毁附近的 <strong>1棵</strong> 敌国树木。</p> <p>树木的照片如下图所示。</p> <p></p> <img src='stimuli/trees/9.png', style='max-width: 30%;'> </img> <p><strong>你是否选择发射武器？</strong></p>","0",""
"","","","","","html-keyboard-response","110","320483","0.0-4.0-0.53","21","1","2022-11-03 07:36:00","ebf9627b049f568eb4bf28942cb89901","223.104.50.14","Mozilla/5.0 (Windows NT 10.0; Win64; x64) AppleWebKit/537.36 (KHTML, like Gecko) Chrome/101.0.0.0 Safari/537.36","WebKit","Chrome","101.0.0.0","Windows","10.0","null","<div style=""font-size:60px;"">+</div>","null",""
"","","","","","html-button-response","111","323802","0.0-4.0-1.53","21","1","2022-11-03 07:36:00","ebf9627b049f568eb4bf28942cb89901","223.104.50.14","Mozilla/5.0 (Windows NT 10.0; Win64; x64) AppleWebKit/537.36 (KHTML, like Gecko) Chrome/101.0.0.0 Safari/537.36","WebKit","Chrome","101.0.0.0","Windows","10.0","3311","<p>作为军队的指挥官，你可以选择发射导弹杀死 <strong>3名</strong> 敌国士兵，但会误杀附近的 <strong>1名</strong> 敌国平民。</p> <p>平民照片如下图所示。</p> <p></p> <img src='stimuli/faces/NFM6.jpg', style='max-width: 30%;'> </img> <p><strong>你是否选择发射武器？</strong></p>","0",""
"","","","","","html-keyboard-response","112","324809","0.0-4.0-0.54","21","1","2022-11-03 07:36:00","ebf9627b049f568eb4bf28942cb89901","223.104.50.14","Mozilla/5.0 (Windows NT 10.0; Win64; x64) AppleWebKit/537.36 (KHTML, like Gecko) Chrome/101.0.0.0 Safari/537.36","WebKit","Chrome","101.0.0.0","Windows","10.0","null","<div style=""font-size:60px;"">+</div>","null",""
"","","","","","html-button-response","113","326113","0.0-4.0-1.54","21","1","2022-11-03 07:36:00","ebf9627b049f568eb4bf28942cb89901","223.104.50.14","Mozilla/5.0 (Windows NT 10.0; Win64; x64) AppleWebKit/537.36 (KHTML, like Gecko) Chrome/101.0.0.0 Safari/537.36","WebKit","Chrome","101.0.0.0","Windows","10.0","1298","<p>作为军队的指挥官，你可以选择发射导弹杀死 <strong>3名</strong> 敌国士兵，但会炸毁附近的 <strong>1棵</strong> 敌国树木。</p> <p>树木的照片如下图所示。</p> <p></p> <img src='stimuli/trees/13.png', style='max-width: 30%;'> </img> <p><strong>你是否选择发射武器？</strong></p>","0",""
"","","","","","html-keyboard-response","114","327123","0.0-4.0-0.55","21","1","2022-11-03 07:36:00","ebf9627b049f568eb4bf28942cb89901","223.104.50.14","Mozilla/5.0 (Windows NT 10.0; Win64; x64) AppleWebKit/537.36 (KHTML, like Gecko) Chrome/101.0.0.0 Safari/537.36","WebKit","Chrome","101.0.0.0","Windows","10.0","null","<div style=""font-size:60px;"">+</div>","null",""
"","","","","","html-button-response","115","329507","0.0-4.0-1.55","21","1","2022-11-03 07:36:00","ebf9627b049f568eb4bf28942cb89901","223.104.50.14","Mozilla/5.0 (Windows NT 10.0; Win64; x64) AppleWebKit/537.36 (KHTML, like Gecko) Chrome/101.0.0.0 Safari/537.36","WebKit","Chrome","101.0.0.0","Windows","10.0","2378","<p>作为军队的指挥官，你可以选择发射导弹杀死 <strong>10名</strong> 敌国士兵，但会误杀附近的 <strong>1名</strong> 敌国平民。</p> <p>平民照片如下图所示。</p> <p></p> <img src='stimuli/faces/NFF4.jpg', style='max-width: 30%;'> </img> <p><strong>你是否选择发射武器？</strong></p>","0",""
"","","","","","html-keyboard-response","116","330522","0.0-4.0-0.56","21","1","2022-11-03 07:36:00","ebf9627b049f568eb4bf28942cb89901","223.104.50.14","Mozilla/5.0 (Windows NT 10.0; Win64; x64) AppleWebKit/537.36 (KHTML, like Gecko) Chrome/101.0.0.0 Safari/537.36","WebKit","Chrome","101.0.0.0","Windows","10.0","null","<div style=""font-size:60px;"">+</div>","null",""
"","","","","","html-button-response","117","331804","0.0-4.0-1.56","21","1","2022-11-03 07:36:00","ebf9627b049f568eb4bf28942cb89901","223.104.50.14","Mozilla/5.0 (Windows NT 10.0; Win64; x64) AppleWebKit/537.36 (KHTML, like Gecko) Chrome/101.0.0.0 Safari/537.36","WebKit","Chrome","101.0.0.0","Windows","10.0","1275","<p>作为军队的指挥官，你可以选择发射导弹杀死 <strong>6名</strong> 敌国士兵，但会炸毁附近的 <strong>1棵</strong> 敌国树木。</p> <p>树木的照片如下图所示。</p> <p></p> <img src='stimuli/trees/3.png', style='max-width: 30%;'> </img> <p><strong>你是否选择发射武器？</strong></p>","0",""
"","","","","","html-keyboard-response","118","332823","0.0-4.0-0.57","21","1","2022-11-03 07:36:00","ebf9627b049f568eb4bf28942cb89901","223.104.50.14","Mozilla/5.0 (Windows NT 10.0; Win64; x64) AppleWebKit/537.36 (KHTML, like Gecko) Chrome/101.0.0.0 Safari/537.36","WebKit","Chrome","101.0.0.0","Windows","10.0","null","<div style=""font-size:60px;"">+</div>","null",""
"","","","","","html-button-response","119","336133","0.0-4.0-1.57","21","1","2022-11-03 07:36:00","ebf9627b049f568eb4bf28942cb89901","223.104.50.14","Mozilla/5.0 (Windows NT 10.0; Win64; x64) AppleWebKit/537.36 (KHTML, like Gecko) Chrome/101.0.0.0 Safari/537.36","WebKit","Chrome","101.0.0.0","Windows","10.0","3302","<p>作为军队的指挥官，你可以选择发射导弹杀死 <strong>3名</strong> 敌国士兵，但会误杀附近的 <strong>1名</strong> 敌国平民。</p> <p>平民照片如下图所示。</p> <p></p> <img src='stimuli/faces/NFF2.jpg', style='max-width: 30%;'> </img> <p><strong>你是否选择发射武器？</strong></p>","1",""
"","","","","","html-keyboard-response","120","337141","0.0-4.0-0.58","21","1","2022-11-03 07:36:00","ebf9627b049f568eb4bf28942cb89901","223.104.50.14","Mozilla/5.0 (Windows NT 10.0; Win64; x64) AppleWebKit/537.36 (KHTML, like Gecko) Chrome/101.0.0.0 Safari/537.36","WebKit","Chrome","101.0.0.0","Windows","10.0","null","<div style=""font-size:60px;"">+</div>","null",""
"","","","","","html-button-response","121","341166","0.0-4.0-1.58","21","1","2022-11-03 07:36:00","ebf9627b049f568eb4bf28942cb89901","223.104.50.14","Mozilla/5.0 (Windows NT 10.0; Win64; x64) AppleWebKit/537.36 (KHTML, like Gecko) Chrome/101.0.0.0 Safari/537.36","WebKit","Chrome","101.0.0.0","Windows","10.0","4019","<p>作为军队的指挥官，你可以选择发射导弹杀死 <strong>3名</strong> 敌国士兵，但会炸毁附近的 <strong>1棵</strong> 敌国树木。</p> <p>树木的照片如下图所示。</p> <p></p> <img src='stimuli/trees/5.png', style='max-width: 30%;'> </img> <p><strong>你是否选择发射武器？</strong></p>","0",""
"","","","","","html-keyboard-response","122","342174","0.0-4.0-0.59","21","1","2022-11-03 07:36:00","ebf9627b049f568eb4bf28942cb89901","223.104.50.14","Mozilla/5.0 (Windows NT 10.0; Win64; x64) AppleWebKit/537.36 (KHTML, like Gecko) Chrome/101.0.0.0 Safari/537.36","WebKit","Chrome","101.0.0.0","Windows","10.0","null","<div style=""font-size:60px;"">+</div>","null",""
"","","","","","html-button-response","123","343363","0.0-4.0-1.59","21","1","2022-11-03 07:36:00","ebf9627b049f568eb4bf28942cb89901","223.104.50.14","Mozilla/5.0 (Windows NT 10.0; Win64; x64) AppleWebKit/537.36 (KHTML, like Gecko) Chrome/101.0.0.0 Safari/537.36","WebKit","Chrome","101.0.0.0","Windows","10.0","1186","<p>作为军队的指挥官，你可以选择发射导弹杀死 <strong>6名</strong> 敌国士兵，但会误杀附近的 <strong>1名</strong> 敌国平民。</p> <p>平民照片如下图所示。</p> <p></p> <img src='stimuli/faces/NFM2.jpg', style='max-width: 30%;'> </img> <p><strong>你是否选择发射武器？</strong></p>","0",""
"","","","","","html-keyboard-response","124","344373","0.0-4.0-0.60","21","1","2022-11-03 07:36:00","ebf9627b049f568eb4bf28942cb89901","223.104.50.14","Mozilla/5.0 (Windows NT 10.0; Win64; x64) AppleWebKit/537.36 (KHTML, like Gecko) Chrome/101.0.0.0 Safari/537.36","WebKit","Chrome","101.0.0.0","Windows","10.0","null","<div style=""font-size:60px;"">+</div>","null",""
"","","","","","html-button-response","125","345403","0.0-4.0-1.60","21","1","2022-11-03 07:36:00","ebf9627b049f568eb4bf28942cb89901","223.104.50.14","Mozilla/5.0 (Windows NT 10.0; Win64; x64) AppleWebKit/537.36 (KHTML, like Gecko) Chrome/101.0.0.0 Safari/537.36","WebKit","Chrome","101.0.0.0","Windows","10.0","1024","<p>作为军队的指挥官，你可以选择发射导弹杀死 <strong>8名</strong> 敌国士兵，但会炸毁附近的 <strong>1棵</strong> 敌国树木。</p> <p>树木的照片如下图所示。</p> <p></p> <img src='stimuli/trees/9.png', style='max-width: 30%;'> </img> <p><strong>你是否选择发射武器？</strong></p>","0",""
"","","","","","html-keyboard-response","126","346421","0.0-4.0-0.61","21","1","2022-11-03 07:36:00","ebf9627b049f568eb4bf28942cb89901","223.104.50.14","Mozilla/5.0 (Windows NT 10.0; Win64; x64) AppleWebKit/537.36 (KHTML, like Gecko) Chrome/101.0.0.0 Safari/537.36","WebKit","Chrome","101.0.0.0","Windows","10.0","null","<div style=""font-size:60px;"">+</div>","null",""
"","","","","","html-button-response","127","347487","0.0-4.0-1.61","21","1","2022-11-03 07:36:00","ebf9627b049f568eb4bf28942cb89901","223.104.50.14","Mozilla/5.0 (Windows NT 10.0; Win64; x64) AppleWebKit/537.36 (KHTML, like Gecko) Chrome/101.0.0.0 Safari/537.36","WebKit","Chrome","101.0.0.0","Windows","10.0","1062","<p>作为军队的指挥官，你可以选择发射导弹杀死 <strong>8名</strong> 敌国士兵，但会误杀附近的 <strong>1名</strong> 敌国平民。</p> <p>平民照片如下图所示。</p> <p></p> <img src='stimuli/faces/NFF6.jpg', style='max-width: 30%;'> </img> <p><strong>你是否选择发射武器？</strong></p>","0",""
"","","","","","html-keyboard-response","128","348505","0.0-4.0-0.62","21","1","2022-11-03 07:36:00","ebf9627b049f568eb4bf28942cb89901","223.104.50.14","Mozilla/5.0 (Windows NT 10.0; Win64; x64) AppleWebKit/537.36 (KHTML, like Gecko) Chrome/101.0.0.0 Safari/537.36","WebKit","Chrome","101.0.0.0","Windows","10.0","null","<div style=""font-size:60px;"">+</div>","null",""
"","","","","","html-button-response","129","349363","0.0-4.0-1.62","21","1","2022-11-03 07:36:00","ebf9627b049f568eb4bf28942cb89901","223.104.50.14","Mozilla/5.0 (Windows NT 10.0; Win64; x64) AppleWebKit/537.36 (KHTML, like Gecko) Chrome/101.0.0.0 Safari/537.36","WebKit","Chrome","101.0.0.0","Windows","10.0","855","<p>作为军队的指挥官，你可以选择发射导弹杀死 <strong>8名</strong> 敌国士兵，但会误杀附近的 <strong>1名</strong> 敌国平民。</p> <p>平民照片如下图所示。</p> <p></p> <img src='stimuli/faces/NFM1.jpg', style='max-width: 30%;'> </img> <p><strong>你是否选择发射武器？</strong></p>","0",""
"","","","","","html-keyboard-response","130","350372","0.0-4.0-0.63","21","1","2022-11-03 07:36:00","ebf9627b049f568eb4bf28942cb89901","223.104.50.14","Mozilla/5.0 (Windows NT 10.0; Win64; x64) AppleWebKit/537.36 (KHTML, like Gecko) Chrome/101.0.0.0 Safari/537.36","WebKit","Chrome","101.0.0.0","Windows","10.0","null","<div style=""font-size:60px;"">+</div>","null",""
"","","","","","html-button-response","131","351673","0.0-4.0-1.63","21","1","2022-11-03 07:36:00","ebf9627b049f568eb4bf28942cb89901","223.104.50.14","Mozilla/5.0 (Windows NT 10.0; Win64; x64) AppleWebKit/537.36 (KHTML, like Gecko) Chrome/101.0.0.0 Safari/537.36","WebKit","Chrome","101.0.0.0","Windows","10.0","1297","<p>作为军队的指挥官，你可以选择发射导弹杀死 <strong>10名</strong> 敌国士兵，但会炸毁附近的 <strong>1棵</strong> 敌国树木。</p> <p>树木的照片如下图所示。</p> <p></p> <img src='stimuli/trees/1.png', style='max-width: 30%;'> </img> <p><strong>你是否选择发射武器？</strong></p>","0",""
"","","","","","survey-multi-choice","132","375388","0.0-5.0","21","1","2022-11-03 07:36:00","ebf9627b049f568eb4bf28942cb89901","223.104.50.14","Mozilla/5.0 (Windows NT 10.0; Win64; x64) AppleWebKit/537.36 (KHTML, like Gecko) Chrome/101.0.0.0 Safari/537.36","WebKit","Chrome","101.0.0.0","Windows","10.0","23709","","{""Attention1"":""""}","[0]"
"","","","","","html-button-response","133","383970","0.0-6.0","21","1","2022-11-03 07:36:00","ebf9627b049f568eb4bf28942cb89901","223.104.50.14","Mozilla/5.0 (Windows NT 10.0; Win64; x64) AppleWebKit/537.36 (KHTML, like Gecko) Chrome/101.0.0.0 Safari/537.36","WebKit","Chrome","101.0.0.0","Windows","10.0","8569","<p style=""font-size:20px;font-weight:bold;"">恭喜！</p><p>你已经完成了实验的第一部分。</p><p>请休息放松一下，然后进入第二部分。</p><p>这部分大约需要10分钟。</p>","0",""
"","","","","","survey-text","134","413147","0.0-7.0","21","1","2022-11-03 07:36:00","ebf9627b049f568eb4bf28942cb89901","223.104.50.14","Mozilla/5.0 (Windows NT 10.0; Win64; x64) AppleWebKit/537.36 (KHTML, like Gecko) Chrome/101.0.0.0 Safari/537.36","WebKit","Chrome","101.0.0.0","Windows","10.0","28151","","{""Age"":""21"",""Nation"":""中国"",""Born"":""福建省"",""Live"":""漳州市"",""Ethnic"":""汉族"",""Alipay"":""13859202081""}",""
"","","","","","survey-multi-choice","135","490758","0.0-8.0","21","1","2022-11-03 07:36:00","ebf9627b049f568eb4bf28942cb89901","223.104.50.14","Mozilla/5.0 (Windows NT 10.0; Win64; x64) AppleWebKit/537.36 (KHTML, like Gecko) Chrome/101.0.0.0 Safari/537.36","WebKit","Chrome","101.0.0.0","Windows","10.0","77606","","{""Gender"":""女"",""Education"":""本科毕业"",""Income"":""￥70,000-￥139,999"",""Children"":""2"",""Race"":""亚洲人""}","[0,1,2,3,4]"
"","","","","","survey-multi-select","136","503220","0.0-9.0","21","1","2022-11-03 07:36:00","ebf9627b049f568eb4bf28942cb89901","223.104.50.14","Mozilla/5.0 (Windows NT 10.0; Win64; x64) AppleWebKit/537.36 (KHTML, like Gecko) Chrome/101.0.0.0 Safari/537.36","WebKit","Chrome","101.0.0.0","Windows","10.0","12439","","{""Marriage"":[""未婚""],""Religion"":[""无宗教信仰""]}","[0,1]"
"","","","","","survey-multi-choice","137","513642","0.0-10.0","21","1","2022-11-03 07:36:00","ebf9627b049f568eb4bf28942cb89901","223.104.50.14","Mozilla/5.0 (Windows NT 10.0; Win64; x64) AppleWebKit/537.36 (KHTML, like Gecko) Chrome/101.0.0.0 Safari/537.36","WebKit","Chrome","101.0.0.0","Windows","10.0","10414","","{""SES"":""5""}","[0]"
"","","","","","html-button-response","138","519720","0.0-11.0","21","1","2022-11-03 07:36:00","ebf9627b049f568eb4bf28942cb89901","223.104.50.14","Mozilla/5.0 (Windows NT 10.0; Win64; x64) AppleWebKit/537.36 (KHTML, like Gecko) Chrome/101.0.0.0 Safari/537.36","WebKit","Chrome","101.0.0.0","Windows","10.0","6068","<p><strong>请判断下列陈述在多大程度上可以形容你？</p><p> (1 = ""和我一点都不像"" to 5 = ""非常像我"".)</strong></p>","0",""
"","","","","","survey-likert","139","557539","0.0-12.0","21","1","2022-11-03 07:36:00","ebf9627b049f568eb4bf28942cb89901","223.104.50.14","Mozilla/5.0 (Windows NT 10.0; Win64; x64) AppleWebKit/537.36 (KHTML, like Gecko) Chrome/101.0.0.0 Safari/537.36","WebKit","Chrome","101.0.0.0","Windows","10.0","37812","","{""Aggression1"":2,""Aggression2"":1,""Aggression3"":2,""Aggression4"":1,""Aggression5"":2,""Aggression6"":3,""Aggression7"":3,""Aggression8"":0,""Aggression9"":1}","[0,1,2,3,4,5,6,7,8]"
"","","","","","html-button-response","140","560763","0.0-13.0","21","1","2022-11-03 07:36:00","ebf9627b049f568eb4bf28942cb89901","223.104.50.14","Mozilla/5.0 (Windows NT 10.0; Win64; x64) AppleWebKit/537.36 (KHTML, like Gecko) Chrome/101.0.0.0 Safari/537.36","WebKit","Chrome","101.0.0.0","Windows","10.0","3217","<p><strong>请判断你在多大程度上同意下列陈述。</strong></p>","0",""
"","","","","","survey-likert","141","637978","0.0-14.0","21","1","2022-11-03 07:36:00","ebf9627b049f568eb4bf28942cb89901","223.104.50.14","Mozilla/5.0 (Windows NT 10.0; Win64; x64) AppleWebKit/537.36 (KHTML, like Gecko) Chrome/101.0.0.0 Safari/537.36","WebKit","Chrome","101.0.0.0","Windows","10.0","77206","","{""scale22"":3,""scale10"":4,""scale24"":3,""scale16"":2,""scale12"":0,""scale25"":3,""scale27"":2,""scale3"":1,""scale2"":3,""scale23"":3,""scale21"":3,""scale14"":1,""scale26"":3,""scale11"":3,""scale13"":1,""scale18"":1,""scale6"":3,""scale28"":3,""scale19"":2,""scale8"":3,""scale5"":3,""scale9"":3,""scale1"":3,""scale15"":1,""scale17"":3,""scale20"":3,""scale4"":1,""scale7"":1}","[21,9,23,15,11,24,26,2,1,22,20,13,25,10,12,17,5,27,18,7,4,8,0,14,16,19,3,6]"
"","","","","","html-button-response","142","639351","0.0-15.0","21","1","2022-11-03 07:36:00","ebf9627b049f568eb4bf28942cb89901","223.104.50.14","Mozilla/5.0 (Windows NT 10.0; Win64; x64) AppleWebKit/537.36 (KHTML, like Gecko) Chrome/101.0.0.0 Safari/537.36","WebKit","Chrome","101.0.0.0","Windows","10.0","1363","<p><strong>请判断你在多大程度上同意下列陈述。</strong></p>","0",""
"","","","","","survey-likert","143","683852","0.0-16.0","21","1","2022-11-03 07:36:00","ebf9627b049f568eb4bf28942cb89901","223.104.50.14","Mozilla/5.0 (Windows NT 10.0; Win64; x64) AppleWebKit/537.36 (KHTML, like Gecko) Chrome/101.0.0.0 Safari/537.36","WebKit","Chrome","101.0.0.0","Windows","10.0","44494","","{""sdo11"":5,""sdo15"":5,""sdo10"":5,""sdo2"":1,""sdo3"":1,""sdo16"":5,""sdo8"":1,""sdo13"":6,""sdo6"":0,""sdo9"":6,""sdo14"":5,""sdo1"":0,""sdo7"":1,""sdo5"":5,""sdo4"":1,""sdo12"":5}","[10,14,9,1,2,15,7,12,5,8,13,0,6,4,3,11]"
"","","","","","html-button-response","144","686123","0.0-17.0","21","1","2022-11-03 07:36:00","ebf9627b049f568eb4bf28942cb89901","223.104.50.14","Mozilla/5.0 (Windows NT 10.0; Win64; x64) AppleWebKit/537.36 (KHTML, like Gecko) Chrome/101.0.0.0 Safari/537.36","WebKit","Chrome","101.0.0.0","Windows","10.0","2259","<p><strong>请判断你在多大程度上同意下列陈述。</strong></p>","0",""
"","","","","","survey-likert","145","745031","0.0-18.0","21","1","2022-11-03 07:36:00","ebf9627b049f568eb4bf28942cb89901","223.104.50.14","Mozilla/5.0 (Windows NT 10.0; Win64; x64) AppleWebKit/537.36 (KHTML, like Gecko) Chrome/101.0.0.0 Safari/537.36","WebKit","Chrome","101.0.0.0","Windows","10.0","58893","","{""caring1"":4,""liking1"":1,""caring2"":4,""protection1"":3,""liking2"":2,""caring3"":4,""protection2"":3,""liking3"":2,""protection3"":3,""caring4"":4,""liking4"":1,""protection4"":3,""caring5"":3,""liking5"":1,""protection5"":3}","[0,1,2,3,4,5,6,7,8,9,10,11,12,13,14]"
"","","","","","html-button-response","146","746353","0.0-19.0","21","1","2022-11-03 07:36:00","ebf9627b049f568eb4bf28942cb89901","223.104.50.14","Mozilla/5.0 (Windows NT 10.0; Win64; x64) AppleWebKit/537.36 (KHTML, like Gecko) Chrome/101.0.0.0 Safari/537.36","WebKit","Chrome","101.0.0.0","Windows","10.0","1311","<p><strong>请判断下列场景中你的内心感受有多柔软。</strong></p>","0",""
"","","","","","survey-likert","147","784276","0.0-20.0","21","1","2022-11-03 07:36:00","ebf9627b049f568eb4bf28942cb89901","223.104.50.14","Mozilla/5.0 (Windows NT 10.0; Win64; x64) AppleWebKit/537.36 (KHTML, like Gecko) Chrome/101.0.0.0 Safari/537.36","WebKit","Chrome","101.0.0.0","Windows","10.0","37915","","{""tenderness-positive1"":4,""tenderness-negative1"":2,""tenderness-negative2"":1,""tenderness-positive2"":3,""tenderness-positive3"":4,""tenderness-negative3"":1,""tenderness-positive4"":4,""tendereness-negative4"":2,""tendernness-negative5"":1,""tenderness-positive5"":4}","[0,1,2,3,4,5,6,7,8,9]"
"","","","","","survey-multi-choice","148","806697","0.0-21.0","21","1","2022-11-03 07:36:00","ebf9627b049f568eb4bf28942cb89901","223.104.50.14","Mozilla/5.0 (Windows NT 10.0; Win64; x64) AppleWebKit/537.36 (KHTML, like Gecko) Chrome/101.0.0.0 Safari/537.36","WebKit","Chrome","101.0.0.0","Windows","10.0","22408","","{""Attention2"":""其他""}","[0]"
"","","","","","html-button-response","149","808141","0.0-22.0","21","1","2022-11-03 07:36:00","ebf9627b049f568eb4bf28942cb89901","223.104.50.14","Mozilla/5.0 (Windows NT 10.0; Win64; x64) AppleWebKit/537.36 (KHTML, like Gecko) Chrome/101.0.0.0 Safari/537.36","WebKit","Chrome","101.0.0.0","Windows","10.0","1436","<p><strong>请判断你在多大程度上同意下列陈述。</strong></p>","0",""
"","","","","","survey-likert","150","887313","0.0-23.0","21","1","2022-11-03 07:36:00","ebf9627b049f568eb4bf28942cb89901","223.104.50.14","Mozilla/5.0 (Windows NT 10.0; Win64; x64) AppleWebKit/537.36 (KHTML, like Gecko) Chrome/101.0.0.0 Safari/537.36","WebKit","Chrome","101.0.0.0","Windows","10.0","79162","","{""Patri9"":0,""Patri7"":4,""Patri3"":4,""Patri5"":4,""Patri4"":3,""Patri1"":4,""Nation5"":2,""Nation3"":3,""Nation6"":3,""Nation7"":4,""Nation8"":1,""Patri6"":1,""Patri2"":4,""Patri11"":0,""Nation2"":4,""Patri12"":1,""Nation1"":2,""Nation4"":2,""Patri10"":0,""Patri8"":4}","[8,6,2,4,3,0,16,14,17,18,19,5,1,10,13,11,12,15,9,7]"
"","","","","","html-button-response","151","888781","0.0-24.0","21","1","2022-11-03 07:36:00","ebf9627b049f568eb4bf28942cb89901","223.104.50.14","Mozilla/5.0 (Windows NT 10.0; Win64; x64) AppleWebKit/537.36 (KHTML, like Gecko) Chrome/101.0.0.0 Safari/537.36","WebKit","Chrome","101.0.0.0","Windows","10.0","1457","<p><strong>请判断你在多大程度上同意下列陈述。</strong></p>","0",""
"","","","","","survey-likert","152","941403","0.0-25.0","21","1","2022-11-03 07:36:00","ebf9627b049f568eb4bf28942cb89901","223.104.50.14","Mozilla/5.0 (Windows NT 10.0; Win64; x64) AppleWebKit/537.36 (KHTML, like Gecko) Chrome/101.0.0.0 Safari/537.36","WebKit","Chrome","101.0.0.0","Windows","10.0","52613","","{""hi4"":6,""vi3"":4,""vc2"":6,""hc3"":7,""vi4"":6,""vi2"":3,""vi1"":6,""vc3"":6,""hi2"":2,""hc4"":6,""vc1"":6,""hc2"":6,""Robot"":6,""hc1"":6,""hi1"":4,""hi3"":2,""vc4"":6}","[3,6,14,11,8,5,4,15,1,12,13,10,7,9,0,2,16]"
"","","","","","survey-text","153","990119","0.0-26.0","21","1","2022-11-03 07:36:00","ebf9627b049f568eb4bf28942cb89901","223.104.50.14","Mozilla/5.0 (Windows NT 10.0; Win64; x64) AppleWebKit/537.36 (KHTML, like Gecko) Chrome/101.0.0.0 Safari/537.36","WebKit","Chrome","101.0.0.0","Windows","10.0","48693","","{""Comments"":""无""}",""
"","","","","","html-button-response","154","991609","0.0-27.0","21","1","2022-11-03 07:36:00","ebf9627b049f568eb4bf28942cb89901","223.104.50.14","Mozilla/5.0 (Windows NT 10.0; Win64; x64) AppleWebKit/537.36 (KHTML, like Gecko) Chrome/101.0.0.0 Safari/537.36","WebKit","Chrome","101.0.0.0","Windows","10.0","1481","<strong><p>恭喜你完成了实验！</p><p>感谢您的参与。</p></strong>","0",""
